// General information: 
//  MT Manager version: 2019.2.0 
//  XDA version: 2019.2.0 build 3853 rev 94535 built on 2019-09-09
// Device information: 
//  DeviceId: 00B47791
//  ProductCode: MTW2-3A7G6
//  Firmware Version: 4.6.0
//  Hardware Version: 2.0.0
// Device settings: 
//  Filter Profile: human(46.1)
//  Option Flags: Orientation Smoother Disabled, AHS Disabled, ICC Disabled
// Coordinate system: ENU
PacketCounter	SampleTimeFine	Acc_X	Acc_Y	Acc_Z	FreeAcc_E	FreeAcc_N	FreeAcc_U	Gyr_X	Gyr_Y	Gyr_Z	Mag_X	Mag_Y	Mag_Z	VelInc_X	VelInc_Y	VelInc_Z	Quat_q0	Quat_q1	Quat_q2	Quat_q3	Roll	Pitch	Yaw
09815		9.772626	0.094925	1.014993	0.064548	0.075122	0.012465	0.017084	0.000688	-0.006235	-0.989502	-0.170166	-0.543457	0.097726	0.000945	0.010150	0.736802	0.104908	-0.658089	0.114177	2.210044	-83.574620	15.642126
09816		9.806436	0.125448	1.045972	0.029415	0.096292	0.049657	0.014316	0.005973	-0.003273	-0.989258	-0.166992	-0.533936	0.098065	0.001252	0.010457	0.736802	0.104914	-0.658076	0.114241	2.172732	-83.572954	15.685192
09817		9.767537	0.127295	1.029790	0.039994	0.102466	0.009194	0.010078	0.004422	-0.006025	-0.989258	-0.170166	-0.543945	0.097676	0.001269	0.010296	0.736802	0.104915	-0.658070	0.114281	2.146545	-83.572104	15.714767
09818		9.778685	0.110062	1.074338	0.004476	0.073339	0.025178	0.007446	0.006977	-0.006788	-0.983154	-0.172119	-0.537109	0.097787	0.001097	0.010740	0.736812	0.104907	-0.658055	0.114310	2.123003	-83.569783	15.740015
09819		9.778621	0.110740	1.074854	0.003875	0.074389	0.025171	0.006688	0.003738	-0.005523	-0.989746	-0.163574	-0.530518	0.097786	0.001104	0.010747	0.736811	0.104895	-0.658053	0.114341	2.093153	-83.569249	15.771521
09820		9.745352	0.103834	1.080451	-0.002989	0.065451	-0.007294	0.008756	0.002084	-0.009425	-0.984131	-0.165039	-0.540039	0.097454	0.001033	0.010804	0.736805	0.104903	-0.658054	0.114362	2.084686	-83.569673	15.782355
09821		9.770053	0.083855	1.092940	-0.006292	0.043805	0.018565	0.009507	0.000882	-0.003205	-0.989258	-0.169434	-0.531982	0.097701	0.000836	0.010929	0.736791	0.104892	-0.658063	0.114407	2.043723	-83.570960	15.826137
09822		9.764462	0.093331	1.070742	0.010547	0.059926	0.010561	0.007428	-0.004695	-0.005339	-0.992920	-0.168701	-0.541504	0.097644	0.000930	0.010710	0.736762	0.104886	-0.658092	0.114435	2.014939	-83.575346	15.856651
09823		9.750398	0.074508	1.065932	0.018455	0.043355	-0.004027	0.008886	-0.005088	-0.005663	-0.994141	-0.171143	-0.541016	0.097504	0.000742	0.010662	0.736730	0.104888	-0.658122	0.114469	1.988047	-83.580008	15.886422
09824		9.745421	0.106370	1.079578	-0.005475	0.069648	-0.007324	0.008186	-0.001456	-0.006604	-0.987061	-0.168945	-0.541260	0.097454	0.001060	0.010797	0.736711	0.104887	-0.658138	0.114496	1.965492	-83.582512	15.911104
09825		9.770142	0.086394	1.091951	-0.008764	0.047996	0.018544	0.002637	0.001885	-0.006722	-0.986328	-0.168213	-0.538574	0.097702	0.000861	0.010919	0.736707	0.104864	-0.658144	0.114509	1.939399	-83.583039	15.936376
09826		9.764478	0.096010	1.070364	0.008079	0.064112	0.010537	-0.002439	0.006694	-0.006694	-0.986328	-0.167725	-0.534912	0.097645	0.000957	0.010700	0.736721	0.104820	-0.658136	0.114505	1.909796	-83.580872	15.962024
09827		9.719936	0.107013	1.032462	0.036147	0.085304	-0.037924	0.001047	0.009448	-0.010161	-0.991211	-0.170410	-0.528076	0.097200	0.001065	0.010320	0.736744	0.104798	-0.658114	0.114503	1.898754	-83.577055	15.971185
09828		9.789622	0.099229	1.120169	-0.036617	0.053698	0.041099	0.000005	0.004439	-0.007485	-0.992676	-0.169922	-0.541992	0.097897	0.000989	0.011200	0.736750	0.104766	-0.658113	0.114503	1.874986	-83.576162	15.992371
09829		9.723726	0.106814	1.167000	-0.090492	0.044910	-0.019121	-0.000141	-0.000062	-0.009797	-0.986572	-0.162109	-0.535645	0.097237	0.001063	0.011670	0.736741	0.104747	-0.658127	0.114496	1.863337	-83.577911	16.001835
09830		9.723122	0.085553	1.131091	-0.050334	0.035765	-0.023817	-0.004704	0.001416	-0.010383	-0.991943	-0.172607	-0.536865	0.097231	0.000851	0.011310	0.736741	0.104709	-0.658138	0.114469	1.852112	-83.578694	16.007683
09831		9.737172	0.105788	1.135766	-0.059499	0.054453	-0.009261	-0.009406	0.005624	-0.007246	-0.984863	-0.166992	-0.536133	0.097372	0.001055	0.011355	0.736755	0.104642	-0.658138	0.114441	1.820749	-83.577168	16.031257
09832		9.777663	0.171620	1.261025	-0.193669	0.081025	0.045216	-0.015052	0.006893	-0.004398	-0.986328	-0.173340	-0.529053	0.097777	0.001715	0.012607	0.736775	0.104543	-0.658138	0.114405	1.772277	-83.574922	16.068620
09833		9.795627	0.115683	1.179466	-0.097990	0.054070	0.053735	-0.015536	-0.006248	-0.003095	-0.990967	-0.166992	-0.537109	0.097956	0.001156	0.011798	0.736750	0.104449	-0.658187	0.114369	1.718964	-83.580304	16.111255
09834		9.736582	0.084514	1.099794	-0.020584	0.047380	-0.013960	-0.014926	-0.007509	-0.006673	-0.981934	-0.165771	-0.545654	0.097365	0.000843	0.011002	0.736723	0.104367	-0.658239	0.114317	1.684316	-83.586260	16.134779
09835		9.727614	0.034456	1.080619	0.010663	0.005541	-0.025183	-0.011023	-0.010155	-0.007788	-0.985840	-0.160400	-0.540039	0.097276	0.000341	0.010811	0.736688	0.104302	-0.658297	0.114272	1.657173	-83.593588	16.152873
09836		9.751866	-0.007527	1.056153	0.048113	-0.026289	-0.003946	-0.009185	-0.006707	-0.012484	-0.986084	-0.166260	-0.539795	0.097518	-0.000081	0.010565	0.736664	0.104259	-0.658339	0.114218	1.655260	-83.598986	16.146767
09837		9.757502	-0.015502	1.078003	0.030034	-0.040278	0.004066	-0.012187	0.003678	-0.010318	-0.987793	-0.158447	-0.537598	0.097575	-0.000159	0.010778	0.736676	0.104189	-0.658346	0.114165	1.637685	-83.598375	16.154291
09838		9.763657	-0.001151	1.136362	-0.028828	-0.044089	0.016735	-0.009835	0.003796	-0.015628	-0.989990	-0.167236	-0.538330	0.097637	-0.000019	0.011362	0.736690	0.104148	-0.658348	0.114103	1.649901	-83.597707	16.133593
09839		9.728175	0.061255	1.116534	-0.032563	0.019958	-0.020531	-0.011387	0.006559	-0.019822	-0.992920	-0.167480	-0.539795	0.097282	0.000604	0.011162	0.736716	0.104111	-0.658339	0.114021	1.680686	-83.595375	16.092988
09840		9.723043	0.094364	1.131073	-0.056475	0.046258	-0.023895	-0.012707	0.004220	-0.023221	-0.990479	-0.164551	-0.537842	0.097231	0.000933	0.011309	0.736736	0.104084	-0.658338	0.113921	1.729912	-83.594332	16.033391
09841		9.656565	0.080991	1.141916	-0.069517	0.027216	-0.088788	-0.019346	0.000116	-0.025941	-0.985352	-0.170166	-0.536621	0.096566	0.000798	0.011419	0.736748	0.104044	-0.658354	0.113788	1.788946	-83.595591	15.960128
09842		9.672872	0.034239	1.171856	-0.081782	-0.027107	-0.069410	-0.014971	-0.001058	-0.026910	-0.979736	-0.170654	-0.535156	0.096729	0.000330	0.011719	0.736755	0.104024	-0.658371	0.113665	1.856551	-83.597490	15.880732
09843		9.711196	0.013467	1.152192	-0.052881	-0.041280	-0.033600	-0.008619	-0.005953	-0.028819	-0.993652	-0.166260	-0.539063	0.097112	0.000121	0.011525	0.736742	0.104040	-0.658401	0.113557	1.938835	-83.602101	15.790862
09844		9.746173	-0.066671	1.136318	-0.009634	-0.113408	-0.000929	-0.009560	0.002779	-0.030548	-0.983643	-0.161133	-0.545654	0.097462	-0.000681	0.011362	0.736761	0.104050	-0.658399	0.113440	2.027555	-83.601706	15.693339
09845		9.727008	-0.052158	1.146250	-0.024989	-0.104735	-0.018827	-0.004525	0.002776	-0.029818	-0.989014	-0.169189	-0.539063	0.097270	-0.000536	0.011461	0.736777	0.104072	-0.658394	0.113340	2.114038	-83.601188	15.600516
09846		9.693278	-0.079494	1.115671	0.008962	-0.123977	-0.055884	-0.002971	0.000013	-0.025625	-0.991455	-0.166260	-0.536621	0.096933	-0.000807	0.011157	0.736780	0.104092	-0.658401	0.113261	2.181910	-83.602451	15.527770
09847		9.731647	-0.100338	1.096071	0.037835	-0.138123	-0.020043	-0.001276	-0.005479	-0.025155	-0.980225	-0.177734	-0.540283	0.097316	-0.001016	0.010963	0.736763	0.104120	-0.658428	0.113189	2.248901	-83.606869	15.457111
09848		9.643318	-0.055945	1.053891	0.053974	-0.086843	-0.112330	-0.005131	-0.012084	-0.017322	-0.980713	-0.165527	-0.539307	0.096432	-0.000568	0.010545	0.736723	0.104111	-0.658485	0.113128	2.275654	-83.615230	15.424496
09849		9.510552	-0.002335	0.972298	0.098926	-0.015583	-0.253088	-0.021267	-0.021543	-0.009359	-0.983398	-0.177490	-0.541016	0.095104	-0.000027	0.009733	0.736656	0.104025	-0.658589	0.113041	2.254941	-83.629013	15.430861
09850		9.461104	0.039528	0.945978	0.103812	0.030691	-0.304943	-0.038875	-0.014498	-0.009984	-0.987061	-0.170898	-0.539795	0.094610	0.000392	0.009467	0.736621	0.103868	-0.658678	0.112894	2.225278	-83.638920	15.435560
09851		9.572175	-0.038204	1.075253	0.016529	-0.078672	-0.180569	-0.057958	0.016280	-0.013149	-0.985840	-0.169922	-0.536377	0.095723	-0.000385	0.010745	0.736699	0.103640	-0.658661	0.112693	2.195834	-83.631003	15.429872
09852		9.766928	-0.104627	1.297384	-0.151645	-0.202698	0.037335	-0.067901	0.017994	-0.025794	-0.982178	-0.166260	-0.549072	0.097670	-0.001054	0.012965	0.736795	0.103411	-0.658638	0.112409	2.224111	-83.621958	15.359537
09853		9.987923	-0.113049	1.319581	-0.144258	-0.211468	0.259410	-0.067919	0.026890	-0.040729	-0.985596	-0.164551	-0.533203	0.099881	-0.001146	0.013183	0.736929	0.103226	-0.658573	0.112076	2.326537	-83.607276	15.214651
09854		10.098509	-0.104011	1.350075	-0.161297	-0.210181	0.372754	-0.083364	0.022677	-0.046771	-0.987793	-0.168701	-0.545410	0.100986	-0.001058	0.013490	0.737060	0.103006	-0.658531	0.111666	2.451504	-83.595025	15.038101
09855		10.106515	-0.071732	1.335456	-0.152989	-0.176367	0.379257	-0.099681	0.036487	-0.051431	-0.981689	-0.170410	-0.542725	0.101067	-0.000737	0.013336	0.737247	0.102734	-0.658444	0.111194	2.586448	-83.574654	14.842238
09856		9.910009	-0.055996	1.367756	-0.205089	-0.177888	0.187735	-0.109598	0.047831	-0.052720	-0.982666	-0.170410	-0.544189	0.099103	-0.000579	0.013654	0.737477	0.102423	-0.658320	0.110689	2.719042	-83.547758	14.642874
09857		9.695518	-0.163503	1.326734	-0.152701	-0.275583	-0.030522	-0.114126	0.044481	-0.054046	-0.977539	-0.169434	-0.549561	0.096958	-0.001654	0.013247	0.737699	0.102104	-0.658208	0.110166	2.855630	-83.522497	14.437337
09858		9.633194	-0.250421	1.254387	-0.060861	-0.340487	-0.101097	-0.111349	0.039202	-0.057001	-0.982666	-0.165039	-0.542969	0.096334	-0.002525	0.012526	0.737903	0.101805	-0.658115	0.109635	3.008294	-83.500304	14.216743
09859		9.615714	-0.325660	1.257422	-0.038548	-0.415100	-0.118601	-0.122673	0.060204	-0.054824	-0.988037	-0.168213	-0.538330	0.096160	-0.003275	0.012547	0.738182	0.101446	-0.657948	0.109086	3.136264	-83.465849	14.014520
09860		9.637168	-0.380163	1.315220	-0.068362	-0.484401	-0.091061	-0.132495	0.080489	-0.061186	-0.983643	-0.165527	-0.542725	0.096376	-0.003822	0.013116	0.738534	0.101060	-0.657711	0.108490	3.282870	-83.419783	13.787798
09861		9.736094	-0.414754	1.445308	-0.161587	-0.553258	0.021958	-0.155368	0.113176	-0.069697	-0.980225	-0.169678	-0.547852	0.097368	-0.004170	0.014401	0.739009	0.100602	-0.657360	0.107808	3.445472	-83.354689	13.532197
09862		9.895191	-0.402382	1.583643	-0.265748	-0.576588	0.196386	-0.159018	0.159436	-0.066335	-0.977783	-0.169922	-0.551025	0.098963	-0.004044	0.015761	0.739635	0.100093	-0.656841	0.107146	3.571787	-83.263160	13.310544
09863		10.194611	-0.263762	1.798635	-0.458548	-0.495931	0.520681	-0.125754	0.195531	-0.067935	-0.978516	-0.166260	-0.552734	0.101963	-0.002661	0.017888	0.740364	0.099695	-0.656168	0.106609	3.709114	-83.150651	13.097512
09864		10.680099	-0.142414	2.046939	-0.649774	-0.434890	1.034587	-0.078864	0.253012	-0.065107	-0.972168	-0.165039	-0.552490	0.106826	-0.001451	0.020335	0.741255	0.099428	-0.655259	0.106261	3.835632	-83.005551	12.921810
09865		10.842221	-0.163553	2.322650	-0.856195	-0.525522	1.231128	-0.036533	0.304751	-0.068834	-0.971924	-0.171387	-0.561035	0.108457	-0.001669	0.023062	0.742295	0.099303	-0.654130	0.106065	3.980093	-82.830464	12.752553
09866		10.584999	-0.379515	2.487952	-0.947601	-0.781385	0.997840	-0.037439	0.343271	-0.063753	-0.973877	-0.165771	-0.562500	0.105891	-0.003824	0.024699	0.743457	0.099136	-0.652862	0.105902	4.082244	-82.633737	12.625209
09867		10.081417	-1.038366	2.553585	-0.847428	-1.439170	0.504508	-0.014153	0.360423	-0.061502	-0.969482	-0.169189	-0.568848	0.100857	-0.010413	0.025355	0.744660	0.099041	-0.651514	0.105834	4.176469	-82.426966	12.519571
09868		9.728782	-1.599008	2.426649	-0.579233	-1.948862	0.135227	0.124910	0.246191	-0.101133	-0.972656	-0.170410	-0.565430	0.097309	-0.016054	0.024137	0.745441	0.099651	-0.650499	0.106013	4.547506	-82.283982	12.214674
09869		9.655705	-1.650641	2.191361	-0.326864	-1.941576	0.030214	0.283223	0.108589	-0.141197	-0.970947	-0.175293	-0.571777	0.096557	-0.016606	0.021838	0.745715	0.101056	-0.649890	0.106491	5.212640	-82.216967	11.704807
09870		9.405453	-1.370452	1.748900	-0.004704	-1.567600	-0.276341	0.377647	0.053251	-0.161299	-0.969727	-0.176758	-0.569092	0.094048	-0.013813	0.017438	0.745769	0.102906	-0.649426	0.107170	6.028748	-82.179765	11.096729
09871		9.015450	-0.687360	1.285160	0.195500	-0.805796	-0.717916	0.402826	0.050543	-0.170626	-0.969238	-0.184570	-0.580322	0.090152	-0.006976	0.012815	0.745804	0.104883	-0.648949	0.107897	6.891738	-82.141984	10.456244
09872		8.631101	0.060975	1.004367	0.197651	-0.033085	-1.125444	0.389960	0.055292	-0.157653	-0.963135	-0.187256	-0.563232	0.086314	0.000522	0.010021	0.745850	0.106765	-0.648467	0.108629	7.684844	-82.101500	9.878397
09873		8.472146	0.763555	0.863389	0.105418	0.662715	-1.288874	0.346700	0.053760	-0.121119	-0.965332	-0.187744	-0.568115	0.084728	0.007569	0.008624	0.745893	0.108371	-0.648028	0.109360	8.298544	-82.063401	9.457221
09874		8.459832	1.151742	0.828299	0.021838	1.034129	-1.297322	0.280548	0.018806	-0.056845	-0.963135	-0.199463	-0.562500	0.084602	0.011482	0.008291	0.745819	0.109537	-0.647792	0.110094	8.630762	-82.050479	9.281340
09875		8.670700	1.144584	0.771350	0.104825	1.045459	-1.095915	0.208909	-0.015192	0.001917	-0.965820	-0.192871	-0.566650	0.086706	0.011439	0.007732	0.745642	0.110271	-0.647751	0.110802	8.704833	-82.061537	9.325771
09876		8.914818	0.930983	0.706601	0.260108	0.867752	-0.867334	0.164828	-0.037608	0.039978	-0.970947	-0.182129	-0.566162	0.089145	0.009322	0.007090	0.745394	0.110724	-0.647841	0.111490	8.611812	-82.088839	9.512294
09877		9.296187	0.655939	0.746923	0.352046	0.605343	-0.489766	0.123939	-0.059085	0.066272	-0.968018	-0.193848	-0.570801	0.092957	0.006586	0.007501	0.745086	0.110949	-0.648046	0.112133	8.398454	-82.130253	9.796620
09878		9.663096	0.381400	0.818142	0.411672	0.335527	-0.122064	0.100093	-0.056843	0.075486	-0.974365	-0.189453	-0.561035	0.096627	0.003846	0.008211	0.744791	0.111056	-0.648263	0.112733	8.130635	-82.171209	10.122120
09879		9.962113	0.240057	0.903334	0.407103	0.186712	0.183148	0.082157	-0.067994	0.065414	-0.977783	-0.187744	-0.568115	0.099617	0.002429	0.009068	0.744476	0.111136	-0.648523	0.113235	7.897320	-82.217272	10.402828
09880		10.222232	0.228222	0.938506	0.402722	0.173751	0.445701	0.072723	-0.085777	0.039915	-0.969482	-0.188965	-0.558105	0.102218	0.002299	0.009430	0.744122	0.111273	-0.648843	0.113598	7.772471	-82.271539	10.568138
09881		10.270124	0.359455	0.862062	0.429369	0.323474	0.485798	0.062821	-0.098198	0.012062	-0.966064	-0.186523	-0.553467	0.102697	0.003598	0.008672	0.743749	0.111470	-0.649197	0.113820	7.763429	-82.330531	10.611001
09882		10.198272	0.607458	0.777007	0.411780	0.581153	0.408379	0.069128	-0.096494	-0.011482	-0.968750	-0.190674	-0.567139	0.101979	0.006066	0.007821	0.743391	0.111765	-0.649530	0.113974	7.857549	-82.386869	10.553257
09883		10.004704	0.678634	0.785937	0.345734	0.637117	0.219604	0.049052	-0.105981	-0.017657	-0.974121	-0.196777	-0.560059	0.100043	0.006776	0.007914	0.743017	0.112012	-0.649903	0.114036	7.972671	-82.447857	10.462891
09884		9.829525	0.633553	0.717569	0.390215	0.606916	0.036944	0.004775	-0.133261	-0.020792	-0.972900	-0.193848	-0.563965	0.098291	0.006325	0.007241	0.742581	0.112119	-0.650403	0.113925	8.094932	-82.524279	10.339589
09885		9.734894	0.497173	0.674704	0.449552	0.483812	-0.064130	-0.017635	-0.124654	-0.023828	-0.973145	-0.199219	-0.555176	0.097345	0.004961	0.006807	0.742187	0.112153	-0.650880	0.113740	8.215170	-82.595263	10.206101
09886		9.639668	0.383409	0.669109	0.468082	0.370967	-0.160683	-0.035043	-0.106692	-0.023046	-0.976318	-0.189209	-0.557129	0.096394	0.003824	0.006742	0.741859	0.112105	-0.651302	0.113506	8.312296	-82.656369	10.085179
09887		9.623934	0.328077	0.694705	0.449585	0.306529	-0.173483	-0.046584	-0.108312	-0.011546	-0.971436	-0.190430	-0.554932	0.096236	0.003277	0.006998	0.741526	0.111982	-0.651741	0.113281	8.355028	-82.719175	10.013159
09888		9.575982	0.218094	0.653779	0.506469	0.211305	-0.227634	-0.038288	-0.107143	-0.003006	-0.974854	-0.191406	-0.560791	0.095756	0.002181	0.006589	0.741187	0.111857	-0.652177	0.113111	8.364178	-82.782180	9.979081
09889		9.587639	0.201072	0.688067	0.470872	0.182353	-0.211557	-0.013258	-0.104601	-0.003641	-0.976563	-0.194580	-0.545654	0.095873	0.002009	0.006931	0.740844	0.111826	-0.652588	0.113023	8.388954	-82.843415	9.943914
09890		9.599360	0.183911	0.722616	0.435228	0.153391	-0.195476	0.002082	-0.100250	0.002527	-0.974854	-0.188232	-0.546631	0.095990	0.001840	0.007274	0.740501	0.111828	-0.652979	0.113009	8.392402	-82.902973	9.938902
09891		9.525729	0.138679	0.740960	0.413398	0.101245	-0.266661	0.023278	-0.099890	0.002197	-0.977539	-0.198242	-0.551025	0.095254	0.001387	0.007457	0.740147	0.111914	-0.653355	0.113068	8.409482	-82.962328	9.933118
09892		9.570435	0.152717	0.806381	0.343108	0.092796	-0.213705	0.042185	-0.100052	-0.001079	-0.977295	-0.187744	-0.547119	0.095700	0.001525	0.008112	0.739784	0.112076	-0.653720	0.113172	8.452824	-83.021470	9.911064
09893		9.661992	0.195007	0.871428	0.270392	0.112332	-0.113937	0.060079	-0.086572	0.004357	-0.977539	-0.188721	-0.543945	0.096616	0.001950	0.008757	0.739452	0.112283	-0.654027	0.113365	8.472543	-83.073331	9.923809
09894		9.727601	0.361893	0.858956	0.230219	0.275084	-0.047120	0.078502	-0.050933	0.012982	-0.977783	-0.197754	-0.551025	0.097274	0.003622	0.008616	0.739221	0.112506	-0.654197	0.113667	8.437314	-83.105819	10.001867
09895		9.755026	0.445467	0.934196	0.130961	0.332216	-0.009413	0.088385	-0.033824	0.031719	-0.978516	-0.185303	-0.548828	0.097548	0.004466	0.009360	0.739030	0.112698	-0.654308	0.114084	8.307451	-83.130052	10.181573
09896		9.857017	0.549788	0.945913	0.093661	0.432248	0.094996	0.100111	-0.036306	0.047235	-0.978027	-0.195801	-0.544678	0.098567	0.005516	0.009480	0.738815	0.112881	-0.654431	0.114591	8.111335	-83.157007	10.434138
09897		9.970587	0.612779	0.965621	0.062082	0.492064	0.211012	0.099139	-0.043192	0.062688	-0.979736	-0.191895	-0.535156	0.099702	0.006154	0.009681	0.738569	0.113014	-0.654587	0.115151	7.843619	-83.188876	10.758534
09898		10.059585	0.648760	0.900151	0.114867	0.553776	0.292091	0.106102	-0.053283	0.073045	-0.981934	-0.191650	-0.544189	0.100591	0.006520	0.009032	0.738279	0.113144	-0.654783	0.115763	7.534366	-83.227175	11.128457
09899		10.018647	0.710239	0.850041	0.128890	0.632545	0.246317	0.101539	-0.056224	0.079949	-0.979736	-0.186768	-0.543701	0.100181	0.007138	0.008532	0.737977	0.113240	-0.654996	0.116389	7.187312	-83.267477	11.534490
09900		10.005320	0.788076	0.771778	0.166587	0.736519	0.224888	0.105077	-0.065150	0.078063	-0.982178	-0.196777	-0.544189	0.100048	0.007916	0.007755	0.737646	0.113356	-0.655239	0.117010	6.851978	-83.312362	11.930021
09901		9.945194	0.861409	0.729115	0.165982	0.822787	0.161077	0.094325	-0.078248	0.066666	-0.966553	-0.183838	-0.532715	0.099446	0.008644	0.007334	0.737283	0.113480	-0.655528	0.117549	6.568825	-83.363601	12.267282
09902		9.985028	0.855957	0.737550	0.153946	0.819114	0.201441	0.084027	-0.076189	0.050873	-0.978760	-0.193604	-0.545654	0.099845	0.008582	0.007417	0.736943	0.113614	-0.655808	0.117994	6.351466	-83.412564	12.531827
09903		9.952093	0.925760	0.631299	0.217776	0.920273	0.157538	0.071512	-0.079462	0.031436	-0.983887	-0.189941	-0.534424	0.099517	0.009271	0.006356	0.736610	0.113770	-0.656095	0.118327	6.221762	-83.461956	12.701208
09904		9.855320	1.063607	0.566520	0.214352	1.069228	0.055967	0.073993	-0.070999	0.012693	-0.979248	-0.192383	-0.539551	0.098551	0.010640	0.005704	0.736315	0.113989	-0.656339	0.118602	6.180412	-83.505461	12.782763
09905		9.806053	1.149052	0.605154	0.137934	1.135829	0.012589	0.062782	-0.045905	0.008492	-0.986816	-0.188477	-0.534912	0.098059	0.011493	0.006078	0.736109	0.114169	-0.656495	0.118842	6.139933	-83.534407	12.857568
09906		9.873609	1.106794	0.729084	0.038224	1.057351	0.093132	0.030739	-0.024150	0.002564	-0.989014	-0.187256	-0.531982	0.098735	0.011068	0.007304	0.735998	0.114234	-0.656586	0.118964	6.098209	-83.550591	12.914549
09907		9.984996	0.987717	0.787387	0.031803	0.928278	0.208939	0.034246	-0.015055	-0.011408	-0.985840	-0.181641	-0.533447	0.099850	0.009870	0.007883	0.735921	0.114355	-0.656635	0.119053	6.123688	-83.560886	12.906258
09908		10.068007	0.934410	0.769838	0.072310	0.884346	0.288958	0.046531	-0.026311	-0.015163	-0.988037	-0.181152	-0.538818	0.100680	0.009335	0.007714	0.735804	0.114538	-0.656715	0.119161	6.181629	-83.577216	12.872045
09909		10.083646	0.923452	0.623732	0.211931	0.919924	0.288330	0.041930	-0.027373	-0.021017	-0.988037	-0.197266	-0.531494	0.100837	0.009223	0.006253	0.735690	0.114720	-0.656799	0.119229	6.265881	-83.593846	12.808228
09910		10.052401	0.907953	0.516104	0.313267	0.937737	0.245345	0.030372	0.000783	-0.023131	-0.985596	-0.193115	-0.533447	0.100525	0.009067	0.005162	0.735675	0.114853	-0.656784	0.119269	6.340313	-83.594235	12.748105
09911		9.981610	0.867305	0.679799	0.165865	0.843473	0.192708	0.011711	0.016928	-0.017566	-0.982666	-0.185303	-0.538818	0.099817	0.008664	0.006790	0.735720	0.114897	-0.656724	0.119283	6.368222	-83.585885	12.724991
09912		9.996505	0.634217	0.750218	0.178606	0.600323	0.212425	-0.007393	0.008103	-0.018723	-0.979736	-0.191895	-0.544922	0.099966	0.006333	0.007498	0.735749	0.114872	-0.656708	0.119220	6.394466	-83.582377	12.691584
09913		10.040505	0.558942	0.681336	0.271318	0.550758	0.247701	-0.001978	-0.041918	-0.033274	-0.984375	-0.194092	-0.543213	0.100405	0.005573	0.006834	0.735620	0.114945	-0.656862	0.119092	6.526443	-83.606247	12.554781
09914		10.089611	0.604655	0.598094	0.335496	0.617230	0.288304	0.032470	-0.067066	-0.054273	-0.984375	-0.196045	-0.529297	0.100896	0.006018	0.006016	0.735400	0.115228	-0.657078	0.118986	6.801387	-83.643135	12.294112
09915		10.014632	0.717046	0.625262	0.261994	0.706257	0.218789	0.038915	-0.026399	-0.067557	-0.977539	-0.199219	-0.539307	0.100148	0.007135	0.006267	0.735317	0.115560	-0.657132	0.118878	7.126712	-83.655810	11.987129
09916		9.949583	0.673558	0.810145	0.097067	0.597070	0.174219	0.016404	0.021262	-0.081283	-0.989990	-0.186523	-0.539063	0.099499	0.006694	0.008091	0.735413	0.115821	-0.657017	0.118671	7.477191	-83.640209	11.641209
09917		9.895323	0.545509	0.936554	0.019368	0.426966	0.132636	0.017756	0.036360	-0.098913	-0.978271	-0.189697	-0.536865	0.098958	0.005405	0.009348	0.735568	0.116137	-0.656834	0.118413	7.906298	-83.614340	11.217086
09918		9.989375	0.508893	1.003268	-0.016070	0.363547	0.233242	0.055039	0.005927	-0.122744	-0.981934	-0.193115	-0.527832	0.099897	0.005025	0.010031	0.735615	0.116685	-0.656728	0.118171	8.495671	-83.603448	10.653026
09919		10.090128	0.630470	1.016395	-0.053488	0.463871	0.337346	0.078736	-0.006322	-0.143236	-0.983643	-0.198975	-0.530518	0.100905	0.006228	0.010170	0.735619	0.117396	-0.656641	0.117924	9.210052	-83.597027	9.976914
09920		9.994235	0.740159	1.021942	-0.100840	0.550061	0.245353	0.077541	0.011479	-0.151884	-0.978516	-0.193604	-0.529053	0.099949	0.007322	0.010217	0.735687	0.118119	-0.656483	0.117652	9.949750	-83.578711	9.274532
09921		9.860758	0.769006	1.115964	-0.207336	0.530551	0.124455	0.063612	0.025352	-0.152345	-0.982666	-0.203369	-0.537598	0.098615	0.007611	0.011150	0.735808	0.118787	-0.656282	0.117343	10.667285	-83.551648	8.586718
09922		9.865083	0.799487	1.175436	-0.266283	0.527008	0.136787	0.054056	0.022383	-0.146166	-0.980225	-0.197266	-0.535156	0.098658	0.007920	0.011745	0.735922	0.119398	-0.656101	0.117021	11.345009	-83.525878	7.933098
09923		9.912225	0.761570	1.279151	-0.340027	0.445874	0.195008	0.047577	0.018880	-0.130855	-0.988281	-0.200684	-0.534668	0.099128	0.007548	0.012784	0.736019	0.119939	-0.655945	0.116732	11.942691	-83.503007	7.356402
09924		10.038705	0.783276	1.412499	-0.450988	0.413566	0.336688	0.060032	0.053653	-0.126581	-0.981689	-0.202148	-0.532471	0.100396	0.007765	0.014100	0.736220	0.120490	-0.655656	0.116521	12.484056	-83.460557	6.843401
09925		10.096679	0.752110	1.600962	-0.600663	0.312963	0.415358	0.058573	0.083581	-0.128668	-0.987793	-0.197266	-0.538574	0.100978	0.007451	0.015970	0.736520	0.121026	-0.655257	0.116315	12.994933	-83.400683	6.360291
09926		10.037602	0.719970	1.742000	-0.715872	0.226219	0.372728	0.053078	0.111576	-0.131943	-0.976563	-0.205566	-0.540527	0.100390	0.007129	0.017366	0.736917	0.121535	-0.654755	0.116096	13.476879	-83.324191	5.902975
09927		9.799526	0.741556	1.763006	-0.755647	0.227974	0.140493	0.073272	0.115861	-0.134812	-0.979736	-0.212891	-0.539307	0.098010	0.007343	0.017576	0.737317	0.122123	-0.654224	0.115933	13.967996	-83.244460	5.447665
09928		9.561845	0.892325	1.882569	-0.931928	0.318781	-0.076207	0.084744	0.095400	-0.128184	-0.975342	-0.208008	-0.538818	0.095633	0.008854	0.018784	0.737639	0.122746	-0.653764	0.115822	14.448437	-83.176595	5.009992
09929		9.405220	0.985266	1.851644	-0.941541	0.406570	-0.231159	0.067000	0.073676	-0.110199	-0.969971	-0.206543	-0.542725	0.094064	0.009795	0.018485	0.737890	0.123259	-0.653405	0.115706	14.854763	-83.122935	4.636958
09930		9.338338	0.907732	1.763675	-0.831963	0.355842	-0.308988	0.033045	0.083649	-0.088378	-0.972656	-0.211182	-0.540283	0.093395	0.009033	0.017599	0.738181	0.123568	-0.653043	0.115565	15.123013	-83.066774	4.383083
09931		9.263126	0.846398	1.765487	-0.812882	0.293071	-0.384423	0.004429	0.086088	-0.070143	-0.967529	-0.204102	-0.534180	0.092642	0.008431	0.017615	0.738488	0.123709	-0.652699	0.115398	15.285960	-83.011768	4.218602
09932		9.245926	0.796198	1.810236	-0.831461	0.228604	-0.397039	-0.021374	0.076141	-0.062198	-0.978027	-0.213135	-0.544434	0.092469	0.007935	0.018066	0.738772	0.123735	-0.652411	0.115171	15.407938	-82.963536	4.080628
09933		9.229718	0.720921	1.818614	-0.809270	0.153762	-0.413953	-0.048245	0.057206	-0.045578	-0.980957	-0.203369	-0.546143	0.092304	0.007193	0.018158	0.739003	0.123619	-0.652220	0.114905	15.462622	-82.928255	3.994819
09934		9.151741	0.592484	1.690322	-0.650333	0.074771	-0.510319	-0.059134	0.061147	-0.039930	-0.970459	-0.206299	-0.543213	0.091524	0.005912	0.016873	0.739249	0.123442	-0.652023	0.114628	15.480172	-82.891670	3.940253
09935		9.170841	0.560598	1.651897	-0.595530	0.057946	-0.496608	-0.056844	0.059178	-0.042197	-0.981445	-0.212402	-0.548584	0.091714	0.005591	0.016490	0.739489	0.123278	-0.651831	0.114345	15.510574	-82.855777	3.873452
09936		9.224736	0.456776	1.712987	-0.605371	-0.058780	-0.438852	-0.095233	0.073966	-0.035242	-0.979980	-0.210449	-0.537354	0.092254	0.004560	0.017094	0.739796	0.122945	-0.651610	0.113976	15.470575	-82.812828	3.856033
09937		9.330930	0.349934	1.761815	-0.594560	-0.172614	-0.330631	-0.117815	0.100542	-0.040687	-0.980469	-0.205078	-0.551514	0.093319	0.003491	0.017569	0.740206	0.122532	-0.651300	0.113529	15.410315	-82.754417	3.846147
09938		9.411663	0.345379	1.829481	-0.635791	-0.195614	-0.241733	-0.150496	0.122377	-0.049906	-0.969482	-0.203857	-0.558838	0.094129	0.003444	0.018235	0.740712	0.122014	-0.650922	0.112955	15.344872	-82.682500	3.822454
09939		9.436205	0.365055	1.815988	-0.612768	-0.169279	-0.217434	-0.178830	0.160744	-0.070493	-0.970947	-0.208740	-0.552734	0.094378	0.003633	0.018081	0.741373	0.121432	-0.650403	0.112231	15.305865	-82.586072	3.754964
09940		9.418084	0.559940	1.959310	-0.796286	-0.028473	-0.209676	-0.233125	0.169139	-0.079489	-0.967773	-0.208008	-0.559326	0.094200	0.005585	0.019507	0.742096	0.120678	-0.649878	0.111307	15.264258	-82.483848	3.659474
09941		9.358136	0.526078	1.897199	-0.718417	-0.036204	-0.276788	-0.325533	0.162360	-0.077693	-0.964600	-0.206299	-0.554443	0.093599	0.005255	0.018887	0.742851	0.119577	-0.649427	0.110082	15.169911	-82.385441	3.563542
09942		9.187735	0.338987	1.778254	-0.554386	-0.171729	-0.466313	-0.386395	0.150496	-0.091623	-0.968262	-0.210205	-0.562012	0.091892	0.003382	0.017707	0.743607	0.118303	-0.649044	0.108603	15.110579	-82.291743	3.397283
09943		9.088049	0.043926	1.676824	-0.367408	-0.417547	-0.587886	-0.428134	0.102068	-0.114058	-0.965576	-0.199951	-0.559326	0.090889	0.000423	0.016721	0.744240	0.116973	-0.648847	0.106875	15.170883	-82.221270	3.086185
09944		9.017794	-0.313040	1.510570	-0.101888	-0.706526	-0.691785	-0.435815	0.064916	-0.145492	-0.962891	-0.193359	-0.570313	0.090181	-0.003163	0.015083	0.744769	0.115734	-0.648771	0.104984	15.389922	-82.166683	2.610315
09945		8.942741	-0.634700	1.351044	0.140461	-0.970226	-0.799381	-0.417091	0.019261	-0.179486	-0.960938	-0.192871	-0.557129	0.089423	-0.006399	0.013515	0.745155	0.114694	-0.648831	0.102995	15.800877	-82.131473	1.950668
09946		8.994620	-0.741714	1.208688	0.314586	-1.040648	-0.772094	-0.373848	-0.022538	-0.218784	-0.969238	-0.197998	-0.564209	0.089937	-0.007493	0.012111	0.745395	0.113968	-0.649000	0.100980	16.437328	-82.112426	1.089170
09947		9.280510	-0.801905	1.126127	0.446006	-1.090463	-0.504035	-0.322895	-0.101973	-0.247458	-0.958740	-0.197266	-0.561279	0.092789	-0.008116	0.011322	0.745360	0.113562	-0.649420	0.098974	17.309321	-82.130558	0.018808
09948		9.593757	-0.757855	1.042603	0.546055	-1.046501	-0.204975	-0.283038	-0.156809	-0.257643	-0.958740	-0.205566	-0.562500	0.095919	-0.007687	0.010512	0.745126	0.113367	-0.650016	0.097032	18.321281	-82.174457	-1.169163
09949		10.042491	-0.799310	0.827676	0.806709	-1.050125	0.208387	-0.260279	-0.254273	-0.234338	-0.973877	-0.200684	-0.567871	0.100405	-0.008100	0.008415	0.744548	0.113227	-0.650973	0.095194	19.402402	-82.272332	-2.413707
09950		10.476345	-1.018304	0.644633	1.077641	-1.235264	0.604557	-0.277115	-0.288786	-0.192779	-0.959717	-0.199463	-0.568115	0.104744	-0.010275	0.006612	0.743843	0.112906	-0.652088	0.093437	20.388436	-82.394069	-3.571582
09951		10.934056	-1.237575	0.508567	1.304819	-1.432258	1.031196	-0.256665	-0.221064	-0.133656	-0.970215	-0.197510	-0.560303	0.109327	-0.012442	0.005222	0.743320	0.112432	-0.652971	0.092000	21.072399	-82.488928	-4.413280
09952		11.237005	-1.207229	0.469952	1.354946	-1.410383	1.328384	-0.179039	-0.104042	-0.083460	-0.968018	-0.197021	-0.559082	0.112363	-0.012115	0.004769	0.743107	0.112033	-0.653411	0.091073	21.427764	-82.531022	-4.877908
09953		11.263370	-0.981856	0.459993	1.294569	-1.199338	1.364289	-0.118372	-0.063811	-0.031119	-0.970215	-0.189697	-0.554932	0.112631	-0.009833	0.004642	0.742969	0.111665	-0.653703	0.090558	21.542065	-82.562286	-5.064949
09954		11.072426	-0.751754	0.488608	1.169288	-0.985312	1.190240	-0.124189	-0.067542	0.032601	-0.966064	-0.187988	-0.561279	0.110724	-0.007496	0.004928	0.742791	0.111074	-0.654047	0.090261	21.400492	-82.609025	-4.996677
09955		10.661347	-0.790157	0.471808	1.134947	-1.006433	0.780246	-0.155735	-0.022475	0.087675	-0.978027	-0.193604	-0.550781	0.106616	-0.007851	0.004736	0.742754	0.110156	-0.654268	0.090086	20.936373	-82.642997	-4.622518
09956		10.231998	-0.924480	0.400504	1.181761	-1.099125	0.341337	-0.143783	0.048323	0.111540	-0.969238	-0.199707	-0.560547	0.102326	-0.009185	0.003987	0.742929	0.109181	-0.654233	0.090082	20.268718	-82.643371	-4.035127
09957		10.010653	-0.980750	0.556991	1.022297	-1.179978	0.139590	-0.136834	0.107564	0.124780	-0.973633	-0.189209	-0.563965	0.100116	-0.009741	0.005523	0.743287	0.108161	-0.653982	0.090183	19.461443	-82.613452	-3.302932
09958		9.895150	-1.000104	0.650781	0.930678	-1.207251	0.036885	-0.074740	0.148301	0.120314	-0.969727	-0.185547	-0.559570	0.098962	-0.009939	0.006438	0.743746	0.107369	-0.653548	0.090492	18.657712	-82.559299	-2.538350
09959		9.840430	-0.853316	0.881551	0.673871	-1.113911	0.018102	-0.003299	0.157034	0.107398	-0.964355	-0.191162	-0.566162	0.098416	-0.008480	0.008738	0.744201	0.106877	-0.653041	0.090989	17.946420	-82.496751	-1.826107
09960		9.776605	-0.670023	0.993464	0.519631	-0.953611	-0.022974	0.040339	0.145435	0.105903	-0.968506	-0.177979	-0.559814	0.097777	-0.006650	0.009862	0.744594	0.106561	-0.652557	0.091619	17.294480	-82.439203	-1.147920
09961		9.684155	-0.500467	0.996893	0.467528	-0.776935	-0.106768	0.076509	0.131376	0.111856	-0.969238	-0.189453	-0.562744	0.096851	-0.004954	0.009903	0.744920	0.106363	-0.652110	0.092380	16.664660	-82.389348	-0.471455
09962		9.533438	-0.380224	0.993007	0.426599	-0.646494	-0.251458	0.113373	0.113679	0.109012	-0.965332	-0.188232	-0.566895	0.095342	-0.003756	0.009874	0.745167	0.106323	-0.651711	0.093242	16.098408	-82.347850	0.162653
09963		9.375766	-0.288544	1.004613	0.376681	-0.548820	-0.402353	0.132626	0.111198	0.111778	-0.963379	-0.185059	-0.577637	0.093765	-0.002840	0.009992	0.745395	0.106347	-0.651312	0.094177	15.540573	-82.307321	0.799522
09964		9.327943	-0.386807	1.017093	0.392836	-0.634194	-0.451166	0.134232	0.101542	0.108359	-0.958740	-0.187256	-0.565918	0.093287	-0.003824	0.010121	0.745591	0.106392	-0.650946	0.095098	15.015046	-82.270819	1.404713
09965		9.376022	-0.412811	1.089364	0.345495	-0.667336	-0.394503	0.145390	0.117509	0.100956	-0.964111	-0.178467	-0.569824	0.093769	-0.004089	0.010836	0.745837	0.106494	-0.650510	0.096036	14.513571	-82.223538	1.991948
09966		9.474648	-0.476937	1.188312	0.292099	-0.745080	-0.285462	0.143769	0.126734	0.086562	-0.965576	-0.190674	-0.567139	0.094756	-0.004737	0.011820	0.746118	0.106633	-0.650033	0.096920	14.067732	-82.168572	2.522356
09967		9.471498	-0.460712	1.236649	0.250738	-0.733596	-0.281172	0.157758	0.112971	0.067393	-0.964355	-0.182861	-0.565186	0.094723	-0.004585	0.012309	0.746357	0.106893	-0.649590	0.097771	13.726128	-82.118156	2.955602
09968		9.472770	-0.366609	1.205204	0.262618	-0.626886	-0.280724	0.171686	0.097117	0.051163	-0.962402	-0.183594	-0.574463	0.094734	-0.003652	0.012003	0.746543	0.107266	-0.649189	0.098597	13.478545	-82.074052	3.302127
09969		9.478575	-0.258502	1.229633	0.216129	-0.524578	-0.268039	0.165816	0.069203	0.042882	-0.964600	-0.184570	-0.580811	0.094791	-0.002575	0.012261	0.746645	0.107656	-0.648891	0.099359	13.288775	-82.044263	3.586748
09970		9.436929	-0.154463	1.153270	0.257224	-0.398605	-0.316137	0.142724	0.047045	0.038444	-0.959961	-0.186279	-0.569580	0.094372	-0.001535	0.011509	0.746689	0.107986	-0.648684	0.100017	13.126995	-82.026099	3.829932
09971		9.435955	-0.074959	1.189005	0.201738	-0.329052	-0.309655	0.121049	0.009064	0.039356	-0.962891	-0.184326	-0.576172	0.094360	-0.000738	0.011885	0.746622	0.108250	-0.648629	0.100588	12.983602	-82.029128	4.041844
09972		9.490354	-0.100487	1.138077	0.262488	-0.335413	-0.263304	0.095436	-0.037771	0.031433	-0.966553	-0.186523	-0.567627	0.094902	-0.000995	0.011398	0.746420	0.108470	-0.648758	0.101021	12.900967	-82.057269	4.177750
09973		9.570024	-0.143036	0.962407	0.445951	-0.322429	-0.209084	0.070276	-0.074137	0.028347	-0.961182	-0.190918	-0.574707	0.095697	-0.001420	0.009659	0.746114	0.108622	-0.649033	0.101341	12.847549	-82.105345	4.269491
09974		9.685864	-0.222042	0.841927	0.591174	-0.361467	-0.112484	0.064094	-0.077073	0.006241	-0.965820	-0.185059	-0.570068	0.096855	-0.002220	0.008456	0.745814	0.108826	-0.649311	0.101557	12.883251	-82.152200	4.267779
09975		9.820451	-0.146887	0.778274	0.641159	-0.270851	0.015034	0.072704	-0.056620	-0.004974	-0.967041	-0.189453	-0.570557	0.098202	-0.001474	0.007810	0.745581	0.109087	-0.649501	0.101771	12.949610	-82.186199	4.240097
09976		9.866149	-0.176248	0.775874	0.652088	-0.299488	0.059447	0.049467	-0.069461	-0.006270	-0.968262	-0.189209	-0.568359	0.098659	-0.001767	0.007793	0.745319	0.109274	-0.649750	0.101896	13.021543	-82.227192	4.193356
09977		9.941519	-0.149909	0.706198	0.713227	-0.255128	0.126186	0.053167	-0.078289	-0.008265	-0.970703	-0.185303	-0.573486	0.099412	-0.001505	0.007100	0.745028	0.109484	-0.650030	0.102023	13.111812	-82.272903	4.130338
09978		10.028648	-0.081828	0.677008	0.725024	-0.182426	0.211278	0.050369	-0.070928	0.001478	-0.967529	-0.181396	-0.564941	0.100284	-0.000819	0.006805	0.744756	0.109649	-0.650288	0.102180	13.155038	-82.315708	4.113097
09979		10.089746	-0.117215	0.775082	0.642320	-0.245102	0.284085	0.023197	-0.087590	0.021378	-0.961426	-0.183350	-0.562988	0.100894	-0.001162	0.007795	0.744436	0.109654	-0.650633	0.102313	13.114670	-82.370475	4.164201
09980		10.148239	-0.271992	0.744446	0.713644	-0.382384	0.334205	-0.007987	-0.110696	0.037741	-0.963623	-0.187500	-0.565430	0.101479	-0.002700	0.007501	0.744048	0.109504	-0.651089	0.102392	13.011144	-82.440174	4.261284
09981		10.086735	-0.422446	0.773380	0.711671	-0.533288	0.273339	-0.037768	-0.076107	0.035247	-0.968018	-0.186035	-0.563477	0.100865	-0.004205	0.007773	0.743790	0.109233	-0.651430	0.102386	12.864213	-82.490278	4.384838
09982		9.837622	-0.502174	0.773971	0.695392	-0.608858	0.024779	-0.058741	-0.023311	0.035695	-0.969482	-0.187988	-0.561279	0.098376	-0.005002	0.007753	0.743716	0.108856	-0.651585	0.102340	12.652252	-82.510817	4.561940
09983		9.683962	-0.570126	0.839154	0.629643	-0.690057	-0.120644	-0.073230	-0.015507	0.042656	-0.959473	-0.187012	-0.559570	0.096840	-0.005678	0.008401	0.743670	0.108398	-0.651723	0.102280	12.392609	-82.527871	4.778852
09984		9.580495	-0.533605	0.824359	0.614605	-0.647666	-0.223476	-0.049595	-0.043982	0.037402	-0.967285	-0.179199	-0.564209	0.095804	-0.005316	0.008266	0.743523	0.108060	-0.651951	0.102260	12.195558	-82.560002	4.946184
09985		9.476199	-0.392860	0.875658	0.503925	-0.526259	-0.315921	-0.038478	-0.074887	0.038785	-0.973145	-0.175049	-0.558105	0.094759	-0.003909	0.008793	0.743267	0.107774	-0.652289	0.102265	12.024228	-82.609634	5.093966
09986		9.408771	-0.372493	0.949630	0.409864	-0.525361	-0.372268	-0.081087	-0.079848	0.063258	-0.969482	-0.180664	-0.548096	0.094085	-0.003691	0.009535	0.743005	0.107253	-0.652680	0.102219	11.725723	-82.664765	5.345367
09987		9.392918	-0.415656	1.014572	0.350408	-0.579376	-0.380267	-0.102961	-0.038542	0.076793	-0.971191	-0.177734	-0.562500	0.093929	-0.004115	0.010166	0.742881	0.106584	-0.652937	0.102175	11.312710	-82.698275	5.699527
09988		9.237443	-0.524971	1.116946	0.258085	-0.708304	-0.523705	-0.070854	-0.052696	0.078754	-0.968750	-0.180664	-0.553223	0.092374	-0.005209	0.011196	0.742694	0.106037	-0.653230	0.102234	10.919890	-82.739420	6.051874
09989		9.176742	-0.536831	1.177258	0.187160	-0.732712	-0.576085	0.012661	-0.102284	0.059664	-0.973877	-0.180176	-0.557373	0.091763	-0.005342	0.011819	0.742310	0.105886	-0.653654	0.102470	10.695605	-82.806320	6.282601
09990		9.403675	-0.449857	1.284248	0.079387	-0.674137	-0.335346	0.053211	-0.063977	0.053753	-0.966309	-0.172363	-0.549316	0.094034	-0.004477	0.012871	0.742033	0.105887	-0.653912	0.102836	10.486832	-82.850775	6.521009
09991		9.899718	-0.257824	1.586978	-0.205688	-0.566505	0.198614	0.069644	0.028932	0.063863	-0.973145	-0.174072	-0.546143	0.099000	-0.002552	0.015855	0.742044	0.105867	-0.653822	0.103344	10.161894	-82.843919	6.886032
09992		10.371072	-0.154631	1.952463	-0.517897	-0.557064	0.714258	0.064779	0.146807	0.097855	-0.971680	-0.177490	-0.556152	0.103726	-0.001502	0.019448	0.742426	0.105657	-0.653314	0.104022	9.594539	-82.773354	7.492556
09993		10.759911	-0.112540	2.162881	-0.666969	-0.555493	1.128653	0.106542	0.199618	0.131451	-0.970459	-0.179688	-0.555664	0.107621	-0.001066	0.021521	0.742939	0.105465	-0.652606	0.104992	8.875674	-82.675347	8.276200
09994		11.108762	0.132626	2.494661	-0.995633	-0.391488	1.523137	0.141482	0.151879	0.186285	-0.970459	-0.173584	-0.558105	0.111105	0.001412	0.024863	0.743249	0.105249	-0.652084	0.106252	7.988668	-82.607443	9.249568
09995		11.095691	0.107353	2.429063	-0.920354	-0.371027	1.502853	0.114914	0.114365	0.245201	-0.969238	-0.172363	-0.553223	0.110969	0.001196	0.024228	0.743417	0.104762	-0.651746	0.107627	6.865523	-82.563159	10.446066
09996		10.488705	-0.311191	2.272025	-0.720227	-0.709227	0.876095	0.114661	0.126476	0.271644	-0.962402	-0.169434	-0.566895	0.104906	-0.002982	0.022652	0.743609	0.104180	-0.651374	0.109102	5.638211	-82.510354	11.747379
09997		10.103519	-0.884254	2.132235	-0.462778	-1.195448	0.471577	0.101339	0.095679	0.274113	-0.974609	-0.175049	-0.554443	0.101057	-0.008715	0.021270	0.743704	0.103557	-0.651124	0.110530	4.419157	-82.471714	13.032871
09998		10.236534	-1.277498	2.039739	-0.241398	-1.514095	0.590599	0.154571	0.007753	0.228790	-0.975586	-0.164795	-0.558105	0.102381	-0.012674	0.020384	0.743510	0.103329	-0.651147	0.111914	3.463418	-82.478316	14.083503
09999		10.343278	-1.177665	1.872391	-0.103501	-1.348956	0.677581	0.262511	-0.029268	0.151344	-0.968750	-0.163574	-0.552979	0.103439	-0.011723	0.018724	0.743179	0.103776	-0.651206	0.113346	2.909934	-82.501965	14.791125
10000		10.157311	-0.816804	1.603454	0.013136	-0.921821	0.461517	0.326944	-0.053510	0.102796	-0.971191	-0.171143	-0.551514	0.101573	-0.008142	0.016048	0.742762	0.104632	-0.651290	0.114791	2.607887	-82.537312	15.281956
10001		9.908607	-0.388051	1.505742	-0.062776	-0.488688	0.205076	0.329270	-0.058544	0.077423	-0.967285	-0.180176	-0.556885	0.099083	-0.003867	0.015080	0.742340	0.105583	-0.651378	0.116150	2.413515	-82.574755	15.665814
10002		9.818247	0.078328	1.570633	-0.284514	-0.066452	0.126409	0.297717	-0.024615	0.063588	-0.975098	-0.165283	-0.564453	0.098180	0.000791	0.015720	0.742051	0.106441	-0.651348	0.117368	2.255746	-82.592171	15.994192
10003		9.702105	0.250449	1.690296	-0.467973	0.057946	0.027450	0.243870	0.004423	0.060773	-0.969238	-0.177490	-0.558105	0.097021	0.002513	0.016904	0.741886	0.107092	-0.651240	0.118420	2.071961	-82.592763	16.317967
10004		9.701399	0.528102	1.795840	-0.656259	0.290078	0.041564	0.244532	0.004952	0.044578	-0.968018	-0.178955	-0.558105	0.097013	0.005281	0.017962	0.741731	0.107797	-0.651119	0.119410	1.961710	-82.592630	16.567691
10005		9.617274	0.861979	1.914083	-0.885037	0.566525	-0.025224	0.230183	0.012346	0.033506	-0.974854	-0.178467	-0.548584	0.096172	0.008614	0.019145	0.741613	0.108483	-0.650972	0.120321	1.889531	-82.587977	16.771265
10006		9.435049	0.847230	1.872530	-0.862422	0.559083	-0.211231	0.180193	0.057119	0.015883	-0.970215	-0.182861	-0.553955	0.094355	0.008463	0.018706	0.741678	0.109011	-0.650680	0.121023	1.861642	-82.557353	16.900766
10007		9.170130	0.866755	1.945608	-0.965372	0.543980	-0.463887	0.178056	0.074067	-0.007249	-0.972412	-0.174561	-0.548584	0.091709	0.008647	0.019430	0.741811	0.109600	-0.650312	0.121647	1.930415	-82.516668	16.932283
10008		9.212020	0.759028	2.059018	-1.025549	0.405490	-0.407327	0.137882	0.071009	-0.028655	-0.971436	-0.182861	-0.552246	0.092129	0.007563	0.020563	0.741970	0.110108	-0.649968	0.122054	2.070612	-82.477236	16.867816
10009		9.273707	0.489645	2.028125	-0.894121	0.159558	-0.350670	0.151683	0.077138	-0.054357	-0.971680	-0.181641	-0.557617	0.092746	0.004856	0.020249	0.742156	0.110748	-0.649579	0.122419	2.325822	-82.433782	16.695838
10010		9.226870	0.426598	2.099418	-0.936392	0.069631	-0.387032	0.169550	0.103308	-0.081081	-0.974609	-0.173340	-0.556885	0.092281	0.004211	0.020950	0.742433	0.111524	-0.649066	0.122752	2.699674	-82.374471	16.413939
10011		9.017796	0.441086	2.051393	-0.910613	0.084246	-0.599269	0.165299	0.115047	-0.098131	-0.968506	-0.184326	-0.552490	0.090192	0.004350	0.020466	0.742761	0.112331	-0.648502	0.123017	3.133701	-82.307690	16.069003
10012		8.899927	0.453363	2.007311	-0.876062	0.097836	-0.720577	0.171594	0.105368	-0.111800	-0.965088	-0.181152	-0.549561	0.089012	0.004467	0.020030	0.743061	0.113213	-0.647962	0.123243	3.626444	-82.245606	15.668223
10013		8.810342	0.589561	2.000402	-0.913540	0.215957	-0.807683	0.206370	0.114784	-0.124093	-0.970703	-0.187988	-0.554932	0.088119	0.005820	0.019959	0.743378	0.114259	-0.647357	0.123546	4.178693	-82.177230	15.227883
10014		8.967108	0.781730	1.929146	-0.877362	0.415807	-0.658505	0.223781	0.108108	-0.124460	-0.958008	-0.189453	-0.547363	0.089686	0.007740	0.019252	0.743662	0.115373	-0.646765	0.123895	4.737578	-82.112014	14.790392
10015		9.290799	0.889545	1.866887	-0.801124	0.537816	-0.343557	0.242595	0.078366	-0.124971	-0.964600	-0.192139	-0.545654	0.092921	0.008815	0.018643	0.743838	0.116579	-0.646270	0.124291	5.310959	-82.063215	14.349658
10016		9.674702	1.046310	1.806283	-0.736179	0.706435	0.031917	0.228153	0.072533	-0.123371	-0.961182	-0.198975	-0.555420	0.096760	0.010383	0.018040	0.744002	0.117728	-0.645806	0.124638	5.867057	-82.017179	13.917400
10017		9.875298	1.124493	1.707527	-0.633877	0.808316	0.219583	0.188703	0.078026	-0.116307	-0.965820	-0.197266	-0.553711	0.098766	0.011171	0.017047	0.744201	0.118707	-0.645349	0.124892	6.362987	-81.967952	13.523729
10018		10.036399	1.223873	1.626842	-0.560599	0.924908	0.370831	0.131042	0.082661	-0.100079	-0.969727	-0.202148	-0.552002	0.100377	0.012178	0.016235	0.744439	0.119413	-0.644920	0.125018	6.754279	-81.916669	13.201621
10019		10.091638	1.327120	1.573716	-0.528213	1.034962	0.421023	0.080952	0.093911	-0.089066	-0.963135	-0.195068	-0.550293	0.100930	0.013220	0.015695	0.744734	0.119892	-0.644486	0.125035	7.062166	-81.859533	12.935381
10020		10.050947	1.522287	1.522139	-0.541655	1.229290	0.378056	0.041433	0.085763	-0.088814	-0.961914	-0.194580	-0.554199	0.100523	0.015175	0.015181	0.745028	0.120226	-0.644108	0.124915	7.347576	-81.806791	12.668284
10021		10.008750	1.740591	1.504828	-0.595863	1.434168	0.339029	-0.004407	0.073106	-0.089823	-0.967529	-0.202148	-0.558350	0.100101	0.017361	0.015011	0.745308	0.120400	-0.643805	0.124639	7.612412	-81.761032	12.395638
10022		10.110745	1.580561	1.563656	-0.571905	1.263305	0.446325	-0.120995	0.065573	-0.087256	-0.962891	-0.198242	-0.552734	0.101119	0.015771	0.015594	0.745633	0.120136	-0.643603	0.123990	7.803137	-81.719542	12.130116
10023		10.267773	1.020390	1.659757	-0.437784	0.707100	0.605157	-0.241388	0.086907	-0.099600	-0.965820	-0.201904	-0.557617	0.102690	0.010173	0.016541	0.746105	0.119450	-0.643388	0.122924	7.958056	-81.664886	11.831450
10024		10.326733	0.620266	1.593652	-0.220035	0.349334	0.646538	-0.241746	0.078408	-0.179808	-0.954834	-0.194824	-0.559326	0.103279	0.006129	0.015889	0.746598	0.119026	-0.643156	0.121548	8.423797	-81.608241	11.217958
10025		10.299573	0.576308	1.558323	-0.162754	0.303960	0.614334	-0.189136	0.047082	-0.272943	-0.952637	-0.206299	-0.559570	0.103007	0.005637	0.015554	0.747014	0.119116	-0.642952	0.119978	9.285482	-81.560071	10.234892
10026		10.111643	0.754295	1.420723	-0.106043	0.489486	0.413837	-0.162303	0.051642	-0.326415	-0.956055	-0.205811	-0.563232	0.101132	0.007389	0.014175	0.747458	0.119475	-0.642681	0.118294	10.351464	-81.501699	9.060393
10027		9.816211	0.796728	1.285921	-0.021223	0.541592	0.104596	-0.150192	0.058838	-0.333577	-0.958984	-0.213623	-0.558838	0.098179	0.007813	0.012824	0.747920	0.119900	-0.642368	0.116630	11.429487	-81.435206	7.881068
10028		9.575964	0.791983	1.202816	0.039664	0.534602	-0.143890	-0.133809	0.081098	-0.329624	-0.955566	-0.217773	-0.563232	0.095777	0.007770	0.011984	0.748439	0.120357	-0.641964	0.115042	12.466767	-81.353553	6.751689
10029		9.429619	0.740056	1.188809	0.064838	0.464433	-0.291201	-0.112014	0.074323	-0.301501	-0.953613	-0.213867	-0.567139	0.094312	0.007265	0.011849	0.748904	0.120814	-0.641587	0.113631	13.399664	-81.276378	5.741125
10030		9.298540	0.621997	1.148086	0.136235	0.343586	-0.430194	-0.078286	0.064691	-0.264386	-0.957520	-0.215332	-0.564453	0.092997	0.006102	0.011448	0.749296	0.121279	-0.641249	0.112455	14.210201	-81.207343	4.872892
10031		9.310075	0.402607	1.144188	0.223981	0.119648	-0.427367	-0.046336	0.031867	-0.218996	-0.952637	-0.219238	-0.568115	0.093107	0.003927	0.011426	0.749537	0.121738	-0.641042	0.111535	14.895063	-81.161289	4.150661
10032		9.312961	0.335760	0.982043	0.404086	0.093251	-0.451256	0.001979	-0.007391	-0.181935	-0.945801	-0.222656	-0.561035	0.093132	0.003273	0.009824	0.749601	0.122279	-0.640977	0.110882	15.508329	-81.141296	3.528406
10033		9.271549	0.334215	0.904952	0.473694	0.102583	-0.503695	0.041468	-0.013496	-0.145356	-0.947754	-0.223389	-0.561768	0.092717	0.003273	0.009056	0.749600	0.122858	-0.640935	0.110492	16.018248	-81.129372	3.034216
10034		9.265546	0.374772	0.782922	0.575907	0.170126	-0.525968	0.058804	-0.005126	-0.100118	-0.949707	-0.216797	-0.559814	0.092657	0.003699	0.007833	0.749590	0.123349	-0.640880	0.110329	16.369273	-81.119552	2.710288
10035		9.191430	0.534810	0.694070	0.597518	0.343060	-0.605330	0.090218	0.007285	-0.064586	-0.949707	-0.220215	-0.572998	0.091916	0.005315	0.006940	0.749581	0.123838	-0.640783	0.110410	16.599232	-81.108440	2.527554
10036		9.191619	0.697671	0.775366	0.469678	0.466551	-0.585796	0.118586	0.000826	-0.026361	-0.947754	-0.216309	-0.564209	0.091917	0.006960	0.007757	0.749512	0.124313	-0.640718	0.110719	16.718362	-81.107063	2.472996
10037		9.224886	0.807440	0.857818	0.361765	0.542667	-0.535782	0.121858	0.009248	0.011368	-0.954102	-0.223145	-0.559082	0.092249	0.008074	0.008579	0.749448	0.124675	-0.640642	0.111185	16.697198	-81.107210	2.562426
10038		9.271115	0.875659	0.949764	0.259269	0.578678	-0.473506	0.136575	-0.002549	0.033272	-0.953125	-0.224365	-0.564453	0.092710	0.008766	0.009505	0.749324	0.125028	-0.640616	0.111772	16.620886	-81.117480	2.716117
10039		9.400918	0.994863	0.958711	0.227388	0.691131	-0.338682	0.154036	-0.039236	0.043321	-0.952881	-0.232666	-0.563232	0.094005	0.009962	0.009613	0.749064	0.125437	-0.640724	0.112433	16.556719	-81.149532	2.868072
10040		9.573819	1.068562	0.912419	0.265231	0.778421	-0.171315	0.150967	-0.064979	0.037123	-0.953369	-0.226807	-0.570313	0.095733	0.010696	0.009163	0.748728	0.125867	-0.640926	0.113042	16.539461	-81.194672	2.970322
10041		9.754278	1.170770	0.846060	0.312117	0.898537	0.001979	0.140253	-0.064275	0.029246	-0.949463	-0.223633	-0.560059	0.097538	0.011716	0.008500	0.748404	0.126284	-0.641124	0.113590	16.542517	-81.238084	3.046332
10042		9.762527	1.257283	0.815017	0.306540	0.990456	0.009582	0.118872	-0.034155	0.015678	-0.952393	-0.228760	-0.552734	0.097623	0.012576	0.008174	0.748198	0.126645	-0.641215	0.114035	16.549788	-81.262796	3.105137
10043		9.601486	1.344276	0.878409	0.190087	1.049945	-0.136495	0.088732	-0.010644	0.009000	-0.952637	-0.225586	-0.568848	0.096014	0.013443	0.008795	0.748090	0.126903	-0.641229	0.114376	16.538276	-81.273530	3.165950
10044		9.424480	1.336365	0.887411	0.154738	1.037475	-0.310378	0.056487	-0.023549	-0.010264	-0.954102	-0.216553	-0.560303	0.094244	0.013356	0.008889	0.747972	0.127107	-0.641299	0.114530	16.591249	-81.288183	3.142352
10045		9.470144	1.368526	0.883205	0.151408	1.067231	-0.264147	0.055952	-0.040741	-0.025339	-0.955566	-0.222168	-0.558105	0.094701	0.013671	0.008855	0.747808	0.127367	-0.641423	0.114616	16.715967	-81.309765	3.045897
10046		9.429745	1.453437	0.888923	0.107846	1.140948	-0.299047	0.036232	-0.044484	-0.042098	-0.958740	-0.230957	-0.556152	0.094299	0.014513	0.008913	0.747654	0.127610	-0.641562	0.114573	16.894936	-81.330611	2.883106
10047		9.368936	1.550344	0.903051	0.049806	1.221963	-0.352225	0.004671	-0.047335	-0.053673	-0.962891	-0.226807	-0.559570	0.093691	0.015478	0.009053	0.747517	0.127776	-0.641722	0.114386	17.101295	-81.351034	2.674699
10048		9.301946	1.614997	0.801691	0.108664	1.311350	-0.429422	-0.044611	-0.069695	-0.052166	-0.950928	-0.234131	-0.555664	0.093021	0.016128	0.008046	0.747339	0.127763	-0.641995	0.114029	17.300217	-81.383803	2.444896
10049		9.226535	1.670855	0.618853	0.243639	1.419660	-0.526736	-0.091086	-0.097095	-0.054952	-0.961182	-0.217773	-0.555176	0.092267	0.016686	0.006226	0.747104	0.127604	-0.642395	0.113499	17.515654	-81.430961	2.171955
10050		9.105139	1.756305	0.429726	0.367386	1.557290	-0.668690	-0.131881	-0.103535	-0.057432	-0.962158	-0.232422	-0.556641	0.091054	0.017540	0.004333	0.746875	0.127301	-0.642840	0.112821	17.726769	-81.481042	1.879313
10051		9.062944	1.802856	0.340922	0.423076	1.624557	-0.719543	-0.172339	-0.110829	-0.066478	-0.960449	-0.235107	-0.557617	0.090634	0.018001	0.003444	0.746653	0.126881	-0.643329	0.111976	17.959388	-81.533391	1.541761
10052		9.144532	1.860347	0.251829	0.493137	1.701988	-0.647164	-0.205529	-0.139230	-0.064937	-0.956543	-0.225586	-0.544678	0.091450	0.018576	0.002563	0.746359	0.126347	-0.643942	0.111010	18.205283	-81.601227	1.171385
10053		9.244373	1.812362	0.199594	0.564903	1.666477	-0.555979	-0.239296	-0.156123	-0.076224	-0.957275	-0.227295	-0.556396	0.092449	0.018091	0.002046	0.746036	0.125736	-0.644628	0.109885	18.500277	-81.675999	0.732443
10054		9.312586	1.794590	0.244955	0.531630	1.626647	-0.481225	-0.244103	-0.130449	-0.078318	-0.947266	-0.223145	-0.549316	0.093131	0.017912	0.002488	0.745799	0.125096	-0.645219	0.108751	18.773581	-81.736089	0.312167
10055		9.276998	1.755385	0.283745	0.498481	1.569322	-0.511434	-0.251224	-0.107380	-0.080368	-0.950439	-0.217773	-0.559326	0.092775	0.017520	0.002865	0.745640	0.124426	-0.645725	0.107601	19.026085	-81.783012	-0.090873
10056		9.139116	1.733030	0.409305	0.366285	1.500902	-0.630776	-0.251255	-0.076733	-0.080892	-0.961426	-0.221436	-0.558105	0.091397	0.017298	0.004106	0.745580	0.123738	-0.646115	0.106466	19.243301	-81.813013	-0.458526
10057		8.988393	1.748723	0.526639	0.228716	1.472531	-0.762498	-0.243634	-0.081083	-0.076190	-0.961670	-0.212158	-0.550781	0.089888	0.017459	0.005282	0.745496	0.123065	-0.646520	0.105370	19.455513	-81.846040	-0.816702
10058		8.938322	1.769776	0.593002	0.149449	1.465849	-0.801233	-0.235187	-0.119729	-0.069962	-0.961914	-0.219482	-0.550293	0.089386	0.017673	0.005963	0.745278	0.122424	-0.647066	0.104302	19.703473	-81.900943	-1.206042
10059		9.008273	1.689352	0.644337	0.130159	1.367927	-0.728091	-0.213979	-0.131544	-0.049221	-0.958740	-0.218018	-0.552734	0.090083	0.016878	0.006485	0.744996	0.121801	-0.647657	0.103371	19.905923	-81.966095	-1.537060
10060		9.071850	1.578534	0.712452	0.101796	1.237246	-0.660820	-0.182048	-0.126692	-0.029565	-0.962646	-0.212158	-0.554688	0.090716	0.015778	0.007168	0.744699	0.121231	-0.648225	0.102620	20.048099	-82.032271	-1.788708
10061		9.264402	1.372147	0.710874	0.183210	1.037561	-0.479566	-0.150386	-0.167639	-0.016393	-0.959961	-0.216553	-0.544189	0.092639	0.013719	0.007176	0.744243	0.120756	-0.648936	0.101995	20.220125	-82.122994	-2.052149
10062		9.438800	1.248417	0.498220	0.429635	0.981349	-0.339037	-0.139221	-0.217324	-0.005904	-0.961670	-0.217529	-0.547119	0.094383	0.012485	0.005076	0.743612	0.120314	-0.649831	0.101416	20.434503	-82.242359	-2.351797
10063		9.574356	1.375798	0.168386	0.699430	1.198501	-0.238565	-0.126851	-0.254214	-0.008330	-0.958740	-0.215576	-0.544189	0.095742	0.013755	0.001797	0.742853	0.119947	-0.650854	0.100847	20.730919	-82.380886	-2.726751
10064		9.838055	1.828215	0.273287	0.477160	1.589245	0.059038	-0.122640	-0.208489	0.002436	-0.964355	-0.213135	-0.540771	0.098377	0.018285	0.002824	0.742235	0.119535	-0.651711	0.100357	20.925625	-82.496857	-2.996789
10065		10.350409	1.667411	1.173293	-0.265522	1.159175	0.669376	-0.253675	-0.009069	0.069864	-0.964600	-0.212402	-0.547852	0.103498	0.016725	0.011716	0.742309	0.118318	-0.651933	0.099810	20.465266	-82.519719	-2.681648
10066		11.066785	0.441145	2.041867	-0.622306	-0.258615	1.429347	-0.423453	0.055057	0.149019	-0.964844	-0.205566	-0.550781	0.110670	0.004537	0.020379	0.742650	0.116179	-0.652046	0.099041	19.483179	-82.522978	-1.938577
10067		11.402033	-0.614188	1.939145	-0.172987	-1.212792	1.704389	-0.363580	-0.036851	0.104352	-0.962646	-0.205322	-0.540039	0.114020	-0.006047	0.019424	0.742676	0.114454	-0.652442	0.098247	18.850926	-82.566209	-1.513767
10068		11.497256	-0.256234	1.582615	0.052568	-0.758932	1.770854	-0.105413	-0.210562	-0.005028	-0.967529	-0.199219	-0.546143	0.114956	-0.002557	0.015949	0.742040	0.114128	-0.653291	0.097789	19.067179	-82.683012	-1.795465
10069		11.535892	0.660946	1.813634	-0.462525	0.038715	1.874372	-0.041176	-0.344628	-0.034562	-0.963867	-0.192139	-0.541748	0.115329	0.006593	0.018334	0.740941	0.114204	-0.654589	0.097355	19.660684	-82.866468	-2.420177
10070		11.292973	0.916970	1.721781	-0.520803	0.299195	1.631774	-0.142195	-0.390719	-0.023416	-0.963623	-0.203125	-0.541016	0.112897	0.009169	0.017432	0.739741	0.113889	-0.656110	0.096605	20.252308	-83.076055	-3.101105
10071		10.557840	1.353181	1.400136	-0.475181	0.803053	0.882573	-0.123321	-0.454882	-0.029647	-0.968994	-0.199219	-0.526611	0.105548	0.013525	0.014233	0.738319	0.113695	-0.657852	0.095856	21.035986	-83.317762	-3.964435
10072		10.117983	1.975101	1.122554	-0.490247	1.468635	0.440961	-0.135837	-0.517480	-0.023447	-0.974365	-0.199707	-0.535889	0.101153	0.019747	0.011474	0.736691	0.113464	-0.659831	0.095053	21.962796	-83.592606	-4.978395
10073		9.989163	2.464796	0.953409	-0.531562	1.975921	0.315520	-0.205934	-0.490603	0.006828	-0.973389	-0.193359	-0.527344	0.099867	0.024661	0.009754	0.735172	0.112862	-0.661757	0.094144	22.732388	-83.858055	-5.874089
10074		9.794647	2.682792	1.008550	-0.704400	2.165887	0.135294	-0.288904	-0.370239	0.042373	-0.976074	-0.195801	-0.526611	0.097922	0.026863	0.010228	0.734076	0.111780	-0.663294	0.093160	23.081426	-84.066938	-6.394257
10075		9.724783	2.680936	1.312255	-1.023718	2.081189	0.091931	-0.383946	-0.238651	0.057841	-0.974854	-0.180420	-0.524170	0.097224	0.026863	0.013187	0.733458	0.110234	-0.664398	0.091988	23.031346	-84.209703	-6.568016
10076		9.758064	2.167853	1.637579	-1.199890	1.505832	0.131848	-0.479740	-0.173788	0.044181	-0.989746	-0.186279	-0.523926	0.097562	0.021739	0.016408	0.733111	0.108353	-0.665297	0.090486	22.853391	-84.315298	-6.668151
10077		9.852023	1.400430	1.870038	-1.209385	0.713101	0.214748	-0.524090	-0.117713	-0.001542	-0.988281	-0.189697	-0.526123	0.098509	0.014053	0.018722	0.732990	0.106433	-0.665981	0.088694	22.768200	-84.381107	-6.887559
10078		9.705602	0.458148	1.988457	-1.087994	-0.215938	0.042880	-0.551076	-0.071599	-0.043878	-0.982178	-0.174561	-0.530762	0.097050	0.004615	0.019907	0.733050	0.104536	-0.666480	0.086685	22.791835	-84.413212	-7.231298
10079		9.585193	-0.500760	2.113486	-0.969912	-1.167005	-0.102339	-0.537472	-0.011465	-0.088505	-0.973389	-0.178711	-0.526367	0.095849	-0.004993	0.021154	0.733317	0.102810	-0.666725	0.084584	22.929658	-84.403444	-7.682325
10080		9.418297	-1.324595	2.304667	-0.958519	-2.009496	-0.283074	-0.467789	0.033680	-0.141621	-0.977051	-0.175781	-0.529785	0.094177	-0.013259	0.023062	0.733716	0.101497	-0.666742	0.082548	23.284782	-84.357897	-8.311211
10081		9.265114	-1.967601	2.343145	-0.848578	-2.643930	-0.458883	-0.374418	0.027301	-0.194936	-0.981201	-0.170654	-0.527100	0.092635	-0.019722	0.023456	0.734066	0.100706	-0.666713	0.080620	23.981132	-84.302683	-9.229678
10082		9.163637	-2.249589	2.129577	-0.585552	-2.873517	-0.594879	-0.278094	-0.016914	-0.248778	-0.978271	-0.178955	-0.529541	0.091607	-0.022580	0.021335	0.734237	0.100466	-0.666779	0.078797	25.099997	-84.256477	-10.517006
10083		9.235086	-2.155005	1.775212	-0.263576	-2.713954	-0.558112	-0.165976	-0.025387	-0.286878	-0.982422	-0.183350	-0.528076	0.092318	-0.021668	0.017782	0.734337	0.100766	-0.666810	0.077200	26.477321	-84.202245	-12.000067
10084		9.500953	-1.719021	1.595457	-0.170104	-2.276475	-0.296528	-0.059530	0.006050	-0.291196	-0.984131	-0.186035	-0.526855	0.094985	-0.017324	0.015957	0.734488	0.101461	-0.666681	0.075960	27.827015	-84.127439	-13.393807
10085		9.978267	-1.242962	1.562192	-0.203259	-1.844224	0.192745	-0.020313	-0.012168	-0.282447	-0.977783	-0.177979	-0.530273	0.099764	-0.012569	0.015629	0.734553	0.102278	-0.666607	0.074873	29.171707	-84.060784	-14.760124
10086		10.637226	-0.821477	1.528905	-0.205884	-1.470465	0.862435	0.033809	-0.036259	-0.232185	-0.980469	-0.180176	-0.529053	0.106360	-0.008341	0.015307	0.734491	0.103135	-0.666626	0.074140	30.345555	-84.017441	-15.923608
10087		11.189541	-0.386071	1.448367	-0.181414	-1.066907	1.424813	0.072182	-0.081067	-0.169313	-0.984375	-0.191406	-0.522705	0.111886	-0.003961	0.014528	0.734236	0.103936	-0.666827	0.073739	31.358179	-84.012241	-16.903500
10088		11.378417	-0.297289	1.384698	-0.129559	-0.985826	1.610338	0.043312	-0.091505	-0.072673	-0.979248	-0.189697	-0.528564	0.113777	-0.003017	0.013898	0.733924	0.104316	-0.667127	0.073594	31.935842	-84.039843	-17.462098
10089		11.364789	-0.676927	1.187371	0.146562	-1.306551	1.558238	-0.027667	-0.028798	0.020226	-0.978027	-0.189941	-0.527344	0.113647	-0.006756	0.011891	0.733824	0.104102	-0.667271	0.073585	31.860873	-84.064724	-17.405481
10090		11.647580	-0.976098	1.077150	0.348766	-1.570420	1.814490	-0.005120	-0.033167	0.089706	-0.981445	-0.184814	-0.521240	0.116478	-0.009708	0.010791	0.733672	0.103741	-0.667459	0.073905	31.482589	-84.112702	-17.030856
10091		11.867247	-0.925522	0.972220	0.447117	-1.489046	2.028603	0.045094	-0.106520	0.150268	-0.973633	-0.182129	-0.521484	0.118674	-0.009168	0.009783	0.733227	0.103389	-0.667928	0.074576	31.048026	-84.214270	-16.570978
10092		11.588485	-0.819515	0.663266	0.677950	-1.281702	1.732965	0.052070	-0.043540	0.209808	-0.979980	-0.173096	-0.524414	0.115892	-0.008075	0.006656	0.732965	0.102840	-0.668194	0.075521	30.123411	-84.301641	-15.614447
10093		10.770757	-0.860449	0.388189	0.869333	-1.204336	0.896843	0.038960	0.059148	0.247529	-0.983887	-0.176758	-0.530029	0.107719	-0.008472	0.003848	0.733038	0.102075	-0.668107	0.076611	28.680760	-84.346331	-14.145496
10094		10.208069	-0.940410	0.355429	0.868468	-1.230959	0.333534	0.006050	0.104519	0.260170	-0.985596	-0.162354	-0.533447	0.102095	-0.009271	0.003501	0.733272	0.101133	-0.667871	0.077664	27.012549	-84.367499	-12.468409
10095		9.951094	-1.000695	0.433953	0.789907	-1.273451	0.085204	-0.035574	0.179798	0.263315	-0.983398	-0.180176	-0.532959	0.099528	-0.009875	0.004252	0.733778	0.099993	-0.667376	0.078623	25.104515	-84.345494	-10.575034
10096		9.798822	-1.155310	0.639077	0.630516	-1.440502	-0.051163	-0.022877	0.272037	0.255313	-0.986572	-0.173096	-0.526611	0.098011	-0.011427	0.006259	0.734584	0.098895	-0.666531	0.079644	23.056942	-84.267007	-8.533216
10097		9.563876	-1.089707	0.776115	0.480082	-1.378065	-0.266595	0.067814	0.300188	0.216346	-0.983154	-0.165527	-0.537598	0.095662	-0.010796	0.007614	0.735452	0.098249	-0.665525	0.080838	21.265618	-84.158389	-6.696388
10098		9.287115	-0.780411	0.892031	0.285941	-1.079290	-0.517067	0.150303	0.280771	0.182490	-0.978516	-0.170898	-0.541748	0.092891	-0.007726	0.008784	0.736226	0.098026	-0.664538	0.082173	19.799838	-84.048198	-5.138968
10099		9.109798	-0.496736	0.988898	0.123121	-0.806008	-0.672216	0.175130	0.237593	0.177065	-0.981201	-0.159668	-0.543701	0.091114	-0.004895	0.009776	0.736845	0.097927	-0.663694	0.083547	18.504702	-83.956481	-3.738797
10100		9.029321	-0.573135	0.977975	0.160390	-0.855594	-0.754225	0.130716	0.201394	0.191017	-0.975098	-0.157959	-0.542969	0.090308	-0.005651	0.009685	0.737357	0.097636	-0.663008	0.084809	17.211911	-83.883737	-2.366110
10101		9.062204	-0.721543	0.845794	0.342545	-0.944507	-0.737995	0.153761	0.192094	0.180306	-0.971680	-0.161377	-0.543213	0.090637	-0.007140	0.008365	0.737830	0.097465	-0.662340	0.086100	16.030805	-83.811200	-1.092794
10102		9.059467	-0.636889	0.825511	0.354935	-0.837904	-0.738938	0.192956	0.212282	0.161777	-0.976563	-0.164063	-0.540283	0.090608	-0.006304	0.008153	0.738357	0.097495	-0.661569	0.087465	14.968628	-83.722047	0.084179
10103		9.147116	-0.568314	0.882189	0.307956	-0.768176	-0.642846	0.194716	0.197534	0.149364	-0.972656	-0.160400	-0.541748	0.091484	-0.005623	0.008726	0.738837	0.097578	-0.660845	0.088782	14.018659	-83.637065	1.149303
10104		9.147972	-0.724046	0.756346	0.484316	-0.868030	-0.658802	0.162669	0.197192	0.144028	-0.982666	-0.167236	-0.546631	0.091492	-0.007181	0.007467	0.739333	0.097560	-0.660132	0.089973	13.104637	-83.549662	2.160123
10105		9.231619	-0.926274	0.725262	0.592164	-1.037551	-0.583409	0.180375	0.201415	0.128570	-0.982422	-0.158936	-0.551758	0.092329	-0.009210	0.007151	0.739839	0.097657	-0.659386	0.091168	12.297096	-83.456289	3.074103
10106		9.378894	-0.945859	0.755095	0.602241	-1.047585	-0.433546	0.204364	0.199140	0.112536	-0.968750	-0.158691	-0.545166	0.093802	-0.009413	0.007448	0.740332	0.097897	-0.658628	0.092381	11.607752	-83.360925	3.883169
10107		9.425743	-0.749203	0.656815	0.665463	-0.816949	-0.393183	0.220809	0.176736	0.102715	-0.979736	-0.159912	-0.553467	0.094267	-0.007451	0.006477	0.740745	0.098238	-0.657940	0.093600	11.015475	-83.276031	4.603910
10108		9.615617	-0.510211	0.615697	0.675563	-0.561284	-0.203939	0.246515	0.124737	0.089639	-0.972656	-0.158936	-0.559082	0.096162	-0.005067	0.006091	0.740980	0.098743	-0.657424	0.094830	10.562425	-83.218223	5.199618
10109		9.638521	-0.352279	0.499543	0.756042	-0.366896	-0.191435	0.258631	0.107521	0.075018	-0.975342	-0.161621	-0.553711	0.096389	-0.003493	0.004939	0.741157	0.099347	-0.656958	0.096036	10.207270	-83.168111	5.703523
10110		9.420705	-0.242515	0.369503	0.831637	-0.219717	-0.420928	0.279263	0.075352	0.058108	-0.981201	-0.160156	-0.554199	0.094209	-0.002403	0.003656	0.741225	0.100100	-0.656591	0.097232	9.976617	-83.134148	6.094253
10111		9.234112	-0.279934	0.275318	0.913945	-0.225415	-0.618293	0.265364	0.043445	0.047443	-0.977539	-0.165039	-0.558594	0.092342	-0.002781	0.002729	0.741199	0.100851	-0.656342	0.098326	9.815305	-83.117025	6.406935
10112		9.112646	-0.416649	0.174753	1.035590	-0.325613	-0.753660	0.259403	0.017497	0.026604	-0.980225	-0.168457	-0.550537	0.091127	-0.004157	0.001734	0.741100	0.101662	-0.656181	0.099310	9.770818	-83.112414	6.598715
10113		9.008636	-0.377442	0.166704	1.021597	-0.284660	-0.857182	0.280816	0.017143	0.001765	-0.979492	-0.170654	-0.556396	0.090087	-0.003776	0.001654	0.740999	0.102633	-0.655997	0.100273	9.854122	-83.105632	6.674074
10114		9.035357	-0.417510	0.144990	1.058443	-0.316280	-0.834231	0.288600	0.000508	-0.019953	-0.973145	-0.170410	-0.547852	0.090353	-0.004186	0.001444	0.740849	0.103713	-0.655858	0.101172	10.057719	-83.106062	6.632816
10115		9.354504	-0.505150	0.161824	1.107263	-0.402437	-0.517521	0.284988	0.001565	-0.041746	-0.972168	-0.166260	-0.555176	0.093544	-0.005073	0.001610	0.740714	0.104850	-0.655705	0.101979	10.359040	-83.103726	6.491036
10116		9.641299	-0.540002	0.182330	1.136408	-0.441342	-0.231807	0.284262	0.039788	-0.068047	-0.966553	-0.174561	-0.552490	0.096412	-0.005435	0.001796	0.740717	0.106051	-0.655395	0.102706	10.749617	-83.076932	6.258926
10117		9.677902	-0.486882	0.278248	1.042316	-0.422634	-0.184021	0.279964	0.068972	-0.082175	-0.980713	-0.182861	-0.545898	0.096778	-0.004912	0.002742	0.740824	0.107266	-0.654971	0.103381	11.172862	-83.032037	5.991217
10118		9.700824	-0.572642	0.379975	0.984606	-0.538399	-0.152514	0.260271	0.096908	-0.071167	-0.975098	-0.181885	-0.552246	0.097008	-0.005766	0.003745	0.741025	0.108359	-0.654457	0.104047	11.505606	-82.972423	5.803481
10119		9.668066	-0.672242	0.575521	0.839110	-0.694655	-0.165514	0.258414	0.142331	-0.068784	-0.978760	-0.175293	-0.553955	0.096682	-0.006763	0.005678	0.741373	0.109413	-0.653777	0.104743	11.778824	-82.887598	5.674816
10120		9.509786	-0.519713	0.796901	0.583498	-0.618635	-0.293341	0.259097	0.201141	-0.063267	-0.972168	-0.183350	-0.552246	0.095104	-0.005237	0.007867	0.741908	0.110421	-0.652879	0.105491	11.969044	-82.770261	5.629979
10121		9.394596	-0.292841	1.222918	0.117390	-0.532757	-0.350019	0.229411	0.168972	-0.043383	-0.966309	-0.181641	-0.553711	0.093956	-0.002963	0.012146	0.742342	0.111269	-0.652127	0.106199	12.080644	-82.673436	5.647128
10122		9.332772	-0.233595	1.432725	-0.093203	-0.540153	-0.383613	0.169608	0.099254	0.001941	-0.969238	-0.187744	-0.550781	0.093335	-0.002347	0.014279	0.742558	0.111786	-0.651688	0.106840	12.026948	-82.620975	5.796513
10123		9.387359	-0.398678	1.362669	0.035523	-0.673071	-0.342522	0.167202	0.017785	0.032580	-0.964600	-0.177490	-0.549316	0.093875	-0.003983	0.013615	0.742491	0.112236	-0.651571	0.107543	11.913971	-82.617908	6.004322
10124		9.384315	-0.497393	1.274631	0.148026	-0.736998	-0.358991	0.159976	-0.015614	0.053258	-0.967773	-0.173828	-0.551758	0.093843	-0.004959	0.012750	0.742309	0.112611	-0.651591	0.108279	11.738618	-82.635815	6.270820
10125		9.197952	-0.776819	1.193405	0.285881	-0.975651	-0.560857	0.135681	0.013794	0.063239	-0.972412	-0.186035	-0.562744	0.091983	-0.007747	0.011922	0.742231	0.112844	-0.651523	0.108989	11.477023	-82.638371	6.609891
10126		8.865630	-0.973275	1.155705	0.340960	-1.149456	-0.899506	0.146553	0.030584	0.071938	-0.969238	-0.180908	-0.559326	0.088662	-0.009709	0.011536	0.742195	0.113083	-0.651389	0.109776	11.171062	-82.632125	7.000324
10127		8.714611	-1.171425	0.991447	0.538369	-1.282351	-1.073959	0.157223	-0.007818	0.082493	-0.964355	-0.188232	-0.553955	0.087151	-0.011686	0.009909	0.742023	0.113346	-0.651398	0.110616	10.856126	-82.648423	7.405776
10128		8.714120	-1.344576	0.660809	0.899266	-1.337904	-1.118910	0.208945	-0.096365	0.082333	-0.972412	-0.184814	-0.542725	0.087144	-0.013417	0.006636	0.741532	0.113852	-0.651705	0.111573	10.644031	-82.714247	7.737574
10129		8.836924	-1.366517	0.350186	1.205498	-1.255251	-1.034741	0.272631	-0.128861	0.062331	-0.966553	-0.187012	-0.547119	0.088371	-0.013642	0.003540	0.740907	0.114678	-0.652086	0.112648	10.577745	-82.796296	7.959251
10130		9.259946	-1.153381	0.559521	0.990330	-1.109159	-0.583443	0.307574	0.000059	0.030916	-0.967529	-0.184326	-0.551758	0.092601	-0.011528	0.005577	0.740700	0.115662	-0.651949	0.113791	10.564083	-82.802274	8.147911
10131		10.217415	-0.739289	1.322275	0.262981	-0.942631	0.469959	0.270030	0.009099	0.004610	-0.965576	-0.185547	-0.550537	0.102175	-0.007408	0.013208	0.740557	0.116587	-0.651784	0.114720	10.636653	-82.800516	8.227940
10132		11.337288	-0.533649	1.430837	0.232580	-0.765029	1.599009	0.265104	-0.064704	0.010002	-0.973633	-0.187744	-0.547363	0.113369	-0.005350	0.014338	0.740172	0.117519	-0.651896	0.115609	10.746323	-82.840783	8.267758
10133		11.915015	-0.044050	1.237840	0.318974	-0.230948	2.160060	0.284796	-0.067192	0.035585	-0.969482	-0.182617	-0.546875	0.119146	-0.000437	0.012418	0.739751	0.118440	-0.652021	0.116657	10.752242	-82.885312	8.423404
10134		11.812901	0.340236	1.394333	0.028044	0.081747	2.086770	0.161572	-0.004979	0.066150	-0.960205	-0.187500	-0.537109	0.118128	0.003430	0.013949	0.739588	0.118771	-0.652004	0.117451	10.497678	-82.897871	8.770492
10135		11.310131	0.441744	1.748133	-0.398475	0.061865	1.633165	0.024243	0.069037	0.098888	-0.975830	-0.188721	-0.545898	0.113105	0.004471	0.017443	0.739726	0.118441	-0.651814	0.117963	9.953479	-82.871870	9.330015
10136		10.769394	0.514228	2.053613	-0.772113	0.034738	1.135564	-0.053168	0.070629	0.126532	-0.967041	-0.193359	-0.546387	0.107698	0.005216	0.020497	0.739900	0.117737	-0.651678	0.118325	9.245754	-82.846714	10.009833
10137		10.663977	0.503683	2.084254	-0.813002	0.028252	1.034268	-0.034816	-0.020084	0.125960	-0.979004	-0.182373	-0.532715	0.106634	0.005108	0.020852	0.739767	0.117155	-0.651868	0.118694	8.615984	-82.871983	10.621809
10138		11.028546	0.483501	1.964006	-0.655440	0.071030	1.380402	-0.046824	0.000718	0.116205	-0.971924	-0.185547	-0.535156	0.110283	0.004904	0.019639	0.739714	0.116549	-0.651980	0.118997	8.008013	-82.883715	11.204733
10139		11.274779	0.367262	1.979754	-0.601064	-0.021488	1.624672	-0.103006	0.113275	0.105075	-0.966064	-0.184814	-0.543213	0.112757	0.003742	0.019732	0.740066	0.115704	-0.651705	0.119145	7.348123	-82.830096	11.807753
10140		11.039972	0.226193	1.901618	-0.501825	-0.115063	1.380309	-0.128012	0.147065	0.121916	-0.964355	-0.182129	-0.537598	0.110412	0.002341	0.018934	0.740533	0.114692	-0.651326	0.119290	6.592277	-82.757297	12.492948
10141		10.527452	-0.177346	1.667330	-0.204356	-0.412364	0.837516	-0.099408	0.150842	0.142054	-0.964844	-0.182861	-0.542236	0.105288	-0.001690	0.016595	0.740982	0.113718	-0.650928	0.119607	5.774184	-82.682523	13.257742
10142		10.135231	-0.584651	1.506400	0.039252	-0.735196	0.424103	-0.039447	0.152283	0.150278	-0.973145	-0.174561	-0.544189	0.101368	-0.005767	0.014988	0.741397	0.112938	-0.650492	0.120148	4.971527	-82.605901	14.041531
10143		9.924358	-0.964731	1.655840	0.005756	-1.127855	0.231876	-0.001872	0.166861	0.167249	-0.961914	-0.177979	-0.545898	0.099265	-0.009564	0.016476	0.741825	0.112232	-0.649989	0.120885	4.126123	-82.520403	14.890469
10144		9.722097	-1.277326	1.880982	-0.117833	-1.480904	0.060600	0.052323	0.185045	0.170747	-0.965576	-0.170654	-0.552734	0.097249	-0.012695	0.018717	0.742280	0.111706	-0.649386	0.121818	3.313329	-82.422946	15.737829
10145		9.640309	-1.123618	2.055703	-0.329738	-1.375389	0.006861	0.152819	0.157939	0.149284	-0.966309	-0.173828	-0.553223	0.096428	-0.011180	0.020472	0.742602	0.111638	-0.648810	0.122984	2.673205	-82.339013	16.469332
10146		9.582723	-0.445766	2.220723	-0.701591	-0.775579	-0.021614	0.234912	0.150169	0.130331	-0.965576	-0.173584	-0.552246	0.095847	-0.004421	0.022130	0.742864	0.111941	-0.648199	0.124340	2.177962	-82.258060	17.102160
10147		9.498809	0.131724	2.247225	-0.916153	-0.229758	-0.096588	0.223818	0.156042	0.121700	-0.962158	-0.173584	-0.544922	0.095005	0.001350	0.022400	0.743154	0.112226	-0.647568	0.125634	1.721143	-82.172913	17.690036
10148		9.287366	0.691759	2.347438	-1.211988	0.267935	-0.288852	0.221314	0.166703	0.107488	-0.959473	-0.173096	-0.550049	0.092889	0.006942	0.023405	0.743487	0.112542	-0.646889	0.126869	1.333987	-82.080822	18.206143
10149		9.068319	1.141830	2.434708	-1.462379	0.663897	-0.491386	0.180095	0.154557	0.104325	-0.967041	-0.171875	-0.559570	0.090696	0.011444	0.024287	0.743805	0.112723	-0.646278	0.127956	0.945273	-81.995241	18.700320
10150		8.855258	1.330279	2.322229	-1.440589	0.878917	-0.717074	0.147930	0.137351	0.095774	-0.966064	-0.171875	-0.557129	0.088562	0.013328	0.023171	0.744090	0.112822	-0.645746	0.128894	0.584802	-81.918944	19.147228
10151		8.683552	1.285478	2.199113	-1.325695	0.879747	-0.904198	0.105842	0.145007	0.092041	-0.963623	-0.168701	-0.565674	0.086846	0.012883	0.021935	0.744425	0.112771	-0.645210	0.129688	0.220628	-81.837841	19.573626
10152		8.675399	1.101883	2.231508	-1.284816	0.706193	-0.907248	0.070370	0.176706	0.075899	-0.959229	-0.166748	-0.557129	0.086769	0.011044	0.022242	0.744892	0.112620	-0.644569	0.130323	-0.089834	-81.738224	19.925295
10153		8.699177	0.908363	2.361359	-1.323719	0.492496	-0.863832	0.036942	0.200149	0.056693	-0.959229	-0.179199	-0.557129	0.087013	0.009104	0.023528	0.745465	0.112388	-0.643851	0.130793	-0.338069	-81.624918	20.194660
10154		8.880436	0.833032	2.417863	-1.312419	0.421514	-0.674744	0.022764	0.166234	0.038190	-0.960693	-0.171631	-0.559082	0.088823	0.008345	0.024106	0.745949	0.112188	-0.643257	0.131128	-0.515590	-81.531034	20.384554
10155		9.154617	1.026986	2.464213	-1.371443	0.609082	-0.395565	0.021753	0.139804	-0.003964	-0.951904	-0.169189	-0.560547	0.091564	0.010265	0.024579	0.746374	0.112138	-0.642739	0.131292	-0.531520	-81.452459	20.410884
10156		9.475814	1.271860	2.410781	-1.347965	0.877242	-0.084688	-0.012514	0.130475	-0.042091	-0.957031	-0.179443	-0.556641	0.094777	0.012700	0.024045	0.746814	0.112088	-0.642256	0.131194	-0.421536	-81.379422	20.289655
10157		9.642921	1.540884	2.318317	-1.316872	1.170296	0.068157	-0.040467	0.116528	-0.083410	-0.962158	-0.171387	-0.557129	0.096449	0.015373	0.023124	0.747251	0.112076	-0.641820	0.130848	-0.175974	-81.314415	20.015400
10158		9.636719	1.719053	2.230413	-1.282601	1.364332	0.050870	-0.073648	0.109868	-0.119742	-0.949707	-0.170898	-0.571777	0.096390	0.017141	0.022245	0.747709	0.112060	-0.641410	0.130252	0.183341	-81.253032	19.606446
10159		9.620856	1.686356	2.202086	-1.233846	1.336446	0.033396	-0.115173	0.075212	-0.158601	-0.955322	-0.171875	-0.558594	0.096230	0.016800	0.021975	0.748105	0.112035	-0.641135	0.129361	0.657487	-81.210829	19.057245
10160		9.913174	1.469806	2.384870	-1.276116	1.076824	0.352493	-0.153164	0.052309	-0.196386	-0.953613	-0.173096	-0.567383	0.099152	0.014619	0.023812	0.748471	0.112005	-0.640947	0.128191	1.247553	-81.180673	18.368590
10161		10.137229	1.017503	2.365481	-1.062902	0.654071	0.571754	-0.165279	0.014550	-0.238384	-0.957764	-0.188232	-0.567871	0.101386	0.010074	0.023639	0.748748	0.112088	-0.640884	0.126805	1.984503	-81.170198	17.524345
10162		10.289751	0.609308	2.105253	-0.654552	0.340747	0.681964	-0.124967	-0.040553	-0.296973	-0.949463	-0.182129	-0.564453	0.102902	0.005953	0.021070	0.748862	0.112544	-0.640968	0.125297	2.969868	-81.187915	16.451978
10163		10.296115	0.466029	1.775787	-0.293695	0.284870	0.637819	-0.079130	-0.060252	-0.341848	-0.953857	-0.183350	-0.562500	0.102964	0.004491	0.017787	0.748913	0.113330	-0.641068	0.123760	4.155872	-81.212092	15.203728
10164		10.079490	0.434810	1.478611	-0.031741	0.311157	0.379149	-0.053245	-0.037392	-0.361773	-0.951416	-0.180420	-0.558350	0.100800	0.004170	0.014804	0.749033	0.114260	-0.641055	0.122240	5.428967	-81.218244	13.881903
10165		9.849798	0.422624	1.274322	0.139608	0.326137	0.121852	-0.015681	0.029995	-0.353172	-0.955811	-0.187744	-0.570557	0.098507	0.004053	0.012728	0.749340	0.115262	-0.640769	0.120912	6.662922	-81.182063	12.621598
10166		9.626959	0.435437	1.346894	0.049893	0.278399	-0.086332	0.020345	0.078024	-0.329282	-0.948975	-0.187988	-0.565186	0.096282	0.004194	0.013432	0.749763	0.116292	-0.640293	0.119815	7.796742	-81.116361	11.483162
10167		9.389842	0.305379	1.431386	-0.003561	0.096046	-0.309954	0.034197	0.120520	-0.302856	-0.946045	-0.192383	-0.570557	0.093911	0.002909	0.014258	0.750297	0.117264	-0.639663	0.118887	8.801677	-81.025399	10.483033
10168		9.245143	0.350784	1.505840	-0.090535	0.088713	-0.440007	0.065802	0.125240	-0.282631	-0.951416	-0.191650	-0.563721	0.092466	0.003372	0.015002	0.750813	0.118287	-0.639008	0.118137	9.730886	-80.931118	9.577609
10169		9.136298	0.498746	1.527410	-0.158655	0.198098	-0.539651	0.091366	0.094285	-0.259914	-0.946289	-0.197998	-0.570557	0.091377	0.004862	0.015233	0.751201	0.119351	-0.638465	0.117537	10.595377	-80.854314	8.752363
10170		9.192605	0.592664	1.440145	-0.085375	0.297899	-0.494256	0.086103	0.068686	-0.227091	-0.948486	-0.195068	-0.573486	0.091938	0.005816	0.014372	0.751489	0.120305	-0.638041	0.117027	11.347948	-80.793719	8.037258
10171		9.197810	0.701116	1.421389	-0.090590	0.389932	-0.487917	0.093357	0.074115	-0.198406	-0.943115	-0.207275	-0.568848	0.091990	0.006913	0.014183	0.751773	0.121191	-0.637607	0.116651	11.991336	-80.731925	7.436775
10172		9.187059	0.869393	1.427711	-0.141697	0.532659	-0.491077	0.082268	0.087162	-0.166026	-0.947021	-0.208496	-0.577148	0.091884	0.008612	0.014241	0.752085	0.121925	-0.637151	0.116369	12.501161	-80.665886	6.965169
10173		9.229046	0.894592	1.534778	-0.230764	0.511879	-0.431012	0.071646	0.101795	-0.122289	-0.947266	-0.219971	-0.575195	0.092304	0.008884	0.015304	0.752424	0.122473	-0.636671	0.116228	12.838479	-80.596497	6.662354
10174		9.257774	1.015007	1.625711	-0.338774	0.589220	-0.383074	0.086572	0.105038	-0.091870	-0.940674	-0.209473	-0.568604	0.092591	0.010101	0.016213	0.752746	0.122977	-0.636189	0.116249	13.076043	-80.529063	6.469059
10175		9.249534	1.011397	1.710423	-0.407069	0.553638	-0.377110	0.068955	0.098745	-0.057983	-0.941162	-0.218262	-0.577637	0.092507	0.010081	0.017062	0.753039	0.123312	-0.635761	0.116341	13.192462	-80.469369	6.388735
10176		9.335384	0.985524	1.609121	-0.282779	0.562822	-0.309362	0.071176	0.056145	-0.031802	-0.938477	-0.212891	-0.570313	0.093360	0.009835	0.016069	0.753179	0.123595	-0.635508	0.116509	13.255999	-80.436931	6.362904
10177		9.490698	1.013282	1.455129	-0.120218	0.641721	-0.179867	0.086060	0.015559	-0.021637	-0.937500	-0.217773	-0.571533	0.094909	0.010116	0.014548	0.753176	0.123928	-0.635405	0.116740	13.325428	-80.428351	6.340085
10178		9.572037	1.111885	1.313032	-0.005693	0.781869	-0.118727	0.097037	0.035847	-0.026965	-0.940430	-0.214355	-0.566406	0.095724	0.011100	0.013119	0.753233	0.124305	-0.635217	0.116995	13.403166	-80.407859	6.314875
10179		9.463355	1.179584	1.177483	0.084114	0.887916	-0.245165	0.083427	0.072111	-0.031472	-0.947266	-0.214355	-0.575684	0.094640	0.011776	0.011746	0.753416	0.124626	-0.634897	0.117216	13.458845	-80.366490	6.304513
10180		9.415984	1.271782	1.168909	0.058967	0.975885	-0.289626	0.080065	0.058289	-0.029569	-0.943359	-0.210449	-0.573242	0.094165	0.012699	0.011667	0.753556	0.124934	-0.634632	0.117422	13.517315	-80.333137	6.288981
10181		9.332210	1.241990	1.152649	0.073543	0.950882	-0.375966	0.065233	0.027255	-0.020241	-0.944092	-0.215088	-0.572021	0.093325	0.012407	0.011518	0.753601	0.125175	-0.634498	0.117598	13.560380	-80.318260	6.280530
10182		9.349401	1.200101	1.029120	0.204340	0.952300	-0.380721	0.039873	-0.031441	-0.011397	-0.938232	-0.219971	-0.571533	0.093493	0.011994	0.010308	0.753470	0.125327	-0.634606	0.117689	13.606926	-80.337321	6.253731
10183		9.444195	1.121490	0.847192	0.410096	0.939894	-0.319705	0.034313	-0.069628	-0.002710	-0.937500	-0.226563	-0.578369	0.094439	0.011212	0.008507	0.753217	0.125454	-0.634866	0.117773	13.652069	-80.378754	6.225427
10184		9.562717	1.202400	0.658377	0.571014	1.080399	-0.229814	0.047393	-0.057188	-0.001365	-0.941162	-0.211426	-0.567383	0.095625	0.012022	0.006614	0.752994	0.125617	-0.635073	0.117909	13.690888	-80.413501	6.210842
10185		9.614762	1.379859	0.621914	0.549048	1.260065	-0.177065	0.038655	-0.020370	0.004651	-0.945557	-0.220947	-0.579590	0.096147	0.013800	0.006232	0.752890	0.125709	-0.635150	0.118065	13.675216	-80.428481	6.246730
10186		9.618089	1.550638	0.623831	0.489347	1.421089	-0.166843	-0.007795	0.019844	-0.001134	-0.947021	-0.225342	-0.571045	0.096182	0.015506	0.006228	0.752946	0.125618	-0.635099	0.118076	13.619878	-80.420370	6.295564
10187		9.471449	1.787626	0.603490	0.406063	1.650053	-0.305816	-0.032446	0.031508	-0.004109	-0.940186	-0.215332	-0.561523	0.094716	0.017875	0.006017	0.753056	0.125440	-0.635017	0.118006	13.551149	-80.405282	6.344059
10188		9.413666	1.931389	0.638899	0.317313	1.774146	-0.351859	-0.077539	0.006418	-0.004078	-0.943115	-0.214844	-0.578369	0.094137	0.019314	0.006378	0.753115	0.125104	-0.635056	0.117775	13.476400	-80.404238	6.372056
10189		9.355597	1.743487	0.591949	0.414483	1.614748	-0.424496	-0.168879	-0.028391	0.015793	-0.940674	-0.210938	-0.572754	0.093554	0.017447	0.005918	0.753108	0.124383	-0.635292	0.117309	13.311039	-80.425201	6.439030
10190		9.051588	1.433713	0.292543	0.742133	1.421023	-0.784826	-0.240789	-0.088006	0.026466	-0.945801	-0.210205	-0.570313	0.090513	0.014353	0.002948	0.752950	0.123390	-0.635801	0.116615	13.114870	-80.480801	6.495299
10191		8.897145	1.253177	0.049686	0.993542	1.330183	-0.982308	-0.272816	-0.161741	0.027935	-0.943848	-0.215820	-0.573486	0.088969	0.012545	0.000552	0.752574	0.122316	-0.636605	0.115780	12.951048	-80.577704	6.500187
10192		9.020795	1.206586	-0.110151	1.164193	1.339707	-0.885619	-0.284391	-0.209900	0.013742	-0.937988	-0.213867	-0.565186	0.090208	0.012071	-0.001024	0.752058	0.121270	-0.637587	0.114825	12.864721	-80.699701	6.419782
10193		9.167787	1.438140	-0.132426	1.118410	1.563751	-0.733154	-0.219219	-0.193744	-0.019274	-0.947998	-0.202881	-0.567139	0.091680	0.014371	-0.001251	0.751571	0.120568	-0.638449	0.113965	12.917692	-80.808432	6.236469
10194		9.266287	1.760308	0.125146	0.777747	1.779629	-0.581954	-0.143068	-0.146031	-0.044979	-0.951660	-0.208008	-0.566650	0.092666	0.017583	0.001307	0.751204	0.120204	-0.639072	0.113278	13.067721	-80.887187	5.998724
10195		9.290708	1.880624	0.464518	0.417172	1.776532	-0.499274	-0.078859	-0.125529	-0.059812	-0.947998	-0.207275	-0.574707	0.092910	0.018780	0.004696	0.750871	0.120117	-0.639572	0.112752	13.293400	-80.952479	5.721721
10196		9.256951	1.795417	0.852738	0.068781	1.561925	-0.474729	0.014061	-0.108053	-0.060156	-0.947754	-0.203613	-0.562500	0.092570	0.017926	0.008579	0.750538	0.120370	-0.639953	0.112533	13.562169	-81.007761	5.454993
10197		9.051878	1.537667	1.035962	-0.059694	1.247920	-0.657730	0.048659	-0.114820	-0.053419	-0.947266	-0.206543	-0.563965	0.090517	0.015350	0.010415	0.750159	0.120735	-0.640344	0.112445	13.836693	-81.067518	5.202517
10198		8.980316	1.260915	0.913491	0.118460	1.015633	-0.755930	0.046226	-0.241337	-0.052379	-0.952393	-0.210449	-0.561279	0.089795	0.012584	0.009246	0.749375	0.121158	-0.641211	0.112277	14.223161	-81.197526	4.835429
10199		9.140060	1.499868	0.400367	0.519305	1.397120	-0.662339	0.041585	-0.368869	-0.063841	-0.949463	-0.207275	-0.560059	0.091398	0.014969	0.004175	0.748189	0.121673	-0.642550	0.111974	14.782802	-81.396181	4.290722
10200		9.315146	1.886734	-0.046933	0.807637	1.895069	-0.534204	-0.044696	-0.369637	-0.058446	-0.949463	-0.206055	-0.553467	0.093158	0.018840	-0.000301	0.747047	0.121847	-0.643941	0.111413	15.298215	-81.595263	3.740939
10201		9.398745	2.270254	-0.205920	0.817891	2.297131	-0.453892	-0.190818	-0.319938	-0.036777	-0.961670	-0.203369	-0.554932	0.093995	0.022683	-0.001930	0.746140	0.121378	-0.645239	0.110491	15.619312	-81.769620	3.303128
10202		9.832853	2.237510	0.081310	0.602436	2.170812	0.016997	-0.390526	-0.236196	0.027256	-0.958496	-0.204346	-0.552246	0.098324	0.022390	0.000886	0.745586	0.119910	-0.646371	0.109216	15.499457	-81.907472	3.195420
10203		10.743846	1.149390	0.694757	0.487448	0.957408	0.961344	-0.618160	-0.128461	0.109360	-0.958740	-0.197754	-0.552490	0.107428	0.011574	0.006981	0.745465	0.117268	-0.647270	0.107572	14.809572	-81.998193	3.531582
10204		11.227282	-0.198419	0.812690	0.849996	-0.342834	1.408348	-0.613316	-0.101466	0.077414	-0.959473	-0.193604	-0.554932	0.112269	-0.001916	0.008190	0.745439	0.114732	-0.648040	0.105842	14.209641	-82.068769	3.779786
10205		11.128720	-0.115790	0.798017	0.805012	-0.259016	1.313115	-0.335698	-0.208798	-0.032718	-0.953613	-0.188721	-0.554932	0.111279	-0.001163	0.008098	0.744958	0.113643	-0.648995	0.104536	14.316464	-82.183285	3.474864
10206		11.012053	0.842950	1.254561	0.039651	0.504167	1.291093	-0.205346	-0.334186	-0.049381	-0.956543	-0.191650	-0.552734	0.110101	0.008415	0.012721	0.744002	0.113159	-0.650337	0.103522	14.707238	-82.364746	2.959036
10207		11.092386	0.966357	1.648776	-0.391907	0.494566	1.425420	-0.279440	-0.306955	-0.003860	-0.959961	-0.183594	-0.546631	0.110899	0.009685	0.016644	0.743151	0.112236	-0.651640	0.102449	14.854750	-82.537413	2.645700
10208		10.966994	0.727374	1.861012	-0.567873	0.199455	1.318578	-0.270632	-0.262899	0.009309	-0.966553	-0.180420	-0.542236	0.109645	0.007304	0.018744	0.742428	0.111280	-0.652778	0.101480	14.909283	-82.687582	2.431612
10209		10.763528	0.818601	2.111343	-0.887302	0.209046	1.148623	-0.247450	-0.290094	-0.001653	-0.962402	-0.190186	-0.543701	0.107605	0.008211	0.021259	0.741606	0.110458	-0.653998	0.100527	15.064131	-82.851196	2.129418
10210		10.831394	0.763979	2.536016	-1.291972	0.032021	1.262685	-0.349883	-0.209469	-0.005861	-0.962402	-0.181885	-0.541992	0.108288	0.007681	0.025460	0.741103	0.109231	-0.654965	0.099271	15.089833	-82.969451	1.898767
10211		10.581798	0.375556	2.707815	-1.395110	-0.388065	1.020169	-0.420380	-0.200094	-0.043649	-0.972900	-0.184814	-0.541260	0.105792	0.003790	0.027176	0.740685	0.107861	-0.655909	0.097647	15.241095	-83.076774	1.500845
10212		10.082243	0.553611	2.483620	-1.318437	-0.159073	0.500548	-0.351530	-0.314478	-0.124350	-0.965332	-0.182129	-0.536377	0.100787	0.005517	0.024985	0.739890	0.107066	-0.657195	0.095889	15.962752	-83.234457	0.568414
10213		9.673723	0.951565	2.100493	-1.139715	0.318360	0.061426	-0.418129	-0.295295	-0.180393	-0.962646	-0.179932	-0.539307	0.096715	0.009472	0.021128	0.739215	0.106200	-0.658407	0.093714	16.923733	-83.370840	-0.643190
10214		9.514226	0.905505	2.107287	-1.168223	0.263113	-0.099443	-0.605428	-0.175332	-0.161795	-0.967773	-0.173828	-0.541992	0.095131	0.009042	0.021129	0.739020	0.104522	-0.659268	0.091055	17.546923	-83.442787	-1.622458
10215		9.363658	0.162951	2.306068	-1.181402	-0.505435	-0.253848	-0.760817	-0.060384	-0.145688	-0.970947	-0.174316	-0.542236	0.093631	0.001649	0.023083	0.739268	0.102161	-0.659774	0.087999	17.842134	-83.453717	-2.361552
10216		9.361858	-0.723957	2.703774	-1.333949	-1.461834	-0.243857	-0.766171	0.005742	-0.159274	-0.976318	-0.172363	-0.544678	0.093614	-0.007210	0.027063	0.739731	0.099797	-0.660022	0.084910	18.095825	-83.425975	-3.061527
10217		9.357519	-1.740222	2.901954	-1.274201	-2.490843	-0.263606	-0.700422	-0.015393	-0.166038	-0.971680	-0.166992	-0.543457	0.093559	-0.017378	0.029088	0.740085	0.097704	-0.660306	0.081999	18.448774	-83.407924	-3.823891
10218		9.561350	-2.671153	2.508736	-0.661393	-3.298663	-0.141621	-0.554080	-0.148945	-0.213292	-0.974609	-0.163574	-0.539307	0.095566	-0.026744	0.025233	0.739937	0.096364	-0.660995	0.079333	19.322408	-83.452749	-5.025598
10219		10.248380	-2.685377	2.129200	-0.246532	-3.245955	0.491528	-0.325334	-0.309521	-0.269947	-0.974121	-0.166260	-0.541260	0.102414	-0.026957	0.021494	0.739164	0.096117	-0.662154	0.077133	20.895848	-83.569787	-6.800006
10220		10.965910	-2.065001	1.866858	-0.098144	-2.621548	1.192686	-0.218036	-0.314654	-0.285992	-0.975098	-0.166504	-0.542236	0.109600	-0.020786	0.018864	0.738324	0.096324	-0.663279	0.075229	22.679213	-83.680309	-8.722901
10221		11.168080	-1.299520	1.354358	0.209391	-1.791465	1.367462	-0.159340	-0.209198	-0.269299	-0.977539	-0.173096	-0.536865	0.111649	-0.013135	0.013671	0.737798	0.096649	-0.663997	0.073628	24.250374	-83.732717	-10.398708
10222		10.975140	-0.447627	1.177237	0.142526	-0.944324	1.193123	-0.100231	-0.134438	-0.177035	-0.976807	-0.168457	-0.541260	0.109739	-0.004567	0.011848	0.737454	0.096862	-0.664461	0.072603	25.276651	-83.764379	-11.491629
10223		10.887028	-0.161631	1.206273	0.030249	-0.682100	1.120858	-0.211186	-0.027688	-0.033405	-0.982422	-0.172119	-0.532471	0.108868	-0.001622	0.012080	0.737466	0.096146	-0.664640	0.071788	25.323248	-83.774597	-11.663406
10224		10.942731	-0.284021	1.298697	-0.031691	-0.818640	1.180012	-0.266458	-0.059841	0.082164	-0.977295	-0.157715	-0.539795	0.109425	-0.002778	0.013023	0.737354	0.094857	-0.665012	0.071202	24.860002	-83.829846	-11.353736
10225		11.001920	-0.438240	1.233263	0.055619	-0.940407	1.226684	-0.284089	-0.173395	0.153641	-0.977051	-0.167725	-0.535889	0.110012	-0.004280	0.012434	0.736847	0.093300	-0.665841	0.070764	24.279605	-83.960930	-10.937100
10226		10.703222	-0.711444	0.854828	0.425026	-1.095398	0.883816	-0.300181	-0.230179	0.194138	-0.977539	-0.156006	-0.529053	0.107029	-0.006998	0.008682	0.736139	0.091574	-0.666902	0.070398	23.591123	-84.130727	-10.420541
10227		10.338351	-1.026183	0.446198	0.824070	-1.283980	0.473510	-0.302065	-0.220639	0.206168	-0.974365	-0.149170	-0.526123	0.103389	-0.010148	0.004591	0.735457	0.089794	-0.667929	0.070073	22.779204	-84.297374	-9.781554
10228		10.152445	-1.142327	0.213524	1.029993	-1.325015	0.267294	-0.290509	-0.164918	0.186355	-0.979248	-0.143311	-0.527344	0.101533	-0.011325	0.002235	0.734959	0.088106	-0.668737	0.069739	21.917412	-84.429344	-9.085564
10229		10.245160	-1.048291	0.221347	0.991707	-1.220822	0.367552	-0.252991	-0.067722	0.162275	-0.982178	-0.147705	-0.525391	0.102459	-0.010397	0.002261	0.734777	0.086595	-0.669161	0.069482	20.961158	-84.503331	-8.274019
10230		10.139051	-0.879862	0.423468	0.743413	-1.082839	0.288233	-0.216927	0.089020	0.144437	-0.973633	-0.144287	-0.539795	0.101399	-0.008721	0.004199	0.735106	0.085229	-0.668988	0.069351	19.785987	-84.488109	-7.221000
10231		9.833473	-0.784114	0.498890	0.628893	-0.983635	-0.004638	-0.192261	0.197748	0.138256	-0.982178	-0.137451	-0.536133	0.098345	-0.007768	0.004899	0.735792	0.083931	-0.668401	0.069323	18.459278	-84.410449	-6.001974
10232		9.513980	-0.708752	0.686629	0.414503	-0.928419	-0.301863	-0.157434	0.223960	0.132966	-0.983643	-0.133789	-0.545898	0.095152	-0.007019	0.006765	0.736548	0.082775	-0.667704	0.069406	17.174683	-84.315114	-4.804509
10233		9.423852	-0.676452	0.839225	0.266450	-0.910292	-0.374933	-0.131076	0.214283	0.130922	-0.982666	-0.139160	-0.535400	0.094252	-0.006697	0.008296	0.737262	0.081719	-0.667029	0.069562	15.969150	-84.222082	-3.671943
10234		9.374141	-0.682002	0.932784	0.187559	-0.917157	-0.414107	-0.112574	0.217866	0.129652	-0.977051	-0.135010	-0.548828	0.093756	-0.006754	0.009230	0.737977	0.080740	-0.666334	0.069779	14.816813	-84.124720	-2.581190
10235		9.401003	-0.854078	0.924245	0.251464	-1.064930	-0.391160	-0.092610	0.230084	0.141132	-0.977051	-0.131836	-0.539307	0.094027	-0.008470	0.009138	0.738721	0.079790	-0.665590	0.070108	13.634587	-84.019877	-1.449023
10236		9.464755	-0.925753	0.899785	0.316458	-1.110317	-0.330324	-0.026896	0.274378	0.144841	-0.971924	-0.132080	-0.549561	0.094666	-0.009188	0.008869	0.739582	0.079058	-0.664659	0.070689	12.460391	-83.888485	-0.286490
10237		9.386986	-0.871376	0.954962	0.268287	-1.048344	-0.399099	0.028208	0.338636	0.143137	-0.975586	-0.140137	-0.552246	0.093892	-0.008648	0.009389	0.740633	0.078509	-0.663469	0.071470	11.308572	-83.718369	0.885299
10238		9.243057	-0.878126	1.060781	0.181935	-1.056425	-0.529304	0.082020	0.391849	0.149549	-0.978027	-0.123779	-0.560059	0.092458	-0.008716	0.010423	0.741834	0.078121	-0.662062	0.072476	10.170607	-83.516524	2.074911
10239		9.168686	-0.914464	1.218974	0.061772	-1.103592	-0.584195	0.124379	0.411723	0.166664	-0.973389	-0.122314	-0.561523	0.091719	-0.009076	0.011995	0.743076	0.077825	-0.660569	0.073692	9.028384	-83.302428	3.293499
10240		8.980339	-1.090572	1.286897	0.046570	-1.268786	-0.763941	0.182838	0.412956	0.174104	-0.969482	-0.131348	-0.556152	0.089839	-0.010839	0.012674	0.744291	0.077722	-0.659050	0.075129	7.957945	-83.085671	4.474297
10241		8.725057	-1.225395	1.362973	0.006604	-1.398496	-1.007579	0.277443	0.403299	0.155071	-0.966797	-0.119629	-0.572266	0.087287	-0.012205	0.013437	0.745440	0.078034	-0.657519	0.076803	7.100182	-82.870657	5.495676
10242		8.508632	-1.255879	1.416921	-0.032218	-1.425852	-1.213413	0.378818	0.338147	0.136028	-0.960938	-0.118896	-0.561279	0.085119	-0.012528	0.014002	0.746337	0.078814	-0.656181	0.078713	6.472346	-82.689818	6.344571
10243		8.554754	-1.300365	1.468312	-0.040058	-1.467796	-1.159675	0.462341	0.193442	0.123566	-0.964600	-0.132813	-0.562988	0.085570	-0.012985	0.014570	0.746727	0.079998	-0.655340	0.080792	6.044372	-82.589611	7.039873
10244		8.666156	-1.561632	1.309714	0.202796	-1.676420	-1.071704	0.532628	0.057806	0.115587	-0.969971	-0.133057	-0.563965	0.086674	-0.015601	0.013031	0.746643	0.081530	-0.654970	0.083018	5.765620	-82.565724	7.625991
10245		8.710927	-1.585378	0.884734	0.632789	-1.594990	-1.081593	0.659584	-0.040837	0.090209	-0.962891	-0.136230	-0.566650	0.087115	-0.015844	0.008813	0.746186	0.083658	-0.654899	0.085525	5.713399	-82.596446	8.057002
10246		8.702323	-1.432192	0.469074	1.002122	-1.343314	-1.141305	0.773223	-0.031749	0.061091	-0.964844	-0.136963	-0.563232	0.087027	-0.014313	0.004649	0.745715	0.086301	-0.654725	0.088297	5.849762	-82.620301	8.363493
10247		8.586453	-1.209596	0.249735	1.151181	-1.071206	-1.281571	0.828955	-0.012126	0.047473	-0.964844	-0.148193	-0.561035	0.085867	-0.012086	0.002452	0.745279	0.089185	-0.654436	0.091209	6.067355	-82.632260	8.620121
10248		8.514745	-0.998573	0.068117	1.270065	-0.816705	-1.373340	0.816357	0.001307	0.051234	-0.961670	-0.141602	-0.561035	0.085150	-0.009967	0.000640	0.744877	0.092004	-0.654094	0.094097	6.256281	-82.636940	8.898512
10249		8.575400	-0.875340	0.006689	1.311976	-0.673023	-1.319778	0.814562	0.042527	0.056046	-0.970947	-0.147949	-0.565674	0.085756	-0.008729	0.000013	0.744597	0.094777	-0.653591	0.097016	6.401676	-82.618557	9.219661
10250		8.650610	-0.638959	0.042549	1.232267	-0.445359	-1.237940	0.817908	0.059430	0.052628	-0.968262	-0.155762	-0.562012	0.086508	-0.006368	0.000374	0.744359	0.097567	-0.653010	0.099938	6.557763	-82.590436	9.532082
10251		8.835556	-0.390190	0.105896	1.133417	-0.212366	-1.043379	0.803402	0.045587	0.058641	-0.966309	-0.166504	-0.556396	0.088357	-0.003880	0.001023	0.744069	0.100285	-0.652481	0.102828	6.684838	-82.570696	9.865194
10252		9.154415	-0.245330	0.251832	0.998264	-0.101047	-0.706636	0.749448	0.033941	0.066760	-0.964355	-0.174561	-0.558594	0.091545	-0.002432	0.002494	0.743752	0.102783	-0.652016	0.105563	6.753965	-82.558194	10.225783
10253		9.477188	-0.145408	0.457686	0.818081	-0.051393	-0.358809	0.662469	0.042323	0.076795	-0.963135	-0.161377	-0.558594	0.094773	-0.001433	0.004552	0.743491	0.104922	-0.651564	0.108059	6.725661	-82.541658	10.634745
10254		9.640820	0.077646	0.696714	0.551425	0.101537	-0.162690	0.540868	0.099966	0.080148	-0.958252	-0.162842	-0.551758	0.096411	0.000796	0.006921	0.743474	0.106563	-0.650958	0.110197	6.586290	-82.492419	11.085129
10255		9.656440	0.346838	0.748501	0.429057	0.350397	-0.136918	0.398559	0.090066	0.076656	-0.971680	-0.172852	-0.554443	0.096566	0.003491	0.007448	0.743498	0.107688	-0.650463	0.111853	6.386795	-82.448473	11.513686
10256		9.649173	0.371260	0.497886	0.658510	0.456554	-0.176807	0.297991	0.012224	0.064422	-0.972656	-0.172607	-0.557373	0.096491	0.003736	0.004979	0.743328	0.108525	-0.650304	0.113094	6.223864	-82.447856	11.847531
10257		9.961627	0.245380	0.135796	1.074220	0.461910	0.084047	0.227251	-0.046503	0.054850	-0.964600	-0.172363	-0.554932	0.099615	0.002480	0.001384	0.743008	0.109164	-0.650398	0.114040	6.086818	-82.480133	12.114451
10258		10.098515	0.088873	-0.116331	1.371595	0.399198	0.185352	0.134956	-0.036895	0.037402	-0.959229	-0.179932	-0.548340	0.100985	0.000908	-0.001144	0.742780	0.109511	-0.650497	0.114623	5.967762	-82.505664	12.309787
10259		10.298842	-0.196629	0.083514	1.300741	0.076025	0.405632	-0.014973	0.117168	0.010732	-0.966064	-0.174316	-0.549072	0.102989	-0.001961	0.000775	0.743149	0.109300	-0.650096	0.114707	5.808355	-82.441857	12.459388
10260		10.707288	-0.156071	0.794959	0.694084	-0.086646	0.902393	-0.119440	0.357802	-0.019260	-0.958496	-0.167725	-0.553223	0.107087	-0.001566	0.007759	0.744374	0.108660	-0.648843	0.114468	5.619191	-82.238995	12.578462
10261		11.205584	0.477598	1.769195	-0.312263	0.240488	1.534899	-0.101854	0.441003	-0.048868	-0.961426	-0.168701	-0.566650	0.112096	0.004758	0.017442	0.745872	0.108132	-0.647252	0.114223	5.533906	-81.987180	12.602940
10262		11.228923	1.188254	2.246042	-0.935880	0.781622	1.635388	-0.061306	0.328733	-0.029069	-0.956055	-0.166016	-0.570313	0.112328	0.011873	0.022272	0.746972	0.107756	-0.646064	0.114120	5.440722	-81.800299	12.658839
10263		10.880166	0.900477	1.610087	-0.274229	0.703515	1.196904	-0.080824	0.103296	0.027439	-0.953369	-0.167969	-0.562500	0.108809	0.009026	0.016041	0.747320	0.107250	-0.645758	0.114044	5.198926	-81.745034	12.853338
10264		10.803512	0.118463	1.092303	0.450464	0.127417	1.036454	-0.165001	0.071431	0.069982	-0.958740	-0.158447	-0.571289	0.108039	0.001231	0.010883	0.747586	0.106313	-0.645642	0.113837	4.758008	-81.709882	13.200613
10265		10.682617	-0.593357	1.569281	0.212098	-0.684172	0.977119	-0.248925	0.186253	0.078792	-0.946777	-0.171631	-0.576172	0.106843	-0.005872	0.015601	0.748261	0.104965	-0.645148	0.113453	4.202584	-81.609201	13.614781
10266		10.363740	-1.067219	1.916779	-0.000913	-1.233489	0.708651	-0.191177	0.220310	0.070037	-0.949951	-0.166504	-0.567627	0.103662	-0.010618	0.019064	0.749018	0.103845	-0.644488	0.113241	3.718436	-81.488070	13.990757
10267		10.272707	-1.106147	2.052208	-0.112564	-1.299029	0.640228	-0.037619	0.209355	0.049547	-0.953613	-0.155518	-0.570313	0.102751	-0.011032	0.020417	0.749671	0.103373	-0.643769	0.113442	3.412457	-81.372110	14.275799
10268		10.639908	-0.970184	2.362623	-0.372852	-1.236597	1.052976	0.047639	0.222307	0.046460	-0.949951	-0.165771	-0.573975	0.106428	-0.009683	0.023506	0.750322	0.103222	-0.642951	0.113911	3.172566	-81.248426	14.543337
10269		11.214564	-0.802004	2.856647	-0.780323	-1.188369	1.700300	0.038966	0.263939	0.074988	-0.941895	-0.157471	-0.573242	0.112186	-0.007984	0.028417	0.751093	0.102921	-0.641997	0.114482	2.820995	-81.101682	14.918887
10270		11.586743	-0.815585	2.879888	-0.719850	-1.173535	2.074958	0.048368	0.205794	0.134424	-0.949219	-0.156250	-0.577881	0.115902	-0.008085	0.028678	0.751638	0.102500	-0.641284	0.115275	2.282771	-80.989181	15.489055
10271		11.522027	-0.785927	2.475867	-0.347933	-1.003068	1.950708	0.141132	0.075399	0.202912	-0.947021	-0.162354	-0.575684	0.115238	-0.007760	0.024710	0.751677	0.102280	-0.641043	0.116556	1.577181	-80.951783	16.282446
10272		10.742802	-0.863796	2.181902	-0.160058	-0.997338	1.136937	0.177174	0.129763	0.237921	-0.951172	-0.164307	-0.582764	0.107452	-0.008529	0.021742	0.751849	0.102055	-0.640592	0.118111	0.772671	-80.881950	17.197221
10273		9.892040	-0.790096	2.465654	-0.565615	-1.027954	0.345042	0.218064	0.217616	0.222346	-0.945313	-0.154541	-0.581055	0.098956	-0.007818	0.024540	0.752288	0.101980	-0.639776	0.119786	0.058667	-80.759863	18.044544
10274		9.374509	-0.652715	2.990773	-1.164091	-1.063380	-0.077892	0.307179	0.178763	0.210243	-0.946533	-0.154297	-0.585938	0.093779	-0.006474	0.029814	0.752563	0.102303	-0.639045	0.121678	-0.542327	-80.658473	18.829113
10275		9.114787	-0.384090	3.025524	-1.308186	-0.819050	-0.325936	0.410464	0.125851	0.189428	-0.949951	-0.169434	-0.583252	0.091171	-0.003817	0.030190	0.752624	0.103109	-0.638436	0.123794	-1.003417	-80.586377	19.531917
10276		9.017870	0.134349	2.817586	-1.285289	-0.259688	-0.455369	0.463698	0.087270	0.174942	-0.943115	-0.165283	-0.574219	0.090190	0.001357	0.028140	0.752539	0.104188	-0.637928	0.126004	-1.377076	-80.535736	20.177276
10277		9.135874	0.682345	2.651505	-1.283099	0.325282	-0.367683	0.427998	0.118607	0.170286	-0.946289	-0.157959	-0.575439	0.091369	0.006845	0.026475	0.752570	0.105131	-0.637318	0.128104	-1.747037	-80.466605	20.798877
10278		9.274563	1.025891	2.676084	-1.388274	0.660012	-0.227884	0.319482	0.191893	0.160655	-0.952393	-0.159912	-0.581055	0.092763	0.010291	0.026688	0.752896	0.105645	-0.636494	0.129854	-2.128776	-80.354953	21.368912
10279		9.280744	1.150009	2.603204	-1.348220	0.813883	-0.233999	0.216800	0.205977	0.136855	-0.945801	-0.160400	-0.579834	0.092826	0.011535	0.025949	0.753332	0.105838	-0.635670	0.131197	-2.478563	-80.235286	21.847174
10280		9.414856	1.257161	2.498483	-1.254675	0.969859	-0.120034	0.144813	0.141201	0.109014	-0.940186	-0.161133	-0.578857	0.094159	0.012605	0.024927	0.753618	0.105891	-0.635120	0.132170	-2.776599	-80.152871	22.231072
10281		9.691012	1.141447	2.314279	-0.994209	0.949813	0.121290	0.064041	0.101118	0.084053	-0.942139	-0.167725	-0.582520	0.096917	0.011448	0.023097	0.753835	0.105746	-0.634761	0.132774	-3.041787	-80.093857	22.534992
10282		9.664050	0.956075	2.136690	-0.765225	0.840697	0.065624	0.011651	0.095740	0.042149	-0.946533	-0.162598	-0.582520	0.096649	0.009580	0.021321	0.754091	0.105540	-0.634434	0.133047	-3.196770	-80.038977	22.696352
10283		9.646085	0.902852	2.026301	-0.639954	0.830201	0.029528	0.002572	0.091780	-0.028069	-0.951416	-0.159912	-0.575928	0.096471	0.009015	0.020219	0.754384	0.105527	-0.634091	0.133029	-3.129088	-79.988604	22.626877
10284		9.865365	0.852992	2.314362	-0.845988	0.701463	0.296791	-0.016240	0.078317	-0.103096	-0.938721	-0.171387	-0.583740	0.098667	0.008481	0.023104	0.754696	0.105688	-0.633772	0.132657	-2.832347	-79.948088	22.313320
10285		9.973881	0.711018	2.298165	-0.757458	0.569832	0.403326	-0.006649	0.012192	-0.181116	-0.941650	-0.170410	-0.582520	0.099747	0.007021	0.022975	0.754842	0.106178	-0.633654	0.131991	-2.290713	-79.947134	21.757198
10286		9.942766	0.786311	2.136837	-0.632753	0.671786	0.345620	0.026972	-0.047357	-0.250158	-0.942139	-0.167725	-0.577393	0.099432	0.007736	0.021393	0.754829	0.107051	-0.633701	0.131134	-1.511376	-79.980359	20.978684
10287		9.878373	0.901904	1.910793	-0.468470	0.823882	0.244573	0.036533	-0.064358	-0.298766	-0.946533	-0.171143	-0.583008	0.098791	0.008868	0.019141	0.754786	0.108128	-0.633779	0.130119	-0.564511	-80.021834	20.036261
10288		9.753759	1.013934	1.615194	-0.247212	0.989184	0.073315	0.032600	-0.050954	-0.318806	-0.941895	-0.166260	-0.576172	0.097549	0.009981	0.016178	0.754799	0.109241	-0.633797	0.129019	0.453431	-80.052771	19.018940
10289		9.614450	1.003320	1.387448	-0.048776	1.016107	-0.100099	0.048484	-0.032480	-0.321545	-0.945801	-0.176025	-0.583008	0.096158	0.009875	0.013893	0.754862	0.110411	-0.633732	0.127971	1.492737	-80.069971	17.989425
10290		9.410311	1.062074	1.434576	-0.136516	1.017211	-0.289739	0.069517	0.023454	-0.302256	-0.940186	-0.184082	-0.587646	0.094121	0.010474	0.014338	0.755077	0.111563	-0.633451	0.127090	2.477421	-80.052342	17.027418
10291		9.275990	0.850037	1.435449	-0.077578	0.786415	-0.421066	0.060414	0.041497	-0.263097	-0.936035	-0.187012	-0.577148	0.092774	0.008374	0.014338	0.755328	0.112546	-0.633128	0.126341	3.321709	-80.022798	16.202883
10292		9.131082	0.569839	1.497331	-0.055043	0.475452	-0.554488	0.087610	0.044905	-0.211630	-0.939453	-0.179443	-0.585693	0.091320	0.005595	0.014955	0.755541	0.113466	-0.632803	0.125871	4.009631	-79.991361	15.552575
10293		8.956974	0.234974	1.470567	0.061394	0.145370	-0.734128	0.103673	0.039125	-0.164730	-0.937012	-0.182617	-0.583984	0.089575	0.002268	0.014689	0.755696	0.114302	-0.632516	0.125629	4.551911	-79.963979	15.059680
10294		8.756516	0.116838	1.443774	0.100213	0.022263	-0.937770	0.138622	0.055481	-0.128722	-0.943848	-0.180420	-0.584717	0.087570	0.001102	0.014414	0.755859	0.115145	-0.632165	0.125640	4.991709	-79.928283	14.690928
10295		8.582489	0.112964	1.477226	0.049503	-0.009090	-1.103409	0.174118	0.066473	-0.101530	-0.944824	-0.189209	-0.584473	0.085830	0.001073	0.014745	0.756020	0.116027	-0.631766	0.125872	5.357400	-79.887222	14.417961
10296		8.528217	0.243649	1.479402	0.002215	0.103696	-1.154298	0.207214	0.064087	-0.077363	-0.937012	-0.190918	-0.587891	0.085288	0.002388	0.014769	0.756137	0.116962	-0.631368	0.126299	5.664475	-79.848617	14.223867
10297		8.545319	0.520537	1.540028	-0.137819	0.338293	-1.121791	0.244139	0.061609	-0.060114	-0.943115	-0.196045	-0.586182	0.085459	0.005161	0.015380	0.756213	0.117983	-0.630965	0.126907	5.936027	-79.812192	14.087454
10298		8.611169	0.921984	1.551795	-0.267451	0.708397	-1.047017	0.263944	0.081955	-0.060048	-0.937500	-0.190430	-0.575439	0.086121	0.009174	0.015495	0.756340	0.119065	-0.630472	0.127588	6.211191	-79.764123	13.958763
10299		8.742698	1.241837	1.629249	-0.417714	0.981766	-0.896801	0.262740	0.112194	-0.068747	-0.938477	-0.201660	-0.579590	0.087440	0.012367	0.016260	0.756567	0.120152	-0.629858	0.128253	6.499600	-79.698179	13.816080
10300		9.026388	1.488544	1.759351	-0.563580	1.174592	-0.588293	0.247845	0.126813	-0.064817	-0.932861	-0.203857	-0.575684	0.090280	0.014834	0.017555	0.756845	0.121159	-0.629201	0.128891	6.759999	-79.624045	13.692969
10301		9.263358	1.706478	1.891017	-0.706273	1.337454	-0.325317	0.268288	0.174204	-0.077469	-0.939209	-0.198486	-0.592041	0.092657	0.017004	0.018852	0.757265	0.122256	-0.628341	0.129578	7.050261	-79.521993	13.551872
10302		9.296212	1.857142	1.964789	-0.805104	1.448757	-0.274249	0.224609	0.190317	-0.076061	-0.932617	-0.204834	-0.580322	0.092988	0.018514	0.019580	0.757761	0.123169	-0.627448	0.130139	7.301187	-79.410747	13.424779
10303		9.382039	1.851550	1.929157	-0.739971	1.455027	-0.194587	0.210154	0.154177	-0.064123	-0.928711	-0.208984	-0.586426	0.093841	0.018465	0.019239	0.758144	0.124014	-0.626707	0.130679	7.517746	-79.320766	13.324300
10304		9.336266	2.025032	1.814054	-0.692171	1.651377	-0.254902	0.216152	0.128648	-0.051907	-0.929932	-0.210205	-0.589355	0.093380	0.020207	0.018102	0.758433	0.124859	-0.626066	0.131267	7.709404	-79.246202	13.252518
10305		9.312257	2.007586	1.714426	-0.589593	1.666064	-0.296155	0.165911	0.112730	-0.036185	-0.929443	-0.210205	-0.590576	0.093136	0.020045	0.017108	0.758692	0.125476	-0.625527	0.131749	7.830311	-79.181756	13.223741
10306		9.255925	1.924102	1.445139	-0.316503	1.679286	-0.402982	0.148806	0.074735	-0.028955	-0.933105	-0.211670	-0.588135	0.092567	0.019217	0.014431	0.758838	0.126030	-0.625148	0.132179	7.934827	-79.139531	13.201368
10307		9.353615	1.844289	1.274766	-0.111282	1.666903	-0.340328	0.144972	0.018307	-0.030396	-0.925293	-0.207031	-0.587646	0.093540	0.018419	0.012752	0.758811	0.126612	-0.624983	0.132557	8.064308	-79.129122	13.151561
10308		9.605013	1.595947	1.049640	0.229067	1.522584	-0.141372	0.096854	-0.023007	-0.034059	-0.930420	-0.213379	-0.581055	0.096052	0.015938	0.010515	0.758687	0.127048	-0.625005	0.132743	8.194405	-79.141905	13.072829
10309		9.794769	1.357750	0.969433	0.423269	1.334000	0.024084	0.080367	0.031220	-0.036755	-0.933105	-0.210693	-0.580566	0.097952	0.013556	0.009684	0.758745	0.127396	-0.624831	0.132903	8.299908	-79.123655	13.009695
10310		9.599791	1.300767	0.837312	0.534515	1.319443	-0.193830	0.058523	0.096858	-0.029460	-0.933594	-0.211914	-0.593506	0.096004	0.012991	0.008330	0.759016	0.127593	-0.624426	0.133063	8.342847	-79.068815	12.997347
10311		9.305267	1.504422	0.852149	0.399378	1.492960	-0.475182	0.003764	0.054189	-0.006874	-0.926025	-0.213623	-0.597168	0.093055	0.015041	0.008497	0.759174	0.127541	-0.624235	0.133111	8.306462	-79.040025	13.033952
10312		9.052713	1.746914	0.659221	0.441409	1.779219	-0.753028	-0.112908	-0.056016	0.007430	-0.931641	-0.210449	-0.590332	0.090525	0.017476	0.006608	0.759053	0.127075	-0.624548	0.132779	8.208328	-79.074906	13.065245
10313		8.870496	1.969817	0.183418	0.756189	2.149288	-1.014491	-0.200373	-0.144985	-0.006544	-0.932129	-0.208984	-0.585693	0.088704	0.019697	0.001879	0.758719	0.126379	-0.625247	0.132063	8.138767	-79.158994	13.016432
10314		8.835364	2.361999	-0.119275	0.876590	2.618013	-1.092911	-0.229866	-0.196654	-0.018494	-0.926270	-0.205322	-0.583008	0.088357	0.023610	-0.001133	0.758247	0.125642	-0.626153	0.131178	8.109711	-79.271533	12.909172
10315		8.866625	2.764889	-0.068988	0.682980	2.973302	-1.040036	-0.286990	-0.196646	-0.014300	-0.930176	-0.211426	-0.583252	0.088669	0.027642	-0.000642	0.757807	0.124675	-0.627098	0.130128	8.036239	-79.384431	12.813885
10316		9.057984	2.767803	0.224132	0.439492	2.877748	-0.796954	-0.305714	-0.171308	-0.011863	-0.936279	-0.196045	-0.590576	0.090580	0.027676	0.002277	0.757454	0.123613	-0.627958	0.129045	7.933503	-79.483165	12.737446
10317		9.400603	2.543761	0.627427	0.200019	2.538227	-0.391801	-0.239080	-0.172777	-0.025348	-0.929932	-0.208008	-0.585449	0.094004	0.025433	0.006325	0.757062	0.122846	-0.628771	0.128118	7.911687	-79.581662	12.617488
10318		9.391325	2.477304	0.852682	0.000531	2.390830	-0.360439	-0.129296	-0.245949	-0.055060	-0.930176	-0.202148	-0.584961	0.093910	0.024753	0.008626	0.756389	0.122635	-0.629771	0.127379	8.078516	-79.719301	12.369831
10319		9.082594	2.413842	0.792033	0.005039	2.330307	-0.673920	-0.120729	-0.295396	-0.049391	-0.929932	-0.205322	-0.580078	0.090820	0.024121	0.008040	0.755551	0.122470	-0.630953	0.126657	8.261920	-79.885246	12.110488
10320		8.779797	2.086552	0.726658	0.104384	2.025714	-0.989303	-0.182070	-0.313989	-0.016093	-0.943115	-0.200439	-0.583496	0.087788	0.020865	0.007385	0.754667	0.121979	-0.632264	0.125856	8.317385	-80.064450	11.945467
10321		8.680563	1.961095	0.764960	0.073940	1.886250	-1.082292	-0.242269	-0.280256	0.018901	-0.943604	-0.194580	-0.577881	0.086793	0.019628	0.007747	0.753903	0.121130	-0.633505	0.125016	8.211793	-80.227381	11.908954
10322		8.751975	1.754956	0.828034	0.079643	1.674082	-1.006231	-0.312014	-0.219212	0.060399	-0.942871	-0.192871	-0.572021	0.087505	0.017589	0.008349	0.753346	0.119846	-0.634582	0.124149	7.895765	-80.359075	12.045447
10323		9.132642	1.548475	1.257174	-0.195368	1.357494	-0.565935	-0.383029	-0.036376	0.104921	-0.940430	-0.193115	-0.573975	0.091316	0.015557	0.012559	0.753380	0.118039	-0.635039	0.123331	7.301943	-80.390157	12.422139
10324		10.045509	0.625513	2.736921	-1.097846	0.059666	0.559639	-0.671087	0.372822	0.203307	-0.937988	-0.182861	-0.581543	0.100499	0.006449	0.027160	0.754816	0.114582	-0.634183	0.122212	6.055781	-80.193870	13.293555
10325		10.661628	-1.624631	3.599342	-1.033419	-2.263763	1.281095	-0.936959	0.469817	0.212553	-0.937744	-0.181641	-0.588867	0.106718	-0.015965	0.035818	0.756689	0.110031	-0.633115	0.120335	4.644887	-79.939376	14.177952
10326		10.713918	-2.574564	3.491313	-0.626760	-3.088767	1.308117	-0.551244	-0.127389	-0.015433	-0.941895	-0.174805	-0.587891	0.107115	-0.025657	0.035052	0.756582	0.108017	-0.633938	0.118488	4.371960	-80.013531	14.131615
10327		10.791440	-0.306649	3.402631	-1.292640	-0.918817	1.394971	-0.065239	-0.561689	-0.167987	-0.942383	-0.176025	-0.581299	0.107816	-0.003146	0.034330	0.754920	0.108583	-0.636027	0.117367	5.001071	-80.328478	13.452348
10328		10.359362	1.043350	2.729331	-1.200305	0.533731	0.870409	-0.368933	-0.297094	-0.135428	-0.943848	-0.174805	-0.577881	0.103560	0.010414	0.027428	0.754240	0.107742	-0.637308	0.115548	5.296577	-80.493212	12.935520
10329		8.996784	1.251397	1.981967	-0.807993	0.904771	-0.595052	-0.544093	-0.305200	-0.107682	-0.943115	-0.176514	-0.577393	0.089944	0.012520	0.019923	0.753607	0.106156	-0.638732	0.113268	5.412783	-80.663705	12.498828
10330		8.742355	2.056549	1.795588	-0.945657	1.711528	-0.865139	-0.579375	-0.494241	-0.140405	-0.952881	-0.169189	-0.571289	0.087393	0.020556	0.018112	0.752397	0.104647	-0.640862	0.110653	5.702104	-80.939972	11.866705
10331		9.487230	2.353314	2.061094	-1.197423	1.934786	-0.085588	-0.763133	-0.421370	-0.083563	-0.952148	-0.160889	-0.574463	0.094839	0.023572	0.020721	0.751472	0.102223	-0.642838	0.107697	5.677539	-81.177651	11.446129
10332		10.280181	1.407816	2.126657	-0.889167	1.039831	0.690398	-0.968109	-0.367887	-0.078347	-0.954834	-0.155518	-0.571533	0.102768	0.014141	0.021387	0.750804	0.098981	-0.644712	0.104128	5.503326	-81.385270	11.058459
10333		11.350411	0.254543	2.107907	-0.420392	-0.031105	1.726900	-0.960608	-0.370124	-0.165499	-0.956543	-0.159912	-0.576416	0.113467	0.002553	0.021277	0.750151	0.096043	-0.646529	0.100248	5.675894	-81.589185	10.324109
10334		12.102449	-0.782516	2.429066	-0.366836	-1.107459	2.500754	-0.951613	-0.187597	-0.247929	-0.950195	-0.149170	-0.566650	0.120992	-0.007859	0.024442	0.750104	0.093314	-0.647600	0.096177	6.120431	-81.683751	9.320952
10335		12.516533	-2.228746	2.770474	-0.273159	-2.595857	2.934599	-0.916765	0.003361	-0.280930	-0.951660	-0.147705	-0.567627	0.125134	-0.022336	0.027805	0.750659	0.090727	-0.647907	0.092179	6.641226	-81.665981	8.260630
10336		12.263392	-3.259192	2.972906	-0.259843	-3.666922	2.690806	-0.745706	-0.015365	-0.327238	-0.955811	-0.151855	-0.578857	0.122578	-0.032681	0.029860	0.751080	0.088941	-0.648172	0.088554	7.444384	-81.654102	7.014318
10337		12.010748	-3.149351	2.770982	-0.158897	-3.541450	2.405640	-0.507566	-0.191132	-0.305527	-0.949463	-0.139648	-0.571045	0.120033	-0.031606	0.027905	0.750808	0.088053	-0.648991	0.085701	8.399348	-81.740637	5.752264
10338		12.133702	-2.686797	2.373774	0.088050	-3.021909	2.473097	-0.478342	-0.280308	-0.217145	-0.951660	-0.137207	-0.572266	0.121274	-0.026943	0.023972	0.750187	0.087028	-0.650168	0.083236	9.103079	-81.883010	4.761648
10339		12.173805	-2.202640	2.041689	0.260799	-2.489215	2.473783	-0.457784	-0.165253	-0.111229	-0.951660	-0.137207	-0.577881	0.121709	-0.022047	0.020568	0.749883	0.085679	-0.650943	0.081282	9.341442	-81.968557	4.252249
10340		12.166123	-1.486302	2.089310	0.021590	-1.806340	2.488755	-0.433903	-0.096566	-0.004249	-0.961426	-0.142090	-0.577148	0.121651	-0.014820	0.020984	0.749743	0.084050	-0.651496	0.079839	9.125593	-82.025393	4.216424
10341		12.077108	-1.095872	1.971899	0.010412	-1.388520	2.394593	-0.508906	-0.115501	0.096138	-0.967773	-0.132080	-0.573730	0.120765	-0.010850	0.019816	0.749532	0.081815	-0.652184	0.078516	8.466202	-82.101262	4.584265
10342		11.908190	-1.024444	1.680160	0.227082	-1.235951	2.191403	-0.515598	-0.133485	0.131618	-0.958008	-0.133545	-0.572021	0.119077	-0.010123	0.016907	0.749241	0.079451	-0.652955	0.077300	7.658571	-82.190050	5.098588
10343		11.630264	-0.804472	1.511824	0.278576	-0.968782	1.899683	-0.479267	-0.131862	0.116206	-0.959717	-0.128906	-0.573730	0.116297	-0.007941	0.015214	0.748944	0.077268	-0.653693	0.076142	6.918917	-82.275577	5.564591
10344		11.046971	-0.686062	1.240486	0.417001	-0.786197	1.289250	-0.470851	-0.092210	0.099758	-0.957520	-0.121582	-0.571533	0.110467	-0.006776	0.012472	0.748773	0.075159	-0.654271	0.074967	6.223431	-82.336923	5.991424
10345		10.465019	-0.593869	1.072256	0.469645	-0.654180	0.693049	-0.465423	-0.038963	0.092955	-0.957031	-0.121582	-0.576904	0.104651	-0.005865	0.010757	0.748774	0.073068	-0.654638	0.073802	5.527277	-82.366422	6.421459
10346		10.095343	-0.565490	0.990484	0.486887	-0.600511	0.317421	-0.467958	0.014477	0.095829	-0.970947	-0.114502	-0.585449	0.100957	-0.005583	0.009911	0.748944	0.070942	-0.654806	0.072661	4.794679	-82.365261	6.887349
10347		9.664879	-0.581544	1.076120	0.348890	-0.624017	-0.096980	-0.484099	0.083905	0.109258	-0.961670	-0.106201	-0.589111	0.096656	-0.005737	0.010735	0.749340	0.068681	-0.654717	0.071539	3.973209	-82.323638	7.432965
10348		9.258851	-0.645472	1.080902	0.306348	-0.676622	-0.498204	-0.446689	0.122496	0.120242	-0.962158	-0.107422	-0.587891	0.092599	-0.006375	0.010767	0.749838	0.066515	-0.654473	0.070596	3.126254	-82.259831	8.026633
10349		8.955177	-0.701044	1.231229	0.135411	-0.747798	-0.778031	-0.397661	0.122727	0.113431	-0.968994	-0.102051	-0.572998	0.089563	-0.006935	0.012271	0.750321	0.064549	-0.654203	0.069784	2.346034	-82.194075	8.580618
10350		8.797844	-0.771823	1.334871	0.031417	-0.822954	-0.918791	-0.369753	0.114879	0.108716	-0.961670	-0.103271	-0.587646	0.087990	-0.007646	0.013312	0.750766	0.062711	-0.653950	0.069046	1.614889	-82.132245	9.102062
10351		8.596241	-0.856833	1.301632	0.057408	-0.889057	-1.121886	-0.324322	0.132545	0.093032	-0.961426	-0.101563	-0.590332	0.085975	-0.008507	0.012973	0.751256	0.061087	-0.653608	0.068402	0.982348	-82.059208	9.550001
10352		8.349480	-1.131001	1.296379	0.086396	-1.149226	-1.366068	-0.291963	0.172010	0.082556	-0.958008	-0.098877	-0.587158	0.083511	-0.011257	0.012908	0.751867	0.059607	-0.653102	0.067837	0.419636	-81.962891	9.946561
10353		8.255323	-1.463711	1.362442	0.078457	-1.478028	-1.448579	-0.260270	0.191414	0.059958	-0.960449	-0.094727	-0.600342	0.082571	-0.014595	0.013564	0.752538	0.058312	-0.652502	0.067295	-0.023016	-81.854758	10.240087
10354		8.118336	-1.681510	1.356039	0.114871	-1.684513	-1.583294	-0.204914	0.195338	0.036472	-0.959473	-0.089355	-0.590332	0.081200	-0.016786	0.013498	0.753210	0.057301	-0.651861	0.066848	-0.331790	-81.744324	10.430685
10355		8.066091	-1.800135	1.435618	0.063225	-1.808236	-1.621865	-0.162299	0.220308	0.021319	-0.964111	-0.089844	-0.597656	0.080679	-0.017981	0.014282	0.753956	0.056490	-0.651105	0.066488	-0.550351	-81.619377	10.554471
10356		8.036926	-1.783653	1.439565	0.066698	-1.786167	-1.648677	-0.079778	0.214602	0.026924	-0.954590	-0.089355	-0.598877	0.080387	-0.017820	0.014317	0.754657	0.055975	-0.650345	0.066418	-0.738201	-81.497749	10.695421
10357		7.875462	-1.492427	1.336322	0.108145	-1.480423	-1.823154	0.063433	0.179903	0.020748	-0.957275	-0.093750	-0.610107	0.078768	-0.014920	0.013288	0.755206	0.056030	-0.649665	0.066779	-0.819155	-81.395892	10.810971
10358		7.560786	-1.180154	1.192189	0.159362	-1.153437	-2.156073	0.128927	0.094069	0.025403	-0.961914	-0.083984	-0.601563	0.075615	-0.011800	0.011879	0.755455	0.056349	-0.649289	0.067347	-0.882454	-81.343256	10.946962
10359		7.454934	-1.478187	0.705055	0.675484	-1.362292	-2.332978	0.170607	0.014162	0.053401	-0.959961	-0.093994	-0.611328	0.074554	-0.014768	0.007033	0.755424	0.056758	-0.649208	0.068133	-1.031858	-81.335962	11.193864
10360		7.665282	-1.822424	0.369281	1.095421	-1.631274	-2.173765	0.260337	-0.048292	0.080192	-0.947998	-0.084717	-0.599609	0.076659	-0.018198	0.003688	0.755154	0.057442	-0.649339	0.069295	-1.234762	-81.364157	11.547231
10361		7.989015	-2.044090	0.155317	1.391893	-1.794515	-1.883682	0.308377	-0.033883	0.092985	-0.947998	-0.089600	-0.604736	0.079899	-0.020406	0.001535	0.754912	0.058259	-0.649401	0.070663	-1.459775	-81.383612	11.950425
10362		7.988772	-2.068839	-0.127361	1.676232	-1.759044	-1.925179	0.416076	0.014352	0.081518	-0.956055	-0.087646	-0.600586	0.079896	-0.020653	-0.001322	0.754795	0.059505	-0.649237	0.072354	-1.574644	-81.375550	12.304975
10363		7.920565	-1.942819	-0.202677	1.724163	-1.614797	-2.004316	0.512012	0.002186	0.053174	-0.957764	-0.091797	-0.599121	0.079211	-0.019402	-0.002077	0.754617	0.061206	-0.649073	0.074243	-1.529778	-81.374778	12.553147
10364		7.853751	-1.809849	-0.471712	1.957491	-1.428115	-2.111507	0.550993	-0.025961	0.029808	-0.946777	-0.097168	-0.595703	0.078541	-0.018074	-0.004757	0.754338	0.063143	-0.648988	0.076163	-1.375954	-81.390617	12.714117
10365		7.813378	-1.757874	-0.731859	2.200324	-1.320829	-2.191099	0.598821	-0.023327	0.003178	-0.960938	-0.112305	-0.606689	0.078135	-0.017556	-0.007362	0.754058	0.065343	-0.648862	0.078137	-1.094958	-81.405322	12.773847
10366		8.014247	-1.590089	-0.715183	2.187172	-1.147099	-1.991661	0.626280	-0.004017	-0.024751	-0.957031	-0.108887	-0.601074	0.080141	-0.015888	-0.007200	0.753834	0.067731	-0.648637	0.080101	-0.689283	-81.409312	12.723724
