// General information: 
//  MT Manager version: 2019.2.0 
//  XDA version: 2019.2.0 build 3853 rev 94535 built on 2019-09-09
// Device information: 
//  DeviceId: 00B47786
//  ProductCode: MTW2-3A7G6
//  Firmware Version: 4.6.0
//  Hardware Version: 2.0.0
// Device settings: 
//  Filter Profile: human(46.1)
//  Option Flags: Orientation Smoother Disabled, AHS Disabled, ICC Disabled
// Coordinate system: ENU
PacketCounter	SampleTimeFine	Acc_X	Acc_Y	Acc_Z	FreeAcc_E	FreeAcc_N	FreeAcc_U	Gyr_X	Gyr_Y	Gyr_Z	Mag_X	Mag_Y	Mag_Z	VelInc_X	VelInc_Y	VelInc_Z	Quat_q0	Quat_q1	Quat_q2	Quat_q3	Roll	Pitch	Yaw
08768		9.744371	-1.109769	0.288286	-0.011107	0.075875	-0.001389	-0.009137	0.005681	-0.021556	-0.952637	0.338867	0.289551	0.097443	-0.011108	0.002881	0.246406	-0.677072	-0.169178	-0.672485	-76.283335	-83.728189	-69.485213
08769		9.724667	-1.093732	0.286106	-0.004750	0.064776	-0.022742	-0.008479	0.002621	-0.023609	-0.949463	0.331787	0.299072	0.097245	-0.010949	0.002860	0.246327	-0.677097	-0.169199	-0.672484	-76.309566	-83.736141	-69.464056
08770		9.764694	-1.077098	0.286912	0.006684	0.048850	0.015297	-0.005513	0.004306	-0.024000	-0.954346	0.334961	0.290039	0.097646	-0.010783	0.002867	0.246254	-0.677114	-0.169222	-0.672488	-76.325592	-83.743834	-69.452319
08771		9.734204	-1.073144	0.302793	0.020723	0.059120	-0.015028	-0.003578	0.001855	-0.025435	-0.960205	0.331543	0.290283	0.097341	-0.010744	0.003027	0.246185	-0.677134	-0.169266	-0.672482	-76.350765	-83.752905	-69.429403
08772		9.703729	-1.069108	0.318461	0.034750	0.069353	-0.045356	-0.004094	-0.000213	-0.025960	-0.949219	0.330322	0.284912	0.097036	-0.010704	0.003185	0.246108	-0.677161	-0.169308	-0.672472	-76.385291	-83.762343	-69.398105
08773		9.705782	-1.070190	0.284104	0.005827	0.052537	-0.044093	-0.009861	0.000419	-0.026381	-0.949951	0.335449	0.292480	0.097056	-0.010715	0.002841	0.246013	-0.677192	-0.169336	-0.672468	-76.420379	-83.772131	-69.368836
08774		9.715252	-1.093709	0.304425	0.009977	0.084245	-0.031696	-0.008439	-0.004099	-0.028341	-0.951416	0.341064	0.288086	0.097151	-0.010951	0.003047	0.245911	-0.677236	-0.169377	-0.672451	-76.474726	-83.783367	-69.319842
08775		9.717173	-1.052546	0.265263	0.000953	0.030412	-0.035124	-0.007163	-0.003490	-0.027725	-0.959229	0.341064	0.283691	0.097170	-0.010539	0.002655	0.245818	-0.677276	-0.169423	-0.672433	-76.526885	-83.794421	-69.271848
08776		9.697695	-1.078085	0.266579	-0.012611	0.056262	-0.051781	-0.016410	-0.006614	-0.028282	-0.947998	0.338379	0.284180	0.096975	-0.010794	0.002670	0.245696	-0.677336	-0.169447	-0.672412	-76.598557	-83.805794	-69.208647
08777		9.737774	-1.060912	0.266303	-0.001166	0.040362	-0.013755	-0.019727	-0.006366	-0.029617	-0.957764	0.331055	0.290771	0.097376	-0.010623	0.002667	0.245551	-0.677399	-0.169462	-0.672397	-76.670809	-83.818271	-69.147684
08778		9.727339	-1.070386	0.283547	0.007911	0.061322	-0.022722	-0.021005	-0.006971	-0.030239	-0.955566	0.328613	0.289551	0.097272	-0.010718	0.002840	0.245401	-0.677465	-0.169473	-0.672382	-76.745231	-83.830877	-69.085259
08779		9.718470	-1.041324	0.262035	0.006562	0.028859	-0.035121	-0.022283	-0.007576	-0.030861	-0.956543	0.336426	0.292969	0.097183	-0.010428	0.002625	0.245243	-0.677535	-0.169484	-0.672367	-76.824241	-83.844189	-69.018975
08780		9.749543	-1.039938	0.245532	-0.004624	0.017822	-0.004782	-0.012686	-0.006376	-0.028589	-0.953125	0.336182	0.286377	0.097494	-0.010413	0.002459	0.245123	-0.677591	-0.169514	-0.672346	-76.893761	-83.855842	-68.957290
08781		9.708370	-1.047972	0.278450	0.017038	0.049475	-0.044090	-0.018557	-0.007345	-0.031161	-0.956787	0.326904	0.291748	0.097082	-0.010495	0.002789	0.244976	-0.677656	-0.169539	-0.672329	-76.969661	-83.869274	-68.891990
08782		9.730471	-1.062401	0.245638	-0.016800	0.043341	-0.021419	-0.014477	-0.009047	-0.029739	-0.951172	0.338867	0.298584	0.097303	-0.010638	0.002462	0.244846	-0.677721	-0.169570	-0.672302	-77.052798	-83.881888	-68.817431
08783		9.710811	-1.045742	0.242153	-0.010488	0.032252	-0.042789	-0.020246	-0.008420	-0.030162	-0.952637	0.336670	0.295898	0.097106	-0.010472	0.002427	0.244695	-0.677792	-0.169587	-0.672281	-77.137103	-83.894879	-68.744655
08784		9.740137	-1.040662	0.259729	0.008697	0.037664	-0.013748	-0.019072	-0.009404	-0.031698	-0.948486	0.336426	0.286865	0.097400	-0.010422	0.002603	0.244544	-0.677864	-0.169611	-0.672258	-77.225174	-83.908495	-68.667633
08785		9.720785	-1.065877	0.260543	-0.004888	0.063588	-0.030378	-0.021114	-0.008549	-0.032415	-0.952881	0.331787	0.295654	0.097206	-0.010674	0.002611	0.244383	-0.677934	-0.169633	-0.672240	-77.308678	-83.922738	-68.596166
08786		9.721157	-1.062769	0.259384	-0.003476	0.063175	-0.030375	-0.015858	-0.011236	-0.032525	-0.959473	0.335205	0.290283	0.097210	-0.010643	0.002600	0.244239	-0.678007	-0.169674	-0.672209	-77.402912	-83.937051	-68.510854
08787		9.751954	-1.018873	0.237960	0.005261	0.015156	-0.004778	-0.018923	-0.014517	-0.034295	-0.949951	0.329102	0.298828	0.097518	-0.010205	0.002388	0.244074	-0.678093	-0.169717	-0.672171	-77.515218	-83.953063	-68.409165
08788		9.741623	-1.027957	0.254516	0.014338	0.036127	-0.013749	-0.025459	-0.012433	-0.034813	-0.952881	0.330322	0.287598	0.097414	-0.010296	0.002553	0.243886	-0.678180	-0.169733	-0.672148	-77.619783	-83.968830	-68.319518
08789		9.733053	-1.040521	0.236832	-0.006917	0.040678	-0.021396	-0.031230	-0.011808	-0.035238	-0.950684	0.335938	0.295898	0.097329	-0.010422	0.002376	0.243679	-0.678271	-0.169734	-0.672131	-77.724781	-83.984998	-68.232275
08790		9.744517	-1.066876	0.221496	-0.033055	0.055897	-0.007654	-0.027148	-0.013506	-0.033819	-0.949707	0.333252	0.294922	0.097443	-0.010685	0.002223	0.243491	-0.678363	-0.169745	-0.672103	-77.837770	-84.000244	-68.134547
08791		9.744536	-1.021403	0.215596	-0.011760	0.018525	-0.012419	-0.031335	-0.013391	-0.037404	-0.953857	0.335693	0.293213	0.097443	-0.010232	0.002164	0.243274	-0.678457	-0.169755	-0.672084	-77.949862	-84.017780	-68.040236
08792		9.735981	-1.033861	0.197797	-0.033003	0.023016	-0.020052	-0.029194	-0.012646	-0.034544	-0.956055	0.333740	0.293457	0.097358	-0.010355	0.001986	0.243079	-0.678549	-0.169761	-0.672061	-78.060149	-84.033258	-67.946320
08793		9.705221	-0.987127	0.207728	0.000821	-0.003700	-0.055184	-0.028787	-0.012165	-0.036176	-0.951904	0.333008	0.296875	0.097050	-0.009889	0.002085	0.242876	-0.678637	-0.169774	-0.672042	-78.166742	-84.049923	-67.856075
08794		9.734597	-0.981495	0.224948	0.020024	0.001694	-0.026170	-0.029555	-0.010702	-0.036274	-0.957031	0.332520	0.296875	0.097344	-0.009832	0.002256	0.242674	-0.678721	-0.169781	-0.672028	-78.265808	-84.066131	-67.773792
08795		9.705977	-0.980222	0.205106	0.003632	-0.004477	-0.055185	-0.034820	-0.008013	-0.036170	-0.958984	0.330566	0.292480	0.097058	-0.009819	0.002057	0.242454	-0.678802	-0.169769	-0.672028	-78.354467	-84.082278	-67.705058
08796		9.726870	-1.032663	0.210416	-0.019724	0.042838	-0.029004	-0.027923	-0.012019	-0.033949	-0.947998	0.327637	0.299561	0.097267	-0.010343	0.002111	0.242263	-0.678890	-0.169775	-0.672006	-78.462734	-84.097345	-67.612685
08797		9.737916	-1.016797	0.190875	-0.025969	0.021096	-0.020027	-0.040337	-0.010913	-0.037043	-0.948486	0.321045	0.304932	0.097377	-0.010186	0.001916	0.242020	-0.678988	-0.169751	-0.672002	-78.570295	-84.114288	-67.528131
08798		9.736099	-0.967698	0.219660	0.025662	0.000168	-0.026183	-0.036972	-0.008735	-0.039060	-0.950928	0.323730	0.301514	0.097359	-0.009696	0.002203	0.241775	-0.679075	-0.169732	-0.672007	-78.663186	-84.131929	-67.457890
08799		9.748835	-0.955099	0.166032	-0.010898	-0.038041	-0.015851	-0.042693	-0.008942	-0.033989	-0.950928	0.325439	0.299316	0.097487	-0.009567	0.001667	0.241535	-0.679170	-0.169687	-0.672008	-78.765698	-84.146905	-67.379774
08800		9.562838	-0.958499	-0.313196	-0.417476	-0.280718	-0.210000	-0.027460	-0.018214	-0.040364	-0.947998	0.322754	0.304199	0.095627	-0.009605	-0.003122	0.241312	-0.679276	-0.169718	-0.671974	-78.904166	-84.166287	-67.257881
08801		9.288413	-1.145572	-0.347412	-0.557421	-0.114481	-0.464756	-0.046723	-0.067584	-0.031762	-0.944336	0.315918	0.311768	0.092883	-0.011471	-0.003440	0.241016	-0.679575	-0.169723	-0.671776	-79.336385	-84.186295	-66.850672
08802		9.426865	-1.491324	-1.045437	-1.316356	-0.221964	-0.304759	0.023323	-0.132635	-0.037378	-0.945068	0.325439	0.319580	0.094273	-0.014930	-0.010394	0.240871	-0.680008	-0.170046	-0.671308	-80.089506	-84.215598	-66.082924
08803		9.873005	-1.285664	-0.659147	-0.851617	-0.206805	0.126909	-0.060404	-0.171270	-0.050006	-0.937988	0.318359	0.319092	0.098732	-0.012883	-0.006503	0.240378	-0.680656	-0.170192	-0.670791	-81.102323	-84.254556	-65.100087
08804		10.138025	-0.870806	-0.303317	-0.303342	-0.362092	0.356221	-0.020857	-0.143640	-0.074302	-0.944824	0.305664	0.325928	0.101379	-0.008746	-0.002959	0.239949	-0.681149	-0.170504	-0.670365	-81.933253	-84.303169	-64.279818
08805		9.897772	-0.579431	-0.424459	-0.244803	-0.634975	0.087750	-0.049930	-0.120668	-0.084533	-0.937988	0.310059	0.325439	0.098978	-0.005837	-0.004183	0.239419	-0.681584	-0.170741	-0.670052	-82.651501	-84.354903	-63.587130
08806		9.674592	-0.463561	-0.161117	0.035286	-0.552367	-0.141482	-0.160803	-0.105506	-0.071621	-0.942383	0.308594	0.333740	0.096745	-0.004672	-0.001556	0.238557	-0.682115	-0.170532	-0.669872	-83.368330	-84.397234	-62.961814
08807		9.814369	-0.792152	0.004180	0.004853	-0.189848	0.031767	-0.202882	-0.099676	-0.054433	-0.934814	0.302734	0.334961	0.098141	-0.007948	0.000099	0.237624	-0.682687	-0.170129	-0.669723	-84.094735	-84.428775	-62.349084
08808		9.694272	-0.944367	-0.153088	-0.208061	-0.130396	-0.074419	-0.144781	-0.086996	-0.049226	-0.934570	0.312256	0.332031	0.096941	-0.009469	-0.001482	0.236910	-0.683154	-0.169877	-0.669564	-84.723776	-84.455737	-61.802240
08809		9.663128	-0.814712	-0.192879	-0.164899	-0.247585	-0.117921	-0.129928	-0.091782	-0.060822	-0.935791	0.307373	0.333496	0.096630	-0.008178	-0.001879	0.236211	-0.683606	-0.169730	-0.669386	-85.372478	-84.489156	-61.225643
08810		9.803916	-0.861637	-0.192633	-0.177391	-0.210035	0.027064	-0.125076	-0.094879	-0.059421	-0.935059	0.302246	0.336182	0.098037	-0.008647	-0.001874	0.235526	-0.684066	-0.169590	-0.669194	-86.044947	-84.521057	-60.623550
08811		9.860468	-0.806220	-0.135083	-0.090068	-0.219384	0.078764	-0.089798	-0.083335	-0.056206	-0.927246	0.300293	0.335449	0.098603	-0.008091	-0.001306	0.234986	-0.684446	-0.169552	-0.669005	-86.636344	-84.550266	-60.081484
08812		9.729682	-0.693135	-0.175332	-0.062547	-0.316119	-0.062095	-0.054263	-0.077754	-0.050113	-0.924316	0.299072	0.337158	0.097296	-0.006956	-0.001714	0.234587	-0.684772	-0.169596	-0.668800	-87.181762	-84.575111	-59.566530
08813		9.808635	-0.817940	-0.065201	-0.029200	-0.150268	0.029017	-0.092224	-0.077134	-0.045021	-0.935303	0.304443	0.339355	0.098085	-0.008202	-0.000610	0.234082	-0.685143	-0.169503	-0.668620	-87.751073	-84.596741	-59.048090
08814		9.708382	-0.984329	-0.217939	-0.247014	-0.080084	-0.055554	-0.054275	-0.065274	-0.035020	-0.933838	0.302246	0.339844	0.097083	-0.009861	-0.002145	0.233744	-0.685440	-0.169481	-0.668440	-88.232945	-84.611768	-58.596955
08815		9.591051	-0.751014	-0.162049	-0.073846	-0.227710	-0.193892	-0.031191	-0.071022	-0.047135	-0.933350	0.301270	0.338867	0.095909	-0.007533	-0.001585	0.233446	-0.685717	-0.169593	-0.668232	-88.737312	-84.633643	-58.108654
08816		9.762831	-0.920567	-0.096982	-0.097622	-0.056925	-0.006723	-0.104228	-0.078787	-0.040934	-0.928955	0.301025	0.343994	0.097627	-0.009226	-0.000927	0.232905	-0.686112	-0.169440	-0.668053	-89.335887	-84.651411	-57.569040
08817		9.721966	-0.925348	-0.365279	-0.321517	-0.189025	-0.047074	-0.036148	-0.063614	-0.040504	-0.932373	0.293457	0.350098	0.097219	-0.009274	-0.003620	0.232618	-0.686375	-0.169503	-0.667867	-89.805750	-84.668584	-57.118276
08818		9.703061	-0.793385	-0.192959	-0.101306	-0.196756	-0.077847	-0.088590	-0.070146	-0.040617	-0.929932	0.300781	0.343750	0.097030	-0.007954	-0.001892	0.232138	-0.686724	-0.169390	-0.667705	-90.349268	-84.685269	-56.625242
08819		9.813398	-0.958337	-0.390574	-0.345513	-0.168387	0.047637	-0.117073	-0.060840	-0.033873	-0.936035	0.300049	0.352539	0.098134	-0.009602	-0.003870	0.231598	-0.687077	-0.169157	-0.667588	-90.853907	-84.697902	-56.186142
08820		9.684702	-0.618170	-0.393360	-0.165842	-0.438582	-0.111633	-0.061607	-0.041940	-0.030470	-0.940918	0.289795	0.348877	0.096847	-0.006198	-0.003911	0.231269	-0.687308	-0.169067	-0.667487	-91.211970	-84.708293	-55.863702
08821		9.848092	-0.647244	-0.494038	-0.253991	-0.476773	0.054231	-0.152441	-0.039328	-0.022257	-0.928955	0.302979	0.345459	0.098481	-0.006487	-0.004916	0.230664	-0.687639	-0.168651	-0.667461	-91.605501	-84.714002	-55.556548
08822		9.731968	-0.617002	-0.641902	-0.364977	-0.570201	-0.063555	-0.124440	-0.009502	-0.007597	-0.929932	0.299805	0.354736	0.097320	-0.006178	-0.006411	0.230222	-0.687853	-0.168235	-0.667497	-91.796662	-84.711507	-55.437909
08823		9.810851	-0.625314	-0.605245	-0.332539	-0.548348	0.015785	-0.169180	0.002402	0.007918	-0.936035	0.293701	0.353027	0.098109	-0.006254	-0.006048	0.229695	-0.688089	-0.167611	-0.667593	-91.935998	-84.700488	-55.395669
08824		9.893919	-0.761083	-0.920842	-0.665638	-0.612170	0.111979	-0.145412	0.029904	0.022367	-0.925781	0.291016	0.348145	0.098939	-0.007606	-0.009218	0.229314	-0.688220	-0.166976	-0.667748	-91.889805	-84.681561	-55.527562
08825		9.870338	-0.780944	-0.778635	-0.558040	-0.520417	0.089711	-0.130616	0.053195	0.032444	-0.928955	0.294678	0.352783	0.098703	-0.007799	-0.007808	0.229043	-0.688262	-0.166339	-0.667956	-91.690451	-84.657411	-55.803290
08826		9.910105	-0.844107	-1.026631	-0.801066	-0.609719	0.135337	-0.100808	0.088047	0.045124	-0.923340	0.298828	0.352783	0.099098	-0.008424	-0.010306	0.228939	-0.688167	-0.165707	-0.668247	-91.263051	-84.626221	-56.292389
08827		9.915885	-0.664057	-1.012700	-0.697524	-0.763086	0.123230	-0.088764	0.124251	0.058240	-0.927246	0.293701	0.343750	0.099154	-0.006616	-0.010186	0.228958	-0.687944	-0.165039	-0.668636	-90.613002	-84.587580	-56.996758
08828		9.970954	-0.885740	-1.258889	-1.027563	-0.725741	0.197640	-0.083368	0.161788	0.085680	-0.933105	0.291016	0.359375	0.099703	-0.008820	-0.012666	0.229111	-0.687614	-0.164243	-0.669118	-89.746347	-84.532261	-57.916981
08829		9.878253	-0.887956	-1.123940	-0.928376	-0.661150	0.103589	-0.024263	0.203099	0.100393	-0.934326	0.287109	0.350098	0.098775	-0.008831	-0.011339	0.229557	-0.687087	-0.163555	-0.669675	-88.620192	-84.466816	-59.062656
08830		9.907148	-1.005786	-1.232095	-1.092671	-0.642657	0.140917	-0.012746	0.239800	0.109544	-0.935059	0.299561	0.343994	0.099062	-0.010004	-0.012439	0.230093	-0.686434	-0.162820	-0.670339	-87.304624	-84.392942	-60.394002
08831		9.814262	-0.734832	-0.988236	-0.760762	-0.755664	0.020240	0.034160	0.269742	0.119077	-0.928955	0.300049	0.340088	0.098134	-0.007288	-0.010016	0.230856	-0.685630	-0.162187	-0.671053	-85.827599	-84.309574	-61.858910
08832		9.778785	-0.806563	-0.992658	-0.819842	-0.719877	-0.011151	0.018416	0.290199	0.125143	-0.931396	0.294678	0.353516	0.097778	-0.008004	-0.010069	0.231593	-0.684781	-0.161447	-0.671843	-84.293088	-84.217849	-63.392227
08833		9.787619	-0.743163	-0.500959	-0.386545	-0.537573	-0.006452	0.002586	0.300056	0.127410	-0.940186	0.289307	0.345947	0.097873	-0.007369	-0.005157	0.232299	-0.683915	-0.160644	-0.672674	-82.761535	-84.120251	-64.930600
08834		9.866941	-1.056261	-0.341966	-0.432248	-0.223779	0.104578	-0.017123	0.305700	0.131021	-0.935791	0.299316	0.333496	0.098671	-0.010498	-0.003570	0.232942	-0.683058	-0.159742	-0.673537	-81.267205	-84.015995	-66.445231
08835		9.618271	-1.046975	0.227939	0.027003	0.069607	-0.135209	-0.015220	0.309334	0.117141	-0.939453	0.296875	0.341797	0.096192	-0.010413	0.002131	0.233559	-0.682169	-0.158902	-0.674422	-79.789375	-83.915283	-67.940409
08836		9.374272	-1.154900	0.509356	0.181315	0.310301	-0.360651	-0.031669	0.281907	0.094003	-0.931152	0.294678	0.344482	0.093755	-0.011504	0.004963	0.234009	-0.681376	-0.158106	-0.675254	-78.490114	-83.826707	-69.267481
08837		9.449911	-1.414198	0.971295	0.423521	0.745872	-0.246682	-0.076907	0.234306	0.085264	-0.927979	0.295898	0.332764	0.094516	-0.014098	0.009608	0.234248	-0.680785	-0.157253	-0.675967	-77.484586	-83.745942	-70.323622
08838		9.477388	-1.287988	1.278988	0.740235	0.782533	-0.223357	-0.034919	0.214738	0.060380	-0.939209	0.302002	0.331299	0.094791	-0.012849	0.012690	0.234518	-0.680194	-0.156638	-0.676611	-76.552265	-83.679611	-71.284080
08839		9.463719	-1.348558	1.317199	0.729352	0.840539	-0.227433	-0.066751	0.172672	0.039565	-0.930420	0.293945	0.330566	0.094651	-0.013462	0.013095	0.234588	-0.679761	-0.156047	-0.677158	-75.838340	-83.629166	-72.041234
08840		9.410144	-1.312932	1.497910	0.891803	0.901036	-0.277953	-0.067093	0.128435	0.022566	-0.936523	0.302002	0.332275	0.094113	-0.013114	0.014923	0.234553	-0.679469	-0.155552	-0.677577	-75.334092	-83.593504	-72.589525
08841		9.467775	-1.254335	1.350622	0.794523	0.760777	-0.230086	-0.045732	0.078692	-0.002856	-0.940186	0.299316	0.335693	0.094683	-0.012542	0.013472	0.234477	-0.679296	-0.155287	-0.677837	-75.032026	-83.578858	-72.920207
08842		9.546191	-1.398284	1.092741	0.499577	0.734766	-0.143686	-0.059882	0.031017	-0.022585	-0.936768	0.295410	0.331299	0.095462	-0.013990	0.010917	0.234238	-0.679290	-0.155084	-0.677972	-74.948945	-83.581994	-73.040618
08843		9.581615	-1.376387	1.163579	0.571973	0.751631	-0.108894	-0.040477	-0.007181	-0.045022	-0.941162	0.297363	0.327637	0.095813	-0.013783	0.011642	0.233971	-0.679370	-0.155080	-0.677986	-75.011415	-83.603302	-73.001440
08844		9.730053	-1.482122	0.762361	0.181334	0.617816	0.038060	-0.019579	-0.030974	-0.058774	-0.937012	0.300537	0.323242	0.097295	-0.014849	0.007640	0.233698	-0.679498	-0.155209	-0.677921	-75.163573	-83.635623	-72.861900
08845		9.713573	-1.446528	0.564474	0.032987	0.492374	0.011825	-0.010443	-0.047414	-0.076398	-0.934082	0.293213	0.328613	0.097129	-0.014502	0.005669	0.233395	-0.679654	-0.155461	-0.677812	-75.369645	-83.680157	-72.660927
08846		9.741799	-1.250661	0.409668	0.007630	0.251764	0.014376	0.008810	-0.061584	-0.085525	-0.940430	0.301025	0.334961	0.097411	-0.012548	0.004126	0.233105	-0.679832	-0.155814	-0.677652	-75.628632	-83.731572	-72.397392
08847		9.888328	-1.183002	-0.006734	-0.303644	-0.030082	0.141480	0.000522	-0.058687	-0.096170	-0.939209	0.296631	0.347900	0.098878	-0.011878	-0.000038	0.232763	-0.679998	-0.156182	-0.677518	-75.866877	-83.788488	-72.157774
08848		9.882673	-1.173612	-0.220760	-0.479383	-0.139906	0.129341	-0.036002	-0.049163	-0.093436	-0.939453	0.292236	0.336670	0.098822	-0.011783	-0.002181	0.232302	-0.680180	-0.156394	-0.677445	-76.086400	-83.842341	-71.960122
08849		9.819659	-1.018587	-0.360346	-0.518040	-0.327804	0.047193	-0.030918	-0.034250	-0.098151	-0.943115	0.286621	0.342529	0.098192	-0.010235	-0.003585	0.231866	-0.680298	-0.156635	-0.677421	-76.221602	-83.896822	-71.842306
08850		9.840977	-1.071162	-0.670107	-0.809274	-0.439288	0.066247	-0.054481	-0.020518	-0.100373	-0.930176	0.296387	0.333252	0.098405	-0.010763	-0.006688	0.231339	-0.680398	-0.156773	-0.677468	-76.299320	-83.950543	-71.798111
08851		9.941329	-1.068957	-0.821661	-0.935656	-0.521234	0.162315	-0.083707	-0.013698	-0.102454	-0.936035	0.291504	0.343262	0.099408	-0.010744	-0.008205	0.230725	-0.680504	-0.156826	-0.677559	-76.354465	-84.004599	-71.791233
08852		9.903346	-1.091301	-0.667402	-0.820509	-0.408094	0.130795	-0.097441	0.005817	-0.095678	-0.933594	0.290283	0.341064	0.099028	-0.010964	-0.006672	0.230091	-0.680568	-0.156774	-0.677723	-76.324447	-84.052126	-71.879813
08853		9.838286	-1.200350	-0.524684	-0.763090	-0.226690	0.080457	-0.081655	0.030043	-0.097918	-0.939697	0.286377	0.337402	0.098376	-0.012054	-0.005257	0.229532	-0.680526	-0.156767	-0.677956	-76.149119	-84.097695	-72.103466
08854		9.742623	-1.083992	-0.603224	-0.779035	-0.350364	-0.028621	-0.047487	0.059876	-0.106289	-0.939941	0.285156	0.336182	0.097419	-0.010893	-0.006059	0.229074	-0.680341	-0.156858	-0.678275	-75.780238	-84.143560	-72.504047
08855		9.741440	-1.047476	-0.409049	-0.603348	-0.273461	-0.028958	-0.084688	0.063213	-0.103031	-0.938477	0.289063	0.337891	0.097408	-0.010527	-0.004117	0.228513	-0.680185	-0.156821	-0.678629	-75.410936	-84.186978	-72.924394
08856		9.822873	-0.961966	-0.124729	-0.323327	-0.199923	0.050641	-0.081048	0.083270	-0.098032	-0.934814	0.298096	0.337158	0.098223	-0.009668	-0.001284	0.227987	-0.679965	-0.156743	-0.679044	-74.933660	-84.224271	-73.453125
08857		9.746371	-0.942429	-0.156722	-0.353367	-0.222466	-0.028511	-0.047214	0.101657	-0.095281	-0.933105	0.276123	0.330322	0.097458	-0.009471	-0.001615	0.227611	-0.679641	-0.156762	-0.679490	-74.331290	-84.256846	-74.086087
08858		9.673651	-0.903979	-0.102553	-0.300032	-0.217037	-0.103409	-0.057072	0.091529	-0.090072	-0.938232	0.278076	0.341553	0.096732	-0.009084	-0.001067	0.227200	-0.679372	-0.156730	-0.679904	-73.794249	-84.287414	-74.660856
08859		9.768129	-1.020724	-0.097594	-0.364547	-0.122170	0.001584	-0.036245	0.092463	-0.082766	-0.937988	0.284912	0.338379	0.097677	-0.010248	-0.001019	0.226896	-0.679076	-0.156755	-0.680295	-73.243712	-84.313366	-75.235345
08860		9.791978	-0.901061	0.114898	-0.131102	-0.113565	0.019802	-0.001847	0.103824	-0.080916	-0.942871	0.279297	0.330322	0.097917	-0.009050	0.001098	0.226711	-0.678709	-0.156864	-0.680698	-72.611620	-84.335733	-75.874130
08861		9.710234	-0.815871	0.270936	0.032926	-0.095789	-0.064999	0.023969	0.106557	-0.078646	-0.947021	0.280029	0.335449	0.097101	-0.008197	0.002657	0.226637	-0.678300	-0.157063	-0.681085	-71.945995	-84.355738	-76.529556
08862		9.638830	-0.717467	0.410168	0.189396	-0.099407	-0.140859	0.043325	0.115453	-0.078124	-0.947021	0.278076	0.336914	0.096388	-0.007213	0.004044	0.226624	-0.677844	-0.157303	-0.681487	-71.219427	-84.372997	-77.237108
08863		9.580376	-0.754053	0.419856	0.165100	-0.057797	-0.195106	0.049109	0.113913	-0.072131	-0.940674	0.278809	0.334717	0.095803	-0.007576	0.004142	0.226663	-0.677386	-0.157557	-0.681871	-70.502569	-84.386490	-77.929502
08864		9.636330	-0.786288	0.229627	-0.024677	-0.135592	-0.142588	0.052474	0.115231	-0.068589	-0.941895	0.282227	0.330811	0.096362	-0.007897	0.002239	0.226713	-0.676927	-0.157796	-0.682255	-69.783188	-84.396917	-78.624672
08865		9.607213	-0.657215	0.179581	-0.012269	-0.269195	-0.185118	0.055836	0.116552	-0.065047	-0.940186	0.282471	0.339844	0.096071	-0.006604	0.001738	0.226800	-0.676458	-0.158046	-0.682634	-69.056762	-84.404370	-79.322784
08866		9.672056	-0.674961	0.006693	-0.179296	-0.351933	-0.125156	0.039232	0.116041	-0.061136	-0.939941	0.278076	0.325928	0.096719	-0.006779	0.000009	0.226832	-0.676016	-0.158214	-0.683021	-68.352072	-84.408944	-80.010678
08867		9.714471	-0.655795	-0.014041	-0.197706	-0.384488	-0.085701	0.015208	0.117526	-0.060152	-0.945313	0.274414	0.329102	0.097143	-0.006587	-0.000198	0.226798	-0.675593	-0.158308	-0.683429	-67.651474	-84.411899	-80.706215
08868		9.774222	-0.752111	-0.077792	-0.313386	-0.343858	-0.020309	-0.010954	0.130560	-0.056235	-0.943115	0.273193	0.332031	0.097740	-0.007549	-0.000841	0.226689	-0.675162	-0.158272	-0.683900	-66.906855	-84.409020	-81.463133
08869		9.709533	-0.848427	-0.081284	-0.380260	-0.260280	-0.076717	-0.019913	0.137096	-0.057234	-0.942139	0.274658	0.327148	0.097092	-0.008512	-0.000879	0.226562	-0.674713	-0.158213	-0.684398	-66.128095	-84.404217	-82.257431
08870		9.741356	-0.842512	-0.082495	-0.391040	-0.271422	-0.046212	-0.051983	0.148615	-0.063840	-0.946533	0.269287	0.326416	0.097410	-0.008456	-0.000895	0.226301	-0.674261	-0.158040	-0.684970	-65.294889	-84.399059	-83.127155
08871		9.796696	-0.769560	-0.153833	-0.427493	-0.378845	-0.001223	-0.084239	0.167373	-0.057943	-0.943848	0.270264	0.328613	0.097963	-0.007725	-0.001617	0.225979	-0.673780	-0.157729	-0.685621	-64.395140	-84.384993	-84.080076
08872		9.642308	-0.702995	-0.224066	-0.469491	-0.460377	-0.164572	-0.125923	0.176789	-0.061720	-0.950928	0.280029	0.328369	0.096419	-0.007061	-0.002321	0.225497	-0.673315	-0.157263	-0.686343	-63.468399	-84.369040	-85.086500
08873		9.682106	-0.660157	-0.328392	-0.551444	-0.557896	-0.134286	-0.176267	0.173468	-0.064060	-0.944580	0.270996	0.323975	0.096816	-0.006636	-0.003362	0.224848	-0.672911	-0.156650	-0.687092	-62.583953	-84.353564	-86.077079
08874		9.893237	-0.936426	-0.192154	-0.592065	-0.275776	0.105142	-0.235827	0.167587	-0.059688	-0.947998	0.275635	0.319580	0.098928	-0.009396	-0.001993	0.223996	-0.672601	-0.155811	-0.687864	-61.784008	-84.336052	-87.019213
08875		9.851828	-0.943158	-0.145383	-0.570918	-0.244064	0.065757	-0.200693	0.180751	-0.074155	-0.951904	0.278809	0.318359	0.098513	-0.009470	-0.001533	0.223235	-0.672189	-0.155139	-0.688666	-60.859568	-84.320760	-88.064102
08876		9.800069	-1.048585	0.166806	-0.374194	0.008874	0.037621	-0.213003	0.189264	-0.074652	-0.953857	0.267090	0.317139	0.097998	-0.010521	0.001587	0.222426	-0.671764	-0.154406	-0.689506	-59.907311	-84.301656	-89.145936
08877		9.799584	-1.145948	0.345410	-0.288201	0.180293	0.053860	-0.186026	0.208058	-0.082208	-0.956299	0.271484	0.313477	0.097995	-0.011497	0.003363	0.221707	-0.671232	-0.153781	-0.690395	-58.829107	-84.278850	-90.336980
08878		9.633976	-0.886417	0.423294	-0.107123	0.011581	-0.129363	-0.154271	0.217486	-0.096826	-0.955566	0.260498	0.313721	0.096340	-0.008908	0.004135	0.221039	-0.670625	-0.153292	-0.691307	-57.655584	-84.258061	-91.607613
08879		9.534845	-0.831035	0.309034	-0.196430	-0.086487	-0.239115	-0.181435	0.212769	-0.102703	-0.960693	0.267334	0.319092	0.095347	-0.008357	0.002996	0.220267	-0.670054	-0.152745	-0.692227	-56.507523	-84.238937	-92.866310
08880		9.626497	-0.961654	0.272969	-0.313645	-0.003184	-0.139512	-0.183453	0.198547	-0.114067	-0.952881	0.258545	0.314697	0.096262	-0.009669	0.002643	0.219425	-0.669529	-0.152232	-0.693115	-55.401999	-84.227381	-94.085693
08881		9.759848	-1.034105	0.203109	-0.430801	0.010920	-0.005572	-0.156183	0.191927	-0.127776	-0.951660	0.257568	0.313232	0.097594	-0.010402	0.001946	0.218634	-0.668981	-0.151880	-0.693971	-54.267765	-84.221949	-95.316004
08882		9.757111	-1.085724	0.378411	-0.324942	0.145338	0.005482	-0.143530	0.184295	-0.129245	-0.957275	0.261963	0.313965	0.097568	-0.010918	0.003702	0.217860	-0.668448	-0.151570	-0.694795	-53.161851	-84.217470	-96.512886
08883		9.797353	-0.938866	0.533691	-0.136913	0.094574	0.042600	-0.107197	0.194629	-0.133690	-0.949707	0.249268	0.310303	0.097972	-0.009451	0.005247	0.217214	-0.667830	-0.151404	-0.695628	-51.972619	-84.208893	-97.770293
08884		9.708861	-0.669613	0.706083	0.128816	-0.040614	-0.056118	-0.106986	0.188663	-0.131022	-0.963379	0.252197	0.320801	0.097091	-0.006756	0.006973	0.216559	-0.667239	-0.151223	-0.696438	-50.826319	-84.198789	-98.986758
08885		9.632488	-0.648729	0.679165	0.098422	-0.063077	-0.135227	-0.116592	0.169217	-0.127699	-0.959473	0.248291	0.310547	0.096326	-0.006545	0.006714	0.215882	-0.666722	-0.151031	-0.697184	-49.782419	-84.191872	-100.103533
08886		9.837889	-0.710075	0.771426	0.126892	0.017389	0.080085	-0.123769	0.145309	-0.124046	-0.960938	0.246826	0.306885	0.098380	-0.007157	0.007647	0.215160	-0.666304	-0.150812	-0.697854	-48.863486	-84.190507	-101.101435
08887		9.903501	-0.830310	0.969997	0.221953	0.215737	0.167985	-0.100851	0.132159	-0.115787	-0.956543	0.244873	0.315186	0.099037	-0.008356	0.009639	0.214549	-0.665907	-0.150676	-0.698451	-48.015091	-84.188897	-102.012642
08888		9.850945	-0.881513	1.290566	0.461233	0.426645	0.141657	-0.067117	0.117704	-0.108384	-0.957275	0.247559	0.315186	0.098512	-0.008864	0.012851	0.214050	-0.665535	-0.150633	-0.698968	-47.239133	-84.188575	-102.834160
08889		9.751039	-0.780442	1.599770	0.768934	0.505251	0.056688	-0.015799	0.106561	-0.105488	-0.961182	0.248291	0.299561	0.097515	-0.007855	0.015946	0.213738	-0.665143	-0.150786	-0.699403	-46.487659	-84.190151	-103.598963
08890		9.572633	-0.620774	1.687214	0.917653	0.431979	-0.125652	0.014355	0.072886	-0.099364	-0.955078	0.242432	0.304199	0.095729	-0.006257	0.016837	0.213508	-0.664847	-0.151046	-0.699699	-45.881711	-84.201763	-104.202454
08891		9.693051	-0.563395	1.669958	0.920657	0.367894	-0.010726	0.041012	0.022595	-0.097924	-0.959473	0.239502	0.308105	0.096930	-0.005685	0.016687	0.213349	-0.664693	-0.151463	-0.699803	-45.463586	-84.232246	-104.599449
08892		9.657600	-0.545438	1.544482	0.817515	0.301772	-0.056010	0.078708	-0.013562	-0.096368	-0.950928	0.240234	0.310059	0.096572	-0.005507	0.015449	0.213277	-0.664632	-0.152030	-0.699760	-45.174722	-84.276535	-104.847286
08893		9.721092	-0.667072	1.327233	0.565565	0.302916	0.000290	0.121262	-0.057021	-0.091950	-0.960449	0.232422	0.314697	0.097204	-0.006723	0.013296	0.213344	-0.664676	-0.152792	-0.699532	-45.049790	-84.336393	-104.903363
08894		9.723497	-0.673938	1.235380	0.483608	0.274526	-0.003635	0.187364	-0.079198	-0.086058	-0.954834	0.234619	0.309814	0.097227	-0.006793	0.012386	0.213618	-0.664735	-0.153773	-0.699177	-45.003337	-84.402954	-104.845280
08895		9.690309	-0.455874	1.164679	0.535347	0.066922	-0.056904	0.238594	-0.092645	-0.079929	-0.962891	0.240479	0.312256	0.096896	-0.004611	0.011686	0.214089	-0.664786	-0.154943	-0.698726	-45.006922	-84.472362	-104.704675
08896		9.774739	-0.225087	0.931018	0.452362	-0.243747	-0.004582	0.245754	-0.108322	-0.075773	-0.959473	0.232910	0.318115	0.097741	-0.002299	0.009360	0.214570	-0.664891	-0.156126	-0.698215	-45.094902	-84.546524	-104.477839
08897		9.790039	-0.262841	0.819282	0.343033	-0.256510	0.005749	0.183852	-0.124256	-0.059707	-0.960449	0.237793	0.309326	0.097894	-0.002665	0.008251	0.214905	-0.665124	-0.157071	-0.697678	-45.358138	-84.620410	-104.107961
08898		9.718174	-0.102160	0.566608	0.217290	-0.504189	-0.092968	0.163345	-0.126273	-0.050537	-0.943604	0.242188	0.316162	0.097178	-0.001051	0.005727	0.215185	-0.665398	-0.157900	-0.697144	-45.692765	-84.691287	-103.680997
08899		9.712564	-0.291458	0.353353	-0.052995	-0.439493	-0.099411	0.098330	-0.130811	-0.033634	-0.959961	0.239746	0.314453	0.097123	-0.002933	0.003596	0.215320	-0.665765	-0.158467	-0.696622	-46.166392	-84.756619	-103.149126
08900		9.804929	-0.366512	0.371986	-0.066742	-0.365361	-0.000889	0.052168	-0.128785	-0.024012	-0.958252	0.237061	0.314941	0.098046	-0.003678	0.003782	0.215321	-0.666187	-0.158824	-0.696137	-46.714058	-84.816826	-102.572071
08901		9.672843	-0.137089	0.248170	-0.042475	-0.605522	-0.154748	0.046359	-0.123586	-0.018124	-0.948486	0.228760	0.320313	0.096727	-0.001380	0.002541	0.215343	-0.666596	-0.159150	-0.695664	-47.276904	-84.871914	-101.980619
08902		9.705605	-0.359878	0.249502	-0.144470	-0.410267	-0.106951	-0.036050	-0.129079	0.000371	-0.953613	0.237549	0.320801	0.097054	-0.003598	0.002558	0.215133	-0.667133	-0.159118	-0.695221	-48.008305	-84.920822	-101.270212
08903		9.702390	-0.216762	0.282162	-0.030705	-0.510263	-0.117243	-0.043163	-0.130116	0.004535	-0.947998	0.229492	0.320557	0.097022	-0.002165	0.002885	0.214930	-0.667679	-0.159064	-0.694772	-48.778196	-84.967375	-100.522490
08904		9.732656	-0.523139	0.355802	-0.111576	-0.208116	-0.062350	-0.087594	-0.122369	0.019971	-0.952393	0.238525	0.318604	0.097325	-0.005220	0.003620	0.214621	-0.668263	-0.158780	-0.694371	-49.617136	-85.003542	-99.733856
08905		9.538340	-0.346482	0.471912	0.094268	-0.280416	-0.260979	-0.060212	-0.120690	0.025175	-0.951172	0.241943	0.330078	0.095381	-0.003451	0.004778	0.214440	-0.668810	-0.158588	-0.693944	-50.462842	-85.035649	-98.919925
08906		9.632296	-0.245010	0.465417	0.152115	-0.375749	-0.174564	-0.070623	-0.119942	0.030068	-0.946289	0.241943	0.327881	0.096321	-0.002434	0.004713	0.214226	-0.669374	-0.158327	-0.693526	-51.344132	-85.064371	-98.078911
08907		9.772591	-0.374005	0.333847	-0.014613	-0.341183	-0.033207	-0.097774	-0.126637	0.043172	-0.953369	0.239502	0.328857	0.097725	-0.003717	0.003402	0.213977	-0.669995	-0.157950	-0.693089	-52.337106	-85.088238	-97.138837
08908		9.776127	-0.385202	0.495417	0.133844	-0.248805	-0.020515	-0.111933	-0.124147	0.058170	-0.945313	0.245117	0.328369	0.097759	-0.003821	0.005017	0.213718	-0.670640	-0.157456	-0.692658	-53.396512	-85.103078	-96.142888
08909		9.623528	-0.504321	0.680394	0.249846	-0.039940	-0.155279	-0.105359	-0.125641	0.066594	-0.955322	0.230469	0.341553	0.096233	-0.005008	0.006867	0.213525	-0.671283	-0.156974	-0.692204	-54.496421	-85.112779	-95.099895
08910		9.674958	-0.564058	0.691584	0.245262	0.012903	-0.099762	-0.093935	-0.137947	0.065629	-0.950928	0.236084	0.336426	0.096747	-0.005606	0.006985	0.213339	-0.671961	-0.156530	-0.691703	-55.660740	-85.125350	-93.988555
08911		9.641779	-0.553114	0.811647	0.372378	0.067581	-0.128404	-0.078496	-0.158637	0.070688	-0.944580	0.242188	0.344971	0.096413	-0.005494	0.008195	0.213224	-0.672691	-0.156162	-0.691112	-56.954369	-85.139915	-92.735732
08912		9.755595	-0.877258	0.852186	0.263085	0.358731	0.009202	-0.094169	-0.175519	0.071744	-0.943115	0.228271	0.343262	0.097552	-0.008734	0.008612	0.213029	-0.673503	-0.155736	-0.690478	-58.367350	-85.156758	-91.375067
08913		9.746161	-0.945549	1.094890	0.459929	0.542362	0.014559	-0.098626	-0.191529	0.072316	-0.947266	0.234131	0.347656	0.097454	-0.009415	0.011047	0.212826	-0.674368	-0.155327	-0.689787	-59.885009	-85.174948	-89.909051
08914		9.596482	-1.001745	1.114510	0.471462	0.616375	-0.130959	-0.071160	-0.210715	0.065762	-0.940918	0.235596	0.342529	0.095956	-0.009982	0.011250	0.212618	-0.675279	-0.154996	-0.689035	-61.493048	-85.198378	-88.346633
08915		9.638267	-0.951191	1.058348	0.473027	0.546709	-0.096806	-0.084429	-0.252685	0.055425	-0.938721	0.236328	0.344971	0.096372	-0.009481	0.010709	0.212356	-0.676324	-0.154757	-0.688143	-63.345727	-85.234246	-86.536374
08916		9.734299	-1.178962	1.011934	0.347231	0.720341	0.012332	-0.109376	-0.293375	0.043762	-0.936035	0.238525	0.345459	0.097331	-0.011763	0.010269	0.211920	-0.677531	-0.154498	-0.687148	-65.463442	-85.281042	-84.477496
08917		9.910591	-1.236553	1.221515	0.532717	0.871999	0.197143	-0.104463	-0.333301	0.028470	-0.937500	0.227539	0.356201	0.099087	-0.012345	0.012387	0.211435	-0.678851	-0.154367	-0.686023	-67.833194	-85.338175	-82.160188
08918		9.769120	-1.212783	1.364128	0.700409	0.948394	0.055304	-0.084391	-0.361956	0.020172	-0.934570	0.233643	0.357422	0.097668	-0.012112	0.013823	0.210948	-0.680244	-0.154344	-0.684797	-70.419661	-85.397405	-79.617117
08919		9.455706	-0.992473	1.277705	0.765829	0.756703	-0.280180	-0.060534	-0.403894	0.003233	-0.929932	0.236572	0.364746	0.094531	-0.009919	0.012971	0.210469	-0.681735	-0.154522	-0.683420	-73.305454	-85.463423	-76.757270
08920		9.675248	-0.800620	1.176609	0.815343	0.544006	-0.082583	-0.043942	-0.454899	-0.007460	-0.930420	0.234619	0.371582	0.096725	-0.008007	0.011988	0.209952	-0.683376	-0.154828	-0.681870	-76.605460	-85.530570	-73.475676
08921		9.923251	-0.868250	0.837866	0.534223	0.438418	0.159724	-0.009688	-0.476245	-0.010385	-0.923096	0.237061	0.368652	0.099212	-0.008687	0.008615	0.209543	-0.685042	-0.155300	-0.680214	-80.124720	-85.586372	-69.951741
08922		9.764613	-0.640720	0.634174	0.509310	0.176298	-0.021380	0.029538	-0.501781	-0.006393	-0.927002	0.239746	0.379150	0.097630	-0.006411	0.006586	0.209242	-0.686758	-0.155900	-0.678437	-83.892751	-85.624465	-66.158975
08923		9.744338	-0.461377	0.474037	0.503135	-0.032101	-0.058954	0.073087	-0.519363	-0.001036	-0.918701	0.233154	0.380615	0.097431	-0.004616	0.004992	0.209112	-0.688483	-0.156665	-0.676550	-87.817066	-85.640651	-62.181592
08924		9.626598	-0.364383	0.119179	0.285670	-0.259647	-0.186207	0.104138	-0.550299	-0.002120	-0.924072	0.242432	0.386963	0.096262	-0.003646	0.001455	0.209041	-0.690278	-0.157551	-0.674533	-91.968085	-85.636083	-57.962029
08925		9.786566	-0.548128	-0.164614	0.004186	-0.226776	-0.012039	0.127973	-0.599357	0.010666	-0.920654	0.229492	0.397217	0.097870	-0.005475	-0.001356	0.209073	-0.692214	-0.158542	-0.672304	-96.426082	-85.598082	-53.417784
08926		9.990483	-0.777132	0.224159	0.288489	0.181972	0.204662	0.129665	-0.623079	0.014996	-0.915771	0.244141	0.393066	0.099898	-0.007765	0.002548	0.209087	-0.694228	-0.159527	-0.669986	-100.945845	-85.528455	-48.813399
08927		9.725479	-0.731081	0.291518	0.409782	0.220359	-0.066527	0.202841	-0.614499	0.021979	-0.918701	0.239014	0.402344	0.097246	-0.007303	0.003207	0.209400	-0.696131	-0.160742	-0.667619	-105.183527	-85.429071	-44.446272
08928		9.492206	-0.606178	0.169127	0.406936	0.091806	-0.308809	0.181144	-0.639745	0.025456	-0.917480	0.237549	0.399170	0.094917	-0.006051	0.001989	0.209611	-0.698140	-0.161879	-0.665176	-109.387642	-85.298342	-40.127423
08929		9.425224	-0.444296	0.065648	0.450450	-0.067909	-0.387789	0.170992	-0.670100	0.030776	-0.905029	0.245605	0.417236	0.094250	-0.004429	0.000968	0.209793	-0.700253	-0.163011	-0.662616	-113.518442	-85.133429	-35.884235
08930		9.799243	-0.725753	-0.016982	0.321910	0.143116	0.007072	0.137454	-0.708541	0.039804	-0.896484	0.241211	0.418213	0.097994	-0.007238	0.000172	0.209837	-0.702531	-0.164021	-0.659936	-117.568942	-84.929451	-31.742659
08931		9.929047	-0.936204	-0.110113	0.207224	0.300921	0.154293	0.214410	-0.708407	0.043269	-0.889893	0.244141	0.419434	0.099296	-0.009340	-0.000759	0.210177	-0.704716	-0.165288	-0.657176	-121.229519	-84.700185	-27.944057
08932		9.727678	-0.941544	-0.281923	0.102851	0.256242	-0.039403	0.283369	-0.717224	0.041268	-0.894775	0.246338	0.433105	0.097288	-0.009392	-0.002484	0.210727	-0.706850	-0.166778	-0.654326	-124.579430	-84.448519	-24.419213
08933		9.880414	-0.833430	-0.218093	0.288676	0.221210	0.098523	0.336399	-0.733546	0.042219	-0.892334	0.248291	0.438232	0.098813	-0.008310	-0.001833	0.211466	-0.708967	-0.168470	-0.651357	-127.660233	-84.172667	-21.129832
08934		10.140192	-0.699489	-0.316088	0.363097	0.078036	0.349711	0.381684	-0.729907	0.043862	-0.887695	0.246582	0.439697	0.101414	-0.006967	-0.002804	0.212354	-0.711018	-0.170279	-0.648355	-130.399971	-83.881146	-18.158605
08935		10.210693	-0.819179	-0.469330	0.243708	0.129182	0.437828	0.369132	-0.730461	0.046371	-0.876221	0.247559	0.445068	0.102125	-0.008160	-0.004335	0.213218	-0.713070	-0.172054	-0.645343	-132.874302	-83.574647	-15.456970
08936		10.084891	-0.879333	-0.377999	0.341332	0.263272	0.308326	0.381733	-0.726704	0.050069	-0.878418	0.251221	0.454834	0.100864	-0.008761	-0.003430	0.214122	-0.715091	-0.173831	-0.642323	-135.076617	-83.256283	-13.023208
08937		10.068009	-1.180660	-0.637158	0.027316	0.412890	0.335864	0.416897	-0.745056	0.040845	-0.869629	0.254639	0.450195	0.100705	-0.011773	-0.006021	0.215119	-0.717109	-0.175788	-0.639201	-137.135793	-82.923906	-10.708720
08938		10.222043	-1.300516	-0.621368	0.061674	0.551498	0.495523	0.421802	-0.768524	0.030263	-0.866211	0.253906	0.462402	0.102245	-0.012977	-0.005848	0.216059	-0.719177	-0.177803	-0.635994	-139.096501	-82.575946	-8.491862
08939		10.199082	-1.335849	-0.501012	0.206949	0.680985	0.461054	0.479564	-0.782994	0.018344	-0.870605	0.261963	0.461914	0.102011	-0.013338	-0.004643	0.217168	-0.721199	-0.180075	-0.632679	-140.912576	-82.217049	-6.382836
08940		10.035238	-1.547843	-0.410407	0.211745	0.947002	0.303051	0.502709	-0.798514	0.000783	-0.862793	0.268066	0.479736	0.100368	-0.015468	-0.003742	0.218270	-0.723219	-0.182478	-0.629297	-142.634504	-81.848890	-4.356505
08941		9.850273	-1.484737	0.079238	0.687588	1.203688	0.052226	0.537073	-0.825735	-0.046818	-0.863281	0.266357	0.479248	0.098495	-0.014873	0.001159	0.219333	-0.725221	-0.185205	-0.625817	-144.382297	-81.476125	-2.279404
08942		9.489731	-1.195003	0.389698	1.106101	1.182461	-0.378032	0.572726	-0.871576	-0.107299	-0.854736	0.267334	0.492920	0.094873	-0.012013	0.004276	0.220272	-0.727257	-0.188289	-0.622193	-146.225161	-81.092180	-0.086304
08943		9.368620	-1.342273	0.491858	1.148816	1.417120	-0.512899	0.475140	-0.956376	-0.142004	-0.847168	0.265137	0.497314	0.093652	-0.013502	0.005334	0.220677	-0.729606	-0.191303	-0.618368	-148.213338	-80.667277	2.202674
08944		9.332285	-1.907140	0.586283	0.970874	2.000293	-0.532173	0.392243	-1.063192	-0.163051	-0.841797	0.276611	0.499756	0.093274	-0.019160	0.006321	0.220589	-0.732340	-0.194228	-0.614243	-150.295644	-80.183296	4.538746
08945		9.402317	-2.681726	0.755793	0.757200	2.806827	-0.447117	0.354419	-1.169234	-0.200507	-0.833252	0.265381	0.503174	0.093950	-0.026925	0.008060	0.220153	-0.735373	-0.197305	-0.609779	-152.448056	-79.642216	6.930817
08946		9.689948	-2.923622	0.785705	0.768373	3.110232	-0.179678	0.347373	-1.271573	-0.279210	-0.827881	0.270752	0.517578	0.096806	-0.029386	0.008422	0.219328	-0.738621	-0.200735	-0.605012	-154.716939	-79.052932	9.438782
08947		10.045343	-2.692388	0.846011	1.089199	3.060985	0.102759	0.342436	-1.371719	-0.359496	-0.818848	0.269531	0.521729	0.100344	-0.027120	0.009102	0.218144	-0.742056	-0.204566	-0.599933	-157.058990	-78.411821	12.026507
08948		10.459145	-2.613222	0.649651	1.141138	3.013204	0.495616	0.280752	-1.461379	-0.424575	-0.818604	0.276855	0.532715	0.104485	-0.026364	0.007223	0.216418	-0.745723	-0.208519	-0.594627	-159.417047	-77.716703	14.597804
08949		10.896490	-2.542731	0.516802	1.256822	3.030309	0.897179	0.244704	-1.543786	-0.481087	-0.810791	0.269287	0.544189	0.108859	-0.025696	0.005977	0.214303	-0.749563	-0.212671	-0.589068	-161.726492	-76.966632	17.108047
08950		11.309710	-2.398096	0.041436	1.150152	2.809773	1.342651	0.238115	-1.593824	-0.552120	-0.801270	0.272217	0.563721	0.113022	-0.024294	0.001286	0.211875	-0.753433	-0.217090	-0.583370	-163.965374	-76.180097	19.547080
08951		11.583471	-2.534352	-0.285083	0.976942	2.913492	1.643090	0.173563	-1.629955	-0.654836	-0.786621	0.257568	0.572266	0.115769	-0.025721	-0.001929	0.208861	-0.757304	-0.221748	-0.577664	-166.225544	-75.366871	21.980906
08952		11.911379	-2.536465	-0.504703	0.975566	2.992770	1.962599	0.282082	-1.607835	-0.788128	-0.774170	0.257324	0.587891	0.119048	-0.025828	-0.004126	0.205867	-0.760795	-0.227161	-0.572021	-168.436989	-74.560280	24.434725
08953		12.170767	-2.331677	-0.771258	1.031229	2.886482	2.218949	0.453915	-1.544480	-0.930210	-0.772217	0.256348	0.590088	0.121653	-0.023867	-0.006827	0.203189	-0.763696	-0.233544	-0.566515	-170.575848	-73.780354	26.927774
08954		12.214864	-1.793302	-1.170472	1.114258	2.418164	2.299136	0.724339	-1.448680	-1.074012	-0.760254	0.256348	0.600098	0.122131	-0.018548	-0.010886	0.201216	-0.765820	-0.241101	-0.561161	-172.593161	-73.042965	29.462313
08955		12.099319	-0.898442	-1.723722	1.246221	1.556430	2.278342	0.996215	-1.362849	-1.194655	-0.765381	0.247070	0.598877	0.121051	-0.009624	-0.016459	0.200042	-0.767202	-0.249794	-0.555865	-174.469370	-72.337719	32.024953
08956		11.761824	-0.958305	-2.173181	0.825786	1.475809	2.066650	1.117618	-1.291474	-1.265418	-0.756104	0.248535	0.613037	0.117692	-0.010209	-0.021028	0.199194	-0.768097	-0.258977	-0.550709	-176.218639	-71.653182	34.534488
08957		11.162887	-1.275526	-2.374854	0.353768	1.671957	1.543108	1.334583	-1.222826	-1.297286	-0.753174	0.248779	0.623291	0.111686	-0.013324	-0.023153	0.199167	-0.768449	-0.268801	-0.545495	-177.741228	-70.986593	36.948497
08958		10.765409	-1.231483	-2.731604	0.038650	1.497071	1.261057	1.612144	-1.159985	-1.302699	-0.749756	0.248291	0.625000	0.107728	-0.012799	-0.026793	0.200239	-0.768250	-0.279283	-0.540090	-178.979606	-70.338140	39.236554
08959		10.420545	-0.607798	-3.077387	0.128816	0.869474	1.034133	1.958406	-1.090253	-1.303539	-0.737793	0.246826	0.618896	0.104330	-0.006460	-0.030267	0.202716	-0.767392	-0.290612	-0.534379	-179.912160	-69.714933	41.422276
08960		10.035330	-0.041030	-3.470615	0.165691	0.230445	0.802064	2.165581	-1.014225	-1.287620	-0.742432	0.268799	0.619629	0.100524	-0.000685	-0.034203	0.206095	-0.766014	-0.302284	-0.528557	179.388308	-69.125287	43.491644
08961		9.585979	0.443625	-3.842647	0.176115	-0.366116	0.516281	2.348941	-0.945305	-1.271538	-0.741943	0.274414	0.628174	0.096067	0.004273	-0.037922	0.210294	-0.764136	-0.314271	-0.522595	178.888846	-68.567174	45.469883
08962		9.386401	0.963278	-3.835516	0.554711	-0.686314	0.334418	2.420598	-0.864226	-1.255936	-0.726807	0.281494	0.637695	0.094088	0.009502	-0.037833	0.214886	-0.761846	-0.326219	-0.516716	178.512038	-68.050834	47.365449
08963		9.435115	0.758310	-3.575759	0.639276	-0.264337	0.282022	2.243742	-0.707833	-1.201477	-0.735107	0.279297	0.631592	0.094522	0.007414	-0.035339	0.219165	-0.759282	-0.337292	-0.511558	178.153047	-67.619932	49.140842
08964		8.811475	1.562263	-3.956776	0.884304	-1.166857	-0.138256	2.392808	-0.495019	-1.135387	-0.731934	0.292725	0.629639	0.088301	0.015592	-0.039163	0.224490	-0.755994	-0.348180	-0.506801	177.996010	-67.309710	50.791993
08965		8.780348	3.610586	-2.432170	3.396038	-1.374243	-0.722939	1.910977	-0.308741	-1.086889	-0.732666	0.292480	0.629150	0.088036	0.035857	-0.023843	0.228417	-0.752738	-0.357423	-0.503448	177.641315	-67.103839	52.363999
08966		8.513155	3.058489	-1.911488	3.227554	-0.641174	-1.172479	1.215821	-0.058979	-0.992433	-0.735840	0.299072	0.622314	0.085288	0.030277	-0.018905	0.230380	-0.749754	-0.364223	-0.502131	177.014379	-67.038790	53.797937
08967		7.796945	1.998151	-1.739289	2.313985	-0.018275	-1.909842	0.949988	0.202798	-0.901851	-0.738525	0.301270	0.620605	0.078041	0.019712	-0.017378	0.232049	-0.746537	-0.369716	-0.502141	176.338175	-67.119583	55.122683
08968		7.521726	1.629249	-1.789326	1.893866	0.114944	-2.142463	0.821062	0.422325	-0.812571	-0.747314	0.302979	0.612305	0.075245	0.016061	-0.017986	0.233848	-0.743060	-0.374263	-0.503094	175.678141	-67.323989	56.345751
08969		7.627492	1.324870	-1.870201	1.578004	0.281435	-2.011280	0.651764	0.674913	-0.713032	-0.759521	0.298096	0.610840	0.076258	0.013038	-0.018917	0.235742	-0.739300	-0.377725	-0.505158	175.008879	-67.671163	57.473986
08970		7.586153	1.249937	-1.826523	1.472415	0.328002	-2.055613	0.512536	0.932810	-0.612769	-0.770264	0.306641	0.597412	0.075813	0.012314	-0.018587	0.237844	-0.735221	-0.380130	-0.508313	174.334879	-68.166338	58.515294
08971		7.626244	1.362836	-1.779124	1.526981	0.270085	-2.016733	0.343140	1.165189	-0.484329	-0.771973	0.297119	0.593506	0.076190	0.013475	-0.018212	0.240092	-0.730962	-0.381358	-0.512461	173.671778	-68.796382	59.439019
08972		7.660805	1.306938	-1.709672	1.450964	0.306351	-1.994832	0.169412	1.386537	-0.332728	-0.781006	0.299805	0.576660	0.076509	0.012957	-0.017616	0.242494	-0.726605	-0.381287	-0.517553	173.047028	-69.559242	60.208404
08973		7.731902	1.341279	-1.717140	1.405956	0.220559	-1.906789	0.068365	1.601255	-0.160577	-0.794189	0.299805	0.571289	0.077189	0.013357	-0.017785	0.245380	-0.722097	-0.380064	-0.523370	172.537858	-70.453122	60.791519
08974		7.937892	1.475494	-1.614828	1.522928	0.173843	-1.722965	-0.028707	1.784265	0.015389	-0.811035	0.304443	0.551758	0.079230	0.014759	-0.016858	0.248695	-0.717517	-0.377682	-0.529789	172.172283	-71.463448	61.157885
08975		8.198188	1.660522	-1.493773	1.696720	0.101270	-1.487568	-0.135427	1.934359	0.191459	-0.814209	0.297119	0.539795	0.081816	0.016673	-0.015741	0.252366	-0.712937	-0.374184	-0.536674	171.980115	-72.571594	61.277964
08976		8.534816	1.825521	-1.498118	1.789799	-0.063065	-1.140334	-0.259964	2.061982	0.375100	-0.827148	0.306885	0.526367	0.085153	0.018395	-0.015884	0.256289	-0.708446	-0.369482	-0.543970	172.013340	-73.767433	61.084771
08977		8.810947	2.061849	-1.329264	2.028993	-0.182840	-0.896571	-0.414939	2.158801	0.549973	-0.843750	0.307129	0.517090	0.087902	0.020831	-0.014285	0.260297	-0.704125	-0.363587	-0.551596	172.314577	-75.031049	60.524833
08978		9.121523	2.221112	-1.306189	2.123221	-0.389808	-0.583533	-0.595087	2.223125	0.714343	-0.850098	0.299072	0.494629	0.090982	0.022495	-0.014141	0.264193	-0.700069	-0.356465	-0.559498	172.950625	-76.342735	59.513400
08979		9.359581	2.099466	-1.279806	1.984695	-0.466110	-0.352973	-0.795633	2.265390	0.854718	-0.865723	0.308350	0.475830	0.093352	0.021340	-0.013941	0.267826	-0.696298	-0.348199	-0.567623	173.994467	-77.683208	57.974049
08980		9.598618	1.706568	-1.219149	1.653597	-0.368993	-0.135074	-0.991902	2.293806	0.981705	-0.868652	0.320313	0.468506	0.095752	0.017472	-0.013377	0.271127	-0.692815	-0.338818	-0.575934	175.598720	-79.038967	55.752729
08981		9.703215	1.236460	-1.202934	1.225520	-0.288748	-0.038358	-1.151033	2.293878	1.065719	-0.877686	0.314941	0.446045	0.096818	0.012807	-0.013213	0.274082	-0.689556	-0.328643	-0.584281	177.924983	-80.380851	52.718000
08982		9.863312	0.829322	-1.206291	0.846610	-0.256016	0.119082	-1.269452	2.273735	1.138239	-0.892578	0.322266	0.433838	0.098438	0.008772	-0.013237	0.276738	-0.686506	-0.317816	-0.592552	-178.684792	-81.683884	48.546376
08983		9.946648	0.534514	-1.272335	0.512258	-0.350472	0.209774	-1.379617	2.244241	1.188703	-0.902100	0.328125	0.418945	0.099281	0.005843	-0.013877	0.279077	-0.683631	-0.306484	-0.600693	-173.776683	-82.917684	42.795985
08984		10.060049	0.361048	-1.317678	0.288727	-0.502358	0.322905	-1.479527	2.198632	1.221404	-0.907471	0.327393	0.403809	0.100423	0.004121	-0.014311	0.281029	-0.680942	-0.294721	-0.608671	-166.669846	-84.037117	34.786769
08985		10.161099	0.319558	-1.375863	0.154424	-0.749037	0.417320	-1.569832	2.137101	1.225822	-0.908203	0.333008	0.394531	0.101434	0.003704	-0.014871	0.282551	-0.678425	-0.282711	-0.616425	-156.564135	-84.974596	23.731100
08986		10.200104	0.125941	-1.164109	0.086279	-0.691312	0.430509	-1.717761	2.065044	1.205848	-0.922852	0.336670	0.372559	0.101864	0.001768	-0.012707	0.283330	-0.676168	-0.270333	-0.624052	-142.931921	-85.646717	9.062750
08987		10.183635	-0.024324	-1.050237	-0.014367	-0.724469	0.399108	-1.807640	1.967916	1.162063	-0.925049	0.343018	0.361328	0.101726	0.000247	-0.011504	0.283494	-0.674134	-0.257923	-0.631388	-126.587760	-85.963052	-8.363423
08988		10.095161	0.048575	-0.997068	-0.001395	-0.942857	0.287612	-1.894692	1.869657	1.099810	-0.929688	0.349365	0.354736	0.100848	0.000940	-0.010921	0.282966	-0.672314	-0.245515	-0.638472	-110.143741	-85.909144	-25.939731
08989		9.865053	-0.213129	-0.953100	-0.233670	-0.902861	0.056478	-1.972720	1.742725	1.013361	-0.933838	0.336426	0.340332	0.098572	-0.001731	-0.010372	0.281702	-0.670765	-0.233296	-0.645207	-96.460981	-85.563493	-40.793754
08990		9.712781	-0.498869	-0.889385	-0.452702	-0.804199	-0.090337	-1.972209	1.610094	0.900046	-0.937500	0.350098	0.334717	0.097074	-0.004644	-0.009629	0.279849	-0.669384	-0.221583	-0.651545	-86.236162	-85.060952	-52.189687
08991		9.545989	-0.846627	-0.747406	-0.642529	-0.577329	-0.239101	-1.893480	1.468607	0.773636	-0.937012	0.345215	0.321045	0.095434	-0.008172	-0.008097	0.277660	-0.668098	-0.210728	-0.657376	-78.874637	-84.505328	-60.671383
08992		9.314750	-0.850942	-0.762441	-0.720843	-0.679514	-0.480620	-1.734370	1.319983	0.632138	-0.947754	0.357910	0.322998	0.093121	-0.008284	-0.008167	0.275326	-0.666836	-0.201028	-0.662656	-73.507769	-83.967468	-67.067251
08993		9.313569	-0.645624	-0.868443	-0.726834	-0.999458	-0.518309	-1.587690	1.170069	0.499549	-0.945801	0.346680	0.313232	0.093099	-0.006295	-0.009179	0.272874	-0.665657	-0.192456	-0.667384	-69.527481	-83.478804	-71.986999
08994		9.265012	-0.634865	-1.104462	-0.962392	-1.226076	-0.591342	-1.410300	1.034873	0.375309	-0.951172	0.343506	0.311035	0.092603	-0.006255	-0.011480	0.270428	-0.664507	-0.185039	-0.671610	-66.421628	-83.052993	-75.931056
08995		9.113225	-0.758941	-1.318849	-1.267058	-1.298915	-0.753264	-1.197051	0.904483	0.238216	-0.950439	0.337891	0.302979	0.091081	-0.007561	-0.013555	0.268105	-0.663334	-0.178974	-0.675334	-63.864353	-82.707777	-79.199726
08996		9.071618	-0.790999	-1.531491	-1.511443	-1.435048	-0.817065	-0.948334	0.786169	0.089018	-0.954590	0.341797	0.298340	0.090659	-0.007943	-0.015634	0.265968	-0.662062	-0.174377	-0.678621	-61.569267	-82.452733	-82.065362
08997		9.110765	-0.612443	-1.774385	-1.655180	-1.751298	-0.828112	-0.657093	0.677402	-0.045174	-0.965332	0.337402	0.302979	0.091046	-0.006204	-0.018032	0.264255	-0.660635	-0.171369	-0.681443	-59.390478	-82.281223	-84.643830
08998		9.148395	-0.402704	-2.077871	-1.832757	-2.115815	-0.849603	-0.376548	0.587835	-0.181110	-0.958496	0.332031	0.289063	0.091419	-0.004149	-0.021040	0.262906	-0.659015	-0.169864	-0.683905	-57.160698	-82.189806	-87.115134
08999		9.059689	-0.407932	-2.352799	-2.114340	-2.263040	-0.970291	-0.137161	0.505586	-0.311971	-0.954346	0.334473	0.291260	0.090531	-0.004237	-0.023754	0.261843	-0.657242	-0.169732	-0.686048	-54.822307	-82.173839	-89.555141
09000		8.823197	-0.047679	-2.494173	-2.071622	-2.598226	-1.266966	0.116124	0.424248	-0.430261	-0.957275	0.331543	0.283447	0.088178	-0.000652	-0.025129	0.261119	-0.655311	-0.170948	-0.687867	-52.316573	-82.225961	-92.020061
09001		8.665470	0.381014	-2.679436	-2.017262	-3.018652	-1.492042	0.342961	0.339530	-0.517008	-0.968750	0.323242	0.271484	0.086619	0.003632	-0.026935	0.260781	-0.653294	-0.173351	-0.689311	-49.691884	-82.332402	-94.470812
09002		8.668634	0.860898	-2.931016	-1.979148	-3.535207	-1.562696	0.516242	0.276092	-0.591411	-0.969727	0.321045	0.278320	0.086671	0.008428	-0.029408	0.260679	-0.651196	-0.176663	-0.690493	-46.879465	-82.479028	-97.012380
09003		8.678771	1.253375	-3.107674	-1.923422	-3.934445	-1.604758	0.601558	0.228853	-0.639095	-0.960449	0.326904	0.268311	0.086792	0.012350	-0.031139	0.260658	-0.649096	-0.180495	-0.691487	-43.914759	-82.647145	-99.654992
09004		8.643871	1.274172	-3.363907	-2.145169	-4.075586	-1.661391	0.664471	0.207492	-0.657986	-0.970459	0.318604	0.267334	0.086445	0.012569	-0.033687	0.260737	-0.646957	-0.184618	-0.692371	-40.785875	-82.813151	-102.427974
09005		8.450665	1.124431	-3.636266	-2.473437	-4.073986	-1.863777	0.741128	0.203886	-0.688396	-0.974365	0.311035	0.271973	0.084508	0.011088	-0.036408	0.260964	-0.644687	-0.189117	-0.693190	-37.383280	-82.971566	-105.429338
09006		8.386660	1.028055	-3.686736	-2.594620	-4.000825	-1.923058	0.753884	0.190888	-0.704702	-0.973145	0.317139	0.262207	0.083867	0.010124	-0.036909	0.261140	-0.642414	-0.193714	-0.693963	-33.804305	-83.118648	-108.602352
09007		8.444684	0.988015	-3.621240	-2.595122	-3.915922	-1.854483	0.738833	0.191480	-0.720557	-0.972900	0.304932	0.260254	0.084447	0.009710	-0.036257	0.261222	-0.640124	-0.198314	-0.694749	-30.034774	-83.245287	-111.972735
09008		8.362164	1.236821	-3.592910	-2.442756	-4.063446	-1.945937	0.730627	0.208864	-0.727820	-0.976074	0.302002	0.252197	0.083629	0.012195	-0.035972	0.261248	-0.637763	-0.202872	-0.695594	-26.076122	-83.337983	-115.539571
09009		8.290150	1.507662	-3.675638	-2.361749	-4.297122	-2.036652	0.654347	0.212074	-0.697022	-0.978760	0.300781	0.251709	0.082915	0.014908	-0.036795	0.261149	-0.635502	-0.207066	-0.696464	-22.210176	-83.393015	-119.054481
09010		8.318995	1.680860	-3.492259	-2.140008	-4.300147	-1.992468	0.494545	0.223530	-0.630022	-0.974365	0.304199	0.248779	0.083203	0.016633	-0.034974	0.260767	-0.633470	-0.210463	-0.697439	-18.683453	-83.402421	-122.321854
09011		8.640994	1.963926	-3.117762	-1.723093	-4.296175	-1.638465	0.329914	0.226092	-0.574762	-0.976807	0.294922	0.239746	0.086431	0.019442	-0.031243	0.260070	-0.631690	-0.213114	-0.698508	-15.515867	-83.378942	-125.320689
09012		10.048691	5.120569	-0.426092	2.213771	-5.155174	-0.019787	0.202448	0.226234	-0.656687	-0.984863	0.298584	0.240479	0.100649	0.050880	-0.004323	0.258668	-0.629984	-0.215569	-0.699815	-12.055223	-83.346968	-128.689947
09013		10.159307	2.007724	-3.531345	-2.219577	-4.671371	-0.170897	-1.253508	0.103392	-0.259010	-0.981445	0.291260	0.247314	0.101600	0.019724	-0.035490	0.253946	-0.630998	-0.211836	-0.701768	-11.490042	-83.323468	-129.982425
09014		11.378004	-5.825330	-3.003012	-6.794994	1.696462	1.294125	-1.741471	0.371603	0.535246	-0.982178	0.289307	0.240479	0.113880	-0.058208	-0.029735	0.250725	-0.632496	-0.203526	-0.704034	-14.644406	-83.051146	-127.812483
09015		13.746979	-4.642134	-1.714231	-5.181387	1.295201	3.786672	-1.074054	0.326686	0.684668	-0.984619	0.296387	0.249268	0.137600	-0.046042	-0.017119	0.250093	-0.633422	-0.197141	-0.705242	-17.926738	-82.765019	-125.125355
09016		14.496338	-4.145999	-2.842328	-5.786004	0.094137	4.397338	-1.705426	0.457390	0.806897	-0.981689	0.296143	0.247070	0.145065	-0.041117	-0.028403	0.247990	-0.634757	-0.187960	-0.707287	-21.617497	-82.365561	-122.390710
09017		12.871372	-1.756325	-1.627618	-3.262996	-1.006058	2.826394	-1.780085	0.571081	0.626012	-0.979492	0.291016	0.247070	0.128721	-0.017306	-0.016489	0.245107	-0.635548	-0.178936	-0.709917	-24.168789	-81.927280	-120.845210
09018		11.644101	-4.319352	-1.439532	-4.466665	1.315460	1.790426	-2.579751	0.420500	0.466367	-0.975098	0.293213	0.240723	0.116512	-0.043105	-0.014084	0.238933	-0.637629	-0.167733	-0.712885	-26.655574	-81.597982	-119.828258
09019		12.118273	-7.706115	-2.080862	-6.820189	3.770980	2.427798	-2.441468	0.290435	0.297283	-0.977783	0.298096	0.241699	0.121268	-0.077129	-0.020043	0.232464	-0.639756	-0.157698	-0.715405	-28.602343	-81.373607	-119.274605
09020		12.214341	-9.549591	-2.411365	-7.965204	5.238885	2.649520	-2.043574	0.201378	0.169079	-0.975830	0.282471	0.253662	0.122201	-0.095633	-0.023260	0.226697	-0.641560	-0.149573	-0.717382	-30.011306	-81.227970	-119.035476
09021		12.130614	-9.989989	-2.222293	-7.916474	5.808825	2.656323	-1.364202	0.216897	0.126988	-0.983154	0.285400	0.249756	0.121346	-0.099972	-0.021673	0.222964	-0.642452	-0.143997	-0.718893	-30.845502	-81.085604	-118.982638
09022		11.276846	-9.162414	-1.817712	-7.037547	5.451743	1.813687	-0.458354	0.268021	0.020981	-0.979248	0.284668	0.251465	0.112754	-0.091654	-0.018118	0.221777	-0.642063	-0.141946	-0.720014	-30.731403	-80.949725	-119.366305
09023		10.176008	-6.218009	0.045900	-3.887439	3.979636	0.735630	0.260014	0.280378	-0.152358	-0.985107	0.282715	0.243164	0.101713	-0.062258	0.000235	0.222293	-0.640700	-0.143033	-0.720854	-29.658909	-80.856451	-120.301945
09024		10.105302	-2.593511	1.668124	-0.709477	1.670144	0.595629	0.679351	0.243061	-0.267457	-0.988037	0.285889	0.244629	0.101038	-0.026126	0.016470	0.223696	-0.638925	-0.146030	-0.721395	-28.076260	-80.810916	-121.513105
09025		9.813689	1.294277	2.842131	2.257298	-1.014232	0.184164	0.801580	0.181597	-0.306034	-0.981689	0.279785	0.236572	0.098182	0.012679	0.028383	0.225314	-0.637188	-0.149668	-0.721682	-26.410711	-80.800777	-122.735441
09026		9.810949	3.208879	3.269415	3.586266	-2.395873	0.119031	0.467909	0.080683	-0.243995	-0.991455	0.282959	0.236572	0.098162	0.031893	0.032729	0.226003	-0.636237	-0.152006	-0.721817	-25.294128	-80.823008	-123.597240
09027		9.640430	2.726355	2.997923	3.108861	-2.076245	-0.046285	0.133751	0.048143	-0.124770	-0.987061	0.279785	0.246094	0.096428	0.027183	0.029974	0.226045	-0.635861	-0.152804	-0.721966	-24.794840	-80.830692	-124.025730
09028		9.314893	0.770462	2.700357	1.859471	-0.512976	-0.276860	0.014284	0.061069	-0.058524	-0.979248	0.272949	0.243652	0.093159	0.007675	0.026976	0.225944	-0.635632	-0.152937	-0.722172	-24.560471	-80.815950	-124.257153
09029		9.316641	-1.240623	2.389071	0.538865	1.043642	-0.186316	0.182022	0.058861	-0.074507	-0.990479	0.271973	0.233887	0.093169	-0.012463	0.023852	0.226329	-0.635201	-0.153738	-0.722260	-24.180250	-80.805353	-124.537033
09030		9.323069	-2.119295	2.159489	-0.134192	1.680468	-0.156997	0.513666	0.087998	-0.131621	-0.988037	0.278320	0.238281	0.093226	-0.021310	0.021499	0.227568	-0.634250	-0.155873	-0.722249	-23.386551	-80.792805	-125.045444
09031		9.175187	-1.441149	1.911225	-0.005577	1.010563	-0.384414	0.876773	0.123683	-0.196916	-0.992676	0.280273	0.239014	0.091749	-0.014585	0.018992	0.229762	-0.632691	-0.159496	-0.722131	-22.123926	-80.773831	-125.816020
09032		9.119516	-0.090759	2.064359	0.816407	-0.019493	-0.497735	0.900208	0.097342	-0.226808	-0.986328	0.278564	0.234375	0.091204	-0.001104	0.020595	0.231883	-0.631170	-0.163313	-0.721931	-20.789467	-80.772925	-126.647848
09033		9.529572	0.398650	2.209713	1.139092	-0.379402	-0.096056	0.656345	0.065122	-0.206382	-0.988281	0.280762	0.235596	0.095307	0.003816	0.022079	0.233291	-0.630047	-0.166231	-0.721792	-19.699647	-80.781921	-127.371319
09034		9.361216	0.927665	2.203037	1.420869	-0.781223	-0.288137	0.435042	0.077597	-0.172732	-0.989258	0.278076	0.225830	0.093629	0.009148	0.022014	0.234119	-0.629166	-0.168218	-0.721832	-18.835036	-80.776371	-127.997146
09035		9.019529	0.926364	2.223351	1.458068	-0.711241	-0.619130	0.094768	0.040151	-0.146220	-0.992432	0.277100	0.229492	0.090206	0.009187	0.022220	0.233952	-0.628833	-0.168948	-0.722006	-18.294800	-80.784552	-128.489805
09036		9.086894	0.146292	1.960570	0.797536	-0.202185	-0.552022	-0.205187	0.001153	-0.142527	-0.981445	0.270508	0.227539	0.090870	0.001418	0.019604	0.232811	-0.629000	-0.168618	-0.722306	-17.981918	-80.813249	-128.928144
09037		9.320884	-0.237969	1.852159	0.470541	0.038447	-0.318314	-0.339497	-0.009433	-0.153616	-0.989990	0.271240	0.235352	0.093206	-0.002420	0.018530	0.231210	-0.629344	-0.167860	-0.722697	-17.716135	-80.848784	-129.394763
09038		9.599502	-0.561488	1.603224	0.057286	0.150230	-0.065371	-0.407753	-0.001253	-0.166270	-0.988770	0.270508	0.235596	0.095990	-0.005662	0.016044	0.229340	-0.629731	-0.166875	-0.723184	-17.436125	-80.882223	-129.917434
09039		9.601141	-0.865228	1.450834	-0.236912	0.333086	-0.072648	-0.365704	0.019521	-0.162134	-0.993896	0.264893	0.241943	0.096006	-0.008704	0.014515	0.227648	-0.629989	-0.166015	-0.723692	-17.120207	-80.902624	-130.449955
09040		9.791904	-0.710805	1.162200	-0.419889	0.037385	0.064539	-0.200138	0.039517	-0.157550	-0.988770	0.265137	0.235107	0.097916	-0.007174	0.011610	0.226496	-0.629995	-0.165704	-0.724119	-16.703840	-80.911306	-130.990326
09041		9.739382	-0.288915	1.174862	-0.185627	-0.295964	-0.004667	-0.176137	0.043266	-0.158701	-0.991943	0.261719	0.232910	0.097394	-0.002956	0.011730	0.225432	-0.629951	-0.165491	-0.724538	-16.263966	-80.916933	-131.538351
09042		9.938416	-0.176949	1.303216	-0.047671	-0.337925	0.206560	-0.104006	0.039690	-0.143816	-0.985840	0.263184	0.229492	0.099385	-0.001834	0.013013	0.224633	-0.629857	-0.165487	-0.724868	-15.838242	-80.922060	-132.032218
09043		9.829204	-0.364358	1.386487	-0.074894	-0.114675	0.119562	-0.080357	0.037040	-0.143954	-0.991211	0.264404	0.233398	0.098292	-0.003709	0.013848	0.223919	-0.629739	-0.165581	-0.725170	-15.399332	-80.927541	-132.523678
09044		9.627568	-0.375373	1.772756	0.256452	0.128671	-0.020278	0.001746	0.037056	-0.137165	-0.992676	0.254395	0.235840	0.096276	-0.003820	0.017710	0.223476	-0.629541	-0.165942	-0.725396	-14.937632	-80.931916	-132.992357
09045		9.704991	-0.504808	2.156630	0.493883	0.439544	0.119865	-0.005749	0.003108	-0.142100	-0.996826	0.250488	0.235840	0.097047	-0.005116	0.021565	0.222975	-0.629464	-0.166339	-0.725527	-14.491911	-80.954707	-133.447402
09046		9.567703	-0.712052	2.194304	0.424953	0.662476	-0.002313	0.025013	-0.029857	-0.148920	-0.988525	0.251465	0.249756	0.095668	-0.007195	0.021956	0.222503	-0.629473	-0.166894	-0.725536	-14.032183	-80.996763	-133.901028
09047		9.719737	-0.732976	2.419925	0.584058	0.796545	0.181859	0.024548	-0.075752	-0.163970	-0.995605	0.257813	0.235840	0.097182	-0.007412	0.024235	0.221952	-0.629629	-0.167557	-0.725417	-13.553521	-81.065267	-134.371738
09048		9.798251	-1.036065	2.416036	0.410663	1.060427	0.268146	0.015975	-0.096628	-0.167631	-0.987549	0.250244	0.248291	0.097962	-0.010445	0.024207	0.221329	-0.629873	-0.168212	-0.725243	-13.077704	-81.145813	-134.846706
09049		9.695707	-1.164033	2.163462	0.141925	1.068064	0.131221	0.085694	-0.111473	-0.179643	-0.989502	0.246338	0.243896	0.096934	-0.011737	0.021684	0.220883	-0.630077	-0.169186	-0.724976	-12.520614	-81.234982	-135.361124
09050		9.644813	-0.668592	1.964143	0.244635	0.573562	0.033043	0.154506	-0.134201	-0.195439	-0.981201	0.244629	0.248779	0.096428	-0.006795	0.019701	0.220562	-0.630279	-0.170471	-0.724596	-11.873486	-81.338475	-135.929018
09051		9.743090	-0.539905	1.485572	-0.097297	0.228357	0.054661	0.160194	-0.152253	-0.195450	-0.987793	0.235352	0.237305	0.097414	-0.005506	0.014925	0.220258	-0.630533	-0.171809	-0.724152	-11.220983	-81.450606	-136.496482
09052		9.932428	-0.480894	0.941953	-0.538813	-0.102130	0.160821	0.162598	-0.153761	-0.186725	-0.985352	0.243652	0.247559	0.099312	-0.004909	0.009492	0.219976	-0.630802	-0.173116	-0.723692	-10.586092	-81.562190	-137.046991
09053		9.768128	-0.081513	0.615651	-0.577092	-0.571231	-0.058580	0.190137	-0.138192	-0.182488	-0.984131	0.239258	0.247559	0.097676	-0.000910	0.006223	0.219825	-0.630980	-0.174505	-0.723248	-9.924463	-81.663129	-137.606017
09054		9.764696	0.179983	0.476649	-0.549689	-0.842931	-0.086633	0.141993	-0.125168	-0.171566	-0.985352	0.243896	0.250488	0.097645	0.001713	0.004829	0.219558	-0.631180	-0.175659	-0.722876	-9.310965	-81.755277	-138.146475
09055		9.837633	0.256442	0.423184	-0.559120	-0.923549	-0.021963	0.107332	-0.093207	-0.148773	-0.979980	0.236328	0.252197	0.098376	0.002489	0.004279	0.219306	-0.631314	-0.176592	-0.722608	-8.774093	-81.825977	-138.627133
09056		9.636453	0.499874	0.354252	-0.463095	-1.130030	-0.234319	0.105706	-0.070066	-0.136282	-0.979004	0.233398	0.249756	0.096367	0.004931	0.003579	0.219100	-0.631384	-0.177443	-0.722402	-8.266472	-81.882434	-139.081452
09057		9.666046	0.530933	0.493412	-0.332911	-1.070553	-0.184558	0.060244	-0.070090	-0.121635	-0.986816	0.239258	0.255127	0.096662	0.005249	0.004970	0.218818	-0.631509	-0.178095	-0.722217	-7.836213	-81.936643	-139.481533
09058		9.868820	0.274204	1.134793	0.042775	-0.518901	0.111297	-0.018372	-0.059913	-0.094329	-0.985596	0.231689	0.264893	0.098686	0.002697	0.011377	0.218379	-0.631715	-0.178353	-0.722106	-7.550940	-81.983221	-139.783034
09059		9.568144	0.309281	1.702547	0.567779	-0.209256	-0.108176	0.010509	-0.026335	-0.084579	-0.988770	0.230225	0.258789	0.095680	0.003051	0.017038	0.218112	-0.631769	-0.178660	-0.722063	-7.267284	-82.009197	-140.063763
09060		9.303063	0.449750	2.022086	0.938910	-0.125010	-0.328970	0.005487	-0.050491	-0.078808	-0.984863	0.229980	0.253906	0.093027	0.004460	0.020244	0.217810	-0.631929	-0.178943	-0.721944	-7.020410	-82.048937	-140.313053
09061		9.534150	-0.032749	2.421711	0.989966	0.481651	-0.037528	-0.051804	-0.072587	-0.063384	-0.989746	0.230225	0.260742	0.095333	-0.000351	0.024252	0.217382	-0.632237	-0.179009	-0.721788	-6.877812	-82.099435	-140.487356
09062		9.648011	-0.148103	2.499552	0.985779	0.619364	0.086728	0.019432	-0.094775	-0.068495	-0.976074	0.241211	0.256592	0.096468	-0.001517	0.025041	0.217123	-0.632550	-0.179359	-0.721504	-6.682072	-82.163413	-140.676656
09063		9.562861	-0.176310	2.650032	1.111855	0.743073	0.021623	0.083815	-0.136570	-0.066154	-0.980957	0.234619	0.264404	0.095610	-0.001806	0.026565	0.217056	-0.632938	-0.179992	-0.721026	-6.475578	-82.250355	-140.836967
09064		9.702429	-0.318803	2.675388	1.050479	0.880093	0.163202	0.130698	-0.171543	-0.065799	-0.984131	0.229248	0.267822	0.097000	-0.003237	0.026835	0.217093	-0.633408	-0.180820	-0.720395	-6.256190	-82.357622	-140.985366
09065		9.607063	-0.117923	2.675242	1.179511	0.737552	0.063102	0.188548	-0.192499	-0.069894	-0.982666	0.229492	0.272461	0.096044	-0.001238	0.026844	0.217293	-0.633879	-0.181903	-0.719648	-5.989711	-82.476479	-141.145574
09066		9.492834	-0.096762	2.470815	1.045129	0.640268	-0.079965	0.197778	-0.241940	-0.071055	-0.984863	0.227539	0.271240	0.094898	-0.001026	0.024822	0.217454	-0.634523	-0.183061	-0.718737	-5.727986	-82.623993	-141.298351
09067		9.695319	-0.262477	2.181755	0.710696	0.630410	0.083048	0.205197	-0.290947	-0.069171	-0.975830	0.235596	0.274658	0.096920	-0.002681	0.021956	0.217619	-0.635327	-0.184308	-0.717658	-5.483405	-82.798750	-141.426760
09068		9.944187	-0.375899	1.928168	0.433775	0.594375	0.296934	0.240795	-0.322672	-0.070665	-0.975586	0.226318	0.287354	0.099409	-0.003817	0.019438	0.217844	-0.636209	-0.185707	-0.716446	-5.215721	-82.992075	-141.560438
09069		9.815691	-0.057862	1.842541	0.571907	0.318887	0.153115	0.249336	-0.340953	-0.067782	-0.967041	0.224121	0.283936	0.098125	-0.000635	0.018592	0.218106	-0.637141	-0.187160	-0.715159	-4.953111	-83.195145	-141.681426
09070		9.544065	0.120147	1.687699	0.591168	0.133236	-0.138774	0.224805	-0.361349	-0.063679	-0.978271	0.221924	0.284668	0.095410	0.001152	0.017051	0.218264	-0.638181	-0.188517	-0.713826	-4.721484	-83.410064	-141.788344
09071		9.668244	0.183751	1.632756	0.596861	0.068586	-0.024249	0.158505	-0.390719	-0.051521	-0.972168	0.228027	0.283203	0.096651	0.001800	0.016518	0.218245	-0.639398	-0.189647	-0.712441	-4.591699	-83.640684	-141.827924
09072		9.592964	0.292608	1.446276	0.539168	-0.091890	-0.122331	0.163270	-0.405238	-0.050037	-0.966309	0.230713	0.294678	0.095901	0.002890	0.014659	0.218214	-0.640668	-0.190789	-0.711004	-4.466628	-83.879957	-141.862783
09073		9.618201	0.307541	1.215049	0.385433	-0.205793	-0.123020	0.154240	-0.421939	-0.041728	-0.965820	0.226318	0.298828	0.096157	0.003046	0.012356	0.218185	-0.642005	-0.191903	-0.709506	-4.393861	-84.127958	-141.847451
09074		9.627711	0.291491	1.228968	0.420659	-0.157852	-0.112887	0.126599	-0.436904	-0.034199	-0.961670	0.221191	0.302490	0.096250	0.002891	0.012502	0.218059	-0.643435	-0.192897	-0.707977	-4.384908	-84.384607	-141.786721
09075		9.499051	0.523994	1.317110	0.667375	-0.267051	-0.235398	0.133366	-0.441073	-0.026348	-0.962158	0.229492	0.306641	0.094962	0.005219	0.013384	0.217997	-0.644870	-0.193907	-0.706413	-4.424624	-84.642862	-141.670418
09076		9.484358	0.574840	1.090657	0.544469	-0.407095	-0.272735	0.129917	-0.443046	-0.025036	-0.955811	0.232422	0.316406	0.094820	0.005729	0.011120	0.217906	-0.646321	-0.194886	-0.704844	-4.483133	-84.902603	-141.540189
09077		9.616569	0.391074	0.911417	0.320017	-0.335675	-0.156250	0.117811	-0.443323	-0.007748	-0.960205	0.218018	0.318359	0.096145	0.003902	0.009330	0.217854	-0.647792	-0.195782	-0.703260	-4.676374	-85.161257	-141.278826
09078		9.476622	0.563403	0.776129	0.350180	-0.521604	-0.308408	0.140486	-0.439123	0.000874	-0.953857	0.234131	0.323242	0.094749	0.005629	0.007973	0.217889	-0.649236	-0.196707	-0.701658	-4.939806	-85.417441	-140.937177
09079		9.585020	0.291070	0.620259	0.098183	-0.365152	-0.210660	0.097508	-0.434855	0.010459	-0.948242	0.223633	0.329834	0.095836	0.002913	0.006412	0.217841	-0.650710	-0.197461	-0.700094	-5.334751	-85.670098	-140.485358
09080		9.619980	0.157674	0.632614	0.067625	-0.227402	-0.173566	0.095175	-0.422074	0.022593	-0.947021	0.234619	0.328369	0.096186	0.001585	0.006530	0.217820	-0.652158	-0.198137	-0.698560	-5.868919	-85.914927	-139.898439
09081		9.504944	0.391530	0.533225	0.159070	-0.450113	-0.296725	0.137273	-0.411859	0.023258	-0.943604	0.236328	0.331543	0.095038	0.003923	0.005531	0.217967	-0.653514	-0.198961	-0.697011	-6.446573	-86.153034	-139.240920
09082		9.767717	0.203532	0.233142	-0.171240	-0.454820	-0.052168	0.073166	-0.421151	0.043037	-0.946777	0.234863	0.337158	0.097672	0.002055	0.002538	0.217946	-0.654996	-0.199492	-0.695473	-7.331851	-86.394885	-138.314783
09083		9.946133	0.340549	0.235574	-0.062002	-0.555968	0.126324	-0.005226	-0.405903	0.072184	-0.944336	0.229492	0.342773	0.099455	0.003441	0.002558	0.217801	-0.656530	-0.199652	-0.694025	-8.652729	-86.624148	-136.994813
09084		9.701806	0.441389	0.170433	-0.010058	-0.650674	-0.121180	-0.035057	-0.393774	0.085634	-0.942627	0.231689	0.353271	0.097013	0.004456	0.001895	0.217597	-0.658072	-0.199634	-0.692632	-10.297052	-86.843586	-135.371213
09085		9.815916	0.141310	0.212212	-0.110680	-0.370180	-0.001072	-0.122588	-0.402518	0.105105	-0.929199	0.225586	0.350098	0.098154	0.001466	0.002319	0.217182	-0.659748	-0.199273	-0.691270	-12.469653	-87.062093	-133.266238
09086		9.939855	-0.057821	0.505400	0.055120	-0.033664	0.139959	-0.115769	-0.385421	0.126021	-0.932861	0.231201	0.353516	0.099389	-0.000513	0.005246	0.216856	-0.661384	-0.198831	-0.689936	-15.166112	-87.263774	-130.636456
09087		9.600566	-0.182220	0.492205	0.024597	0.084214	-0.198193	-0.076367	-0.381388	0.128023	-0.939453	0.232422	0.363281	0.095997	-0.001759	0.005106	0.216692	-0.662954	-0.198529	-0.688566	-18.263846	-87.455598	-127.579598
09088		9.610925	-0.171246	0.644601	0.196735	0.170864	-0.182180	-0.050267	-0.411405	0.130141	-0.928467	0.236572	0.369629	0.096097	-0.001648	0.006644	0.216570	-0.664605	-0.198325	-0.687069	-22.019499	-87.654907	-123.852838
09089		9.916084	-0.421829	1.062371	0.437898	0.613878	0.140529	-0.027683	-0.432539	0.135944	-0.916260	0.237061	0.373291	0.099140	-0.004149	0.010839	0.216542	-0.666300	-0.198218	-0.685466	-26.655297	-87.851284	-119.229717
09090		9.671679	-0.382987	1.355535	0.750244	0.766896	-0.098039	0.063659	-0.426681	0.127589	-0.921387	0.230225	0.374756	0.096690	-0.003773	0.013760	0.216773	-0.667871	-0.198427	-0.683801	-31.955899	-88.031135	-113.892742
09091		9.300668	-0.308547	1.337119	0.824084	0.720895	-0.475314	0.083052	-0.459580	0.122023	-0.916992	0.243408	0.383301	0.092977	-0.003034	0.013584	0.217037	-0.669517	-0.198773	-0.682006	-38.535114	-88.207068	-107.262746
09092		9.507584	-0.321332	1.433145	0.939421	0.795460	-0.271417	0.062294	-0.506901	0.131458	-0.918701	0.244141	0.389893	0.095041	-0.003155	0.014571	0.217195	-0.671359	-0.199049	-0.680062	-47.258557	-88.369244	-98.503342
09093		9.739172	-0.388522	1.165188	0.728450	0.712096	-0.049382	0.070795	-0.537320	0.129016	-0.915283	0.243164	0.379150	0.097362	-0.003827	0.011912	0.217361	-0.673280	-0.199410	-0.678000	-58.125463	-88.495981	-87.592184
09094		9.675535	-0.411058	0.967189	0.604691	0.641525	-0.120272	0.061230	-0.580613	0.124267	-0.913330	0.246582	0.390625	0.096729	-0.004053	0.009951	0.217415	-0.675354	-0.199785	-0.675806	-71.374287	-88.570920	-74.307326
09095		9.783713	-0.597138	0.901676	0.501944	0.778186	-0.013054	0.044454	-0.608261	0.126750	-0.915283	0.241455	0.400146	0.097813	-0.005911	0.009313	0.217410	-0.677530	-0.200138	-0.673522	-85.890131	-88.563240	-59.761873
09096		9.783937	-0.663586	0.864597	0.491398	0.836354	-0.016156	0.047069	-0.627035	0.115630	-0.910400	0.248535	0.399658	0.097815	-0.006581	0.008951	0.217336	-0.679754	-0.200539	-0.671180	-99.853098	-88.471884	-45.770771
09097		9.456733	-0.546029	0.889041	0.629874	0.785563	-0.352024	0.032872	-0.661996	0.104260	-0.902344	0.245361	0.419434	0.094540	-0.005412	0.009202	0.217158	-0.682085	-0.200985	-0.668736	-112.336862	-88.300658	-33.263627
09098		9.565613	-0.510003	0.616265	0.488218	0.628830	-0.246776	0.029965	-0.711536	0.096737	-0.893555	0.251465	0.422607	0.095636	-0.005055	0.006502	0.216872	-0.684576	-0.201479	-0.666129	-122.947976	-88.053081	-22.633571
09099		9.805811	-0.711502	0.491297	0.344035	0.753826	-0.003791	0.009661	-0.762436	0.091230	-0.888916	0.250000	0.427979	0.098042	-0.007071	0.005286	0.216464	-0.687237	-0.201995	-0.663360	-131.568387	-87.737654	-14.002217
09100		9.880847	-0.728669	0.766317	0.633434	0.958538	0.057914	0.030983	-0.797859	0.091554	-0.882324	0.255859	0.433350	0.098780	-0.007243	0.008056	0.216072	-0.689988	-0.202597	-0.660442	-138.258885	-87.368522	-7.291493
09101		10.120118	-0.397990	1.037649	1.128114	0.876882	0.267477	0.062969	-0.843420	0.090091	-0.890137	0.246826	0.444092	0.101158	-0.003938	0.010802	0.215755	-0.692834	-0.203374	-0.657320	-143.534553	-86.952141	-1.973623
09102		9.810506	-0.286646	1.207496	1.391334	0.923204	-0.066022	0.063032	-0.892945	0.097842	-0.881348	0.250732	0.445801	0.098051	-0.002822	0.012512	0.215389	-0.695844	-0.204155	-0.654010	-147.702823	-86.489560	2.233992
09103		9.642597	-0.653598	0.912003	1.009223	1.100931	-0.220641	0.133497	-0.949993	0.092846	-0.865967	0.249512	0.460205	0.096384	-0.006498	0.009574	0.215209	-0.698938	-0.205259	-0.650415	-151.104343	-85.985649	5.719112
09104		10.093904	-1.215480	0.501444	0.468013	1.380746	0.261509	0.260899	-1.006962	0.082012	-0.859375	0.261475	0.464600	0.100917	-0.012120	0.005507	0.215355	-0.702057	-0.206852	-0.646491	-153.915509	-85.443921	8.684300
09105		10.134691	-1.345963	0.521843	0.498418	1.551019	0.293797	0.476556	-1.029969	0.067406	-0.858887	0.271729	0.471436	0.101323	-0.013439	0.005708	0.216200	-0.704976	-0.209231	-0.642254	-156.134534	-84.884751	11.184880
09106		9.669571	-1.184731	0.464761	0.583400	1.431159	-0.182999	0.726107	-1.049279	0.023963	-0.849854	0.268066	0.479980	0.096671	-0.011854	0.005112	0.217740	-0.707621	-0.212560	-0.637715	-158.024908	-84.317791	13.498246
09107		9.301659	-1.037806	0.500563	0.736425	1.380853	-0.571549	0.841874	-1.111088	-0.030773	-0.843018	0.265869	0.493896	0.092985	-0.010415	0.005478	0.219457	-0.710241	-0.216527	-0.632861	-159.847202	-83.722404	15.815113
09108		9.209922	-0.605110	0.974566	1.435086	1.372070	-0.746508	0.881221	-1.192715	-0.072263	-0.848389	0.281006	0.502930	0.092037	-0.006129	0.010268	0.221064	-0.713001	-0.220824	-0.627692	-161.596530	-83.083388	18.080626
09109		9.330257	-0.328961	0.978264	1.693525	1.235316	-0.662623	0.884698	-1.288171	-0.112511	-0.833984	0.263184	0.509033	0.093235	-0.003387	0.010368	0.222457	-0.715963	-0.225388	-0.622182	-163.285533	-82.391748	20.293880
09110		9.710877	-0.805932	1.067720	1.611135	1.775880	-0.307965	0.697933	-1.389310	-0.123019	-0.832275	0.286377	0.519531	0.097027	-0.008158	0.011323	0.223002	-0.719399	-0.229485	-0.616499	-164.893063	-81.638230	22.316969
09111		10.293971	-1.328993	1.032186	1.438327	2.298661	0.259211	0.637943	-1.449614	-0.132640	-0.813721	0.277588	0.519287	0.102853	-0.013393	0.011025	0.223238	-0.723025	-0.233507	-0.610634	-166.315340	-80.845507	24.125446
09112		10.775424	-1.261452	0.416237	1.170471	2.005452	0.792996	0.688180	-1.474995	-0.163137	-0.811035	0.283447	0.525879	0.107710	-0.012718	0.004913	0.223501	-0.726596	-0.237784	-0.604620	-167.566958	-80.036396	25.790846
09113		10.936156	-1.463470	-0.082514	0.791965	1.979206	1.013281	0.595487	-1.486344	-0.180383	-0.805664	0.289551	0.541260	0.109351	-0.014732	-0.000056	0.223364	-0.730229	-0.241862	-0.598646	-168.707506	-79.217334	27.296799
09114		10.603773	-1.394842	-0.185966	0.803895	1.943334	0.675185	0.615508	-1.486268	-0.245503	-0.791748	0.294678	0.560547	0.106031	-0.014074	-0.001115	0.223075	-0.733718	-0.246201	-0.592689	-169.828820	-78.400160	28.795849
09115		10.424515	-1.055384	-0.637919	0.740409	1.495547	0.550925	0.645940	-1.513449	-0.318773	-0.785400	0.290283	0.560303	0.104273	-0.010701	-0.005625	0.222648	-0.737108	-0.250932	-0.586628	-170.960094	-77.568969	30.330441
09116		10.441522	-0.963579	-0.952072	0.667371	1.350423	0.607920	0.491994	-1.580467	-0.314664	-0.769287	0.291016	0.578125	0.104471	-0.009778	-0.008719	0.221549	-0.740825	-0.255232	-0.580475	-172.021489	-76.693636	31.704616
09117		10.292430	-1.889359	-1.128295	0.025112	2.058714	0.508926	0.365702	-1.626309	-0.287084	-0.764404	0.294922	0.577148	0.102984	-0.019022	-0.010480	0.220004	-0.744790	-0.259117	-0.574234	-172.953036	-75.784876	32.879006
09118		10.284452	-2.266718	-1.367885	-0.288121	2.321830	0.546021	0.371333	-1.667318	-0.333771	-0.756104	0.288086	0.588623	0.102916	-0.022815	-0.012863	0.218261	-0.748758	-0.263196	-0.567848	-173.862344	-74.851652	34.035292
09119		10.172919	-2.239695	-1.637311	-0.389165	2.246458	0.482210	0.372154	-1.693617	-0.430838	-0.744873	0.296387	0.605957	0.101815	-0.022587	-0.015553	0.216210	-0.752607	-0.267670	-0.561417	-174.848757	-73.903984	35.280533
09120		10.347048	-2.336798	-1.651487	-0.324002	2.480543	0.627078	0.328324	-1.720851	-0.544302	-0.735840	0.288818	0.609131	0.103544	-0.023624	-0.015663	0.213607	-0.756372	-0.272434	-0.555026	-175.950617	-72.940228	36.622877
09121		10.814816	-2.130436	-1.842177	-0.125022	2.442514	1.091812	0.363159	-1.710135	-0.682559	-0.722168	0.286377	0.629150	0.108227	-0.021641	-0.017536	0.210762	-0.759809	-0.277804	-0.548720	-177.145728	-71.979638	38.094049
09122		11.034375	-1.373634	-1.742248	0.577926	2.144166	1.221129	0.484266	-1.651266	-0.826669	-0.714600	0.281982	0.640381	0.110425	-0.014152	-0.016545	0.208031	-0.762697	-0.283944	-0.542579	-178.375896	-71.047060	39.680039
09123		11.113903	-1.163021	-1.841900	0.736535	2.118401	1.288247	0.594089	-1.599826	-0.946805	-0.705078	0.276123	0.637939	0.111225	-0.012104	-0.017565	0.205461	-0.765081	-0.290783	-0.536546	-179.603508	-70.134303	41.342079
09124		11.337377	-1.060462	-2.043789	0.781417	2.149244	1.527710	0.765740	-1.567928	-1.028456	-0.705322	0.272705	0.645996	0.113473	-0.011112	-0.019590	0.203340	-0.767018	-0.298308	-0.530424	179.268274	-69.228840	43.009145
09125		11.497700	-0.709843	-2.294421	0.942356	1.957635	1.730351	0.966328	-1.518897	-1.069283	-0.702148	0.278564	0.666748	0.115107	-0.007605	-0.022106	0.201946	-0.768470	-0.306465	-0.524167	178.307687	-68.340236	44.633049
09126		11.486015	-0.217978	-2.594588	1.126971	1.590929	1.802116	1.158860	-1.466987	-1.099449	-0.694336	0.289063	0.664551	0.115033	-0.002665	-0.025117	0.201256	-0.769466	-0.315131	-0.517794	177.512668	-67.472225	46.203911
09127		11.372494	0.257007	-2.904509	1.276836	1.203167	1.795708	1.257165	-1.414161	-1.111830	-0.682617	0.282227	0.675049	0.113939	0.002116	-0.028226	0.200984	-0.770107	-0.324033	-0.511413	176.839933	-66.626197	47.716271
09128		11.140682	0.422102	-3.083890	1.270885	1.081123	1.633558	1.279794	-1.359538	-1.121055	-0.675781	0.285400	0.674316	0.111635	0.003790	-0.030055	0.200830	-0.770487	-0.332911	-0.505161	176.240412	-65.805084	49.169267
09129		10.979663	0.641653	-3.282336	1.311448	0.921955	1.552431	1.356052	-1.295490	-1.136651	-0.670166	0.286621	0.669922	0.110041	0.006011	-0.032069	0.201024	-0.770503	-0.341962	-0.498976	175.725713	-65.013803	50.589333
09130		10.784125	0.711893	-3.586804	1.168932	0.777023	1.487612	1.403237	-1.224226	-1.168340	-0.664551	0.286377	0.680908	0.108098	0.006736	-0.035159	0.201408	-0.770154	-0.351117	-0.492965	175.252757	-64.257290	51.999190
09131		10.451726	0.827158	-3.850904	1.048854	0.569236	1.292537	1.498355	-1.142519	-1.216334	-0.661865	0.298096	0.683105	0.104784	0.007920	-0.037851	0.202169	-0.769322	-0.360588	-0.487081	174.823193	-63.539744	53.433101
09132		10.199214	0.891164	-4.018797	0.969952	0.473367	1.132729	1.537389	-1.059855	-1.256444	-0.656738	0.300781	0.679443	0.102258	0.008576	-0.039580	0.203097	-0.768088	-0.370157	-0.481433	174.411378	-62.863176	54.877937
09133		9.699094	0.537340	-4.457245	0.345146	0.352583	0.863618	1.587298	-0.939811	-1.262849	-0.652100	0.304443	0.690918	0.097232	0.005111	-0.044075	0.204407	-0.766398	-0.379725	-0.476090	174.051678	-62.249706	56.307600
09134		9.077208	0.208771	-4.934783	-0.313633	0.098747	0.516037	1.704393	-0.798115	-1.272785	-0.658203	0.300293	0.694824	0.090981	0.001928	-0.048968	0.206376	-0.764142	-0.389395	-0.471027	173.769512	-61.713319	57.730215
09135		8.730353	0.203567	-4.903634	-0.360121	0.062907	0.195911	1.808490	-0.652658	-1.276191	-0.643799	0.303711	0.681152	0.087475	0.001919	-0.048733	0.209000	-0.761323	-0.399144	-0.466250	173.556424	-61.256030	59.151541
09136		8.510398	-0.503395	-4.537142	-0.774882	0.701268	-0.211982	1.524949	-0.391595	-1.210721	-0.652344	0.315186	0.688477	0.085161	-0.005204	-0.045244	0.211185	-0.758244	-0.407641	-0.462921	173.240819	-60.949114	60.506463
09137		7.878054	1.420261	-3.671977	1.093769	-0.031015	-1.073876	1.728896	-0.093939	-1.129434	-0.670166	0.314209	0.684814	0.078877	0.014074	-0.036561	0.214926	-0.754340	-0.415969	-0.460161	173.101523	-60.813887	61.799383
09138		8.075841	3.922841	-1.569417	4.271643	0.193537	-1.763712	0.978343	0.185314	-1.043624	-0.661865	0.327637	0.680420	0.080947	0.038883	-0.015578	0.216588	-0.750727	-0.421893	-0.459896	172.587879	-60.840584	63.026267
09139		7.922773	3.445782	-1.414218	3.867957	0.548499	-1.978067	0.297547	0.532488	-0.920374	-0.669922	0.318359	0.674805	0.079347	0.034114	-0.014302	0.216711	-0.747275	-0.425416	-0.462210	171.755187	-61.066304	64.173341
09140		7.435133	1.962280	-1.380084	2.468400	1.174512	-2.493994	0.060758	0.865945	-0.812747	-0.676025	0.311035	0.670654	0.074370	0.019325	-0.014117	0.216891	-0.743521	-0.427595	-0.466152	170.825495	-61.482327	65.269797
09141		7.467114	1.492829	-1.369904	2.002534	1.426798	-2.476732	0.026702	1.131233	-0.727628	-0.694580	0.301758	0.666748	0.074646	0.014659	-0.014119	0.217710	-0.739331	-0.429094	-0.471032	169.886215	-62.047010	66.352866
09142		7.828585	1.096215	-1.576554	1.536851	1.597079	-2.062844	-0.101072	1.433016	-0.635489	-0.707275	0.300049	0.652344	0.078204	0.010705	-0.016332	0.218899	-0.734737	-0.429578	-0.477187	168.866736	-62.783243	67.433934
09143		7.839377	1.045809	-1.476029	1.442383	1.628499	-2.067108	-0.185312	1.716325	-0.508916	-0.726807	0.293701	0.633789	0.078289	0.010245	-0.015442	0.220684	-0.729770	-0.429078	-0.484382	167.814596	-63.683211	68.492976
09144		7.857573	1.242393	-1.667689	1.401471	1.291729	-1.911338	-0.192396	1.952348	-0.367275	-0.740723	0.294922	0.627441	0.078430	0.012263	-0.017455	0.223264	-0.724486	-0.427726	-0.492264	166.785294	-64.724953	69.510409
09145		7.945865	1.180974	-1.654872	1.258942	1.247703	-1.804834	-0.178067	2.168593	-0.192972	-0.757813	0.291992	0.619141	0.079284	0.011718	-0.017419	0.226773	-0.718940	-0.425510	-0.500640	165.825533	-65.902038	70.453962
09146		8.071752	1.133155	-1.667526	1.120911	1.166046	-1.651891	-0.062445	2.357421	-0.007390	-0.767822	0.294434	0.592285	0.080514	0.011323	-0.017629	0.231523	-0.713101	-0.422627	-0.509186	165.012596	-67.205187	71.297465
09147		8.473327	1.381447	-1.657284	1.279492	1.015956	-1.223214	0.048335	2.510687	0.177676	-0.794922	0.289795	0.583008	0.084504	0.013894	-0.017631	0.237440	-0.707022	-0.419147	-0.517743	164.364590	-68.615801	72.026242
09148		8.801823	1.263445	-1.306335	1.303835	1.265434	-1.011043	0.086061	2.626843	0.365217	-0.802246	0.294922	0.556885	0.087813	0.012801	-0.014212	0.244168	-0.700879	-0.414874	-0.526336	163.873629	-70.117889	72.599965
09149		9.135076	0.784610	-1.524665	0.725426	1.238588	-0.629873	0.253808	2.704571	0.538841	-0.817383	0.295654	0.535889	0.091112	0.008112	-0.016470	0.252069	-0.694553	-0.410284	-0.534533	163.645216	-71.688381	72.995157
09150		9.718860	1.604787	-1.514016	1.388263	0.733547	0.028657	0.484261	2.769989	0.698594	-0.836670	0.310791	0.523193	0.096910	0.016425	-0.016444	0.261268	-0.687957	-0.405569	-0.542189	163.750877	-73.321258	73.171531
09151		10.028502	1.624197	-1.221706	1.510016	0.770575	0.277924	0.419553	2.792008	0.838356	-0.852783	0.314697	0.489258	0.100032	0.016689	-0.013580	0.270625	-0.681515	-0.400104	-0.549741	164.082630	-74.987769	73.076203
09152		10.311863	1.343486	-1.189005	1.243597	0.730216	0.553886	0.455616	2.778893	0.946568	-0.865234	0.319580	0.471436	0.102875	0.013951	-0.013289	0.280301	-0.675137	-0.394278	-0.556925	164.746481	-76.664272	72.656766
09153		10.646913	1.447119	-1.114783	1.333717	0.510898	0.894591	0.408775	2.728893	1.031810	-0.874023	0.338623	0.450195	0.106227	0.015044	-0.012568	0.289913	-0.668977	-0.388041	-0.563777	165.800343	-78.322945	71.816925
09154		10.927441	1.490585	-1.077638	1.354808	0.264570	1.181779	0.239619	2.670420	1.094064	-0.883301	0.343018	0.430176	0.109034	0.015517	-0.012215	0.298940	-0.663213	-0.381097	-0.570569	167.296336	-79.953771	70.429130
09155		11.044486	1.413602	-1.019504	1.278712	0.061331	1.294569	-0.022314	2.594765	1.136093	-0.895752	0.347900	0.406982	0.110218	0.014761	-0.011628	0.307032	-0.657993	-0.373326	-0.577412	169.398288	-81.537340	68.286344
09156		10.941786	1.021781	-0.938291	0.939860	0.017255	1.176204	-0.309454	2.494089	1.155904	-0.908203	0.365234	0.389160	0.109228	0.010834	-0.010762	0.313967	-0.653421	-0.364715	-0.584336	172.436381	-83.049809	65.036944
09157		10.866565	0.787712	-0.881148	0.727829	-0.111255	1.092817	-0.584839	2.368201	1.151496	-0.919189	0.364746	0.367432	0.108503	0.008474	-0.010121	0.319722	-0.649511	-0.355472	-0.591230	177.029618	-84.457811	60.079210
09158		10.603699	0.734001	-0.781169	0.685530	-0.296603	0.818564	-0.906399	2.221371	1.130811	-0.920898	0.378906	0.350098	0.105898	0.007900	-0.009023	0.324032	-0.646404	-0.345489	-0.598166	-175.702612	-85.721057	52.259006
09159		10.241065	0.445283	-0.830775	0.363817	-0.451078	0.455090	-1.229521	2.066717	1.076227	-0.923584	0.374756	0.326904	0.102292	0.004948	-0.009395	0.326833	-0.644068	-0.334934	-0.605125	-163.838902	-86.776557	39.664195
09160		9.966652	0.048377	-0.730856	0.045176	-0.376946	0.173446	-1.524810	1.884722	1.017251	-0.933105	0.387695	0.322266	0.099588	0.000930	-0.008253	0.328122	-0.642560	-0.323890	-0.612003	-144.654872	-87.500123	19.577803
09161		9.811943	-0.162140	-0.652921	-0.119009	-0.387634	0.013788	-1.738948	1.698489	0.934881	-0.936523	0.384277	0.321533	0.098066	-0.001224	-0.007350	0.328134	-0.641725	-0.312731	-0.618641	-119.332104	-87.751223	-6.763472
09162		9.710365	-0.254377	-0.632203	-0.213689	-0.483498	-0.092910	-1.914629	1.508261	0.840016	-0.942139	0.394287	0.304199	0.097062	-0.002201	-0.007032	0.326913	-0.641516	-0.301566	-0.625015	-96.672402	-87.549065	-30.544469
09163		9.516619	-0.077486	-0.566808	-0.068595	-0.678697	-0.303409	-2.051489	1.325122	0.745029	-0.945557	0.388428	0.299072	0.095128	-0.000483	-0.006293	0.324650	-0.641848	-0.290553	-0.631041	-81.790333	-87.101389	-46.619508
09164		9.353661	0.122659	-0.498729	0.095607	-0.868716	-0.485859	-2.196894	1.141953	0.646968	-0.946045	0.388672	0.300293	0.093502	0.001470	-0.005536	0.321272	-0.642750	-0.279623	-0.636763	-73.023585	-86.590126	-56.664307
09165		9.225693	0.121830	-0.445462	0.095746	-0.926630	-0.622583	-2.309284	0.973221	0.540052	-0.948975	0.386475	0.291504	0.092230	0.001412	-0.004919	0.316923	-0.644111	-0.268928	-0.642151	-67.850259	-86.106982	-63.174265
09166		9.022706	0.112594	-0.482533	0.030166	-1.021970	-0.834444	-2.349156	0.807386	0.453692	-0.950195	0.376221	0.293701	0.090204	0.001271	-0.005204	0.311874	-0.645850	-0.258579	-0.647108	-64.841102	-85.679300	-67.544774
09167		8.932272	0.193867	-0.681287	-0.075104	-1.283110	-0.945058	-2.355825	0.656387	0.363415	-0.946289	0.370117	0.293457	0.089296	0.002018	-0.007129	0.306289	-0.647868	-0.248717	-0.651609	-63.154531	-85.323923	-70.590871
09168		8.905843	0.219135	-0.949932	-0.275214	-1.539830	-0.991271	-2.316453	0.521777	0.278909	-0.948975	0.371826	0.287842	0.089030	0.002204	-0.009757	0.300321	-0.650065	-0.239405	-0.655674	-62.281716	-85.041589	-72.802858
09169		8.937596	0.092499	-1.369466	-0.695636	-1.776722	-0.973920	-2.245042	0.418650	0.197246	-0.951660	0.352783	0.296387	0.089346	0.000858	-0.013892	0.294175	-0.652303	-0.230736	-0.659335	-61.864368	-84.826402	-74.513568
09170		8.971458	-0.149556	-1.781190	-1.196858	-1.896942	-0.944143	-2.097670	0.343496	0.119492	-0.952637	0.354492	0.293945	0.089685	-0.001630	-0.017949	0.288112	-0.654404	-0.222869	-0.662628	-61.610657	-84.669732	-75.978946
09171		9.332773	-0.271135	-2.126725	-1.563976	-2.065897	-0.594064	-1.912621	0.289729	0.053328	-0.954102	0.349854	0.302002	0.093298	-0.002891	-0.021375	0.282363	-0.656274	-0.215906	-0.665552	-61.398356	-84.560782	-77.293266
09172		9.517391	-0.182794	-2.347307	-1.708348	-2.280715	-0.431658	-1.648903	0.278433	-0.002955	-0.954834	0.345703	0.304688	0.095141	-0.002024	-0.023589	0.277241	-0.657696	-0.209985	-0.668192	-60.952660	-84.482232	-78.693471
09173		9.360258	-0.114580	-2.526196	-1.845686	-2.419349	-0.606752	-1.343945	0.286677	-0.038217	-0.954590	0.337891	0.296387	0.093566	-0.001334	-0.025388	0.273013	-0.658590	-0.205193	-0.670536	-60.222381	-84.417871	-80.201209
09174		9.355850	0.169787	-2.677626	-1.824359	-2.722909	-0.648205	-1.037641	0.299843	-0.058690	-0.961426	0.336426	0.297119	0.093519	0.001531	-0.026925	0.269713	-0.658977	-0.201453	-0.672622	-59.209705	-84.357342	-81.819233
09175		9.271956	0.393506	-2.873419	-1.880204	-3.005240	-0.767593	-0.773416	0.323600	-0.078971	-0.953369	0.342285	0.300781	0.092674	0.003787	-0.028899	0.267247	-0.658891	-0.198649	-0.674522	-57.904811	-84.296740	-83.576233
09176		9.098852	0.630680	-2.884362	-1.785436	-3.179799	-0.969196	-0.510469	0.359970	-0.090473	-0.956543	0.334717	0.299805	0.090939	0.006192	-0.029023	0.265630	-0.658311	-0.196704	-0.676295	-56.269455	-84.225593	-85.516403
09177		8.802207	1.239081	-2.767251	-1.359591	-3.559659	-1.318451	-0.263264	0.389009	-0.111598	-0.956299	0.328369	0.299072	0.087975	0.012305	-0.027860	0.264793	-0.657279	-0.195638	-0.677934	-54.343765	-84.149274	-87.604031
09178		8.676856	1.808188	-2.726172	-1.015506	-3.978054	-1.498057	-0.149440	0.413513	-0.108879	-0.954834	0.331543	0.286377	0.086722	0.018014	-0.027455	0.264349	-0.656012	-0.194902	-0.679545	-52.304361	-84.055830	-89.743097
09179		8.676987	2.138744	-2.817700	-0.921564	-4.307891	-1.542476	-0.057948	0.458841	-0.088371	-0.959473	0.328857	0.292236	0.086714	0.021341	-0.028382	0.264331	-0.654487	-0.194362	-0.681175	-50.168118	-83.929259	-91.924887
09180		8.529556	2.314986	-2.898939	-0.914364	-4.498975	-1.723231	-0.023120	0.513644	-0.070234	-0.963623	0.329346	0.283936	0.085229	0.023117	-0.029211	0.264528	-0.652743	-0.193796	-0.682931	-47.948070	-83.765508	-94.173555
09181		8.421936	2.404052	-2.974601	-0.956295	-4.626612	-1.860551	0.019868	0.573884	-0.034638	-0.968750	0.325928	0.276855	0.084138	0.024029	-0.029985	0.265056	-0.650766	-0.193192	-0.684782	-45.732089	-83.554245	-96.392083
09182		8.545610	2.172238	-2.971123	-1.137456	-4.484515	-1.739975	0.001256	0.633477	-0.007131	-0.967773	0.335205	0.271729	0.085362	0.021720	-0.029982	0.265658	-0.648631	-0.192343	-0.686809	-43.562330	-83.298373	-98.577917
09183		8.468802	1.687348	-3.087742	-1.569684	-4.198979	-1.812298	-0.020584	0.712971	0.016649	-0.961670	0.321777	0.268066	0.084576	0.016877	-0.031181	0.266359	-0.646268	-0.191245	-0.689069	-41.408562	-82.990488	-100.759433
09184		8.206684	1.519294	-2.988110	-1.634473	-4.011657	-2.078255	0.024226	0.773824	0.029360	-0.968262	0.328125	0.259766	0.081948	0.015209	-0.030196	0.267289	-0.643639	-0.190168	-0.691463	-39.282924	-82.641907	-102.890273
09185		8.165781	1.215492	-3.128957	-1.978006	-3.890863	-2.138311	0.050881	0.788044	-0.011354	-0.967529	0.332275	0.251221	0.081534	0.012158	-0.031608	0.268188	-0.640876	-0.189301	-0.693915	-37.166814	-82.291661	-104.995757
09186		8.434649	1.551136	-2.814972	-1.583793	-4.034009	-1.894900	0.031547	0.788761	-0.051167	-0.971191	0.337646	0.245117	0.084239	0.015494	-0.028480	0.268868	-0.638091	-0.188482	-0.696437	-35.110493	-81.944943	-107.055751
09187		8.650727	1.694778	-2.825967	-1.567653	-4.216199	-1.722006	-0.018287	0.796838	-0.085189	-0.974609	0.333984	0.237549	0.086401	0.016908	-0.028606	0.269289	-0.635301	-0.187593	-0.699060	-33.129374	-81.595401	-109.068430
09188		8.527546	2.121917	-2.719779	-1.273966	-4.501606	-1.892404	-0.008086	0.807188	-0.134118	-0.990479	0.334717	0.231934	0.085179	0.021161	-0.027543	0.269563	-0.632408	-0.186872	-0.701766	-31.125090	-81.246257	-111.102205
09189		8.280386	2.206926	-2.521949	-1.112825	-4.441094	-2.142392	-0.182520	0.758607	-0.158435	-0.982422	0.325684	0.230225	0.082725	0.021980	-0.025553	0.269164	-0.629885	-0.185684	-0.704498	-29.387545	-80.918174	-112.967227
09190		8.414422	2.019437	-2.302808	-1.126029	-4.202324	-1.986086	-0.394781	0.664068	-0.181983	-0.979248	0.321289	0.220703	0.084085	0.020072	-0.023347	0.267904	-0.627952	-0.183940	-0.707156	-27.973635	-80.636812	-114.631322
09191		10.553059	2.743603	-0.780526	0.305150	-4.201555	0.274778	-0.715012	0.493727	-0.194992	-0.980713	0.324707	0.220703	0.105537	0.027304	-0.008164	0.265449	-0.627025	-0.181337	-0.709573	-27.054340	-80.439580	-115.978989
09192		9.266057	3.212297	-6.019681	-3.548132	-7.471494	-1.812547	-0.706013	0.242270	-0.242552	-0.979004	0.318359	0.218994	0.092626	0.031798	-0.060422	0.262602	-0.626927	-0.179240	-0.711249	-26.399867	-80.380933	-117.055506
09193		9.060191	4.442168	1.161692	2.858107	-4.250894	-1.041735	-1.981781	0.189142	-0.077851	-0.980469	0.323730	0.218262	0.090630	0.044498	0.011091	0.256299	-0.628801	-0.172155	-0.713640	-27.063291	-80.306381	-117.534718
09194		16.105956	-7.875748	-0.921824	-6.436542	3.518316	6.572110	-4.143143	-0.066481	0.521977	-0.980225	0.315674	0.223145	0.161267	-0.078504	-0.007537	0.245033	-0.634709	-0.155751	-0.716132	-31.110662	-80.196927	-115.838907
09195		18.955578	-15.404584	-4.899841	-13.835320	7.271973	9.586287	-1.632372	0.366313	1.058821	-0.976563	0.313965	0.230225	0.190281	-0.153435	-0.048092	0.243947	-0.636235	-0.146064	-0.717189	-34.332371	-79.693625	-113.517230
09196		12.698498	-10.579608	-3.669980	-9.622754	4.860946	3.241871	-1.347713	0.651989	0.889881	-0.971924	0.317139	0.225342	0.127336	-0.105476	-0.036403	0.243335	-0.636215	-0.137570	-0.719092	-36.219816	-79.095856	-112.384519
09197		8.578137	-9.498321	-2.274091	-7.512601	5.361235	-0.658902	-0.906765	0.519087	0.414877	-0.979248	0.326904	0.225586	0.085920	-0.094908	-0.022533	0.242326	-0.635771	-0.132330	-0.720807	-36.853859	-78.716118	-112.268212
09198		10.538258	-10.932251	-2.060088	-8.152921	6.363522	1.494274	-1.134609	0.130673	0.069231	-0.976807	0.319580	0.224609	0.105407	-0.109401	-0.020049	0.239069	-0.636759	-0.127828	-0.721834	-37.479389	-78.633866	-112.295437
09199		12.824994	-8.824761	-1.973032	-7.131193	4.252748	3.503080	-0.521308	0.117297	-0.260354	-0.982666	0.315186	0.232178	0.128123	-0.088466	-0.019575	0.236575	-0.636833	-0.126609	-0.722804	-37.026203	-78.671308	-113.062677
09200		12.784605	-4.916013	-1.401326	-4.667982	1.246807	3.080418	-0.554829	0.071346	-0.337400	-0.971436	0.312500	0.224609	0.127758	-0.049414	-0.013922	0.233650	-0.637066	-0.125557	-0.723734	-36.490578	-78.755662	-113.935579
09201		11.807199	-3.750528	-1.317344	-3.944289	0.504758	1.994069	-0.521403	0.089799	-0.234638	-0.976074	0.311035	0.224609	0.118022	-0.037678	-0.013128	0.231227	-0.637243	-0.124286	-0.724575	-36.132864	-78.794590	-114.605213
09202		10.170920	-3.267721	0.091446	-2.360414	1.069513	0.551604	-0.358441	0.140785	-0.136709	-0.979736	0.314453	0.230469	0.101687	-0.032745	0.000902	0.229696	-0.637113	-0.123224	-0.725357	-35.825699	-78.776860	-115.130053
09203		9.964437	-1.755411	1.247552	-0.604254	0.354782	0.357704	-0.249617	0.036506	-0.151974	-0.984375	0.306641	0.230713	0.099633	-0.017614	0.012479	0.228404	-0.637216	-0.122734	-0.725757	-35.593175	-78.811565	-115.513272
09204		10.103299	-0.602575	1.666551	0.306700	-0.456393	0.430102	-0.238652	-0.020690	-0.228112	-0.980713	0.306152	0.229736	0.101024	-0.006121	0.016683	0.226821	-0.637474	-0.122582	-0.726052	-35.270881	-78.898634	-115.983595
09205		10.420882	-0.553084	2.130612	0.702880	-0.318460	0.810151	-0.150078	-0.031733	-0.232740	-0.979736	0.305176	0.230469	0.104199	-0.005636	0.021327	0.225511	-0.637660	-0.122788	-0.726263	-34.895350	-78.991116	-116.454217
09206		10.131067	-0.830873	1.908676	0.389508	-0.111141	0.522098	0.223623	0.035366	-0.216816	-0.983154	0.307129	0.222656	0.101305	-0.008440	0.019059	0.225477	-0.637197	-0.124215	-0.726437	-34.227899	-79.046663	-117.005927
09207		9.494628	-0.239948	2.433260	1.170516	-0.247818	-0.081568	0.536295	0.035653	-0.207640	-0.984375	0.301025	0.224609	0.094948	-0.002563	0.024309	0.226485	-0.636375	-0.126758	-0.726405	-33.393700	-79.097035	-117.542960
09208		9.373962	-0.647283	2.479907	1.000775	0.172128	-0.147864	0.693220	0.051159	-0.181764	-0.982422	0.291016	0.224854	0.093740	-0.006644	0.024752	0.228083	-0.635336	-0.129760	-0.726284	-32.506481	-79.131045	-118.044056
09209		8.987666	-0.307952	2.862903	1.507001	0.155141	-0.497437	0.968336	0.094608	-0.181716	-0.983643	0.298584	0.217529	0.089887	-0.003300	0.028571	0.230589	-0.633806	-0.133718	-0.726112	-31.385818	-79.141556	-118.620604
09210		8.891887	0.300051	2.905384	1.832483	-0.295541	-0.639278	0.892142	0.036278	-0.210576	-0.979980	0.299072	0.222412	0.088927	0.002777	0.029050	0.232692	-0.632551	-0.137545	-0.725821	-30.324537	-79.187920	-119.183195
09211		8.865244	0.590262	3.025500	2.066685	-0.443684	-0.667938	0.666033	0.010485	-0.219851	-0.981445	0.303223	0.216797	0.088660	0.005704	0.030270	0.234037	-0.631627	-0.140618	-0.725604	-29.397595	-79.247150	-119.738706
09212		8.749852	0.604439	3.368961	2.363410	-0.234371	-0.722339	0.389631	-0.025070	-0.194452	-0.985840	0.306396	0.219971	0.087500	0.005894	0.033712	0.234563	-0.631175	-0.142640	-0.725432	-28.743430	-79.316367	-120.179523
09213		8.692260	0.347934	3.261817	2.137725	-0.038508	-0.771420	0.088722	-0.065062	-0.169791	-0.985352	0.299316	0.221680	0.086915	0.003391	0.032648	0.234212	-0.631230	-0.143548	-0.725319	-28.377108	-79.397527	-120.500909
09214		8.694069	0.151482	3.107965	1.905790	0.066482	-0.777603	-0.175217	-0.119181	-0.182413	-0.983154	0.295166	0.230713	0.086924	0.001463	0.031130	0.232931	-0.631788	-0.143593	-0.725237	-28.203900	-79.509784	-120.781360
09215		9.145985	-0.459583	3.389679	1.795605	0.669550	-0.237843	-0.473391	-0.161931	-0.200482	-0.984863	0.292725	0.225830	0.091428	-0.004607	0.033982	0.230622	-0.632824	-0.142672	-0.725253	-28.208420	-79.647798	-121.052922
09216		9.212562	-0.718834	2.264163	0.710270	0.333627	-0.331198	-0.523455	-0.150688	-0.242962	-0.987549	0.295166	0.228516	0.092100	-0.007241	0.022730	0.227994	-0.633849	-0.141680	-0.725383	-28.103875	-79.792219	-121.466366
09217		8.965540	-0.187902	2.619030	1.318571	0.108837	-0.564713	-0.579880	-0.161738	-0.266400	-0.982666	0.283691	0.237793	0.089632	-0.001922	0.026268	0.225105	-0.634949	-0.140579	-0.725538	-27.972429	-79.947745	-121.937778
09218		9.372063	-0.803175	1.980881	0.437133	0.282667	-0.214068	-0.674426	-0.203149	-0.243592	-0.982910	0.281738	0.247070	0.093691	-0.008079	0.019931	0.221955	-0.636320	-0.139098	-0.725593	-28.017448	-80.118619	-122.286629
09219		9.690603	-0.637683	1.582355	0.162835	-0.077733	0.025283	-0.520236	-0.187041	-0.230493	-0.988770	0.283691	0.238037	0.096884	-0.006447	0.015931	0.219364	-0.637457	-0.138124	-0.725569	-27.979898	-80.277230	-122.627600
09220		9.924716	-0.830001	1.089312	-0.365827	-0.156672	0.198159	-0.471867	-0.205073	-0.221961	-0.986816	0.273438	0.240967	0.099227	-0.008384	0.011015	0.216930	-0.638613	-0.137308	-0.725439	-27.964019	-80.443237	-122.920177
09221		10.043150	-1.143650	1.085976	-0.519574	0.123468	0.339498	-0.364841	-0.179081	-0.210174	-0.985596	0.272217	0.252686	0.100410	-0.011522	0.010971	0.214911	-0.639556	-0.136823	-0.725300	-27.873359	-80.592286	-123.224402
09222		10.050464	-1.090533	0.906978	-0.639953	0.015985	0.317162	-0.197100	-0.139610	-0.196593	-0.979004	0.276855	0.247070	0.100487	-0.010995	0.009151	0.213490	-0.640189	-0.136850	-0.725156	-27.659168	-80.718184	-123.558234
09223		9.819858	-0.939879	0.746114	-0.681019	-0.137545	0.055794	-0.054979	-0.122528	-0.194412	-0.981934	0.258789	0.241455	0.098185	-0.009492	0.007524	0.212557	-0.640603	-0.137376	-0.724966	-27.332860	-80.833947	-123.921104
09224		9.965302	-0.825696	0.745460	-0.634362	-0.234521	0.191675	-0.047894	-0.144607	-0.178365	-0.976074	0.263184	0.251221	0.099640	-0.008344	0.007529	0.211677	-0.641105	-0.137892	-0.724681	-27.083139	-80.957068	-124.203898
09225		10.157920	-0.951954	0.671172	-0.770666	-0.162436	0.381413	-0.056272	-0.146883	-0.171472	-0.976074	0.260498	0.252441	0.101566	-0.009605	0.006789	0.210805	-0.641622	-0.138366	-0.724387	-26.855190	-81.078767	-124.467694
09226		10.117019	-1.186721	0.810708	-0.751796	0.135614	0.377308	-0.056164	-0.148272	-0.173823	-0.979004	0.266846	0.256348	0.101154	-0.011953	0.008185	0.209911	-0.642149	-0.138839	-0.724090	-26.616849	-81.202275	-124.743771
09227		10.014895	-1.337545	1.057237	-0.592932	0.418697	0.320327	-0.060553	-0.162732	-0.174841	-0.982910	0.260010	0.260986	0.100129	-0.013460	0.010658	0.209001	-0.642723	-0.139324	-0.723750	-26.392509	-81.332625	-125.006218
09228		9.856285	-1.279786	1.339368	-0.297154	0.543211	0.197042	-0.033408	-0.158957	-0.177661	-0.982178	0.255371	0.263916	0.098541	-0.012883	0.013474	0.208159	-0.643260	-0.139904	-0.723404	-26.131294	-81.462235	-125.291995
09229		9.634891	-1.002089	1.585140	0.077959	0.466197	-0.008377	-0.019871	-0.182069	-0.190525	-0.988525	0.256836	0.261719	0.096325	-0.010111	0.015940	0.207309	-0.643850	-0.140606	-0.722987	-25.845816	-81.606118	-125.592502
09230		9.658420	-0.791983	1.725197	0.309345	0.370909	0.018654	-0.040525	-0.217336	-0.200065	-0.981201	0.248779	0.264648	0.096557	-0.008013	0.017359	0.206320	-0.644587	-0.141291	-0.722479	-25.590365	-81.771046	-125.876558
09231		9.682035	-0.853538	1.796588	0.352771	0.482289	0.053463	-0.071241	-0.236865	-0.198342	-0.988281	0.242920	0.268555	0.096790	-0.008625	0.018084	0.205237	-0.645419	-0.141889	-0.721927	-25.379668	-81.944802	-126.131008
09232		9.508433	-0.595885	1.783580	0.492356	0.297446	-0.137174	-0.004903	-0.233849	-0.202410	-0.978271	0.248535	0.265625	0.095057	-0.006055	0.017947	0.204340	-0.646175	-0.142725	-0.721340	-25.101713	-82.118532	-126.417150
09233		9.464212	-0.290848	1.568875	0.466944	-0.038201	-0.226359	-0.016757	-0.244664	-0.205016	-0.977783	0.249023	0.275391	0.094620	-0.003004	0.015805	0.203402	-0.646972	-0.143549	-0.720728	-24.825232	-82.297617	-126.706272
09234		9.554295	-0.231489	1.263447	0.233937	-0.216047	-0.177701	-0.018128	-0.238344	-0.198922	-0.979980	0.243164	0.276123	0.095525	-0.002409	0.012749	0.202474	-0.647756	-0.144331	-0.720128	-24.551106	-82.472388	-126.995598
09235		9.477980	0.237043	0.953579	0.204674	-0.737841	-0.314727	0.039953	-0.215631	-0.196072	-0.973633	0.244141	0.281006	0.094772	0.002276	0.009638	0.201772	-0.648394	-0.145300	-0.719556	-24.197818	-82.633794	-127.329179
09236		9.745031	0.256123	0.635778	-0.074079	-0.906550	-0.086020	-0.041879	-0.207780	-0.172478	-0.965332	0.247803	0.285889	0.097446	0.002479	0.006458	0.200881	-0.649109	-0.145880	-0.719043	-23.961952	-82.786019	-127.593574
09237		9.747657	0.010341	0.446256	-0.348219	-0.759293	-0.090637	-0.061005	-0.152388	-0.146681	-0.978516	0.238281	0.283691	0.097473	0.000033	0.004537	0.200075	-0.649655	-0.146261	-0.718697	-23.730545	-82.902436	-127.862399
09238		9.514879	0.254294	0.400067	-0.248159	-0.954529	-0.337198	-0.061913	-0.119405	-0.143234	-0.977295	0.236816	0.293213	0.095148	0.002476	0.004057	0.199289	-0.650092	-0.146585	-0.718455	-23.447003	-83.001281	-128.186176
09239		9.634984	-0.043258	0.065129	-0.687666	-0.846179	-0.239281	-0.136056	-0.110824	-0.131111	-0.974609	0.235596	0.282715	0.096349	-0.000495	0.000705	0.198325	-0.650573	-0.146604	-0.718282	-23.232123	-83.091998	-128.481553
09240		9.879305	-0.309403	0.318940	-0.605521	-0.501927	0.045280	-0.186574	-0.085794	-0.115375	-0.974609	0.235107	0.285645	0.098790	-0.003148	0.003235	0.197256	-0.651033	-0.146356	-0.718210	-23.063700	-83.166622	-128.761386
09241		9.743385	-0.447135	0.566549	-0.440026	-0.239760	-0.055467	-0.155653	-0.065131	-0.119259	-0.964111	0.231445	0.291992	0.097429	-0.004525	0.005701	0.196304	-0.651377	-0.146220	-0.718187	-22.815014	-83.230330	-129.102023
09242		9.657042	-0.552387	0.806908	-0.269396	-0.015109	-0.110014	-0.170317	-0.064412	-0.119048	-0.972168	0.228027	0.293213	0.096565	-0.005574	0.008105	0.195290	-0.651739	-0.146021	-0.718175	-22.570595	-83.294195	-129.448827
09243		9.784550	-0.757670	1.265103	0.031485	0.378834	0.075055	-0.208033	-0.078614	-0.117943	-0.964355	0.228027	0.297119	0.097836	-0.007621	0.012697	0.194162	-0.652182	-0.145706	-0.718143	-22.371991	-83.364422	-129.769166
09244		9.630659	-0.764629	1.277984	0.056012	0.416971	-0.076647	-0.137263	-0.079973	-0.124823	-0.972656	0.223633	0.293213	0.096297	-0.007698	0.012824	0.193222	-0.652563	-0.145658	-0.718060	-22.099632	-83.437558	-130.125150
09245		9.682955	-0.617427	1.399917	0.234468	0.353020	-0.018762	-0.148037	-0.126065	-0.139673	-0.975098	0.216797	0.296387	0.096816	-0.006231	0.014065	0.192176	-0.653101	-0.145675	-0.717848	-21.841453	-83.537328	-130.470749
09246		9.953813	-0.836078	1.824749	0.496832	0.735102	0.302641	-0.130936	-0.154180	-0.134233	-0.962402	0.230469	0.294922	0.099518	-0.008416	0.018330	0.191167	-0.653733	-0.145752	-0.717527	-21.643535	-83.651542	-130.748174
09247		9.974837	-0.859470	2.058012	0.700602	0.879145	0.346432	-0.025540	-0.157723	-0.139249	-0.965088	0.210693	0.307129	0.099726	-0.008662	0.020660	0.190500	-0.654265	-0.146237	-0.717120	-21.357889	-83.767775	-131.050646
09248		9.499713	-0.501151	2.142808	0.985764	0.660088	-0.133853	0.028632	-0.184543	-0.152096	-0.976074	0.214111	0.309570	0.094973	-0.005087	0.021515	0.189928	-0.654840	-0.146972	-0.716597	-21.019259	-83.901606	-131.377367
09249		9.681684	-0.477259	2.261925	1.101927	0.701332	0.055084	0.001395	-0.237057	-0.147073	-0.961182	0.222656	0.304932	0.096786	-0.004844	0.022734	0.189261	-0.655623	-0.147654	-0.715916	-20.807382	-84.061554	-131.589988
09250		9.820566	-0.534899	2.069260	0.911842	0.677625	0.173341	0.057287	-0.264298	-0.151356	-0.966064	0.220703	0.319092	0.098174	-0.005429	0.020821	0.188726	-0.656454	-0.148565	-0.715107	-20.584739	-84.237635	-131.783480
09251		9.629826	-0.378527	1.689989	0.680261	0.406030	-0.060498	0.095161	-0.295704	-0.162154	-0.958496	0.209473	0.307617	0.096270	-0.003871	0.017040	0.188269	-0.657344	-0.149687	-0.714176	-20.329812	-84.431903	-131.985240
09252		9.828336	-0.381595	1.624660	0.629123	0.393137	0.128684	0.076257	-0.335224	-0.154383	-0.963623	0.203857	0.314941	0.098253	-0.003898	0.016410	0.187731	-0.658404	-0.150741	-0.713118	-20.198910	-84.646522	-132.075552
09253		9.799004	-0.357233	1.498130	0.553425	0.344622	0.085157	0.108536	-0.334604	-0.151891	-0.959717	0.203857	0.319336	0.097962	-0.003655	0.015143	0.187325	-0.659424	-0.151912	-0.712034	-20.051588	-84.859575	-132.161420
09254		9.519952	0.017874	1.310107	0.602795	-0.026065	-0.221961	0.137852	-0.350509	-0.146389	-0.954834	0.204590	0.323486	0.095176	0.000100	0.013268	0.187002	-0.660481	-0.153171	-0.710868	-19.947473	-85.080788	-132.189659
09255		9.656750	0.284209	0.965025	0.440733	-0.401153	-0.121992	0.111806	-0.375165	-0.135381	-0.961670	0.213379	0.329834	0.096551	0.002771	0.009833	0.186632	-0.661649	-0.154336	-0.709626	-19.983505	-85.312431	-132.089588
09256		9.913552	0.110393	0.655463	0.100788	-0.378627	0.115388	0.076149	-0.389079	-0.119088	-0.957520	0.210205	0.326172	0.099123	0.001042	0.006748	0.186175	-0.662916	-0.155321	-0.708348	-20.197273	-85.548998	-131.834125
09257		9.889314	0.258654	0.542773	0.102106	-0.533360	0.079987	0.089230	-0.376484	-0.098301	-0.951904	0.204834	0.340820	0.098884	0.002535	0.005615	0.185859	-0.664133	-0.156283	-0.707078	-20.544567	-85.773891	-131.434934
09258		9.710024	0.312629	0.389830	0.030631	-0.617856	-0.109519	0.096878	-0.358692	-0.081198	-0.954102	0.204834	0.341797	0.097094	0.003085	0.004074	0.185626	-0.665298	-0.157186	-0.705843	-21.009465	-85.986211	-130.915918
09259		9.684187	0.388569	0.403592	0.107817	-0.655060	-0.135057	0.096908	-0.338843	-0.059498	-0.943359	0.204346	0.340576	0.096836	0.003855	0.004202	0.185501	-0.666400	-0.158010	-0.704651	-21.638081	-86.182398	-130.230551
09260		9.593330	0.460543	0.112545	-0.083306	-0.831354	-0.244063	0.114987	-0.318422	-0.042507	-0.952881	0.207275	0.342773	0.095932	0.004584	0.001281	0.185494	-0.667432	-0.158810	-0.703496	-22.400194	-86.364200	-129.403646
09261		9.620207	0.265217	-0.052857	-0.295537	-0.721226	-0.220298	0.078024	-0.317930	-0.033389	-0.943359	0.197021	0.349854	0.096203	0.002636	-0.000375	0.185414	-0.668494	-0.159460	-0.702360	-23.343429	-86.542199	-128.414185
09262		9.755145	0.074197	0.008019	-0.310617	-0.515131	-0.075824	0.060313	-0.300295	-0.008954	-0.949707	0.206299	0.360352	0.097551	0.000738	0.000227	0.185355	-0.669536	-0.159938	-0.701274	-24.551735	-86.704821	-127.172081
09263		9.649428	0.048420	0.035084	-0.270195	-0.461292	-0.177897	0.111404	-0.268328	-0.012958	-0.940186	0.200684	0.359619	0.096494	0.000478	0.000481	0.185497	-0.670406	-0.160590	-0.700255	-25.672156	-86.849592	-125.986328
09264		9.581269	-0.015437	0.052701	-0.259412	-0.381162	-0.242364	0.090662	-0.262924	-0.006436	-0.948486	0.207520	0.358154	0.095812	-0.000158	0.000653	0.185576	-0.671289	-0.161129	-0.699264	-26.954035	-86.989280	-124.653697
09265		9.609267	-0.052579	0.084497	-0.227057	-0.323160	-0.211027	0.075594	-0.252321	0.002049	-0.939697	0.208496	0.362549	0.096092	-0.000525	0.000966	0.185662	-0.672146	-0.161590	-0.698311	-28.396161	-87.118813	-123.166667
09266		9.652331	-0.075340	0.066657	-0.232246	-0.302646	-0.167376	0.096122	-0.245231	0.003479	-0.934570	0.208008	0.371094	0.096522	-0.000752	0.000785	0.185810	-0.672967	-0.162099	-0.697363	-29.939067	-87.243088	-121.569595
09267		9.701954	-0.238892	0.068656	-0.287476	-0.149373	-0.112961	0.073701	-0.249078	0.001392	-0.935791	0.210449	0.369141	0.097019	-0.002389	0.000807	0.185890	-0.673811	-0.162552	-0.696420	-31.640853	-87.366877	-119.824025
09268		9.813243	-0.413495	0.392960	-0.066839	0.164523	0.015515	0.085080	-0.229312	0.008935	-0.932129	0.204590	0.374756	0.098128	-0.004132	0.004040	0.186031	-0.674589	-0.162988	-0.695527	-33.448852	-87.476973	-117.968378
09269		9.542655	-0.063372	0.453608	0.180258	-0.093433	-0.261207	0.114141	-0.227245	0.003469	-0.917969	0.209473	0.375732	0.095421	-0.000635	0.004644	0.186271	-0.675319	-0.163554	-0.694621	-35.322288	-87.584376	-116.028117
09270		9.668059	-0.188287	0.464944	0.150151	0.027436	-0.132830	0.032608	-0.262778	0.009761	-0.932861	0.207764	0.371338	0.096674	-0.001879	0.004776	0.186209	-0.676260	-0.163835	-0.693654	-37.804539	-87.703490	-113.528185
09271		10.080094	-0.348139	0.909345	0.481599	0.376365	0.295862	0.009310	-0.267588	0.019061	-0.935791	0.204346	0.380371	0.100789	-0.003472	0.009228	0.186115	-0.677238	-0.164021	-0.692681	-40.712683	-87.815669	-110.612854
09272		9.796117	-0.448289	0.762408	0.334092	0.415081	0.008829	0.061829	-0.272668	0.015300	-0.934326	0.205566	0.392822	0.097951	-0.004478	0.007756	0.186163	-0.678189	-0.164393	-0.691649	-43.917600	-87.925931	-107.373343
09273		9.670351	-0.448201	0.876118	0.461442	0.485555	-0.115502	0.061620	-0.299958	0.022972	-0.922363	0.202148	0.388916	0.096691	-0.004474	0.008905	0.186233	-0.679230	-0.164776	-0.690516	-47.883767	-88.035505	-103.369761
09274		9.765579	-0.389372	1.030108	0.652228	0.517144	-0.020530	0.105184	-0.315047	0.030343	-0.927246	0.211914	0.386475	0.097640	-0.003884	0.010453	0.186441	-0.680296	-0.165283	-0.689288	-52.572491	-88.137133	-98.621612
09275		9.739882	-0.296939	0.959525	0.664660	0.415765	-0.052593	0.129591	-0.330149	0.036363	-0.925049	0.215820	0.385498	0.097383	-0.002958	0.009754	0.186762	-0.681386	-0.165883	-0.687980	-58.032187	-88.225771	-93.085256
09276		9.575252	-0.019856	1.007163	0.872110	0.215399	-0.226596	0.162791	-0.365476	0.034188	-0.922607	0.210449	0.398926	0.095734	-0.000190	0.010246	0.187142	-0.682569	-0.166624	-0.686523	-64.602617	-88.306832	-86.421325
09277		9.740720	-0.184681	0.989910	0.812471	0.362307	-0.060551	0.159624	-0.411682	0.040008	-0.923584	0.207031	0.402588	0.097387	-0.001835	0.010098	0.187508	-0.683908	-0.167390	-0.684903	-72.633176	-88.367778	-78.296272
09278		9.763623	-0.493018	1.079215	0.778795	0.691789	-0.032562	0.174018	-0.430098	0.042136	-0.913086	0.206055	0.407471	0.097614	-0.004919	0.010998	0.187894	-0.685302	-0.168198	-0.683203	-81.498415	-88.394979	-69.331109
09279		9.383820	-0.257308	1.134030	0.975984	0.541286	-0.423192	0.218291	-0.450905	0.033869	-0.908447	0.205811	0.409912	0.093813	-0.002570	0.011549	0.188405	-0.686707	-0.169220	-0.681397	-90.822178	-88.386934	-59.878937
09280		9.440428	-0.149792	1.143633	1.078243	0.471608	-0.375166	0.191760	-0.502282	0.033392	-0.908447	0.215820	0.415771	0.094375	-0.001493	0.011672	0.188758	-0.688315	-0.170184	-0.679434	-100.849043	-88.331773	-49.741608
09281		9.664774	-0.358889	0.858634	0.776684	0.531623	-0.148950	0.141228	-0.544437	0.029774	-0.910645	0.220215	0.415527	0.096624	-0.003581	0.008847	0.188908	-0.690097	-0.171043	-0.677366	-110.728683	-88.222427	-39.776947
09282		9.525558	-0.341762	0.671406	0.667665	0.452120	-0.291480	0.119211	-0.585172	0.021759	-0.898438	0.213379	0.440186	0.095236	-0.003411	0.006991	0.188900	-0.692032	-0.171878	-0.675179	-119.932872	-88.058998	-30.502715
09283		9.569831	-0.502042	0.777091	0.734014	0.669998	-0.249759	0.079539	-0.636023	0.019176	-0.889648	0.213623	0.428467	0.095673	-0.005014	0.008073	0.188719	-0.694160	-0.172649	-0.672844	-128.180170	-87.836826	-22.204930
09284		9.669711	-0.611958	0.880514	0.828869	0.844923	-0.155987	0.099604	-0.668200	0.013904	-0.891602	0.216797	0.439941	0.096667	-0.006117	0.009125	0.188539	-0.696373	-0.173517	-0.670380	-135.138195	-87.567261	-15.187833
09285		9.437063	-0.467200	0.952021	1.010299	0.788977	-0.403158	0.162025	-0.703048	0.008862	-0.885254	0.212158	0.456299	0.094337	-0.004676	0.009848	0.188548	-0.698623	-0.174659	-0.667735	-140.903212	-87.255578	-9.324405
09286		9.420192	-0.415291	0.811680	0.973298	0.708675	-0.425390	0.168133	-0.758656	0.001488	-0.886963	0.219238	0.450195	0.094170	-0.004159	0.008471	0.188481	-0.701044	-0.175880	-0.664890	-145.849244	-86.897334	-4.279198
09287		9.778890	-0.224097	1.109086	1.411261	0.728264	-0.097524	0.131761	-0.833529	-0.001602	-0.873291	0.217041	0.456055	0.097742	-0.002249	0.011497	0.188228	-0.703726	-0.177076	-0.661804	-150.125738	-86.484431	0.079649
09288		9.758617	-0.046866	1.224834	1.670977	0.676045	-0.144018	0.138742	-0.894896	-0.012666	-0.882813	0.226807	0.461670	0.097530	-0.000484	0.012684	0.187887	-0.706587	-0.178372	-0.658496	-153.789290	-86.026852	3.827306
09289		9.314006	-0.485204	1.225482	1.497147	1.100063	-0.591208	0.136051	-0.965761	-0.014936	-0.870117	0.212402	0.477051	0.093079	-0.004868	0.012701	0.187480	-0.709660	-0.179745	-0.654924	-156.894734	-85.519578	7.018973
09290		9.438174	-0.946980	1.204930	1.336118	1.539979	-0.470834	0.230853	-1.041509	-0.026947	-0.866211	0.218506	0.485107	0.094316	-0.009497	0.012530	0.187278	-0.712869	-0.181522	-0.650995	-159.553076	-84.963178	9.815817
09291		9.976504	-1.109625	0.805361	1.041042	1.543570	0.083937	0.409811	-1.106837	-0.050029	-0.850830	0.221680	0.489502	0.099716	-0.011138	0.008583	0.187593	-0.716073	-0.184035	-0.646669	-161.810840	-84.366642	12.318820
09292		9.894554	-1.373591	0.901519	1.068572	1.879872	-0.018559	0.564421	-1.157279	-0.066108	-0.844727	0.227783	0.501465	0.098887	-0.013795	0.009549	0.188337	-0.719258	-0.187127	-0.642013	-163.683206	-83.737078	14.522925
09293		9.743747	-1.083702	1.040831	1.404096	1.765490	-0.215352	0.793448	-1.211178	-0.107978	-0.844727	0.229492	0.517090	0.097366	-0.010932	0.010955	0.189729	-0.722321	-0.191166	-0.636954	-165.309978	-83.077682	16.617755
09294		9.797455	-0.985927	0.939692	1.460321	1.706271	-0.179406	0.868974	-1.276062	-0.139103	-0.843750	0.236084	0.516602	0.097905	-0.009970	0.009979	0.191204	-0.725454	-0.195589	-0.631587	-166.765341	-82.380158	18.583255
09295		10.079919	-0.441295	0.804665	1.761101	1.267631	0.073521	0.805994	-1.349995	-0.163682	-0.828369	0.245605	0.530762	0.100738	-0.004530	0.008709	0.192308	-0.728807	-0.199979	-0.625993	-168.118765	-81.638596	20.415864
09296		10.369825	-0.463355	0.673433	1.782162	1.323068	0.349650	0.676480	-1.412755	-0.180638	-0.818848	0.239014	0.541260	0.103643	-0.004752	0.007451	0.192795	-0.732422	-0.204056	-0.620281	-169.384030	-80.858005	22.084918
09297		10.616736	-0.748504	-0.052636	1.172276	1.284946	0.687357	0.634942	-1.439265	-0.197337	-0.806396	0.233154	0.546143	0.106160	-0.007590	0.000214	0.193056	-0.736092	-0.208096	-0.614487	-170.508130	-80.059050	23.593273
09298		10.629383	-0.802897	-0.284144	1.067852	1.305102	0.716490	0.517841	-1.473797	-0.222162	-0.796143	0.244873	0.562012	0.106302	-0.008141	-0.002079	0.192743	-0.739914	-0.211867	-0.608679	-171.590764	-79.238116	24.991727
09299		10.910252	-1.759308	-0.701787	0.364129	2.001759	1.072148	0.436770	-1.475165	-0.239560	-0.786377	0.245605	0.575439	0.109129	-0.017710	-0.006252	0.192082	-0.743748	-0.215464	-0.602925	-172.590043	-78.413338	26.264991
09300		10.666636	-1.761752	-0.910054	0.259992	1.971210	0.852864	0.580684	-1.459615	-0.304780	-0.782471	0.252441	0.574951	0.106702	-0.017755	-0.008373	0.191747	-0.747286	-0.219689	-0.597104	-173.523418	-77.597951	27.555680
09301		10.404098	-1.074653	-0.795281	0.787376	1.544432	0.532628	0.649026	-1.446121	-0.410404	-0.773682	0.256592	0.581299	0.104073	-0.010936	-0.007236	0.191371	-0.750547	-0.224505	-0.591315	-174.534946	-76.792022	28.973939
09302		10.293018	-0.361292	-0.934524	1.153739	0.981717	0.417324	0.676859	-1.488581	-0.491648	-0.763672	0.256104	0.590088	0.102987	-0.003836	-0.008592	0.190787	-0.753768	-0.229715	-0.585376	-175.584146	-75.960511	30.449548
09303		10.609663	-0.919814	-1.382072	0.647594	1.353739	0.820605	0.588861	-1.528025	-0.492072	-0.758057	0.259521	0.601074	0.106175	-0.009420	-0.013037	0.189822	-0.757128	-0.234708	-0.579342	-176.546909	-75.100317	31.791873
09304		10.482748	-1.404169	-1.433837	0.403110	1.827946	0.694907	0.568285	-1.549133	-0.485533	-0.752197	0.253418	0.608887	0.104900	-0.014257	-0.013566	0.188749	-0.760524	-0.239602	-0.573209	-177.383369	-74.222952	32.993995
09305		10.433010	-1.950252	-1.535219	0.092488	2.333134	0.654113	0.565865	-1.549557	-0.558763	-0.743652	0.257568	0.621826	0.104390	-0.019752	-0.014599	0.187453	-0.763775	-0.244767	-0.567097	-178.254563	-73.342031	34.238521
09306		10.430757	-1.939546	-1.448483	0.251847	2.504409	0.595145	0.613534	-1.529910	-0.696560	-0.730713	0.251953	0.633057	0.104346	-0.019716	-0.013747	0.185948	-0.766701	-0.250537	-0.561092	-179.242346	-72.468866	35.636809
09307		10.538188	-1.583806	-1.342538	0.643759	2.441151	0.627052	0.702768	-1.518973	-0.883359	-0.731201	0.252197	0.639404	0.105409	-0.016258	-0.012682	0.184269	-0.769210	-0.257261	-0.555138	179.610141	-71.594454	37.266021
