// General information: 
//  MT Manager version: 2019.2.0 
//  XDA version: 2019.2.0 build 3853 rev 94535 built on 2019-09-09
// Device information: 
//  DeviceId: 00B47791
//  ProductCode: MTW2-3A7G6
//  Firmware Version: 4.6.0
//  Hardware Version: 2.0.0
// Device settings: 
//  Filter Profile: human(46.1)
//  Option Flags: Orientation Smoother Disabled, AHS Disabled, ICC Disabled
// Coordinate system: ENU
PacketCounter	SampleTimeFine	Acc_X	Acc_Y	Acc_Z	FreeAcc_E	FreeAcc_N	FreeAcc_U	Gyr_X	Gyr_Y	Gyr_Z	Mag_X	Mag_Y	Mag_Z	VelInc_X	VelInc_Y	VelInc_Z	Quat_q0	Quat_q1	Quat_q2	Quat_q3	Roll	Pitch	Yaw
32423		9.582053	0.059146	1.499800	0.139839	0.005574	-0.114798	-0.043825	0.019429	0.011965	-0.991943	-0.175781	-0.647461	0.095822	0.000600	0.014989	-0.757898	-0.089770	0.638477	-0.099389	3.109612	-80.280523	12.319482
32424		9.581878	0.111787	1.400871	0.220366	0.085842	-0.131190	-0.050923	0.014382	0.017173	-0.983154	-0.164551	-0.646973	0.095820	0.001130	0.014002	-0.757948	-0.089460	0.638473	-0.099321	2.980499	-80.274496	12.417711
32425		9.546772	0.089127	1.415107	0.207500	0.062789	-0.163629	-0.054377	0.017810	0.017489	-0.987061	-0.165771	-0.647949	0.095469	0.000903	0.014142	-0.758012	-0.089133	0.638454	-0.099247	2.847573	-80.266110	12.517821
32426		9.564857	0.122618	1.477993	0.142424	0.083166	-0.134941	-0.056522	0.017782	0.017113	-0.986572	-0.168213	-0.648193	0.095650	0.001239	0.014771	-0.758075	-0.088801	0.638439	-0.099163	2.715218	-80.258059	12.616089
32427		9.550631	0.101349	1.504815	0.120790	0.058766	-0.144635	-0.060286	0.015960	0.010413	-0.991699	-0.163574	-0.641113	0.095507	0.001023	0.015040	-0.758139	-0.088473	0.638427	-0.099041	2.602503	-80.250451	12.692005
32428		9.571402	0.100728	1.518389	0.111501	0.058457	-0.121891	-0.068308	0.004342	0.006740	-0.986328	-0.162354	-0.651611	0.095714	0.001016	0.015181	-0.758169	-0.088135	0.638464	-0.098874	2.500254	-80.249762	12.752877
32429		9.582399	0.070660	1.502852	0.135282	0.036366	-0.113909	-0.071953	-0.002029	-0.000443	-0.981934	-0.163574	-0.649170	0.095824	0.000712	0.015029	-0.758185	-0.087805	0.638523	-0.098665	2.418737	-80.252375	12.790146
32430		9.663286	0.081877	1.461712	0.183851	0.062492	-0.041060	-0.063421	-0.004982	-0.006831	-0.990967	-0.163818	-0.651855	0.096633	0.000820	0.014619	-0.758189	-0.087534	0.638586	-0.098459	2.365805	-80.256671	12.803819
32431		9.705179	0.084222	1.486386	0.165851	0.060901	0.004426	-0.051896	-0.004418	-0.011797	-0.992432	-0.159668	-0.643311	0.097052	0.000840	0.014866	-0.758196	-0.087318	0.638637	-0.098269	2.334736	-80.260055	12.801606
32432		9.681758	0.118230	1.521900	0.118316	0.084031	-0.012405	-0.049664	-0.010477	-0.015834	-0.983643	-0.161865	-0.643066	0.096817	0.001178	0.015224	-0.758181	-0.087131	0.638711	-0.098070	2.320427	-80.267284	12.784089
32433		9.692961	0.090450	1.504877	0.142059	0.061942	-0.004409	-0.041555	-0.016227	-0.016724	-0.984375	-0.155518	-0.644531	0.096928	0.000900	0.015056	-0.758145	-0.086976	0.638802	-0.097891	2.312634	-80.277824	12.764386
32434		9.668254	0.100971	1.543819	0.096081	0.060721	-0.022090	-0.035826	-0.024176	-0.017187	-0.986084	-0.166504	-0.651123	0.096681	0.001004	0.015450	-0.758081	-0.086851	0.638921	-0.097725	2.312656	-80.292865	12.740375
32435		9.668636	0.102120	1.541352	0.095609	0.061841	-0.022093	-0.025913	-0.027510	-0.016441	-0.985840	-0.157471	-0.641602	0.096684	0.001015	0.015427	-0.758004	-0.086760	0.639045	-0.097591	2.314868	-80.309490	12.719463
32436		9.716310	0.118870	1.506400	0.130213	0.088211	0.019165	-0.019814	-0.013757	-0.013904	-0.982910	-0.162354	-0.647217	0.097162	0.001183	0.015071	-0.757965	-0.086681	0.639117	-0.097493	2.311712	-80.318642	12.707984
32437		9.712347	0.130193	1.559181	0.075478	0.085710	0.024214	-0.017016	0.000397	-0.007602	-0.987305	-0.161621	-0.642334	0.097124	0.001300	0.015592	-0.757968	-0.086581	0.639136	-0.097433	2.285500	-80.319648	12.721137
32438		9.664936	0.114863	1.592397	0.039836	0.061474	-0.017049	-0.021047	0.004039	-0.005209	-0.987793	-0.169922	-0.636230	0.096650	0.001148	0.015922	-0.757982	-0.086461	0.639145	-0.097372	2.250054	-80.318811	12.741698
32439		9.678817	0.134159	1.567771	0.060466	0.088015	-0.007383	-0.023770	0.004225	-0.003514	-0.991455	-0.157227	-0.649658	0.096789	0.001342	0.015676	-0.757995	-0.086329	0.639156	-0.097312	2.207949	-80.318100	12.768105
32440		9.654924	0.084968	1.564744	0.071827	0.041708	-0.031772	-0.025759	0.001173	-0.000458	-0.991943	-0.170166	-0.653809	0.096549	0.000851	0.015647	-0.758000	-0.086177	0.639180	-0.097253	2.154235	-80.319002	12.804460
32441		9.653468	0.060410	1.569338	0.072910	0.018446	-0.032592	-0.030471	-0.001693	0.004293	-0.991211	-0.163574	-0.648193	0.096535	0.000609	0.015694	-0.757997	-0.085993	0.639218	-0.097195	2.081905	-80.321292	12.856887
32442		9.643632	0.029592	1.540612	0.105450	-0.002374	-0.047296	-0.027198	-0.005757	0.008651	-0.987549	-0.161621	-0.644531	0.096436	0.000302	0.015409	-0.757975	-0.085810	0.639273	-0.097162	1.997572	-80.326332	12.923466
32443		9.645229	0.052072	1.535231	0.103403	0.023054	-0.046477	-0.029414	-0.010978	0.012489	-0.989746	-0.159912	-0.649658	0.096451	0.000529	0.015358	-0.757937	-0.085609	0.639349	-0.097136	1.899326	-80.334308	13.002992
32444		9.659440	0.069579	1.508628	0.124067	0.049616	-0.036812	-0.021377	-0.021922	0.015809	-0.984619	-0.161621	-0.649170	0.096593	0.000705	0.015097	-0.757858	-0.085433	0.639466	-0.097142	1.795776	-80.348700	13.092444
32445		9.624894	0.047586	1.519069	0.111215	0.026522	-0.069211	-0.016890	-0.021222	0.011838	-0.996582	-0.154541	-0.642090	0.096247	0.000483	0.015201	-0.757783	-0.085284	0.639574	-0.097147	1.707338	-80.362248	13.169013
32446		9.660145	0.066557	1.504248	0.123088	0.051773	-0.036811	-0.009360	-0.026759	0.013011	-0.993408	-0.160645	-0.646240	0.096599	0.000673	0.015055	-0.757684	-0.085165	0.639701	-0.097179	1.620047	-80.379315	13.248948
32447		9.653648	0.027853	1.564010	0.071375	0.000573	-0.033386	-0.006518	-0.031497	0.010818	-0.987305	-0.160645	-0.638672	0.096534	0.000284	0.015655	-0.757569	-0.085064	0.639846	-0.097211	1.540388	-80.399208	13.322647
32448		9.644223	-0.002767	1.532332	0.103915	-0.020263	-0.048064	-0.000954	-0.036421	0.006927	-0.991455	-0.162354	-0.650391	0.096439	-0.000024	0.015341	-0.757439	-0.085000	0.640004	-0.097242	1.478799	-80.421681	13.381391
32449		9.655759	-0.031959	1.512907	0.127674	-0.042407	-0.039996	0.003919	-0.036577	0.005587	-0.990723	-0.156250	-0.642578	0.096555	-0.000317	0.015147	-0.757307	-0.084962	0.640158	-0.097286	1.424532	-80.444128	13.435832
32450		9.674792	0.003053	1.570784	0.062576	-0.021878	-0.011433	0.009410	-0.035421	0.006098	-0.993896	-0.152588	-0.640381	0.096745	0.000033	0.015725	-0.757176	-0.084940	0.640307	-0.097348	1.371085	-80.465998	13.492334
32451		9.687674	-0.001914	1.547570	0.084743	-0.019610	-0.002568	0.011387	-0.021093	0.003248	-0.988281	-0.155273	-0.647217	0.096875	-0.000018	0.015486	-0.757091	-0.084923	0.640400	-0.097412	1.325044	-80.479738	13.542108
32452		9.681013	0.015944	1.507580	0.114206	0.008251	-0.015649	0.019084	-0.029655	0.007824	-0.993164	-0.160156	-0.649170	0.096808	0.000162	0.015090	-0.756974	-0.084930	0.640522	-0.097514	1.270361	-80.498311	13.605477
32453		9.676122	0.002489	1.562571	0.061027	-0.018583	-0.011417	0.026013	-0.032840	-0.000980	-0.986816	-0.150146	-0.646240	0.096759	0.000022	0.015642	-0.756849	-0.084990	0.640648	-0.097603	1.249010	-80.518277	13.638793
32454		9.668154	-0.002860	1.526020	0.092029	-0.015080	-0.025285	0.032135	-0.041643	0.001162	-0.989502	-0.163086	-0.648682	0.096678	-0.000030	0.015280	-0.756691	-0.085073	0.640807	-0.097716	1.225175	-80.543624	13.678462
32455		9.689788	-0.001336	1.534280	0.082761	-0.015254	-0.002544	0.039899	-0.045009	0.001521	-0.985840	-0.153076	-0.646240	0.096894	-0.000016	0.015365	-0.756521	-0.085182	0.640972	-0.097853	1.203579	-80.570517	13.719949
32456		9.657107	0.002810	1.537920	0.068326	-0.014052	-0.034136	0.047891	-0.046205	0.001090	-0.994629	-0.154297	-0.639893	0.096568	0.000025	0.015402	-0.756341	-0.085327	0.641140	-0.098015	1.189013	-80.598471	13.759367
32457		9.638364	0.026095	1.515989	0.075090	0.012704	-0.056092	0.049152	-0.054843	0.004554	-0.987061	-0.164063	-0.648438	0.096379	0.000259	0.015186	-0.756132	-0.085464	0.641341	-0.098189	1.161542	-80.631265	13.812011
32458		9.633553	0.068509	1.468218	0.103035	0.064896	-0.068414	0.050815	-0.060677	0.002537	-0.987793	-0.154541	-0.635742	0.096331	0.000683	0.014712	-0.755904	-0.085623	0.641563	-0.098359	1.144225	-80.667521	13.855906
32459		9.615763	0.033110	1.400813	0.167144	0.046453	-0.096918	0.050551	-0.068024	0.007483	-0.991943	-0.157227	-0.639893	0.096153	0.000331	0.014041	-0.755651	-0.085768	0.641813	-0.098544	1.109572	-80.707787	13.917206
32460		9.639218	0.058063	1.401771	0.156287	0.070593	-0.073414	0.058727	-0.072235	0.010429	-0.984375	-0.160645	-0.643555	0.096387	0.000582	0.014053	-0.755378	-0.085936	0.642078	-0.098765	1.069239	-80.750742	13.989006
32461		9.606799	0.061190	1.403504	0.141910	0.071786	-0.105017	0.061330	-0.060244	0.017496	-0.987793	-0.151123	-0.639893	0.096064	0.000616	0.014064	-0.755141	-0.086085	0.642297	-0.099026	1.003848	-80.786606	14.087579
32462		9.652487	0.110312	1.413997	0.120712	0.119022	-0.058031	0.060519	-0.039646	0.020733	-0.987549	-0.158447	-0.640137	0.096522	0.001109	0.014159	-0.754966	-0.086211	0.642442	-0.099305	0.925037	-80.810966	14.199383
32463		9.660203	0.091264	1.448443	0.090226	0.093368	-0.044935	0.060957	-0.024041	0.019353	-0.988770	-0.159424	-0.642090	0.096600	0.000918	0.014496	-0.754844	-0.086331	0.642526	-0.099585	0.848509	-80.826079	14.308566
32464		9.712749	0.122617	1.499375	0.039018	0.113864	0.015139	0.052277	-0.014425	0.014232	-0.985107	-0.163086	-0.638916	0.097126	0.001229	0.015001	-0.754758	-0.086435	0.642577	-0.099824	0.785989	-80.835890	14.399075
32465		9.775241	0.043292	1.495768	0.070928	0.041657	0.076082	0.044397	-0.014135	0.006066	-0.983887	-0.157959	-0.639160	0.097751	0.000433	0.014965	-0.754681	-0.086535	0.642625	-0.100008	0.748307	-80.845124	14.459932
32466		9.818225	-0.012247	1.474681	0.110060	-0.004933	0.115063	0.038449	-0.023617	-0.009273	-0.994141	-0.147461	-0.641602	0.098181	-0.000130	0.014758	-0.754582	-0.086666	0.642707	-0.100110	0.761647	-80.860008	14.465575
32467		9.825072	-0.111398	1.470385	0.138363	-0.100061	0.120959	0.042838	-0.033283	-0.004886	-0.988770	-0.156250	-0.641846	0.098248	-0.001120	0.014720	-0.754450	-0.086798	0.642825	-0.100235	0.760132	-80.880200	14.487999
32468		9.824149	-0.133637	1.471657	0.139348	-0.123341	0.120233	0.050096	-0.038884	-0.015020	-0.982910	-0.157227	-0.647705	0.098239	-0.001347	0.014735	-0.754301	-0.087000	0.642956	-0.100346	0.801441	-80.903785	14.472073
32469		9.806599	-0.084896	1.446101	0.144670	-0.072266	0.099005	0.055037	-0.037499	-0.012504	-0.986816	-0.160400	-0.639160	0.098063	-0.000859	0.014479	-0.754155	-0.087206	0.643078	-0.100481	0.835689	-80.926066	14.465542
32470		9.796225	-0.054534	1.458875	0.119900	-0.047988	0.090880	0.071195	-0.023993	-0.001526	-0.983643	-0.158203	-0.639404	0.097960	-0.000551	0.014600	-0.754037	-0.087436	0.643148	-0.100717	0.840081	-80.941231	14.499243
32471		9.739357	0.042592	1.546118	0.001286	0.020427	0.048699	0.076943	0.003415	0.002435	-0.980225	-0.166260	-0.641113	0.097394	0.000421	0.015460	-0.754004	-0.087660	0.643112	-0.100998	0.831723	-80.940442	14.548990
32472		9.639164	0.054447	1.572022	-0.040907	0.021752	-0.046135	0.077093	0.022950	0.006211	-0.981934	-0.149658	-0.635498	0.096393	0.000541	0.015709	-0.754030	-0.087864	0.643006	-0.101303	0.809267	-80.928775	14.613301
32473		9.645433	0.095758	1.655989	-0.128703	0.041289	-0.026596	0.070859	0.032674	0.012664	-0.986328	-0.155762	-0.641357	0.096457	0.000958	0.016544	-0.754088	-0.088016	0.642868	-0.101615	0.759109	-80.911323	14.701730
32474		9.597913	0.080792	1.692064	-0.164310	0.016929	-0.067830	0.063959	0.020606	0.004890	-0.985840	-0.158936	-0.645264	0.095981	0.000805	0.016911	-0.754113	-0.088175	0.642776	-0.101872	0.734261	-80.900976	14.760847
32475		9.599708	0.046065	1.645195	-0.109041	-0.002805	-0.073525	0.056669	0.013414	0.010907	-0.984863	-0.162109	-0.646973	0.095998	0.000461	0.016446	-0.754116	-0.088289	0.642717	-0.102123	0.683203	-80.894575	14.841855
32476		9.599553	0.046237	1.646094	-0.109570	-0.001745	-0.073531	0.043172	0.005797	0.002617	-0.991455	-0.162354	-0.630859	0.095996	0.000460	0.016458	-0.754103	-0.088385	0.642691	-0.102298	0.655354	-80.892685	14.891952
32477		9.692252	0.053037	1.584008	-0.038437	0.025831	0.008183	0.039162	-0.001819	0.004866	-0.986572	-0.167969	-0.636963	0.096922	0.000530	0.015841	-0.754067	-0.088463	0.642696	-0.102466	0.617408	-80.895178	14.950077
32478		9.725584	0.049531	1.575844	-0.025092	0.026830	0.039793	0.041767	0.002539	0.003615	-0.983887	-0.160889	-0.640869	0.097256	0.000494	0.015757	-0.754044	-0.088552	0.642683	-0.102639	0.585314	-80.895151	15.003657
32479		9.772631	0.065023	1.542584	0.009447	0.053338	0.081007	0.039836	0.004671	0.002474	-0.987305	-0.160156	-0.638184	0.097727	0.000648	0.015424	-0.754029	-0.088638	0.642663	-0.102803	0.556266	-80.893885	15.053257
32480		9.827521	0.004106	1.503862	0.071226	0.007935	0.128975	0.039660	0.007670	-0.000957	-0.991943	-0.155273	-0.637207	0.098276	0.000038	0.015035	-0.754026	-0.088732	0.642629	-0.102954	0.539147	-80.890885	15.090448
32481		9.867957	-0.016654	1.534543	0.054504	-0.017746	0.173723	0.043515	0.014681	0.001462	-0.983154	-0.160156	-0.635986	0.098681	-0.000169	0.015338	-0.754041	-0.088827	0.642570	-0.103129	0.514544	-80.883954	15.137301
32482		9.884226	-0.086044	1.563962	0.049652	-0.090944	0.194338	0.046837	0.030683	-0.006400	-0.977051	-0.160400	-0.631836	0.098845	-0.000867	0.015624	-0.754112	-0.088953	0.642444	-0.103293	0.520290	-80.867738	15.155501
32483		9.813986	-0.124905	1.594072	0.024371	-0.138463	0.129708	0.045741	0.047575	-0.006356	-0.985840	-0.154297	-0.636963	0.098144	-0.001256	0.015917	-0.754236	-0.089066	0.642255	-0.103461	0.524341	-80.841906	15.174824
32484		9.782586	-0.209251	1.660205	-0.015558	-0.237118	0.109137	0.048352	0.059607	0.000639	-0.978516	-0.161865	-0.632813	0.097831	-0.002096	0.016572	-0.754395	-0.089160	0.642022	-0.103669	0.505168	-80.809155	15.219149
32485		9.777870	-0.196995	1.719834	-0.070382	-0.239526	0.114097	0.049261	0.068259	-0.002581	-0.989746	-0.162354	-0.641113	0.097785	-0.001975	0.017164	-0.754582	-0.089262	0.641755	-0.103871	0.497123	-80.771502	15.252639
32486		9.820665	-0.223557	1.847665	-0.171411	-0.295396	0.176941	0.050179	0.073317	0.002317	-0.980225	-0.166748	-0.639160	0.098213	-0.002239	0.018440	-0.754783	-0.089351	0.641470	-0.104098	0.473147	-80.730900	15.302900
32487		9.869808	-0.214135	1.913199	-0.221212	-0.299032	0.236239	0.045923	0.086091	0.005622	-0.988525	-0.159668	-0.635010	0.098706	-0.002143	0.019089	-0.755024	-0.089407	0.641140	-0.104330	0.434966	-80.683017	15.365267
32488		9.864216	-0.202783	1.975741	-0.276031	-0.301428	0.241186	0.039567	0.100399	0.012464	-0.975830	-0.161865	-0.632568	0.098652	-0.002026	0.019707	-0.755311	-0.089409	0.640763	-0.104572	0.369797	-80.626928	15.451126
32489		9.940505	-0.156905	1.992693	-0.283461	-0.254010	0.319647	0.036519	0.103003	0.015387	-0.982666	-0.161133	-0.648682	0.099415	-0.001565	0.019875	-0.755604	-0.089389	0.640379	-0.104818	0.293023	-80.569447	15.547103
32490		9.945374	-0.175824	2.041159	-0.314076	-0.279596	0.332798	0.039475	0.109074	0.029175	-0.973633	-0.154053	-0.640137	0.099465	-0.001748	0.020357	-0.755910	-0.089332	0.639975	-0.105127	0.172280	-80.508386	15.689278
32491		9.979443	-0.134310	2.034538	-0.303794	-0.229770	0.365798	0.043412	0.117672	0.035382	-0.980225	-0.165039	-0.644287	0.099807	-0.001330	0.020286	-0.756237	-0.089264	0.639540	-0.105476	0.033444	-80.442304	15.851895
32492		10.028698	-0.104702	2.099913	-0.355121	-0.208985	0.425749	0.057511	0.132801	0.049672	-0.977783	-0.158936	-0.649170	0.100301	-0.001028	0.020932	-0.756599	-0.089197	0.639046	-0.105931	-0.142554	-80.367520	16.060645
32493		9.989680	-0.069241	2.170374	-0.425300	-0.186944	0.399715	0.057586	0.155379	0.049697	-0.978271	-0.165283	-0.646240	0.099914	-0.000674	0.021626	-0.757032	-0.089119	0.638466	-0.106397	-0.315702	-80.279651	16.266650
32494		9.955282	-0.105175	2.146141	-0.383962	-0.206684	0.362501	0.050858	0.166976	0.061847	-0.971924	-0.159912	-0.650635	0.099571	-0.001026	0.021378	-0.757499	-0.088970	0.637851	-0.106892	-0.528695	-80.185013	16.509179
32495		9.898793	-0.084234	2.153392	-0.391019	-0.180008	0.308822	0.049607	0.178172	0.070529	-0.968262	-0.158936	-0.644531	0.099007	-0.000813	0.021446	-0.757996	-0.088783	0.637197	-0.107421	-0.766466	-80.083689	16.776328
32496		9.814664	-0.160724	2.169391	-0.383224	-0.249625	0.229748	0.040593	0.192749	0.078789	-0.976563	-0.155518	-0.658936	0.098168	-0.001573	0.021599	-0.758538	-0.088527	0.636496	-0.107959	-1.029777	-79.973796	17.064124
32497		9.698197	-0.210128	2.189366	-0.390763	-0.294864	0.119725	0.049585	0.214069	0.087319	-0.965820	-0.161621	-0.651611	0.097006	-0.002064	0.021789	-0.759139	-0.088265	0.635712	-0.108567	-1.308506	-79.851283	17.372828
32498		9.588150	-0.193974	2.286677	-0.487114	-0.297217	0.029744	0.066961	0.231785	0.094115	-0.972168	-0.158203	-0.649658	0.095909	-0.001902	0.022755	-0.759783	-0.088039	0.634854	-0.109263	-1.589499	-79.718335	17.694160
32499		9.510806	-0.181806	2.377787	-0.569612	-0.299573	-0.028614	0.077899	0.249422	0.099787	-0.966309	-0.159912	-0.651855	0.095139	-0.001780	0.023659	-0.760474	-0.087828	0.633924	-0.110026	-1.872943	-79.574867	18.024697
32500		9.442494	-0.193603	2.362923	-0.543586	-0.295025	-0.096773	0.077124	0.244002	0.110425	-0.972656	-0.150879	-0.666260	0.094455	-0.001893	0.023513	-0.761141	-0.087582	0.633018	-0.110821	-2.181299	-79.434024	18.380068
32501		9.397610	-0.151763	2.258311	-0.445068	-0.212773	-0.158949	0.086555	0.231237	0.116783	-0.970215	-0.156738	-0.663086	0.094003	-0.001472	0.022474	-0.761759	-0.087358	0.632157	-0.111666	-2.497256	-79.299887	18.748814
32502		9.421649	-0.123985	2.229337	-0.403208	-0.160683	-0.139821	0.100791	0.222843	0.122225	-0.963135	-0.157227	-0.665771	0.094242	-0.001193	0.022188	-0.762339	-0.087176	0.631322	-0.112572	-2.813437	-79.170140	19.126266
32503		9.458239	-0.096903	2.088256	-0.254301	-0.077295	-0.129826	0.093532	0.211202	0.127598	-0.970215	-0.149170	-0.674072	0.094605	-0.000918	0.020782	-0.762882	-0.086956	0.630535	-0.113471	-3.143862	-79.046363	19.514262
32504		9.467338	-0.166726	1.954410	-0.090571	-0.090233	-0.145132	0.096162	0.208877	0.126409	-0.971191	-0.154541	-0.674561	0.094695	-0.001617	0.019444	-0.763415	-0.086751	0.629755	-0.114372	-3.461187	-78.923678	19.890495
32505		9.442486	-0.177758	1.960964	-0.082236	-0.088006	-0.167845	0.097289	0.201704	0.122473	-0.962646	-0.158936	-0.667969	0.094446	-0.001729	0.019514	-0.763927	-0.086565	0.628998	-0.115258	-3.761036	-78.804676	20.249591
32506		9.464305	-0.198071	1.940044	-0.037394	-0.084646	-0.150003	0.086311	0.196294	0.113539	-0.959473	-0.155762	-0.677246	0.094663	-0.001935	0.019307	-0.764429	-0.086369	0.628264	-0.116072	-4.035051	-78.688946	20.576219
32507		9.421173	-0.185728	1.927339	-0.021679	-0.056945	-0.194793	0.069778	0.197512	0.112165	-0.958496	-0.157471	-0.676758	0.094232	-0.001811	0.019180	-0.764943	-0.086115	0.627532	-0.116832	-4.308601	-78.572126	20.893097
32508		9.445289	-0.181938	1.901187	0.021671	-0.029228	-0.176312	0.039847	0.200800	0.098678	-0.958252	-0.156738	-0.676758	0.094473	-0.001777	0.018917	-0.765486	-0.085786	0.626800	-0.117446	-4.554473	-78.453891	21.164107
32509		9.344090	-0.212290	1.892395	0.035422	-0.049158	-0.276727	0.018839	0.198560	0.077819	-0.956543	-0.147461	-0.682617	0.093460	-0.002088	0.018831	-0.766043	-0.085444	0.626078	-0.117915	-4.750190	-78.337546	21.372039
32510		9.330695	-0.249188	1.882940	0.067930	-0.070200	-0.291141	0.001013	0.193895	0.065253	-0.962402	-0.149414	-0.687500	0.093326	-0.002462	0.018739	-0.766599	-0.085075	0.625379	-0.118276	-4.918508	-78.224491	21.541346
32511		9.257673	-0.269175	1.918512	0.041249	-0.093559	-0.355036	-0.012445	0.176913	0.045150	-0.956299	-0.152100	-0.691406	0.092594	-0.002670	0.019103	-0.767120	-0.084726	0.624743	-0.118510	-5.041539	-78.121860	21.656461
32512		9.274865	-0.271928	1.946877	0.031824	-0.093656	-0.332308	-0.018694	0.149194	0.030829	-0.960205	-0.144775	-0.690186	0.092764	-0.002703	0.019400	-0.767563	-0.084415	0.624212	-0.118658	-5.133590	-78.035914	21.736405
32513		9.240825	-0.246363	1.960095	0.015994	-0.068272	-0.363318	-0.020244	0.111531	0.019307	-0.957764	-0.142822	-0.680664	0.092419	-0.002453	0.019550	-0.767898	-0.084155	0.623820	-0.118742	-5.204285	-77.971840	21.793554
32514		9.254320	-0.229604	1.944007	0.036656	-0.041726	-0.353764	-0.024387	0.082211	0.001659	-0.949219	-0.151611	-0.687988	0.092551	-0.002293	0.019402	-0.768152	-0.083953	0.623536	-0.118732	-5.236192	-77.925595	21.808702
32515		9.297071	-0.198861	1.880818	0.101227	0.011526	-0.325740	-0.017782	0.059153	-0.009961	-0.955566	-0.150391	-0.680176	0.092976	-0.001992	0.018781	-0.768338	-0.083825	0.623332	-0.118689	-5.239543	-77.893001	21.798564
32516		9.372619	-0.176458	1.901422	0.095243	0.034740	-0.248052	-0.025519	0.057791	-0.021982	-0.946045	-0.153076	-0.684326	0.093731	-0.001772	0.018987	-0.768530	-0.083707	0.623133	-0.118574	-5.215118	-77.861924	21.755436
32517		9.446967	-0.171513	1.837240	0.175102	0.063685	-0.189001	-0.031031	0.082883	-0.040215	-0.944336	-0.154053	-0.683350	0.094477	-0.001731	0.018334	-0.768814	-0.083611	0.622832	-0.118386	-5.140237	-77.817380	21.657780
32518		9.492249	-0.177997	1.820027	0.211049	0.065940	-0.148419	-0.037376	0.104697	-0.048299	-0.944336	-0.157715	-0.686035	0.094932	-0.001799	0.018151	-0.769172	-0.083501	0.622448	-0.118153	-5.042836	-77.760850	21.533023
32519		9.470516	-0.239425	1.865378	0.192265	-0.007242	-0.159159	-0.046651	0.109254	-0.058672	-0.958008	-0.143799	-0.689453	0.094715	-0.002418	0.018603	-0.769555	-0.083387	0.622047	-0.117856	-4.923797	-77.702083	21.381123
32520		9.441908	-0.306909	1.876827	0.205044	-0.078180	-0.183662	-0.055412	0.091695	-0.064172	-0.953613	-0.144287	-0.695557	0.094427	-0.003094	0.018726	-0.769889	-0.083265	0.621717	-0.117500	-4.800308	-77.653641	21.219032
32521		9.485382	-0.335322	1.863899	0.242468	-0.100241	-0.143655	-0.060505	0.077406	-0.070382	-0.947754	-0.152588	-0.697266	0.094860	-0.003381	0.018603	-0.770185	-0.083150	0.621441	-0.117099	-4.668572	-77.613470	21.045333
32522		9.517877	-0.333984	1.864779	0.255711	-0.099128	-0.111981	-0.062622	0.075805	-0.074653	-0.950684	-0.144043	-0.698242	0.095185	-0.003370	0.018613	-0.770479	-0.083042	0.621172	-0.116673	-4.527442	-77.574427	20.860898
32523		9.494538	-0.334039	1.950300	0.179689	-0.126983	-0.116653	-0.074141	0.094090	-0.084526	-0.948975	-0.154053	-0.692383	0.094953	-0.003373	0.019460	-0.770840	-0.082908	0.620833	-0.116183	-4.365465	-77.525130	20.648294
32524		9.483911	-0.357477	1.931287	0.212193	-0.148040	-0.130990	-0.074480	0.102501	-0.090479	-0.943359	-0.154053	-0.695801	0.094847	-0.003610	0.019266	-0.771230	-0.082788	0.620461	-0.115670	-4.187617	-77.471288	20.419222
32525		9.433216	-0.346078	2.057609	0.090789	-0.178223	-0.153542	-0.075649	0.101430	-0.090363	-0.953613	-0.151367	-0.697754	0.094341	-0.003496	0.020530	-0.771616	-0.082665	0.620092	-0.115157	-4.013142	-77.417819	20.193185
32526		9.470018	-0.360315	2.098479	0.073923	-0.203699	-0.108682	-0.067156	0.087032	-0.096318	-0.946533	-0.146240	-0.705566	0.094708	-0.003642	0.020945	-0.771958	-0.082600	0.619771	-0.114639	-3.822278	-77.372738	19.954983
32527		9.471392	-0.393882	2.148701	0.044746	-0.253574	-0.096051	-0.067197	0.063565	-0.093289	-0.945313	-0.152588	-0.699463	0.094719	-0.003976	0.021458	-0.772225	-0.082537	0.619542	-0.114123	-3.645212	-77.340685	19.730837
32528		9.500225	-0.438336	2.157587	0.060931	-0.301152	-0.065524	-0.066664	0.044428	-0.091959	-0.944824	-0.154297	-0.708008	0.095005	-0.004420	0.021556	-0.772431	-0.082485	0.619387	-0.113605	-3.474390	-77.319488	19.513405
32529		9.557717	-0.386450	2.159044	0.062320	-0.252318	-0.009972	-0.065701	0.043370	-0.091404	-0.949463	-0.155273	-0.701904	0.095580	-0.003901	0.021571	-0.772633	-0.082435	0.619235	-0.113094	-3.305871	-77.298614	19.299030
32530		9.554318	-0.338097	2.120293	0.090396	-0.200282	-0.022557	-0.069812	0.056250	-0.088677	-0.941162	-0.152344	-0.699219	0.095548	-0.003416	0.021177	-0.772875	-0.082354	0.619038	-0.112584	-3.144822	-77.270271	19.089729
32531		9.559839	-0.324536	2.159848	0.058256	-0.201414	-0.008769	-0.058975	0.079889	-0.089889	-0.940186	-0.153564	-0.707031	0.095606	-0.003282	0.021561	-0.773185	-0.082305	0.618741	-0.112115	-2.972974	-77.228231	18.875907
32532		9.655797	-0.205252	2.145236	0.068989	-0.079398	0.080114	-0.057965	0.100912	-0.085130	-0.942139	-0.152832	-0.706787	0.096568	-0.002087	0.021404	-0.773558	-0.082234	0.618365	-0.111673	-2.810493	-77.173961	18.672029
32533		9.651647	-0.221738	2.160688	0.069917	-0.102641	0.079562	-0.065154	0.119267	-0.094362	-0.944092	-0.154053	-0.706299	0.096528	-0.002256	0.021550	-0.773995	-0.082152	0.617917	-0.111183	-2.629244	-77.109178	18.444698
32534		9.658237	-0.201945	2.114484	0.122161	-0.073799	0.075334	-0.064260	0.124382	-0.089720	-0.946289	-0.146240	-0.705322	0.096595	-0.002056	0.021085	-0.774444	-0.082057	0.617451	-0.110714	-2.459761	-77.041317	18.229834
32535		9.701243	-0.227449	2.106123	0.159538	-0.095766	0.115402	-0.066705	0.129798	-0.092622	-0.937500	-0.150879	-0.697998	0.097025	-0.002312	0.020999	-0.774912	-0.081957	0.616964	-0.110230	-2.286925	-76.970218	18.010009
32536		9.673998	-0.203444	2.066841	0.198010	-0.067034	0.079518	-0.069144	0.135218	-0.095542	-0.937012	-0.160400	-0.716064	0.096753	-0.002074	0.020604	-0.775399	-0.081855	0.616455	-0.109727	-2.108982	-76.895992	17.783464
32537		9.676639	-0.230742	2.032584	0.253206	-0.086894	0.074187	-0.069259	0.152014	-0.098323	-0.935547	-0.148193	-0.709961	0.096781	-0.002348	0.020253	-0.775938	-0.081752	0.615879	-0.109223	-1.925965	-76.811978	17.551789
32538		9.562920	-0.223458	2.122136	0.158537	-0.113905	-0.016529	-0.062750	0.155155	-0.100802	-0.944580	-0.159912	-0.711670	0.095644	-0.002276	0.021148	-0.776485	-0.081680	0.615287	-0.108728	-1.734858	-76.726104	17.315333
32539		9.551672	-0.245002	2.108443	0.191052	-0.134940	-0.030804	-0.059890	0.158006	-0.106147	-0.944092	-0.163086	-0.714600	0.095532	-0.002494	0.021010	-0.777042	-0.081633	0.614679	-0.108224	-1.532665	-76.638455	17.069202
32540		9.503438	-0.268869	2.191394	0.125402	-0.186094	-0.058742	-0.062238	0.155838	-0.105895	-0.930908	-0.150146	-0.707520	0.095050	-0.002732	0.021841	-0.777592	-0.081578	0.614080	-0.107710	-1.334578	-76.551890	16.825702
32541		9.504012	-0.212319	2.196198	0.121915	-0.136258	-0.057630	-0.065736	0.150995	-0.109263	-0.930420	-0.156738	-0.715576	0.095055	-0.002168	0.021891	-0.778130	-0.081523	0.613500	-0.107174	-1.134344	-76.467932	16.578097
32542		9.477334	-0.252362	2.205858	0.133226	-0.182869	-0.081390	-0.066515	0.147520	-0.110397	-0.927490	-0.161133	-0.724365	0.094788	-0.002569	0.021990	-0.778657	-0.081469	0.612933	-0.106626	-0.933936	-76.385787	16.329517
32543		9.488230	-0.248443	2.200393	0.155373	-0.180590	-0.072401	-0.076924	0.151132	-0.109747	-0.925781	-0.155273	-0.722656	0.094898	-0.002528	0.021933	-0.779199	-0.081371	0.612356	-0.106054	-0.744351	-76.301277	16.086049
32544		9.501591	-0.286367	2.237902	0.148850	-0.229276	-0.050736	-0.099178	0.148870	-0.111343	-0.935303	-0.166504	-0.727783	0.095031	-0.002906	0.022310	-0.779743	-0.081193	0.611800	-0.105403	-0.565687	-76.217981	15.840413
32545		9.479763	-0.386052	2.203361	0.217380	-0.321215	-0.080303	-0.117069	0.142087	-0.112411	-0.929199	-0.165771	-0.720703	0.094811	-0.003901	0.021969	-0.780273	-0.080951	0.611278	-0.104693	-0.398185	-76.138320	15.595872
32546		9.495963	-0.441462	2.152641	0.296729	-0.364328	-0.077120	-0.128306	0.124671	-0.116635	-0.925781	-0.160400	-0.727051	0.094970	-0.004456	0.021470	-0.780756	-0.080687	0.610827	-0.103922	-0.229061	-76.068559	15.342705
32547		9.522547	-0.507857	2.172900	0.314342	-0.436166	-0.046969	-0.130578	0.131601	-0.127119	-0.919434	-0.153809	-0.723145	0.095236	-0.005125	0.021670	-0.781265	-0.080444	0.610346	-0.103110	-0.040018	-75.994623	15.068000
32548		9.567683	-0.557114	2.419917	0.121132	-0.546735	0.056118	-0.131463	0.164704	-0.116757	-0.930664	-0.162354	-0.723633	0.095693	-0.005611	0.024124	-0.781869	-0.080148	0.609739	-0.102345	0.122952	-75.901549	14.819141
32549		9.671365	-0.539672	2.789966	-0.187689	-0.617116	0.246854	-0.149895	0.201462	-0.104988	-0.926025	-0.159424	-0.732666	0.096739	-0.005427	0.027806	-0.782585	-0.079724	0.609002	-0.101588	0.244524	-75.787296	14.602171
32550		9.649839	-0.449323	2.990690	-0.385615	-0.579536	0.275965	-0.177389	0.181916	-0.087081	-0.921875	-0.160156	-0.732666	0.096524	-0.004509	0.029823	-0.783243	-0.079149	0.608362	-0.100806	0.308863	-75.684195	14.427697
32551		9.799942	-0.327076	2.904972	-0.285677	-0.428171	0.401017	-0.159840	0.131871	-0.064387	-0.920898	-0.165527	-0.728760	0.098017	-0.003279	0.028988	-0.783729	-0.078598	0.607916	-0.100149	0.330619	-75.609754	14.307731
32552		9.970135	-0.074034	2.862312	-0.256267	-0.159374	0.556055	-0.128497	0.126613	-0.048588	-0.928467	-0.164551	-0.731934	0.099719	-0.000746	0.028560	-0.784177	-0.078124	0.607481	-0.099644	0.335581	-75.538426	14.223366
32553		10.020331	0.144546	2.864982	-0.287854	0.059092	0.606030	-0.122497	0.153479	-0.031657	-0.919922	-0.157715	-0.731201	0.100225	0.001447	0.028572	-0.784695	-0.077612	0.606944	-0.099241	0.304937	-75.451765	14.179974
32554		9.794924	0.211655	2.762716	-0.248831	0.141079	0.362581	-0.123057	0.155939	-0.019398	-0.921387	-0.159180	-0.743408	0.097971	0.002124	0.027549	-0.785215	-0.077057	0.606401	-0.098878	0.247763	-75.363735	14.162974
32555		9.502574	0.218207	2.715312	-0.264485	0.147436	0.067988	-0.120382	0.130658	-0.010428	-0.919189	-0.162842	-0.735107	0.095044	0.002193	0.027090	-0.785652	-0.076497	0.605959	-0.098553	0.171991	-75.290153	14.167108
32556		9.179517	0.121856	2.633931	-0.233718	0.059401	-0.265027	-0.127047	0.102563	-0.018243	-0.924561	-0.159180	-0.742432	0.091809	0.001227	0.026291	-0.786009	-0.075949	0.605628	-0.098162	0.110921	-75.232718	14.151761
32557		9.006369	-0.015136	2.514503	-0.123832	-0.051154	-0.462838	-0.136736	0.067847	-0.023909	-0.916260	-0.158936	-0.733398	0.090072	-0.000145	0.025115	-0.786267	-0.075398	0.605435	-0.097712	0.056094	-75.195133	14.124800
32558		8.914288	-0.122412	2.445981	-0.051131	-0.141406	-0.569326	-0.149364	0.060881	-0.037585	-0.918945	-0.162598	-0.742188	0.089150	-0.001223	0.024434	-0.786516	-0.074841	0.605270	-0.097161	0.024475	-75.161579	14.065756
32559		8.849784	-0.327836	2.389681	0.041156	-0.328932	-0.646072	-0.166673	0.081425	-0.050495	-0.916504	-0.156738	-0.738281	0.088507	-0.003281	0.023864	-0.786837	-0.074247	0.605027	-0.096522	0.009978	-75.116222	13.979418
32560		8.861735	-0.485307	2.349947	0.126380	-0.469568	-0.644718	-0.171554	0.096937	-0.056161	-0.910400	-0.166748	-0.735596	0.088627	-0.004858	0.023461	-0.787211	-0.073641	0.604723	-0.095844	0.005320	-75.062017	13.879292
32561		8.937997	-0.633360	2.386909	0.153177	-0.615303	-0.561515	-0.164869	0.083308	-0.055811	-0.912842	-0.157715	-0.741699	0.089388	-0.006339	0.023837	-0.787538	-0.073071	0.604469	-0.095190	0.002756	-75.015596	13.781795
32562		9.114428	-0.751937	2.490279	0.133792	-0.741607	-0.364311	-0.156244	0.060462	-0.044240	-0.917969	-0.153809	-0.740234	0.091150	-0.007520	0.024881	-0.787789	-0.072506	0.604305	-0.094593	-0.019185	-74.982295	13.708601
32563		9.297581	-0.775489	2.575583	0.108554	-0.770355	-0.165160	-0.143848	0.044659	-0.030196	-0.914551	-0.154053	-0.745361	0.092980	-0.007750	0.025741	-0.787979	-0.071957	0.604201	-0.094088	-0.065089	-74.958021	13.668159
32564		9.432400	-0.793021	2.683629	0.046895	-0.800485	-0.006671	-0.145482	0.032106	-0.018558	-0.908936	-0.148682	-0.749512	0.094328	-0.007919	0.026827	-0.788126	-0.071371	0.604152	-0.093614	-0.135735	-74.940971	13.651769
32565		9.515497	-0.786424	2.775978	-0.021007	-0.805378	0.097920	-0.138364	0.003420	0.004262	-0.914307	-0.157471	-0.742920	0.095156	-0.007843	0.027764	-0.788174	-0.070757	0.604220	-0.093246	-0.252255	-74.940207	13.687483
32566		9.563626	-0.735790	2.827331	-0.073953	-0.759625	0.158051	-0.132095	-0.054580	0.018822	-0.916748	-0.150146	-0.754395	0.095629	-0.007330	0.028304	-0.788036	-0.070151	0.604518	-0.092928	-0.395707	-74.972719	13.754426
32567		9.638286	-0.608612	2.751651	-0.024147	-0.609664	0.210599	-0.101157	-0.112602	0.034661	-0.922607	-0.150635	-0.746826	0.096368	-0.006055	0.027574	-0.787704	-0.069647	0.605036	-0.092753	-0.558066	-75.038250	13.859917
32568		9.718722	-0.410007	2.660487	0.021279	-0.386648	0.264509	-0.090734	-0.137679	0.047552	-0.918457	-0.146240	-0.743408	0.097170	-0.004065	0.026674	-0.787287	-0.069156	0.605652	-0.092644	-0.742862	-75.118086	13.994134
32569		9.817969	-0.302145	2.631861	0.031966	-0.264136	0.352926	-0.084123	-0.141542	0.055128	-0.908936	-0.150146	-0.742676	0.098162	-0.002983	0.026389	-0.786850	-0.068670	0.606282	-0.092591	-0.943545	-75.199887	14.149178
32570		9.915506	-0.219392	2.607543	0.044106	-0.166036	0.440855	-0.078908	-0.127563	0.070770	-0.914551	-0.149902	-0.739502	0.099139	-0.002149	0.026140	-0.786447	-0.068150	0.606860	-0.092613	-1.175246	-75.273433	14.338809
32571		9.959355	-0.203202	2.620808	0.024231	-0.142366	0.486720	-0.075960	-0.104444	0.086612	-0.926025	-0.150146	-0.739014	0.099581	-0.001979	0.026261	-0.786105	-0.067584	0.607350	-0.092721	-1.442038	-75.333203	14.567129
32572		9.989829	-0.160758	2.652341	-0.019775	-0.095564	0.524038	-0.092348	-0.070916	0.102632	-0.918213	-0.149414	-0.740967	0.099890	-0.001544	0.026560	-0.785863	-0.066888	0.607721	-0.092847	-1.751960	-75.373340	14.829548
32573		9.978642	-0.212621	2.708302	-0.071679	-0.146396	0.527855	-0.085181	-0.021598	0.106380	-0.922363	-0.146729	-0.746826	0.099785	-0.002062	0.027095	-0.785765	-0.066189	0.607896	-0.093033	-2.064917	-75.384732	15.100187
32574		9.917199	-0.185409	2.623804	-0.016629	-0.091497	0.446986	-0.089296	0.024673	0.113274	-0.919189	-0.146973	-0.743652	0.099176	-0.001786	0.026227	-0.785806	-0.065428	0.607893	-0.093242	-2.390391	-75.369172	15.380459
32575		9.819099	-0.246510	2.597898	-0.001076	-0.136401	0.346344	-0.079952	0.074005	0.117548	-0.927002	-0.142578	-0.747314	0.098202	-0.002397	0.025944	-0.785991	-0.064670	0.607692	-0.093519	-2.715384	-75.324737	15.666604
32576		9.694649	-0.317834	2.652704	-0.061022	-0.210267	0.240974	-0.051406	0.119976	0.111929	-0.919678	-0.140137	-0.744629	0.096964	-0.003117	0.026470	-0.786309	-0.064017	0.607296	-0.093868	-3.003484	-75.253899	15.930790
32577		9.595803	-0.358029	2.755150	-0.162991	-0.262800	0.172442	-0.032004	0.145483	0.105822	-0.923828	-0.138184	-0.752197	0.095980	-0.003525	0.027482	-0.786700	-0.063449	0.606787	-0.094268	-3.262889	-75.168240	16.177608
32578		9.505524	-0.406008	2.804959	-0.210671	-0.312087	0.099216	-0.028267	0.134492	0.097583	-0.921387	-0.129150	-0.749268	0.095076	-0.004010	0.027986	-0.787060	-0.062925	0.606318	-0.094635	-3.499657	-75.088976	16.402597
32579		9.461961	-0.483860	2.833190	-0.220522	-0.384242	0.066255	-0.012455	0.124823	0.080442	-0.916992	-0.137939	-0.743896	0.094639	-0.004799	0.028273	-0.787393	-0.062519	0.605872	-0.094986	-3.691220	-75.015516	16.590730
32580		9.507607	-0.608875	2.907128	-0.240659	-0.507752	0.132209	0.025323	0.123407	0.069650	-0.919922	-0.136475	-0.752197	0.095096	-0.006059	0.029012	-0.787715	-0.062294	0.605411	-0.095403	-3.835086	-74.943257	16.751478
32581		9.564549	-0.648534	2.880075	-0.180690	-0.528276	0.181525	0.061383	0.132893	0.040419	-0.918457	-0.135498	-0.756592	0.095666	-0.006475	0.028735	-0.788068	-0.062298	0.604885	-0.095824	-3.895110	-74.866517	16.847623
32582		9.668952	-0.698193	2.954734	-0.200467	-0.579321	0.303179	0.108468	0.139624	0.032955	-0.922852	-0.136475	-0.761963	0.096711	-0.006982	0.029476	-0.788429	-0.062505	0.604308	-0.096352	-3.909375	-74.786319	16.923564
32583		9.790857	-0.768779	3.048492	-0.227757	-0.655557	0.447116	0.162749	0.132436	0.023960	-0.918945	-0.145264	-0.751953	0.097930	-0.007701	0.030414	-0.788756	-0.062957	0.603729	-0.097014	-3.875870	-74.710413	16.982900
32584		9.919995	-0.760218	3.006009	-0.143337	-0.626818	0.560685	0.211077	0.112611	0.025543	-0.908936	-0.141846	-0.753662	0.099218	-0.007621	0.029996	-0.789006	-0.063604	0.603206	-0.097814	-3.819203	-74.645960	17.046307
32585		10.058648	-0.697696	2.988355	-0.093444	-0.551364	0.688775	0.260547	0.095422	0.030722	-0.916260	-0.144531	-0.753906	0.100602	-0.007000	0.029826	-0.789183	-0.064441	0.602725	-0.098788	-3.748773	-74.591018	17.125834
32586		10.062863	-0.616319	2.863907	0.017754	-0.445167	0.658441	0.304426	0.100116	0.036463	-0.920166	-0.154785	-0.749756	0.100644	-0.006188	0.028579	-0.789357	-0.065429	0.602207	-0.099908	-3.663001	-74.533347	17.214568
32587		9.987621	-0.411716	2.838717	-0.012793	-0.248616	0.575691	0.361959	0.113428	0.025752	-0.920166	-0.154053	-0.745850	0.099893	-0.004156	0.028323	-0.789554	-0.066673	0.601600	-0.101175	-3.521958	-74.468361	17.281321
32588		9.874159	-0.249788	2.826253	-0.054128	-0.101179	0.460381	0.384608	0.131187	0.020465	-0.914063	-0.151123	-0.756104	0.098760	-0.002542	0.028193	-0.789798	-0.068009	0.600909	-0.102483	-3.353785	-74.393581	17.332263
32589		9.627885	-0.154638	2.791175	-0.091557	-0.024648	0.212368	0.401185	0.148020	0.016239	-0.906738	-0.156982	-0.758789	0.096300	-0.001594	0.027837	-0.790085	-0.069418	0.600137	-0.103840	-3.167570	-74.309207	17.375436
32590		9.474007	-0.059002	2.795198	-0.142201	0.049325	0.064091	0.439712	0.142782	0.010703	-0.904541	-0.170410	-0.760742	0.094760	-0.000646	0.027883	-0.790342	-0.070995	0.599363	-0.105278	-2.947967	-74.228183	17.405788
32591		9.319408	0.079558	2.755438	-0.164090	0.174169	-0.097089	0.451694	0.146696	0.012963	-0.914307	-0.159912	-0.764160	0.093214	0.000739	0.027488	-0.790600	-0.072614	0.598563	-0.106773	-2.727994	-74.144722	17.444105
32592		9.200933	0.238202	2.705853	-0.173734	0.323576	-0.226205	0.441292	0.152271	0.007010	-0.916260	-0.170654	-0.760742	0.092030	0.002326	0.026994	-0.790879	-0.074202	0.597743	-0.108203	-2.501070	-74.058430	17.467811
32593		9.103094	0.332708	2.593493	-0.103520	0.428784	-0.351787	0.426959	0.169870	0.006183	-0.915283	-0.176514	-0.757324	0.091053	0.003275	0.025865	-0.791211	-0.075729	0.596856	-0.109604	-2.281679	-73.961950	17.491848
32594		8.986833	0.471969	2.582265	-0.143323	0.551662	-0.467682	0.394471	0.194437	0.004918	-0.903076	-0.185303	-0.767578	0.089893	0.004671	0.025745	-0.791627	-0.077115	0.595887	-0.110901	-2.076229	-73.851613	17.510007
32595		8.943279	0.568112	2.640743	-0.216149	0.622258	-0.493644	0.358375	0.214060	0.000562	-0.910645	-0.178223	-0.767578	0.089461	0.005634	0.026322	-0.792112	-0.078365	0.594855	-0.112092	-1.883867	-73.730003	17.521686
32596		8.852532	0.565453	2.689103	-0.265213	0.597104	-0.566529	0.309433	0.212687	0.002931	-0.912109	-0.184570	-0.760010	0.088554	0.005614	0.026806	-0.792609	-0.079409	0.593856	-0.113135	-1.724329	-73.609286	17.536937
32597		8.759279	0.579475	2.698783	-0.284089	0.598442	-0.652703	0.281078	0.213409	-0.004506	-0.895264	-0.183105	-0.765137	0.087622	0.005755	0.026902	-0.793121	-0.080366	0.592864	-0.114074	-1.568662	-73.488141	17.540543
32598		8.634371	0.579929	2.749558	-0.346815	0.572934	-0.757292	0.273088	0.194097	-0.004848	-0.908936	-0.185059	-0.768555	0.086370	0.005760	0.027420	-0.793577	-0.081300	0.591953	-0.114970	-1.417884	-73.378213	17.543226
32599		8.572284	0.591671	2.875051	-0.468129	0.542710	-0.780171	0.267544	0.132436	-0.003131	-0.902588	-0.190430	-0.770996	0.085742	0.005877	0.028702	-0.793849	-0.082245	0.591287	-0.115840	-1.278258	-73.303424	17.555391
32600		8.644153	0.581307	2.947071	-0.503131	0.515838	-0.689897	0.249206	0.062818	0.008779	-0.903320	-0.187012	-0.769775	0.086451	0.005780	0.029451	-0.793916	-0.083119	0.590913	-0.116665	-1.174202	-73.268533	17.592572
32601		8.826944	0.620423	2.829148	-0.353713	0.597036	-0.548650	0.222254	-0.011608	0.018936	-0.904541	-0.193604	-0.763184	0.088267	0.006181	0.028303	-0.793766	-0.083903	0.590852	-0.117429	-1.108794	-73.276006	17.655159
32602		8.830137	0.597825	2.706243	-0.236655	0.605529	-0.580689	0.200638	-0.043288	0.031000	-0.906982	-0.193115	-0.761230	0.088295	0.005965	0.027088	-0.793524	-0.084580	0.590936	-0.118154	-1.079105	-73.301681	17.740932
32603		8.948715	0.532705	2.559263	-0.054509	0.591900	-0.508936	0.169860	-0.022737	0.037159	-0.910156	-0.203369	-0.772949	0.089483	0.005322	0.025607	-0.793351	-0.085110	0.590957	-0.118832	-1.078864	-73.315358	17.840361
32604		8.995473	0.419613	2.631720	-0.074782	0.468482	-0.442762	0.155052	0.063063	0.041367	-0.903076	-0.200928	-0.764648	0.089962	0.004194	0.026292	-0.793435	-0.085512	0.590649	-0.119508	-1.091273	-73.280001	17.942813
32605		9.069238	0.437314	2.858716	-0.259066	0.432194	-0.306865	0.155200	0.152189	0.035745	-0.899170	-0.199219	-0.771729	0.090713	0.004367	0.028522	-0.793784	-0.085884	0.589983	-0.120213	-1.089841	-73.193492	18.032459
32606		9.061283	0.476278	3.150835	-0.524982	0.391928	-0.229774	0.147895	0.199354	0.034393	-0.900391	-0.204346	-0.775391	0.090643	0.004755	0.031422	-0.794276	-0.086197	0.589134	-0.120898	-1.087278	-73.080133	18.115068
32607		9.058832	0.536398	3.314598	-0.676204	0.407876	-0.183924	0.125141	0.183960	0.020341	-0.898438	-0.203369	-0.775391	0.090618	0.005352	0.033066	-0.794739	-0.086476	0.588352	-0.121465	-1.071956	-72.975579	18.172158
32608		9.188891	0.580430	3.231261	-0.563189	0.487625	-0.083417	0.120074	0.118637	0.004380	-0.904053	-0.202148	-0.776367	0.091908	0.005787	0.032262	-0.795022	-0.086815	0.587827	-0.121915	-1.031347	-72.908792	18.198381
32609		9.367981	0.724089	3.150652	-0.473951	0.663173	0.063828	0.139614	0.055720	-0.009406	-0.904053	-0.210205	-0.778076	0.093689	0.007215	0.031485	-0.795119	-0.087317	0.587531	-0.122350	-0.956467	-72.878005	18.201874
32610		9.576231	0.794609	3.078456	-0.366752	0.765990	0.241726	0.138195	0.020567	-0.031948	-0.898926	-0.206055	-0.772949	0.095767	0.007910	0.030780	-0.795127	-0.087894	0.587368	-0.122665	-0.841270	-72.867747	18.160923
32611		9.795051	0.904713	3.065991	-0.324311	0.889091	0.447243	0.145934	0.021853	-0.030955	-0.892578	-0.210693	-0.774902	0.097955	0.009010	0.030656	-0.795133	-0.088506	0.587193	-0.123019	-0.723781	-72.856535	18.123762
32612		9.902159	0.932743	3.086634	-0.317057	0.913640	0.556247	0.139467	0.051530	-0.051416	-0.899902	-0.217285	-0.769775	0.099032	0.009280	0.030847	-0.795243	-0.089127	0.586897	-0.123274	-0.571298	-72.828612	18.044545
32613		9.954493	0.888585	2.988967	-0.193966	0.897361	0.578297	0.132535	0.044546	-0.061185	-0.907715	-0.206543	-0.778564	0.099554	0.008836	0.029873	-0.795340	-0.089761	0.586626	-0.123479	-0.405218	-72.804494	17.948619
32614		9.836850	0.733076	2.882617	-0.077575	0.760634	0.435528	0.139015	0.032919	-0.079536	-0.895996	-0.210449	-0.775391	0.098376	0.007272	0.028815	-0.795412	-0.090474	0.586391	-0.123613	-0.201903	-72.787179	17.815898
32615		9.677837	0.527938	2.755020	0.059745	0.576827	0.246789	0.155057	-0.007286	-0.095727	-0.902588	-0.219971	-0.783936	0.096780	0.005212	0.027558	-0.795367	-0.091329	0.586296	-0.123720	0.040128	-72.792571	17.653582
32616		9.570548	0.390082	2.709212	0.112857	0.435907	0.131387	0.175141	-0.061681	-0.097246	-0.891846	-0.222168	-0.771240	0.095699	0.003831	0.027125	-0.795155	-0.092296	0.586406	-0.123846	0.297110	-72.829105	17.486361
32617		9.455817	0.329296	2.660447	0.139018	0.366852	0.007952	0.198928	-0.103416	-0.099263	-0.903320	-0.225098	-0.770264	0.094546	0.003220	0.026657	-0.794809	-0.093397	0.586663	-0.124026	0.573201	-72.889147	17.315083
32618		9.313855	0.342585	2.595058	0.147207	0.370480	-0.146218	0.204688	-0.123448	-0.086075	-0.894287	-0.221436	-0.766357	0.093124	0.003359	0.026012	-0.794393	-0.094487	0.587004	-0.124254	0.829921	-72.960685	17.165949
32619		9.257370	0.325255	2.543947	0.175129	0.349664	-0.214594	0.209323	-0.113037	-0.069709	-0.908203	-0.225586	-0.775146	0.092560	0.003194	0.025495	-0.793992	-0.095548	0.587305	-0.124576	1.060084	-73.026075	17.049033
32620		9.225367	0.378930	2.492460	0.189696	0.401107	-0.259339	0.202244	-0.080225	-0.049687	-0.908936	-0.234375	-0.769531	0.092245	0.003741	0.024965	-0.793680	-0.096494	0.587492	-0.124962	1.248338	-73.072925	16.970110
32621		9.207433	0.385057	2.471776	0.198155	0.402976	-0.282047	0.193059	-0.025867	-0.023893	-0.908447	-0.237305	-0.767822	0.092072	0.003816	0.024733	-0.793513	-0.097302	0.587477	-0.125460	1.381212	-73.088775	16.945244
32622		9.235480	0.355245	2.440739	0.244316	0.382098	-0.264294	0.181958	0.032242	0.003952	-0.907471	-0.228271	-0.767334	0.092359	0.003532	0.024396	-0.793505	-0.097939	0.587255	-0.126053	1.452457	-73.071860	16.976488
32623		9.218846	0.442234	2.373088	0.278657	0.483482	-0.299390	0.186464	0.085122	0.026788	-0.906250	-0.230225	-0.773926	0.092198	0.004413	0.023696	-0.793634	-0.098503	0.586829	-0.126787	1.481123	-73.024879	17.056629
32624		9.201368	0.449109	2.400418	0.255446	0.483287	-0.308475	0.183231	0.129824	0.048712	-0.903320	-0.233154	-0.769043	0.092028	0.004492	0.023949	-0.793882	-0.098952	0.586239	-0.127609	1.464720	-72.952740	17.180308
32625		9.169743	0.484005	2.443864	0.208159	0.506231	-0.326313	0.168420	0.172708	0.057664	-0.900635	-0.237549	-0.772705	0.091717	0.004846	0.024364	-0.794255	-0.099296	0.585490	-0.128454	1.422159	-72.856037	17.324034
32626		9.141527	0.565380	2.477121	0.157977	0.577911	-0.343562	0.168224	0.179147	0.061544	-0.899414	-0.240967	-0.775879	0.091436	0.005661	0.024694	-0.794644	-0.099616	0.584719	-0.129307	1.372820	-72.755778	17.473312
32627		9.081065	0.635068	2.552037	0.063963	0.622746	-0.379235	0.136011	0.161330	0.058153	-0.903076	-0.235840	-0.769531	0.090829	0.006360	0.025451	-0.794998	-0.099839	0.584035	-0.130054	1.313586	-72.665551	17.615429
32628		9.025429	0.711876	2.460174	0.116354	0.725711	-0.459753	0.101591	0.111771	0.051405	-0.899658	-0.245117	-0.773682	0.090266	0.007129	0.024555	-0.795228	-0.099967	0.583569	-0.130638	1.249547	-72.603667	17.740246
32629		9.081378	0.793423	2.421765	0.146266	0.825847	-0.417876	0.074301	0.066971	0.053723	-0.901123	-0.236084	-0.779785	0.090820	0.007950	0.024190	-0.795338	-0.100019	0.583297	-0.131141	1.168509	-72.567361	17.868337
32630		9.096613	0.860991	2.316711	0.225896	0.929649	-0.434972	0.048808	0.041530	0.054058	-0.896729	-0.233154	-0.781006	0.090969	0.008629	0.023150	-0.795388	-0.099975	0.583145	-0.131547	1.073017	-72.545640	17.994477
32631		9.106806	0.974429	2.288808	0.218113	1.052497	-0.433629	0.025291	0.037022	0.055169	-0.904297	-0.238281	-0.774170	0.091070	0.009767	0.022872	-0.795434	-0.099846	0.583025	-0.131895	0.962972	-72.526381	18.123235
32632		9.158237	0.982767	2.264273	0.252353	1.079554	-0.392659	-0.021985	0.021165	0.058078	-0.902344	-0.232910	-0.779053	0.091582	0.009857	0.022632	-0.795457	-0.099523	0.583003	-0.132100	0.820717	-72.516211	18.255902
32633		9.180448	1.000815	2.077797	0.419388	1.164254	-0.428226	-0.055094	0.000606	0.060192	-0.894287	-0.230469	-0.776123	0.091802	0.010042	0.020775	-0.795434	-0.099085	0.583084	-0.132216	0.656962	-72.517699	18.392839
32634		9.224760	0.951738	2.029395	0.488177	1.144605	-0.401418	-0.089855	-0.024830	0.060468	-0.904053	-0.224121	-0.778809	0.092242	0.009554	0.020301	-0.795354	-0.098515	0.583290	-0.132210	0.472449	-72.533668	18.529038
32635		9.253153	0.961560	1.912706	0.593325	1.200865	-0.410040	-0.121636	-0.031750	0.068527	-0.909424	-0.226074	-0.778564	0.092525	0.009659	0.019136	-0.795263	-0.097807	0.583547	-0.132147	0.255559	-72.553479	18.681417
32636		9.203339	0.977597	1.893339	0.586756	1.226585	-0.464261	-0.155932	-0.017056	0.073923	-0.898193	-0.229248	-0.776611	0.092028	0.009825	0.018934	-0.795229	-0.096930	0.583772	-0.132005	0.007970	-72.564702	18.844022
32637		9.169709	0.800612	1.921874	0.605309	1.057755	-0.488907	-0.190658	0.001550	0.074120	-0.900391	-0.224121	-0.785156	0.091694	0.008058	0.019210	-0.795263	-0.095911	0.583945	-0.131780	-0.259064	-72.565086	19.007649
32638		9.092238	0.664931	1.999575	0.554537	0.909603	-0.540454	-0.192876	0.012476	0.077209	-0.900146	-0.220703	-0.773926	0.090921	0.006704	0.019984	-0.795329	-0.094858	0.584077	-0.131557	-0.533792	-72.558926	19.176511
32639		9.016979	0.551704	2.070260	0.502313	0.785774	-0.591706	-0.228374	-0.011552	0.085955	-0.890625	-0.221680	-0.779785	0.090166	0.005579	0.020701	-0.795333	-0.093662	0.584331	-0.131261	-0.844213	-72.566290	19.362903
32640		8.939068	0.336138	2.037641	0.572084	0.596162	-0.675445	-0.237082	-0.046102	0.094033	-0.897949	-0.223389	-0.781738	0.089384	0.003428	0.020393	-0.795236	-0.092422	0.584731	-0.130948	-1.176826	-72.592976	19.565871
32641		8.954395	0.238695	2.104818	0.536571	0.496833	-0.640248	-0.206124	-0.082555	0.097717	-0.910889	-0.215576	-0.781982	0.089534	0.002452	0.021083	-0.795011	-0.091328	0.585256	-0.130732	-1.499772	-72.640263	19.778877
32642		8.976790	0.172225	2.195208	0.467951	0.419910	-0.591189	-0.208950	-0.132211	0.105187	-0.907959	-0.206299	-0.773682	0.089752	0.001792	0.022010	-0.794639	-0.090224	0.585984	-0.130506	-1.843506	-72.715375	20.010269
32643		9.169431	0.099623	2.226393	0.497483	0.371703	-0.396769	-0.200778	-0.177755	0.117446	-0.902100	-0.205322	-0.778076	0.091674	0.001072	0.022344	-0.794117	-0.089154	0.586891	-0.130339	-2.209706	-72.816030	20.271424
32644		9.290658	0.025958	2.225862	0.531509	0.324645	-0.279403	-0.196298	-0.212754	0.130472	-0.910889	-0.205566	-0.776611	0.092883	0.000342	0.022357	-0.793483	-0.088078	0.587939	-0.130213	-2.605292	-72.935750	20.564411
32645		9.429351	0.021297	2.311184	0.467595	0.320268	-0.120763	-0.187596	-0.223772	0.141770	-0.917725	-0.203369	-0.771240	0.094267	0.000302	0.023217	-0.792800	-0.087018	0.589028	-0.130160	-3.021806	-73.061008	20.885704
32646		9.570145	0.133735	2.261626	0.490067	0.468228	-0.001416	-0.195467	-0.210665	0.151539	-0.914307	-0.197754	-0.765625	0.095677	0.001432	0.022716	-0.792154	-0.085881	0.590073	-0.130120	-3.466421	-73.177578	21.230044
32647		9.657783	0.100120	2.218126	0.539250	0.471456	0.071126	-0.214614	-0.176932	0.151295	-0.906494	-0.194824	-0.762695	0.096557	0.001098	0.022266	-0.791610	-0.084657	0.590995	-0.130045	-3.921419	-73.274283	21.575101
32648		9.618182	0.030343	2.183999	0.559646	0.425303	0.025303	-0.196156	-0.145271	0.155569	-0.911621	-0.194336	-0.772705	0.096166	0.000400	0.021909	-0.791150	-0.083462	0.591780	-0.130047	-4.375219	-73.351723	21.928268
32649		9.596488	0.070450	2.196593	0.510903	0.472556	0.007607	-0.173910	-0.130463	0.155116	-0.913330	-0.190430	-0.771973	0.095950	0.000798	0.022028	-0.790721	-0.082357	0.592491	-0.130126	-4.815473	-73.420163	22.281929
32650		9.555489	0.137883	1.993272	0.647957	0.604991	-0.090876	-0.180022	-0.122908	0.149894	-0.919922	-0.187012	-0.764893	0.095542	0.001468	0.019990	-0.790321	-0.081228	0.593172	-0.130161	-5.252337	-73.483548	22.626816
32651		9.616818	0.203503	1.938813	0.677794	0.705217	-0.049142	-0.179353	-0.098848	0.165596	-0.922119	-0.178711	-0.763916	0.096157	0.002132	0.019434	-0.789977	-0.080049	0.593764	-0.130278	-5.716195	-73.531842	23.001608
32652		9.627389	0.335023	1.827210	0.730514	0.880867	-0.074723	-0.191338	-0.045166	0.169239	-0.921631	-0.181152	-0.764648	0.096267	0.003449	0.018291	-0.789797	-0.078767	0.594152	-0.130387	-6.186490	-73.548194	23.374437
32653		9.556679	0.464149	1.785589	0.703194	1.027816	-0.159556	-0.229629	-0.003667	0.182137	-0.922119	-0.185059	-0.766357	0.095562	0.004749	0.017852	-0.789742	-0.077278	0.594405	-0.130456	-6.693786	-73.539494	23.764351
32654		9.536678	0.565520	1.763857	0.681879	1.150206	-0.190252	-0.245392	0.008208	0.181880	-0.917969	-0.174561	-0.771484	0.095362	0.005764	0.017628	-0.789730	-0.075709	0.594619	-0.130475	-7.207558	-73.522768	24.150239
32655		9.628591	0.841615	1.905474	0.488892	1.407801	-0.074722	-0.248067	0.012341	0.176679	-0.923096	-0.167725	-0.767090	0.096280	0.008525	0.019038	-0.789729	-0.074154	0.594816	-0.130474	-7.709424	-73.503480	24.523761
32656		9.761857	0.968818	1.967382	0.425338	1.550656	0.062411	-0.278474	0.019247	0.162040	-0.918945	-0.160889	-0.768311	0.097613	0.009795	0.019651	-0.789770	-0.072507	0.594998	-0.130320	-8.199233	-73.480150	24.864964
32657		9.899725	1.036473	1.989615	0.418897	1.647959	0.194616	-0.306703	0.034643	0.141626	-0.912842	-0.156250	-0.765625	0.098993	0.010465	0.019863	-0.789876	-0.070808	0.595129	-0.130012	-8.659138	-73.449403	25.159454
32658		10.051813	1.001336	2.121023	0.347259	1.618816	0.375500	-0.311643	0.039389	0.113079	-0.920166	-0.160156	-0.762207	0.100517	0.010103	0.021175	-0.790017	-0.069162	0.595232	-0.129572	-9.066296	-73.417458	25.394703
32659		10.116020	0.878155	2.369611	0.169611	1.461471	0.509880	-0.302831	0.015220	0.076103	-0.911865	-0.151855	-0.759766	0.101159	0.008856	0.023675	-0.790101	-0.067687	0.595412	-0.129009	-9.402904	-73.402597	25.563035
32660		10.260565	0.627132	2.876821	-0.192641	1.120834	0.801228	-0.276715	-0.018318	0.031521	-0.913330	-0.145508	-0.768555	0.102602	0.006327	0.028769	-0.790107	-0.066459	0.595689	-0.128330	-9.652115	-73.410218	25.654389
32661		10.432503	0.277879	3.269305	-0.419430	0.714767	1.092168	-0.243588	-0.071349	-0.011543	-0.915527	-0.136963	-0.766113	0.104314	0.002813	0.032727	-0.789967	-0.065533	0.596141	-0.127567	-9.816263	-73.452327	25.678034
32662		10.691927	-0.190158	3.469611	-0.420167	0.248564	1.419112	-0.229797	-0.139809	-0.063062	-0.918701	-0.133545	-0.768555	0.106894	-0.001895	0.034773	-0.789653	-0.064849	0.596835	-0.126614	-9.899265	-73.537657	25.624031
32663		10.960910	-0.861122	3.501182	-0.216297	-0.376595	1.717823	-0.211704	-0.229699	-0.101933	-0.927734	-0.141602	-0.767822	0.109564	-0.008630	0.035147	-0.789085	-0.064417	0.597860	-0.125534	-9.925571	-73.677997	25.522576
32664		11.007892	-1.401299	2.760971	0.593623	-0.717757	1.584352	-0.183623	-0.417665	-0.106328	-0.925293	-0.145020	-0.760742	0.110013	-0.014046	0.027852	-0.787948	-0.064219	0.599603	-0.124458	-9.992329	-73.924442	25.479291
32665		11.426884	-1.693003	2.185787	1.257520	-0.826293	1.847205	-0.063683	-0.562680	-0.090885	-0.924316	-0.145996	-0.759277	0.114199	-0.016975	0.022185	-0.786320	-0.064547	0.601845	-0.123758	-10.070062	-74.251624	25.520184
32666		11.234155	-1.325827	2.055192	1.173625	-0.485689	1.614225	0.031129	-0.502832	-0.044652	-0.929199	-0.140137	-0.754639	0.112286	-0.013287	0.020832	-0.784810	-0.065061	0.603803	-0.123541	-10.169847	-74.539931	25.639070
32667		10.640305	-0.919527	1.934986	0.981550	-0.148610	0.995646	0.031181	-0.448271	0.017583	-0.931152	-0.141602	-0.744385	0.106360	-0.009189	0.019587	-0.783419	-0.065363	0.605564	-0.123588	-10.380413	-74.791494	25.873847
32668		10.243813	-0.529432	1.886063	0.784821	0.186561	0.585503	0.005136	-0.353102	0.061419	-0.935059	-0.133057	-0.739258	0.102406	-0.005263	0.019041	-0.782297	-0.065362	0.606980	-0.123755	-10.669786	-74.984121	26.173406
32669		9.967533	-0.008119	2.092280	0.355852	0.604395	0.347895	-0.021468	-0.196634	0.083427	-0.937744	-0.136230	-0.738525	0.099655	-0.000037	0.021021	-0.781640	-0.065101	0.607807	-0.123981	-10.962849	-75.086446	26.461773
32670		9.569166	0.442372	2.152114	0.070353	0.982969	-0.044114	-0.087659	-0.049322	0.079326	-0.936279	-0.133789	-0.745605	0.095685	0.004471	0.021543	-0.781457	-0.064494	0.608096	-0.124035	-11.228789	-75.105511	26.681773
32671		9.069602	0.576761	2.085286	-0.021272	1.080140	-0.551392	-0.107415	0.045096	0.052068	-0.928711	-0.121582	-0.739746	0.090699	0.005802	0.020829	-0.781581	-0.063842	0.608021	-0.123956	-11.407138	-75.074895	26.800348
32672		8.628305	0.674351	2.233272	-0.285137	1.092981	-0.946235	-0.100666	0.040920	0.017245	-0.933105	-0.124512	-0.741699	0.086287	0.006762	0.022312	-0.781715	-0.063317	0.607945	-0.123756	-11.511304	-75.049993	26.845238
32673		8.420559	0.528231	2.400121	-0.450476	0.889601	-1.097694	-0.111585	-0.055208	-0.026049	-0.937012	-0.130371	-0.734863	0.084200	0.005285	0.024022	-0.781584	-0.062947	0.608240	-0.123324	-11.570142	-75.084517	26.837238
32674		8.437791	0.042515	2.723281	-0.627799	0.341265	-0.975054	-0.100904	-0.181288	-0.067699	-0.936279	-0.130371	-0.746826	0.084353	0.000410	0.027309	-0.781093	-0.062816	0.609005	-0.122722	-11.591115	-75.194085	26.795899
32675		8.660310	-0.409724	3.173990	-0.897507	-0.189695	-0.625659	-0.088632	-0.290945	-0.116489	-0.937256	-0.125244	-0.740723	0.086554	-0.004134	0.031868	-0.780291	-0.062958	0.610176	-0.121933	-11.546227	-75.371331	26.694680
32676		8.938590	-0.826546	3.669657	-1.218550	-0.699408	-0.217181	-0.081055	-0.420167	-0.169640	-0.940430	-0.125244	-0.741943	0.089301	-0.008326	0.036888	-0.779123	-0.063361	0.611826	-0.120918	-11.438269	-75.626643	26.531982
32677		9.336871	-1.114424	3.949488	-1.359709	-1.027708	0.242772	-0.082435	-0.548828	-0.212421	-0.943604	-0.129883	-0.726563	0.093248	-0.011227	0.039755	-0.777582	-0.063974	0.613961	-0.119690	-11.285876	-75.959377	26.323405
32678		9.615994	-1.407035	3.972879	-1.298362	-1.318243	0.522057	-0.095138	-0.624043	-0.240945	-0.952637	-0.124512	-0.716064	0.096018	-0.014167	0.040035	-0.775824	-0.064663	0.616380	-0.118287	-11.102334	-76.336996	26.075014
32679		9.619527	-1.723493	3.707218	-1.023753	-1.594141	0.466389	-0.089132	-0.633070	-0.256059	-0.948975	-0.126221	-0.720947	0.096055	-0.017341	0.037384	-0.774035	-0.065433	0.618819	-0.116840	-10.869279	-76.721554	25.780326
32680		9.453134	-2.098477	3.432801	-0.758106	-1.942801	0.247129	-0.035906	-0.600020	-0.263626	-0.956299	-0.134033	-0.701660	0.094400	-0.021103	0.034615	-0.772328	-0.066405	0.621089	-0.115537	-10.557832	-77.087554	25.436243
32681		9.287777	-2.258622	3.235747	-0.612528	-2.103069	0.037990	0.041014	-0.527415	-0.269168	-0.957764	-0.127686	-0.705322	0.092762	-0.022718	0.032598	-0.770815	-0.067656	0.623026	-0.114476	-10.133948	-77.413006	25.023153
32682		9.203702	-2.300267	3.047312	-0.478761	-2.142188	-0.093271	0.126406	-0.447920	-0.262101	-0.956787	-0.137451	-0.698486	0.091938	-0.023143	0.030664	-0.769513	-0.069161	0.624605	-0.113733	-9.623498	-77.691826	24.571396
32683		9.064404	-2.052382	2.795048	-0.357441	-1.888205	-0.299813	0.200292	-0.299234	-0.256114	-0.968994	-0.140381	-0.696045	0.090576	-0.020668	0.028065	-0.768640	-0.070851	0.625569	-0.113296	-8.999777	-77.885260	24.047908
32684		8.908311	-1.825340	2.707048	-0.373577	-1.691313	-0.484353	0.234326	-0.133766	-0.235093	-0.968018	-0.129395	-0.695313	0.089043	-0.018390	0.027109	-0.768259	-0.072508	0.625882	-0.113103	-8.330303	-77.981680	23.497415
32685		8.811378	-1.549555	2.662893	-0.419857	-1.447749	-0.600728	0.272307	-0.006063	-0.206694	-0.966797	-0.148438	-0.702881	0.088097	-0.015623	0.026610	-0.768244	-0.074153	0.625693	-0.113184	-7.658281	-78.002236	22.966932
32686		8.853266	-1.279611	2.543240	-0.359176	-1.174157	-0.594331	0.300044	0.063177	-0.165279	-0.959473	-0.144287	-0.698975	0.088530	-0.012907	0.025385	-0.768411	-0.075732	0.625235	-0.113536	-7.056874	-77.978970	22.524642
32687		9.086818	-0.959652	2.394457	-0.244329	-0.825085	-0.406088	0.323545	0.107403	-0.125687	-0.966553	-0.154785	-0.701904	0.090875	-0.009692	0.023880	-0.768683	-0.077255	0.624606	-0.114131	-6.534999	-77.927017	22.177764
32688		9.299849	-0.709295	2.282889	-0.147828	-0.550332	-0.227432	0.325631	0.145233	-0.094326	-0.957031	-0.155273	-0.688721	0.093012	-0.007174	0.022750	-0.769052	-0.078664	0.623841	-0.114867	-6.088939	-77.850877	21.909183
32689		9.497616	-0.615352	2.388641	-0.212008	-0.480817	-0.014076	0.308942	0.220363	-0.075451	-0.965576	-0.151611	-0.700439	0.095000	-0.006226	0.023772	-0.769647	-0.079911	0.622802	-0.115654	-5.685577	-77.730531	21.675016
32690		9.681885	-0.583112	2.566018	-0.326255	-0.487526	0.203259	0.268042	0.212187	-0.041879	-0.955322	-0.158936	-0.697266	0.096845	-0.005886	0.025550	-0.770212	-0.080895	0.621829	-0.116438	-5.401873	-77.612557	21.538628
32691		9.725319	-0.495133	2.504166	-0.264719	-0.385142	0.231187	0.239357	0.127095	-0.004752	-0.951172	-0.163574	-0.702393	0.097269	-0.004984	0.024974	-0.770500	-0.081706	0.621215	-0.117241	-5.253756	-77.541151	21.524563
32692		9.847804	-0.339943	2.222879	-0.011224	-0.149382	0.287489	0.173643	0.033391	0.045388	-0.959473	-0.159912	-0.697754	0.098483	-0.003396	0.022209	-0.770494	-0.082161	0.621020	-0.117994	-5.295938	-77.520454	21.666466
32693		10.073461	-0.203069	1.915944	0.282755	0.088236	0.439091	0.103163	-0.015817	0.078133	-0.953857	-0.159668	-0.707275	0.100734	-0.002001	0.019166	-0.770344	-0.082274	0.621068	-0.118637	-5.473780	-77.526092	21.906503
32694		10.226791	0.010896	1.836988	0.321919	0.335606	0.567372	0.043975	-0.021077	0.107839	-0.955811	-0.160156	-0.689941	0.102266	0.000160	0.018381	-0.770185	-0.082067	0.621185	-0.119205	-5.764512	-77.532765	22.226873
32695		10.390545	0.035411	1.940011	0.246991	0.355963	0.748591	-0.020388	0.015203	0.114260	-0.955322	-0.146729	-0.703613	0.103907	0.000415	0.019392	-0.770160	-0.081574	0.621202	-0.119615	-6.098234	-77.518111	22.553991
32696		10.390961	-0.021684	2.078089	0.132894	0.276981	0.779602	-0.057409	0.043439	0.102017	-0.952148	-0.149414	-0.698730	0.103914	-0.000158	0.020758	-0.770245	-0.080956	0.621127	-0.119873	-6.413548	-77.487634	22.840074
32697		10.315182	-0.145100	2.338675	-0.088556	0.094117	0.764492	-0.050750	0.082480	0.077386	-0.962158	-0.155518	-0.701904	0.103162	-0.001405	0.023345	-0.770463	-0.080417	0.620888	-0.120071	-6.648461	-77.436327	23.047778
32698		10.121214	-0.291425	2.560506	-0.285601	-0.111210	0.626955	-0.058111	0.136131	0.050657	-0.952881	-0.153809	-0.705811	0.101230	-0.002881	0.025537	-0.770867	-0.079900	0.620436	-0.120166	-6.802091	-77.356047	23.167892
32699		9.842969	-0.484678	2.651540	-0.358701	-0.333377	0.380927	-0.082359	0.185969	0.038152	-0.958008	-0.151855	-0.706299	0.098455	-0.004817	0.026426	-0.771441	-0.079302	0.619800	-0.120159	-6.920282	-77.248312	23.237959
32700		9.501426	-0.724782	2.623111	-0.316956	-0.572968	0.049073	-0.115541	0.213264	0.035771	-0.951416	-0.140137	-0.715088	0.095043	-0.007216	0.026134	-0.772114	-0.078563	0.619077	-0.120048	-7.042418	-77.125086	23.292128
32701		9.323669	-0.969106	2.527738	-0.177479	-0.783108	-0.137222	-0.141325	0.236860	0.049788	-0.945068	-0.145508	-0.708008	0.093269	-0.009650	0.025174	-0.772860	-0.077669	0.618283	-0.119922	-7.204223	-76.987478	23.372030
32702		9.242868	-1.103465	2.410136	-0.027244	-0.870707	-0.236777	-0.159318	0.274832	0.079264	-0.952637	-0.150635	-0.722412	0.092466	-0.010979	0.023983	-0.773711	-0.076589	0.617363	-0.119867	-7.434098	-76.826020	23.511123
32703		9.228649	-1.187628	2.450624	-0.023559	-0.942801	-0.236965	-0.163997	0.307606	0.113336	-0.950928	-0.139404	-0.721191	0.092331	-0.011804	0.024374	-0.774642	-0.075369	0.616331	-0.119944	-7.732629	-76.643280	23.718499
32704		9.202724	-1.264384	2.421499	0.042152	-0.986711	-0.264023	-0.160824	0.327816	0.147412	-0.949707	-0.145264	-0.727051	0.092076	-0.012557	0.024074	-0.775611	-0.074041	0.615228	-0.120169	-8.096741	-76.446058	23.994937
32705		9.073159	-1.289915	2.364620	0.096350	-0.982011	-0.399728	-0.141256	0.302635	0.174943	-0.943848	-0.137695	-0.720947	0.090778	-0.012803	0.023518	-0.776475	-0.072721	0.614219	-0.120552	-8.512670	-76.260439	24.336813
32706		8.980617	-1.297159	2.293286	0.162614	-0.952283	-0.503557	-0.113927	0.246430	0.201792	-0.941650	-0.137939	-0.724854	0.089847	-0.012868	0.022830	-0.777138	-0.071457	0.613420	-0.121101	-8.984928	-76.103650	24.752716
32707		8.967833	-1.301629	2.147307	0.308746	-0.893702	-0.548071	-0.082178	0.157863	0.216732	-0.945068	-0.125244	-0.728516	0.089709	-0.012910	0.021408	-0.777507	-0.070326	0.612950	-0.121776	-9.496144	-75.994787	25.228225
32708		8.982884	-1.341357	1.959890	0.501493	-0.856937	-0.574358	-0.083821	0.068595	0.232218	-0.938965	-0.121582	-0.732666	0.089851	-0.013301	0.019574	-0.777593	-0.069193	0.612832	-0.122472	-10.071220	-75.933677	25.768283
32709		8.997986	-1.488657	1.732614	0.754220	-0.914512	-0.605268	-0.081807	0.005384	0.237194	-0.941162	-0.123779	-0.731445	0.089998	-0.014773	0.017330	-0.777479	-0.068091	0.612959	-0.123172	-10.678209	-75.906351	26.342605
32710		8.974389	-1.553833	1.634878	0.850276	-0.932251	-0.645639	-0.065650	-0.033869	0.234645	-0.943359	-0.122559	-0.737061	0.089759	-0.015428	0.016369	-0.777241	-0.067083	0.613226	-0.123897	-11.285279	-75.899885	26.926529
32711		8.990846	-1.616217	1.563157	0.928065	-0.951186	-0.640728	-0.031335	-0.051349	0.226333	-0.937744	-0.118652	-0.727539	0.089923	-0.016058	0.015657	-0.776940	-0.066247	0.613537	-0.124691	-11.861906	-75.902743	27.499618
32712		9.001945	-1.641516	1.539268	0.950113	-0.948916	-0.631415	0.025142	-0.049255	0.214007	-0.945068	-0.113037	-0.729492	0.090033	-0.016321	0.015413	-0.776634	-0.065664	0.613799	-0.125609	-12.377685	-75.904555	28.043051
32713		9.025167	-1.652475	1.583566	0.908680	-0.950377	-0.595146	0.080071	-0.041303	0.203305	-0.942139	-0.119141	-0.728760	0.090265	-0.016439	0.015848	-0.776340	-0.065324	0.613992	-0.126659	-12.834696	-75.902195	28.558571
32714		8.985955	-1.687238	1.593157	0.896082	-0.974456	-0.626842	0.130267	-0.010388	0.183978	-0.947510	-0.105713	-0.732422	0.089874	-0.016800	0.015925	-0.776136	-0.065218	0.614026	-0.127796	-13.203216	-75.884108	29.012295
32715		8.930046	-1.655044	1.668457	0.803723	-0.954211	-0.663254	0.169912	0.021422	0.179969	-0.951904	-0.108643	-0.729736	0.089317	-0.016484	0.016661	-0.776017	-0.065257	0.613909	-0.129051	-13.522774	-75.848215	29.439199
32716		8.924370	-1.607670	1.716761	0.746022	-0.907631	-0.658678	0.199218	0.036789	0.160860	-0.942383	-0.113770	-0.722900	0.089260	-0.016022	0.017135	-0.775948	-0.065459	0.613706	-0.130324	-13.772611	-75.805775	29.811394
32717		8.964267	-1.509390	1.784108	0.667193	-0.813434	-0.608746	0.226862	0.038301	0.149577	-0.944824	-0.112793	-0.731201	0.089657	-0.015047	0.017807	-0.775879	-0.065801	0.613475	-0.131642	-13.980095	-75.763764	30.156564
32718		9.045201	-1.344506	1.706245	0.714006	-0.614174	-0.558088	0.254274	0.032800	0.127845	-0.942383	-0.113037	-0.734863	0.090463	-0.013409	0.017031	-0.775798	-0.066320	0.613239	-0.132955	-14.125006	-75.727490	30.453181
32719		9.030427	-1.157726	1.550716	0.805115	-0.387634	-0.620561	0.285850	0.004298	0.105708	-0.949219	-0.112305	-0.718994	0.090311	-0.011552	0.015489	-0.775632	-0.067048	0.613083	-0.134271	-14.219324	-75.710061	30.716515
32720		9.027410	-0.958313	1.333590	0.949188	-0.133628	-0.687330	0.299512	-0.033162	0.081837	-0.943115	-0.111084	-0.720459	0.090276	-0.009566	0.013337	-0.775361	-0.067927	0.613054	-0.135521	-14.273344	-75.716660	30.946129
32721		9.029077	-0.815340	1.193977	1.033976	0.043559	-0.727337	0.308121	-0.084168	0.058498	-0.944336	-0.122559	-0.717041	0.090288	-0.008145	0.011965	-0.774943	-0.068946	0.613209	-0.136693	-14.301395	-75.754974	31.154284
32722		9.020575	-0.641633	1.062166	1.094818	0.243782	-0.776505	0.283598	-0.145470	0.038057	-0.948730	-0.118408	-0.718506	0.090199	-0.006414	0.010678	-0.774359	-0.069974	0.613607	-0.137686	-14.332709	-75.830054	31.350988
32723		8.908388	-0.598795	0.950759	1.146333	0.296892	-0.912147	0.239277	-0.254385	0.008269	-0.950195	-0.122070	-0.724854	0.089072	-0.005996	0.009614	-0.773473	-0.070998	0.614448	-0.138393	-14.388036	-75.969951	31.546670
32724		8.923741	-0.625779	0.693931	1.370881	0.335314	-0.951849	0.173567	-0.390356	-0.031393	-0.947998	-0.128662	-0.718506	0.089223	-0.006278	0.007108	-0.772219	-0.071982	0.615841	-0.138692	-14.472689	-76.190736	31.733131
32725		8.977267	-0.733357	0.416611	1.635626	0.302649	-0.950653	0.127495	-0.525886	-0.056986	-0.954834	-0.128662	-0.711182	0.089759	-0.007362	0.004397	-0.770576	-0.072961	0.617779	-0.138704	-14.612021	-76.490441	31.948917
32726		8.975155	-0.834284	0.120826	1.896137	0.269755	-1.003846	0.107747	-0.610643	-0.100866	-0.958252	-0.128418	-0.702881	0.089743	-0.008389	0.001478	-0.768703	-0.074057	0.620034	-0.138451	-14.718832	-76.843220	32.118929
32727		8.965088	-0.979056	-0.169367	2.159398	0.188123	-1.057040	0.093612	-0.656738	-0.145555	-0.952881	-0.128174	-0.695313	0.089649	-0.009855	-0.001404	-0.766713	-0.075271	0.622455	-0.137967	-14.763577	-77.228269	32.217192
32728		9.032880	-1.098897	-0.230763	2.215332	0.069912	-0.984276	0.121993	-0.666525	-0.185774	-0.967285	-0.138428	-0.687500	0.090326	-0.011072	-0.002013	-0.764704	-0.076722	0.624869	-0.137408	-14.699968	-77.624338	32.220443
32729		9.474172	-1.318632	0.176166	1.934789	-0.239195	-0.446319	0.143746	-0.576827	-0.214045	-0.969727	-0.135986	-0.681152	0.094722	-0.013289	0.002025	-0.762973	-0.078284	0.626910	-0.136847	-14.488723	-77.975104	32.085948
32730		10.386917	-1.412679	1.079466	1.245965	-0.523199	0.638277	0.164404	-0.323809	-0.208723	-0.976074	-0.139160	-0.674561	0.103837	-0.014244	0.010951	-0.762022	-0.079733	0.627967	-0.136463	-14.096624	-78.184130	31.778297
32731		10.918653	-1.335555	1.907362	0.527820	-0.661589	1.319356	0.123288	-0.079190	-0.177261	-0.973389	-0.146240	-0.675781	0.109167	-0.013464	0.019109	-0.761828	-0.080761	0.628134	-0.136173	-13.641817	-78.252744	31.383245
32732		11.285111	-1.282037	2.192158	0.307826	-0.673238	1.730921	0.047665	-0.039765	-0.112189	-0.969727	-0.138428	-0.675049	0.112840	-0.012889	0.021941	-0.761748	-0.081268	0.628224	-0.135904	-13.373722	-78.289718	31.134143
32733		11.979623	-1.140914	2.275363	0.307304	-0.501078	2.420252	0.075327	-0.012375	-0.059025	-0.976074	-0.151367	-0.675049	0.119791	-0.011453	0.022757	-0.761702	-0.081696	0.628217	-0.135941	-13.216286	-78.304649	31.014817
32734		12.704453	-0.722489	2.607716	0.004208	-0.126109	3.176128	0.100597	0.170832	0.012077	-0.974365	-0.147705	-0.670654	0.127067	-0.007230	0.025965	-0.762176	-0.081871	0.627520	-0.136397	-13.118398	-78.207611	30.970525
32735		13.065007	-0.414797	3.034433	-0.393104	0.096999	3.600367	-0.004451	0.403960	0.103173	-0.967529	-0.138184	-0.680420	0.130713	-0.004080	0.030080	-0.763356	-0.081204	0.626044	-0.136973	-13.180193	-77.969108	31.028777
32736		12.786834	-0.454700	3.408019	-0.729915	-0.043087	3.408109	0.007845	0.480358	0.194469	-0.965332	-0.142822	-0.680664	0.127954	-0.004424	0.033773	-0.764708	-0.080242	0.624300	-0.137959	-13.418230	-77.675462	31.273703
32737		12.031356	-0.265410	4.210575	-1.625724	-0.141864	2.832054	0.161437	0.449069	0.227274	-0.960449	-0.142822	-0.682129	0.120411	-0.002551	0.041833	-0.765869	-0.079787	0.622581	-0.139542	-13.660713	-77.395030	31.614063
32738		11.109472	-0.162017	4.768458	-2.304725	-0.277263	2.053059	0.116425	0.424355	0.213779	-0.954590	-0.133301	-0.683105	0.111197	-0.001529	0.047448	-0.766979	-0.079217	0.620975	-0.140917	-13.896150	-77.129490	31.920635
32739		10.121551	-0.649625	4.013840	-1.604275	-0.602819	0.959570	0.131406	0.259412	0.182738	-0.962158	-0.136963	-0.687500	0.101273	-0.006430	0.040003	-0.767586	-0.078919	0.619979	-0.142159	-14.139317	-76.960041	32.244809
32740		9.731267	-1.009439	3.279169	-0.857699	-0.754637	0.442276	0.321658	0.252120	0.120250	-0.951172	-0.143799	-0.691895	0.097360	-0.010088	0.032653	-0.768140	-0.079548	0.618846	-0.143742	-14.121571	-76.802872	32.412624
32741		9.145203	-1.045405	3.207549	-0.855536	-0.826975	-0.137981	0.374922	0.472782	0.071878	-0.947754	-0.139404	-0.692871	0.091531	-0.010481	0.031840	-0.769383	-0.080374	0.616806	-0.145398	-13.831579	-76.530109	32.332926
32742		8.368561	-1.563814	3.245330	-0.823202	-1.411343	-0.849393	0.356446	0.607717	0.066523	-0.950195	-0.147217	-0.693115	0.083789	-0.015668	0.032171	-0.771047	-0.081044	0.614250	-0.147021	-13.471444	-76.182544	32.169289
32743		7.873176	-1.821673	3.235215	-0.777318	-1.701456	-1.311356	0.410628	0.489007	0.084748	-0.937500	-0.142334	-0.703857	0.078818	-0.018249	0.032122	-0.772300	-0.081957	0.612113	-0.148840	-13.197300	-75.898800	32.126831
32744		7.725079	-1.847144	2.998531	-0.542814	-1.662784	-1.504836	0.443271	0.268053	0.107115	-0.943115	-0.146240	-0.706055	0.077301	-0.018496	0.029841	-0.772843	-0.083087	0.610808	-0.150745	-13.070733	-75.735138	32.255032
32745		7.916874	-1.768780	2.730752	-0.259661	-1.474333	-1.385269	0.440356	0.116818	0.126184	-0.935059	-0.155518	-0.703125	0.079196	-0.017698	0.027222	-0.772904	-0.084263	0.610094	-0.152658	-13.065801	-75.653557	32.507700
32746		8.292436	-1.597341	2.613632	-0.117682	-1.220406	-1.058042	0.400670	0.074295	0.140826	-0.944092	-0.155273	-0.710449	0.082945	-0.015967	0.026074	-0.772839	-0.085272	0.609577	-0.154481	-13.133843	-75.593662	32.811714
32747		8.896457	-1.272794	2.792244	-0.254611	-0.884170	-0.446953	0.368252	0.100249	0.147279	-0.940186	-0.161621	-0.706543	0.088988	-0.012714	0.027854	-0.772856	-0.086118	0.608986	-0.156249	-13.221180	-75.518439	33.117511
32748		9.456527	-0.604214	2.998636	-0.545143	-0.238786	0.108430	0.327929	0.142497	0.147088	-0.942383	-0.157471	-0.704834	0.094591	-0.006022	0.029909	-0.773019	-0.086773	0.608259	-0.157903	-13.305850	-75.419470	33.395859
32749		10.022816	0.145197	3.399438	-1.041158	0.419552	0.712238	0.289501	0.151327	0.124845	-0.938477	-0.159668	-0.702881	0.100253	0.001465	0.033921	-0.773237	-0.087343	0.607518	-0.159367	-13.359888	-75.318526	33.620984
32750		10.409838	0.712133	3.603068	-1.337413	0.942370	1.104144	0.210131	0.045301	0.076882	-0.936768	-0.162842	-0.702881	0.104104	0.007124	0.036015	-0.773207	-0.087832	0.607227	-0.160348	-13.408004	-75.282899	33.791978
32751		10.985132	1.025011	3.517527	-1.255054	1.340407	1.620811	0.161082	-0.130151	0.002014	-0.937256	-0.163086	-0.704346	0.109828	0.010223	0.035255	-0.772723	-0.088504	0.607620	-0.160823	-13.415635	-75.355058	33.893156
32752		11.275562	1.254142	3.241703	-1.039770	1.672209	1.820986	0.164097	-0.170080	-0.073294	-0.950195	-0.164795	-0.697998	0.112733	0.012473	0.032523	-0.772178	-0.089445	0.608131	-0.160988	-13.279329	-75.459393	33.846242
32753		10.733843	0.995978	2.841955	-0.702840	1.471573	1.215663	0.114646	-0.012352	-0.138802	-0.947266	-0.158691	-0.703369	0.107344	0.009869	0.028432	-0.772185	-0.090271	0.608043	-0.160830	-12.950556	-75.484246	33.572362
32754		9.582749	0.445394	2.924865	-0.810268	0.755456	0.155010	0.174264	0.128455	-0.177202	-0.940186	-0.167969	-0.705566	0.095850	0.004344	0.029191	-0.772625	-0.091326	0.607344	-0.160760	-12.434833	-75.434652	33.139507
32755		8.534118	0.349473	3.447986	-1.457408	0.326617	-0.723621	0.302552	0.030019	-0.198473	-0.940918	-0.172607	-0.705811	0.085350	0.003358	0.034472	-0.772720	-0.093023	0.606912	-0.160958	-11.849010	-75.441750	32.710972
32756		8.206920	0.417869	3.688039	-1.768969	0.235951	-0.984055	0.322180	-0.229760	-0.199338	-0.938477	-0.182617	-0.697754	0.082031	0.004037	0.036981	-0.772018	-0.095004	0.607465	-0.161084	-11.362256	-75.593701	32.395680
32757		8.568390	0.416933	3.292178	-1.352727	0.383509	-0.732355	0.324975	-0.422379	-0.172307	-0.939453	-0.178955	-0.700195	0.085618	0.004042	0.033109	-0.770701	-0.097074	0.608768	-0.161239	-11.009561	-75.850335	32.221806
32758		9.162489	0.547244	2.747545	-0.813071	0.734216	-0.294319	0.325247	-0.416455	-0.147124	-0.952148	-0.178467	-0.695313	0.091571	0.005360	0.027675	-0.769378	-0.099057	0.610056	-0.161485	-10.700993	-76.100661	32.092626
32759		9.499613	0.746152	2.341849	-0.475716	1.072959	-0.070716	0.277566	-0.273661	-0.122348	-0.948730	-0.183838	-0.694092	0.094968	0.007371	0.023559	-0.768488	-0.100669	0.610841	-0.161757	-10.409066	-76.267736	31.953382
32760		9.518624	0.823980	2.116905	-0.311050	1.205574	-0.106285	0.231346	-0.115716	-0.088097	-0.952637	-0.187256	-0.691650	0.095178	0.008173	0.021234	-0.768075	-0.101868	0.611072	-0.162092	-10.151223	-76.342154	31.821219
32761		9.294327	0.843590	2.132692	-0.381260	1.177616	-0.319933	0.180240	-0.013817	-0.065609	-0.948486	-0.193115	-0.689453	0.092945	0.008386	0.021341	-0.767979	-0.102722	0.610964	-0.162415	-9.931856	-76.356671	31.699385
32762		8.970724	0.766786	2.312876	-0.578499	0.995488	-0.588503	0.105769	0.026165	-0.043408	-0.955078	-0.187256	-0.693359	0.089712	0.007636	0.023121	-0.768027	-0.103186	0.610774	-0.162610	-9.789826	-76.346382	31.612385
32763		8.688095	0.663177	2.438436	-0.708028	0.817247	-0.829393	-0.006783	0.003607	-0.025543	-0.948486	-0.190918	-0.689453	0.086882	0.006622	0.024383	-0.768047	-0.103187	0.610771	-0.162525	-9.763277	-76.347047	31.578756
32764		8.438209	0.500205	2.480978	-0.736648	0.620287	-1.055895	-0.096018	-0.029276	-0.019850	-0.951904	-0.190674	-0.686035	0.084379	0.005006	0.024820	-0.768010	-0.102849	0.610971	-0.162166	-9.813932	-76.365740	31.571065
32765		8.319514	0.353563	2.544798	-0.767590	0.448006	-1.150966	-0.153051	-0.061318	-0.021515	-0.948486	-0.187012	-0.692139	0.083188	0.003546	0.025471	-0.767904	-0.102329	0.611337	-0.161616	-9.906613	-76.402688	31.573956
32766		8.256079	0.175771	2.531527	-0.708253	0.280965	-1.209095	-0.148939	-0.072537	-0.020154	-0.947998	-0.185303	-0.683838	0.082552	0.001768	0.025344	-0.767761	-0.101824	0.611745	-0.161071	-10.004812	-76.445831	31.583986
32767		8.211858	0.150784	2.596438	-0.773753	0.229182	-1.236696	-0.090420	-0.083231	-0.020363	-0.947998	-0.187744	-0.692627	0.082108	0.001511	0.025998	-0.767554	-0.101557	0.612145	-0.160705	-10.073870	-76.494980	31.599334
32768		8.297207	0.181609	2.636515	-0.812593	0.252682	-1.146449	-0.040184	-0.099302	-0.005436	-0.961182	-0.188721	-0.685791	0.082959	0.001819	0.026406	-0.767261	-0.101446	0.612574	-0.160536	-10.156213	-76.551733	31.657130
32769		8.522317	0.263479	2.724420	-0.886973	0.323592	-0.911546	0.004430	-0.096368	0.013137	-0.954346	-0.198730	-0.689209	0.085210	0.002640	0.027285	-0.766939	-0.101452	0.612965	-0.160582	-10.256154	-76.604865	31.760231
32770		8.628090	0.391640	2.675706	-0.878415	0.472092	-0.825907	0.005357	-0.088495	0.032199	-0.955078	-0.189697	-0.682129	0.086268	0.003930	0.026795	-0.766626	-0.101391	0.613335	-0.160702	-10.398317	-76.651610	31.906309
32771		8.805048	0.589942	2.555004	-0.816930	0.721585	-0.690358	-0.006291	-0.084006	0.051114	-0.963379	-0.193848	-0.679932	0.088038	0.005923	0.025587	-0.766315	-0.101232	0.613705	-0.160869	-10.590698	-76.693699	32.098378
32772		8.821494	0.733414	2.375121	-0.710671	0.924120	-0.722099	-0.060521	-0.026558	0.049823	-0.954590	-0.186768	-0.676025	0.088210	0.007363	0.023761	-0.766211	-0.100815	0.613900	-0.160886	-10.786762	-76.703485	32.261015
32773		8.631213	0.772737	2.126348	-0.538392	1.031702	-0.966104	-0.131999	0.030964	0.041504	-0.956543	-0.188721	-0.685303	0.086314	0.007759	0.021245	-0.766324	-0.100111	0.613926	-0.160688	-10.977261	-76.681680	32.377115
32774		8.488454	0.763314	1.905265	-0.359197	1.090961	-1.155476	-0.168541	0.071691	0.016565	-0.955566	-0.186523	-0.681396	0.084891	0.007656	0.019016	-0.766601	-0.099304	0.613813	-0.160295	-11.110648	-76.639634	32.411755
32775		8.480522	0.749835	1.880393	-0.327963	1.093591	-1.168968	-0.197605	0.076532	-0.003757	-0.951660	-0.182861	-0.677734	0.084813	0.007515	0.018764	-0.766923	-0.098450	0.613693	-0.159743	-11.209220	-76.597043	32.394649
32776		8.436334	0.693349	1.785589	-0.222530	1.075781	-1.231664	-0.254154	0.106452	-0.019760	-0.948730	-0.179932	-0.685303	0.084374	0.006948	0.017802	-0.767376	-0.097398	0.613497	-0.158965	-11.289044	-76.539495	32.323801
32777		8.543564	0.620462	1.776713	-0.157782	1.031911	-1.126813	-0.288717	0.115538	-0.029588	-0.952393	-0.185791	-0.674561	0.085447	0.006218	0.017709	-0.767879	-0.096242	0.613285	-0.158053	-11.360632	-76.477929	32.225144
32778		8.712783	0.613193	1.754589	-0.093103	1.061686	-0.967841	-0.284256	0.092315	-0.011466	-0.949951	-0.172119	-0.693604	0.087136	0.006152	0.017497	-0.768294	-0.095059	0.613167	-0.157207	-11.483584	-76.427429	32.180883
32779		8.921355	0.657408	1.580347	0.097297	1.196401	-0.808277	-0.268292	0.063196	0.013490	-0.952393	-0.181885	-0.691162	0.089218	0.006601	0.015766	-0.768590	-0.093891	0.613158	-0.156497	-11.667791	-76.390414	32.210155
32780		9.215962	0.655916	1.544791	0.191282	1.252909	-0.531298	-0.284654	0.021209	0.035137	-0.953125	-0.175537	-0.695801	0.092160	0.006597	0.015429	-0.768747	-0.092620	0.613334	-0.155794	-11.932112	-76.374404	32.311105
32781		9.618253	0.558129	1.491069	0.351884	1.240356	-0.149186	-0.279251	-0.034752	0.077945	-0.949707	-0.169434	-0.701172	0.096178	0.005640	0.014920	-0.768694	-0.091289	0.613737	-0.155253	-12.318448	-76.384440	32.541958
32782		10.027834	0.686916	1.698486	0.191362	1.356743	0.288638	-0.262871	-0.029692	0.102573	-0.955566	-0.158936	-0.687988	0.100272	0.006943	0.016991	-0.768629	-0.089933	0.614120	-0.154852	-12.751338	-76.388209	32.829189
32783		10.321255	0.760357	2.127843	-0.174546	1.339005	0.666374	-0.299332	0.023861	0.118828	-0.946289	-0.161621	-0.694824	0.103211	0.007697	0.021255	-0.768730	-0.088351	0.614330	-0.154428	-13.212843	-76.359470	33.125156
32784		10.457190	0.653145	2.422508	-0.381383	1.182780	0.869236	-0.359031	0.079730	0.125704	-0.956543	-0.153809	-0.695801	0.104577	0.006641	0.024172	-0.769021	-0.086470	0.614373	-0.153869	-13.692847	-76.298098	33.404244
32785		10.387286	0.395003	2.473950	-0.349769	0.940916	0.825190	-0.380760	0.131666	0.117589	-0.949219	-0.154053	-0.697021	0.103887	0.004058	0.024663	-0.769484	-0.084496	0.614226	-0.153236	-14.132697	-76.208469	33.630051
32786		10.114283	0.038634	2.355143	-0.167219	0.633038	0.551586	-0.349726	0.135518	0.099663	-0.943604	-0.152344	-0.697266	0.101159	0.000478	0.023482	-0.769957	-0.082687	0.614031	-0.152628	-14.509402	-76.118824	33.808440
32787		9.919908	-0.338603	2.077664	0.181118	0.359080	0.320138	-0.280812	0.089047	0.064167	-0.954102	-0.155518	-0.700684	0.099209	-0.003325	0.020737	-0.770282	-0.081294	0.613945	-0.152079	-14.789763	-76.059894	33.929228
32788		9.665487	-0.635997	1.659773	0.615300	0.187252	-0.006193	-0.200098	0.028721	0.037345	-0.945801	-0.150635	-0.705811	0.096658	-0.006325	0.016590	-0.770410	-0.080333	0.614019	-0.151645	-15.000047	-76.038139	34.024562
32789		9.481966	-0.729096	1.243945	0.988234	0.207780	-0.275032	-0.096772	-0.067717	0.001868	-0.956543	-0.147461	-0.700928	0.094816	-0.007284	0.012475	-0.770225	-0.079961	0.614370	-0.151358	-15.127984	-76.075033	34.097163
32790		9.564772	-0.568780	1.014035	1.151613	0.438206	-0.256622	-0.024163	-0.175380	-0.013282	-0.955566	-0.142334	-0.688721	0.095638	-0.005693	0.010225	-0.769692	-0.079988	0.615076	-0.151188	-15.248237	-76.173616	34.203563
32791		9.810358	-0.350453	0.966389	1.153432	0.685093	-0.040274	0.003557	-0.220378	-0.013044	-0.956543	-0.136963	-0.696045	0.098093	-0.003511	0.009772	-0.769008	-0.080162	0.615933	-0.151090	-15.381342	-76.297154	34.340454
32792		10.047531	-0.055925	1.007206	1.043778	0.974736	0.183855	-0.003183	-0.217412	-0.002247	-0.950928	-0.139893	-0.687744	0.100464	-0.000560	0.010181	-0.768327	-0.080267	0.616788	-0.151009	-15.544917	-76.417139	34.503697
32793		10.396319	0.359649	1.177734	0.796160	1.355210	0.537644	-0.048271	-0.178930	0.019919	-0.951660	-0.133545	-0.696533	0.103952	0.003610	0.011869	-0.767765	-0.080107	0.617537	-0.150892	-15.762147	-76.512522	34.696095
32794		10.622319	0.725117	1.408507	0.490224	1.658527	0.786949	-0.112653	-0.094650	0.040737	-0.952637	-0.141357	-0.691406	0.106215	0.007281	0.014131	-0.767473	-0.079566	0.618019	-0.150688	-16.012841	-76.557826	34.884304
32795		10.745899	0.973479	1.460420	0.375204	1.898389	0.902264	-0.192470	-0.043097	0.047082	-0.945557	-0.134521	-0.693604	0.107454	0.009774	0.014618	-0.767367	-0.078666	0.618365	-0.150283	-16.289287	-76.573732	35.052471
32796		10.928647	0.915592	1.547229	0.348323	1.850414	1.101624	-0.241070	0.059812	0.026139	-0.959717	-0.139404	-0.698975	0.109290	0.009189	0.015429	-0.767613	-0.077562	0.618344	-0.149686	-16.477486	-76.536107	35.100756
32797		11.064470	0.643422	2.252147	-0.175010	1.408352	1.407585	-0.220082	0.228662	-0.026877	-0.956543	-0.131836	-0.698730	0.110671	0.006444	0.022388	-0.768410	-0.076581	0.617637	-0.149017	-16.416354	-76.414521	34.905613
32798		10.579169	0.257194	3.012997	-0.817798	0.760279	1.133370	-0.273445	0.342541	-0.107856	-0.940918	-0.124756	-0.702881	0.105844	0.002556	0.029945	-0.769637	-0.075555	0.616499	-0.147914	-16.132979	-76.242931	34.449530
32799		10.277358	-0.429575	3.351019	-0.940452	-0.029126	0.964724	-0.228325	0.182952	-0.235246	-0.952637	-0.125244	-0.694580	0.102799	-0.004378	0.033421	-0.770446	-0.075217	0.615891	-0.146399	-15.646559	-76.178774	33.811129
32800		10.676346	-1.045595	3.604445	-0.891947	-0.657644	1.449704	-0.050499	-0.145143	-0.358217	-0.943848	-0.139648	-0.700195	0.106718	-0.010638	0.036125	-0.770266	-0.076178	0.616369	-0.144834	-14.986324	-76.312798	33.098411
32801		11.250868	-1.582259	3.627882	-0.656725	-1.152680	2.040014	0.067861	-0.569674	-0.433583	-0.954346	-0.135010	-0.696289	0.112370	-0.016079	0.036594	-0.768780	-0.078140	0.618362	-0.143181	-14.318537	-76.691355	32.449059
32802		11.615198	-1.946316	3.140384	-0.088095	-1.386590	2.296450	0.159992	-0.965154	-0.438174	-0.961670	-0.134766	-0.683350	0.115956	-0.019743	0.031948	-0.766023	-0.080746	0.621794	-0.141638	-13.785340	-77.288505	31.992709
32803		11.516246	-1.709645	2.593401	0.228765	-1.100239	2.061994	0.328233	-1.117789	-0.398762	-0.957275	-0.143311	-0.668457	0.114981	-0.017369	0.026549	-0.762670	-0.083983	0.625688	-0.140701	-13.299736	-77.964616	31.685200
32804		11.172611	-1.003014	2.621158	-0.180145	-0.562155	1.691839	0.417069	-0.970435	-0.316605	-0.975586	-0.147217	-0.651611	0.111581	-0.010262	0.026732	-0.759657	-0.087191	0.628970	-0.140414	-12.850471	-78.547113	31.467225
32805		10.681648	-0.569304	2.697196	-0.550125	-0.291896	1.201311	0.317751	-0.718326	-0.205194	-0.974854	-0.152588	-0.658691	0.106713	-0.005846	0.027346	-0.757383	-0.089497	0.631399	-0.140344	-12.581798	-78.974592	31.376108
32806		10.197862	-0.449883	2.823265	-0.836001	-0.310151	0.740715	0.261613	-0.445878	-0.133643	-0.981689	-0.164307	-0.657471	0.101912	-0.004604	0.028454	-0.755937	-0.091168	0.632859	-0.140488	-12.367275	-79.240494	31.307122
32807		9.796674	-0.173777	2.951318	-1.136635	-0.157648	0.355815	0.278052	-0.232770	-0.098641	-0.979248	-0.157471	-0.649170	0.097931	-0.001827	0.029625	-0.755129	-0.092645	0.633514	-0.140913	-12.100543	-79.382795	31.195081
32808		9.306257	0.006988	3.015062	-1.341683	-0.073863	-0.122926	0.216024	-0.059060	-0.099291	-0.974854	-0.166016	-0.646240	0.093054	-0.000009	0.030178	-0.754899	-0.093762	0.633557	-0.141218	-11.754694	-79.427647	30.965985
32809		8.836919	-0.186169	2.686955	-1.043753	-0.206889	-0.635908	0.048200	0.032244	-0.103618	-0.980225	-0.163086	-0.649902	0.088373	-0.001914	0.026855	-0.755039	-0.094200	0.633369	-0.141019	-11.431618	-79.421555	30.662682
32810		8.536401	-0.786784	2.242194	-0.474790	-0.665894	-0.989549	-0.059623	-0.008677	-0.111280	-0.974854	-0.161621	-0.650879	0.085359	-0.007909	0.022428	-0.755105	-0.094279	0.633409	-0.140430	-11.174128	-79.438985	30.362830
32811		8.599778	-1.384668	1.906865	0.045148	-1.124791	-0.967213	-0.058763	-0.034643	-0.125820	-0.985352	-0.166260	-0.647461	0.085986	-0.013895	0.019088	-0.755099	-0.094429	0.633539	-0.139776	-10.884180	-79.472337	30.030797
32812		8.918344	-1.528491	2.164290	-0.093088	-1.324232	-0.604266	-0.027884	0.051936	-0.170138	-0.976318	-0.156494	-0.649170	0.089176	-0.015358	0.021622	-0.755383	-0.094772	0.633300	-0.139094	-10.393661	-79.461222	29.512453
32813		9.286362	-1.399117	2.678661	-0.541903	-1.344645	-0.155178	-0.060274	0.173997	-0.211916	-0.977539	-0.164551	-0.661133	0.092872	-0.014082	0.026710	-0.756097	-0.095043	0.632600	-0.138208	-9.731077	-79.384473	28.800382
32814		9.203543	-1.304665	2.952145	-0.818327	-1.359291	-0.189532	-0.160005	0.251377	-0.232527	-0.984131	-0.161621	-0.656250	0.092057	-0.013130	0.029416	-0.757115	-0.094946	0.631667	-0.136966	-9.038681	-79.264371	27.999333
32815		8.922352	-1.457357	3.025977	-0.859688	-1.558355	-0.446728	-0.201397	0.242100	-0.226388	-0.972412	-0.162842	-0.653076	0.089244	-0.014644	0.030166	-0.758117	-0.094680	0.630796	-0.135611	-8.407098	-79.147172	27.235881
32816		8.591378	-1.671925	3.046738	-0.847946	-1.803874	-0.761902	-0.090017	0.112969	-0.189644	-0.978271	-0.166992	-0.669678	0.085915	-0.016787	0.030426	-0.758632	-0.094806	0.630357	-0.134686	-7.888270	-79.098916	26.651872
32817		8.490696	-1.669771	3.075411	-0.886899	-1.830335	-0.857160	0.057967	-0.055847	-0.129846	-0.970703	-0.163330	-0.657227	0.084887	-0.016762	0.030773	-0.758504	-0.095421	0.630484	-0.134374	-7.529569	-79.140919	26.317464
32818		8.352510	-1.563699	3.004068	-0.882260	-1.732613	-1.011912	0.188474	-0.160926	-0.077132	-0.971924	-0.172363	-0.658691	0.083495	-0.015698	0.030093	-0.757946	-0.096433	0.630948	-0.134623	-7.291644	-79.238554	26.182009
32819		8.555037	-1.452962	2.939641	-0.832676	-1.605016	-0.830939	0.306384	-0.192181	-0.025336	-0.978760	-0.170410	-0.658691	0.085520	-0.014586	0.029456	-0.757197	-0.097751	0.631473	-0.135425	-7.149621	-79.349936	26.213216
32820		8.952541	-1.181923	3.042401	-0.959781	-1.362957	-0.430668	0.389018	-0.170209	0.010186	-0.978027	-0.174316	-0.660889	0.089500	-0.011874	0.030477	-0.756448	-0.099252	0.631876	-0.136633	-7.060079	-79.446524	26.345713
32821		9.526705	-0.747856	2.782438	-0.776993	-0.833655	0.074711	0.369155	-0.147084	0.050686	-0.978760	-0.176514	-0.651367	0.095248	-0.007506	0.027881	-0.755753	-0.100536	0.632219	-0.137942	-7.097121	-79.526831	26.595558
32822		9.912262	-0.125561	2.181543	-0.375659	-0.025419	0.330589	0.346122	-0.104919	0.074248	-0.978516	-0.173096	-0.653809	0.099112	-0.001257	0.021865	-0.755183	-0.101627	0.632432	-0.139288	-7.206859	-79.581712	26.905635
32823		10.223788	0.513926	1.648742	-0.055085	0.777795	0.526573	0.301814	-0.001588	0.083095	-0.977539	-0.167236	-0.651855	0.102236	0.005157	0.016496	-0.754955	-0.102452	0.632285	-0.140580	-7.329048	-79.576822	27.202755
32824		10.391396	0.745238	1.197290	0.312418	1.166827	0.604168	0.154447	0.113028	0.090345	-0.973389	-0.177246	-0.645996	0.103917	0.007490	0.011920	-0.755157	-0.102616	0.631814	-0.141490	-7.511798	-79.506420	27.475413
32825		10.343094	0.595266	0.896568	0.646119	1.136576	0.503729	0.000553	0.210966	0.085324	-0.983154	-0.177002	-0.658203	0.103438	0.005997	0.008857	-0.755751	-0.102146	0.631077	-0.141946	-7.722707	-79.380348	27.687182
32826		10.042588	0.307424	0.944096	0.673915	0.843053	0.220976	-0.104409	0.320722	0.072170	-0.979004	-0.175049	-0.654053	0.100440	0.003115	0.009278	-0.756752	-0.101241	0.629993	-0.142077	-7.904640	-79.193128	27.808290
32827		9.861481	0.077171	1.394122	0.335680	0.482131	0.129802	-0.195196	0.367154	0.059189	-0.975586	-0.175781	-0.672119	0.098640	0.000814	0.013759	-0.757952	-0.100004	0.628787	-0.141896	-8.074750	-78.980314	27.864733
32828		9.512907	-0.257467	1.800178	0.045391	0.024441	-0.127670	-0.294203	0.371943	0.048229	-0.978271	-0.171875	-0.672363	0.095163	-0.002525	0.017829	-0.759219	-0.098419	0.627627	-0.141364	-8.264739	-78.765858	27.883393
32829		9.145217	-0.551566	1.990532	-0.068516	-0.326310	-0.443046	-0.369469	0.328328	0.038758	-0.976807	-0.167236	-0.673584	0.091486	-0.005461	0.019765	-0.760391	-0.096610	0.626675	-0.140537	-8.483791	-78.576663	27.887934
32830		8.963350	-0.743858	1.954625	0.014784	-0.493649	-0.621845	-0.395031	0.221016	0.035128	-0.971924	-0.164307	-0.671875	0.089656	-0.007384	0.019462	-0.761235	-0.094789	0.626146	-0.139564	-8.749959	-78.448808	27.925403
32831		8.953836	-0.848773	1.810504	0.189344	-0.532266	-0.655704	-0.418470	0.125078	0.031469	-0.970459	-0.156494	-0.671875	0.089551	-0.008436	0.018067	-0.761790	-0.092958	0.625991	-0.138457	-9.056459	-78.375353	27.990584
32832		9.031888	-0.982778	1.666327	0.382334	-0.593426	-0.602956	-0.432394	0.082342	0.033223	-0.968018	-0.155518	-0.680420	0.090327	-0.009777	0.016647	-0.762211	-0.091095	0.626009	-0.137293	-9.393481	-78.326028	28.078561
32833		9.085125	-1.251268	1.668923	0.476046	-0.831143	-0.540522	-0.391441	0.097488	0.041122	-0.972412	-0.149658	-0.679932	0.090862	-0.012461	0.016669	-0.762653	-0.089355	0.625939	-0.136293	-9.719017	-78.267081	28.178891
32834		9.039297	-1.439140	1.946166	0.271424	-1.085766	-0.522100	-0.316623	0.124043	0.049779	-0.973389	-0.149414	-0.686768	0.090409	-0.014338	0.019428	-0.763135	-0.087853	0.625721	-0.135572	-10.011354	-78.192396	28.289018
32835		8.980198	-1.621129	2.151454	0.129172	-1.312764	-0.530407	-0.268608	0.103504	0.064278	-0.965820	-0.146484	-0.684814	0.089818	-0.016154	0.021490	-0.763522	-0.086503	0.625551	-0.135046	-10.321918	-78.127483	28.445976
32836		8.876864	-1.875043	2.162844	0.179268	-1.554447	-0.617909	-0.216552	0.065043	0.065270	-0.962158	-0.141357	-0.681641	0.088782	-0.018698	0.021620	-0.763761	-0.085374	0.625495	-0.134671	-10.622610	-78.084192	28.623286
32837		8.828500	-1.980590	1.977702	0.372452	-1.592547	-0.696684	-0.163210	0.014126	0.091785	-0.969971	-0.137695	-0.681152	0.088295	-0.019749	0.019787	-0.763802	-0.084400	0.625605	-0.134542	-10.987243	-78.066252	28.897280
32838		8.785442	-2.037277	1.686586	0.647790	-1.552995	-0.793396	-0.130276	-0.004796	0.103140	-0.967041	-0.135498	-0.693359	0.087864	-0.020316	0.016881	-0.763760	-0.083529	0.625771	-0.134551	-11.372675	-78.057561	29.211758
32839		8.759731	-2.137401	1.329383	1.001415	-1.533544	-0.884417	-0.110107	0.001958	0.119247	-0.967773	-0.133545	-0.687256	0.087610	-0.021314	0.013305	-0.763720	-0.082679	0.625903	-0.134688	-11.784954	-78.042510	29.565454
32840		8.611721	-2.141367	1.013161	1.266338	-1.446957	-1.090510	-0.082634	0.018182	0.130142	-0.965332	-0.125488	-0.688721	0.086132	-0.021353	0.010133	-0.763711	-0.081890	0.625960	-0.134958	-12.200100	-78.016805	29.938246
32841		8.430658	-2.118823	0.790095	1.431897	-1.366036	-1.311319	-0.035496	0.022238	0.136057	-0.977539	-0.132324	-0.691162	0.084322	-0.021129	0.007895	-0.763692	-0.081257	0.625971	-0.135400	-12.600073	-77.987294	30.323014
32842		8.315853	-2.021705	0.681191	1.480591	-1.241755	-1.447843	0.020164	0.008453	0.128586	-0.971436	-0.131592	-0.685547	0.083172	-0.020164	0.006806	-0.763610	-0.080872	0.625994	-0.135983	-12.954687	-77.966166	30.694210
32843		8.368961	-1.862909	0.665837	1.452045	-1.070746	-1.404457	0.062434	-0.034847	0.104704	-0.973877	-0.131348	-0.691650	0.083698	-0.018587	0.006667	-0.763392	-0.080752	0.626143	-0.136590	-13.248671	-77.971646	31.028290
32844		8.446312	-1.739914	0.706350	1.384981	-0.950356	-1.324751	0.069704	-0.054146	0.080372	-0.973145	-0.126709	-0.688965	0.084468	-0.017368	0.007080	-0.763127	-0.080749	0.626351	-0.137118	-13.486710	-77.991004	31.309313
32845		8.600063	-1.614374	0.674120	1.397348	-0.800399	-1.185492	0.056467	-0.072702	0.052379	-0.971680	-0.129150	-0.686768	0.086002	-0.016123	0.006768	-0.762828	-0.080795	0.626627	-0.137492	-13.672515	-78.024043	31.529161
32846		8.790291	-1.447546	0.804294	1.250436	-0.658402	-0.980111	0.058036	-0.089005	0.016789	-0.974854	-0.132324	-0.692871	0.087901	-0.014470	0.008078	-0.762501	-0.080970	0.626951	-0.137727	-13.774573	-78.071082	31.664288
32847		8.912336	-1.227200	0.807278	1.191203	-0.439279	-0.869785	0.037578	-0.135771	-0.018080	-0.973633	-0.142578	-0.690186	0.089117	-0.012282	0.008131	-0.762060	-0.081209	0.627451	-0.137747	-13.828669	-78.148701	31.738459
32848		9.117004	-1.165024	0.698297	1.296281	-0.332634	-0.692729	0.027439	-0.188321	-0.053351	-0.975342	-0.124023	-0.685059	0.091160	-0.011676	0.007067	-0.761482	-0.081556	0.628145	-0.137578	-13.828751	-78.260549	31.751422
32849		9.366476	-1.050788	0.689078	1.295111	-0.206516	-0.453742	0.075185	-0.251364	-0.088512	-0.979492	-0.130859	-0.679443	0.093651	-0.010552	0.007005	-0.760709	-0.082238	0.629031	-0.137402	-13.749435	-78.412148	31.711369
32850		9.745069	-0.937040	0.701616	1.292282	-0.078875	-0.083330	0.091177	-0.269242	-0.119301	-0.981934	-0.136475	-0.677979	0.097436	-0.009432	0.007143	-0.759893	-0.083091	0.629960	-0.137149	-13.585212	-78.577983	31.593914
32851		9.927082	-0.977625	0.721052	1.296534	-0.124154	0.103266	0.057023	-0.269217	-0.145521	-0.976318	-0.139160	-0.669922	0.099254	-0.009851	0.007341	-0.759107	-0.083895	0.630900	-0.136691	-13.364636	-78.747143	31.399213
32852		9.922261	-1.137501	0.502420	1.529420	-0.233098	0.066789	0.041538	-0.272399	-0.169695	-0.974609	-0.145020	-0.672852	0.099206	-0.011460	0.005157	-0.758332	-0.084719	0.631850	-0.136087	-13.078424	-78.921155	31.128565
32853		9.975172	-1.250576	0.275384	1.763460	-0.292360	0.084204	0.027319	-0.317063	-0.198452	-0.986328	-0.139160	-0.668457	0.099735	-0.012605	0.002910	-0.757439	-0.085611	0.632966	-0.135315	-12.739047	-79.123471	30.795936
32854		10.148505	-1.399268	0.225348	1.859227	-0.430646	0.255011	-0.021444	-0.342753	-0.213677	-0.995117	-0.150146	-0.657959	0.101466	-0.014101	0.002429	-0.756494	-0.086384	0.634204	-0.134315	-12.385098	-79.341695	30.419969
32855		10.380948	-1.588204	0.224078	1.929563	-0.618253	0.494160	-0.078103	-0.319850	-0.213462	-0.988525	-0.134033	-0.657227	0.103789	-0.015992	0.002413	-0.755641	-0.086925	0.635391	-0.133150	-12.036551	-79.546679	30.017062
32856		10.665914	-1.768394	0.467736	1.779533	-0.865593	0.826469	-0.090192	-0.223096	-0.203332	-0.985352	-0.154785	-0.656250	0.106636	-0.017790	0.004804	-0.755094	-0.087325	0.636222	-0.132022	-11.647753	-79.695688	29.566096
32857		11.263741	-1.839072	1.041259	1.345948	-1.074644	1.517441	-0.098862	-0.050375	-0.167011	-0.988525	-0.148438	-0.658203	0.112619	-0.018480	0.010450	-0.755073	-0.087460	0.636422	-0.131083	-11.260511	-79.743096	29.111982
32858		11.956100	-1.609948	1.667507	0.804618	-0.994839	2.298616	-0.124512	0.183013	-0.108390	-0.985840	-0.140381	-0.658691	0.119567	-0.016154	0.016576	-0.755767	-0.087160	0.635783	-0.130381	-10.924717	-79.652226	28.695011
32859		12.053702	-1.059356	1.776585	0.575403	-0.491168	2.393777	-0.164195	0.305594	-0.031479	-0.984131	-0.141113	-0.654785	0.120562	-0.010598	0.017590	-0.756816	-0.086384	0.634739	-0.129901	-10.784796	-79.483856	28.454008
32860		12.010800	-0.771793	1.458286	0.809669	-0.111797	2.283321	-0.128584	0.279279	0.056887	-0.978516	-0.150879	-0.671631	0.120130	-0.007674	0.014420	-0.757708	-0.085481	0.633806	-0.129852	-10.906729	-79.320677	28.499937
32861		12.274280	-0.736371	1.662414	0.685981	-0.088725	2.576224	0.096900	0.412197	0.145316	-0.981934	-0.145752	-0.667236	0.122782	-0.007282	0.016368	-0.758862	-0.085064	0.632261	-0.130914	-11.083451	-79.073163	28.733429
32862		12.148765	-0.494108	3.424821	-0.996754	-0.347292	2.775048	0.222965	0.758318	0.231914	-0.970215	-0.145508	-0.682373	0.121622	-0.004838	0.033782	-0.760994	-0.084626	0.629348	-0.132845	-11.226903	-78.621253	29.006677
32863		11.136581	-0.512503	5.709651	-3.220936	-1.085234	2.242736	0.131808	0.760085	0.287615	-0.971924	-0.145020	-0.670898	0.111589	-0.005002	0.056669	-0.763118	-0.083661	0.626504	-0.134703	-11.556356	-78.161914	29.417187
32864		10.029055	-0.804966	5.658141	-3.235491	-1.417240	1.176736	0.122376	0.157755	0.302443	-0.964355	-0.140381	-0.676514	0.100347	-0.007933	0.056497	-0.763343	-0.083020	0.625962	-0.136331	-12.236637	-78.037734	30.180883
32865		10.289781	-1.076871	4.082851	-1.642202	-1.158959	1.126638	0.261681	-0.219243	0.275468	-0.967773	-0.139160	-0.682129	0.102868	-0.010681	0.040927	-0.762344	-0.083252	0.626751	-0.138141	-12.982744	-78.125812	31.093984
32866		10.695395	-0.996687	3.219174	-0.804248	-0.766839	1.345855	0.385783	-0.004335	0.251601	-0.971680	-0.144775	-0.682617	0.106966	-0.009894	0.032175	-0.761981	-0.083883	0.626622	-0.140332	-13.465140	-78.095090	31.809658
32867		10.124901	-1.114443	2.863461	-0.517751	-0.807701	0.724597	0.356674	0.394346	0.274876	-0.967529	-0.150635	-0.680908	0.101320	-0.011056	0.028415	-0.762857	-0.084049	0.624999	-0.142692	-13.765208	-77.838080	32.322641
32868		9.221481	-1.318040	2.774940	-0.480887	-1.037264	-0.160455	0.378057	0.700570	0.308409	-0.958740	-0.152344	-0.688477	0.092331	-0.013090	0.027401	-0.764648	-0.083973	0.622198	-0.145367	-13.925613	-77.405824	32.705440
32869		8.420125	-1.184947	2.930103	-0.754652	-1.012849	-0.908064	0.445174	0.711721	0.355470	-0.960693	-0.149170	-0.701172	0.084326	-0.011764	0.028975	-0.766394	-0.084000	0.619313	-0.148442	-14.137863	-76.960447	33.182437
32870		8.108424	-0.917569	2.897720	-0.824316	-0.751260	-1.225421	0.469650	0.492248	0.415755	-0.964111	-0.151611	-0.702637	0.081174	-0.009075	0.028756	-0.767393	-0.084093	0.617266	-0.151720	-14.585061	-76.627840	33.914981
32871		7.985014	-0.633557	2.622155	-0.660986	-0.377459	-1.418759	0.454452	0.331007	0.460405	-0.955811	-0.143555	-0.704346	0.079908	-0.006211	0.026075	-0.767855	-0.084113	0.615857	-0.155061	-15.215293	-76.376182	34.828586
32872		8.416732	-0.125792	2.546505	-0.666780	0.215514	-1.046231	0.414565	0.225877	0.453507	-0.961426	-0.151855	-0.700195	0.084199	-0.001120	0.025368	-0.768006	-0.084079	0.614874	-0.158198	-15.890747	-76.181398	35.765183
32873		9.044220	0.436341	2.827774	-0.991884	0.770805	-0.410211	0.306145	0.168408	0.396577	-0.962402	-0.146240	-0.700928	0.090457	0.004500	0.028208	-0.768064	-0.083851	0.614167	-0.160767	-16.519306	-76.024672	36.591156
32874		9.783644	0.728597	2.935024	-1.049554	1.146292	0.309036	0.054918	0.077849	0.314347	-0.961914	-0.145996	-0.706299	0.097836	0.007432	0.029314	-0.768012	-0.082981	0.613973	-0.162200	-17.155557	-75.929235	37.276173
32875		10.152455	0.839668	2.523465	-0.644058	1.466581	0.559368	-0.106838	0.050317	0.205496	-0.959229	-0.139160	-0.708252	0.101522	0.008514	0.025205	-0.768028	-0.081850	0.613968	-0.162717	-17.659839	-75.865746	37.730916
32876		10.530351	1.014802	2.222163	-0.357998	1.805321	0.839484	-0.113305	0.048752	0.110504	-0.961670	-0.136230	-0.703857	0.105303	0.010219	0.022190	-0.768120	-0.080983	0.613936	-0.162839	-17.958780	-75.819102	37.969058
32877		10.543375	1.170296	2.364393	-0.537804	1.919575	0.871352	-0.134678	0.062589	0.030864	-0.959229	-0.136230	-0.708984	0.105439	0.011735	0.023603	-0.768325	-0.080269	0.613835	-0.162603	-18.088490	-75.778660	38.020926
32878		10.132513	1.053095	2.503770	-0.694838	1.711132	0.513730	-0.190598	0.131092	-0.048407	-0.951904	-0.137451	-0.709961	0.101344	0.010530	0.024961	-0.768829	-0.079526	0.613484	-0.161910	-18.030957	-75.715135	37.845681
32879		9.546178	0.638903	2.668430	-0.800978	1.185345	0.016432	-0.131438	0.153291	-0.117410	-0.956055	-0.138184	-0.716309	0.095486	0.006350	0.026607	-0.769431	-0.079207	0.612971	-0.161149	-17.778900	-75.651359	37.505508
32880		9.120409	0.425967	3.220588	-1.300528	0.739655	-0.247281	0.056195	0.134285	-0.178288	-0.962402	-0.139160	-0.708740	0.091229	0.004169	0.032146	-0.769949	-0.079808	0.612356	-0.160714	-17.304553	-75.608131	37.045863
32881		8.873336	0.299935	3.674938	-1.709152	0.423377	-0.366486	0.178229	0.025450	-0.200254	-0.961182	-0.145508	-0.709961	0.088741	0.002878	0.036741	-0.770102	-0.081037	0.612051	-0.160532	-16.787010	-75.627081	36.614770
32882		8.932110	0.085417	3.485734	-1.447403	0.267853	-0.337802	0.264477	-0.148272	-0.181467	-0.952881	-0.145752	-0.711914	0.089296	0.000727	0.034925	-0.769671	-0.082677	0.612353	-0.160608	-16.368674	-75.737624	36.336202
32883		9.171867	0.113307	2.876863	-0.862214	0.497485	-0.251237	0.375746	-0.255936	-0.136367	-0.959961	-0.153076	-0.708496	0.091682	0.001016	0.028888	-0.768825	-0.084697	0.612994	-0.161160	-16.047701	-75.899560	36.225030
32884		9.434865	0.208780	2.347026	-0.375322	0.771333	-0.125949	0.374925	-0.237600	-0.096535	-0.957275	-0.155518	-0.701904	0.094322	0.001998	0.023586	-0.768000	-0.086572	0.613581	-0.161863	-15.798731	-76.045176	36.186617
32885		9.527235	0.138443	1.822921	0.132083	0.872694	-0.151873	0.316091	-0.177817	-0.060098	-0.961914	-0.152832	-0.708984	0.095256	0.001327	0.018316	-0.767350	-0.088066	0.613997	-0.162558	-15.624801	-76.151938	36.191893
32886		9.490482	0.141147	1.434722	0.467571	0.987600	-0.275727	0.258945	-0.117330	-0.025579	-0.956055	-0.154053	-0.703125	0.094897	0.001381	0.014405	-0.766882	-0.089180	0.614244	-0.163228	-15.522100	-76.220200	36.235711
32887		9.218735	0.065644	1.229092	0.623545	0.943139	-0.581126	0.140227	-0.046673	0.004427	-0.966064	-0.154541	-0.707031	0.092184	0.000650	0.012313	-0.766659	-0.089691	0.614326	-0.163685	-15.511027	-76.244608	36.304475
32888		8.908464	-0.128935	1.143270	0.710530	0.748079	-0.889686	0.049262	0.013002	0.025901	-0.963135	-0.164795	-0.701172	0.089086	-0.001281	0.011427	-0.766642	-0.089737	0.614266	-0.163967	-15.562821	-76.233030	36.383653
32889		8.632057	-0.095766	1.154337	0.637005	0.740627	-1.158223	-0.003489	0.060432	0.038473	-0.964355	-0.158447	-0.708008	0.086324	-0.000941	0.011517	-0.766783	-0.089506	0.614071	-0.164162	-15.643252	-76.193164	36.462101
32890		8.396315	0.015300	1.358533	0.370859	0.748496	-1.348282	-0.041601	0.126793	0.041750	-0.964600	-0.167480	-0.697998	0.083972	0.000173	0.013532	-0.767142	-0.089061	0.613656	-0.164277	-15.710500	-76.116314	36.503606
32891		8.161384	0.175415	1.643630	0.017145	0.776369	-1.521884	-0.051569	0.165934	0.034932	-0.961670	-0.158691	-0.704346	0.081627	0.001773	0.016368	-0.767630	-0.088573	0.613095	-0.164359	-15.743252	-76.018840	36.504808
32892		8.121019	0.441348	1.934097	-0.341383	0.929330	-1.511708	-0.043550	0.146956	0.045119	-0.963623	-0.163086	-0.706299	0.081223	0.004436	0.019280	-0.768049	-0.088093	0.612605	-0.164489	-15.805418	-75.930331	36.539956
32893		8.197345	0.618937	2.150980	-0.581124	1.041527	-1.399378	-0.052175	0.090286	0.048396	-0.968018	-0.154297	-0.710205	0.081982	0.006215	0.021471	-0.768293	-0.087623	0.612339	-0.164587	-15.914292	-75.872453	36.619243
32894		8.389357	0.696346	2.167530	-0.585219	1.143202	-1.215304	-0.024821	0.000059	0.059687	-0.958252	-0.153076	-0.710938	0.083891	0.006991	0.021674	-0.768241	-0.087291	0.612404	-0.164766	-16.088079	-75.862515	36.780579
32895		8.642781	0.815498	2.172081	-0.588263	1.294804	-0.977640	0.018370	-0.067724	0.076110	-0.962646	-0.156982	-0.701660	0.086417	0.008186	0.021751	-0.767948	-0.087135	0.612699	-0.165116	-16.315944	-75.887005	37.023968
32896		8.832341	0.893331	2.012889	-0.444944	1.452619	-0.837615	0.024835	-0.110792	0.086411	-0.959229	-0.157471	-0.718506	0.088308	0.008969	0.020179	-0.767512	-0.087004	0.613160	-0.165500	-16.591635	-75.933331	37.319672
32897		8.909040	0.931647	1.847484	-0.306392	1.559394	-0.805659	-0.013191	-0.121067	0.090160	-0.962402	-0.157715	-0.713379	0.089075	0.009358	0.018528	-0.767057	-0.086729	0.613691	-0.165784	-16.905661	-75.984225	37.633323
32898		8.874519	0.804632	1.605648	-0.058572	1.523322	-0.887517	-0.082070	-0.082476	0.088556	-0.958252	-0.157715	-0.705078	0.088735	0.008092	0.016090	-0.766752	-0.086158	0.614132	-0.165862	-17.232091	-76.013905	37.918077
32899		8.702391	0.801186	1.377728	0.109196	1.578267	-1.108161	-0.142845	-0.055084	0.075454	-0.964600	-0.147461	-0.707764	0.087017	0.008055	0.013796	-0.766567	-0.085377	0.614511	-0.165719	-17.546190	-76.030426	38.155224
32900		8.733914	0.801296	1.328956	0.152324	1.606292	-1.089954	-0.201477	-0.068635	0.057338	-0.962646	-0.144775	-0.704834	0.087332	0.008051	0.013311	-0.766380	-0.084432	0.614983	-0.165316	-17.864998	-76.057224	38.361572
32901		8.892248	0.832877	1.264889	0.222663	1.686772	-0.954306	-0.291166	-0.065399	0.033257	-0.962402	-0.154541	-0.702393	0.088917	0.008362	0.012666	-0.766258	-0.083220	0.615505	-0.164549	-18.180313	-76.086252	38.512082
32902		9.031140	0.801758	1.151110	0.359407	1.721489	-0.844039	-0.321290	-0.037565	0.010635	-0.964844	-0.141602	-0.704102	0.090309	0.008041	0.011515	-0.766253	-0.081934	0.615935	-0.163611	-18.444466	-76.104028	38.591359
32903		9.315429	0.867278	1.076448	0.456914	1.854497	-0.590963	-0.359160	-0.007291	-0.005347	-0.960938	-0.150879	-0.703369	0.093154	0.008690	0.010752	-0.766365	-0.080533	0.616270	-0.162511	-18.672267	-76.108264	38.611858
32904		9.448322	0.744190	0.813150	0.768827	1.849143	-0.513473	-0.415339	0.025733	-0.021039	-0.968018	-0.134277	-0.709229	0.094485	0.007449	0.008104	-0.766613	-0.078932	0.616517	-0.161186	-18.874308	-76.097390	38.571637
32905		9.649360	0.536424	0.635869	1.048272	1.745896	-0.344045	-0.463521	0.091719	-0.030940	-0.964844	-0.134766	-0.708984	0.096497	0.005364	0.006302	-0.767086	-0.077130	0.616542	-0.159704	-19.031561	-76.052752	38.457795
32906		9.877874	0.234629	0.860869	0.996611	1.431685	-0.049206	-0.434197	0.105089	-0.024635	-0.952881	-0.124023	-0.704590	0.098784	0.002353	0.008552	-0.767581	-0.075403	0.616492	-0.158336	-19.176753	-75.999645	38.347845
32907		10.049430	0.043689	1.285852	0.711654	1.153593	0.227687	-0.423780	0.135234	-0.015447	-0.955811	-0.136963	-0.711426	0.100503	0.000456	0.012790	-0.768154	-0.073669	0.616319	-0.157049	-19.311968	-75.928731	38.234393
32908		10.203782	-0.152719	1.604895	0.521075	0.904378	0.464800	-0.458429	0.114523	-0.007988	-0.965332	-0.128906	-0.708008	0.102047	-0.001495	0.015994	-0.768665	-0.071789	0.616251	-0.155672	-19.499602	-75.867497	38.153825
32909		10.290176	-0.487950	1.857307	0.419622	0.536360	0.632964	-0.450783	0.087785	-0.004483	-0.959961	-0.117920	-0.718994	0.102910	-0.004840	0.018539	-0.769084	-0.069957	0.616279	-0.154327	-19.708814	-75.820334	38.101102
32910		10.119015	-0.871719	2.093742	0.294441	0.089137	0.552807	-0.426077	0.088469	-0.006141	-0.962891	-0.125000	-0.716309	0.101199	-0.008676	0.020911	-0.769494	-0.068215	0.616281	-0.153047	-19.900728	-75.772925	38.044035
32911		9.924767	-1.252667	1.929654	0.528106	-0.243347	0.358627	-0.400269	0.001813	-0.010254	-0.954102	-0.110840	-0.718506	0.099247	-0.012493	0.019321	-0.769628	-0.066659	0.616592	-0.151802	-20.134295	-75.773251	38.046001
32912		9.591278	-1.422226	1.302317	1.089911	-0.269798	-0.094115	-0.294165	-0.081042	-0.022464	-0.953613	-0.108643	-0.716309	0.095906	-0.014214	0.013083	-0.769478	-0.065604	0.617136	-0.150807	-20.347293	-75.820310	38.088646
32913		9.568035	-1.192618	0.881231	1.391488	0.062556	-0.231141	-0.123619	-0.140169	-0.009515	-0.956055	-0.108154	-0.716553	0.095674	-0.011925	0.008887	-0.769078	-0.065214	0.617782	-0.150370	-20.536963	-75.896704	38.208503
32914		9.857864	-0.699565	1.061153	1.112343	0.518743	0.050705	0.032436	-0.122508	0.011287	-0.961914	-0.110352	-0.718262	0.098573	-0.006992	0.010671	-0.768667	-0.065342	0.618249	-0.150499	-20.669988	-75.959130	38.361594
32915		10.230295	-0.069277	1.633260	0.447621	1.006330	0.488682	0.125480	-0.002433	0.011182	-0.961670	-0.107666	-0.709229	0.102303	-0.000697	0.016333	-0.768594	-0.065743	0.618185	-0.150956	-20.652013	-75.957437	38.414536
32916		10.443731	0.393628	2.068930	-0.056991	1.352560	0.754916	0.144129	0.113699	0.011255	-0.967529	-0.109375	-0.713867	0.104449	0.003927	0.020633	-0.768876	-0.066123	0.617659	-0.151508	-20.531041	-75.893187	38.371748
32917		10.732422	0.458396	2.774563	-0.658711	1.256792	1.190935	0.151589	0.260113	-0.026862	-0.958740	-0.112549	-0.711914	0.107361	0.004549	0.027609	-0.769633	-0.066543	0.616553	-0.151985	-20.209396	-75.758201	38.126973
32918		10.804825	0.336822	3.720365	-1.452110	0.879387	1.492919	0.132250	0.307455	-0.099017	-0.958984	-0.118408	-0.717041	0.108107	0.003290	0.037040	-0.770597	-0.067070	0.615252	-0.152139	-19.717471	-75.611068	37.694275
32919		11.080073	-0.026043	4.176333	-1.676189	0.436565	1.900988	0.044965	0.141304	-0.202195	-0.951172	-0.112305	-0.716797	0.110830	-0.000382	0.041685	-0.771154	-0.067711	0.614623	-0.151574	-19.188555	-75.572779	37.172374
32920		11.759404	-0.614273	4.068797	-1.245839	-0.014655	2.583422	0.040954	-0.134368	-0.321830	-0.960449	-0.112549	-0.719238	0.117557	-0.006340	0.040766	-0.770957	-0.068906	0.615017	-0.150439	-18.609601	-75.704536	36.595753
32921		12.452145	-1.306791	3.553423	-0.437131	-0.471767	3.186397	0.012134	-0.505652	-0.396627	-0.967773	-0.121094	-0.709717	0.124405	-0.013317	0.035848	-0.769677	-0.070504	0.616835	-0.148798	-18.136010	-76.050626	36.111792
32922		12.854200	-1.752407	2.497703	0.687751	-0.602503	3.366936	-0.058607	-0.910278	-0.381191	-0.956787	-0.123535	-0.706787	0.128393	-0.017761	0.025567	-0.767151	-0.072077	0.620256	-0.146853	-18.011014	-76.613487	35.945394
32923		12.863213	-1.298115	1.882276	1.010820	-0.073589	3.212728	0.041516	-1.039432	-0.336376	-0.968018	-0.126709	-0.700195	0.128510	-0.013201	0.019488	-0.764134	-0.073993	0.624100	-0.145341	-18.020819	-77.238989	35.977244
32924		12.409622	-0.019360	2.346320	-0.009570	0.867533	2.786936	0.110900	-0.865541	-0.256464	-0.975586	-0.127930	-0.691162	0.123993	-0.000366	0.024000	-0.761557	-0.075791	0.627242	-0.144410	-18.052083	-77.755325	36.071164
32925		11.601749	0.332974	2.899997	-0.857884	0.882824	2.087125	0.006314	-0.664154	-0.151037	-0.984131	-0.127930	-0.682129	0.115923	0.003241	0.029385	-0.759563	-0.076718	0.629722	-0.143627	-18.250519	-78.143306	36.274939
32926		10.734621	0.293869	3.081709	-1.218936	0.652617	1.273493	0.022151	-0.495597	-0.095677	-0.979248	-0.127686	-0.674072	0.107271	0.002884	0.031083	-0.758047	-0.077405	0.631567	-0.143167	-18.452549	-78.429335	36.491048
32927		9.986845	0.471995	3.209716	-1.553744	0.669986	0.550663	0.085406	-0.307401	-0.096700	-0.989014	-0.125732	-0.672607	0.099821	0.004658	0.032253	-0.757098	-0.078203	0.632650	-0.142975	-18.452914	-78.613395	36.538456
32928		9.180135	0.593305	3.132683	-1.664999	0.697240	-0.263749	-0.039716	-0.104497	-0.114033	-0.989502	-0.126953	-0.681152	0.091788	0.005887	0.031374	-0.756851	-0.078434	0.633046	-0.142401	-18.296275	-78.690062	36.352309
32929		8.515855	0.036335	2.785000	-1.268611	0.191507	-0.945260	-0.304316	0.088832	-0.132468	-0.981445	-0.123047	-0.669922	0.085171	0.000349	0.027812	-0.757331	-0.077586	0.632891	-0.140993	-18.065131	-78.664777	35.935622
32930		8.038263	-0.987714	2.387408	-0.640847	-0.713547	-1.424058	-0.494835	0.269890	-0.155617	-0.974365	-0.124512	-0.683838	0.080407	-0.009881	0.023790	-0.758471	-0.075960	0.632171	-0.138966	-17.727319	-78.544326	35.298622
32931		7.973437	-1.877966	2.558341	-0.516772	-1.610349	-1.399173	-0.512764	0.459748	-0.208666	-0.980225	-0.123535	-0.686768	0.079773	-0.018798	0.025448	-0.760247	-0.074302	0.630717	-0.136750	-17.111335	-78.328166	34.366809
32932		8.221499	-2.420188	3.108928	-0.798286	-2.251925	-1.014547	-0.427010	0.505035	-0.295713	-0.975830	-0.123047	-0.688965	0.082257	-0.024257	0.030933	-0.762182	-0.073212	0.628992	-0.134490	-16.214817	-78.098971	33.197878
32933		8.646121	-2.673190	3.533416	-1.022056	-2.569711	-0.499346	-0.381689	0.298803	-0.354803	-0.980713	-0.112305	-0.695313	0.086466	-0.026818	0.035256	-0.763485	-0.072620	0.627993	-0.132070	-15.322222	-77.989006	32.058919
32934		8.976217	-2.643073	3.578362	-1.002628	-2.536170	-0.172901	-0.254692	0.063957	-0.420647	-0.979980	-0.116211	-0.686035	0.089718	-0.026574	0.035789	-0.764041	-0.072872	0.627779	-0.129712	-14.361599	-78.014974	30.924476
32935		9.166051	-2.555591	3.336135	-0.771991	-2.397964	-0.048929	-0.245414	-0.183076	-0.427128	-0.982178	-0.115234	-0.686035	0.091575	-0.025711	0.033477	-0.763818	-0.073338	0.628496	-0.127266	-13.529255	-78.175522	29.926686
32936		9.028907	-2.795774	2.640544	-0.095681	-2.489331	-0.320382	-0.194721	-0.333581	-0.362316	-0.971924	-0.131592	-0.691650	0.090194	-0.028095	0.026583	-0.763056	-0.073891	0.629776	-0.125172	-12.911239	-78.408903	29.178426
32937		9.017665	-2.921645	2.267847	0.262361	-2.544682	-0.407739	-0.020542	-0.324868	-0.277137	-0.995117	-0.126221	-0.695068	0.090099	-0.029339	0.022828	-0.762201	-0.074835	0.630939	-0.123954	-12.395446	-78.625105	28.636969
32938		9.145070	-2.808569	2.235643	0.263693	-2.443416	-0.300664	0.165251	-0.244675	-0.174514	-0.987305	-0.129150	-0.685303	0.091399	-0.028184	0.022445	-0.761462	-0.076112	0.631720	-0.123743	-11.995620	-78.783209	28.322624
32939		9.017532	-2.235146	2.314695	-0.001544	-1.945836	-0.438079	0.309499	-0.083507	-0.078129	-0.982666	-0.131348	-0.695068	0.090157	-0.022422	0.023150	-0.761117	-0.077535	0.631831	-0.124415	-11.681951	-78.839069	28.180521
32940		8.736711	-1.311207	2.176535	-0.179642	-1.056877	-0.777345	0.317189	0.035148	0.016178	-0.977051	-0.134766	-0.685303	0.087372	-0.013139	0.021729	-0.761082	-0.078614	0.631522	-0.125517	-11.561902	-78.817497	28.240227
32941		8.701605	-0.664719	1.826832	-0.038742	-0.342096	-0.903222	0.191331	0.039626	0.099432	-0.982422	-0.131836	-0.687744	0.087023	-0.006621	0.018245	-0.761058	-0.078949	0.631305	-0.126539	-11.746590	-78.783579	28.537090
32942		8.902067	-0.166038	1.584040	0.082599	0.230624	-0.772581	0.132885	0.103304	0.119507	-0.980225	-0.127686	-0.687500	0.089030	-0.001618	0.015793	-0.761243	-0.078958	0.630891	-0.127479	-11.982108	-78.711570	28.851680
32943		9.252752	0.041413	1.652007	0.027894	0.456641	-0.424667	0.010649	0.192465	0.109773	-0.978027	-0.130859	-0.682617	0.092543	0.000464	0.016431	-0.761764	-0.078474	0.630211	-0.128030	-12.202660	-78.590360	29.079578
32944		9.450265	0.023594	1.905247	-0.151121	0.404849	-0.181945	-0.124522	0.312564	0.074976	-0.979004	-0.124268	-0.689209	0.094532	0.000283	0.018905	-0.762736	-0.077509	0.629145	-0.128070	-12.328607	-78.406183	29.132123
32945		9.296581	-0.246169	2.061942	-0.220218	0.106395	-0.290150	-0.230743	0.329225	0.028291	-0.972656	-0.132813	-0.698730	0.093000	-0.002425	0.020469	-0.763831	-0.076275	0.628063	-0.127603	-12.376565	-78.218230	29.042885
32946		9.195198	-0.381247	1.939509	-0.059496	0.015394	-0.407642	-0.250961	0.273672	-0.016687	-0.970703	-0.121826	-0.701416	0.091978	-0.003796	0.019274	-0.764783	-0.075139	0.627187	-0.126880	-12.350255	-78.067047	28.865896
32947		9.251381	-0.593132	1.941324	0.030592	-0.172991	-0.342856	-0.295367	0.233043	-0.060589	-0.977539	-0.114014	-0.701904	0.092535	-0.005931	0.019314	-0.765650	-0.073998	0.626474	-0.125834	-12.259275	-77.943749	28.596690
32948		9.203526	-0.878151	1.800046	0.256897	-0.406079	-0.406027	-0.282625	0.280915	-0.079691	-0.970947	-0.120117	-0.701660	0.092057	-0.008793	0.017884	-0.766671	-0.072934	0.625562	-0.124773	-12.089190	-77.796002	28.253908
32949		8.954450	-1.007230	1.723690	0.344519	-0.528590	-0.660113	-0.240513	0.347393	-0.086981	-0.975830	-0.117432	-0.710693	0.089570	-0.010091	0.017093	-0.767887	-0.072012	0.624363	-0.123837	-11.846780	-77.611428	27.861385
32950		8.631381	-1.047455	1.573313	0.464948	-0.553772	-1.006422	-0.238445	0.374430	-0.082306	-0.966797	-0.124023	-0.720703	0.086339	-0.010491	0.015584	-0.769178	-0.071067	0.623058	-0.122936	-11.610704	-77.410969	27.476471
32951		8.326711	-1.046116	1.389183	0.605358	-0.528889	-1.344389	-0.265497	0.321815	-0.068149	-0.964355	-0.114014	-0.713623	0.083286	-0.010471	0.013772	-0.770304	-0.070006	0.621973	-0.121986	-11.460690	-77.237971	27.163559
32952		8.253501	-1.104498	1.346208	0.667788	-0.575461	-1.423685	-0.313600	0.262506	-0.052394	-0.963867	-0.114014	-0.722168	0.082550	-0.011046	0.013371	-0.771248	-0.068746	0.621150	-0.120926	-11.412133	-77.096546	26.926284
32953		8.262050	-1.310953	1.456063	0.637346	-0.795246	-1.382887	-0.346879	0.226199	-0.044080	-0.964844	-0.110107	-0.725342	0.082634	-0.013103	0.014490	-0.772084	-0.067353	0.620486	-0.119781	-11.423362	-76.974394	26.730524
32954		8.383449	-1.409010	1.644323	0.522426	-0.918699	-1.218830	-0.359257	0.197986	-0.044309	-0.958984	-0.110352	-0.728271	0.083848	-0.014079	0.016386	-0.772832	-0.065931	0.619936	-0.118587	-11.456532	-76.868288	26.550062
32955		8.617498	-1.613035	1.722193	0.559059	-1.105401	-0.964262	-0.366659	0.155108	-0.053148	-0.957764	-0.112061	-0.727051	0.086184	-0.016122	0.017185	-0.773452	-0.064531	0.619551	-0.117321	-11.494713	-76.787130	26.370164
32956		8.876567	-1.892554	1.556259	0.846478	-1.304077	-0.736344	-0.340900	0.117137	-0.048148	-0.961426	-0.108887	-0.730225	0.088770	-0.018920	0.015543	-0.773940	-0.063239	0.619297	-0.116142	-11.549137	-76.726911	26.222220
32957		9.098568	-2.018688	1.383806	1.090831	-1.359293	-0.553293	-0.284913	0.106903	-0.048582	-0.947754	-0.101563	-0.731934	0.090988	-0.020189	0.013818	-0.774377	-0.062170	0.619048	-0.115132	-11.576109	-76.672368	26.079054
32958		9.229519	-2.144687	1.298529	1.233604	-1.445910	-0.439457	-0.227209	0.085408	-0.036732	-0.961182	-0.105957	-0.729492	0.092297	-0.021449	0.012970	-0.774720	-0.061301	0.618851	-0.114339	-11.608670	-76.628685	25.975524
32959		9.204669	-2.234177	1.089935	1.449743	-1.484143	-0.506722	-0.180318	0.057591	-0.019703	-0.953369	-0.100586	-0.742920	0.092048	-0.022341	0.010893	-0.774953	-0.060575	0.618740	-0.113749	-11.668734	-76.598530	25.927798
32960		9.052315	-2.191186	0.877842	1.607666	-1.406372	-0.704788	-0.108135	0.028035	0.003607	-0.963379	-0.102295	-0.735596	0.090525	-0.021905	0.008778	-0.775059	-0.060074	0.618709	-0.113462	-11.756069	-76.582393	25.950688
32961		8.947162	-2.116259	0.722084	1.713419	-1.305473	-0.845436	-0.040995	0.009237	0.021372	-0.960938	-0.102051	-0.735107	0.089474	-0.021152	0.007221	-0.775076	-0.059788	0.618719	-0.113448	-11.856673	-76.574597	26.026653
32962		8.956489	-1.975190	0.693528	1.705300	-1.158277	-0.848794	0.026193	-0.024039	0.031723	-0.950928	-0.105713	-0.740479	0.089567	-0.019739	0.006943	-0.774964	-0.059750	0.618822	-0.113670	-11.958654	-76.584312	26.143726
32963		9.034485	-1.735169	0.809670	1.546597	-0.943142	-0.756926	0.081055	-0.091917	0.026881	-0.954102	-0.103516	-0.728271	0.090343	-0.017343	0.008131	-0.774627	-0.059978	0.619155	-0.114026	-12.053227	-76.632534	26.285521
32964		9.233417	-1.371351	0.821092	1.473605	-0.574646	-0.576399	0.097219	-0.196113	0.010958	-0.960938	-0.102539	-0.730957	0.092327	-0.013712	0.008295	-0.773972	-0.060378	0.619878	-0.114336	-12.153805	-76.741050	26.442919
32965		9.569521	-1.060728	0.717565	1.540059	-0.220484	-0.284030	0.070622	-0.305566	-0.002945	-0.958008	-0.104492	-0.725098	0.095684	-0.010611	0.007318	-0.772992	-0.060779	0.621034	-0.114479	-12.297128	-76.912446	26.628539
