// General information: 
//  MT Manager version: 2019.2.0 
//  XDA version: 2019.2.0 build 3853 rev 94535 built on 2019-09-09
// Device information: 
//  DeviceId: 00B47786
//  ProductCode: MTW2-3A7G6
//  Firmware Version: 4.6.0
//  Hardware Version: 2.0.0
// Device settings: 
//  Filter Profile: human(46.1)
//  Option Flags: Orientation Smoother Disabled, AHS Disabled, ICC Disabled
// Coordinate system: ENU
PacketCounter	SampleTimeFine	Acc_X	Acc_Y	Acc_Z	FreeAcc_E	FreeAcc_N	FreeAcc_U	Gyr_X	Gyr_Y	Gyr_Z	Mag_X	Mag_Y	Mag_Z	VelInc_X	VelInc_Y	VelInc_Z	Quat_q0	Quat_q1	Quat_q2	Quat_q3	Roll	Pitch	Yaw
32423		9.446125	1.312619	-1.392556	0.240124	0.122046	-0.178431	-0.017016	0.016178	0.015377	-0.821045	-0.022949	0.478271	0.094459	0.013132	-0.013934	0.015606	-0.754178	-0.129352	-0.643615	140.107828	-77.119611	51.733579
32424		9.484214	1.355088	-1.536473	0.115189	0.058153	-0.110591	-0.018299	0.007843	0.015516	-0.813232	-0.010742	0.481201	0.094840	0.013557	-0.015370	0.015616	-0.754196	-0.129199	-0.643624	140.145135	-77.128583	51.684431
32425		9.478507	1.295774	-1.624413	0.016823	0.095878	-0.109576	-0.018400	0.005914	0.012304	-0.816650	-0.014404	0.479248	0.094784	0.012962	-0.016248	0.015617	-0.754216	-0.129065	-0.643627	140.178036	-77.135572	51.640475
32426		9.527945	1.318944	-1.743500	-0.085921	0.058143	-0.037700	-0.007858	0.000227	0.004952	-0.818115	-0.014893	0.481934	0.095279	0.013191	-0.017436	0.015627	-0.754251	-0.128986	-0.643602	140.213289	-77.137304	51.599572
32427		9.516581	1.338433	-1.768652	-0.107199	0.031294	-0.041690	0.002152	0.010831	0.005684	-0.821045	-0.011719	0.485107	0.095164	0.013387	-0.017692	0.015689	-0.754250	-0.128943	-0.643611	140.237899	-77.144058	51.576529
32428		9.539167	1.362493	-1.758667	-0.089046	0.012370	-0.017948	0.006813	0.008292	0.005882	-0.815918	-0.009033	0.475586	0.095391	0.013628	-0.017590	0.015763	-0.754258	-0.128908	-0.643606	140.270448	-77.149674	51.547024
32429		9.527944	1.381690	-1.783343	-0.110320	-0.014517	-0.021941	0.007877	0.015734	0.007056	-0.811768	-0.015625	0.478027	0.095278	0.013821	-0.017840	0.015860	-0.754240	-0.128881	-0.643630	140.293865	-77.159245	51.529249
32430		9.494821	1.400297	-1.752030	-0.080981	-0.033939	-0.056953	0.001242	0.015353	0.004258	-0.822754	-0.012451	0.478760	0.094947	0.014005	-0.017527	0.015912	-0.754226	-0.128833	-0.643656	140.308796	-77.167374	51.514541
32431		9.512308	1.414221	-1.700517	-0.026492	-0.036072	-0.046738	-0.006639	0.019634	0.005870	-0.825439	-0.011719	0.485840	0.095121	0.014144	-0.017015	0.015948	-0.754196	-0.128761	-0.643704	140.314444	-77.178140	51.505809
32432		9.524234	1.393823	-1.672812	-0.003384	-0.010611	-0.042736	-0.018805	0.018214	0.008119	-0.811035	-0.010254	0.484131	0.095240	0.013941	-0.016738	0.015938	-0.754176	-0.128634	-0.643753	140.320808	-77.188942	51.488111
32433		9.497032	1.358565	-1.639317	0.016706	0.023718	-0.079967	-0.022894	0.017461	0.004107	-0.815186	-0.007080	0.485352	0.094969	0.013586	-0.016403	0.015909	-0.754155	-0.128518	-0.643802	140.318739	-77.197944	51.478129
32434		9.520341	1.318703	-1.585976	0.061995	0.075334	-0.071965	-0.017800	0.016712	0.001683	-0.817627	-0.017090	0.476563	0.095202	0.013186	-0.015869	0.015881	-0.754135	-0.128418	-0.643845	140.315628	-77.205730	51.470738
32435		9.492485	1.360613	-1.562723	0.088826	0.033717	-0.097152	-0.022420	0.012239	-0.002918	-0.816162	-0.009521	0.485107	0.094924	0.013603	-0.015635	0.015826	-0.754126	-0.128329	-0.643875	140.307969	-77.209933	51.466592
32436		9.487184	1.338964	-1.553129	0.092223	0.055222	-0.107012	-0.021077	0.009509	-0.004118	-0.814453	-0.015381	0.480469	0.094871	0.013386	-0.015537	0.015763	-0.754126	-0.128242	-0.643894	140.303325	-77.212421	51.458849
32437		9.503847	1.318257	-1.599342	0.045061	0.069291	-0.085819	-0.017639	0.008666	-0.007241	-0.813721	-0.013672	0.484375	0.095038	0.013178	-0.015999	0.015709	-0.754126	-0.128185	-0.643907	140.296074	-77.213358	51.456992
32438		9.520766	1.321547	-1.581047	0.065701	0.072546	-0.071968	-0.018390	0.004049	-0.006519	-0.815186	-0.023926	0.491455	0.095208	0.013211	-0.015814	0.015645	-0.754142	-0.128115	-0.643903	140.297110	-77.212561	51.445002
32439		9.520396	1.298597	-1.645468	-0.001136	0.082727	-0.064610	-0.010505	-0.000232	-0.008128	-0.821289	-0.011475	0.479004	0.095205	0.012981	-0.016455	0.015601	-0.754172	-0.128080	-0.643877	140.306157	-77.208840	51.429546
32440		9.559345	1.314828	-1.651081	0.002853	0.073130	-0.023378	-0.004972	0.000812	-0.013173	-0.818359	-0.022705	0.473633	0.095594	0.013142	-0.016512	0.015564	-0.754193	-0.128079	-0.643853	140.307172	-77.204180	51.425462
32441		9.525613	1.335385	-1.621334	0.032070	0.053745	-0.058439	-0.000622	-0.004553	-0.014872	-0.816650	-0.017578	0.478027	0.095257	0.013347	-0.016211	0.015538	-0.754226	-0.128105	-0.643809	140.313993	-77.196741	51.418685
32442		9.485904	1.410287	-1.593248	0.070604	-0.019418	-0.091352	0.002674	-0.000309	-0.016806	-0.815186	-0.010742	0.481201	0.094860	0.014095	-0.015932	0.015517	-0.754248	-0.128142	-0.643777	140.314139	-77.190257	51.419983
32443		9.502381	1.402206	-1.608551	0.057319	-0.010758	-0.073823	0.004258	-0.006197	-0.015983	-0.816162	-0.012695	0.478027	0.095025	0.014015	-0.016082	0.015508	-0.754287	-0.128189	-0.643722	140.325612	-77.181566	51.411659
32444		9.473778	1.433358	-1.619893	0.050232	-0.046952	-0.095367	-0.004929	-0.006201	-0.017576	-0.812012	-0.013184	0.479492	0.094740	0.014325	-0.016196	0.015452	-0.754328	-0.128205	-0.643672	140.329372	-77.172202	51.404782
32445		9.512958	1.361516	-1.648672	0.013538	0.024805	-0.062435	0.002910	-0.003465	-0.014784	-0.824951	-0.010254	0.484131	0.095131	0.013608	-0.016485	0.015444	-0.754360	-0.128244	-0.643628	140.338230	-77.165196	51.398535
32446		9.512553	1.350880	-1.681487	-0.019433	0.029518	-0.058730	0.008777	-0.003648	-0.014594	-0.822998	-0.012207	0.481934	0.095127	0.013503	-0.016813	0.015451	-0.754393	-0.128293	-0.643578	140.351498	-77.158047	51.389961
32447		9.512005	1.328314	-1.746675	-0.086337	0.039610	-0.051309	0.016952	-0.001045	-0.017640	-0.813721	-0.013672	0.487549	0.095121	0.013276	-0.017465	0.015492	-0.754413	-0.128390	-0.643535	140.359146	-77.151192	51.393653
32448		9.505600	1.371948	-1.781089	-0.110068	-0.009437	-0.045460	0.023490	-0.002590	-0.018051	-0.817871	-0.016846	0.476318	0.095057	0.013713	-0.017808	0.015545	-0.754440	-0.128499	-0.643481	140.372442	-77.143247	51.393696
32449		9.494226	1.429052	-1.710098	-0.029657	-0.052490	-0.060594	0.024689	-0.000231	-0.018064	-0.817627	-0.013428	0.481201	0.094944	0.014284	-0.017099	0.015607	-0.754457	-0.128618	-0.643435	140.382060	-77.136324	51.399104
32450		9.538264	1.456055	-1.756710	-0.061998	-0.078915	-0.005825	0.008963	0.001304	-0.019245	-0.817139	-0.011230	0.486816	0.095384	0.014552	-0.017567	0.015604	-0.754472	-0.128685	-0.643404	140.378490	-77.129661	51.407912
32451		9.515762	1.433096	-1.765617	-0.078331	-0.061345	-0.029488	-0.002242	0.005385	-0.019037	-0.814941	-0.014648	0.478271	0.095159	0.014322	-0.017659	0.015569	-0.754473	-0.128723	-0.643396	140.362535	-77.124913	51.424190
32452		9.533044	1.348562	-1.770199	-0.098335	0.023277	-0.023870	-0.001905	0.004157	-0.013800	-0.812988	-0.020508	0.479980	0.095331	0.013479	-0.017704	0.015544	-0.754483	-0.128734	-0.643383	140.358702	-77.121499	51.426879
32453		9.477083	1.344557	-1.749013	-0.086387	0.022211	-0.082630	-0.008327	0.004669	-0.017915	-0.802490	-0.013184	0.487549	0.094772	0.013436	-0.017493	0.015483	-0.754487	-0.128745	-0.643378	140.341167	-77.116797	51.440396
32454		9.527534	1.341644	-1.728363	-0.060150	0.038717	-0.037411	0.000830	0.008739	-0.019662	-0.809082	-0.028076	0.483398	0.095276	0.013407	-0.017288	0.015452	-0.754478	-0.128786	-0.643381	140.320282	-77.113259	51.462185
32455		9.522052	1.321216	-1.719279	-0.056708	0.060312	-0.047230	0.011332	0.010082	-0.022608	-0.799316	-0.018311	0.485596	0.095221	0.013202	-0.017197	0.015449	-0.754464	-0.128874	-0.643380	140.297331	-77.108705	51.492107
32456		9.482188	1.384477	-1.722544	-0.052131	-0.007412	-0.076515	0.018396	0.012264	-0.022431	-0.811768	-0.017822	0.493164	0.094822	0.013836	-0.017230	0.015478	-0.754440	-0.128982	-0.643385	140.275566	-77.105703	51.525125
32457		9.407138	1.459801	-1.932884	-0.249660	-0.131830	-0.102816	0.025415	0.005506	-0.029867	-0.803711	-0.034424	0.482422	0.094073	0.014586	-0.019330	0.015504	-0.754436	-0.129144	-0.643357	140.255154	-77.096415	51.561100
32458		9.025613	1.805993	-2.262868	-0.545085	-0.592738	-0.368355	0.009272	-0.040772	-0.045646	-0.800781	-0.025879	0.497559	0.090265	0.018040	-0.022609	0.015389	-0.754569	-0.129315	-0.643169	140.268332	-77.061540	51.552907
32459		8.827864	1.376926	-2.770146	-1.149497	-0.304417	-0.534390	0.039378	-0.074069	-0.055043	-0.805176	-0.027588	0.498779	0.088293	0.013750	-0.027666	0.015324	-0.754804	-0.129616	-0.642834	140.332555	-77.007672	51.508650
32460		8.917391	1.679214	-2.705676	-1.000658	-0.563243	-0.413659	0.056048	-0.104135	-0.057797	-0.796631	-0.032959	0.496826	0.089193	0.016774	-0.027006	0.015306	-0.755129	-0.129987	-0.642378	140.448990	-76.940384	51.421977
32461		9.154223	1.781099	-2.588471	-0.820673	-0.590907	-0.187221	0.060294	-0.121349	-0.074884	-0.797852	-0.026367	0.497803	0.091565	0.017785	-0.025824	0.015232	-0.755499	-0.130437	-0.641853	140.561241	-76.858706	51.341479
32462		9.501905	1.752521	-2.184217	-0.375490	-0.416553	0.077399	0.034717	-0.112504	-0.077175	-0.793945	-0.030029	0.500244	0.095038	0.017492	-0.021786	0.015065	-0.755839	-0.130813	-0.641380	140.639739	-76.780593	51.281163
32463		9.743852	1.687377	-1.874770	-0.046260	-0.243513	0.249281	0.023911	-0.090685	-0.067585	-0.794922	-0.035889	0.500488	0.097453	0.016843	-0.018702	0.014903	-0.756116	-0.131118	-0.640995	140.695737	-76.715483	51.237653
32464		9.759160	1.744483	-1.735996	0.109998	-0.261995	0.247996	-0.024341	-0.073664	-0.063510	-0.791260	-0.040527	0.504150	0.097604	0.017412	-0.017326	0.014582	-0.756344	-0.131251	-0.640706	140.705256	-76.659527	51.213415
32465		9.514571	1.424562	-1.766284	-0.018212	0.003831	-0.031285	-0.035241	-0.063828	-0.053637	-0.785400	-0.039551	0.505859	0.095155	0.014217	-0.017635	0.014256	-0.756549	-0.131309	-0.640460	140.711656	-76.611411	51.185518
32466		9.435264	1.286538	-1.846977	-0.132011	0.113350	-0.114212	-0.018762	-0.064721	-0.049910	-0.794434	-0.028564	0.504395	0.094362	0.012840	-0.018440	0.014006	-0.756756	-0.131407	-0.640200	140.735787	-76.564352	51.149536
32467		9.296764	1.384110	-1.904721	-0.180700	-0.010840	-0.224112	-0.001531	-0.070953	-0.059069	-0.789795	-0.040771	0.506104	0.092978	0.013813	-0.019014	0.013786	-0.756977	-0.131595	-0.639905	140.761925	-76.511112	51.121438
32468		9.265139	1.395176	-1.987458	-0.255649	-0.036122	-0.238105	0.027444	-0.084485	-0.072317	-0.783691	-0.038818	0.502197	0.092665	0.013921	-0.019834	0.013626	-0.757230	-0.131927	-0.639541	140.800455	-76.447155	51.097858
32469		9.441024	1.524209	-1.914454	-0.123109	-0.107313	-0.061042	0.056341	-0.083994	-0.076769	-0.786377	-0.043457	0.509766	0.094424	0.015211	-0.019101	0.013559	-0.757476	-0.132366	-0.639159	140.846206	-76.381697	51.083414
32470		9.446128	1.752523	-1.895542	-0.045843	-0.315280	-0.025336	0.040714	-0.087589	-0.079087	-0.782227	-0.041260	0.509033	0.094476	0.017492	-0.018910	0.013425	-0.757733	-0.132767	-0.638775	140.883957	-76.313903	51.068446
32471		9.478833	1.687699	-1.859626	-0.012142	-0.232156	-0.009588	0.022915	-0.085065	-0.070515	-0.779297	-0.051758	0.511230	0.094802	0.016846	-0.018554	0.013250	-0.757989	-0.133075	-0.638411	140.923002	-76.250213	51.041003
32472		9.466363	1.776214	-2.009217	-0.130812	-0.340904	0.019432	0.005475	-0.086730	-0.064438	-0.780273	-0.033203	0.516846	0.094678	0.017732	-0.020051	0.013030	-0.758255	-0.133307	-0.638051	140.965348	-76.188085	51.000507
32473		9.338158	1.602682	-2.004083	-0.175133	-0.188706	-0.131787	-0.023856	-0.092987	-0.069626	-0.782471	-0.041260	0.512451	0.093396	0.015992	-0.019999	0.012674	-0.758539	-0.133462	-0.637688	140.990193	-76.121173	50.960023
32474		9.438800	1.399548	-2.082937	-0.272415	0.018566	-0.049812	-0.006928	-0.089082	-0.060841	-0.783203	-0.046387	0.511963	0.094402	0.013966	-0.020788	0.012417	-0.758815	-0.133641	-0.637327	141.034649	-76.059283	50.910010
32475		9.451493	1.609643	-1.964544	-0.102705	-0.151918	-0.027624	-0.003105	-0.082112	-0.066768	-0.779541	-0.048340	0.509277	0.094528	0.016065	-0.019607	0.012157	-0.759065	-0.133851	-0.636990	141.060087	-75.998232	50.881232
32476		9.517371	1.501563	-2.022784	-0.164979	-0.039309	0.030987	0.001788	-0.080747	-0.060182	-0.781982	-0.047363	0.523926	0.095186	0.014987	-0.020189	0.011941	-0.759314	-0.134055	-0.636655	141.097982	-75.940280	50.843103
32477		9.374428	1.775887	-2.036324	-0.132576	-0.326267	-0.063008	0.004881	-0.078388	-0.065383	-0.779053	-0.057129	0.521729	0.093758	0.017729	-0.020326	0.011717	-0.759552	-0.134284	-0.636326	141.124599	-75.881370	50.817577
32478		9.350551	1.656170	-2.107017	-0.223469	-0.221745	-0.090748	-0.009803	-0.079545	-0.061809	-0.776611	-0.049072	0.516357	0.093519	0.016532	-0.021034	0.011452	-0.759796	-0.134457	-0.636003	141.150706	-75.823360	50.784737
32479		9.425367	1.693171	-2.127192	-0.216142	-0.240429	-0.008362	0.002163	-0.075954	-0.055107	-0.775146	-0.047852	0.521973	0.094266	0.016906	-0.021236	0.011250	-0.760034	-0.134636	-0.635685	141.189965	-75.769205	50.744268
32480		9.483413	1.575831	-2.070701	-0.171816	-0.099676	0.019235	-0.011730	-0.066552	-0.052363	-0.780273	-0.040771	0.518555	0.094845	0.015732	-0.020676	0.011017	-0.760243	-0.134766	-0.635412	141.212705	-75.720380	50.713747
32481		9.493611	1.599884	-2.231437	-0.313776	-0.145274	0.063953	0.003226	-0.062534	-0.054075	-0.771973	-0.049561	0.522217	0.094947	0.015974	-0.022284	0.010835	-0.760438	-0.134947	-0.635143	141.235065	-75.672588	50.691882
32482		9.324330	1.561388	-2.236583	-0.347935	-0.135968	-0.104762	0.015848	-0.057270	-0.055866	-0.764648	-0.047363	0.525879	0.093254	0.015590	-0.022338	0.010702	-0.760613	-0.135178	-0.634886	141.254127	-75.626648	50.681454
32483		9.311774	1.672490	-2.319113	-0.398862	-0.255517	-0.083337	0.021720	-0.067388	-0.052294	-0.771973	-0.044434	0.526611	0.093130	0.016703	-0.023158	0.010590	-0.760823	-0.135409	-0.634587	141.296649	-75.577303	50.649359
32484		9.284379	1.665619	-2.228436	-0.311175	-0.231930	-0.128201	0.026860	-0.056142	-0.055023	-0.769531	-0.053223	0.529785	0.092855	0.016634	-0.022256	0.010503	-0.760995	-0.135671	-0.634327	141.321645	-75.532166	50.639314
32485		9.387439	1.773482	-2.182791	-0.221189	-0.302107	-0.020159	0.033839	-0.059851	-0.054815	-0.774902	-0.053955	0.522949	0.093886	0.017713	-0.021797	0.010434	-0.761179	-0.135950	-0.634047	141.355908	-75.485271	50.622908
32486		9.443471	1.719773	-2.168067	-0.203978	-0.231941	0.023058	0.020861	-0.053960	-0.046085	-0.770264	-0.057129	0.529785	0.094445	0.017178	-0.021653	0.010353	-0.761349	-0.136159	-0.633799	141.389632	-75.444305	50.600292
32487		9.472620	1.730615	-2.066034	-0.093264	-0.213503	0.033112	0.019425	-0.049210	-0.035787	-0.775635	-0.053223	0.531494	0.094734	0.017291	-0.020635	0.010296	-0.761514	-0.136317	-0.633568	141.433449	-75.408953	50.565203
32488		9.466313	1.710988	-2.062381	-0.089879	-0.191960	0.023321	0.014513	-0.046604	-0.030076	-0.763428	-0.053467	0.534424	0.094671	0.017097	-0.020601	0.010247	-0.761672	-0.136444	-0.633351	141.480642	-75.376991	50.524902
32489		9.451177	1.834058	-2.038023	-0.036727	-0.305626	0.023333	0.003635	-0.046819	-0.032247	-0.771729	-0.054932	0.523193	0.094519	0.018326	-0.020358	0.010142	-0.761832	-0.136539	-0.633140	141.517856	-75.343956	50.487287
32490		9.422355	1.777177	-2.074583	-0.084550	-0.260270	-0.006152	-0.009466	-0.042864	-0.026719	-0.762207	-0.046387	0.531250	0.094230	0.017758	-0.020726	0.010015	-0.761982	-0.136578	-0.632954	141.551629	-75.314854	50.446644
32491		9.429072	1.562160	-2.015740	-0.069861	-0.038327	-0.045160	0.004544	-0.043307	-0.021880	-0.769775	-0.058105	0.529053	0.094297	0.015612	-0.020137	0.009950	-0.762137	-0.136637	-0.632755	141.602017	-75.287075	50.396203
32492		9.340300	1.650925	-2.050610	-0.093441	-0.145250	-0.110011	0.008765	-0.044547	-0.026994	-0.765381	-0.052734	0.528564	0.093410	0.016498	-0.020485	0.009890	-0.762291	-0.136735	-0.632549	141.647709	-75.257103	50.354026
32493		9.318192	1.589922	-2.233531	-0.281670	-0.122502	-0.104399	0.011466	-0.043984	-0.029566	-0.770752	-0.062744	0.533936	0.093189	0.015887	-0.022314	0.009825	-0.762443	-0.136844	-0.632343	141.689476	-75.226258	50.316333
32494		9.366810	1.689567	-2.164503	-0.180801	-0.193062	-0.055287	0.010316	-0.040384	-0.029663	-0.765381	-0.057373	0.528076	0.093675	0.016883	-0.021625	0.009766	-0.762582	-0.136956	-0.632153	141.725575	-75.197196	50.284986
32495		9.377261	1.723140	-2.291069	-0.288865	-0.244049	-0.014308	-0.001279	-0.045215	-0.031090	-0.759521	-0.055908	0.536133	0.093780	0.017217	-0.022890	0.009646	-0.762737	-0.137029	-0.631951	141.758787	-75.165231	50.248320
32496		9.267321	1.624166	-2.272888	-0.306890	-0.163741	-0.139726	-0.001578	-0.042067	-0.033118	-0.764648	-0.051514	0.530762	0.092681	0.016226	-0.022710	0.009529	-0.762880	-0.137117	-0.631762	141.784201	-75.134177	50.220966
32497		9.322567	1.595483	-2.118832	-0.151651	-0.093151	-0.121785	0.017665	-0.042274	-0.032119	-0.757568	-0.062012	0.538086	0.093233	0.015942	-0.021167	0.009481	-0.763024	-0.137256	-0.631558	141.822359	-75.103161	50.190686
32498		9.351016	1.643467	-2.196181	-0.206056	-0.145770	-0.070922	0.037593	-0.036854	-0.027311	-0.762695	-0.051514	0.544434	0.093516	0.016426	-0.021941	0.009536	-0.763152	-0.137445	-0.631362	141.872847	-75.076501	50.160602
32499		9.336239	1.703077	-2.055368	-0.055579	-0.177552	-0.104147	0.045534	-0.029093	-0.029285	-0.762451	-0.057861	0.539795	0.093368	0.017022	-0.020536	0.009611	-0.763255	-0.137658	-0.631189	141.913989	-75.052406	50.143439
32500		9.378341	1.743027	-2.074293	-0.053848	-0.209547	-0.053215	0.047166	-0.027952	-0.024068	-0.767090	-0.047852	0.525879	0.093788	0.017424	-0.020726	0.009718	-0.763357	-0.137865	-0.631019	141.963412	-75.030896	50.120130
32501		9.348141	1.772791	-2.087793	-0.061116	-0.245591	-0.074856	0.048137	-0.025462	-0.018236	-0.763428	-0.056885	0.535400	0.093486	0.017724	-0.020862	0.009843	-0.763456	-0.138046	-0.630858	142.019717	-75.012337	50.089259
32502		9.304209	1.734913	-2.075437	-0.061027	-0.214945	-0.125803	0.046432	-0.024552	-0.014375	-0.761475	-0.055664	0.538330	0.093046	0.017347	-0.020739	0.009980	-0.763553	-0.138214	-0.630702	142.080380	-74.995766	50.053874
32503		9.259523	1.684373	-2.095678	-0.094796	-0.178792	-0.172833	0.055197	-0.032157	-0.010167	-0.766846	-0.051514	0.531494	0.092599	0.016845	-0.020937	0.010151	-0.763678	-0.138385	-0.630509	142.162861	-74.976988	49.999787
32504		9.180144	1.702241	-2.234590	-0.231719	-0.237693	-0.218112	0.059420	-0.050348	-0.016254	-0.769043	-0.054932	0.529785	0.091808	0.017022	-0.022318	0.010314	-0.763855	-0.138602	-0.630245	142.261235	-74.948051	49.933051
32505		9.226148	1.688909	-2.181031	-0.168909	-0.204552	-0.186642	0.050980	-0.055852	-0.014981	-0.761475	-0.059326	0.541504	0.092269	0.016888	-0.021780	0.010439	-0.764051	-0.138782	-0.629965	142.363619	-74.916798	49.856186
32506		9.383088	1.701368	-2.140104	-0.093752	-0.176506	-0.041449	0.037566	-0.054738	-0.011311	-0.757813	-0.056641	0.534180	0.093838	0.017012	-0.021372	0.010531	-0.764246	-0.138911	-0.629699	142.462831	-74.887535	49.775594
32507		9.365964	1.723289	-2.098436	-0.044900	-0.191917	-0.063041	0.027463	-0.060365	-0.010704	-0.761230	-0.058838	0.536377	0.093667	0.017231	-0.020954	0.010574	-0.764461	-0.138998	-0.629418	142.564006	-74.855635	49.685497
32508		9.428950	1.587528	-2.146595	-0.104385	-0.057097	-0.013756	0.018591	-0.056658	-0.005704	-0.759521	-0.057617	0.537354	0.094296	0.015875	-0.021438	0.010610	-0.764666	-0.139046	-0.629157	142.663528	-74.827375	49.593297
32509		9.505602	1.557123	-2.050367	0.000566	0.005921	0.035412	0.016021	-0.053239	0.009183	-0.756592	-0.054199	0.539063	0.095061	0.015577	-0.020477	0.010677	-0.764874	-0.139020	-0.628910	142.781685	-74.805538	49.478816
32510		9.418592	1.553480	-2.107499	-0.063727	-0.019395	-0.037193	0.009206	-0.048655	0.007679	-0.766846	-0.054688	0.536621	0.094190	0.015539	-0.021051	0.010725	-0.765063	-0.138987	-0.628686	142.887437	-74.785472	49.374568
32511		9.319506	1.581926	-2.157858	-0.116432	-0.076205	-0.117706	0.007483	-0.055743	0.002581	-0.760742	-0.056641	0.536377	0.093201	0.015821	-0.021552	0.010737	-0.765274	-0.138961	-0.628435	142.992173	-74.760104	49.269124
32512		9.244740	1.633844	-2.274123	-0.222000	-0.162751	-0.157092	0.015546	-0.069981	-0.001580	-0.764648	-0.048828	0.539307	0.092455	0.016339	-0.022708	0.010766	-0.765524	-0.138985	-0.628125	143.112302	-74.726980	49.153713
32513		9.179730	1.668838	-2.292740	-0.235100	-0.211877	-0.210138	0.007412	-0.079645	-0.002802	-0.760742	-0.049316	0.548340	0.091807	0.016688	-0.022890	0.010745	-0.765805	-0.138981	-0.627783	143.237174	-74.688688	49.027443
32514		9.306235	1.623673	-2.213111	-0.138406	-0.126492	-0.111913	0.009847	-0.086939	-0.008499	-0.752197	-0.057861	0.542725	0.093073	0.016234	-0.022090	0.010718	-0.766103	-0.139014	-0.627412	143.362517	-74.645274	48.903197
32515		9.393500	1.663703	-2.072709	0.029375	-0.118963	-0.051189	0.004148	-0.084910	-0.005364	-0.760742	-0.055420	0.554688	0.093944	0.016635	-0.020687	0.010672	-0.766400	-0.139009	-0.627052	143.486462	-74.603529	48.775654
32516		9.412433	1.516391	-1.969581	0.107001	0.047554	-0.078271	0.004959	-0.084324	-0.002768	-0.752930	-0.056152	0.548828	0.094133	0.015163	-0.019656	0.010646	-0.766694	-0.139004	-0.626694	143.613983	-74.563128	48.646195
32517		9.505085	1.551442	-1.975618	0.134453	0.032473	0.017753	0.002068	-0.085761	0.001129	-0.745850	-0.056641	0.554199	0.095059	0.015515	-0.019715	0.010611	-0.766997	-0.138967	-0.626331	143.747253	-74.523042	48.507485
32518		9.337047	1.593651	-2.031590	0.070057	-0.050563	-0.125580	-0.019826	-0.099178	-0.007340	-0.747803	-0.063477	0.551270	0.093381	0.015931	-0.020271	0.010465	-0.767335	-0.138902	-0.625934	143.869696	-74.474070	48.368506
32519		9.232450	1.500704	-2.131413	-0.054634	0.001957	-0.219452	-0.020436	-0.120813	-0.013452	-0.760010	-0.050049	0.552979	0.092338	0.014999	-0.021260	0.010271	-0.767740	-0.138849	-0.625453	144.006707	-74.412662	48.212095
32520		9.175753	1.508448	-2.087893	-0.009195	-0.004352	-0.282261	-0.024063	-0.140887	-0.023555	-0.757080	-0.046387	0.546875	0.091774	0.015071	-0.020816	0.010030	-0.768197	-0.138836	-0.624898	144.148024	-74.338714	48.050913
32521		9.314853	1.533138	-2.040513	0.080231	0.014238	-0.154839	-0.032289	-0.151533	-0.029333	-0.752197	-0.058594	0.548584	0.093166	0.015314	-0.020337	0.009725	-0.768685	-0.138815	-0.624307	144.286149	-74.257528	47.887156
32522		9.378314	1.538414	-1.947176	0.196804	0.045568	-0.113710	-0.029365	-0.165035	-0.031046	-0.753174	-0.050537	0.547119	0.093802	0.015367	-0.019397	0.009423	-0.769211	-0.138815	-0.623663	144.437627	-74.169619	47.712130
32523		9.453925	1.512037	-1.861262	0.301855	0.108463	-0.064644	-0.036060	-0.158505	-0.029311	-0.751465	-0.060059	0.552490	0.094556	0.015103	-0.018540	0.009097	-0.769720	-0.138780	-0.623048	144.578526	-74.084961	47.542799
32524		9.464073	1.567758	-2.007621	0.191373	0.035240	-0.013749	-0.029199	-0.166021	-0.020032	-0.743896	-0.059570	0.556885	0.094659	0.015665	-0.020000	0.008829	-0.770256	-0.138738	-0.622398	144.745731	-73.999993	47.351367
32525		9.265527	1.638953	-2.151630	0.048411	-0.094293	-0.161035	-0.035668	-0.176646	-0.031024	-0.752930	-0.057373	0.556396	0.092677	0.016371	-0.021437	0.008485	-0.770820	-0.138709	-0.621711	144.901372	-73.906021	47.166396
32526		9.106037	1.638357	-2.325900	-0.131719	-0.151438	-0.274678	-0.028184	-0.193578	-0.037264	-0.747559	-0.053955	0.552490	0.091086	0.016363	-0.023173	0.008148	-0.771428	-0.138737	-0.620955	145.068601	-73.802161	46.975363
32527		9.144853	1.693164	-2.328093	-0.096046	-0.188961	-0.227793	-0.025515	-0.207923	-0.037725	-0.745850	-0.058838	0.559082	0.091476	0.016911	-0.023188	0.007802	-0.772081	-0.138769	-0.620139	145.250134	-73.690998	46.769687
32528		9.221624	1.764437	-2.339327	-0.057009	-0.235693	-0.139777	-0.029801	-0.213680	-0.042939	-0.743408	-0.057617	0.552002	0.092245	0.017621	-0.023297	0.007428	-0.772746	-0.138815	-0.619305	145.424841	-73.575491	46.569678
32529		9.230970	1.761819	-2.301326	0.000068	-0.215767	-0.139822	-0.036891	-0.219872	-0.039676	-0.747314	-0.060791	0.561035	0.092338	0.017596	-0.022915	0.007023	-0.773434	-0.138819	-0.618449	145.604598	-73.457692	46.358708
32530		9.315232	1.778966	-2.312217	0.030046	-0.208722	-0.053583	-0.039188	-0.221567	-0.031904	-0.736328	-0.057373	0.565186	0.093181	0.017770	-0.023022	0.006641	-0.774129	-0.138793	-0.617589	145.794684	-73.341661	46.136799
32531		9.310298	1.780623	-2.405124	-0.039189	-0.220614	-0.035845	-0.049089	-0.218268	-0.023559	-0.737793	-0.059814	0.559326	0.093131	0.017789	-0.023954	0.006240	-0.774822	-0.138695	-0.616746	145.985663	-73.229409	45.906483
32532		9.196910	1.665729	-2.576811	-0.231688	-0.156975	-0.121485	-0.062724	-0.219131	-0.028846	-0.734863	-0.058350	0.565918	0.092000	0.016636	-0.025673	0.005778	-0.775510	-0.138584	-0.615910	146.158951	-73.115104	45.687769
32533		9.208845	1.569777	-2.707242	-0.355374	-0.077987	-0.093440	-0.043138	-0.215391	-0.021820	-0.738525	-0.063721	0.564941	0.092119	0.015682	-0.026977	0.005408	-0.776193	-0.138499	-0.615072	146.347618	-73.004357	45.463240
32534		9.238748	1.576999	-2.767273	-0.384916	-0.082322	-0.048251	-0.022254	-0.215451	-0.026507	-0.742676	-0.053223	0.567871	0.092419	0.015755	-0.027575	0.005113	-0.776868	-0.138503	-0.614220	146.538603	-72.892143	45.250009
32535		9.246918	1.657624	-2.853496	-0.427683	-0.166460	-0.005293	-0.007171	-0.204497	-0.030028	-0.730469	-0.057129	0.581543	0.092501	0.016561	-0.028441	0.004865	-0.777509	-0.138560	-0.613399	146.718787	-72.783593	45.055825
32536		9.257220	1.751871	-2.833588	-0.366470	-0.244910	0.015847	-0.003723	-0.197278	-0.024322	-0.729004	-0.068604	0.568115	0.092602	0.017507	-0.028245	0.004661	-0.778128	-0.138611	-0.612603	146.900399	-72.680380	44.863279
32537		9.239778	1.787302	-2.770828	-0.283864	-0.265829	-0.009924	-0.002739	-0.189744	-0.017298	-0.731689	-0.053223	0.573975	0.092426	0.017865	-0.027621	0.004478	-0.778730	-0.138629	-0.611834	147.083408	-72.582513	44.668135
32538		9.210590	1.852129	-2.773374	-0.259916	-0.329592	-0.025924	-0.001634	-0.187339	-0.017389	-0.738525	-0.063721	0.573486	0.092133	0.018513	-0.027648	0.004310	-0.779322	-0.138660	-0.611074	147.262715	-72.485878	44.479052
32539		9.159505	1.794284	-2.691165	-0.187328	-0.265260	-0.104296	-0.006402	-0.189751	-0.012815	-0.735840	-0.070313	0.577393	0.091622	0.017936	-0.026825	0.004128	-0.779926	-0.138651	-0.610307	147.446358	-72.389029	44.281287
32540		9.246017	1.818868	-2.742344	-0.193576	-0.275028	-0.004302	0.001469	-0.186873	-0.010354	-0.721680	-0.051758	0.585205	0.092487	0.018184	-0.027337	0.003994	-0.780520	-0.138664	-0.609545	147.633634	-72.294421	44.085506
32541		9.147296	1.786050	-2.684672	-0.149207	-0.249790	-0.118061	0.000759	-0.190489	-0.011017	-0.721436	-0.061035	0.580566	0.091499	0.017856	-0.026760	0.003844	-0.781126	-0.138668	-0.608768	147.820655	-72.197367	43.888011
32542		9.297204	1.766739	-2.613828	-0.034742	-0.183212	0.003456	0.010894	-0.183710	-0.001452	-0.720215	-0.062012	0.576904	0.092996	0.017668	-0.026052	0.003776	-0.781715	-0.138674	-0.608011	148.019696	-72.106611	43.685336
32543		9.207385	1.876570	-2.591860	0.008798	-0.300830	-0.069762	0.008311	-0.183332	-0.000175	-0.716064	-0.057373	0.579590	0.092098	0.018767	-0.025833	0.003693	-0.782305	-0.138658	-0.607256	148.216536	-72.015909	43.481849
32544		9.142333	1.834806	-2.607191	-0.011140	-0.273799	-0.134304	-0.006114	-0.193681	0.000043	-0.726074	-0.067627	0.577881	0.091449	0.018347	-0.025984	0.003557	-0.782923	-0.138607	-0.606470	148.413261	-71.920316	43.271150
32545		9.188294	1.820736	-2.568823	0.051847	-0.240857	-0.103004	-0.001027	-0.202041	0.015667	-0.721436	-0.071777	0.588379	0.091907	0.018214	-0.025595	0.003473	-0.783580	-0.138501	-0.605647	148.641350	-71.824763	43.028959
32546		9.190003	1.747198	-2.431444	0.186459	-0.143008	-0.150104	-0.015000	-0.214810	0.004812	-0.718506	-0.062988	0.581787	0.091926	0.017472	-0.024217	0.003301	-0.784264	-0.138404	-0.604783	148.854648	-71.719747	42.795216
32547		9.326293	1.647252	-2.370666	0.274582	-0.004153	-0.053703	-0.008993	-0.222703	0.017123	-0.714111	-0.056885	0.593262	0.093288	0.016479	-0.023604	0.003174	-0.784983	-0.138266	-0.603882	149.093699	-71.613891	42.536055
32548		9.260692	1.783249	-2.271670	0.405584	-0.129098	-0.121471	-0.002066	-0.235354	0.013124	-0.720947	-0.063232	0.595703	0.092632	0.017838	-0.022608	0.003064	-0.785733	-0.138176	-0.602928	149.339385	-71.500606	42.275691
32549		9.254269	1.870775	-2.272321	0.446900	-0.211347	-0.114219	-0.015393	-0.263169	0.014135	-0.718262	-0.063232	0.589600	0.092571	0.018713	-0.022603	0.002876	-0.786569	-0.138033	-0.601871	149.599472	-71.373227	41.990433
32550		9.384207	1.943428	-2.319430	0.475559	-0.258216	0.032469	-0.020564	-0.282045	0.029274	-0.712646	-0.061035	0.593018	0.093872	0.019446	-0.023064	0.002710	-0.787468	-0.137823	-0.600743	149.891370	-71.240741	41.669712
32551		9.405767	1.910977	-2.411180	0.414731	-0.234777	0.071992	-0.030889	-0.291599	0.027457	-0.709229	-0.067383	0.602539	0.094090	0.019119	-0.023978	0.002482	-0.788395	-0.137581	-0.599582	150.178013	-71.102184	41.346581
32552		9.377722	1.597003	-2.430346	0.349667	0.061353	-0.000829	-0.011762	-0.300582	0.029585	-0.713135	-0.063965	0.600830	0.093811	0.015982	-0.024163	0.002339	-0.789347	-0.137396	-0.598372	150.481998	-70.959515	41.017884
32553		9.289553	1.558282	-2.585112	0.203407	0.056771	-0.047332	0.021520	-0.305183	0.025453	-0.703125	-0.062012	0.604492	0.092933	0.015597	-0.025708	0.002300	-0.790309	-0.137316	-0.597119	150.797610	-70.812524	40.694983
32554		8.985974	1.619337	-2.848141	-0.075906	-0.107767	-0.248984	0.034911	-0.322358	0.016586	-0.705566	-0.061279	0.599609	0.089904	0.016206	-0.028334	0.002287	-0.791312	-0.137321	-0.595788	151.117376	-70.654170	40.377306
32555		8.895105	1.590724	-3.044880	-0.258513	-0.129013	-0.281631	0.059507	-0.328296	0.016467	-0.700684	-0.066162	0.611816	0.089000	0.015924	-0.030298	0.002358	-0.792332	-0.137391	-0.594414	151.450025	-70.491925	40.059025
32556		8.971781	1.698004	-3.163321	-0.294397	-0.231675	-0.156484	0.049519	-0.325286	0.007415	-0.706299	-0.062500	0.606934	0.089768	0.016991	-0.031483	0.002373	-0.793333	-0.137475	-0.593058	151.757033	-70.328425	39.763140
32557		9.082218	1.731122	-3.387197	-0.437281	-0.273098	0.020455	0.041295	-0.308788	0.017207	-0.699951	-0.062500	0.621826	0.090873	0.017326	-0.033728	0.002386	-0.794292	-0.137486	-0.591771	152.055432	-70.175092	39.469323
32558		9.087176	1.806999	-3.410123	-0.409958	-0.346096	0.045458	0.045147	-0.295580	0.028632	-0.695313	-0.069580	0.616455	0.090919	0.018091	-0.033963	0.002467	-0.795215	-0.137472	-0.590533	152.358290	-70.031281	39.174618
32559		8.967129	2.004750	-3.574866	-0.522746	-0.588096	0.015278	0.038380	-0.285738	0.040423	-0.695068	-0.060547	0.618896	0.089718	0.020072	-0.035617	0.002551	-0.796118	-0.137379	-0.589336	152.661902	-69.894754	38.872660
32560		8.972958	1.989946	-3.617690	-0.535798	-0.579460	0.033054	0.040478	-0.273555	0.052577	-0.687744	-0.070068	0.625977	0.089774	0.019930	-0.036050	0.002700	-0.796989	-0.137255	-0.588186	152.971374	-69.767376	38.567548
32561		9.051305	1.973454	-3.631295	-0.503094	-0.550264	0.109560	0.052854	-0.255835	0.063704	-0.686523	-0.062012	0.624512	0.090553	0.019773	-0.036192	0.002931	-0.797817	-0.137110	-0.587095	153.286667	-69.651037	38.261440
32562		8.994068	1.818572	-3.443696	-0.350611	-0.385670	-0.025565	0.076437	-0.241079	0.072465	-0.688721	-0.053711	0.624023	0.089975	0.018231	-0.034322	0.003303	-0.798602	-0.137012	-0.586047	153.614415	-69.544242	37.958350
32563		9.033770	1.750047	-3.394662	-0.282600	-0.308241	-0.013684	0.104052	-0.232263	0.086286	-0.685303	-0.056152	0.624512	0.090369	0.017557	-0.033833	0.003822	-0.799372	-0.136928	-0.585013	153.967281	-69.444515	37.643389
32564		8.957799	1.895801	-3.319528	-0.174197	-0.459199	-0.085703	0.131600	-0.231743	0.088999	-0.678223	-0.050049	0.625000	0.089608	0.019020	-0.033079	0.004471	-0.800138	-0.136925	-0.583962	154.336563	-69.345379	37.329292
32565		8.915649	1.946053	-3.269051	-0.100168	-0.515442	-0.133491	0.131233	-0.241417	0.092192	-0.682129	-0.062256	0.630127	0.089187	0.019523	-0.032570	0.005110	-0.800935	-0.136898	-0.582869	154.712536	-69.240967	37.006002
32566		9.080173	1.730240	-3.070750	0.110520	-0.246834	-0.076180	0.127685	-0.241388	0.096779	-0.681152	-0.050293	0.623047	0.090830	0.017366	-0.030587	0.005758	-0.801730	-0.136851	-0.581780	155.089750	-69.137280	36.680592
32567		9.340140	1.600677	-3.013338	0.236827	-0.065453	0.128146	0.129111	-0.233704	0.109602	-0.684326	-0.055908	0.630615	0.093428	0.016077	-0.030014	0.006444	-0.802513	-0.136746	-0.580717	155.476477	-69.039545	36.343764
32568		9.307999	1.585715	-2.920684	0.338180	-0.051246	0.064897	0.126998	-0.234571	0.110225	-0.678467	-0.046143	0.637939	0.093105	0.015927	-0.029088	0.007133	-0.803294	-0.136643	-0.579652	155.860594	-68.941052	36.010108
32569		9.218187	1.614200	-3.004737	0.268467	-0.120562	0.011893	0.106241	-0.245457	0.112417	-0.664063	-0.050293	0.634277	0.092210	0.016210	-0.029926	0.007727	-0.804110	-0.136460	-0.578554	156.238451	-68.836236	35.668380
32570		9.205880	1.598868	-3.102922	0.199257	-0.132378	0.029844	0.085975	-0.269204	0.099025	-0.666992	-0.047852	0.644775	0.092093	0.016048	-0.030898	0.008196	-0.804982	-0.136284	-0.577376	156.597567	-68.715433	35.335846
32571		9.376237	1.391837	-3.080636	0.253491	0.100888	0.150587	0.079086	-0.280774	0.093414	-0.671875	-0.046875	0.645264	0.093799	0.013974	-0.030669	0.008600	-0.805885	-0.136098	-0.576154	156.947368	-68.586191	35.006694
32572		9.441376	1.380409	-3.082054	0.300244	0.120630	0.209258	0.089097	-0.281759	0.078421	-0.664795	-0.044434	0.645752	0.094452	0.013855	-0.030681	0.009013	-0.806775	-0.136013	-0.574921	157.279931	-68.452717	34.704034
32573		9.341150	1.368479	-3.151130	0.235471	0.095897	0.136921	0.098983	-0.300511	0.067418	-0.664795	-0.045166	0.642578	0.093454	0.013732	-0.031364	0.009410	-0.807711	-0.135990	-0.573603	157.609323	-68.305941	34.408615
32574		9.339251	1.263601	-3.088141	0.302514	0.204757	0.097982	0.118913	-0.314640	0.056469	-0.661133	-0.042725	0.649902	0.093437	0.012681	-0.030727	0.009859	-0.808675	-0.136081	-0.572215	157.939630	-68.149001	34.126169
32575		9.427813	1.171029	-3.027683	0.399055	0.321056	0.145195	0.137256	-0.323918	0.046185	-0.664795	-0.045898	0.646729	0.094324	0.011753	-0.030116	0.010333	-0.809657	-0.136253	-0.570775	158.266841	-67.984020	33.856106
32576		9.550583	0.932277	-2.859355	0.572672	0.604347	0.165559	0.167913	-0.329795	0.035779	-0.654785	-0.038330	0.656982	0.095551	0.009364	-0.028428	0.010910	-0.810642	-0.136567	-0.569289	158.597174	-67.813455	33.603278
32577		9.551605	0.991499	-2.921949	0.566238	0.536877	0.194562	0.200303	-0.344543	0.006979	-0.656494	-0.039795	0.654297	0.095566	0.009947	-0.029045	0.011515	-0.811647	-0.137078	-0.567720	158.911010	-67.628212	33.386003
32578		9.402910	0.767571	-3.015161	0.419789	0.707088	0.057406	0.211111	-0.384201	-0.009354	-0.651855	-0.027344	0.659180	0.094087	0.007703	-0.029963	0.012101	-0.812746	-0.137700	-0.565982	159.225708	-67.418247	33.176202
32579		9.774639	0.475944	-2.896101	0.621810	1.090470	0.315568	0.247899	-0.418609	-0.022875	-0.645996	-0.032471	0.666016	0.097807	0.004784	-0.028750	0.012765	-0.813929	-0.138472	-0.564076	159.555287	-67.186394	32.971088
32580		10.078213	0.266768	-2.745590	0.854566	1.388412	0.508245	0.252883	-0.455467	-0.042893	-0.645508	-0.029541	0.663574	0.100845	0.002681	-0.027223	0.013378	-0.815194	-0.139351	-0.562015	159.874802	-66.930575	32.781332
32581		10.195381	0.217309	-2.495260	1.159145	1.515669	0.510987	0.269492	-0.487784	-0.083382	-0.640137	-0.026367	0.663086	0.102015	0.002164	-0.024701	0.013911	-0.816517	-0.140431	-0.559808	160.161849	-66.648816	32.635067
32582		10.051784	0.303091	-2.289344	1.371648	1.455621	0.305158	0.259774	-0.538893	-0.134998	-0.639160	-0.023926	0.666504	0.100581	0.002993	-0.022619	0.014234	-0.817938	-0.141709	-0.557399	160.397666	-66.329477	32.540081
32583		10.053601	0.106365	-2.320496	1.350896	1.660993	0.281210	0.228488	-0.599507	-0.167993	-0.635254	-0.035645	0.682129	0.100606	0.001005	-0.022902	0.014286	-0.819500	-0.143028	-0.554760	160.596935	-65.970785	32.463707
32584		10.176559	-0.164367	-2.254384	1.445724	1.986890	0.318124	0.211475	-0.668163	-0.205965	-0.617432	-0.026367	0.683350	0.101838	-0.001725	-0.022205	0.014122	-0.821215	-0.144467	-0.551848	160.766376	-65.567841	32.410634
32585		10.254373	-0.330239	-2.286576	1.468483	2.190292	0.362543	0.198444	-0.743777	-0.239735	-0.624268	-0.024902	0.687744	0.102624	-0.003403	-0.022488	0.013745	-0.823105	-0.145999	-0.548629	160.915745	-65.117451	32.369055
32586		10.323466	-0.265658	-2.192007	1.667062	2.200563	0.376876	0.202690	-0.809690	-0.287681	-0.617920	-0.034668	0.697021	0.103318	-0.002783	-0.021505	0.013217	-0.825123	-0.147755	-0.545130	161.035769	-64.622479	32.364621
32587		10.448768	-0.347171	-2.014419	1.929018	2.387067	0.382170	0.171350	-0.897444	-0.354127	-0.611328	-0.029785	0.702637	0.104570	-0.003640	-0.019678	0.012304	-0.827317	-0.149689	-0.541284	161.094840	-64.067551	32.405799
32588		10.622591	-0.504125	-2.131194	1.933669	2.612624	0.534759	0.167222	-0.977611	-0.405779	-0.598145	-0.025635	0.701660	0.106318	-0.005239	-0.020797	0.011183	-0.829666	-0.151840	-0.537098	161.125296	-63.459640	32.478523
32589		10.695365	-0.395615	-2.078005	2.129882	2.600490	0.558679	0.141438	-1.057668	-0.456964	-0.584229	-0.031494	0.707520	0.107052	-0.004186	-0.020217	0.009748	-0.832168	-0.154120	-0.532586	161.116862	-62.798889	32.576748
32590		10.717689	-0.608972	-2.282860	2.000027	2.844867	0.596745	0.106724	-1.137024	-0.515422	-0.572754	-0.037842	0.710449	0.107288	-0.006354	-0.022222	0.007961	-0.834806	-0.156563	-0.527754	161.059571	-62.084197	32.710204
32591		10.802916	-0.630961	-2.324973	2.097005	2.960833	0.643931	0.134473	-1.222293	-0.577268	-0.575439	-0.027588	0.715088	0.108150	-0.006606	-0.022593	0.006048	-0.837586	-0.159317	-0.522525	160.990438	-61.311843	32.873781
32592		10.842913	-0.568801	-2.224363	2.330855	3.019303	0.593510	0.159100	-1.306447	-0.641577	-0.562988	-0.038574	0.728027	0.108552	-0.006019	-0.021540	0.004014	-0.840489	-0.162416	-0.516898	160.907854	-60.481655	33.072483
32593		10.909828	-0.289528	-2.258756	2.526033	2.864079	0.657458	0.179984	-1.390002	-0.695746	-0.558350	-0.041748	0.740234	0.109241	-0.003255	-0.021831	0.001852	-0.843517	-0.165775	-0.510876	160.821643	-59.596156	33.289041
32594		11.159022	-0.432162	-2.220086	2.752264	3.180280	0.767832	0.204376	-1.468984	-0.743347	-0.534668	-0.046143	0.734375	0.111732	-0.004715	-0.021385	-0.000387	-0.846650	-0.169400	-0.504467	160.740213	-58.658556	33.520194
32595		11.372645	-0.553925	-2.508236	2.699375	3.420399	1.001480	0.253429	-1.536305	-0.787419	-0.528076	-0.037842	0.746582	0.113892	-0.005956	-0.024215	-0.002595	-0.849857	-0.173306	-0.497696	160.678259	-57.676391	33.761541
32596		11.508897	-0.679893	-2.940052	2.500201	3.625599	1.239981	0.341610	-1.579322	-0.821846	-0.516846	-0.037354	0.761963	0.115287	-0.007223	-0.028503	-0.004542	-0.853072	-0.177581	-0.490624	160.659518	-56.664017	34.016623
32597		11.565756	-0.394435	-3.376187	2.394572	3.425852	1.494252	0.513469	-1.604880	-0.883632	-0.488770	-0.039307	0.763672	0.115905	-0.004371	-0.032843	-0.005936	-0.856227	-0.182510	-0.483249	160.704612	-55.626601	34.314603
32598		11.590150	-0.347024	-4.016253	2.043159	3.408474	1.797068	0.671423	-1.599332	-0.941454	-0.492188	-0.037598	0.771484	0.116200	-0.003884	-0.039247	-0.006781	-0.859239	-0.188066	-0.475704	160.801449	-54.581016	34.665417
32599		11.458572	0.171727	-4.298086	2.068852	2.960075	1.881593	0.842313	-1.544587	-0.978382	-0.474121	-0.037598	0.778564	0.114920	0.001334	-0.042088	-0.006935	-0.862007	-0.194153	-0.468188	160.962134	-53.559148	35.060766
32600		10.800274	0.645999	-4.960370	1.522805	2.301655	1.765257	0.923900	-1.488982	-0.987189	-0.462158	-0.027832	0.785400	0.108399	0.006152	-0.048769	-0.006696	-0.864551	-0.200469	-0.460782	161.156731	-52.565949	35.479431
32601		10.006986	1.252103	-5.502482	1.057435	1.476224	1.531234	0.946396	-1.431430	-0.963637	-0.453125	-0.027832	0.798828	0.100520	0.012295	-0.054248	-0.006253	-0.866902	-0.206699	-0.453561	161.374220	-51.609865	35.888954
32602		9.234908	1.718647	-5.829623	0.727116	0.803192	1.189381	0.953068	-1.348290	-0.907937	-0.441406	-0.020508	0.804199	0.092816	0.017041	-0.057590	-0.005563	-0.869040	-0.212704	-0.446649	161.619991	-50.709472	36.274338
32603		8.674962	1.936631	-6.181303	0.391762	0.410142	0.998892	0.909830	-1.250199	-0.825549	-0.434570	-0.023438	0.800537	0.087213	0.019286	-0.061181	-0.004776	-0.870976	-0.218222	-0.440178	161.878307	-49.878990	36.614117
32604		8.194283	2.150100	-6.209239	0.335610	0.093037	0.684977	0.851422	-1.119797	-0.737105	-0.418945	-0.016846	0.811035	0.082368	0.021461	-0.061541	-0.003902	-0.872657	-0.223232	-0.434307	162.135246	-49.135533	36.917564
32605		7.659687	2.615324	-6.293264	0.293269	-0.497115	0.423594	0.781695	-1.003172	-0.636977	-0.410156	-0.010254	0.811035	0.076994	0.026153	-0.062445	-0.002989	-0.874148	-0.227625	-0.429003	162.393394	-48.474779	37.167549
32606		7.189093	3.294549	-6.536908	0.241760	-1.293558	0.362549	0.623331	-0.907646	-0.535722	-0.405518	-0.012695	0.813232	0.072275	0.032955	-0.064939	-0.002437	-0.875506	-0.231245	-0.424276	162.605191	-47.883669	37.362416
32607		6.653529	4.309198	-6.763259	0.296670	-2.415201	0.319350	0.399924	-0.830065	-0.447061	-0.398682	-0.008545	0.816895	0.066911	0.043077	-0.067269	-0.002590	-0.876773	-0.233979	-0.420138	162.728664	-47.351185	37.503408
32608		6.117562	4.574453	-6.553512	0.353136	-2.784071	-0.147164	0.153268	-0.740479	-0.388780	-0.398193	-0.003418	0.819824	0.061506	0.045675	-0.065273	-0.003592	-0.877895	-0.235953	-0.416669	162.729845	-46.877058	37.621476
32609		5.722741	4.049875	-6.923122	-0.287931	-2.505896	-0.288085	0.024381	-0.610013	-0.328986	-0.389404	-0.010498	0.819580	0.057505	0.040413	-0.069051	-0.004885	-0.878802	-0.237381	-0.413924	162.669878	-46.485094	37.721424
32610		5.276851	3.062270	-7.253778	-1.131417	-1.844245	-0.584559	0.151697	-0.513885	-0.235565	-0.386963	-0.005859	0.827881	0.052991	0.030615	-0.072379	-0.005307	-0.879614	-0.238676	-0.411443	162.720147	-46.160984	37.771922
32611		6.055542	2.822165	-5.188917	0.736801	-0.897505	-1.433513	0.283908	-0.346986	-0.140476	-0.376221	-0.004395	0.829102	0.060665	0.028253	-0.051744	-0.004757	-0.880194	-0.239814	-0.409543	162.870538	-45.944987	37.787272
32612		6.820093	2.592652	-4.147206	1.840509	-0.169289	-1.626194	0.311793	-0.072926	-0.083851	-0.385010	-0.007080	0.834717	0.068227	0.025963	-0.041407	-0.003636	-0.880276	-0.240778	-0.408810	163.020885	-45.888067	37.826491
32613		7.327199	2.325964	-3.307011	2.616799	0.437261	-1.875721	0.130116	0.190401	0.001400	-0.388916	0.005127	0.823486	0.073240	0.023282	-0.033125	-0.002828	-0.879920	-0.240986	-0.409461	163.069736	-45.990357	37.860304
32614		7.126517	2.131548	-3.817399	2.034255	0.412257	-1.713614	-0.205392	0.440130	0.131298	-0.386719	0.003906	0.827148	0.071167	0.021323	-0.038353	-0.002924	-0.879199	-0.239952	-0.411610	162.956777	-46.250618	37.853580
32615		6.397442	1.844410	-4.632283	0.879465	0.177985	-1.751565	-0.386837	0.675568	0.307504	-0.400635	-0.007324	0.815186	0.063789	0.018452	-0.046574	-0.003175	-0.878192	-0.237763	-0.415015	162.798902	-46.670208	37.764401
32616		5.843516	1.197067	-4.796232	0.131876	0.454031	-2.173349	-0.386452	0.881169	0.497522	-0.399658	-0.007324	0.823242	0.058193	0.012023	-0.048242	-0.002783	-0.876964	-0.234746	-0.419310	162.715453	-47.234026	37.575430
32617		5.737703	0.861262	-4.647205	-0.017107	0.688705	-2.411048	-0.304261	1.070043	0.673812	-0.417969	-0.006592	0.819824	0.057098	0.008734	-0.046791	-0.001444	-0.875517	-0.231110	-0.424330	162.752215	-47.931895	37.287792
32618		5.828854	1.145486	-4.246410	0.374222	0.483232	-2.536343	-0.183738	1.263204	0.803919	-0.422852	-0.000488	0.816895	0.057972	0.011649	-0.042842	0.000926	-0.873768	-0.227163	-0.430031	162.908543	-48.756509	36.937498
32619		5.994211	1.567297	-4.027987	0.713736	0.130658	-2.458513	-0.112144	1.455461	0.890756	-0.448242	-0.001221	0.805420	0.059576	0.015916	-0.040723	0.004011	-0.871647	-0.222963	-0.436467	163.135154	-49.700918	36.551877
32620		6.103319	2.000997	-4.082946	0.805369	-0.325302	-2.251685	-0.123166	1.646492	0.957838	-0.460693	-0.001465	0.800781	0.060598	0.020276	-0.041342	0.007410	-0.869112	-0.218436	-0.443706	163.377018	-50.759486	36.145244
32621		6.094799	2.233629	-4.242343	0.658117	-0.678192	-2.116072	-0.204297	1.822956	1.027328	-0.474121	0.000244	0.792725	0.060442	0.022604	-0.042999	0.010799	-0.866177	-0.213389	-0.451758	163.602124	-51.925952	35.705706
32622		6.137701	2.369280	-4.319124	0.543516	-0.915963	-2.015087	-0.325583	1.996628	1.110773	-0.494141	0.014648	0.783691	0.060809	0.023961	-0.043839	0.014039	-0.862841	-0.207681	-0.460627	163.802314	-53.199609	35.218508
32623		6.226233	2.351259	-4.404890	0.366247	-1.008793	-1.904317	-0.445212	2.182662	1.212974	-0.512207	0.013428	0.768799	0.061633	0.023789	-0.044777	0.017186	-0.859063	-0.201204	-0.470354	163.995673	-54.591607	34.662258
32624		6.388692	2.222259	-4.473408	0.177798	-0.980946	-1.764871	-0.539103	2.361750	1.287479	-0.531006	0.015869	0.765137	0.063208	0.022509	-0.045544	0.020285	-0.854798	-0.194145	-0.480850	164.185434	-56.092174	34.055927
32625		6.529812	2.145252	-4.481577	0.028124	-1.003300	-1.669404	-0.594866	2.528871	1.326609	-0.548340	0.011963	0.748779	0.064580	0.021747	-0.045700	0.023396	-0.850002	-0.186722	-0.492020	164.374022	-57.690561	33.422943
32626		6.683590	2.110985	-4.498355	-0.126469	-1.070195	-1.554646	-0.657035	2.690931	1.334017	-0.573730	0.008057	0.729736	0.066080	0.021402	-0.045946	0.026409	-0.844633	-0.179061	-0.503821	164.535865	-59.377761	32.791735
32627		6.876727	2.168297	-4.534578	-0.271267	-1.222703	-1.387807	-0.731492	2.838489	1.352041	-0.598389	0.018799	0.723389	0.067966	0.021976	-0.046394	0.029273	-0.838707	-0.171062	-0.516189	164.679075	-61.149013	32.142526
32628		7.072311	2.218018	-4.723319	-0.572374	-1.409996	-1.156813	-0.804995	2.967786	1.380666	-0.616455	0.013672	0.701416	0.069857	0.022471	-0.048364	0.032011	-0.832257	-0.162698	-0.529012	164.825771	-62.994557	31.454371
32629		7.306443	2.091153	-4.807715	-0.847168	-1.406107	-0.971397	-0.867443	3.084788	1.423835	-0.643555	0.028076	0.681396	0.072160	0.021215	-0.049286	0.034683	-0.825294	-0.153913	-0.542215	165.011970	-64.910989	30.692518
32630		7.529543	2.081424	-4.867143	-1.090559	-1.519242	-0.801077	-0.919354	3.194786	1.475846	-0.661377	0.030518	0.659912	0.074349	0.021138	-0.049961	0.037361	-0.817822	-0.144714	-0.555725	165.277293	-66.894000	29.824763
32631		7.823854	1.891769	-4.856513	-1.317694	-1.441385	-0.617387	-0.950977	3.292251	1.525469	-0.694336	0.025879	0.642334	0.077278	0.019274	-0.049934	0.040105	-0.809838	-0.135152	-0.569463	165.666989	-68.936970	28.815688
32632		8.097633	1.724997	-4.836419	-1.553411	-1.398654	-0.455427	-0.946922	3.377137	1.566919	-0.711182	0.034424	0.616455	0.080006	0.017646	-0.049804	0.043027	-0.801352	-0.125374	-0.583323	166.243208	-71.028845	27.624997
32633		8.534257	1.730271	-4.747477	-1.653140	-1.496233	-0.149218	-0.912964	3.434790	1.593511	-0.730225	0.040283	0.595947	0.084369	0.017756	-0.049010	0.046176	-0.792405	-0.115521	-0.597175	167.082533	-73.151916	26.192111
32634		9.037759	1.546110	-4.677492	-1.822647	-1.426714	0.216279	-0.864611	3.468502	1.620582	-0.760742	0.054932	0.566162	0.089419	0.015981	-0.048400	0.049606	-0.783062	-0.105661	-0.610893	168.321383	-75.288240	24.390090
32635		9.617118	1.501597	-4.351564	-1.723358	-1.456979	0.607164	-0.758431	3.471652	1.645786	-0.782959	0.057861	0.543701	0.095269	0.015633	-0.045233	0.053508	-0.773393	-0.095981	-0.624330	170.200838	-77.415645	22.008509
32636		10.064511	1.368944	-4.113336	-1.772633	-1.458449	0.901988	-0.640669	3.430655	1.669525	-0.796875	0.060303	0.521240	0.099801	0.014389	-0.042896	0.057902	-0.763542	-0.086555	-0.637306	173.099341	-79.496388	18.675921
32637		10.392329	0.741170	-3.970293	-2.042932	-1.022374	1.099696	-0.474395	3.356270	1.681885	-0.818604	0.073730	0.489502	0.103171	0.008185	-0.041457	0.062912	-0.753604	-0.077597	-0.649693	177.674264	-81.488735	13.761428
32638		10.414671	0.223285	-3.580827	-2.085314	-0.667957	0.982217	-0.162311	3.231842	1.635217	-0.831543	0.087158	0.473633	0.103527	0.003051	-0.037487	0.068882	-0.743698	-0.069846	-0.661279	-175.031254	-83.317437	6.309525
32639		10.483993	-0.226861	-3.309886	-2.201692	-0.400728	0.953054	0.090847	3.071479	1.541752	-0.839844	0.093018	0.445801	0.104328	-0.001448	-0.034705	0.075400	-0.733969	-0.063308	-0.672009	-163.321871	-84.883082	-5.409457
32640		10.086568	0.266346	-3.142668	-2.253565	-1.063892	0.456978	0.419236	2.889013	1.381702	-0.854736	0.104492	0.420410	0.100376	0.003426	-0.032872	0.082513	-0.724476	-0.058517	-0.681837	-144.903295	-86.034676	-23.643315
32641		9.523535	0.794030	-2.747716	-2.039130	-1.677360	-0.226270	0.658804	2.666853	1.185039	-0.881348	0.122559	0.397217	0.094808	0.008596	-0.028716	0.089729	-0.715408	-0.055324	-0.690709	-119.783448	-86.567730	-48.437077
32642		9.167239	0.551062	-2.746215	-2.306958	-1.587887	-0.645641	0.781796	2.426567	0.997980	-0.886475	0.140869	0.385498	0.091301	0.006077	-0.028548	0.096664	-0.706917	-0.053330	-0.698628	-94.737844	-86.424519	-73.079488
32643		9.252335	-0.114177	-2.698749	-2.583344	-1.078793	-0.589892	0.955860	2.192039	0.793368	-0.888184	0.147461	0.363037	0.092223	-0.000643	-0.028003	0.103412	-0.698983	-0.052766	-0.705651	-76.154993	-85.859902	-91.155984
32644		9.314754	-0.202757	-2.654756	-2.728802	-1.114057	-0.584339	1.124629	1.956739	0.539395	-0.901855	0.155029	0.344727	0.092887	-0.001624	-0.027467	0.109784	-0.691625	-0.053805	-0.711834	-63.501180	-85.176090	-103.201891
32645		8.892739	-0.299775	-2.482893	-2.724172	-1.047782	-1.048326	1.242172	1.712295	0.280570	-0.911865	0.158203	0.331787	0.088714	-0.002716	-0.025607	0.115554	-0.684916	-0.056277	-0.717196	-54.441422	-84.528833	-111.584877
32646		8.388225	-0.274564	-2.194086	-2.543274	-1.032181	-1.583676	1.307401	1.436209	0.051029	-0.913330	0.167480	0.322021	0.083722	-0.002578	-0.022560	0.120642	-0.679024	-0.059931	-0.721651	-47.580746	-83.986420	-117.727278
32647		8.245193	-0.056296	-1.938139	-2.331323	-1.212991	-1.760636	1.311977	1.145821	-0.145324	-0.910645	0.175537	0.314209	0.082339	-0.000494	-0.019857	0.124930	-0.674062	-0.064429	-0.725177	-42.099110	-83.578935	-122.486847
32648		8.150545	0.281697	-1.753760	-2.131941	-1.505380	-1.889639	1.191608	0.849421	-0.291893	-0.914307	0.172363	0.295166	0.081434	0.002804	-0.017867	0.128188	-0.670157	-0.069175	-0.727786	-37.644122	-83.312662	-126.284003
32649		7.908915	0.588036	-1.470336	-1.808766	-1.703071	-2.138941	0.982991	0.539037	-0.389996	-0.917236	0.173340	0.291748	0.079061	0.005799	-0.014888	0.130267	-0.667453	-0.073679	-0.729458	-34.078172	-83.194014	-129.309077
32650		7.745455	0.630552	-1.412655	-1.758021	-1.699390	-2.302252	0.681585	0.221708	-0.460884	-0.921631	0.172852	0.296143	0.077453	0.006175	-0.014191	0.130971	-0.666057	-0.077532	-0.730208	-31.302220	-83.230788	-131.711468
32651		7.851884	0.577068	-1.462291	-1.839684	-1.644223	-2.194593	0.364687	-0.085084	-0.509654	-0.922852	0.170654	0.298584	0.078539	0.005597	-0.014579	0.130311	-0.665963	-0.080583	-0.730082	-29.204912	-83.421581	-133.614173
32652		7.995676	0.485509	-1.440386	-1.849886	-1.521047	-2.034168	0.090720	-0.376204	-0.546931	-0.921143	0.162842	0.299316	0.079997	0.004643	-0.014251	0.128493	-0.667086	-0.082954	-0.729112	-27.674433	-83.761946	-135.102088
32653		8.201092	0.471434	-1.621065	-2.016504	-1.521613	-1.829832	-0.219639	-0.639634	-0.561303	-0.917480	0.149902	0.305420	0.082075	0.004466	-0.015953	0.125466	-0.669355	-0.084403	-0.727391	-26.736276	-84.236906	-136.173521
32654		9.245175	0.643936	0.103751	-0.354340	-1.192414	-0.628427	-0.368286	-0.796217	-0.560311	-0.913086	0.149902	0.306396	0.092464	0.006183	0.001394	0.121888	-0.672270	-0.085411	-0.725191	-26.139802	-84.790143	-136.984842
32655		10.596368	0.080769	1.090700	0.398234	-0.384921	0.825524	-0.692835	-0.867286	-0.494253	-0.915527	0.146484	0.317627	0.105917	0.000585	0.011364	0.117410	-0.675649	-0.085052	-0.722827	-26.207184	-85.363176	-137.317437
32656		11.498445	0.104093	2.638673	1.909411	0.036593	1.829468	-0.872270	-0.754367	-0.397922	-0.906738	0.141602	0.323486	0.114886	0.000929	0.026816	0.112732	-0.678739	-0.083658	-0.720837	-26.641286	-85.853501	-137.383430
32657		11.683836	1.993010	3.793948	3.593022	-1.435889	2.015513	-0.986447	-0.607902	-0.411463	-0.901123	0.132324	0.333008	0.116763	0.019878	0.038196	0.107665	-0.681335	-0.081808	-0.719373	-26.502321	-86.272529	-138.090475
32658		10.701824	4.771785	3.664357	4.276880	-4.083476	0.946493	-1.275400	-0.549583	-0.632376	-0.906982	0.118652	0.342529	0.107068	0.047613	0.036634	0.100846	-0.683753	-0.079641	-0.718310	-24.199619	-86.714309	-141.129723
32659		10.875193	3.960169	1.588637	2.045702	-3.789854	1.046791	-2.023411	-0.723506	-0.871969	-0.897705	0.109131	0.350586	0.108866	0.039288	0.015882	0.090521	-0.687012	-0.075681	-0.717002	-19.575724	-87.288479	-146.922222
32660		12.779277	-1.121226	-0.964021	-1.638155	0.613220	2.932245	-2.397203	-1.088782	-0.767395	-0.892334	0.094482	0.356445	0.127798	-0.011811	-0.008805	0.079144	-0.691678	-0.070180	-0.714418	-15.451549	-88.019359	-152.424533
32661		14.401152	-7.056818	-1.532625	-3.276882	6.425533	4.592392	-1.691351	-1.363310	-0.472986	-0.887451	0.089844	0.367432	0.143941	-0.071029	-0.013746	0.071142	-0.697041	-0.066277	-0.710408	-14.422064	-88.847318	-154.424865
32662		12.628707	-7.044749	-0.498613	-1.970106	6.750285	2.832821	-0.693707	-1.474884	-0.332276	-0.883545	0.087891	0.373779	0.126201	-0.070672	-0.003810	0.067082	-0.702424	-0.065464	-0.705560	-21.920518	-89.714011	-147.323654
32663		9.294293	-6.198483	-2.447506	-3.534878	5.646197	-0.516529	-0.260950	-1.362693	-0.480987	-0.887451	0.073975	0.384521	0.092957	-0.062240	-0.023761	0.064047	-0.707174	-0.066656	-0.700971	162.489574	-89.454671	28.116337
32664		8.193853	-3.070911	-2.241804	-2.662302	2.675301	-1.606013	0.386949	-1.193677	-0.719570	-0.872070	0.065186	0.396484	0.081960	-0.030961	-0.021989	0.062522	-0.711007	-0.070906	-0.696802	154.864250	-88.663392	35.964111
32665		8.479277	1.560900	-2.086953	-1.546930	-1.761537	-1.257440	0.484241	-1.243803	-0.983412	-0.864014	0.057373	0.404297	0.084996	0.015241	-0.020304	0.060396	-0.714849	-0.076440	-0.692460	149.928823	-87.768037	41.178253
32666		9.053455	0.216858	-3.971268	-3.539824	-0.697925	-0.605952	0.303664	-1.207473	-0.913463	-0.857422	0.057861	0.413574	0.090781	0.001814	-0.039162	0.057883	-0.718599	-0.081087	-0.688252	148.239687	-86.904219	43.043214
32667		9.190165	0.002556	-3.138350	-2.666352	-0.233898	-0.477650	0.412048	-1.124394	-0.813961	-0.855713	0.047363	0.429688	0.092075	-0.000285	-0.030867	0.056127	-0.722033	-0.085716	-0.684230	147.708696	-86.109330	43.810651
32668		9.523795	2.966203	-3.009620	-1.836672	-3.010794	-0.008653	0.266978	-1.028238	-0.746670	-0.849365	0.055420	0.438232	0.095501	0.029346	-0.029566	0.054121	-0.725173	-0.089580	-0.680567	147.354220	-85.381532	44.319361
32669		9.577082	4.775689	-3.424153	-1.787043	-4.768878	0.203063	-0.153332	-0.965476	-0.779204	-0.846191	0.037842	0.447998	0.096120	0.047357	-0.033814	0.050502	-0.728170	-0.092108	-0.677299	146.515125	-84.673029	45.072584
32670		9.480871	4.006548	-3.322072	-1.791680	-3.898486	0.115344	-0.774526	-0.946913	-0.751265	-0.836914	0.032227	0.443848	0.095114	0.039581	-0.032925	0.044727	-0.731239	-0.092425	-0.674349	145.596176	-83.981688	45.549960
32671		10.094696	2.539834	-3.621359	-2.281513	-2.361327	0.708023	-1.154926	-0.903259	-0.597314	-0.828369	0.029297	0.457275	0.101184	0.024888	-0.035902	0.038093	-0.734278	-0.090879	-0.671659	145.111253	-83.360108	45.371268
32672		10.602531	0.869304	-3.647539	-2.522506	-0.577689	1.131533	-1.135799	-0.768720	-0.455293	-0.827637	0.019043	0.459229	0.106184	0.008246	-0.036115	0.032070	-0.736881	-0.088847	-0.669391	144.841721	-82.848938	44.987130
32673		9.892134	-0.179174	-3.917923	-2.977700	0.438116	0.394030	-0.817659	-0.615028	-0.429015	-0.829102	0.000244	0.473389	0.099037	-0.002163	-0.038866	0.027372	-0.738902	-0.087756	-0.667513	144.453743	-82.418089	44.905759
32674		9.171646	-0.394280	-4.047183	-3.161256	0.635676	-0.312364	-0.356993	-0.511647	-0.440410	-0.822021	-0.003662	0.461426	0.091811	-0.004217	-0.040230	0.024385	-0.740491	-0.088228	-0.665803	144.054508	-82.032066	45.102130
32675		8.834792	-0.588288	-3.808640	-2.956003	0.881367	-0.680853	0.188610	-0.399538	-0.474272	-0.820068	-0.002930	0.467041	0.088410	-0.006057	-0.037915	0.023347	-0.741620	-0.090623	-0.664261	143.622380	-81.685676	45.646868
32676		9.053071	-0.389274	-3.081603	-2.161679	0.857153	-0.528388	0.611119	-0.311859	-0.521180	-0.818359	-0.004883	0.466797	0.090568	-0.004035	-0.030687	0.023767	-0.742372	-0.094587	-0.662852	143.126375	-81.363542	46.502231
32677		9.684183	0.814311	-2.672013	-1.462978	-0.155582	0.158344	0.816274	-0.260530	-0.528480	-0.815186	-0.008057	0.475586	0.096898	0.007996	-0.026561	0.024943	-0.742914	-0.099248	-0.661518	142.660822	-81.060701	47.445954
32678		10.174750	1.512862	-2.253966	-0.846841	-0.676872	0.662003	0.880105	-0.219096	-0.503823	-0.819824	-0.000244	0.484375	0.101810	0.014971	-0.022362	0.026462	-0.743300	-0.104022	-0.660291	142.254881	-80.784795	48.367571
32679		10.107710	2.187418	-1.788082	-0.238770	-1.222396	0.608269	0.729321	-0.224437	-0.460923	-0.812256	-0.002930	0.478760	0.101147	0.021706	-0.017688	0.027554	-0.743733	-0.108136	-0.659096	141.930745	-80.520009	49.118879
32680		9.802816	2.669078	-1.395092	0.238404	-1.617230	0.311194	0.430560	-0.247780	-0.406497	-0.807129	-0.010254	0.493896	0.098099	0.026521	-0.013772	0.027707	-0.744299	-0.111066	-0.657964	141.656241	-80.264016	49.647361
32681		9.757611	2.908695	-1.100383	0.596755	-1.760515	0.258390	0.081706	-0.292030	-0.363240	-0.804688	-0.007324	0.487549	0.097645	0.028914	-0.010849	0.026672	-0.745080	-0.112690	-0.656845	141.405989	-80.002491	49.948005
32682		9.702246	2.681621	-0.996113	0.667761	-1.486325	0.170382	-0.297404	-0.329421	-0.351235	-0.805176	-0.017822	0.491943	0.097086	0.026631	-0.009841	0.024250	-0.746033	-0.113032	-0.655798	141.058018	-79.729004	50.128260
32683		9.540433	2.172071	-1.249662	0.318505	-1.016176	-0.006304	-0.517001	-0.370308	-0.355063	-0.812012	-0.022949	0.495850	0.095466	0.021519	-0.012376	0.020965	-0.747140	-0.112668	-0.654712	140.670687	-79.435052	50.220002
32684		9.537804	1.322185	-1.378817	0.046378	-0.166593	-0.087005	-0.607152	-0.394280	-0.347498	-0.806885	-0.014404	0.494141	0.095428	0.013015	-0.013640	0.017362	-0.748324	-0.111985	-0.653582	140.307505	-79.133868	50.235453
32685		9.619957	0.338577	-1.542293	-0.263935	0.822057	-0.102322	-0.524679	-0.395093	-0.344387	-0.802490	-0.031738	0.494385	0.096235	0.003180	-0.015241	0.014072	-0.749498	-0.111558	-0.652388	140.010270	-78.832801	50.231536
32686		9.519693	0.105455	-1.597398	-0.343199	1.071366	-0.225118	-0.348009	-0.397283	-0.364632	-0.793945	-0.031982	0.497070	0.095230	0.000853	-0.015786	0.011382	-0.750642	-0.111782	-0.651085	139.780027	-78.523964	50.262868
32687		9.329031	-0.260773	-1.720599	-0.523954	1.424094	-0.444845	-0.108265	-0.385881	-0.398065	-0.801270	-0.043701	0.501953	0.093318	-0.002803	-0.017024	0.009483	-0.751714	-0.112909	-0.649682	139.602514	-78.207041	50.380094
32688		9.155949	-0.044050	-1.657704	-0.416446	1.238301	-0.599963	0.197280	-0.377630	-0.429096	-0.791260	-0.037842	0.519531	0.091589	-0.000621	-0.016405	0.008642	-0.752717	-0.115145	-0.648138	139.527509	-77.882788	50.572171
32689		9.145278	0.862272	-1.462577	-0.029869	0.427546	-0.521033	0.401631	-0.378579	-0.454779	-0.794678	-0.040039	0.510742	0.091500	0.008444	-0.014436	0.008479	-0.753696	-0.118136	-0.646463	139.527035	-77.547823	50.807220
32690		9.512616	1.695212	-1.386956	0.287223	-0.265038	-0.059010	0.481368	-0.388176	-0.451713	-0.784180	-0.041504	0.517822	0.095191	0.016770	-0.013644	0.008628	-0.754690	-0.121374	-0.644699	139.598526	-77.210564	51.016461
32691		9.633301	2.803719	-1.607798	0.348027	-1.311553	0.257302	0.411313	-0.414702	-0.452006	-0.779053	-0.048584	0.518066	0.096429	0.027852	-0.015821	0.008490	-0.755765	-0.124386	-0.642865	139.676819	-76.861020	51.177266
32692		9.636027	3.000215	-1.567530	0.471424	-1.446851	0.286594	0.249217	-0.428936	-0.434506	-0.785156	-0.047852	0.525391	0.096458	0.029812	-0.015431	0.007792	-0.756891	-0.126811	-0.641073	139.718534	-76.512436	51.281003
32693		9.858007	2.718780	-1.624909	0.433913	-1.096010	0.474321	0.099658	-0.450263	-0.406046	-0.773193	-0.049072	0.522461	0.098671	0.026996	-0.016014	0.006597	-0.758105	-0.128646	-0.639284	139.760521	-76.164339	51.295507
32694		9.746983	2.557717	-1.618211	0.430762	-0.911995	0.343424	-0.065256	-0.466633	-0.387632	-0.770508	-0.053955	0.540771	0.097557	0.025383	-0.015963	0.004834	-0.759378	-0.129886	-0.637536	139.763781	-75.816643	51.253481
32695		9.830423	2.053874	-1.943163	0.065275	-0.417277	0.407528	-0.119251	-0.478313	-0.378808	-0.767334	-0.046875	0.531250	0.098389	0.020341	-0.019209	0.002879	-0.760692	-0.130916	-0.635768	139.767710	-75.466313	51.177907
32696		9.633040	1.901367	-1.884201	0.099119	-0.251278	0.181691	-0.095366	-0.481825	-0.368769	-0.759277	-0.056396	0.539063	0.096410	0.018827	-0.018619	0.001051	-0.762012	-0.131986	-0.633969	139.804006	-75.118944	51.083758
32697		9.582605	1.522654	-1.928204	0.011530	0.141044	0.078847	-0.033015	-0.478528	-0.345903	-0.769043	-0.066650	0.538086	0.095898	0.015058	-0.019055	-0.000468	-0.763333	-0.133166	-0.632131	139.905813	-74.780748	50.958289
32698		9.555972	1.422183	-1.834998	0.117467	0.288704	0.016301	0.097030	-0.465199	-0.333140	-0.757324	-0.066162	0.541016	0.095626	0.014071	-0.018121	-0.001437	-0.764610	-0.134706	-0.630257	140.078193	-74.453715	50.837034
32699		9.285179	1.953796	-1.784907	0.270307	-0.233010	-0.164365	0.168843	-0.464177	-0.344309	-0.758301	-0.070068	0.547363	0.092926	0.019393	-0.017617	-0.002175	-0.765874	-0.136512	-0.628329	140.266867	-74.122226	50.740483
32700		9.163507	2.407050	-1.873831	0.300235	-0.671813	-0.182877	0.195623	-0.469813	-0.350772	-0.753174	-0.060791	0.549316	0.091721	0.023928	-0.018499	-0.002826	-0.767140	-0.138428	-0.626359	140.462079	-73.786511	50.653854
32701		9.097734	2.874562	-1.676651	0.620469	-1.063993	-0.204062	0.133274	-0.493594	-0.328106	-0.742188	-0.070801	0.557861	0.091065	0.028607	-0.016523	-0.003668	-0.768493	-0.140058	-0.624331	140.679614	-73.447733	50.505955
32702		9.343441	2.827819	-1.592085	0.781699	-0.913272	0.004938	0.042544	-0.514970	-0.293980	-0.749268	-0.078613	0.552246	0.093516	0.028144	-0.015674	-0.004760	-0.769924	-0.141274	-0.622283	140.913524	-73.112364	50.287040
32703		9.375683	2.707891	-1.662093	0.740579	-0.765353	0.029272	-0.060684	-0.539935	-0.282079	-0.743408	-0.071777	0.559326	0.093839	0.026942	-0.016376	-0.006240	-0.771435	-0.142117	-0.620203	141.126269	-72.769154	50.026918
32704		9.202031	2.349662	-1.824836	0.520834	-0.451279	-0.166283	-0.104614	-0.554359	-0.264077	-0.742188	-0.082520	0.560791	0.092101	0.023366	-0.018005	-0.007834	-0.772991	-0.142757	-0.618097	141.346635	-72.426440	49.733035
32705		9.135213	2.022127	-1.854959	0.455491	-0.121946	-0.285916	-0.128657	-0.570884	-0.244466	-0.732178	-0.082275	0.573975	0.091429	0.020098	-0.018302	-0.009480	-0.774607	-0.143242	-0.615935	141.588998	-72.082262	49.400242
32706		9.075326	2.080643	-2.117525	0.251159	-0.199460	-0.269555	-0.135949	-0.582976	-0.243798	-0.728027	-0.090576	0.578125	0.090840	0.020681	-0.020925	-0.011153	-0.776248	-0.143703	-0.613729	141.830353	-71.733165	49.064256
32707		8.995861	1.770552	-2.321212	0.023333	0.082404	-0.355375	-0.098961	-0.597416	-0.255415	-0.729980	-0.083496	0.579102	0.090050	0.017579	-0.022952	-0.012740	-0.777924	-0.144314	-0.611429	142.081370	-71.372185	48.738417
32708		8.966120	1.581707	-2.388709	-0.036927	0.281156	-0.404270	-0.023331	-0.599485	-0.259922	-0.719971	-0.082275	0.583008	0.089753	0.015698	-0.023620	-0.014036	-0.779595	-0.145178	-0.609063	142.360626	-71.009035	48.429153
32709		8.916129	1.765119	-2.517008	-0.080028	0.108041	-0.382420	0.072285	-0.596618	-0.270616	-0.712158	-0.088135	0.587402	0.089260	0.017539	-0.024898	-0.014996	-0.781251	-0.146372	-0.606628	142.666568	-70.642256	48.148322
32710		8.959842	2.145521	-2.502194	0.077156	-0.208304	-0.268406	0.110424	-0.600734	-0.285334	-0.711670	-0.090820	0.586670	0.089704	0.021341	-0.024741	-0.015849	-0.782899	-0.147738	-0.604145	142.968473	-70.268718	47.894961
32711		9.121607	2.238378	-2.521751	0.170537	-0.223994	-0.091903	0.127906	-0.614234	-0.287539	-0.702148	-0.092285	0.602539	0.091325	0.022269	-0.024923	-0.016658	-0.784582	-0.149160	-0.601585	143.279930	-69.887052	47.640539
32712		9.050940	2.285527	-2.531623	0.212250	-0.252318	-0.146087	0.105044	-0.633471	-0.286776	-0.697510	-0.089600	0.603027	0.090622	0.022739	-0.025017	-0.017560	-0.786309	-0.150509	-0.598963	143.586568	-69.497067	47.377618
32713		8.984309	1.964670	-2.684743	0.040786	0.049702	-0.232444	0.095829	-0.657358	-0.280898	-0.692383	-0.099365	0.608643	0.089958	0.019533	-0.026543	-0.018507	-0.788104	-0.151800	-0.596243	143.905693	-69.096790	47.093955
32714		8.836788	1.962184	-2.710170	0.040736	0.046490	-0.363890	0.073740	-0.698630	-0.284726	-0.691650	-0.089600	0.610840	0.088490	0.019506	-0.026786	-0.019575	-0.790003	-0.153039	-0.593372	144.232115	-68.676275	46.789200
32715		9.027680	1.842662	-2.610435	0.219488	0.264564	-0.242414	0.039564	-0.735045	-0.287032	-0.690674	-0.095459	0.617188	0.090398	0.018302	-0.025769	-0.020821	-0.791997	-0.154175	-0.590371	144.554609	-68.236678	46.465646
32716		9.333805	1.772494	-2.432474	0.516414	0.480914	-0.031067	0.024909	-0.761433	-0.294429	-0.672852	-0.101074	0.627197	0.093456	0.017590	-0.023967	-0.022159	-0.794044	-0.155296	-0.587270	144.869132	-67.782374	46.141702
32717		9.540731	1.795013	-2.395783	0.680292	0.564841	0.147481	0.021270	-0.788470	-0.312779	-0.671143	-0.099121	0.625732	0.095529	0.017803	-0.023579	-0.023594	-0.796146	-0.156468	-0.584048	145.169291	-67.307982	45.828812
32718		9.637583	1.628424	-2.412716	0.727270	0.793547	0.197142	0.058688	-0.817696	-0.336583	-0.662842	-0.098877	0.627441	0.096501	0.016129	-0.023728	-0.024963	-0.798301	-0.157843	-0.580671	145.474360	-66.812161	45.533923
32719		9.592884	1.555173	-2.360329	0.824314	0.906253	0.112615	0.086884	-0.844466	-0.359703	-0.658691	-0.106934	0.647217	0.096055	0.015389	-0.023191	-0.026315	-0.800505	-0.159382	-0.577145	145.777585	-66.294925	45.256589
32720		9.637285	1.570301	-2.408479	0.874518	0.947450	0.161313	0.115985	-0.866512	-0.371860	-0.646729	-0.098877	0.648682	0.096505	0.015537	-0.023658	-0.027595	-0.802746	-0.161051	-0.573498	146.088097	-65.763415	44.989360
32721		9.505457	1.849202	-2.556018	0.844559	0.676170	0.143978	0.114538	-0.902667	-0.392274	-0.639160	-0.109863	0.659424	0.095205	0.018320	-0.025120	-0.028976	-0.805058	-0.162783	-0.569687	146.389202	-65.206964	44.729215
32722		9.487096	1.775214	-2.587665	0.878097	0.790643	0.109778	0.114995	-0.944709	-0.414368	-0.635498	-0.109131	0.662354	0.095028	0.017570	-0.025418	-0.030444	-0.807448	-0.164601	-0.565692	146.684284	-64.623533	44.476015
32723		9.368025	1.690906	-2.734929	0.774869	0.871391	0.022869	0.098945	-0.994575	-0.432555	-0.625732	-0.114258	0.654541	0.093851	0.016720	-0.026875	-0.032077	-0.809943	-0.166427	-0.561486	146.972050	-64.009325	44.217996
32724		9.446142	1.622744	-2.826070	0.791825	1.007257	0.097255	0.103093	-1.031760	-0.456698	-0.612549	-0.119873	0.664795	0.094642	0.016026	-0.027764	-0.033782	-0.812493	-0.168358	-0.557108	147.249844	-63.369795	43.973856
32725		9.388707	1.637088	-3.063653	0.655477	1.007371	0.125534	0.103474	-1.079486	-0.469698	-0.605957	-0.119385	0.677490	0.094089	0.016166	-0.030121	-0.035570	-0.815142	-0.170322	-0.552512	147.531982	-62.702107	43.722123
32726		9.374035	1.595690	-3.178202	0.636742	1.092158	0.133177	0.101719	-1.118743	-0.487403	-0.596924	-0.122559	0.680664	0.093955	0.015744	-0.031249	-0.037436	-0.817850	-0.172347	-0.547737	147.807333	-62.010032	43.476942
32727		9.417787	1.479050	-3.089713	0.808244	1.294868	0.091722	0.126823	-1.160885	-0.510873	-0.577393	-0.121826	0.687744	0.094392	0.014569	-0.030340	-0.039310	-0.820630	-0.174514	-0.542739	148.086908	-61.289260	43.240005
32728		9.466506	1.537307	-3.169595	0.876143	1.317133	0.163305	0.145207	-1.212812	-0.537124	-0.573486	-0.127930	0.698730	0.094896	0.015141	-0.031110	-0.041212	-0.823493	-0.176830	-0.537487	148.369805	-60.535287	43.011343
32729		9.758368	1.602692	-2.853853	1.396529	1.467357	0.278581	0.189471	-1.264304	-0.571635	-0.564209	-0.124512	0.703613	0.097807	0.015774	-0.027906	-0.043079	-0.826438	-0.179376	-0.531948	148.662544	-59.744770	42.796938
32730		10.522380	1.759985	-2.627852	2.046041	1.689985	0.849354	0.200163	-1.337444	-0.583965	-0.554932	-0.127686	0.714111	0.105447	0.017318	-0.025556	-0.044987	-0.829521	-0.181989	-0.526071	148.975065	-58.914704	42.566788
32731		11.168100	1.672362	-2.014415	2.952562	2.157181	1.059635	0.190055	-1.423537	-0.623253	-0.542725	-0.135742	0.717773	0.111872	0.016394	-0.019333	-0.047126	-0.832749	-0.184697	-0.519803	149.277545	-58.029713	42.337868
32732		11.804616	1.161661	-1.472535	3.696927	3.016554	1.146169	0.199969	-1.534190	-0.676217	-0.523438	-0.126709	0.725342	0.118193	0.011231	-0.013808	-0.049450	-0.836159	-0.187623	-0.513021	149.581320	-57.074501	42.113524
32733		12.544328	1.035072	-0.982479	4.554446	3.564935	1.409639	0.207385	-1.665054	-0.736709	-0.517822	-0.138184	0.732666	0.125556	0.009898	-0.008769	-0.052028	-0.839787	-0.190763	-0.505628	149.886283	-56.036153	41.888473
32734		13.691984	0.403684	-0.276889	5.655163	4.771691	1.717883	0.221365	-1.789458	-0.819753	-0.498779	-0.135742	0.746094	0.136952	0.003478	-0.001540	-0.054860	-0.843575	-0.194249	-0.497634	150.176015	-54.911946	41.690609
32735		14.496867	0.147987	-0.464652	5.967905	5.436577	2.237899	0.199537	-1.936039	-0.924740	-0.476807	-0.129639	0.750000	0.145009	0.000813	-0.003242	-0.058191	-0.847531	-0.198048	-0.488959	150.423933	-53.684406	41.524010
32736		15.159861	-0.705445	-0.129380	6.524110	6.671792	2.155965	0.268250	-2.078111	-1.059696	-0.460205	-0.136963	0.761475	0.151561	-0.007857	0.000271	-0.061686	-0.851611	-0.202535	-0.479514	150.662129	-52.347630	41.418083
32737		16.303613	-2.058267	0.071073	7.050601	8.569148	2.307321	0.475697	-2.188953	-1.226017	-0.439453	-0.141113	0.775391	0.162885	-0.021586	0.002444	-0.064805	-0.855725	-0.208148	-0.469264	150.941365	-50.908899	41.407622
32738		17.536683	-1.595357	0.011515	7.949340	8.878578	3.150422	0.698258	-2.256599	-1.373167	-0.419189	-0.130371	0.785156	0.175236	-0.017162	0.002034	-0.067370	-0.859766	-0.214868	-0.458362	151.272706	-49.395247	41.497001
32739		18.067660	-1.497897	-0.884910	7.742163	9.197021	3.785926	0.925038	-2.252269	-1.484412	-0.405273	-0.135010	0.793701	0.180644	-0.016285	-0.006888	-0.069203	-0.863587	-0.222528	-0.447112	151.661801	-47.854328	41.682395
32740		17.425580	-1.515636	-2.073089	6.689576	9.094211	3.706705	1.110658	-2.203199	-1.587586	-0.375244	-0.137695	0.799805	0.174344	-0.016432	-0.018899	-0.070390	-0.867066	-0.231036	-0.435734	152.082699	-46.310640	41.976461
32741		15.898336	-0.918718	-3.159496	5.463627	8.028124	3.197637	1.334170	-2.106399	-1.661737	-0.357178	-0.122314	0.813477	0.159222	-0.010306	-0.029985	-0.070650	-0.870140	-0.240311	-0.424401	152.565782	-44.798917	42.367348
32742		13.973902	0.125617	-4.168273	4.243456	6.343521	2.613242	1.495670	-1.918840	-1.729935	-0.343994	-0.117676	0.822266	0.140136	0.000350	-0.040335	-0.070102	-0.872592	-0.250263	-0.413566	153.061807	-43.366390	42.885996
32743		11.885336	1.683991	-5.778991	2.693773	4.030271	2.596464	1.425064	-1.759921	-1.736850	-0.317871	-0.107422	0.822998	0.119498	0.016210	-0.056623	-0.069670	-0.874502	-0.260073	-0.403429	153.482912	-42.017661	43.465767
32744		9.885981	2.317808	-7.142636	1.047292	2.516082	2.298871	1.366150	-1.484114	-1.663394	-0.315674	-0.102051	0.829590	0.099576	0.022836	-0.070532	-0.068969	-0.875762	-0.269519	-0.394518	153.850672	-40.830978	44.092805
32745		8.365038	2.308383	-8.668295	-0.716862	1.707140	2.312094	1.275589	-1.269152	-1.488623	-0.291016	-0.101318	0.835693	0.084369	0.023008	-0.086002	-0.068025	-0.876673	-0.278026	-0.386677	154.206741	-39.803224	44.668716
32746		7.411882	3.259472	-8.429301	-0.476387	0.499116	1.854969	1.466180	-1.113494	-1.210741	-0.291992	-0.084961	0.835205	0.074784	0.032758	-0.083638	-0.065477	-0.877616	-0.285729	-0.379291	154.764066	-38.926741	45.114302
32747		6.389835	5.034907	-6.387022	1.375236	-1.279379	0.358044	1.559772	-0.854017	-0.939410	-0.279297	-0.084473	0.842529	0.064406	0.050542	-0.063202	-0.061633	-0.878395	-0.292441	-0.372964	155.437827	-38.255659	45.463226
32748		5.284211	5.738672	-6.345302	1.280786	-2.441184	-0.142294	1.362905	-0.627968	-0.785787	-0.280029	-0.067383	0.849609	0.053266	0.057608	-0.062894	-0.058024	-0.878834	-0.298186	-0.367925	156.018735	-37.740536	45.787857
32749		4.334476	5.933076	-8.872549	-0.720553	-3.420270	1.164184	1.185405	-0.632056	-0.696063	-0.269531	-0.058350	0.855713	0.043831	0.059703	-0.088234	-0.055038	-0.879312	-0.303162	-0.363144	156.534518	-37.247757	46.052713
32750		3.836367	6.813066	-5.603522	1.773100	-4.007366	-1.249338	1.139342	-0.455108	-0.493661	-0.264648	-0.053223	0.855957	0.038659	0.068353	-0.055559	-0.051611	-0.879713	-0.307226	-0.359240	157.073400	-36.894489	46.241475
32751		4.703906	5.534662	-3.274972	3.243744	-2.167312	-2.865372	0.935842	-0.152342	-0.250554	-0.264648	-0.045166	0.856934	0.047133	0.055440	-0.032455	-0.048181	-0.879867	-0.309897	-0.357039	157.540291	-36.757606	46.353710
32752		7.016834	4.818578	-2.594710	4.639771	-0.159621	-2.220968	0.409001	0.119431	-0.040118	-0.278320	-0.038818	0.858887	0.070163	0.048225	-0.025890	-0.046265	-0.879717	-0.310789	-0.356887	157.744106	-36.809866	46.404473
32753		7.858835	4.775889	-4.198649	4.008534	0.120986	-0.532831	-0.407948	0.466467	0.227997	-0.279297	-0.034668	0.854248	0.078436	0.047762	-0.042267	-0.046929	-0.879171	-0.309101	-0.359600	157.529301	-37.105826	46.370041
32754		6.029989	3.895639	-5.506351	1.610196	-0.437456	-0.920468	-1.045103	0.763917	0.551459	-0.282227	-0.046875	0.849609	0.059981	0.038833	-0.055496	-0.049346	-0.878412	-0.304926	-0.364661	157.028906	-37.629349	46.207687
32755		4.419034	2.294752	-5.443932	-0.135091	-0.082303	-2.436770	-1.272053	0.979903	0.858965	-0.292725	-0.058105	0.844971	0.043824	0.022788	-0.054800	-0.051870	-0.877614	-0.299004	-0.371079	156.484894	-38.338754	45.905113
32756		4.015616	1.222442	-5.284490	-0.866977	0.554761	-3.142972	-1.183917	1.217264	1.105203	-0.302734	-0.070313	0.846436	0.039766	0.012131	-0.053160	-0.053188	-0.876684	-0.292216	-0.378425	156.052061	-39.229944	45.512967
32757		4.232890	0.994807	-5.149987	-0.858836	0.831548	-3.179498	-0.987147	1.477784	1.239737	-0.316650	-0.068604	0.834961	0.041885	0.009953	-0.051860	-0.053007	-0.875417	-0.285224	-0.386630	155.743308	-40.292250	45.108353
32758		4.501007	1.414513	-5.358812	-0.776801	0.530569	-2.735247	-0.862671	1.719319	1.306969	-0.341309	-0.069824	0.825928	0.044454	0.014204	-0.054033	-0.051796	-0.873698	-0.278230	-0.395673	155.493209	-41.496579	44.735174
32759		4.348253	1.749370	-5.785950	-1.143319	0.024443	-2.455060	-0.770075	1.944498	1.367192	-0.353271	-0.076416	0.815674	0.042797	0.017564	-0.058345	-0.049742	-0.871514	-0.271157	-0.405540	155.282462	-42.835192	44.389819
32760		3.976198	1.963980	-6.085202	-1.606778	-0.490221	-2.472926	-0.679511	2.128343	1.453742	-0.380127	-0.075439	0.812744	0.038968	0.019717	-0.061336	-0.046858	-0.868952	-0.263907	-0.416028	155.132201	-44.289533	44.042719
32761		3.992928	2.201154	-6.219732	-1.752464	-0.820606	-2.347742	-0.573557	2.324130	1.585543	-0.395264	-0.078857	0.806641	0.039027	0.022144	-0.062718	-0.042975	-0.866015	-0.256285	-0.427188	155.074214	-45.879326	43.658612
32762		4.140628	2.128421	-6.113058	-1.789729	-0.805047	-2.383760	-0.533146	2.517447	1.726383	-0.424561	-0.073486	0.790771	0.040447	0.021472	-0.061701	-0.038357	-0.862661	-0.248139	-0.439059	155.083154	-47.602238	43.226724
32763		4.256970	1.862717	-6.063508	-1.969248	-0.657559	-2.461318	-0.473394	2.690763	1.812962	-0.447021	-0.075195	0.782715	0.041578	0.018863	-0.061243	-0.033069	-0.858825	-0.239705	-0.451517	155.151385	-49.437289	42.771677
32764		4.322771	1.716696	-6.065848	-2.170632	-0.656691	-2.513386	-0.334226	2.872552	1.835150	-0.472656	-0.069092	0.769775	0.042191	0.017455	-0.061298	-0.026903	-0.854388	-0.231469	-0.464456	155.288035	-51.370316	42.345688
32765		4.379498	1.798366	-6.089205	-2.314375	-0.878056	-2.507941	-0.202047	3.043556	1.832032	-0.501465	-0.062256	0.755127	0.042695	0.018316	-0.061566	-0.019978	-0.849307	-0.223489	-0.477840	155.476455	-53.392191	41.959694
32766		4.504258	2.029211	-6.086834	-2.363077	-1.216296	-2.438048	-0.083980	3.206862	1.834238	-0.526367	-0.051270	0.747314	0.043870	0.020672	-0.061587	-0.012354	-0.843572	-0.215741	-0.491620	155.714464	-55.497610	41.607891
32767		4.651403	2.275210	-6.088782	-2.414526	-1.576955	-2.358764	-0.007824	3.361461	1.827317	-0.551270	-0.046387	0.723389	0.045272	0.023167	-0.061657	-0.004257	-0.837154	-0.208128	-0.505803	155.973434	-57.682550	41.290630
32768		4.974702	2.685764	-6.187733	-2.439365	-2.062873	-2.064529	0.026226	3.510070	1.822209	-0.593262	-0.041504	0.711182	0.048404	0.027311	-0.062731	0.004128	-0.830041	-0.200563	-0.520374	156.230385	-59.942115	41.007741
32769		5.380841	3.008431	-6.153283	-2.377501	-2.436347	-1.795946	0.012516	3.657603	1.820715	-0.613770	-0.042236	0.690186	0.052394	0.030569	-0.062498	0.012594	-0.822207	-0.192868	-0.535368	156.457337	-62.279220	40.754821
32770		5.616982	3.120788	-6.071077	-2.429462	-2.676058	-1.745919	-0.008937	3.763207	1.852917	-0.640869	-0.026855	0.666260	0.054722	0.031717	-0.061751	0.021158	-0.813771	-0.184910	-0.550579	156.700186	-64.677568	40.477604
32771		6.063098	3.275890	-6.009237	-2.435600	-2.916738	-1.496965	-0.041987	3.834365	1.920960	-0.679932	-0.016357	0.649414	0.059146	0.033319	-0.061243	0.029822	-0.804841	-0.176473	-0.565861	157.023370	-67.128979	40.094500
32772		6.678172	3.168440	-5.985956	-2.538058	-2.905378	-1.119514	-0.094550	3.890531	2.004430	-0.694824	0.000488	0.627441	0.065279	0.032315	-0.061154	0.038555	-0.795455	-0.167481	-0.581132	157.483502	-69.626568	39.541249
32773		7.189099	2.998431	-6.202054	-2.937878	-2.951406	-0.769392	-0.116651	3.896498	2.078076	-0.723633	0.010254	0.592285	0.070348	0.030684	-0.063419	0.047391	-0.785734	-0.158032	-0.596156	158.186757	-72.141846	38.723873
32774		7.877754	3.025446	-6.062859	-2.934357	-3.088737	-0.336285	-0.075094	3.884800	2.128464	-0.749512	0.023682	0.572021	0.077252	0.031059	-0.062151	0.056518	-0.775694	-0.148453	-0.610792	159.269125	-74.656185	37.549674
32775		8.465834	3.144925	-5.807297	-2.841815	-3.335410	-0.011353	-0.029002	3.827363	2.163664	-0.771729	0.044434	0.548828	0.083180	0.032346	-0.059679	0.065849	-0.765464	-0.138805	-0.624869	160.948452	-77.138395	35.798915
32776		8.710296	3.428561	-5.750087	-2.962228	-3.862228	0.035023	-0.016406	3.728663	2.185448	-0.790283	0.059082	0.515137	0.085629	0.035222	-0.059109	0.075208	-0.755191	-0.129097	-0.638251	163.599768	-79.552438	33.082678
32777		8.919411	3.278505	-5.736765	-3.253050	-3.996294	0.018088	-0.004106	3.589842	2.184181	-0.813477	0.063477	0.499023	0.087780	0.033748	-0.058952	0.084474	-0.745011	-0.119412	-0.650817	167.960293	-81.852623	28.660332
32778		9.398883	2.903741	-5.381033	-3.241792	-3.804512	0.223529	0.034949	3.413771	2.156626	-0.828369	0.094238	0.457764	0.092732	0.030052	-0.055395	0.093667	-0.735056	-0.109995	-0.662435	175.620517	-83.965882	20.962602
32779		9.795991	2.196425	-5.693565	-3.968793	-3.494204	0.445275	0.041607	3.200571	2.037405	-0.847900	0.100342	0.438721	0.096802	0.022966	-0.058486	0.102320	-0.725457	-0.101080	-0.673071	-170.368357	-85.753077	6.918380
32780		9.873140	0.648518	-5.989761	-4.931303	-2.373817	0.376071	0.318660	2.944836	1.808535	-0.860352	0.120117	0.408203	0.097771	0.007469	-0.061331	0.111061	-0.716221	-0.094041	-0.682531	-144.854858	-86.941184	-18.461231
32781		9.432143	0.891107	-5.418002	-4.546933	-2.688613	-0.262758	0.754633	2.677732	1.449017	-0.866943	0.133789	0.385498	0.093516	0.009798	-0.055400	0.119964	-0.707291	-0.089885	-0.690847	-110.130225	-87.222043	-52.797986
32782		8.880900	1.372502	-5.142584	-4.327184	-3.262236	-0.990732	1.056356	2.406041	1.057901	-0.882324	0.155762	0.373047	0.088107	0.014467	-0.052414	0.128450	-0.698783	-0.088312	-0.698143	-82.094278	-86.746840	-80.265151
32783		8.499704	1.938342	-4.421927	-3.601585	-3.732808	-1.527379	1.253176	2.089940	0.687511	-0.881348	0.162109	0.354248	0.084462	0.019955	-0.044980	0.136152	-0.690966	-0.088895	-0.704363	-65.010417	-86.019131	-96.665391
32784		8.501065	2.328963	-4.572306	-3.717099	-4.283453	-1.662177	1.283994	1.754887	0.376238	-0.898438	0.170654	0.337891	0.084562	0.023745	-0.046315	0.142713	-0.684069	-0.090890	-0.709522	-54.326593	-85.320459	-106.641802
32785		8.553360	2.728832	-4.002098	-3.117560	-4.578571	-1.692366	1.280318	1.382085	0.114068	-0.896240	0.172852	0.326660	0.085239	0.027595	-0.040435	0.148127	-0.678311	-0.094013	-0.713522	-47.079591	-84.766813	-113.182244
32786		8.221473	2.899007	-3.689031	-2.797021	-4.667505	-2.066945	1.127035	0.973429	-0.122945	-0.892822	0.179932	0.318115	0.082052	0.029148	-0.037126	0.151993	-0.673960	-0.097701	-0.716331	-41.848800	-84.417444	-117.787872
32787		7.873088	2.881326	-3.219797	-2.370120	-4.485101	-2.401816	0.927670	0.539090	-0.330017	-0.906250	0.164795	0.312256	0.078692	0.028833	-0.032276	0.154205	-0.671191	-0.101686	-0.717902	-37.911706	-84.302505	-121.212889
32788		7.764894	2.950135	-2.970053	-2.109950	-4.446811	-2.492031	0.678878	0.089555	-0.477962	-0.899902	0.170166	0.306152	0.077706	0.029416	-0.029635	0.154840	-0.670131	-0.105632	-0.718186	-35.053289	-84.424696	-123.694459
32789		7.861767	3.326334	-2.837159	-1.841292	-4.724626	-2.382438	0.375106	-0.319406	-0.596295	-0.909912	0.170410	0.313477	0.078762	0.033082	-0.028184	0.153786	-0.670709	-0.109184	-0.717342	-32.997373	-84.769487	-125.547253
32790		7.822697	3.693426	-2.795501	-1.641472	-4.992870	-2.394669	-0.015060	-0.675437	-0.674001	-0.905518	0.169189	0.326660	0.078445	0.036668	-0.027693	0.150975	-0.672801	-0.111883	-0.715561	-31.714309	-85.304197	-126.843923
32791		7.817389	3.473276	-2.996270	-1.881166	-4.786398	-2.349210	-0.497740	-0.975593	-0.715374	-0.902588	0.168701	0.329346	0.078442	0.034378	-0.029666	0.146193	-0.676294	-0.113204	-0.713049	-31.334051	-85.997350	-127.514614
32792		8.778550	2.757027	-0.988623	-0.275078	-3.364367	-1.196081	-0.871257	-1.130085	-0.699738	-0.890625	0.153076	0.341309	0.087936	0.027221	-0.009509	0.140136	-0.680577	-0.113261	-0.710176	-31.912767	-86.760092	-127.435072
32793		11.393658	0.762700	1.741605	1.549679	-0.572084	1.619740	-1.127591	-1.029499	-0.559191	-0.886475	0.150146	0.342529	0.113866	0.007409	0.017960	0.133729	-0.684724	-0.111842	-0.707645	-33.676264	-87.431799	-126.319023
32794		13.289263	-0.369055	3.723511	3.065460	1.155701	3.598936	-1.396680	-0.716682	-0.394071	-0.886719	0.133057	0.351318	0.132751	-0.003690	0.037737	0.127175	-0.687985	-0.108698	-0.706179	-35.839652	-87.898713	-124.954887
32795		13.572051	2.600987	5.374039	5.660464	-1.116100	3.845982	-1.766781	-0.471992	-0.364935	-0.875488	0.126953	0.354492	0.135641	0.026238	0.053829	0.119554	-0.690585	-0.103977	-0.705682	-36.801333	-88.242220	-125.007882
32796		13.775861	2.205218	2.271668	2.614903	-1.727916	3.970430	-2.591597	-0.583610	-0.437221	-0.889160	0.108398	0.355469	0.137740	0.022046	0.022833	0.108776	-0.693937	-0.096654	-0.705179	-38.805174	-88.660397	-124.488868
32797		13.727102	-4.782021	-6.063564	-7.252549	2.728656	3.899002	-3.138315	-1.093514	-0.340878	-0.880859	0.098389	0.368164	0.137514	-0.048990	-0.059122	0.096150	-0.699275	-0.087320	-0.702955	-59.918981	-89.224850	-105.172423
32798		12.646806	-12.786860	-5.883438	-8.833754	10.802219	2.966991	-2.100298	-1.227451	-0.207270	-0.860352	0.093262	0.375732	0.126687	-0.128603	-0.056709	0.087563	-0.704488	-0.081217	-0.699595	-120.780691	-89.350689	-45.510450
32799		12.240857	-11.049863	-3.851616	-6.187322	9.767303	2.560158	-0.268499	-1.120344	-0.326597	-0.874512	0.089355	0.395996	0.122440	-0.110750	-0.037682	0.085031	-0.708416	-0.081882	-0.695853	-159.151146	-88.950541	-7.291983
32800		8.896220	-1.034363	-4.678171	-4.589877	-0.072969	-0.811326	0.133774	-1.042021	-0.721214	-0.858887	0.071045	0.395264	0.089166	-0.010634	-0.046325	0.082595	-0.711707	-0.085314	-0.692368	178.817418	-88.417494	14.821426
32801		7.629166	0.795331	-6.034366	-5.436684	-2.096533	-1.983522	0.081231	-1.104431	-0.982925	-0.862793	0.071289	0.407959	0.076661	0.007602	-0.059918	0.079018	-0.715096	-0.089506	-0.688754	165.135059	-87.702376	28.555516
32802		9.072726	0.764445	-4.455328	-3.785139	-1.571041	-0.541677	-0.050541	-1.100310	-0.841990	-0.854980	0.071533	0.415527	0.091002	0.007251	-0.044055	0.075471	-0.718544	-0.092745	-0.685126	159.498133	-86.951480	34.169332
32803		10.526876	3.622135	-3.522354	-2.056423	-3.982558	0.969270	-0.191121	-1.035896	-0.679785	-0.840820	0.060059	0.423584	0.105572	0.035830	-0.034712	0.071985	-0.721874	-0.094883	-0.681699	157.098943	-86.252335	36.461015
32804		10.782367	4.040931	-3.514014	-1.864231	-4.270345	1.287945	-0.358918	-0.875403	-0.767730	-0.847412	0.052246	0.441162	0.108130	0.039932	-0.034739	0.067683	-0.724642	-0.096713	-0.678940	154.255788	-85.611890	39.105010
32805		9.716360	3.261705	-3.106983	-1.664809	-3.358634	0.219581	-0.540987	-0.767591	-0.843572	-0.839111	0.043457	0.434570	0.097418	0.032123	-0.030784	0.062495	-0.727048	-0.098152	-0.676655	151.246906	-84.996352	41.810771
32806		10.160341	2.401705	-2.944481	-1.636019	-2.355554	0.648886	-0.622020	-0.694548	-0.664167	-0.839844	0.029541	0.432617	0.101784	0.023588	-0.029165	0.057672	-0.729286	-0.098646	-0.674600	149.511106	-84.460863	43.195889
32807		9.985213	1.339921	-2.494346	-1.405324	-1.152681	0.405800	-0.526806	-0.610839	-0.434761	-0.832520	0.031982	0.444824	0.099956	0.013117	-0.024673	0.053991	-0.731316	-0.098591	-0.672712	148.930080	-84.029911	43.474436
32808		9.393327	0.770432	-2.535030	-1.571262	-0.589755	-0.198245	-0.405209	-0.552126	-0.321647	-0.825684	0.019043	0.453613	0.094015	0.007502	-0.025106	0.051181	-0.733151	-0.098520	-0.670943	148.815354	-83.662603	43.356182
32809		8.894918	-0.459456	-2.605290	-1.902130	0.600569	-0.749619	-0.054777	-0.480924	-0.287838	-0.829590	0.020264	0.453857	0.089005	-0.004730	-0.025838	0.049785	-0.734674	-0.099475	-0.669239	148.856510	-83.338648	43.280994
32810		8.452046	-1.488356	-2.410094	-1.936335	1.637883	-1.267005	0.421050	-0.420904	-0.317295	-0.820557	0.020996	0.458008	0.084547	-0.014967	-0.023954	0.050086	-0.735847	-0.102122	-0.667526	148.896097	-83.036989	43.483953
32811		9.138644	-0.933876	-2.076258	-1.406332	1.251762	-0.584849	0.760419	-0.382185	-0.452565	-0.826904	0.016846	0.460693	0.091405	-0.009467	-0.020624	0.051186	-0.736734	-0.106379	-0.665798	148.524106	-82.712345	44.295730
32812		10.079971	0.175093	-1.708422	-0.689909	0.378064	0.382213	0.883702	-0.347698	-0.595708	-0.818848	0.027344	0.466797	0.100834	0.001526	-0.016902	0.052298	-0.737368	-0.111570	-0.664157	147.674705	-82.361677	45.662899
32813		10.355624	1.347908	-1.373808	-0.034378	-0.600881	0.703038	0.799658	-0.356266	-0.602259	-0.818604	0.019287	0.460205	0.103620	0.013221	-0.013500	0.053055	-0.738038	-0.116498	-0.662506	146.873879	-82.000730	46.931666
32814		10.154540	2.382506	-1.162083	0.440291	-1.513720	0.563046	0.454257	-0.401724	-0.497411	-0.823975	0.021729	0.468994	0.101627	0.023598	-0.011363	0.052874	-0.738985	-0.119912	-0.660853	146.406353	-81.650785	47.666798
32815		9.784515	2.728517	-0.933696	0.748490	-1.780606	0.203411	0.000577	-0.454194	-0.393920	-0.814209	0.019043	0.478516	0.097920	0.027092	-0.009115	0.051311	-0.740287	-0.121451	-0.659236	146.165170	-81.306520	47.909263
32816		9.537541	2.420607	-0.918907	0.695495	-1.461222	-0.063365	-0.380604	-0.516229	-0.332246	-0.820068	0.010010	0.467041	0.095439	0.024030	-0.008989	0.048518	-0.741912	-0.121525	-0.657605	146.036129	-80.953938	47.819023
32817		9.526182	1.994940	-0.951319	0.592439	-1.014207	-0.104285	-0.603762	-0.568093	-0.316900	-0.808350	0.009277	0.483398	0.095320	0.019770	-0.009302	0.044900	-0.743768	-0.120815	-0.655894	145.927974	-80.580051	47.576438
32818		9.744548	1.194186	-1.156746	0.264540	-0.212788	0.066825	-0.623134	-0.581201	-0.326354	-0.806641	-0.002686	0.483154	0.097498	0.011747	-0.011321	0.041186	-0.745641	-0.120081	-0.654144	145.801428	-80.198612	47.342541
32819		9.637371	0.568145	-1.313634	-0.002540	0.395731	-0.077681	-0.509403	-0.583840	-0.348630	-0.805664	-0.008545	0.487305	0.096421	0.005480	-0.012869	0.037803	-0.747480	-0.119796	-0.652299	145.680953	-79.807173	47.166688
32820		9.212356	-0.081808	-0.998090	0.147284	1.085768	-0.611087	-0.306795	-0.573780	-0.358042	-0.802246	-0.011719	0.485107	0.092150	-0.000998	-0.009715	0.035169	-0.749221	-0.120208	-0.650369	145.630796	-79.419146	47.038838
32821		9.356825	-0.068133	-1.146160	0.070006	1.108190	-0.451322	-0.047913	-0.562724	-0.399200	-0.797607	-0.016113	0.498047	0.093598	-0.000871	-0.011198	0.033361	-0.750856	-0.121607	-0.648316	145.604935	-79.021414	47.035362
32822		9.356314	0.660981	-1.084124	0.338728	0.464365	-0.388140	0.171568	-0.556862	-0.450683	-0.797363	-0.016602	0.493408	0.093607	0.006408	-0.010575	0.032230	-0.752385	-0.123913	-0.646161	145.572788	-78.611414	47.168200
32823		9.346292	1.259341	-1.363391	0.250985	-0.123046	-0.288014	0.324339	-0.559884	-0.466776	-0.790039	-0.007813	0.508789	0.093530	0.012397	-0.013352	0.031603	-0.753887	-0.126767	-0.643883	145.601193	-78.193178	47.327112
32824		9.342113	2.010167	-1.654792	0.194717	-0.860072	-0.154732	0.339807	-0.576059	-0.442236	-0.778809	-0.021240	0.515381	0.093512	0.019923	-0.016245	0.031118	-0.755433	-0.129584	-0.641529	145.720213	-77.776859	47.404348
32825		9.459771	2.670629	-1.688128	0.390281	-1.436155	0.049055	0.214358	-0.605864	-0.404810	-0.787598	-0.023926	0.510742	0.094702	0.026533	-0.016566	0.030246	-0.757116	-0.131856	-0.639120	145.889772	-77.356927	47.354903
32826		9.817268	2.666525	-1.893451	0.302284	-1.368966	0.439548	0.076810	-0.635381	-0.365410	-0.782471	-0.023926	0.521973	0.098281	0.026493	-0.018612	0.028973	-0.758921	-0.133545	-0.636683	146.095852	-76.937150	47.188534
32827		9.790587	2.455717	-1.836449	0.358669	-1.107591	0.380586	-0.109315	-0.657455	-0.353087	-0.776611	-0.032471	0.518311	0.098009	0.024374	-0.018056	0.027003	-0.760829	-0.134592	-0.634268	146.239260	-76.509057	46.975086
32828		9.685211	2.004711	-1.754483	0.366216	-0.623106	0.206173	-0.237667	-0.670373	-0.342034	-0.776855	-0.033936	0.525879	0.096944	0.019861	-0.017244	0.024585	-0.762782	-0.135195	-0.631887	146.337145	-76.079852	46.734034
32829		9.660080	1.445546	-1.963440	0.082573	-0.082285	0.149632	-0.235436	-0.663325	-0.328170	-0.769287	-0.035156	0.531982	0.096689	0.014274	-0.019331	0.022208	-0.764720	-0.135743	-0.629511	146.443133	-75.656635	46.483784
32830		9.438737	1.283392	-1.888980	0.130839	0.098374	-0.103007	-0.204165	-0.658652	-0.332345	-0.760010	-0.040771	0.541016	0.094470	0.012658	-0.018592	0.019957	-0.766616	-0.136409	-0.627132	146.543640	-75.235892	46.258954
32831		9.220724	1.139778	-2.026270	-0.019379	0.216298	-0.305898	-0.083951	-0.657516	-0.341488	-0.758789	-0.042480	0.549561	0.092292	0.011232	-0.019964	0.018122	-0.768488	-0.137479	-0.624658	146.685433	-74.811024	46.060573
32832		9.173664	1.053702	-1.927378	0.100285	0.354455	-0.386920	0.042589	-0.652335	-0.328732	-0.747559	-0.046387	0.546143	0.091816	0.010390	-0.018972	0.016833	-0.770322	-0.138898	-0.622116	146.905882	-74.394150	45.857092
32833		9.351590	1.379451	-1.756571	0.429148	0.151798	-0.208884	0.141438	-0.649537	-0.318102	-0.752441	-0.043213	0.556641	0.093594	0.013658	-0.017252	0.015942	-0.772144	-0.140576	-0.619498	147.185868	-73.980031	45.648362
32834		9.421017	1.814296	-1.502026	0.846101	-0.160228	-0.139977	0.190083	-0.650617	-0.316287	-0.750244	-0.048828	0.554443	0.094287	0.018008	-0.014696	0.015261	-0.773948	-0.142401	-0.616842	147.485581	-73.567343	45.449507
32835		9.434685	2.203488	-1.323843	1.171271	-0.453450	-0.115097	0.130950	-0.672636	-0.308635	-0.738037	-0.050781	0.565918	0.094424	0.021898	-0.012907	0.014344	-0.775827	-0.144011	-0.614124	147.774014	-73.144468	45.225138
32836		9.358350	2.123505	-1.158516	1.353764	-0.317311	-0.247316	0.034610	-0.706508	-0.305308	-0.726074	-0.049072	0.569092	0.093656	0.021094	-0.011251	0.013053	-0.777799	-0.145315	-0.611344	148.034041	-72.707463	44.973732
32837		9.401363	2.009716	-0.965236	1.580141	-0.118151	-0.281425	-0.065579	-0.754207	-0.294141	-0.732422	-0.052979	0.579834	0.094079	0.019956	-0.009304	0.011356	-0.779928	-0.146265	-0.608432	148.286363	-72.248662	44.667813
32838		9.237382	1.824554	-1.223403	1.319800	0.016803	-0.409908	-0.160163	-0.813840	-0.288393	-0.717773	-0.050781	0.574219	0.092449	0.018103	-0.011872	0.009280	-0.782226	-0.146911	-0.605354	148.534428	-71.763713	44.310370
32839		9.062936	1.121623	-1.384867	1.026285	0.664833	-0.657532	-0.171702	-0.859459	-0.297025	-0.714600	-0.059814	0.587402	0.090704	0.011070	-0.013469	0.007085	-0.784647	-0.147552	-0.602086	148.787217	-71.251867	43.938507
32840		8.884302	1.226233	-1.857467	0.635668	0.482765	-0.688715	-0.131785	-0.914572	-0.324421	-0.706299	-0.058594	0.592285	0.088946	0.012106	-0.018176	0.004937	-0.787187	-0.148422	-0.598568	149.054474	-70.705866	43.575811
32841		8.718964	0.860173	-2.048432	0.402856	0.809533	-0.860705	-0.068479	-0.936170	-0.358528	-0.707031	-0.068359	0.597900	0.087299	0.008438	-0.020079	0.002905	-0.789752	-0.149608	-0.594895	149.310471	-70.137186	43.260703
32842		9.040305	1.123072	-2.173245	0.505710	0.662338	-0.484441	0.028118	-0.955196	-0.379210	-0.692627	-0.071045	0.607666	0.090527	0.011062	-0.021299	0.001194	-0.792330	-0.151165	-0.591068	149.593298	-69.554112	42.976453
32843		8.833856	1.487280	-2.865388	-0.025817	0.195024	-0.409499	0.085729	-0.964953	-0.410365	-0.688965	-0.075195	0.611084	0.088506	0.014703	-0.028221	-0.000405	-0.794898	-0.153004	-0.587135	149.859449	-68.955254	42.742272
32844		8.768342	1.279667	-2.963907	-0.102801	0.413850	-0.478692	0.146231	-0.967393	-0.415123	-0.679688	-0.073975	0.621338	0.087852	0.012636	-0.029205	-0.001762	-0.797440	-0.155041	-0.583137	150.142752	-68.354929	42.527923
32845		8.864333	1.810998	-3.473900	-0.335592	-0.104781	-0.127667	0.172356	-0.968993	-0.402694	-0.667480	-0.074951	0.625977	0.088846	0.017961	-0.034293	-0.002998	-0.799981	-0.157094	-0.579087	150.443187	-67.755448	42.308296
32846		8.947345	2.258108	-3.804113	-0.418735	-0.513226	0.146512	0.138524	-0.976103	-0.376249	-0.662598	-0.082764	0.624268	0.089700	0.022439	-0.037588	-0.004280	-0.802534	-0.158946	-0.575029	150.748028	-67.160933	42.064033
32847		9.103968	2.156027	-4.031978	-0.518345	-0.361334	0.355269	0.108057	-0.978130	-0.353111	-0.653564	-0.093750	0.636475	0.091273	0.021421	-0.039862	-0.005638	-0.805094	-0.160604	-0.570962	151.049301	-66.569838	41.801431
32848		9.130880	2.118243	-4.198656	-0.581394	-0.293618	0.437360	0.085024	-0.975127	-0.334153	-0.645508	-0.077637	0.645752	0.091547	0.021047	-0.041532	-0.007014	-0.807632	-0.162125	-0.566919	151.344261	-65.986484	41.532319
32849		9.187698	2.038070	-4.144706	-0.443094	-0.140434	0.460050	0.106644	-0.955694	-0.321493	-0.638916	-0.083496	0.651123	0.092106	0.020255	-0.040996	-0.008270	-0.810112	-0.163641	-0.562914	151.639851	-65.414234	41.272319
32850		9.268565	2.232666	-4.001860	-0.146589	-0.228193	0.523247	0.134856	-0.928460	-0.305987	-0.631592	-0.092041	0.654541	0.092904	0.022211	-0.039573	-0.009327	-0.812501	-0.165181	-0.558991	151.940981	-64.860980	41.025446
32851		9.379465	2.306125	-3.642892	0.325310	-0.157404	0.503890	0.168505	-0.916756	-0.314545	-0.618164	-0.089844	0.666992	0.093996	0.022944	-0.035979	-0.010280	-0.814839	-0.166836	-0.555064	152.233256	-64.309227	40.806053
32852		9.474757	2.260096	-3.383157	0.670278	0.004258	0.476854	0.201140	-0.910765	-0.311874	-0.604980	-0.095703	0.664551	0.094935	0.022487	-0.033377	-0.011067	-0.817137	-0.168578	-0.551131	152.533959	-63.762348	40.599630
32853		9.577915	2.161105	-3.065559	1.056725	0.227268	0.416452	0.225291	-0.922993	-0.305955	-0.607666	-0.094238	0.674316	0.095952	0.021499	-0.030189	-0.011773	-0.819464	-0.170343	-0.547105	152.849652	-63.208694	40.387844
32854		9.783773	2.022324	-2.655507	1.552290	0.533153	0.393631	0.252553	-0.952693	-0.306970	-0.605469	-0.094971	0.685547	0.097994	0.020106	-0.026063	-0.012372	-0.821842	-0.172195	-0.542928	153.185393	-62.640716	40.173149
32855		10.462338	1.771206	-2.361397	2.084463	1.069212	0.802611	0.247616	-0.999395	-0.320802	-0.584717	-0.086426	0.687988	0.104768	0.017573	-0.023069	-0.013089	-0.824320	-0.174069	-0.538539	153.515685	-62.043152	39.957316
32856		10.898375	1.859006	-1.840570	2.835214	1.260427	0.957163	0.249738	-1.071686	-0.359253	-0.576904	-0.101563	0.693848	0.109113	0.018417	-0.017798	-0.013943	-0.826926	-0.176110	-0.533840	153.834459	-61.399698	39.757676
32857		11.790713	1.627364	-1.107468	3.866506	1.937523	1.331366	0.215940	-1.183912	-0.408554	-0.565186	-0.093262	0.699219	0.118003	0.016044	-0.010359	-0.015188	-0.829762	-0.178236	-0.528675	154.126841	-60.684141	39.561705
32858		13.072803	1.172262	-0.282232	5.083932	2.975548	1.919702	0.118654	-1.324167	-0.437870	-0.551025	-0.088623	0.704590	0.130768	0.011438	-0.001950	-0.017016	-0.832890	-0.180222	-0.522996	154.387960	-59.889890	39.339186
32859		13.727904	-0.205215	0.310092	5.619434	4.655481	1.820805	0.061445	-1.496874	-0.514494	-0.537842	-0.094238	0.721191	0.137245	-0.002406	0.004127	-0.019457	-0.836355	-0.182340	-0.516608	154.608239	-58.985811	39.121398
32860		14.094242	-1.706560	1.139552	6.224093	6.408375	1.279944	0.069290	-1.690979	-0.658081	-0.521240	-0.104004	0.719238	0.140782	-0.017533	0.012580	-0.022392	-0.840124	-0.185059	-0.509355	154.778229	-57.946812	38.968388
32861		14.830851	-2.128810	1.911585	7.249014	7.290010	1.252554	0.144205	-1.906197	-0.841429	-0.508789	-0.104248	0.737793	0.148026	-0.021926	0.020512	-0.025695	-0.844205	-0.188681	-0.501056	154.913775	-56.750533	38.902326
32862		15.968799	-2.697489	2.285491	8.081475	8.422146	1.643636	0.199833	-2.141425	-1.027054	-0.481689	-0.103760	0.738281	0.159290	-0.027818	0.024534	-0.029428	-0.848596	-0.193188	-0.491628	155.017370	-55.387867	38.915309
32863		17.241776	-3.040237	2.349569	8.816393	9.397365	2.269742	0.297817	-2.393992	-1.185183	-0.468750	-0.111816	0.767578	0.171936	-0.031459	0.025509	-0.033390	-0.853336	-0.198519	-0.480930	155.143261	-53.855508	38.966880
32864		18.665877	-3.425706	2.191662	9.470508	10.494213	3.036819	0.447476	-2.619544	-1.313696	-0.436035	-0.105713	0.773438	0.186120	-0.035533	0.024278	-0.037223	-0.858340	-0.204700	-0.469004	155.335580	-52.175350	39.046932
32865		19.854645	-3.589921	3.036184	10.943313	11.486125	3.016688	0.715153	-2.785770	-1.459232	-0.413574	-0.109375	0.776123	0.197830	-0.037459	0.032989	-0.040425	-0.863433	-0.212026	-0.455954	155.630329	-50.374430	39.190358
32866		20.351472	-3.797338	2.461975	10.922434	12.111857	3.173063	0.918105	-2.910694	-1.575996	-0.393555	-0.108154	0.788818	0.202821	-0.039695	0.027395	-0.043123	-0.868484	-0.220261	-0.441996	156.000011	-48.481100	39.396059
32867		19.240863	-1.668400	0.210775	9.592514	9.783492	3.798853	1.069186	-2.857842	-1.603704	-0.366699	-0.108154	0.803467	0.192211	-0.018247	0.004761	-0.045171	-0.873168	-0.228861	-0.427971	156.422196	-46.610973	39.649225
32868		17.509319	-0.218752	-2.893524	7.110383	7.681713	4.519351	1.202433	-2.645170	-1.579022	-0.337891	-0.104492	0.812256	0.175432	-0.003407	-0.026634	-0.046311	-0.877201	-0.237656	-0.414599	156.881922	-44.858789	39.969163
32869		15.110826	0.644363	-4.171237	5.459280	5.956701	3.635367	1.397689	-2.389430	-1.616179	-0.324707	-0.093262	0.820801	0.151639	0.005503	-0.039862	-0.046379	-0.880482	-0.246964	-0.402007	157.377662	-43.236543	40.400729
32870		12.480755	2.296441	-5.091448	4.240478	3.403435	2.732818	1.425976	-2.166058	-1.659302	-0.312012	-0.087158	0.827393	0.125535	0.022281	-0.049397	-0.046098	-0.883041	-0.256560	-0.390245	157.828762	-41.724580	40.942395
32871		10.360516	3.612341	-5.819048	3.309226	1.347687	2.081676	1.302166	-1.807822	-1.616475	-0.289795	-0.072021	0.834717	0.104414	0.035655	-0.057016	-0.045832	-0.884749	-0.265700	-0.380161	158.169537	-40.416461	41.551842
32872		9.361773	4.093181	-7.645737	1.880855	0.377186	2.803554	1.161615	-1.319882	-1.465097	-0.287598	-0.071533	0.841309	0.094417	0.040683	-0.075599	-0.045223	-0.885547	-0.274026	-0.372385	158.422082	-39.401033	42.195393
32873		7.919348	4.265886	-8.703267	0.579382	-0.536520	2.678700	1.086787	-0.865394	-1.198880	-0.279297	-0.060303	0.849365	0.079824	0.042652	-0.086456	-0.043840	-0.885762	-0.281058	-0.366756	158.677729	-38.687656	42.770968
32874		6.067551	3.961614	-7.912882	0.053805	-1.103799	0.859723	1.249716	-0.728395	-1.034286	-0.270508	-0.052246	0.849854	0.061168	0.039793	-0.078658	-0.041220	-0.885911	-0.287716	-0.361500	159.080076	-38.082387	43.275938
32875		5.585730	3.962821	-10.458479	-1.758186	-1.693409	2.447930	1.346604	-0.746317	-0.834762	-0.266846	-0.037598	0.852051	0.056413	0.040096	-0.104106	-0.037847	-0.886340	-0.293595	-0.356050	159.625637	-37.512862	43.638194
32876		4.099009	4.283919	-9.179642	-1.451890	-2.621472	0.696224	1.595325	-0.483445	-0.448221	-0.264160	-0.023926	0.858398	0.041308	0.043477	-0.091352	-0.032280	-0.886839	-0.298276	-0.351434	160.432587	-37.162257	43.814569
32877		4.008188	5.199682	-4.293636	2.226837	-2.729767	-2.803693	1.805311	0.067566	-0.076802	-0.264404	-0.007568	0.858887	0.040088	0.052366	-0.042478	-0.024315	-0.886895	-0.301710	-0.348995	161.430022	-37.183578	43.870688
32878		6.826637	6.196489	-1.564063	6.158495	-1.572987	-2.953822	1.363776	0.555400	0.271580	-0.264404	0.007568	0.858154	0.068139	0.062163	-0.015407	-0.016952	-0.886504	-0.302902	-0.349389	162.253361	-37.531678	43.801332
32879		9.245579	6.847592	-1.955024	7.625707	-0.911728	-1.025846	0.047439	0.996787	0.528895	-0.280273	0.007324	0.853760	0.092175	0.068725	-0.019994	-0.014317	-0.885587	-0.300644	-0.353755	162.374065	-38.166894	43.643741
32880		7.092841	6.268046	-3.699487	4.872280	-2.017212	-1.125277	-1.420358	1.379926	0.670773	-0.302002	0.000977	0.861572	0.070459	0.062650	-0.037927	-0.017341	-0.884033	-0.295203	-0.361995	161.662220	-39.034772	43.480078
32881		3.902038	4.538528	-4.559768	1.442086	-2.506125	-2.866349	-2.334197	1.549133	0.794579	-0.317383	-0.023438	0.851318	0.038484	0.045000	-0.046424	-0.023939	-0.882136	-0.287497	-0.372300	160.446410	-40.021460	43.284212
32882		2.911083	3.043796	-4.906036	-0.278092	-1.850567	-3.623748	-2.650520	1.722372	1.008636	-0.325195	-0.036133	0.837646	0.028533	0.029927	-0.049707	-0.031268	-0.879970	-0.278240	-0.383742	159.105482	-41.144684	43.010777
32883		3.356189	1.662790	-4.916933	-0.873123	-0.460403	-3.711205	-2.546629	1.960612	1.247401	-0.347656	-0.058105	0.833252	0.032974	0.016204	-0.049703	-0.037352	-0.877443	-0.268062	-0.396032	157.877125	-42.451504	42.660199
32884		4.120982	0.737245	-4.865840	-1.002728	0.702700	-3.511840	-2.320710	2.276738	1.405131	-0.366455	-0.073730	0.824463	0.040601	0.007090	-0.049206	-0.041687	-0.874276	-0.257643	-0.409297	156.778975	-43.963224	42.321755
32885		4.094415	0.931507	-5.144423	-1.320822	0.447179	-3.320447	-2.130553	2.575825	1.487223	-0.395752	-0.082275	0.806396	0.040208	0.009063	-0.052063	-0.044634	-0.870358	-0.247207	-0.423525	155.748221	-45.657111	42.047957
32886		3.724989	1.025649	-5.775974	-2.154185	0.059865	-3.206551	-1.919086	2.839722	1.576797	-0.416016	-0.090576	0.796875	0.036344	0.009987	-0.058377	-0.046120	-0.865739	-0.236829	-0.438498	154.803631	-47.510834	41.834328
32887		3.769663	0.493111	-6.537022	-3.135184	0.391437	-2.942570	-1.647084	3.063415	1.731608	-0.454346	-0.096924	0.780029	0.036648	0.004710	-0.065976	-0.045813	-0.860556	-0.226321	-0.454008	154.021046	-49.522581	41.616189
32888		4.055020	0.201372	-6.929771	-3.634148	0.639635	-2.679440	-1.379682	3.298416	1.974829	-0.482422	-0.111572	0.769775	0.039381	0.001925	-0.069967	-0.043514	-0.854837	-0.215359	-0.470086	153.456057	-51.716185	41.324190
32889		3.836077	-0.062414	-7.060273	-4.154226	0.660279	-2.966768	-1.106419	3.536195	2.193282	-0.517334	-0.105225	0.746094	0.037111	-0.000606	-0.071263	-0.039265	-0.848474	-0.204042	-0.486741	153.109864	-54.091162	40.960563
32890		3.251255	-0.292403	-7.112800	-4.742355	0.513982	-3.608875	-0.803576	3.706948	2.300531	-0.550293	-0.107666	0.737061	0.031220	-0.002847	-0.071703	-0.033271	-0.841463	-0.192964	-0.503586	152.965453	-56.580126	40.576201
32891		3.117432	-0.114170	-7.321996	-5.132153	0.135811	-3.731745	-0.512978	3.839023	2.348545	-0.583252	-0.091553	0.711426	0.029773	-0.000975	-0.073798	-0.025798	-0.833788	-0.182318	-0.520473	152.999205	-59.151032	40.186319
32892		3.213671	0.045372	-7.559385	-5.465642	-0.177864	-3.684080	-0.122872	3.980285	2.372210	-0.617676	-0.082031	0.688477	0.030616	0.000776	-0.076214	-0.016486	-0.825383	-0.172534	-0.537311	153.261563	-61.797910	39.803831
32893		3.596076	0.716359	-7.820773	-5.596908	-0.934003	-3.301216	0.246823	4.143808	2.388750	-0.653564	-0.061279	0.663086	0.034241	0.007677	-0.078920	-0.005461	-0.816122	-0.163572	-0.554220	153.743358	-64.533260	39.420089
32894		4.460729	1.701048	-8.095036	-5.541073	-1.924796	-2.471342	0.464765	4.357641	2.416986	-0.677979	-0.045898	0.632813	0.042619	0.017723	-0.081853	0.006716	-0.805812	-0.155027	-0.571480	154.367624	-67.382392	39.028142
32895		5.403522	2.723305	-8.233138	-5.397164	-2.991207	-1.670281	0.598492	4.576431	2.430795	-0.714355	-0.031250	0.614746	0.051796	0.028120	-0.083450	0.019631	-0.794353	-0.146683	-0.589153	155.090482	-70.347651	38.619026
32896		5.508912	3.865332	-7.756350	-4.919755	-4.280220	-1.881682	0.659746	4.689092	2.416709	-0.742432	-0.010254	0.564697	0.052778	0.039559	-0.078690	0.032821	-0.782000	-0.138481	-0.606813	155.936293	-73.364568	38.126865
32897		5.768569	4.391539	-7.293951	-4.569511	-4.947411	-2.042107	0.611570	4.673826	2.437703	-0.776367	0.008545	0.539795	0.055420	0.044826	-0.074116	0.045844	-0.769162	-0.129937	-0.624023	157.103275	-76.376223	37.278942
32898		7.159642	5.111441	-6.588679	-3.744079	-5.593595	-1.125623	0.488772	4.562657	2.478330	-0.797607	0.028320	0.512695	0.069429	0.052147	-0.067361	0.058426	-0.756195	-0.120807	-0.640438	158.992916	-79.329694	35.632962
32899		8.924215	5.305279	-6.214310	-3.400452	-5.844411	0.219984	0.232650	4.375726	2.540262	-0.825195	0.056396	0.479492	0.087171	0.054243	-0.064003	0.070075	-0.743439	-0.110582	-0.655866	162.533545	-82.175713	32.179361
32900		9.964250	4.584243	-6.194160	-3.805092	-5.436919	0.892403	-0.005728	4.121293	2.612710	-0.844238	0.077637	0.446777	0.097728	0.047126	-0.063970	0.080903	-0.731182	-0.099343	-0.670044	170.546092	-84.823879	24.113849
32901		10.493804	3.347322	-5.780256	-4.029229	-4.487275	1.065654	-0.071359	3.810317	2.578290	-0.859863	0.087646	0.417480	0.103369	0.034792	-0.059794	0.091165	-0.719564	-0.088068	-0.682759	-167.906100	-87.006900	2.473236
32902		10.549215	2.010461	-5.763009	-4.664540	-3.533993	0.877132	-0.042958	3.427252	2.339368	-0.878906	0.116943	0.391357	0.104239	0.021316	-0.059428	0.100513	-0.708792	-0.077894	-0.693862	-116.178718	-87.803867	-49.323976
32903		10.255694	1.603145	-5.337981	-4.633713	-3.323352	0.371263	0.167574	3.011240	1.967107	-0.884033	0.119141	0.364746	0.101573	0.017079	-0.054900	0.109099	-0.698944	-0.069936	-0.703337	-76.323455	-86.806407	-89.124867
32904		9.581033	1.329698	-5.507354	-5.083414	-3.306646	-0.479367	0.427029	2.574533	1.503946	-0.903320	0.147949	0.337158	0.094987	0.014133	-0.056270	0.116796	-0.690136	-0.064742	-0.711252	-60.539389	-85.447071	-104.698439
32905		8.200963	1.026744	-5.501150	-5.282404	-3.090995	-1.995427	0.815898	2.130188	1.022075	-0.906982	0.152588	0.325439	0.081363	0.010911	-0.055837	0.123938	-0.682395	-0.062827	-0.717655	-52.417040	-84.280827	-112.386304
32906		7.043802	1.462753	-5.892668	-5.594582	-3.641421	-3.338406	1.141505	1.688679	0.514007	-0.901611	0.170166	0.311523	0.069899	0.015146	-0.059433	0.130230	-0.675784	-0.064093	-0.722667	-46.757478	-83.427525	-117.420710
32907		7.009925	2.776849	-5.162529	-4.573223	-4.795260	-3.520481	1.349219	1.190076	0.004195	-0.909912	0.161133	0.298340	0.069791	0.028119	-0.051852	0.135191	-0.670616	-0.068139	-0.726192	-42.064325	-82.938779	-121.371272
32908		7.126826	4.138424	-4.422743	-3.482716	-5.949154	-3.491531	1.312114	0.646563	-0.384160	-0.923584	0.165039	0.295898	0.071205	0.041537	-0.044186	0.138442	-0.667264	-0.073726	-0.728119	-38.115857	-82.797216	-124.592998
32909		6.972821	5.170210	-4.094866	-2.820177	-6.824448	-3.681416	1.021999	0.080805	-0.646190	-0.917725	0.170410	0.285400	0.069879	0.051685	-0.040713	0.139529	-0.666052	-0.079507	-0.728413	-34.978428	-82.982296	-127.167918
32910		6.927884	5.225899	-3.988199	-2.654974	-6.811753	-3.667630	0.595958	-0.445514	-0.822719	-0.919922	0.154297	0.292969	0.069582	0.052091	-0.039572	0.138368	-0.666955	-0.084701	-0.727222	-32.594138	-83.457580	-129.225249
32911		6.778416	5.131690	-4.132865	-2.769691	-6.696703	-3.742806	0.078683	-0.907033	-0.928954	-0.908936	0.155762	0.298828	0.068208	0.051017	-0.041000	0.134868	-0.669832	-0.088676	-0.724757	-30.957270	-84.182397	-130.829309
32912		6.632399	4.675865	-4.378901	-3.101983	-6.249491	-3.783841	-0.418687	-1.278911	-0.964759	-0.903076	0.145264	0.312744	0.066827	0.046346	-0.043460	0.129427	-0.674332	-0.091223	-0.721252	-30.169133	-85.095779	-131.861961
32913		8.349469	3.769902	-0.368709	0.369888	-4.174936	-1.658331	-0.784754	-1.411867	-0.920872	-0.896240	0.136230	0.321777	0.083691	0.037301	-0.003244	0.122812	-0.679524	-0.092375	-0.717378	-30.044042	-86.063473	-132.441322
32914		13.977001	-0.306077	6.768552	5.776221	1.645067	4.511773	-1.001135	-1.063952	-0.642508	-0.898438	0.126953	0.325684	0.139397	-0.003168	0.068443	0.116639	-0.683670	-0.091590	-0.714564	-30.564291	-86.776872	-132.494928
32915		17.707311	0.717946	9.476006	8.643699	1.309862	8.282300	-1.558108	-0.526045	-0.430895	-0.896484	0.121338	0.341064	0.176839	0.007539	0.095168	0.109532	-0.686277	-0.087769	-0.713669	-30.444514	-87.164900	-133.511197
32916		16.798139	7.440540	8.980918	10.068229	-5.363196	7.159632	-2.658091	-0.391813	-0.545727	-0.899170	0.105225	0.342773	0.168011	0.075135	0.089143	0.098310	-0.688859	-0.080335	-0.713690	-28.641896	-87.515953	-136.840499
32917		14.518787	1.503485	-1.127254	-1.157010	-2.096983	4.629909	-3.677189	-0.819719	-0.602558	-0.890137	0.083496	0.352783	0.145277	0.014394	-0.010946	0.083156	-0.693260	-0.069649	-0.712478	-28.896181	-88.096647	-138.696330
32918		13.338663	-10.001141	-7.335866	-9.434177	8.084494	3.505274	-3.120589	-1.343442	-0.357976	-0.887207	0.064941	0.366211	0.133688	-0.101369	-0.070887	0.070613	-0.699149	-0.060293	-0.708921	-41.253203	-88.848396	-128.123930
32919		12.597051	-17.243157	-5.844499	-8.876945	15.765666	2.946507	-1.444497	-1.461165	-0.240484	-0.876465	0.063232	0.376465	0.126179	-0.172995	-0.056276	0.064273	-0.704764	-0.056493	-0.704262	-88.797886	-89.368286	-81.404516
32920		10.113679	-11.122003	-5.691685	-7.438261	9.916406	0.420432	0.306939	-1.361025	-0.718805	-0.876221	0.062012	0.379150	0.101121	-0.111497	-0.056400	0.062466	-0.709265	-0.060512	-0.699557	-163.627868	-89.197610	-6.394530
32921		6.553456	-1.816861	-6.500425	-6.590324	0.677567	-3.133474	0.686023	-1.343348	-1.230081	-0.875000	0.049072	0.394287	0.065857	-0.018351	-0.064625	0.060201	-0.713381	-0.067653	-0.694900	163.226014	-88.385336	27.149009
32922		7.483719	-0.310688	-6.289599	-6.006174	-0.700746	-2.125365	0.886395	-1.374604	-1.265875	-0.853271	0.044678	0.402100	0.075247	-0.003305	-0.062394	0.058525	-0.717455	-0.075627	-0.690010	153.515475	-87.379496	37.373848
32923		10.181775	3.602010	-4.375021	-3.168031	-4.025930	0.653259	0.669459	-1.326690	-0.982808	-0.851807	0.037354	0.411621	0.102280	0.035663	-0.042953	0.057042	-0.721476	-0.081808	-0.685219	151.301843	-86.441625	39.972606
32924		11.697289	8.533569	-3.859213	-1.488320	-8.585008	2.378333	-0.075363	-1.225894	-0.794236	-0.846191	0.035400	0.420410	0.117544	0.084855	-0.037905	0.053574	-0.725385	-0.084731	-0.681004	150.546110	-85.605102	40.686723
32925		10.855255	7.527369	-3.846522	-1.645583	-7.508558	1.598047	-0.868618	-1.039474	-0.830401	-0.843750	0.025146	0.432373	0.109062	0.074655	-0.038224	0.047164	-0.728823	-0.085024	-0.677763	148.812470	-84.847656	41.925101
32926		9.605970	3.443529	-3.900662	-2.520871	-3.449916	0.241619	-1.231005	-0.916647	-0.850672	-0.832764	0.012207	0.438232	0.096382	0.033787	-0.038775	0.039431	-0.731862	-0.084133	-0.675089	146.802361	-84.142370	43.235771
32927		9.937542	1.166173	-3.774449	-2.733618	-1.042042	0.473290	-1.031576	-0.804410	-0.600688	-0.834961	0.001953	0.449951	0.099560	0.011169	-0.037403	0.033298	-0.734550	-0.082971	-0.672639	145.981804	-83.565031	43.464902
32928		9.641798	-0.343786	-3.442692	-2.627272	0.559957	0.072547	-0.552426	-0.655362	-0.329337	-0.830811	-0.002686	0.441406	0.096524	-0.003691	-0.034101	0.029916	-0.736732	-0.082398	-0.670478	146.179449	-83.147228	42.947128
32929		8.483518	-1.059778	-2.811474	-2.173092	1.316022	-1.178853	-0.051881	-0.525811	-0.298692	-0.822266	-0.003906	0.455566	0.084893	-0.010732	-0.027889	0.028515	-0.738418	-0.083367	-0.668562	146.406833	-82.798527	42.686332
32930		8.098162	-1.370417	-2.748934	-2.163169	1.624145	-1.584827	0.464447	-0.416406	-0.320874	-0.815674	-0.006836	0.449951	0.081017	-0.013771	-0.027353	0.029010	-0.739636	-0.086130	-0.666842	146.559733	-82.497141	42.800342
32931		8.919888	-0.092837	-2.432695	-1.533438	0.505060	-0.708599	0.909775	-0.348217	-0.320271	-0.822266	-0.006348	0.459717	0.089240	-0.000961	-0.024176	0.031165	-0.740560	-0.090361	-0.665158	146.806962	-82.226433	43.075016
32932		10.714532	1.253882	-1.861274	-0.524064	-0.533563	1.108768	0.965649	-0.316612	-0.412853	-0.820068	-0.004639	0.468262	0.107200	0.012407	-0.018383	0.033250	-0.741296	-0.095115	-0.663572	146.702388	-81.944043	43.739054
32933		11.261120	2.846520	-1.570706	0.156025	-1.944455	1.744860	0.767158	-0.300922	-0.518142	-0.823975	0.006104	0.467041	0.112708	0.028233	-0.015429	0.034237	-0.741955	-0.099592	-0.662127	146.137704	-81.632936	44.751599
32934		9.980075	3.461446	-1.231305	0.518272	-2.558987	0.496638	0.329389	-0.362853	-0.505605	-0.820557	-0.002197	0.476563	0.099910	0.034382	-0.012075	0.033630	-0.742875	-0.102586	-0.660668	145.553013	-81.297367	45.533536
32935		9.476170	3.442336	-0.713155	1.001629	-2.446951	-0.057434	-0.221220	-0.459629	-0.409106	-0.820801	-0.003174	0.486816	0.094848	0.034222	-0.006952	0.031231	-0.744260	-0.103418	-0.659095	145.195288	-80.944412	45.766045
32936		9.768765	2.507693	-0.824711	0.773226	-1.476294	0.168289	-0.598135	-0.531872	-0.325517	-0.806152	-0.020020	0.477295	0.097750	0.024894	-0.008062	0.027683	-0.745962	-0.102707	-0.657439	145.026468	-80.586975	45.589737
32937		9.741176	1.505578	-1.019451	0.425203	-0.490792	0.075416	-0.745635	-0.567142	-0.293822	-0.819336	-0.024658	0.477783	0.097462	0.014875	-0.009974	0.023650	-0.747812	-0.101394	-0.655696	144.927919	-80.221088	45.254577
32938		9.761128	0.818955	-0.659005	0.695285	0.286620	-0.023984	-0.679425	-0.569625	-0.304176	-0.809082	-0.029053	0.484375	0.097642	0.008019	-0.006339	0.019849	-0.749629	-0.100336	-0.653908	144.835478	-79.853107	44.953052
32939		9.979605	0.620400	-0.908355	0.490060	0.510549	0.202369	-0.493957	-0.557247	-0.305452	-0.800049	-0.031250	0.485107	0.099830	0.006030	-0.008820	0.016725	-0.751383	-0.099884	-0.652049	144.814485	-79.488178	44.684929
32940		9.552475	0.466084	-1.063712	0.302249	0.624479	-0.214934	-0.287652	-0.533490	-0.320588	-0.790283	-0.039307	0.492188	0.095560	0.004493	-0.010389	0.014357	-0.753012	-0.100160	-0.650180	144.824105	-79.131757	44.507277
32941		8.790222	-0.231624	-1.028648	0.158978	1.251509	-1.049813	-0.049734	-0.523512	-0.341534	-0.796875	-0.038818	0.498535	0.087925	-0.002469	-0.010056	0.012803	-0.754585	-0.101285	-0.648212	144.895516	-78.770750	44.403693
32942		8.837073	-0.016281	-0.879676	0.388826	1.107751	-1.009882	0.186616	-0.532261	-0.396083	-0.789551	-0.036133	0.502197	0.088393	-0.000330	-0.008562	0.011979	-0.756124	-0.103383	-0.646100	144.984438	-78.389990	44.421919
32943		9.318736	0.475574	-0.627106	0.833519	0.775972	-0.530392	0.308286	-0.562369	-0.437596	-0.780273	-0.045166	0.515869	0.093215	0.004561	-0.006002	0.011448	-0.757731	-0.106031	-0.643793	145.094789	-77.979255	44.488157
32944		9.527249	1.235014	-0.668864	1.008026	0.106206	-0.235983	0.324501	-0.599407	-0.455972	-0.784180	-0.043457	0.517578	0.095320	0.012143	-0.006383	0.010917	-0.759425	-0.108801	-0.641340	145.228622	-77.547333	44.541320
32945		9.614363	1.806518	-0.658175	1.191607	-0.385947	-0.088322	0.208556	-0.648932	-0.432727	-0.774170	-0.051025	0.516357	0.096203	0.017864	-0.006251	0.009973	-0.761295	-0.111109	-0.638738	145.412863	-77.097446	44.473030
32946		9.454286	1.673693	-0.632165	1.227457	-0.227624	-0.271962	0.029969	-0.704342	-0.406072	-0.770996	-0.048340	0.520508	0.094598	0.016546	-0.005986	0.008423	-0.763342	-0.112750	-0.636024	145.617069	-76.632231	44.280831
32947		9.329209	1.720457	-0.596951	1.312273	-0.238361	-0.401469	-0.128158	-0.783189	-0.405738	-0.769775	-0.049316	0.531250	0.093349	0.017012	-0.005615	0.006207	-0.765642	-0.113885	-0.633075	145.822055	-76.127492	43.992568
32948		9.137407	1.314442	-0.773846	1.100766	0.148791	-0.615712	-0.248769	-0.866771	-0.417367	-0.759766	-0.060791	0.541992	0.091434	0.012944	-0.007358	0.003464	-0.768177	-0.114685	-0.629873	146.025147	-75.581265	43.635996
32949		9.082312	1.019332	-0.863317	1.022191	0.467514	-0.701783	-0.296151	-0.914649	-0.456798	-0.760254	-0.061035	0.540771	0.090884	0.009973	-0.008233	0.000369	-0.770830	-0.115483	-0.626486	146.167355	-74.997278	43.311837
32950		8.990325	1.372693	-1.087065	0.926011	0.132769	-0.701374	-0.285568	-0.964127	-0.487341	-0.751221	-0.078369	0.544434	0.089987	0.013493	-0.010456	-0.002791	-0.773588	-0.116431	-0.622895	146.302563	-74.381930	43.001875
32951		8.935525	1.226709	-1.451021	0.615343	0.274608	-0.702309	-0.229984	-0.975576	-0.504066	-0.742920	-0.076172	0.558838	0.089455	0.012025	-0.014088	-0.005814	-0.776356	-0.117610	-0.619197	146.436024	-73.753583	42.724133
32952		9.172116	1.214960	-1.192553	0.990077	0.427781	-0.546517	-0.107759	-0.974837	-0.508413	-0.734619	-0.083252	0.559570	0.091808	0.011910	-0.011485	-0.008357	-0.779091	-0.119183	-0.615421	146.616380	-73.126050	42.471419
32953		9.345888	1.759277	-1.563119	0.850017	-0.055869	-0.212820	-0.000276	-0.971724	-0.479511	-0.731201	-0.087891	0.566162	0.093575	0.017368	-0.015177	-0.010409	-0.781823	-0.120967	-0.611565	146.881786	-72.506744	42.191409
32954		9.417754	2.130811	-2.168320	0.437241	-0.424947	0.064733	0.051799	-0.939586	-0.415681	-0.718750	-0.090576	0.569580	0.094322	0.021118	-0.021235	-0.012024	-0.784467	-0.122663	-0.607800	147.222670	-71.924420	41.864446
32955		9.166063	2.427205	-2.281727	0.409549	-0.727761	-0.095890	0.100656	-0.925092	-0.380826	-0.710449	-0.095215	0.580566	0.091811	0.024109	-0.022381	-0.013351	-0.787080	-0.124364	-0.604037	147.606012	-71.357202	41.519144
32956		8.879699	2.738553	-2.724017	0.059438	-1.099433	-0.192087	0.032458	-0.931378	-0.352628	-0.708984	-0.100586	0.585205	0.088971	0.027233	-0.026822	-0.014846	-0.789696	-0.125748	-0.600289	147.975712	-70.796874	41.147842
32957		8.841269	2.881364	-3.008893	-0.112429	-1.235053	-0.118101	-0.054104	-0.937404	-0.322112	-0.689697	-0.098877	0.594727	0.088599	0.028663	-0.029682	-0.016617	-0.792332	-0.126743	-0.596549	148.320644	-70.239967	40.746498
32958		8.873351	2.938644	-3.284973	-0.274847	-1.270195	0.009398	-0.157031	-0.940268	-0.298327	-0.695313	-0.104248	0.604980	0.088930	0.029228	-0.032455	-0.018703	-0.794954	-0.127339	-0.592860	148.622491	-69.690175	40.329298
32959		8.904491	2.607370	-3.409231	-0.364701	-0.908588	0.023570	-0.238246	-0.933407	-0.284072	-0.678467	-0.108398	0.598877	0.089240	0.025907	-0.033707	-0.021089	-0.797547	-0.127629	-0.589224	148.870885	-69.145109	39.915457
32960		9.081536	2.292237	-3.441081	-0.324467	-0.517277	0.147037	-0.281131	-0.925025	-0.273910	-0.681885	-0.113770	0.610840	0.091005	0.022750	-0.034022	-0.023586	-0.800087	-0.127755	-0.585648	149.086415	-68.608768	39.511578
32961		9.071968	2.142359	-3.513795	-0.344216	-0.333105	0.137535	-0.272956	-0.900654	-0.260218	-0.671875	-0.117676	0.614258	0.090905	0.021258	-0.034758	-0.026018	-0.802555	-0.127844	-0.582138	149.288663	-68.085676	39.122889
