// General information: 
//  MT Manager version: 2021.4.0 
//  XDA version: 2021.4.0 build 6323 rev 112641 built on 2021-09-28
// Device information: 
//  DeviceId: 00B4778F
//  ProductCode: MTW2-3A7G6
//  Firmware Version: 4.6.0
//  Hardware Version: 2.0.0
// Device settings: 
//  Filter Profile: human(46.1)
//  Option Flags: Orientation Smoother Disabled, Position/Velocity Smoother Disabled, Continuous Zero Rotation Update Disabled, AHS Disabled, ICC Disabled
// Coordinate system: ENU
PacketCounter	SampleTimeFine	Acc_X	Acc_Y	Acc_Z	FreeAcc_E	FreeAcc_N	FreeAcc_U	Gyr_X	Gyr_Y	Gyr_Z	Mag_X	Mag_Y	Mag_Z	VelInc_X	VelInc_Y	VelInc_Z	Quat_q0	Quat_q1	Quat_q2	Quat_q3	Roll	Pitch	Yaw
39926		9.139856	0.937910	2.469249	0.114742	1.058256	-0.358548	-0.175022	-0.082347	0.080681	-0.806885	-0.258789	-0.690674	0.091385	0.009438	0.024722	-0.786729	-0.152511	0.561161	-0.207114	1.331120	-71.109274	28.546684
39927		9.083601	0.896482	2.415616	0.150612	1.045467	-0.429991	-0.212961	-0.108695	0.083405	-0.812744	-0.261230	-0.691650	0.090819	0.009028	0.024196	-0.786495	-0.151561	0.561880	-0.206748	1.077616	-71.173910	28.685455
39928		9.029142	0.857863	2.317975	0.219847	1.055568	-0.513668	-0.242068	-0.129719	0.081493	-0.815430	-0.251709	-0.697021	0.090273	0.008644	0.023228	-0.786225	-0.150525	0.562710	-0.206276	0.810318	-71.250472	28.821125
39929		9.093946	0.771403	2.530169	0.089432	0.897598	-0.384911	-0.269043	-0.144095	0.097331	-0.810303	-0.247559	-0.684082	0.090917	0.007792	0.025357	-0.785917	-0.149351	0.563634	-0.205779	0.498837	-71.335047	28.987057
39930		9.162397	0.720324	2.700448	-0.026614	0.791295	-0.266280	-0.282093	-0.179987	0.098872	-0.818359	-0.251953	-0.689209	0.091596	0.007287	0.027077	-0.785514	-0.148155	0.564714	-0.205220	0.175329	-71.440029	29.157156
39931		9.343184	0.681756	2.856391	-0.110948	0.719133	-0.045942	-0.277142	-0.233255	0.109519	-0.817627	-0.250732	-0.686768	0.093395	0.006908	0.028663	-0.784943	-0.147006	0.566003	-0.204681	-0.166480	-71.575081	29.349966
39932		9.625516	0.517445	2.800507	0.063662	0.649800	0.204037	-0.292951	-0.267202	0.114256	-0.818359	-0.245361	-0.691162	0.096215	0.005271	0.028126	-0.784279	-0.145817	0.567443	-0.204090	-0.529249	-71.729392	29.555366
39933		9.943303	0.189949	2.614183	0.433080	0.502180	0.448867	-0.304061	-0.244686	0.101192	-0.826660	-0.235352	-0.687500	0.099400	0.001990	0.026260	-0.783697	-0.144597	0.568793	-0.203432	-0.880436	-71.870284	29.741486
39934		10.079367	-0.071333	2.558204	0.615214	0.323487	0.563244	-0.290571	-0.188733	0.076064	-0.814697	-0.231934	-0.687744	0.100770	-0.000638	0.025678	-0.783289	-0.143441	0.569891	-0.202750	-1.181616	-71.979164	29.882532
39935		10.003894	-0.311646	2.586657	0.663717	0.090255	0.503179	-0.267861	-0.170206	0.043178	-0.822266	-0.234375	-0.680664	0.100018	-0.003060	0.025956	-0.782947	-0.142450	0.570868	-0.202020	-1.413526	-72.077537	29.964820
39936		9.901840	-0.461596	2.623344	0.656568	-0.074379	0.419848	-0.235547	-0.174034	0.021485	-0.819580	-0.231689	-0.678955	0.098996	-0.004574	0.026325	-0.782592	-0.141649	0.571811	-0.201290	-1.589965	-72.178404	30.007641
39937		9.752133	-0.582041	2.590593	0.681882	-0.191906	0.269585	-0.187238	-0.179027	0.000976	-0.814453	-0.225342	-0.678711	0.097498	-0.005796	0.025999	-0.782207	-0.141103	0.572708	-0.200618	-1.703535	-72.282367	30.014076
39938		9.550984	-0.517297	2.491332	0.662649	-0.126374	0.048373	-0.160643	-0.180888	-0.003098	-0.823730	-0.228027	-0.679199	0.095487	-0.005154	0.025004	-0.781802	-0.140672	0.573583	-0.200000	-1.795133	-72.387560	30.012871
39939		9.317161	-0.506496	2.428738	0.630324	-0.130165	-0.192369	-0.142813	-0.193451	0.002934	-0.821045	-0.221680	-0.677979	0.093148	-0.005046	0.024381	-0.781340	-0.140308	0.574491	-0.199453	-1.888833	-72.499739	30.025153
39940		9.073448	-0.236003	2.535781	0.329488	0.017604	-0.394384	-0.135158	-0.207928	0.013966	-0.830566	-0.221680	-0.673584	0.090708	-0.002337	0.025454	-0.780819	-0.139953	0.575457	-0.198955	-1.999964	-72.620104	30.059557
39941		8.915626	-0.086808	2.588125	0.153057	0.097517	-0.530374	-0.149052	-0.227529	0.042194	-0.829834	-0.229248	-0.678467	0.089127	-0.000830	0.025983	-0.780222	-0.139485	0.576531	-0.198518	-2.173338	-72.750961	30.151535
39942		8.762918	0.157779	2.693216	-0.113688	0.240810	-0.647750	-0.148998	-0.251191	0.071156	-0.827881	-0.218018	-0.675537	0.087595	0.001629	0.027041	-0.779526	-0.138955	0.577718	-0.198174	-2.404212	-72.894819	30.303249
39943		8.754769	0.248207	2.695752	-0.187283	0.316969	-0.656320	-0.171505	-0.282218	0.097444	-0.823486	-0.220215	-0.681641	0.087508	0.002548	0.027079	-0.778728	-0.138294	0.579062	-0.197848	-2.703358	-73.055341	30.513164
39944		8.870191	0.174753	2.691675	-0.151077	0.270302	-0.546622	-0.183264	-0.313714	0.111682	-0.829590	-0.201172	-0.675049	0.088659	0.001822	0.027054	-0.777833	-0.137571	0.580550	-0.197515	-3.044166	-73.233036	30.758351
39945		9.125651	0.095639	2.669002	-0.065511	0.246602	-0.307688	-0.196588	-0.339847	0.103748	-0.828369	-0.211182	-0.669189	0.091210	0.001030	0.026844	-0.776873	-0.136850	0.582144	-0.197101	-3.386611	-73.425602	30.998070
39946		9.430484	-0.005587	2.668134	0.020944	0.198728	-0.014067	-0.190390	-0.349423	0.084561	-0.837891	-0.218262	-0.672852	0.094258	0.000009	0.026846	-0.775900	-0.136209	0.583755	-0.196613	-3.696695	-73.623908	31.205967
39947		9.691619	-0.164839	2.600920	0.178907	0.119437	0.220909	-0.216286	-0.345905	0.048665	-0.841309	-0.212158	-0.666992	0.096871	-0.001597	0.026179	-0.774984	-0.135577	0.585349	-0.195921	-3.956265	-73.821299	31.347106
39948		9.805500	-0.262316	2.540639	0.267421	0.066815	0.316252	-0.223594	-0.343089	0.007179	-0.845215	-0.211426	-0.657227	0.098011	-0.002591	0.025577	-0.774119	-0.135034	0.586910	-0.195044	-4.141129	-74.018696	31.405624
39949		9.888248	-0.370875	2.478607	0.357216	-0.003447	0.381957	-0.223503	-0.327977	-0.043457	-0.845703	-0.205811	-0.654541	0.098841	-0.003702	0.024952	-0.773344	-0.134626	0.588375	-0.193985	-4.225068	-74.209442	31.359583
39950		9.863764	-0.419771	2.441106	0.377334	-0.050280	0.350189	-0.222383	-0.297500	-0.088156	-0.844238	-0.208252	-0.650635	0.098599	-0.004214	0.024562	-0.772697	-0.134322	0.589690	-0.192773	-4.212472	-74.384956	31.213695
39951		9.760245	-0.423082	2.384723	0.378911	-0.061775	0.236235	-0.205369	-0.279069	-0.121494	-0.840576	-0.199463	-0.650879	0.097566	-0.004266	0.023988	-0.772124	-0.134165	0.590892	-0.191498	-4.116964	-74.550997	30.992269
39952		9.602109	-0.363596	2.424570	0.259378	-0.068145	0.093838	-0.197273	-0.277480	-0.140905	-0.843262	-0.205322	-0.650635	0.095985	-0.003680	0.024383	-0.771566	-0.134093	0.592066	-0.190167	-3.972225	-74.717007	30.724271
39953		9.480730	-0.414350	2.506500	0.163202	-0.186958	-0.000613	-0.171123	-0.279865	-0.157923	-0.839600	-0.194580	-0.655273	0.094769	-0.004197	0.025201	-0.770996	-0.134176	0.593209	-0.188850	-3.772535	-74.884608	30.415572
39954		9.273047	-0.368866	2.562381	0.028381	-0.220779	-0.187635	-0.131737	-0.267553	-0.168670	-0.849854	-0.206299	-0.646973	0.092693	-0.003750	0.025750	-0.770446	-0.134426	0.594261	-0.187610	-3.519596	-75.045361	30.074491
39955		9.094484	-0.340770	2.617040	-0.088744	-0.265669	-0.347164	-0.106997	-0.260474	-0.178618	-0.844971	-0.193604	-0.641113	0.090908	-0.003475	0.026291	-0.769906	-0.134798	0.595251	-0.186415	-3.223868	-75.201855	29.704907
39956		8.987645	-0.404168	2.558293	-0.049252	-0.334687	-0.465417	-0.091390	-0.257015	-0.188624	-0.850830	-0.194580	-0.644531	0.089840	-0.004115	0.025700	-0.769373	-0.135254	0.596208	-0.185225	-2.889427	-75.356365	29.304167
39957		8.896575	-0.389578	2.567127	-0.098923	-0.361199	-0.552523	-0.079849	-0.258889	-0.191342	-0.849854	-0.204834	-0.636719	0.088929	-0.003971	0.025788	-0.768826	-0.135766	0.597155	-0.184063	-2.535092	-75.511195	28.890625
39958		8.836280	-0.359105	2.576874	-0.149905	-0.370073	-0.609993	-0.070700	-0.269526	-0.186887	-0.852539	-0.198730	-0.636963	0.088325	-0.003664	0.025889	-0.768236	-0.136307	0.598139	-0.182931	-2.177676	-75.671555	28.478924
39959		8.804286	-0.381201	2.577040	-0.164219	-0.418798	-0.642111	-0.069745	-0.291098	-0.186579	-0.859131	-0.203369	-0.646973	0.088002	-0.003885	0.025900	-0.767578	-0.136873	0.599200	-0.181794	-1.813734	-75.843420	28.062044
39960		8.745098	-0.351508	2.584106	-0.215199	-0.427660	-0.699586	-0.061350	-0.314086	-0.179122	-0.849609	-0.201416	-0.633057	0.087407	-0.003585	0.025979	-0.766836	-0.137465	0.600347	-0.180688	-1.453418	-76.027853	27.653393
39961		8.784645	-0.321300	2.555700	-0.216586	-0.410314	-0.669960	-0.057448	-0.345999	-0.174813	-0.851563	-0.211182	-0.633545	0.087799	-0.003282	0.025710	-0.765989	-0.138092	0.601612	-0.179594	-1.092540	-76.229710	27.247602
39962		8.828260	-0.337576	2.603440	-0.265795	-0.467594	-0.618089	-0.052664	-0.371313	-0.161668	-0.857666	-0.197998	-0.618896	0.088231	-0.003440	0.026199	-0.765048	-0.138716	0.602978	-0.178541	-0.749006	-76.445516	26.862186
39963		8.862672	-0.335131	2.638283	-0.316071	-0.503916	-0.578736	-0.049145	-0.384235	-0.157754	-0.862793	-0.202393	-0.632324	0.088573	-0.003415	0.026554	-0.764058	-0.139356	0.604389	-0.177509	-0.401892	-76.667981	26.476174
39964		8.889245	-0.353973	2.697470	-0.381878	-0.571010	-0.541857	-0.032166	-0.407495	-0.143725	-0.862549	-0.202637	-0.621338	0.088835	-0.003599	0.027156	-0.762970	-0.140034	0.605882	-0.176559	-0.066718	-76.903361	26.111911
39965		8.898268	-0.374661	2.769585	-0.464254	-0.647901	-0.519965	-0.025080	-0.435600	-0.143454	-0.858887	-0.208496	-0.622559	0.088919	-0.003807	0.027890	-0.761788	-0.140767	0.607472	-0.175617	0.284532	-77.154185	25.736550
39966		8.964325	-0.388909	2.907252	-0.598123	-0.743166	-0.429070	-0.025431	-0.465367	-0.148271	-0.864258	-0.204834	-0.610840	0.089572	-0.003952	0.029281	-0.760516	-0.141534	0.609170	-0.174628	0.663669	-77.421636	25.331945
39967		9.121967	-0.422505	2.918491	-0.596674	-0.795215	-0.277605	-0.024181	-0.472970	-0.159678	-0.863281	-0.208252	-0.607178	0.091147	-0.004294	0.029401	-0.759225	-0.142351	0.610882	-0.173598	1.090313	-77.692575	24.880683
39968		9.224871	-0.426522	2.866229	-0.562746	-0.800151	-0.193003	-0.016531	-0.448811	-0.173087	-0.870850	-0.215088	-0.602539	0.092180	-0.004343	0.028870	-0.758010	-0.143212	0.612485	-0.172552	1.575664	-77.948836	24.373519
39969		9.377420	-0.484862	2.831898	-0.508958	-0.858081	-0.055883	-0.014929	-0.415560	-0.185576	-0.876221	-0.212891	-0.604492	0.093711	-0.004933	0.028514	-0.756901	-0.144091	0.613946	-0.171492	2.113775	-78.184741	23.814612
39970		9.631896	-0.618841	2.835690	-0.434482	-0.993267	0.188413	-0.011049	-0.390381	-0.201827	-0.873535	-0.211426	-0.601318	0.096257	-0.006284	0.028545	-0.755877	-0.145010	0.615294	-0.170394	2.718783	-78.404779	23.189483
39971		9.929136	-0.684604	2.859799	-0.398121	-1.074201	0.479169	0.012680	-0.361051	-0.204366	-0.879150	-0.209473	-0.585449	0.099232	-0.006949	0.028777	-0.754925	-0.146003	0.616506	-0.169386	3.363010	-78.606461	22.539317
39972		10.242355	-0.570468	2.738345	-0.305370	-0.930777	0.759449	0.052081	-0.300803	-0.213173	-0.875488	-0.217285	-0.588867	0.102376	-0.005821	0.027536	-0.754135	-0.147117	0.617450	-0.168503	4.066532	-78.771915	21.851328
39973		10.559451	-0.424318	2.783819	-0.366190	-0.829297	1.078125	0.078312	-0.209649	-0.206858	-0.876221	-0.212891	-0.591064	0.105561	-0.004363	0.027947	-0.753598	-0.148237	0.618029	-0.167797	4.764939	-78.883831	21.184998
39974		10.854081	-0.347281	2.843538	-0.405706	-0.795203	1.377504	0.109939	-0.128301	-0.193030	-0.872559	-0.223877	-0.598633	0.108519	-0.003593	0.028503	-0.753278	-0.149361	0.618285	-0.167295	5.432374	-78.948542	20.568078
39975		11.287149	-0.064011	2.911106	-0.509606	-0.565647	1.819108	0.150185	-0.038226	-0.157679	-0.874512	-0.217529	-0.590820	0.112865	-0.000751	0.029132	-0.753174	-0.150455	0.618193	-0.167124	5.998785	-78.962575	20.078484
39976		11.493886	0.191951	3.067579	-0.711357	-0.405996	2.056828	0.124152	0.089991	-0.106122	-0.874268	-0.219971	-0.585449	0.114954	0.001839	0.030625	-0.753443	-0.151180	0.617679	-0.167156	6.359456	-78.906037	19.782361
39977		11.314987	0.198681	3.145341	-0.794012	-0.448824	1.897548	0.062379	0.214877	-0.053966	-0.872803	-0.231201	-0.591797	0.113184	0.001946	0.031332	-0.754099	-0.151412	0.616784	-0.167295	6.489758	-78.781451	19.685810
39978		11.024628	0.135552	3.066566	-0.720289	-0.481686	1.598434	0.032410	0.323158	-0.009146	-0.871582	-0.216797	-0.591553	0.110296	0.001346	0.030488	-0.755074	-0.151297	0.615539	-0.167586	6.438811	-78.598129	19.755805
39979		10.524096	0.119285	3.025246	-0.732314	-0.494114	1.102546	-0.009739	0.429294	0.010405	-0.865723	-0.227539	-0.595703	0.105306	0.001200	0.030026	-0.756387	-0.150878	0.613940	-0.167907	6.278868	-78.355553	19.913175
39980		9.774446	0.076507	2.808079	-0.622862	-0.467655	0.327534	-0.054647	0.482237	0.003482	-0.868408	-0.221680	-0.599365	0.097812	0.000774	0.027845	-0.757899	-0.150260	0.612172	-0.168097	6.103404	-78.082312	20.059412
39981		9.249657	0.024140	2.507514	-0.396601	-0.400091	-0.245722	-0.098359	0.467084	-0.015283	-0.865723	-0.221436	-0.607422	0.092555	0.000247	0.024859	-0.759409	-0.149551	0.610478	-0.168075	5.963976	-77.816482	20.144188
39982		8.851094	-0.067185	2.225536	-0.152013	-0.371194	-0.694662	-0.124124	0.404416	-0.029486	-0.864014	-0.231201	-0.614258	0.088556	-0.000671	0.022077	-0.760755	-0.148834	0.609032	-0.167867	5.868197	-77.585490	20.168401
39983		8.814434	-0.051554	2.146399	-0.068522	-0.312574	-0.746184	-0.108985	0.288830	-0.034385	-0.863525	-0.220947	-0.608643	0.088175	-0.000519	0.021337	-0.761739	-0.148291	0.608006	-0.167606	5.825707	-77.420089	20.147794
39984		9.047913	-0.050827	2.147949	-0.003113	-0.286932	-0.517601	-0.080338	0.174983	-0.030446	-0.858154	-0.216064	-0.613037	0.090498	-0.000513	0.021401	-0.762352	-0.147937	0.607393	-0.167357	5.819330	-77.319807	20.106296
39985		9.368828	-0.025436	2.209575	0.009519	-0.262064	-0.190368	-0.047427	0.090408	-0.020957	-0.855225	-0.222168	-0.615723	0.093698	-0.000259	0.022053	-0.762674	-0.147753	0.607080	-0.167187	5.829280	-77.268290	20.068070
39986		9.680243	-0.085056	2.126606	0.179186	-0.254821	0.093864	-0.007897	0.052772	-0.011868	-0.860596	-0.227051	-0.618164	0.096808	-0.000855	0.021241	-0.762846	-0.147720	0.606885	-0.167138	5.848508	-77.238741	20.042642
39987		10.055486	-0.083147	2.089975	0.293924	-0.206474	0.451750	0.007075	0.073338	0.013477	-0.849609	-0.224609	-0.616943	0.100563	-0.000825	0.020863	-0.763048	-0.147654	0.606617	-0.167251	5.807302	-77.198957	20.088882
39988		10.311465	-0.190357	2.208396	0.298107	-0.328147	0.725007	0.035781	0.121670	0.039269	-0.851563	-0.222168	-0.621338	0.103128	-0.001887	0.022021	-0.763353	-0.147575	0.606160	-0.167581	5.706246	-77.133084	20.212655
39989		10.562703	-0.328448	2.285094	0.354631	-0.455702	0.983922	0.051896	0.152374	0.069218	-0.859131	-0.223633	-0.615723	0.105646	-0.003254	0.022770	-0.763714	-0.147445	0.605593	-0.168102	5.533769	-77.051323	20.419939
39990		10.691476	-0.360791	2.347723	0.354933	-0.486985	1.122872	0.051014	0.196979	0.091301	-0.842529	-0.225586	-0.616455	0.106939	-0.003565	0.023371	-0.764192	-0.147203	0.604874	-0.168732	5.298517	-76.945148	20.690417
39991		10.684026	-0.296839	2.338151	0.350308	-0.406895	1.115036	0.039281	0.226384	0.120267	-0.855469	-0.216797	-0.622070	0.106868	-0.002909	0.023260	-0.764740	-0.146807	0.604071	-0.169463	4.983729	-76.823390	21.036576
39992		10.545855	-0.389035	2.191744	0.507880	-0.414915	0.945563	0.046442	0.273211	0.145413	-0.856934	-0.213623	-0.625732	0.105491	-0.003819	0.021772	-0.765404	-0.146319	0.603102	-0.170342	4.609125	-76.675631	21.447807
39993		10.268761	-0.316075	2.366796	0.285446	-0.420229	0.717787	0.042498	0.321732	0.173960	-0.853271	-0.220459	-0.632324	0.102728	-0.003076	0.023502	-0.766189	-0.145692	0.601968	-0.171357	4.164481	-76.500731	21.929779
39994		9.938312	-0.257167	2.516620	0.081105	-0.430024	0.433186	0.031762	0.346457	0.185205	-0.851074	-0.211182	-0.630371	0.099429	-0.002484	0.024994	-0.767045	-0.144963	0.600756	-0.172395	3.695224	-76.311256	22.430187
39995		9.822979	-0.152578	2.433250	0.108189	-0.278445	0.303909	0.032184	0.383484	0.195708	-0.846680	-0.208496	-0.633545	0.098278	-0.001434	0.024144	-0.767998	-0.144177	0.599406	-0.173507	3.210499	-76.099990	22.948125
39996		9.673458	-0.097365	2.461012	0.054242	-0.221030	0.166786	0.023251	0.407544	0.197141	-0.847656	-0.214600	-0.639160	0.096785	-0.000881	0.024413	-0.769026	-0.143326	0.597970	-0.174607	2.729604	-75.873965	23.456306
39997		9.514518	-0.062064	2.516107	-0.015213	-0.194350	0.027156	0.012741	0.434963	0.184199	-0.839844	-0.201416	-0.643799	0.095200	-0.000535	0.024954	-0.770150	-0.142453	0.596425	-0.175652	2.285042	-75.630935	23.922335
39998		9.565095	0.022385	2.569397	-0.055798	-0.101877	0.090830	-0.026779	0.448423	0.175048	-0.834961	-0.206543	-0.645996	0.095708	0.000311	0.025479	-0.771347	-0.141437	0.594853	-0.176545	1.852052	-75.379132	24.352497
39999		9.566413	-0.118776	2.495956	0.103281	-0.161734	0.072814	-0.050137	0.466722	0.169493	-0.831055	-0.204102	-0.652588	0.095723	-0.001100	0.024737	-0.772614	-0.140337	0.593223	-0.177366	1.431587	-75.115967	24.757417
40000		9.389913	-0.134569	2.689370	-0.064023	-0.242315	-0.047532	-0.022609	0.485818	0.161824	-0.836182	-0.206543	-0.651123	0.093965	-0.001267	0.026666	-0.773922	-0.139341	0.591487	-0.178244	1.056304	-74.841052	25.131334
40001		9.218735	-0.230413	2.841691	-0.158957	-0.378500	-0.171907	-0.009341	0.477260	0.153135	-0.828369	-0.198486	-0.661621	0.092257	-0.002232	0.028197	-0.775197	-0.138436	0.589762	-0.179128	0.720346	-74.570371	25.473907
40002		9.123780	-0.272381	2.854319	-0.139681	-0.400921	-0.258407	0.032550	0.459421	0.143717	-0.820313	-0.200684	-0.667969	0.091305	-0.002663	0.028333	-0.776395	-0.137730	0.588059	-0.180079	0.439069	-74.309363	25.784065
40003		8.959836	-0.291520	2.854403	-0.137829	-0.408844	-0.414551	0.066139	0.438941	0.133575	-0.822754	-0.199463	-0.663818	0.089663	-0.002865	0.028346	-0.777513	-0.137208	0.586393	-0.181080	0.207233	-74.059696	26.064235
40004		8.948382	-0.226045	2.860448	-0.142427	-0.328675	-0.422354	0.093367	0.418175	0.110884	-0.822266	-0.200439	-0.671387	0.089545	-0.002224	0.028416	-0.778570	-0.136870	0.584767	-0.182051	0.043296	-73.821617	26.289235
40005		9.025287	-0.200321	2.772658	-0.027238	-0.236218	-0.371982	0.111201	0.399008	0.093375	-0.824951	-0.205322	-0.672607	0.090309	-0.001976	0.027545	-0.779570	-0.136675	0.583183	-0.182999	-0.070599	-73.594392	26.474101
40006		9.074075	-0.149328	2.644182	0.103698	-0.109677	-0.361235	0.122760	0.374283	0.072526	-0.812988	-0.196777	-0.680908	0.090791	-0.001477	0.026271	-0.780506	-0.136604	0.581669	-0.183876	-0.134224	-73.381253	26.612722
40007		9.086130	-0.087569	2.714397	0.048896	-0.065558	-0.329724	0.121770	0.355234	0.052323	-0.816406	-0.201416	-0.678711	0.090910	-0.000868	0.026982	-0.781402	-0.136609	0.580213	-0.184664	-0.157432	-73.179050	26.709630
40008		9.119097	0.005570	2.815698	-0.041667	-0.005766	-0.268880	0.098261	0.345449	0.036780	-0.809814	-0.200684	-0.679932	0.091239	0.000059	0.027999	-0.782300	-0.136570	0.578806	-0.185308	-0.163836	-72.982444	26.773864
40009		9.050696	0.046902	2.809604	-0.043666	0.039168	-0.335998	0.085430	0.344158	0.020837	-0.816650	-0.194824	-0.685059	0.090555	0.000466	0.027940	-0.783213	-0.136534	0.577402	-0.185858	-0.146954	-72.786631	26.807242
40010		8.943646	0.143734	2.923122	-0.183544	0.076323	-0.404472	0.075039	0.335492	0.017478	-0.807373	-0.202637	-0.683350	0.089485	0.001434	0.029082	-0.784110	-0.136468	0.576039	-0.186351	-0.129970	-72.595765	26.833180
40011		8.837358	0.251637	2.950737	-0.256602	0.159281	-0.497228	0.056783	0.316485	0.011209	-0.803223	-0.203125	-0.685791	0.088420	0.002513	0.029368	-0.784967	-0.136373	0.574760	-0.186761	-0.111746	-72.415824	26.848011
40012		8.809996	0.319288	3.000246	-0.311167	0.206778	-0.507860	0.044750	0.295000	0.012739	-0.799561	-0.201416	-0.689941	0.088144	0.003192	0.029873	-0.785769	-0.136240	0.573578	-0.187121	-0.103450	-72.248167	26.865083
40013		8.803104	0.359084	2.987639	-0.296792	0.258157	-0.517808	0.032645	0.273324	0.010071	-0.798584	-0.210938	-0.698486	0.088072	0.003590	0.029757	-0.786516	-0.136093	0.572488	-0.187427	-0.097080	-72.092959	26.877865
40014		8.875556	0.387332	3.043545	-0.316278	0.279941	-0.431310	0.012634	0.233285	0.008885	-0.795898	-0.199463	-0.696533	0.088791	0.003875	0.030332	-0.787164	-0.135902	0.571573	-0.187637	-0.100311	-71.960663	26.887717
40015		8.947214	0.317937	3.041431	-0.245541	0.238252	-0.363511	-0.014853	0.199775	0.001547	-0.797119	-0.210693	-0.694336	0.089502	0.003182	0.030325	-0.787739	-0.135661	0.570810	-0.187723	-0.106226	-71.847603	26.884812
40016		8.986489	0.187155	3.113875	-0.221399	0.104373	-0.303309	-0.031906	0.179925	-0.004706	-0.793457	-0.197510	-0.698730	0.089893	0.001874	0.031058	-0.788276	-0.135383	0.570137	-0.187716	-0.111238	-71.745892	26.869703
40017		8.978267	0.113402	3.162497	-0.217032	0.023579	-0.295553	-0.044145	0.165688	-0.024488	-0.794434	-0.200684	-0.698975	0.089809	0.001130	0.031550	-0.788796	-0.135133	0.569516	-0.187592	-0.088990	-71.652389	26.819454
40018		8.976826	0.130905	3.050561	-0.116893	0.091987	-0.331953	-0.060488	0.140939	-0.038610	-0.789795	-0.206543	-0.703857	0.089790	0.001301	0.030442	-0.789272	-0.134875	0.569000	-0.187342	-0.052388	-71.573029	26.743029
40019		9.013772	0.106623	2.989132	-0.031460	0.105328	-0.316253	-0.067837	0.122662	-0.047598	-0.792236	-0.202393	-0.705322	0.090156	0.001055	0.029836	-0.789707	-0.134637	0.568555	-0.187030	-0.004883	-71.504165	26.651795
40020		9.089996	0.138198	3.033848	-0.050953	0.127084	-0.229754	-0.074990	0.101244	-0.069593	-0.795898	-0.201904	-0.709229	0.090916	0.001362	0.030292	-0.790108	-0.134447	0.568188	-0.186590	0.075456	-71.447495	26.520527
40021		9.226083	0.106801	3.027953	0.017193	0.120557	-0.102606	-0.078518	0.090448	-0.082609	-0.786865	-0.202148	-0.708984	0.092275	0.001042	0.030237	-0.790490	-0.134296	0.567856	-0.186088	0.175511	-71.396967	26.367337
40022		9.383271	0.049550	2.962121	0.154280	0.117913	0.025233	-0.067939	0.095368	-0.093229	-0.790527	-0.208252	-0.698730	0.093847	0.000462	0.029576	-0.790891	-0.134206	0.567489	-0.185570	0.298749	-71.343461	26.194862
40023		9.448449	0.001848	2.980763	0.190525	0.074233	0.092680	-0.050277	0.107138	-0.096814	-0.796143	-0.204590	-0.707520	0.094500	-0.000020	0.029757	-0.791314	-0.134192	0.567055	-0.185103	0.437324	-71.283112	26.017990
40024		9.466721	0.016884	2.936612	0.240430	0.106573	0.095572	-0.032167	0.127774	-0.098932	-0.784424	-0.203125	-0.703125	0.094686	0.000127	0.029306	-0.791787	-0.134231	0.566521	-0.184687	0.588324	-71.210759	25.838015
40025		9.483409	-0.036105	2.884775	0.328200	0.081329	0.094074	-0.017760	0.138528	-0.093635	-0.780518	-0.201904	-0.704834	0.094854	-0.000403	0.028782	-0.792273	-0.134307	0.565934	-0.184345	0.737309	-71.132156	25.669681
40026		9.509402	-0.108159	2.845384	0.417024	0.035122	0.105048	0.003878	0.136771	-0.089539	-0.787598	-0.204346	-0.721924	0.095113	-0.001125	0.028389	-0.792737	-0.134453	0.565338	-0.184073	0.890414	-71.054426	25.508952
40027		9.524447	-0.200929	2.831149	0.490307	-0.041819	0.113475	0.016183	0.134053	-0.081118	-0.791016	-0.206055	-0.703857	0.095263	-0.002050	0.028247	-0.793176	-0.134632	0.564745	-0.183874	1.035527	-70.978223	25.365122
40028		9.448723	-0.280978	2.857942	0.496165	-0.136853	0.049372	0.019358	0.135818	-0.073458	-0.787109	-0.209717	-0.718018	0.094506	-0.002847	0.028515	-0.793611	-0.134794	0.564148	-0.183708	1.168407	-70.900965	25.234993
40029		9.385604	-0.369805	2.812584	0.569915	-0.207047	-0.026511	0.025804	0.128371	-0.062712	-0.782471	-0.203613	-0.715576	0.093873	-0.003731	0.028065	-0.794009	-0.134965	0.563581	-0.183605	1.286669	-70.828028	25.125288
40030		9.261316	-0.463977	2.806487	0.593881	-0.306525	-0.147443	0.035456	0.130543	-0.052884	-0.781738	-0.204346	-0.715820	0.092630	-0.004669	0.028004	-0.794399	-0.135137	0.563004	-0.183562	1.393181	-70.753900	25.032680
40031		9.129839	-0.534141	2.745863	0.650224	-0.362131	-0.292967	0.043936	0.120163	-0.044640	-0.780762	-0.212646	-0.720459	0.091314	-0.005368	0.027403	-0.794744	-0.135336	0.562464	-0.183576	1.490959	-70.685791	24.955586
40032		9.076462	-0.547009	2.765766	0.634801	-0.389804	-0.337672	0.052588	0.098809	-0.040888	-0.780518	-0.209229	-0.717285	0.090777	-0.005496	0.027611	-0.795021	-0.135572	0.562005	-0.183607	1.587692	-70.629928	24.883683
40033		9.064693	-0.557212	2.757382	0.652574	-0.397954	-0.352346	0.060285	0.076526	-0.032493	-0.785645	-0.205078	-0.717285	0.090657	-0.005595	0.027537	-0.795221	-0.135842	0.561631	-0.183686	1.676002	-70.586926	24.826503
40034		9.058069	-0.487848	2.672194	0.699321	-0.302722	-0.386843	0.072956	0.051694	-0.037140	-0.770020	-0.214600	-0.711182	0.090587	-0.004905	0.026697	-0.795348	-0.136191	0.561343	-0.183757	1.779740	-70.558044	24.759484
40035		9.070627	-0.456407	2.608405	0.748183	-0.249423	-0.396405	0.093721	0.013447	-0.031946	-0.781250	-0.210693	-0.710938	0.090707	-0.004591	0.026076	-0.795347	-0.136650	0.561190	-0.183889	1.889005	-70.551107	24.700380
40036		9.112136	-0.413285	2.587374	0.762322	-0.201439	-0.364163	0.113705	-0.007458	-0.038329	-0.784180	-0.214600	-0.717041	0.091120	-0.004165	0.025875	-0.795281	-0.137221	0.561098	-0.184031	2.020900	-70.556002	24.628462
40037		9.058088	-0.469920	2.675342	0.698995	-0.303689	-0.386850	0.122279	-0.026404	-0.037948	-0.776367	-0.218262	-0.718506	0.090576	-0.004733	0.026762	-0.795154	-0.137846	0.561073	-0.184191	2.158566	-70.571671	24.556595
40038		9.159070	-0.431979	2.693335	0.696059	-0.272235	-0.285326	0.144902	-0.087230	-0.036916	-0.776611	-0.217529	-0.714844	0.091578	-0.004356	0.026970	-0.794840	-0.138610	0.561270	-0.184371	2.311287	-70.622161	24.481503
40039		9.276089	-0.362272	2.598108	0.775535	-0.164273	-0.205462	0.169258	-0.110387	-0.037478	-0.776611	-0.217041	-0.710938	0.092746	-0.003662	0.026029	-0.794443	-0.139498	0.561535	-0.184607	2.481413	-70.685789	24.403801
40040		9.444349	-0.205094	2.500011	0.832453	0.028602	-0.076464	0.200013	-0.111910	-0.043237	-0.782471	-0.230225	-0.715332	0.094429	-0.002096	0.025051	-0.794026	-0.140520	0.561774	-0.184899	2.679174	-70.750107	24.314465
40041		9.498612	-0.075934	2.492532	0.790885	0.141980	-0.025121	0.186258	-0.109819	-0.028124	-0.780273	-0.228760	-0.712891	0.094972	-0.000796	0.024977	-0.793608	-0.141449	0.562026	-0.185220	2.845330	-70.813504	24.251342
40042		9.583406	-0.029037	2.433930	0.838215	0.209447	0.037188	0.185701	-0.099257	-0.021222	-0.780518	-0.225830	-0.706299	0.095822	-0.000323	0.024387	-0.793213	-0.142342	0.562242	-0.185568	2.999283	-70.871067	24.200006
40043		9.474920	0.091269	2.491559	0.697345	0.267706	-0.043739	0.156313	-0.079101	-0.006519	-0.784424	-0.229736	-0.708740	0.094739	0.000890	0.024954	-0.792881	-0.143062	0.562414	-0.185912	3.111201	-70.917441	24.176169
40044		9.447613	0.146481	2.488315	0.660673	0.307388	-0.068993	0.125454	-0.090964	0.009047	-0.786621	-0.228027	-0.713867	0.094465	0.001453	0.024927	-0.792524	-0.143623	0.562674	-0.186217	3.180637	-70.971169	24.177679
40045		9.395963	0.086074	2.570026	0.597338	0.205143	-0.091697	0.087154	-0.086011	0.010615	-0.794189	-0.228760	-0.708496	0.093949	0.000855	0.025741	-0.792205	-0.144027	0.562949	-0.186429	3.225591	-71.022024	24.182772
40046		9.275002	-0.038512	2.898947	0.335978	-0.069610	-0.101183	0.023041	-0.067463	0.020001	-0.794189	-0.222900	-0.711670	0.092740	-0.000379	0.029021	-0.791977	-0.144128	0.563219	-0.186504	3.216081	-71.062669	24.205599
40047		9.218655	-0.185701	3.099367	0.210188	-0.298122	-0.092034	-0.018052	-0.104293	0.025817	-0.786377	-0.237549	-0.707031	0.092171	-0.001842	0.031042	-0.791668	-0.144090	0.563675	-0.186467	3.177026	-71.124468	24.235772
40048		9.477926	-0.137483	3.217268	0.153902	-0.274399	0.192401	-0.051469	-0.119897	0.034952	-0.785400	-0.224121	-0.706055	0.094760	-0.001350	0.032230	-0.791331	-0.143904	0.564233	-0.186355	3.104260	-71.195573	24.280370
40049		9.732446	-0.023473	3.201080	0.177973	-0.132251	0.430300	-0.064147	-0.088994	0.046519	-0.787109	-0.225342	-0.704346	0.097310	-0.000202	0.032054	-0.791079	-0.143610	0.564686	-0.186280	3.001918	-71.249226	24.349470
40050		9.920200	0.152737	3.093145	0.232575	0.099108	0.576601	-0.072149	-0.065713	0.058380	-0.782959	-0.225342	-0.699463	0.099191	0.001567	0.030963	-0.790887	-0.143224	0.565065	-0.186240	2.872016	-71.289962	24.441727
40051		10.018442	0.282494	2.936657	0.324502	0.300632	0.621738	-0.061224	-0.045044	0.072652	-0.778076	-0.223877	-0.698730	0.100177	0.002870	0.029388	-0.790732	-0.142828	0.565360	-0.186309	2.722504	-71.319093	24.562358
40052		9.893464	0.402850	2.887606	0.267331	0.417871	0.489502	-0.027101	-0.025553	0.067674	-0.789551	-0.219971	-0.700928	0.098930	0.004066	0.028888	-0.790613	-0.142557	0.565545	-0.186462	2.598669	-71.336957	24.675551
40053		9.603300	0.440859	2.980296	0.081852	0.376680	0.244713	-0.007325	-0.033325	0.058281	-0.791504	-0.215332	-0.707764	0.096027	0.004438	0.029819	-0.790465	-0.142403	0.565733	-0.186635	2.502868	-71.358848	24.772056
40054		9.247908	0.197117	3.120198	-0.035523	0.053020	-0.050812	-0.017930	-0.083558	0.048027	-0.791260	-0.228760	-0.700195	0.092466	0.001996	0.031240	-0.790194	-0.142277	0.566125	-0.186693	2.421353	-71.409307	24.845853
40055		9.051778	-0.186892	3.256131	-0.044781	-0.376571	-0.198731	-0.011811	-0.178174	0.034036	-0.784180	-0.215820	-0.702148	0.090489	-0.001852	0.032642	-0.789661	-0.142309	0.566871	-0.186654	2.373948	-71.513454	24.888539
40056		9.049737	-0.517664	3.367275	-0.008419	-0.727640	-0.170350	0.024677	-0.268791	0.023616	-0.793945	-0.227295	-0.705078	0.090453	-0.005170	0.033794	-0.788856	-0.142594	0.567936	-0.186606	2.370975	-71.669334	24.905397
40057		9.105547	-0.710398	3.348189	0.086835	-0.896348	-0.126875	0.063988	-0.309418	0.008574	-0.795166	-0.217529	-0.693359	0.091004	-0.007111	0.033620	-0.787919	-0.143119	0.569110	-0.186587	2.420043	-71.848003	24.892159
40058		9.064390	-0.759994	3.329021	0.090294	-0.952761	-0.173851	0.083897	-0.276583	-0.010803	-0.793945	-0.220459	-0.690674	0.090597	-0.007619	0.033412	-0.787077	-0.143742	0.570123	-0.186566	2.512349	-72.007497	24.844428
40059		9.175903	-0.489163	3.396292	-0.078474	-0.742674	-0.044704	0.099128	-0.230301	-0.027592	-0.804932	-0.221680	-0.693115	0.091719	-0.004921	0.034066	-0.786371	-0.144434	0.570925	-0.186561	2.641224	-72.139935	24.768497
40060		9.516657	-0.256726	3.324856	-0.044812	-0.475240	0.260021	0.094771	-0.172554	-0.024493	-0.799805	-0.226318	-0.688232	0.095138	-0.002595	0.033329	-0.785829	-0.145041	0.571507	-0.186591	2.758061	-72.239457	24.701585
40061		9.795588	-0.083907	3.164599	0.077254	-0.225985	0.478971	0.098899	-0.115811	0.006779	-0.801025	-0.230225	-0.679932	0.097938	-0.000851	0.031702	-0.785415	-0.145527	0.571882	-0.186803	2.817683	-72.307245	24.698305
40062		9.879925	0.044872	3.240669	-0.032478	-0.140843	0.584234	0.109795	-0.099649	0.042381	-0.800537	-0.225342	-0.685547	0.098783	0.000452	0.032456	-0.785007	-0.145934	0.572211	-0.187193	2.817733	-72.366890	24.763327
40063		9.765113	0.231858	3.419764	-0.312486	-0.072577	0.531541	0.100629	-0.115649	0.072299	-0.800537	-0.220947	-0.679932	0.097630	0.002337	0.034255	-0.784531	-0.146240	0.572632	-0.187666	2.760147	-72.436412	24.884051
40064		9.681397	0.348110	3.421698	-0.403312	0.018442	0.453550	0.077417	-0.094711	0.103770	-0.805908	-0.227051	-0.693359	0.096796	0.003518	0.034264	-0.784102	-0.146338	0.573016	-0.188207	2.629074	-72.494830	25.066848
40065		9.384200	0.285937	3.322223	-0.380395	-0.025269	0.139036	0.069877	-0.000930	0.132177	-0.794189	-0.227051	-0.684570	0.093840	0.002910	0.033224	-0.783919	-0.146243	0.573058	-0.188911	2.434315	-72.500039	25.312866
40066		8.921275	0.194313	3.509028	-0.624001	-0.238346	-0.247439	0.080082	0.066649	0.167891	-0.799316	-0.228760	-0.678711	0.089223	0.002004	0.035061	-0.783890	-0.146016	0.572854	-0.189828	2.175275	-72.467154	25.631420
40067		8.633810	0.024430	3.735446	-0.814196	-0.512999	-0.454764	0.088279	0.076074	0.198931	-0.798340	-0.223633	-0.680664	0.086352	0.000314	0.037322	-0.783850	-0.145729	0.572625	-0.190902	1.865859	-72.428958	26.008819
40068		8.511114	0.008587	3.782000	-0.880435	-0.548772	-0.557077	0.126683	0.061314	0.228283	-0.797363	-0.218994	-0.678467	0.085123	0.000159	0.037794	-0.783711	-0.145518	0.572439	-0.192186	1.527092	-72.399139	26.439361
40069		8.446753	-0.133990	3.687450	-0.754345	-0.624808	-0.647349	0.154960	0.053225	0.270462	-0.803711	-0.218750	-0.675781	0.084479	-0.001254	0.036851	-0.783486	-0.145309	0.572285	-0.193715	1.130599	-72.373610	26.948333
40070		8.434984	-0.163353	3.633772	-0.703146	-0.610011	-0.674122	0.194331	0.043073	0.316620	-0.797607	-0.228027	-0.687500	0.084360	-0.001535	0.036318	-0.783156	-0.145126	0.572167	-0.195524	0.674477	-72.353213	27.542703
40071		8.532271	-0.193384	3.693370	-0.720608	-0.630338	-0.562747	0.205349	0.001043	0.350521	-0.797363	-0.219482	-0.682861	0.085326	-0.001822	0.036931	-0.782662	-0.144935	0.572223	-0.197471	0.165616	-72.355477	28.199977
40072		8.906726	-0.336468	3.714058	-0.582854	-0.692421	-0.199259	0.209949	-0.055722	0.365227	-0.808105	-0.223389	-0.681885	0.089063	-0.003241	0.037162	-0.781985	-0.144771	0.572506	-0.199442	-0.368555	-72.388438	28.885662
40073		9.415269	-0.425319	3.625396	-0.348871	-0.636694	0.259280	0.223023	-0.088916	0.362399	-0.802979	-0.222168	-0.679199	0.094144	-0.004123	0.036291	-0.781202	-0.144703	0.572900	-0.201419	-0.892821	-72.438515	29.569504
40074		9.918368	-0.424051	3.487211	-0.120310	-0.479496	0.697786	0.224428	-0.079146	0.318913	-0.806885	-0.218994	-0.674805	0.099177	-0.004122	0.034907	-0.780487	-0.144750	0.573222	-0.203233	-1.340854	-72.481726	30.173378
40075		10.174860	-0.330509	3.425894	-0.062788	-0.314696	0.923735	0.226269	-0.044688	0.267098	-0.808838	-0.219238	-0.683594	0.101745	-0.003208	0.034278	-0.779919	-0.144922	0.573367	-0.204878	-1.693624	-72.504713	30.679045
40076		10.262530	-0.204960	3.340242	-0.038711	-0.138028	0.980745	0.227347	0.013206	0.214005	-0.804443	-0.222900	-0.678711	0.102630	-0.001978	0.033393	-0.779569	-0.145186	0.573246	-0.206356	-1.947186	-72.494694	31.080556
40077		10.041990	-0.013194	3.331035	-0.183092	0.011202	0.765775	0.228511	0.068437	0.160120	-0.810547	-0.218506	-0.682861	0.100431	-0.000090	0.033276	-0.779429	-0.145556	0.572867	-0.207671	-2.097521	-72.453726	31.375333
40078		9.699949	0.182888	3.407379	-0.427031	0.102149	0.460574	0.240458	0.092358	0.129481	-0.800049	-0.217041	-0.675781	0.097014	0.001851	0.034031	-0.779381	-0.146031	0.572360	-0.208914	-2.183508	-72.399508	31.609117
40079		9.356941	0.351867	3.437864	-0.618599	0.187171	0.141074	0.236115	0.082959	0.111518	-0.808350	-0.213135	-0.681885	0.093582	0.003530	0.034344	-0.779324	-0.146555	0.571879	-0.210072	-2.238779	-72.351008	31.808881
40080		9.095628	0.522254	3.410089	-0.743794	0.311146	-0.118263	0.217363	0.051216	0.112718	-0.808350	-0.222900	-0.681396	0.090962	0.005237	0.034083	-0.779190	-0.147029	0.571542	-0.211151	-2.309229	-72.320554	32.012377
40081		8.945708	0.513164	3.366341	-0.741798	0.303619	-0.274405	0.188415	0.015400	0.122355	-0.807373	-0.225342	-0.676514	0.089457	0.005155	0.033661	-0.778962	-0.147406	0.571380	-0.212164	-2.415202	-72.310314	32.236740
40082		8.874932	0.464690	3.303931	-0.687980	0.283320	-0.360559	0.183639	-0.019570	0.136905	-0.816650	-0.221924	-0.678467	0.088743	0.004677	0.033052	-0.778623	-0.147756	0.571371	-0.213191	-2.553157	-72.319550	32.491149
40083		8.898309	0.464590	3.202439	-0.604565	0.338494	-0.369633	0.163710	-0.039262	0.135098	-0.796631	-0.225098	-0.677734	0.088974	0.004680	0.032046	-0.778241	-0.148059	0.571457	-0.214142	-2.700721	-72.339947	32.744287
40084		8.975392	0.357436	3.093304	-0.448117	0.313544	-0.328235	0.150295	-0.037925	0.123019	-0.809814	-0.220703	-0.675049	0.089746	0.003606	0.030953	-0.777887	-0.148338	0.571543	-0.215004	-2.835026	-72.359673	32.974710
40085		9.046783	0.203980	3.150858	-0.406571	0.168206	-0.240843	0.119506	-0.034365	0.102240	-0.805420	-0.230469	-0.666992	0.090461	0.002067	0.031525	-0.777586	-0.148557	0.571631	-0.215705	-2.949175	-72.377862	33.166156
40086		9.111915	0.108346	3.156799	-0.351505	0.095566	-0.175706	0.118682	-0.023501	0.076157	-0.800781	-0.225586	-0.676514	0.091115	0.001099	0.031579	-0.777345	-0.148832	0.571659	-0.216306	-3.016427	-72.390485	33.307379
40087		9.199818	0.051901	3.109775	-0.265292	0.084305	-0.105342	0.121792	-0.026339	0.054214	-0.808838	-0.218018	-0.675049	0.091994	0.000525	0.031110	-0.777117	-0.149188	0.571678	-0.216832	-3.042347	-72.405397	33.407605
40088		9.366390	-0.012704	3.132855	-0.213066	0.043268	0.061366	0.134020	-0.052505	0.038218	-0.809570	-0.226318	-0.678711	0.093656	-0.000130	0.031353	-0.776823	-0.149661	0.571774	-0.217307	-3.035451	-72.435689	33.479923
40089		9.593217	-0.079500	3.154898	-0.144516	0.008446	0.285261	0.127100	-0.064888	0.019461	-0.810303	-0.224121	-0.670410	0.095922	-0.000806	0.031580	-0.776517	-0.150179	0.571910	-0.217684	-2.999433	-72.473712	33.518348
40090		9.717174	-0.047332	3.111328	-0.097395	0.072327	0.389830	0.132840	-0.044991	0.009798	-0.810791	-0.226563	-0.673828	0.097165	-0.000489	0.031135	-0.776276	-0.150721	0.571956	-0.218050	-2.941108	-72.500584	33.536115
40091		9.774883	-0.084711	3.149173	-0.095707	0.026536	0.456828	0.134359	-0.014084	0.001865	-0.809082	-0.226563	-0.671875	0.097747	-0.000867	0.031498	-0.776128	-0.151262	0.571873	-0.218418	-2.864182	-72.510070	33.535998
40092		9.774451	-0.083224	3.190688	-0.129247	0.003323	0.468879	0.148267	-0.002242	0.004033	-0.810059	-0.229492	-0.677979	0.097744	-0.000854	0.031907	-0.776003	-0.151833	0.571731	-0.218838	-2.782521	-72.512654	33.538555
40093		9.711694	-0.111454	3.230737	-0.160212	-0.054972	0.421490	0.168991	0.014868	-0.001054	-0.807861	-0.233398	-0.672119	0.097119	-0.001142	0.032299	-0.775914	-0.152485	0.571495	-0.219315	-2.677852	-72.505649	33.530155
40094		9.642024	-0.085250	3.261298	-0.211092	-0.063437	0.363921	0.188462	0.027600	-0.007831	-0.812988	-0.236816	-0.672852	0.096425	-0.000887	0.032599	-0.775855	-0.153213	0.571183	-0.219827	-2.549073	-72.491451	33.507485
40095		9.579066	-0.108899	3.261895	-0.208601	-0.098839	0.304478	0.200561	0.039920	-0.003784	-0.811279	-0.230957	-0.670898	0.095797	-0.001124	0.032599	-0.775816	-0.153968	0.570813	-0.220402	-2.419504	-72.470163	33.491940
40096		9.384089	-0.016175	3.197824	-0.245129	-0.024209	0.098256	0.212181	0.061997	-0.005771	-0.809570	-0.232910	-0.673340	0.093851	-0.000198	0.031949	-0.775833	-0.154745	0.570342	-0.221016	-2.278591	-72.436213	33.470873
40097		9.220389	0.093852	3.093732	-0.249478	0.090821	-0.090287	0.207779	0.070065	-0.002072	-0.810547	-0.243652	-0.678711	0.092215	0.000905	0.030906	-0.775870	-0.155488	0.569846	-0.221641	-2.146252	-72.397606	33.456756
40098		9.139071	0.107254	3.070936	-0.249007	0.097453	-0.174572	0.209485	0.077084	-0.006144	-0.812256	-0.231689	-0.668701	0.091403	0.001038	0.030675	-0.775931	-0.156239	0.569318	-0.222257	-2.005783	-72.354967	33.434469
40099		9.122738	0.187933	3.009916	-0.236548	0.190804	-0.209204	0.215924	0.063339	-0.005779	-0.809814	-0.229736	-0.672363	0.091237	0.001844	0.030072	-0.775945	-0.157032	0.568835	-0.222885	-1.863172	-72.320264	33.414463
40100		9.100674	0.195929	3.028908	-0.253216	0.180800	-0.224250	0.218921	0.060980	-0.012685	-0.802979	-0.242188	-0.674072	0.091016	0.001920	0.030263	-0.775958	-0.157853	0.568353	-0.223488	-1.707429	-72.286964	33.381552
40101		9.103781	0.303128	3.122640	-0.376885	0.221136	-0.193403	0.218216	0.046524	-0.012238	-0.803711	-0.238281	-0.669189	0.091045	0.002992	0.031209	-0.775927	-0.158692	0.567926	-0.224084	-1.553439	-72.261965	33.350970
40102		9.087304	0.382346	3.100778	-0.397868	0.291635	-0.215982	0.221241	0.047492	-0.010273	-0.798096	-0.250000	-0.675537	0.090881	0.003785	0.030990	-0.775896	-0.159531	0.567494	-0.224692	-1.401752	-72.236265	33.323881
40103		9.136756	0.404363	3.092304	-0.382627	0.318530	-0.171199	0.213924	0.057608	-0.003697	-0.806152	-0.249023	-0.677490	0.091377	0.004009	0.030901	-0.775889	-0.160316	0.567034	-0.225317	-1.265515	-72.204754	33.309351
40104		9.173276	0.406331	3.154465	-0.416410	0.291861	-0.117010	0.207837	0.071753	0.000401	-0.809082	-0.252930	-0.673584	0.091744	0.004031	0.031516	-0.775923	-0.161046	0.566529	-0.225948	-1.139947	-72.164960	33.301724
40105		9.198779	0.391631	3.202527	-0.432332	0.257353	-0.077496	0.191691	0.073810	0.007077	-0.807373	-0.252197	-0.673096	0.091999	0.003889	0.031995	-0.775965	-0.161696	0.566040	-0.226564	-1.035543	-72.124032	33.307249
40106		9.198448	0.431678	3.210232	-0.451283	0.285851	-0.075233	0.175031	0.082181	-0.001285	-0.812500	-0.247803	-0.665039	0.091998	0.004288	0.032068	-0.776055	-0.162292	0.565529	-0.227104	-0.926000	-72.078323	33.296843
40107		9.144507	0.390943	3.143934	-0.380844	0.275258	-0.146336	0.149970	0.086196	-0.003087	-0.799072	-0.245361	-0.678467	0.091459	0.003884	0.031403	-0.776177	-0.162794	0.565029	-0.227573	-0.827623	-72.030395	33.283579
40108		9.123752	0.398735	3.080232	-0.330575	0.311019	-0.185452	0.118061	0.082425	0.001728	-0.802002	-0.259766	-0.681396	0.091250	0.003970	0.030767	-0.776310	-0.163158	0.564585	-0.227962	-0.756700	-71.984510	33.279157
40109		9.027381	0.354387	3.125736	-0.360246	0.235269	-0.262594	0.069497	0.081762	-0.003184	-0.808594	-0.259033	-0.667969	0.090287	0.003532	0.031222	-0.776484	-0.163353	0.564193	-0.228199	-0.704806	-71.939113	33.266280
40110		9.014268	0.340488	3.117728	-0.342418	0.227141	-0.277262	0.037943	0.074921	-0.009714	-0.801025	-0.248047	-0.676270	0.090155	0.003395	0.031144	-0.776673	-0.163450	0.563858	-0.228313	-0.659863	-71.897588	33.241292
40111		8.946129	0.398820	3.109482	-0.378700	0.270419	-0.344603	0.030353	0.060461	-0.007642	-0.807373	-0.259033	-0.670410	0.089471	0.003980	0.031068	-0.776824	-0.163530	0.563590	-0.228405	-0.623282	-71.864417	33.220923
40112		8.819962	0.461965	3.056062	-0.397827	0.330396	-0.481170	0.023623	0.046669	-0.010350	-0.806641	-0.250244	-0.681396	0.088207	0.004611	0.030541	-0.776946	-0.163603	0.563381	-0.228452	-0.586359	-71.839080	33.195513
40113		8.739318	0.560235	2.891011	-0.335730	0.484332	-0.609417	0.002764	0.037002	-0.014440	-0.806396	-0.258057	-0.681641	0.087399	0.005596	0.028894	-0.777061	-0.163622	0.563230	-0.228421	-0.554312	-71.819380	33.163273
40114		8.700191	0.565260	2.836408	-0.302029	0.510413	-0.663572	-0.015050	0.026478	-0.008986	-0.799805	-0.251953	-0.671875	0.087006	0.005651	0.028352	-0.777157	-0.163563	0.563145	-0.228347	-0.542363	-71.805558	33.140655
40115		8.668853	0.549841	2.836411	-0.300803	0.492593	-0.693288	-0.019829	0.002584	-0.000788	-0.802490	-0.248535	-0.670898	0.086689	0.005501	0.028362	-0.777177	-0.163495	0.563165	-0.228276	-0.547697	-71.805499	33.134134
40116		8.628658	0.550584	2.862465	-0.334039	0.472912	-0.723388	-0.035883	-0.030022	0.003350	-0.786865	-0.253418	-0.670898	0.086282	0.005512	0.028637	-0.777117	-0.163386	0.563333	-0.228146	-0.570160	-71.824027	33.135255
40117		8.677003	0.494166	2.844109	-0.281014	0.442170	-0.683118	-0.055536	-0.066484	0.014102	-0.799561	-0.258545	-0.677246	0.086760	0.004956	0.028469	-0.776955	-0.163216	0.563674	-0.227976	-0.623211	-71.863452	33.157420
40118		8.798960	0.451620	2.754657	-0.162597	0.471202	-0.595024	-0.080689	-0.099707	0.015876	-0.799072	-0.248291	-0.673584	0.087975	0.004534	0.027589	-0.776720	-0.162978	0.564174	-0.227711	-0.694580	-71.921767	33.183086
40119		8.905432	0.353704	2.772961	-0.107840	0.394945	-0.487800	-0.104059	-0.128183	0.017027	-0.802002	-0.254395	-0.667480	0.089036	0.003559	0.027785	-0.776420	-0.162681	0.564811	-0.227366	-0.782419	-71.996500	33.212586
40120		9.075548	0.255497	2.663037	0.063647	0.393518	-0.359450	-0.114928	-0.154731	0.020044	-0.810059	-0.259033	-0.669922	0.090735	0.002579	0.026699	-0.776051	-0.162360	0.565567	-0.226975	-0.883042	-72.086324	33.248327
40121		9.241632	0.120244	2.634042	0.187066	0.317492	-0.209324	-0.106405	-0.163781	0.013277	-0.807617	-0.244141	-0.675537	0.092395	0.001223	0.026415	-0.775656	-0.162105	0.566341	-0.226579	-0.967632	-72.181456	33.272971
40122		9.390906	0.053776	2.662409	0.222664	0.266520	-0.057699	-0.091026	-0.161276	0.012806	-0.798584	-0.252197	-0.666504	0.093888	0.000556	0.026700	-0.775256	-0.161904	0.567088	-0.226223	-1.043026	-72.275070	33.296580
40123		9.561655	0.019811	2.720417	0.222487	0.231154	0.123275	-0.085473	-0.154883	0.009240	-0.801514	-0.249268	-0.667969	0.095595	0.000214	0.027278	-0.774872	-0.161731	0.567800	-0.225877	-1.109116	-72.365127	33.314369
40124		9.673580	-0.008442	2.735119	0.239477	0.212480	0.235028	-0.086107	-0.150751	0.004520	-0.806641	-0.252441	-0.667236	0.096715	-0.000070	0.027424	-0.774506	-0.161562	0.568492	-0.225511	-1.167220	-72.452776	33.322787
40125		9.715634	-0.017786	2.820158	0.172188	0.162861	0.301212	-0.095948	-0.141244	0.006832	-0.808105	-0.243652	-0.670898	0.097136	-0.000161	0.028270	-0.774170	-0.161339	0.569160	-0.225137	-1.235222	-72.535037	33.336271
40126		9.749544	-0.007797	2.850849	0.137378	0.157131	0.342973	-0.097619	-0.118793	0.012407	-0.811035	-0.248047	-0.668213	0.097478	-0.000058	0.028566	-0.773895	-0.161066	0.569748	-0.224793	-1.313822	-72.604280	33.359137
40127		9.755308	0.024274	2.799955	0.151896	0.208474	0.333239	-0.093986	-0.087348	0.014769	-0.802246	-0.253906	-0.663574	0.097541	0.000263	0.028042	-0.773702	-0.160767	0.570211	-0.224498	-1.393708	-72.655551	33.386241
40128		9.720045	0.057182	2.779517	0.133240	0.240451	0.293384	-0.088393	-0.063449	0.028564	-0.806152	-0.245605	-0.667725	0.097192	0.000598	0.027826	-0.773557	-0.160422	0.570586	-0.224289	-1.494834	-72.692850	33.438418
40129		9.710257	0.034056	2.801159	0.117576	0.209410	0.290731	-0.079021	-0.054295	0.034315	-0.810303	-0.247314	-0.663086	0.097095	0.000368	0.028038	-0.773424	-0.160089	0.570920	-0.224139	-1.601150	-72.724860	33.502171
40130		9.748840	0.144653	2.843841	0.026123	0.290127	0.339326	-0.081733	-0.051527	0.045622	-0.815186	-0.243896	-0.666748	0.097481	0.001480	0.028463	-0.773289	-0.159707	0.571255	-0.224023	-1.729996	-72.754994	33.587231
40131		9.734756	0.207010	2.856031	-0.028304	0.337729	0.328830	-0.105736	-0.048659	0.046962	-0.816895	-0.237793	-0.668945	0.097340	0.002108	0.028583	-0.773178	-0.159228	0.571606	-0.223850	-1.875328	-72.783463	33.675787
40132		9.776318	0.197705	2.823900	0.004829	0.356745	0.358969	-0.124947	-0.045314	0.048294	-0.813965	-0.247559	-0.670166	0.097756	0.002018	0.028260	-0.773092	-0.158662	0.571968	-0.223625	-2.034333	-72.809868	33.766310
40133		9.646649	0.179828	2.846893	-0.043464	0.313384	0.241908	-0.136887	-0.025624	0.039739	-0.816406	-0.238770	-0.663574	0.096462	0.001837	0.028480	-0.773079	-0.158058	0.572259	-0.223353	-2.183311	-72.825161	33.839977
40134		9.604928	0.163943	3.083458	-0.244083	0.179288	0.271831	-0.120041	-0.029562	0.034391	-0.806885	-0.234375	-0.661377	0.096044	0.001674	0.030848	-0.773048	-0.157535	0.572543	-0.223101	-2.313102	-72.842724	33.903039
40135		9.681476	0.108273	3.275115	-0.359742	0.051563	0.401860	-0.100539	-0.065286	0.027220	-0.811523	-0.239014	-0.670654	0.096804	0.001112	0.032782	-0.772906	-0.157151	0.572936	-0.222854	-2.421473	-72.880920	33.955988
40136		9.983068	-0.043036	3.362714	-0.287563	-0.071236	0.717439	-0.082268	-0.083813	0.017921	-0.814209	-0.234619	-0.663818	0.099817	-0.000408	0.033669	-0.772709	-0.156880	0.573374	-0.222603	-2.503832	-72.929851	33.991841
40137		10.225498	-0.208280	3.152374	0.021488	-0.068891	0.889483	-0.075720	-0.055473	-0.001696	-0.819580	-0.240479	-0.660645	0.102246	-0.002072	0.031553	-0.772607	-0.156664	0.573679	-0.222322	-2.543826	-72.963117	33.988118
40138		10.299888	-0.310563	3.005368	0.211378	-0.071263	0.918884	-0.072169	0.030750	-0.027141	-0.811768	-0.230225	-0.665771	0.103003	-0.003109	0.030039	-0.772780	-0.156435	0.573627	-0.222017	-2.527088	-72.947636	33.926583
40139		9.955092	-0.353950	2.993204	0.167774	-0.156480	0.586147	-0.046793	0.125358	-0.045776	-0.816895	-0.238525	-0.658447	0.099569	-0.003555	0.029870	-0.773223	-0.156256	0.573166	-0.221790	-2.453722	-72.878488	33.821603
40140		9.543871	-0.308535	3.060657	0.002165	-0.214918	0.212385	-0.023114	0.151191	-0.054133	-0.806641	-0.229980	-0.665527	0.095461	-0.003108	0.030535	-0.773732	-0.156160	0.572573	-0.221614	-2.350087	-72.794664	33.698397
40141		9.316628	-0.203594	3.089898	-0.118785	-0.174384	0.002808	0.000391	0.118545	-0.047790	-0.817139	-0.233398	-0.669434	0.093184	-0.002058	0.030844	-0.774120	-0.156176	0.572084	-0.221510	-2.248154	-72.729359	33.591728
40142		9.264324	-0.179498	3.115159	-0.153046	-0.173044	-0.039727	0.011285	0.113430	-0.041798	-0.808838	-0.232422	-0.667480	0.092661	-0.001816	0.031099	-0.774480	-0.156218	0.571608	-0.221449	-2.152161	-72.666731	33.496867
40143		9.227504	-0.071195	3.158282	-0.242937	-0.106262	-0.063004	0.014802	0.102034	-0.034454	-0.817139	-0.234863	-0.665283	0.092291	-0.000730	0.031536	-0.774795	-0.156271	0.571178	-0.221424	-2.068965	-72.610496	33.418408
40144		9.317993	-0.020244	3.128826	-0.213374	-0.031278	0.014237	0.004997	0.090642	-0.023443	-0.813721	-0.236084	-0.664063	0.093194	-0.000214	0.031246	-0.775074	-0.156262	0.570811	-0.221400	-2.012716	-72.560485	33.361516
40145		9.482871	-0.045791	3.126110	-0.146643	-0.021024	0.171177	-0.004699	0.122070	-0.017249	-0.802734	-0.245605	-0.672607	0.094848	-0.000465	0.031203	-0.775441	-0.156168	0.570337	-0.221402	-1.971603	-72.492386	33.315415
40146		9.550521	-0.028328	3.070992	-0.081315	0.038324	0.219070	-0.002075	0.158000	-0.008790	-0.811768	-0.240479	-0.667969	0.095529	-0.000287	0.030634	-0.775900	-0.156017	0.569728	-0.221468	-1.942268	-72.403473	33.282705
40147		9.558016	0.022402	3.104891	-0.118142	0.074607	0.236042	0.009118	0.196421	0.000840	-0.810547	-0.238525	-0.672607	0.095611	0.000223	0.030955	-0.776448	-0.155841	0.568964	-0.221637	-1.921973	-72.292434	33.266713
40148		9.552256	0.054955	3.170381	-0.170561	0.080207	0.250332	0.011384	0.252543	-0.000895	-0.805176	-0.236816	-0.670410	0.095562	0.000547	0.031583	-0.777155	-0.155615	0.567977	-0.221845	-1.894114	-72.149247	33.243600
40149		9.420385	0.150021	3.183315	-0.241990	0.146274	0.128120	0.013709	0.277339	0.010381	-0.813477	-0.237305	-0.686768	0.094248	0.001503	0.031703	-0.777916	-0.155340	0.566900	-0.222126	-1.883862	-71.991686	33.240903
40150		9.339598	0.228605	3.098372	-0.212254	0.256427	0.024456	-0.002536	0.273799	0.018513	-0.801270	-0.235352	-0.677979	0.093438	0.002295	0.030856	-0.778671	-0.154979	0.565860	-0.222385	-1.897358	-71.835930	33.252642
40151		9.338234	0.299482	3.042849	-0.183104	0.359488	0.005073	-0.028758	0.265646	0.020128	-0.797852	-0.240723	-0.677490	0.093422	0.003009	0.030304	-0.779418	-0.154524	0.564880	-0.222574	-1.928898	-71.684880	33.268324
40152		9.406175	0.317074	2.915627	-0.050799	0.464579	0.029013	-0.059795	0.256672	0.017533	-0.792969	-0.235107	-0.688965	0.094099	0.003188	0.029035	-0.780167	-0.153963	0.563968	-0.222654	-1.973717	-71.538954	33.278668
40153		9.422448	0.316875	2.841198	0.032692	0.519656	0.020124	-0.092271	0.235824	0.022107	-0.794678	-0.239014	-0.696289	0.094258	0.003192	0.028299	-0.780875	-0.153287	0.563175	-0.222648	-2.045809	-71.404932	33.298765
40154		9.516415	0.307111	2.838523	0.082157	0.544761	0.107500	-0.118508	0.224372	0.014668	-0.791992	-0.239258	-0.694580	0.095196	0.003095	0.028277	-0.781579	-0.152538	0.562449	-0.222523	-2.120197	-71.277462	33.304511
40155		9.618346	0.246514	2.805149	0.184928	0.542887	0.192973	-0.123146	0.226531	0.015512	-0.795410	-0.237793	-0.697266	0.096215	0.002490	0.027941	-0.782289	-0.151770	0.561720	-0.222397	-2.198159	-71.148887	33.312153
40156		9.652808	0.240498	2.801186	0.218081	0.561859	0.223143	-0.122801	0.237354	0.015765	-0.795898	-0.232910	-0.696533	0.096561	0.002430	0.027896	-0.783029	-0.150988	0.560948	-0.222275	-2.274808	-71.013993	33.317901
40157		9.612776	0.185885	2.821011	0.238155	0.515223	0.191106	-0.129880	0.257574	0.014245	-0.789307	-0.234375	-0.699219	0.096164	0.001884	0.028085	-0.783829	-0.150162	0.560102	-0.222147	-2.351340	-70.867669	33.319961
40158		9.549605	0.189694	2.760193	0.288768	0.554517	0.109946	-0.131755	0.281582	0.015210	-0.786621	-0.232910	-0.698730	0.095535	0.001922	0.027466	-0.784697	-0.149296	0.559163	-0.222029	-2.428131	-70.707512	33.320382
40159		9.432718	0.208122	2.798069	0.238205	0.549776	0.010225	-0.142855	0.296835	0.014418	-0.784912	-0.230957	-0.692383	0.094368	0.002108	0.027839	-0.785613	-0.148375	0.558175	-0.221894	-2.508462	-70.538709	33.318592
40160		9.385577	0.142749	2.721596	0.343141	0.541082	-0.060461	-0.148268	0.297610	0.011863	-0.791016	-0.233887	-0.708496	0.093896	0.001453	0.027075	-0.786537	-0.147435	0.557187	-0.221730	-2.586851	-70.369521	33.310869
40161		9.332845	0.194381	2.721903	0.323506	0.594151	-0.112647	-0.142388	0.285770	0.011078	-0.782227	-0.228027	-0.716797	0.093367	0.001968	0.027084	-0.787422	-0.146537	0.556237	-0.221573	-2.661139	-70.207140	33.302941
40162		9.335130	0.205437	2.764924	0.305582	0.601610	-0.097942	-0.133691	0.292841	0.005670	-0.786621	-0.224609	-0.716309	0.093392	0.002075	0.027511	-0.788325	-0.145676	0.555244	-0.221418	-2.720656	-70.040789	33.283773
40163		9.252935	0.121207	2.768420	0.344809	0.529728	-0.174427	-0.120056	0.292880	0.002634	-0.781250	-0.228516	-0.710693	0.092570	0.001230	0.027548	-0.789219	-0.144880	0.554231	-0.221295	-2.767567	-69.874577	33.260307
40164		9.146757	0.125601	2.774530	0.328736	0.526858	-0.273754	-0.115883	0.270745	-0.003152	-0.775879	-0.224854	-0.716797	0.091505	0.001271	0.027621	-0.790054	-0.144137	0.553297	-0.221138	-2.804466	-69.721197	33.227885
40165		9.039084	0.037299	2.870541	0.284386	0.399587	-0.341370	-0.118810	0.245300	-0.009739	-0.771973	-0.225830	-0.717285	0.090426	0.000386	0.028594	-0.790824	-0.143433	0.552460	-0.220934	-2.834958	-69.582572	33.187622
40166		9.012391	0.003746	2.859587	0.320082	0.383642	-0.370718	-0.124121	0.217329	-0.012909	-0.783447	-0.220215	-0.711182	0.090155	0.000049	0.028498	-0.791526	-0.142743	0.551737	-0.220676	-2.865594	-69.460020	33.143408
40167		8.867574	-0.021776	2.837761	0.323154	0.355545	-0.514496	-0.142254	0.187115	-0.015756	-0.773682	-0.221680	-0.726074	0.088702	-0.000205	0.028295	-0.792157	-0.142026	0.551150	-0.220341	-2.904887	-69.354881	33.098133
40168		8.785417	-0.017292	2.819376	0.323665	0.362352	-0.598749	-0.142416	0.155700	-0.010161	-0.762451	-0.222900	-0.727295	0.087876	-0.000157	0.028125	-0.792696	-0.141324	0.550692	-0.219999	-2.955117	-69.267641	33.063596
40169		8.661479	0.018355	2.867662	0.238633	0.355834	-0.698880	-0.142532	0.117067	0.001758	-0.772461	-0.212646	-0.725830	0.086632	0.000205	0.028626	-0.793113	-0.140634	0.550394	-0.219683	-3.026394	-69.202087	33.052306
40170		8.635524	0.070712	2.835512	0.235626	0.418593	-0.735977	-0.150830	0.064924	0.001312	-0.774902	-0.215088	-0.727783	0.086364	0.000729	0.028327	-0.793395	-0.139965	0.550312	-0.219297	-3.105640	-69.166326	33.043313
40171		8.663172	0.046698	2.839536	0.253131	0.406905	-0.708510	-0.162922	0.008779	0.007218	-0.772461	-0.218750	-0.726563	0.086633	0.000493	0.028391	-0.793522	-0.139298	0.550468	-0.218870	-3.205326	-69.162562	33.049913
40172		8.674682	0.026294	2.809328	0.287536	0.408426	-0.708094	-0.175322	-0.044330	-0.008273	-0.768555	-0.214844	-0.719971	0.086741	0.000284	0.028112	-0.793529	-0.138679	0.550840	-0.218303	-3.293214	-69.189713	33.035339
40173		8.683240	0.034300	2.861873	0.236089	0.393046	-0.681426	-0.177582	-0.087014	-0.013892	-0.774658	-0.204102	-0.729736	0.086820	0.000362	0.028656	-0.793423	-0.138116	0.551377	-0.217685	-3.377885	-69.241438	33.016893
40174		8.532203	0.051346	2.927958	0.118844	0.346233	-0.799361	-0.164282	-0.124221	-0.021618	-0.775391	-0.205322	-0.727783	0.085304	0.000528	0.029332	-0.793216	-0.137663	0.552043	-0.217039	-3.446765	-69.314759	32.988529
40175		8.421547	0.029419	2.820162	0.172014	0.350709	-0.940031	-0.163480	-0.173785	-0.027348	-0.773682	-0.210938	-0.732910	0.084191	0.000306	0.028275	-0.792874	-0.137287	0.552899	-0.216346	-3.511138	-69.416593	32.957046
40176		8.318135	0.050973	2.811524	0.121472	0.346081	-1.039770	-0.155769	-0.231127	-0.036723	-0.769531	-0.202393	-0.726074	0.083149	0.000516	0.028211	-0.792380	-0.137024	0.553967	-0.215588	-3.562245	-69.551541	32.914806
40177		8.352863	-0.033870	2.741775	0.210181	0.299608	-1.028907	-0.148260	-0.294332	-0.049107	-0.777832	-0.205811	-0.724365	0.083488	-0.000339	0.027541	-0.791715	-0.136899	0.555267	-0.214767	-3.596042	-69.723106	32.860066
40178		8.369143	-0.021867	2.772520	0.158741	0.284237	-1.002249	-0.142402	-0.361992	-0.056668	-0.775635	-0.206787	-0.722412	0.083641	-0.000223	0.027877	-0.790866	-0.136883	0.556822	-0.213876	-3.621061	-69.933619	32.798192
40179		8.474307	-0.097147	2.752483	0.212370	0.228745	-0.907525	-0.140123	-0.429012	-0.064572	-0.779785	-0.208008	-0.717529	0.084683	-0.000979	0.027707	-0.789831	-0.136976	0.558631	-0.212923	-3.638526	-70.182773	32.731185
40180		8.647936	-0.103480	2.878157	0.126227	0.176142	-0.700379	-0.130028	-0.480683	-0.061197	-0.778809	-0.201416	-0.715088	0.086410	-0.001042	0.028990	-0.788638	-0.137149	0.560633	-0.211966	-3.659954	-70.461344	32.673485
40181		8.830581	-0.098032	2.872765	0.140561	0.192146	-0.529117	-0.127596	-0.505522	-0.067171	-0.784912	-0.198486	-0.710938	0.088232	-0.000992	0.028951	-0.787374	-0.137379	0.562722	-0.210983	-3.672499	-70.754355	32.609101
40182		9.019882	-0.145010	2.874077	0.174730	0.158272	-0.347813	-0.126872	-0.503646	-0.077902	-0.791016	-0.198975	-0.708496	0.090125	-0.001467	0.028969	-0.786122	-0.137631	0.564793	-0.209949	-3.665749	-71.046662	32.523330
40183		9.108848	-0.156970	2.944554	0.107039	0.105030	-0.239626	-0.125053	-0.478826	-0.084736	-0.798096	-0.198486	-0.697510	0.091017	-0.001590	0.029664	-0.784939	-0.137890	0.566754	-0.208919	-3.642299	-71.325046	32.422682
40184		8.970459	-0.108118	3.070147	-0.096080	0.041369	-0.331363	-0.126331	-0.462862	-0.088809	-0.795410	-0.202881	-0.706299	0.089633	-0.001102	0.030910	-0.783803	-0.138131	0.568650	-0.207870	-3.609006	-71.594508	32.309674
40185		8.876374	-0.051108	3.087214	-0.198988	0.042732	-0.416841	-0.130747	-0.453416	-0.093576	-0.805664	-0.193115	-0.691650	0.088693	-0.000532	0.031074	-0.782695	-0.138365	0.570504	-0.206804	-3.566748	-71.858640	32.186102
40186		8.700362	-0.024587	3.114770	-0.315942	-0.000404	-0.576956	-0.133166	-0.449846	-0.105598	-0.808594	-0.200195	-0.689453	0.086933	-0.000271	0.031343	-0.781609	-0.138612	0.572338	-0.205676	-3.501667	-72.121154	32.035839
40187		8.632728	-0.023736	3.171650	-0.415929	-0.062118	-0.625364	-0.132055	-0.466371	-0.125023	-0.810791	-0.203857	-0.686768	0.086253	-0.000270	0.031918	-0.780488	-0.138943	0.574216	-0.204473	-3.399609	-72.393687	31.849065
40188		8.599414	0.028247	3.232682	-0.536049	-0.077568	-0.641678	-0.155253	-0.500516	-0.156310	-0.815430	-0.197754	-0.681641	0.085913	0.000241	0.032542	-0.779314	-0.139301	0.576227	-0.203047	-3.252307	-72.686758	31.600171
40189		8.655432	0.033930	3.202932	-0.536442	-0.081477	-0.599554	-0.180638	-0.524097	-0.187111	-0.813721	-0.189941	-0.674072	0.086470	0.000287	0.032256	-0.778112	-0.139677	0.578327	-0.201418	-3.057958	-72.993976	31.288270
40190		8.763690	0.078772	3.288761	-0.640885	-0.098079	-0.474388	-0.184702	-0.537013	-0.214681	-0.821777	-0.204102	-0.676025	0.087549	0.000724	0.033122	-0.776899	-0.140122	0.580460	-0.199650	-2.805244	-73.309108	30.912089
40191		8.954816	-0.028830	3.313633	-0.602564	-0.212544	-0.285819	-0.191967	-0.548416	-0.236643	-0.827637	-0.196777	-0.669922	0.089456	-0.000362	0.033382	-0.775670	-0.140619	0.582621	-0.197775	-2.502952	-73.630744	30.481858
40192		9.256582	-0.172835	3.486508	-0.647816	-0.414236	0.050293	-0.169414	-0.554611	-0.260798	-0.824951	-0.199463	-0.671387	0.092466	-0.001819	0.035123	-0.774425	-0.141274	0.584763	-0.195857	-2.125068	-73.955796	29.985919
40193		9.631000	-0.286705	3.543710	-0.594140	-0.533530	0.422461	-0.130108	-0.563698	-0.278599	-0.819336	-0.197021	-0.663330	0.096206	-0.002978	0.035710	-0.773133	-0.142145	0.586881	-0.193986	-1.671156	-74.285338	29.436320
40194		10.122976	-0.333209	3.757973	-0.680579	-0.653549	0.949161	-0.088973	-0.553213	-0.271769	-0.825684	-0.197998	-0.654297	0.101121	-0.003453	0.037861	-0.771832	-0.143137	0.588919	-0.192256	-1.185595	-74.607475	28.877750
40195		10.604458	-0.304984	3.795821	-0.652814	-0.632286	1.418054	-0.053160	-0.469170	-0.255581	-0.836914	-0.198975	-0.656250	0.105951	-0.003175	0.038208	-0.770727	-0.144144	0.590603	-0.190764	-0.689802	-74.880080	28.332100
40196		10.726131	-0.370312	3.725168	-0.564790	-0.686098	1.513124	-0.038335	-0.353113	-0.212500	-0.838135	-0.196777	-0.647949	0.107191	-0.003810	0.037442	-0.769911	-0.144962	0.591855	-0.189553	-0.258296	-75.084795	27.860987
40197		10.541540	-0.574681	3.744580	-0.549861	-0.931068	1.336613	-0.028512	-0.240181	-0.170344	-0.838623	-0.202148	-0.645752	0.105365	-0.005831	0.037573	-0.769377	-0.145593	0.592690	-0.188626	0.098658	-75.223948	27.474630
40198		10.137427	-0.666440	3.738207	-0.606531	-1.081063	0.941341	-0.037873	-0.160502	-0.140961	-0.835938	-0.203125	-0.651367	0.101339	-0.006729	0.037465	-0.769060	-0.146019	0.593250	-0.187831	0.391763	-75.316925	27.147569
40199		9.697845	-0.769502	3.654443	-0.594888	-1.202736	0.492399	-0.088158	-0.115038	-0.121686	-0.838623	-0.211670	-0.645020	0.096953	-0.007738	0.036604	-0.768892	-0.146159	0.593693	-0.187005	0.616113	-75.383609	26.863297
40200		9.274746	-0.792414	3.441638	-0.503800	-1.188487	0.027403	-0.137557	-0.090966	-0.119413	-0.843262	-0.206787	-0.652832	0.092727	-0.007956	0.034464	-0.768832	-0.146072	0.594093	-0.186049	0.808887	-75.436172	26.581236
40201		9.018714	-0.798612	3.170146	-0.331282	-1.112304	-0.290196	-0.185946	-0.082651	-0.135264	-0.838623	-0.200928	-0.651611	0.090169	-0.008018	0.031746	-0.768843	-0.145845	0.594492	-0.184902	1.010043	-75.483668	26.263183
40202		8.770784	-0.818430	2.868183	-0.124290	-1.034274	-0.607375	-0.220211	-0.094933	-0.153504	-0.834473	-0.211914	-0.649658	0.087688	-0.008220	0.028732	-0.768861	-0.145544	0.594957	-0.183565	1.234456	-75.537591	25.899438
40203		8.680074	-0.770079	2.694452	-0.024194	-0.937725	-0.739824	-0.222181	-0.129023	-0.181729	-0.837402	-0.207275	-0.650635	0.086776	-0.007750	0.027009	-0.768800	-0.145359	0.595531	-0.182098	1.524847	-75.610350	25.467973
40204		8.809425	-0.687148	2.483247	0.139133	-0.775100	-0.668046	-0.224604	-0.205847	-0.207996	-0.841553	-0.208008	-0.640869	0.088061	-0.006935	0.024931	-0.768537	-0.145304	0.596383	-0.180458	1.882447	-75.725935	24.964628
40205		9.204411	-0.586803	2.368655	0.264837	-0.618630	-0.314103	-0.211493	-0.301472	-0.225082	-0.843506	-0.199219	-0.639893	0.092002	-0.005946	0.023832	-0.767988	-0.145444	0.597575	-0.178730	2.302221	-75.895187	24.406479
40206		9.695712	-0.583783	2.199188	0.496539	-0.523482	0.120254	-0.177715	-0.366925	-0.236365	-0.844238	-0.202881	-0.641113	0.096910	-0.005933	0.022175	-0.767228	-0.145797	0.598978	-0.177002	2.786742	-76.100446	23.800684
40207		10.130329	-0.620161	2.105600	0.663757	-0.508919	0.518913	-0.119029	-0.373570	-0.237740	-0.845459	-0.200439	-0.643066	0.101256	-0.006309	0.021249	-0.766400	-0.146392	0.600349	-0.175447	3.325560	-76.308237	23.175462
40208		10.546713	-0.695102	2.062143	0.799689	-0.555709	0.912063	-0.098506	-0.355095	-0.226764	-0.843750	-0.207275	-0.633301	0.105422	-0.007060	0.020812	-0.765601	-0.147007	0.601638	-0.173999	3.864687	-76.504333	22.560971
40209		10.973669	-0.785636	1.874027	1.071596	-0.553175	1.282183	-0.051186	-0.311427	-0.203423	-0.854248	-0.215576	-0.624756	0.109699	-0.007963	0.018913	-0.764873	-0.147703	0.602732	-0.172824	4.383651	-76.675209	21.997137
40210		11.348517	-0.789590	1.833877	1.170153	-0.538722	1.637895	0.008939	-0.215799	-0.164716	-0.852539	-0.201660	-0.630127	0.113459	-0.007990	0.018461	-0.764355	-0.148423	0.603436	-0.172040	4.836805	-76.792064	21.535478
40211		11.470886	-0.809366	1.805705	1.221437	-0.556006	1.750003	0.032574	-0.072494	-0.108205	-0.843994	-0.213623	-0.626953	0.114698	-0.008159	0.018097	-0.764200	-0.148946	0.603612	-0.171658	5.141513	-76.829310	21.241508
40212		11.328599	-0.757737	1.905032	1.085308	-0.573823	1.634290	0.057444	0.058498	-0.042598	-0.851563	-0.212402	-0.623047	0.113290	-0.007607	0.019015	-0.764368	-0.149245	0.603316	-0.171690	5.271951	-76.794898	21.139707
40213		10.851285	-0.789613	1.983805	0.940225	-0.673737	1.186012	0.051975	0.136672	0.016280	-0.861084	-0.215576	-0.628418	0.108527	-0.007892	0.019762	-0.764722	-0.149286	0.602769	-0.171997	5.238865	-76.719025	21.204114
40214		10.339599	-0.838152	2.025299	0.829929	-0.768169	0.696012	0.050522	0.171734	0.056530	-0.853271	-0.218994	-0.633057	0.103416	-0.008357	0.020162	-0.765151	-0.149164	0.602119	-0.172473	5.100912	-76.625162	21.374275
40215		9.902900	-0.743069	2.138824	0.609211	-0.756279	0.299237	0.048873	0.183636	0.074816	-0.851563	-0.209717	-0.624023	0.099051	-0.007399	0.021295	-0.765597	-0.148976	0.601438	-0.173030	4.918473	-76.525349	21.590451
40216		9.551197	-0.729856	2.193680	0.493511	-0.784644	-0.029486	0.052537	0.188470	0.080531	-0.845703	-0.219238	-0.634033	0.095536	-0.007266	0.021845	-0.766052	-0.148775	0.600739	-0.173616	4.726172	-76.422848	21.817845
40217		9.288469	-0.626641	2.210882	0.388698	-0.709075	-0.278410	0.055068	0.177525	0.082906	-0.844727	-0.218262	-0.641846	0.092907	-0.006234	0.022025	-0.766467	-0.148592	0.600081	-0.174218	4.535328	-76.326569	22.046504
40218		9.107285	-0.527551	2.249337	0.283245	-0.640757	-0.443075	0.049948	0.159034	0.077065	-0.843018	-0.209961	-0.635254	0.091093	-0.005246	0.022420	-0.766837	-0.148416	0.599493	-0.174761	4.360941	-76.240362	22.254133
40219		9.006840	-0.467330	2.304968	0.195999	-0.608568	-0.525834	0.037558	0.142176	0.082772	-0.843994	-0.212646	-0.637207	0.090087	-0.004640	0.022985	-0.767158	-0.148197	0.598984	-0.175283	4.171897	-76.163934	22.470777
40220		8.993715	-0.528782	2.338811	0.199065	-0.668365	-0.530974	0.027072	0.116567	0.083084	-0.837891	-0.208740	-0.638428	0.089953	-0.005254	0.023335	-0.767411	-0.147951	0.598584	-0.175748	3.981856	-76.101946	22.681012
40221		9.051703	-0.576160	2.383188	0.200552	-0.714426	-0.464199	0.042607	0.095021	0.087445	-0.835938	-0.216553	-0.635010	0.090531	-0.005727	0.023788	-0.767583	-0.147779	0.598254	-0.176268	3.796320	-76.052317	22.897139
40222		9.147559	-0.654858	2.392383	0.254050	-0.770109	-0.369565	0.064369	0.087508	0.087849	-0.847168	-0.217773	-0.633789	0.091489	-0.006516	0.023882	-0.767717	-0.147688	0.597935	-0.176842	3.624200	-76.006790	23.111112
40223		9.287186	-0.598706	2.430654	0.231929	-0.714088	-0.223390	0.088724	0.089131	0.089250	-0.843262	-0.211182	-0.644531	0.092885	-0.005956	0.024262	-0.767834	-0.147692	0.597588	-0.177502	3.464445	-75.960281	23.327989
40224		9.403799	-0.607290	2.434307	0.264367	-0.702492	-0.108941	0.111842	0.097584	0.097188	-0.840820	-0.216064	-0.635010	0.094053	-0.006041	0.024294	-0.767953	-0.147747	0.597195	-0.178262	3.299305	-75.909020	23.563001
40225		9.497311	-0.606678	2.369907	0.347270	-0.654821	-0.033422	0.137321	0.100544	0.091585	-0.840576	-0.210205	-0.645508	0.094988	-0.006040	0.023647	-0.768065	-0.147920	0.596761	-0.179084	3.163200	-75.855771	23.784297
40226		9.539480	-0.544894	2.244953	0.444228	-0.530731	-0.021907	0.160210	0.111363	0.096123	-0.846436	-0.202148	-0.635742	0.095410	-0.005421	0.022392	-0.768190	-0.148151	0.596270	-0.179994	3.029254	-75.796299	24.015768
40227		9.545880	-0.456398	2.196472	0.455652	-0.419874	-0.026335	0.172972	0.116929	0.093166	-0.843018	-0.214355	-0.640625	0.095474	-0.004538	0.021905	-0.768322	-0.148442	0.595741	-0.180940	2.910897	-75.733477	24.239942
40228		9.491968	-0.400616	2.145842	0.469607	-0.343782	-0.090349	0.172334	0.101800	0.091708	-0.846924	-0.215332	-0.635254	0.094932	-0.003981	0.021407	-0.768411	-0.148740	0.595271	-0.181861	2.797694	-75.679137	24.457200
40229		9.465749	-0.318444	2.010176	0.549368	-0.204612	-0.148375	0.160657	0.085928	0.082103	-0.831787	-0.211670	-0.639893	0.094667	-0.003162	0.020059	-0.768467	-0.149044	0.594863	-0.182705	2.703033	-75.633541	24.649742
40230		9.422547	-0.242073	1.929051	0.578993	-0.097869	-0.209593	0.153029	0.061533	0.077540	-0.836426	-0.212891	-0.639893	0.094232	-0.002399	0.019260	-0.768462	-0.149347	0.594554	-0.183485	2.616724	-75.601683	24.828084
40231		9.435635	-0.127908	1.960889	0.504552	-0.003865	-0.187821	0.149714	0.034450	0.070380	-0.841064	-0.215820	-0.639648	0.094360	-0.001261	0.019592	-0.768384	-0.149691	0.594344	-0.184213	2.548457	-75.585110	24.986954
40232		9.526262	-0.082511	1.965581	0.500628	0.047997	-0.098417	0.134890	0.017412	0.065564	-0.838379	-0.214355	-0.641602	0.095265	-0.000807	0.019647	-0.768271	-0.150001	0.594211	-0.184859	2.483472	-75.578094	25.132536
40233		9.646402	-0.054712	1.966480	0.514264	0.088370	0.018428	0.114516	0.020931	0.052688	-0.835693	-0.212891	-0.638672	0.096466	-0.000533	0.019654	-0.768194	-0.150274	0.594072	-0.185404	2.436060	-75.568740	25.249063
40234		9.675976	-0.040693	1.971254	0.512887	0.105441	0.048237	0.097864	0.062969	0.038126	-0.833496	-0.210205	-0.637695	0.096766	-0.000398	0.019682	-0.768269	-0.150480	0.593777	-0.185868	2.406854	-75.534927	25.335734
40235		9.644523	0.014913	1.944607	0.509956	0.168258	0.011272	0.096507	0.116865	0.027321	-0.842529	-0.225098	-0.645264	0.096457	0.000153	0.019390	-0.768514	-0.150670	0.593266	-0.186334	2.396989	-75.470016	25.402859
40236		9.604112	0.047120	1.990905	0.457830	0.177603	-0.016580	0.091020	0.156830	0.016287	-0.834961	-0.209473	-0.644775	0.096057	0.000470	0.019834	-0.768892	-0.150828	0.592600	-0.186765	2.404143	-75.381953	25.448070
40237		9.520186	0.053268	1.981867	0.458396	0.184598	-0.100821	0.094701	0.180838	0.004332	-0.838135	-0.218262	-0.641846	0.095220	0.000525	0.019733	-0.769347	-0.151020	0.591827	-0.187186	2.438309	-75.279870	25.468664
40238		9.405745	0.005569	2.011644	0.445511	0.122537	-0.205333	0.086909	0.186825	-0.009809	-0.828369	-0.219971	-0.648438	0.094076	0.000042	0.020029	-0.769841	-0.151210	0.591029	-0.187526	2.497093	-75.174021	25.457913
40239		9.342527	-0.027803	2.068650	0.414436	0.064583	-0.253036	0.097374	0.166506	-0.027055	-0.832275	-0.211914	-0.643799	0.093442	-0.000301	0.020609	-0.770280	-0.151518	0.590283	-0.187822	2.601241	-75.079355	25.407703
40240		9.325172	-0.102596	2.018358	0.503378	0.021628	-0.284348	0.080248	0.137913	-0.039978	-0.825439	-0.214355	-0.643799	0.093265	-0.001053	0.020119	-0.770661	-0.151817	0.589656	-0.187989	2.724256	-75.000689	25.326509
40241		9.308558	-0.176292	1.965834	0.592336	-0.021350	-0.315661	0.077532	0.117011	-0.057210	-0.825439	-0.226074	-0.638672	0.093097	-0.001797	0.019603	-0.770996	-0.152183	0.589096	-0.188072	2.884348	-74.933445	25.206563
40242		9.281779	-0.303116	1.934539	0.684429	-0.123806	-0.352140	0.051386	0.096150	-0.068666	-0.834229	-0.226563	-0.651367	0.092826	-0.003068	0.019300	-0.771301	-0.152496	0.588634	-0.188013	3.054045	-74.877747	25.060071
40243		9.227314	-0.338389	1.868770	0.754900	-0.134258	-0.423213	0.053517	0.076285	-0.077959	-0.828125	-0.227051	-0.649414	0.092279	-0.003425	0.018652	-0.771554	-0.152869	0.588238	-0.187914	3.246575	-74.832962	24.892202
40244		9.204815	-0.322720	1.805196	0.805260	-0.098460	-0.462107	0.032157	0.050847	-0.080289	-0.833984	-0.219482	-0.646729	0.092051	-0.003267	0.018028	-0.771751	-0.153185	0.587960	-0.187719	3.433152	-74.802539	24.716767
40245		9.219092	-0.331173	1.622693	0.974738	-0.026662	-0.496914	0.035644	0.027394	-0.083195	-0.828613	-0.229492	-0.648926	0.092192	-0.003353	0.016214	-0.771878	-0.153550	0.587764	-0.187511	3.631018	-74.785237	24.532706
40246		9.218925	-0.246145	1.547393	1.004069	0.076422	-0.515935	0.029666	0.014095	-0.077540	-0.826904	-0.223145	-0.646484	0.092189	-0.002499	0.015467	-0.771966	-0.153882	0.587632	-0.187290	3.814116	-74.775661	24.359278
40247		9.194687	-0.257376	1.390417	1.140349	0.129049	-0.580964	0.014165	-0.011798	-0.073141	-0.827148	-0.230957	-0.647461	0.091945	-0.002608	0.013909	-0.771984	-0.154172	0.587616	-0.187027	3.983564	-74.780846	24.191901
40248		9.219822	-0.247390	1.174518	1.325474	0.231491	-0.612941	0.004078	-0.055933	-0.074715	-0.823730	-0.229248	-0.647705	0.092194	-0.002509	0.011771	-0.771883	-0.154462	0.587780	-0.186688	4.156498	-74.811147	24.013849
40249		9.207946	-0.209689	1.029017	1.425070	0.320764	-0.660890	-0.027860	-0.100645	-0.065902	-0.833252	-0.232178	-0.643066	0.092074	-0.002126	0.010337	-0.771666	-0.154651	0.588151	-0.186261	4.301242	-74.867151	23.847169
40250		9.413136	-0.189652	1.171516	1.337392	0.285168	-0.424099	-0.055589	-0.106410	-0.061016	-0.826904	-0.221680	-0.644043	0.094125	-0.001922	0.011766	-0.771449	-0.154718	0.588576	-0.185761	4.420924	-74.926685	23.689051
40251		9.594300	-0.267400	1.928370	0.765781	-0.118318	-0.053575	-0.125548	-0.094528	-0.033780	-0.831787	-0.229492	-0.638916	0.095933	-0.002678	0.019331	-0.771295	-0.154430	0.589038	-0.185174	4.442450	-74.980462	23.592095
40252		9.583464	-0.364772	2.870515	-0.005465	-0.640426	0.177583	-0.175018	-0.151184	-0.013926	-0.830566	-0.229492	-0.645996	0.095813	-0.003629	0.028781	-0.770993	-0.153938	0.589783	-0.184469	4.401993	-75.067646	23.528847
40253		10.006113	0.253473	3.282583	-0.568542	-0.245459	0.702935	-0.145443	-0.313853	-0.001093	-0.826172	-0.233643	-0.642334	0.100009	0.002558	0.032981	-0.770175	-0.153679	0.591133	-0.183781	4.379160	-75.248170	23.466080
40254		10.836201	0.787235	2.714892	-0.169213	0.558655	1.370908	-0.172723	-0.296679	0.018187	-0.833252	-0.219727	-0.634766	0.108321	0.007906	0.027303	-0.769409	-0.153236	0.592457	-0.183093	4.295000	-75.419840	23.449636
40255		11.341095	1.329378	2.141876	0.165775	1.346525	1.725714	-0.088013	-0.065069	0.060177	-0.829590	-0.234131	-0.632568	0.113400	0.013337	0.021450	-0.769224	-0.152788	0.592841	-0.183001	4.129031	-75.460834	23.568833
40256		11.130154	1.819107	2.064758	-0.045513	1.804708	1.509576	-0.068790	0.107496	0.097756	-0.832520	-0.232910	-0.634521	0.111304	0.018253	0.020581	-0.769501	-0.152139	0.592575	-0.183237	3.863519	-75.404743	23.801373
40257		10.514787	1.970631	2.614094	-0.723279	1.648201	1.051836	-0.191378	0.099627	0.132070	-0.834717	-0.220215	-0.648438	0.105148	0.019801	0.026070	-0.769816	-0.150929	0.592475	-0.183240	3.456646	-75.353905	24.108363
40258		9.862532	1.388104	3.137298	-1.056207	0.853394	0.540819	-0.416407	-0.002978	0.147001	-0.834717	-0.224121	-0.636719	0.098615	0.014019	0.031345	-0.769981	-0.148897	0.592987	-0.182551	2.902063	-75.361722	24.433853
40259		9.337939	0.502965	3.466218	-1.070092	-0.111241	0.102311	-0.488542	-0.130676	0.135326	-0.828369	-0.214355	-0.637939	0.093353	0.005178	0.034711	-0.769827	-0.146743	0.594043	-0.181513	2.344069	-75.441391	24.721031
40260		9.051049	-0.226769	3.576676	-0.926494	-0.822680	-0.157107	-0.466305	-0.203405	0.111728	-0.836670	-0.213867	-0.633545	0.090475	-0.002134	0.035864	-0.769456	-0.144805	0.595338	-0.180390	1.851580	-75.561681	24.952769
40261		8.976782	-0.786832	3.409084	-0.574841	-1.244880	-0.276266	-0.375684	-0.165244	0.095363	-0.830566	-0.204102	-0.638184	0.089743	-0.007761	0.034180	-0.769144	-0.143234	0.596388	-0.179505	1.440206	-75.659245	25.155065
40262		8.829478	-1.106608	3.333829	-0.421311	-1.503345	-0.439262	-0.241036	-0.084610	0.100368	-0.835449	-0.207275	-0.632568	0.088286	-0.010982	0.033389	-0.768970	-0.142087	0.597011	-0.179093	1.086410	-75.710460	25.376575
40263		8.834995	-1.239054	3.282413	-0.330523	-1.588452	-0.446035	-0.109677	-0.041464	0.130911	-0.843750	-0.197754	-0.635742	0.088351	-0.012315	0.032849	-0.768802	-0.141321	0.597369	-0.179226	0.736462	-75.736783	25.672653
40264		8.907055	-1.174544	3.301541	-0.369922	-1.517369	-0.369379	-0.023925	-0.008370	0.204819	-0.833496	-0.199219	-0.633545	0.089081	-0.011650	0.033021	-0.768606	-0.140628	0.597577	-0.179918	0.266345	-75.744114	26.142464
40265		8.980864	-1.240275	3.475650	-0.487037	-1.624269	-0.252414	0.028544	-0.041984	0.298499	-0.836670	-0.198486	-0.630859	0.089820	-0.012274	0.034774	-0.768186	-0.139893	0.597930	-0.181108	-0.385096	-75.769395	26.831260
40266		9.167955	-1.295993	3.473017	-0.437499	-1.628039	-0.068416	0.093820	-0.112012	0.411639	-0.840576	-0.199463	-0.633545	0.091687	-0.012788	0.034775	-0.767407	-0.139127	0.598571	-0.182873	-1.262016	-75.831668	27.790180
40267		9.600841	-1.458336	3.456577	-0.284342	-1.687213	0.352110	0.145018	-0.173401	0.503401	-0.843262	-0.191406	-0.625488	0.096015	-0.014367	0.034639	-0.766319	-0.138344	0.599460	-0.185104	-2.331195	-75.923383	28.978177
40268		10.220289	-1.625859	3.599499	-0.235480	-1.791330	0.994235	0.204741	-0.196432	0.556310	-0.838867	-0.192383	-0.624512	0.102212	-0.016011	0.036079	-0.765066	-0.137646	0.600414	-0.187696	-3.506182	-76.021095	30.309250
40269		10.940201	-1.622070	3.803659	-0.299168	-1.750875	1.747228	0.267031	-0.155558	0.559057	-0.843994	-0.186768	-0.625244	0.109417	-0.015966	0.038100	-0.763883	-0.137144	0.601148	-0.190515	-4.659692	-76.088705	31.655252
40270		11.390521	-1.230275	3.805830	-0.414330	-1.304466	2.181828	0.294271	-0.019506	0.522286	-0.847412	-0.185791	-0.627441	0.113933	-0.012061	0.038052	-0.763117	-0.136720	0.601307	-0.193364	-5.693256	-76.074362	32.892858
40271		11.273070	-0.657106	3.655636	-0.581928	-0.698486	2.021621	0.287843	0.163567	0.480649	-0.844971	-0.186035	-0.630127	0.112776	-0.006353	0.036455	-0.762940	-0.136224	0.600738	-0.196161	-6.581906	-75.953296	33.978438
40272		10.493204	-0.137372	3.537365	-0.871926	-0.243324	1.224499	0.276622	0.293242	0.442920	-0.848877	-0.177246	-0.628418	0.104987	-0.001190	0.035218	-0.763191	-0.135665	0.599656	-0.198864	-7.337950	-75.757262	34.920591
40273		9.698688	0.148652	3.435804	-1.063805	-0.013022	0.422516	0.286665	0.337560	0.394035	-0.840820	-0.181152	-0.628906	0.097042	0.001629	0.034197	-0.763609	-0.135251	0.598355	-0.201442	-7.942466	-75.537150	35.713941
40274		9.010433	0.435066	3.182637	-1.104640	0.289829	-0.315213	0.305682	0.322276	0.361512	-0.840820	-0.173828	-0.630615	0.090147	0.004465	0.031688	-0.763996	-0.135014	0.597068	-0.203937	-8.451031	-75.326397	36.419346
40275		8.464276	0.630963	3.062438	-1.192930	0.464819	-0.880644	0.309583	0.279941	0.343013	-0.836670	-0.178711	-0.633789	0.084675	0.006408	0.030516	-0.764266	-0.134897	0.595920	-0.206347	-8.913877	-75.139794	37.081259
40276		8.196463	0.728433	3.014533	-1.246051	0.556141	-1.156011	0.310639	0.199234	0.343272	-0.839111	-0.181641	-0.640869	0.081982	0.007378	0.030075	-0.764291	-0.134858	0.595077	-0.208701	-9.392199	-74.997329	37.759452
40277		8.244200	0.728508	2.969019	-1.197246	0.605602	-1.122898	0.318759	0.108789	0.340746	-0.839355	-0.177734	-0.641113	0.082446	0.007378	0.029657	-0.764038	-0.134958	0.594564	-0.211011	-9.881888	-74.904839	38.455473
40278		8.427686	0.719692	3.055797	-1.234462	0.606045	-0.925026	0.321074	0.059753	0.334672	-0.835938	-0.172852	-0.635254	0.084274	0.007289	0.030544	-0.763641	-0.135131	0.594229	-0.213268	-10.369914	-74.838900	39.150623
40279		8.746927	0.874891	3.110425	-1.299636	0.785229	-0.612512	0.320256	0.033763	0.323168	-0.835449	-0.180420	-0.631592	0.087460	0.008840	0.031104	-0.763175	-0.135367	0.593984	-0.215462	-10.839176	-74.787478	39.826820
40280		9.067878	0.898946	3.248561	-1.374591	0.811107	-0.271186	0.257324	-0.004050	0.298864	-0.837891	-0.175293	-0.634521	0.090665	0.009083	0.032499	-0.762662	-0.135470	0.593931	-0.217347	-11.306881	-74.758410	40.463467
40281		9.357755	0.992925	3.419360	-1.520360	0.875519	0.044668	0.221881	-0.032052	0.259695	-0.840820	-0.185059	-0.635254	0.093559	0.010013	0.034220	-0.762129	-0.135589	0.593995	-0.218961	-11.723620	-74.748390	41.026996
40282		9.642605	1.065719	3.458300	-1.546649	0.979620	0.322579	0.142941	-0.056791	0.207097	-0.835449	-0.174316	-0.633545	0.096405	0.010732	0.034618	-0.761634	-0.135587	0.594203	-0.220121	-12.088200	-74.757296	41.489063
40283		9.926585	0.980421	3.339425	-1.361692	1.017436	0.568097	0.088372	-0.075678	0.139812	-0.842773	-0.179199	-0.627197	0.099246	0.009859	0.033436	-0.761191	-0.135601	0.594496	-0.220851	-12.354442	-74.784421	41.817291
40284		10.124337	0.884188	3.107330	-1.090103	1.079562	0.703286	0.048534	-0.068614	0.056257	-0.843994	-0.170410	-0.638184	0.101230	0.008863	0.031110	-0.760889	-0.135700	0.594749	-0.221147	-12.469556	-74.817446	41.964644
40285		10.198301	0.853665	2.957064	-0.937864	1.134242	0.737773	0.014069	-0.015042	-0.030076	-0.840332	-0.185303	-0.631348	0.101982	0.008519	0.029579	-0.760864	-0.135870	0.594778	-0.221052	-12.401878	-74.831283	41.902694
40286		10.071028	0.721112	2.920791	-0.860745	1.008607	0.614126	0.004588	0.050193	-0.110409	-0.842773	-0.174072	-0.632568	0.100722	0.007155	0.029183	-0.761130	-0.136166	0.594515	-0.220663	-12.144591	-74.818149	41.638003
40287		9.834437	0.626050	2.865791	-0.800472	0.901936	0.378807	0.012693	0.078225	-0.167302	-0.841553	-0.174072	-0.635742	0.098361	0.006176	0.028620	-0.761534	-0.136635	0.594097	-0.220104	-11.753348	-74.795845	41.239947
40288		9.676501	0.528402	2.795675	-0.707323	0.810688	0.215877	0.009571	0.081951	-0.211160	-0.850586	-0.180176	-0.628174	0.096782	0.005181	0.027917	-0.762001	-0.137212	0.593637	-0.219366	-11.273329	-74.775497	40.747139
40289		9.616759	0.510462	2.730533	-0.636817	0.800277	0.144843	0.024728	0.086588	-0.240012	-0.844238	-0.188965	-0.636719	0.096185	0.004986	0.027264	-0.762500	-0.137934	0.593123	-0.218571	-10.724197	-74.754711	40.192510
40290		9.660774	0.384407	2.809050	-0.612566	0.644634	0.216183	0.017406	0.074664	-0.247710	-0.837646	-0.189941	-0.637939	0.096623	0.003722	0.028055	-0.762977	-0.138660	0.592655	-0.217714	-10.169408	-74.739925	39.627162
40291		9.711372	0.380446	2.686003	-0.476927	0.689759	0.235536	0.020497	0.088767	-0.256159	-0.833496	-0.191406	-0.633301	0.097130	0.003677	0.026817	-0.763500	-0.139410	0.592124	-0.216846	-9.591474	-74.716656	39.040067
40292		9.765078	0.487747	2.687756	-0.499237	0.774041	0.285344	0.014449	0.113286	-0.249278	-0.834717	-0.196045	-0.639404	0.097672	0.004754	0.026823	-0.764092	-0.140087	0.591509	-0.215999	-9.024948	-74.677166	38.460586
40293		9.726503	0.459208	2.739134	-0.512810	0.704658	0.264962	-0.017584	0.151526	-0.240288	-0.834961	-0.199951	-0.637451	0.097291	0.004478	0.027317	-0.764808	-0.140576	0.590788	-0.215122	-8.486602	-74.613942	37.891686
40294		9.768702	0.461056	2.738910	-0.478736	0.702344	0.307549	-0.037481	0.183249	-0.229288	-0.837646	-0.199707	-0.645508	0.097717	0.004504	0.027299	-0.765619	-0.140920	0.589973	-0.214247	-7.977525	-74.530286	37.340682
40295		9.771686	0.333099	2.858459	-0.487724	0.527567	0.348578	-0.064524	0.211443	-0.222732	-0.837891	-0.210693	-0.651123	0.097751	0.003231	0.028480	-0.766522	-0.141113	0.589082	-0.213340	-7.495616	-74.429021	36.801987
40296		9.719604	0.280762	2.946156	-0.516951	0.427573	0.325322	-0.085688	0.249569	-0.213435	-0.831299	-0.203857	-0.644287	0.097236	0.002716	0.029339	-0.767541	-0.141154	0.588073	-0.212429	-7.041515	-74.304059	36.278860
40297		9.531139	0.324537	2.849011	-0.465085	0.478368	0.118051	-0.097332	0.288390	-0.215173	-0.825684	-0.208008	-0.647705	0.095356	0.003157	0.028351	-0.768681	-0.141116	0.586924	-0.211507	-6.589567	-74.156200	35.751108
40298		9.203205	0.379946	2.727023	-0.428713	0.530901	-0.230712	-0.141329	0.298181	-0.204053	-0.824707	-0.200439	-0.648682	0.092076	0.003725	0.027130	-0.769868	-0.140864	0.585790	-0.210502	-6.191589	-74.000841	35.252475
40299		8.933632	0.271687	2.602556	-0.300034	0.452701	-0.519580	-0.168560	0.288290	-0.195844	-0.829834	-0.203857	-0.648193	0.089376	0.002651	0.025894	-0.771032	-0.140494	0.584726	-0.209444	-5.836061	-73.849887	34.781793
40300		8.772734	0.247973	2.582478	-0.278948	0.417471	-0.678171	-0.167918	0.278043	-0.186879	-0.818848	-0.200195	-0.662354	0.087765	0.002419	0.025701	-0.772155	-0.140108	0.583705	-0.208411	-5.507140	-73.703358	34.338323
40301		8.688456	0.305872	2.539903	-0.263537	0.476378	-0.771809	-0.177996	0.257468	-0.169861	-0.819336	-0.205322	-0.657959	0.086920	0.003007	0.025284	-0.773202	-0.139658	0.582785	-0.207402	-5.227407	-73.567132	33.940308
40302		8.597429	0.255136	2.527150	-0.225281	0.425871	-0.860860	-0.198907	0.231360	-0.158557	-0.818848	-0.203613	-0.652832	0.086005	0.002508	0.025170	-0.774177	-0.139116	0.581992	-0.206353	-4.991051	-73.444538	33.574058
40303		8.631077	0.259043	2.560777	-0.225719	0.421806	-0.818730	-0.209369	0.212823	-0.149459	-0.813965	-0.196533	-0.673828	0.086340	0.002553	0.025513	-0.775091	-0.138530	0.581288	-0.205299	-4.785474	-73.331870	33.234162
40304		8.711366	0.208488	2.574193	-0.173219	0.386884	-0.736448	-0.223045	0.203749	-0.139667	-0.815430	-0.197510	-0.660645	0.087141	0.002053	0.025651	-0.775978	-0.137868	0.580637	-0.204232	-4.611186	-73.223433	32.917781
40305		8.820740	0.137941	2.585268	-0.103237	0.340397	-0.626745	-0.236326	0.195074	-0.132292	-0.819092	-0.196289	-0.675293	0.088233	0.001352	0.025765	-0.776837	-0.137145	0.580037	-0.203154	-4.462861	-73.119531	32.621176
40306		8.883839	0.120035	2.615353	-0.086139	0.324786	-0.557195	-0.251010	0.195193	-0.130151	-0.818604	-0.193848	-0.664307	0.088865	0.001175	0.026065	-0.777705	-0.136354	0.579452	-0.202035	-4.329578	-73.015100	32.330482
40307		8.935814	0.066255	2.499274	0.068294	0.341031	-0.540226	-0.266178	0.183849	-0.129886	-0.810547	-0.207275	-0.672607	0.089381	0.000638	0.024910	-0.778545	-0.135518	0.578925	-0.200870	-4.209622	-72.917110	32.045335
40308		8.986784	-0.001678	2.507931	0.122051	0.288754	-0.487790	-0.274813	0.167624	-0.118038	-0.818115	-0.200684	-0.676514	0.089889	-0.000035	0.025004	-0.779331	-0.134628	0.578475	-0.199711	-4.120736	-72.827617	31.786812
40309		8.982901	0.001793	2.521804	0.121962	0.288434	-0.487779	-0.265764	0.141186	-0.110573	-0.809570	-0.200439	-0.676514	0.089847	0.000002	0.025155	-0.780024	-0.133780	0.578123	-0.198593	-4.045786	-72.752949	31.548758
40310		9.059377	-0.159760	2.557857	0.197237	0.144027	-0.400950	-0.264081	0.110996	-0.101252	-0.807861	-0.196777	-0.668457	0.090607	-0.001610	0.025530	-0.780619	-0.132939	0.577891	-0.197491	-3.991853	-72.694938	31.333051
40311		9.064375	-0.206260	2.532738	0.250411	0.116592	-0.402911	-0.250384	0.096030	-0.089782	-0.816162	-0.192383	-0.683350	0.090655	-0.002072	0.025286	-0.781147	-0.132136	0.577711	-0.196468	-3.954057	-72.645120	31.142995
40312		9.085095	-0.326199	2.526604	0.324210	0.018117	-0.382755	-0.231840	0.097950	-0.079402	-0.806396	-0.188965	-0.679443	0.090862	-0.003269	0.025225	-0.781658	-0.131369	0.577512	-0.195535	-3.924873	-72.593645	30.972359
40313		9.024900	-0.472562	2.487231	0.417499	-0.101680	-0.449259	-0.200558	0.107992	-0.066973	-0.815674	-0.204346	-0.672607	0.090261	-0.004731	0.024828	-0.782162	-0.130682	0.577249	-0.194751	-3.899888	-72.536038	30.825544
40314		8.973635	-0.614664	2.547820	0.425787	-0.259377	-0.477446	-0.166556	0.105146	-0.062111	-0.805908	-0.197510	-0.690430	0.089748	-0.006153	0.025436	-0.782632	-0.130114	0.576967	-0.194079	-3.864959	-72.479750	30.688223
40315		9.051473	-0.754154	2.667898	0.415082	-0.420618	-0.364599	-0.109025	0.100162	-0.046950	-0.796631	-0.189941	-0.685303	0.090526	-0.007548	0.026638	-0.783033	-0.129735	0.576658	-0.193633	-3.825845	-72.425798	30.581503
40316		9.147322	-0.742699	2.821460	0.311379	-0.458613	-0.227362	-0.046254	0.083511	-0.018716	-0.799805	-0.196777	-0.680908	0.091484	-0.007429	0.028178	-0.783320	-0.129532	0.576372	-0.193462	-3.803890	-72.380077	30.529672
40317		9.252706	-0.746136	2.944698	0.242126	-0.494867	-0.089673	0.011696	0.079552	0.006433	-0.810303	-0.196289	-0.687012	0.092539	-0.007460	0.029410	-0.783531	-0.129491	0.576061	-0.193559	-3.794753	-72.335855	30.526933
40318		9.393481	-0.684729	2.950012	0.253545	-0.416438	0.044857	0.056163	0.085555	0.034122	-0.807861	-0.190674	-0.690918	0.093949	-0.006840	0.029458	-0.783705	-0.129537	0.575701	-0.193893	-3.808891	-72.287023	30.574855
40319		9.531948	-0.658883	2.952303	0.283729	-0.366887	0.176964	0.102222	0.098918	0.062021	-0.802734	-0.192627	-0.695068	0.095336	-0.006574	0.029473	-0.783859	-0.129672	0.575262	-0.194481	-3.844846	-72.229605	30.673916
40320		9.623769	-0.576326	2.933992	0.294610	-0.263593	0.257124	0.146368	0.112102	0.079414	-0.795898	-0.185791	-0.683838	0.096256	-0.005746	0.029282	-0.784008	-0.129913	0.574740	-0.195266	-3.884414	-72.163787	30.802466
40321		9.778925	-0.429341	2.926699	0.284143	-0.096837	0.399421	0.176309	0.117809	0.090061	-0.805176	-0.191650	-0.695801	0.097808	-0.004275	0.029206	-0.784139	-0.130239	0.574172	-0.196189	-3.924377	-72.094436	30.950410
40322		9.841277	-0.304914	2.999301	0.191589	0.001206	0.478221	0.175572	0.116725	0.090864	-0.799805	-0.195801	-0.689453	0.098432	-0.003031	0.029933	-0.784268	-0.130556	0.573609	-0.197106	-3.965670	-72.025488	31.098378
40323		9.851968	-0.093397	2.952446	0.145943	0.219745	0.469206	0.157155	0.112213	0.090897	-0.795654	-0.201416	-0.693359	0.098537	-0.000912	0.029468	-0.784394	-0.130810	0.573082	-0.197973	-4.017296	-71.959233	31.247162
40324		9.828922	0.062873	2.940101	0.086814	0.369283	0.439724	0.127878	0.120770	0.087361	-0.797119	-0.193604	-0.687744	0.098307	0.000653	0.029342	-0.784567	-0.130947	0.572546	-0.198743	-4.077520	-71.888032	31.386797
40325		9.675197	0.235404	2.997116	-0.072863	0.482772	0.307054	0.117567	0.137291	0.090592	-0.796631	-0.196533	-0.698975	0.096771	0.002380	0.029906	-0.784789	-0.131022	0.571958	-0.199511	-4.146523	-71.807361	31.530120
40326		9.618072	0.263135	3.197158	-0.260124	0.422014	0.314138	0.113645	0.145679	0.092262	-0.797607	-0.194824	-0.692139	0.096203	0.002658	0.031903	-0.785036	-0.131064	0.571341	-0.200275	-4.218573	-71.721625	31.673553
40327		9.577339	0.336539	3.601244	-0.636255	0.314328	0.400245	0.134822	0.131417	0.082047	-0.804199	-0.199219	-0.686523	0.095796	0.003380	0.035952	-0.785237	-0.131236	0.570751	-0.201055	-4.261837	-71.644573	31.800313
40328		9.693548	0.283218	3.836547	-0.770854	0.190175	0.586052	0.129206	0.075443	0.062495	-0.800781	-0.194092	-0.689209	0.096949	0.002838	0.038331	-0.785302	-0.131495	0.570374	-0.201701	-4.281215	-71.600237	31.898021
40329		9.981218	-0.040132	3.476820	-0.233391	0.112432	0.753650	0.112005	0.065762	0.028850	-0.797119	-0.193848	-0.689453	0.099824	-0.000406	0.034735	-0.785382	-0.131796	0.570030	-0.202164	-4.253865	-71.562947	31.936650
40330		10.083566	-0.223435	2.930744	0.350342	0.208776	0.682604	0.076498	0.136416	-0.021479	-0.791748	-0.197266	-0.699951	0.100855	-0.002256	0.029238	-0.785740	-0.132025	0.569411	-0.202369	-4.151865	-71.487324	31.874429
40331		9.763883	-0.242579	2.735733	0.457928	0.226739	0.317234	0.080972	0.251229	-0.069673	-0.797119	-0.196289	-0.696533	0.097672	-0.002471	0.027234	-0.786468	-0.132296	0.568304	-0.202478	-3.952540	-71.348070	31.712903
40332		9.325762	-0.073326	2.814923	0.218953	0.269508	-0.077269	0.115542	0.231409	-0.093113	-0.798340	-0.200195	-0.696533	0.093290	-0.000793	0.028041	-0.787141	-0.132786	0.567223	-0.202574	-3.698792	-71.220692	31.513855
40333		9.244093	0.040423	2.898038	0.096115	0.317724	-0.130576	0.141323	0.167540	-0.089581	-0.798584	-0.208740	-0.692383	0.092465	0.000342	0.028903	-0.787608	-0.133435	0.566368	-0.202720	-3.445805	-71.129579	31.331934
40334		9.212356	0.194690	3.054922	-0.097312	0.375951	-0.112836	0.138032	0.158483	-0.080041	-0.787598	-0.197754	-0.703369	0.092148	0.001889	0.030478	-0.788043	-0.134052	0.565559	-0.202885	-3.213309	-71.043046	31.169211
40335		9.227532	0.399511	2.877207	-0.023382	0.634160	-0.159577	0.124686	0.139603	-0.071827	-0.788086	-0.205811	-0.704102	0.092297	0.003944	0.028710	-0.788422	-0.134614	0.564842	-0.203035	-3.005687	-70.966893	31.025002
40336		9.223351	0.438149	2.934447	-0.075790	0.639881	-0.145322	0.079371	0.118910	-0.055582	-0.788330	-0.202393	-0.712646	0.092252	0.004344	0.029291	-0.788760	-0.134967	0.564263	-0.203100	-2.853821	-70.901805	30.911309
40337		9.425322	0.380453	2.949655	0.009084	0.616217	0.051494	0.026268	0.133510	-0.044952	-0.787354	-0.207275	-0.695801	0.094274	0.003779	0.029434	-0.789160	-0.135071	0.563687	-0.203074	-2.749663	-70.828136	30.816805
40338		9.590600	0.239823	2.773913	0.285012	0.601066	0.151708	-0.013972	0.187273	-0.045338	-0.788574	-0.203125	-0.711426	0.095932	0.002378	0.027649	-0.789741	-0.134959	0.562940	-0.202962	-2.664400	-70.723535	30.717000
40339		9.639525	0.077444	2.695008	0.462183	0.507730	0.173205	-0.018542	0.245575	-0.039973	-0.780518	-0.206787	-0.703369	0.096428	0.000758	0.026832	-0.790481	-0.134758	0.561970	-0.202904	-2.587347	-70.585500	30.623891
40340		9.533894	-0.038125	2.745681	0.469901	0.374942	0.090539	-0.009723	0.301186	-0.042948	-0.784668	-0.198975	-0.705566	0.095380	-0.000400	0.027313	-0.791375	-0.134539	0.560768	-0.202890	-2.497606	-70.415550	30.521709
40341		9.378308	-0.164598	2.766512	0.495841	0.238204	-0.048945	0.004228	0.315409	-0.043445	-0.779785	-0.214111	-0.713379	0.093826	-0.001667	0.027517	-0.792296	-0.134366	0.559494	-0.202929	-2.399943	-70.237530	30.420378
40342		9.185660	-0.159040	2.869008	0.379915	0.175109	-0.197191	0.019518	0.299875	-0.037702	-0.777588	-0.214355	-0.726318	0.091899	-0.001611	0.028552	-0.793157	-0.134250	0.558268	-0.203016	-2.305203	-70.068152	30.330614
40343		9.047034	-0.071317	2.822862	0.360392	0.257302	-0.345569	0.014033	0.237408	-0.034587	-0.775879	-0.214111	-0.718018	0.090504	-0.000731	0.028121	-0.793841	-0.134170	0.557297	-0.203064	-2.223962	-69.934478	30.252531
40344		9.066921	0.130016	2.608854	0.467995	0.538336	-0.404009	0.008667	0.183140	-0.031980	-0.786865	-0.206787	-0.714600	0.090693	0.001285	0.026006	-0.794376	-0.134114	0.556547	-0.203065	-2.153631	-69.831632	30.182113
40345		9.046708	0.204184	2.461036	0.565982	0.669814	-0.476076	-0.020056	0.175805	-0.044435	-0.781494	-0.213867	-0.722900	0.090489	0.002024	0.024531	-0.794919	-0.133989	0.555848	-0.202937	-2.081946	-69.733371	30.093290
40346		8.947326	0.219961	2.413221	0.583645	0.690443	-0.587217	-0.035825	0.146758	-0.065395	-0.771484	-0.210693	-0.719727	0.089492	0.002175	0.024066	-0.795415	-0.133886	0.555266	-0.202658	-1.989065	-69.652163	29.971585
40347		8.918042	0.185144	2.332767	0.670777	0.689636	-0.643063	-0.032235	0.099154	-0.087678	-0.766846	-0.201416	-0.728516	0.089193	0.001816	0.023283	-0.795796	-0.133909	0.554853	-0.202273	-1.863245	-69.598526	29.817480
40348		8.964528	0.205274	2.372561	0.652468	0.693262	-0.586225	-0.007730	0.047691	-0.117268	-0.766846	-0.203857	-0.721680	0.089652	0.002001	0.023704	-0.796051	-0.134159	0.554602	-0.201795	-1.680882	-69.574636	29.616888
40349		8.933026	0.201147	2.371145	0.653657	0.675667	-0.616061	0.002256	0.007962	-0.139319	-0.772949	-0.212158	-0.720459	0.089333	0.001949	0.023708	-0.796208	-0.134555	0.554482	-0.201239	-1.461015	-69.573708	29.383463
40350		8.917018	0.318398	2.536585	0.462041	0.691743	-0.573810	0.006867	-0.027259	-0.153488	-0.762207	-0.211670	-0.719727	0.089169	0.003115	0.025378	-0.796280	-0.135040	0.554490	-0.200608	-1.217746	-69.592800	29.126955
40351		8.986471	0.408741	2.603568	0.389180	0.739798	-0.485120	-0.001920	-0.041473	-0.160962	-0.767334	-0.208008	-0.729004	0.089863	0.004015	0.026054	-0.796324	-0.135529	0.554556	-0.199920	-0.968028	-69.619748	28.859179
40352		9.090715	0.553544	2.636062	0.329904	0.856824	-0.375880	-0.038306	-0.033632	-0.161108	-0.763916	-0.218506	-0.727051	0.090907	0.005467	0.026375	-0.796416	-0.135861	0.554627	-0.199128	-0.737950	-69.641722	28.589019
40353		9.154603	0.602184	2.599523	0.360866	0.913881	-0.327885	-0.080017	-0.026292	-0.150621	-0.771240	-0.210938	-0.725586	0.091547	0.005963	0.026005	-0.796543	-0.135995	0.554717	-0.198275	-0.547534	-69.659171	28.336843
40354		9.147242	0.569374	2.677293	0.312401	0.839006	-0.306764	-0.129567	-0.036851	-0.141299	-0.766113	-0.203369	-0.725098	0.091471	0.005646	0.026786	-0.796667	-0.135911	0.554905	-0.197306	-0.399350	-69.682297	28.098457
40355		9.079586	0.502738	2.746173	0.266441	0.729604	-0.345387	-0.155433	-0.052403	-0.129819	-0.759277	-0.213867	-0.715576	0.090792	0.004990	0.027482	-0.796751	-0.135713	0.555187	-0.196309	-0.283750	-69.714174	27.880058
40356		8.842604	0.455838	2.676274	0.272613	0.671695	-0.591170	-0.175252	-0.065699	-0.117072	-0.774902	-0.206543	-0.729492	0.088420	0.004530	0.026788	-0.796801	-0.135407	0.555550	-0.195289	-0.198714	-69.753481	27.680924
40357		8.508859	0.413531	2.726290	0.144275	0.551275	-0.886343	-0.198748	-0.105240	-0.106998	-0.769287	-0.206299	-0.725342	0.085076	0.004117	0.027304	-0.796743	-0.135024	0.556099	-0.194225	-0.142477	-69.815367	27.499459
40358		8.283126	0.441679	2.717314	0.061450	0.536113	-1.100750	-0.233430	-0.165129	-0.107528	-0.770996	-0.216064	-0.720215	0.082811	0.004404	0.027236	-0.796544	-0.134555	0.556920	-0.193012	-0.104624	-69.911502	27.315012
40359		8.233727	0.485332	2.802622	-0.058679	0.521162	-1.117320	-0.282783	-0.241098	-0.108341	-0.778564	-0.205811	-0.721436	0.082306	0.004848	0.028119	-0.796162	-0.133972	0.558087	-0.191617	-0.092757	-70.051151	27.129754
40360		8.297552	0.409170	2.960364	-0.157269	0.385211	-1.003183	-0.328251	-0.314839	-0.103485	-0.774170	-0.208496	-0.716797	0.082931	0.004098	0.029727	-0.795597	-0.133260	0.559594	-0.190057	-0.113008	-70.233116	26.950194
40361		8.496306	0.214546	3.176349	-0.217740	0.137775	-0.743180	-0.347331	-0.367443	-0.114884	-0.778564	-0.205322	-0.718262	0.084906	0.002152	0.031916	-0.794903	-0.132557	0.561315	-0.188369	-0.124750	-70.445185	26.751152
40362		8.742590	-0.036379	3.266643	-0.140299	-0.102814	-0.481300	-0.352877	-0.416091	-0.119061	-0.779785	-0.195801	-0.721191	0.087357	-0.000358	0.032849	-0.794076	-0.131885	0.563230	-0.186608	-0.130458	-70.685175	26.541577
40363		9.096177	-0.212356	3.295280	-0.017373	-0.238191	-0.138638	-0.356599	-0.412498	-0.141106	-0.791504	-0.199219	-0.712646	0.090892	-0.002129	0.033144	-0.793274	-0.131259	0.565113	-0.184757	-0.099552	-70.923084	26.292322
40364		9.355524	-0.369139	3.218461	0.156894	-0.329740	0.081103	-0.350271	-0.406329	-0.155628	-0.785645	-0.191650	-0.708008	0.093487	-0.003708	0.032381	-0.792494	-0.130686	0.566954	-0.182859	-0.037156	-71.157418	26.012419
40365		9.482720	-0.420816	3.303137	0.107179	-0.416147	0.228475	-0.360704	-0.430064	-0.175526	-0.786621	-0.196533	-0.708496	0.094752	-0.004232	0.033243	-0.791664	-0.130155	0.568879	-0.180845	0.057608	-71.405209	25.693968
40366		9.586340	-0.379752	3.352229	0.036040	-0.410348	0.341606	-0.366332	-0.484781	-0.176031	-0.801514	-0.185303	-0.706787	0.095778	-0.003820	0.033762	-0.790676	-0.129645	0.571021	-0.178767	0.155953	-71.684184	25.367327
40367		9.774574	-0.299399	3.347193	0.012574	-0.337725	0.517906	-0.365948	-0.534307	-0.166343	-0.794434	-0.182861	-0.701416	0.097653	-0.003014	0.033738	-0.789528	-0.129159	0.573358	-0.176703	0.244736	-71.991380	25.053037
40368		9.898176	-0.367068	3.399739	-0.019323	-0.431894	0.650566	-0.357151	-0.537485	-0.152163	-0.798584	-0.189453	-0.697998	0.098887	-0.003685	0.034270	-0.788346	-0.128657	0.575705	-0.174705	0.319502	-72.300351	24.757330
40369		9.821792	-0.384231	3.598648	-0.254753	-0.563193	0.636388	-0.342022	-0.504774	-0.132343	-0.803955	-0.187012	-0.692871	0.098124	-0.003845	0.036241	-0.787220	-0.128139	0.577913	-0.172860	0.373619	-72.590492	24.494851
40370		9.755894	-0.396502	3.860303	-0.541685	-0.709520	0.648649	-0.339459	-0.466675	-0.120188	-0.810791	-0.185791	-0.684814	0.097466	-0.003958	0.038837	-0.786187	-0.127554	0.579974	-0.171083	0.411271	-72.858802	24.250101
40371		9.678582	-0.501556	4.140885	-0.806822	-0.944215	0.653007	-0.342578	-0.413862	-0.107970	-0.808594	-0.180908	-0.686523	0.096697	-0.004997	0.041618	-0.785290	-0.126883	0.581831	-0.169388	0.427749	-73.096857	24.027408
40372		9.552054	-0.593532	4.443625	-1.106103	-1.176728	0.614754	-0.332176	-0.351405	-0.105085	-0.806396	-0.178467	-0.685303	0.095439	-0.005911	0.044614	-0.784562	-0.126184	0.583434	-0.167763	0.446773	-73.299212	23.807142
40373		9.420513	-0.470206	4.603139	-1.365571	-1.152432	0.529607	-0.331807	-0.301885	-0.097635	-0.812744	-0.172852	-0.681885	0.094133	-0.004671	0.046181	-0.783966	-0.125429	0.584842	-0.166208	0.453868	-73.473123	23.601161
40374		9.275459	-0.376585	4.623345	-1.487628	-1.096246	0.392038	-0.364055	-0.207114	-0.090099	-0.813477	-0.166504	-0.677979	0.092705	-0.003723	0.046336	-0.783660	-0.124436	0.585908	-0.164635	0.427784	-73.592711	23.408944
40375		8.987141	-0.221754	4.507430	-1.543007	-0.940662	0.080192	-0.403307	-0.113334	-0.086146	-0.817383	-0.175293	-0.682861	0.089845	-0.002165	0.045130	-0.783643	-0.123210	0.586637	-0.163032	0.371476	-73.658690	23.226603
40376		8.693243	-0.178651	4.422445	-1.575751	-0.894475	-0.227317	-0.466531	-0.076654	-0.082686	-0.816162	-0.167480	-0.673340	0.086915	-0.001719	0.044262	-0.783769	-0.121687	0.587274	-0.161269	0.271803	-73.703680	23.050151
40377		8.474589	-0.306354	4.293813	-1.481899	-0.977661	-0.474729	-0.521568	-0.079324	-0.090999	-0.822754	-0.165039	-0.683594	0.084727	-0.002990	0.042980	-0.783919	-0.119983	0.587957	-0.159318	0.157432	-73.750328	22.857804
40378		8.336351	-0.417271	4.064637	-1.288029	-1.000064	-0.673160	-0.561102	-0.125319	-0.100837	-0.816406	-0.170410	-0.681152	0.083336	-0.004101	0.040710	-0.783962	-0.118181	0.588841	-0.157175	0.040297	-73.823354	22.643391
40379		8.266974	-0.640535	3.779091	-0.987206	-1.101845	-0.821247	-0.570182	-0.169405	-0.107346	-0.819824	-0.166992	-0.680664	0.082634	-0.006342	0.037879	-0.783876	-0.116403	0.589895	-0.154962	-0.068467	-73.921832	22.416354
40380		8.279855	-0.832846	3.520326	-0.705919	-1.182459	-0.882640	-0.533695	-0.240992	-0.113999	-0.818115	-0.162354	-0.674805	0.082751	-0.008281	0.035325	-0.783558	-0.114837	0.591192	-0.152779	-0.141824	-74.061258	22.173278
40381		8.496953	-0.945177	3.382371	-0.516484	-1.218594	-0.714326	-0.462377	-0.323836	-0.109070	-0.823242	-0.156738	-0.677979	0.084909	-0.009420	0.033983	-0.782941	-0.113604	0.592757	-0.150785	-0.183026	-74.248384	21.940538
40382		8.923754	-1.226350	3.283072	-0.253188	-1.410747	-0.333161	-0.381603	-0.390976	-0.100421	-0.821777	-0.154785	-0.665527	0.089167	-0.012245	0.033028	-0.782069	-0.112704	0.594524	-0.149017	-0.193255	-74.473816	21.722699
40383		9.550551	-1.418163	3.089131	0.105046	-1.473261	0.216531	-0.268550	-0.422391	-0.084309	-0.833740	-0.152100	-0.665283	0.095434	-0.014180	0.031112	-0.781020	-0.112228	0.596335	-0.147637	-0.169021	-74.717385	21.537779
40384		10.105311	-1.500052	2.815217	0.475905	-1.416881	0.678201	-0.143055	-0.380528	-0.059637	-0.834473	-0.148682	-0.668457	0.100995	-0.015010	0.028355	-0.780006	-0.112130	0.597900	-0.146743	-0.121545	-74.936776	21.402268
40385		10.649271	-1.510637	2.633690	0.741182	-1.327293	1.156094	-0.014658	-0.281057	-0.026509	-0.836426	-0.150879	-0.658936	0.106454	-0.015119	0.026488	-0.779187	-0.112367	0.599000	-0.146425	-0.068449	-75.099238	21.338428
40386		10.901075	-1.317916	2.445010	0.881046	-1.067859	1.351176	0.092151	-0.132405	0.015797	-0.828125	-0.149414	-0.663574	0.108996	-0.013182	0.024516	-0.778724	-0.112777	0.599465	-0.146667	-0.044613	-75.176320	21.366849
40387		10.706620	-1.251090	2.230232	0.999468	-0.949812	1.108384	0.169765	0.024212	0.048081	-0.835693	-0.157227	-0.660156	0.107072	-0.012504	0.022279	-0.778660	-0.113285	0.599282	-0.147363	-0.045545	-75.163827	21.468250
40388		10.429166	-1.087851	2.313287	0.807578	-0.847029	0.861233	0.205785	0.128940	0.087501	-0.826172	-0.155518	-0.659180	0.104311	-0.010857	0.023054	-0.778863	-0.113730	0.598685	-0.148372	-0.110565	-75.091086	21.656071
40389		9.917426	-1.035935	2.357406	0.641585	-0.851557	0.377948	0.188588	0.183318	0.108929	-0.831299	-0.155518	-0.666016	0.099201	-0.010327	0.023473	-0.779217	-0.114011	0.597901	-0.149452	-0.229169	-74.987273	21.890498
40390		9.597312	-0.948256	2.459916	0.453986	-0.825429	0.095456	0.191135	0.121867	0.116532	-0.827881	-0.153076	-0.662354	0.095994	-0.009450	0.024532	-0.779382	-0.114318	0.597358	-0.150526	-0.361352	-74.918328	22.139373
40391		9.593617	-0.869749	2.401356	0.483595	-0.722350	0.076944	0.179911	0.050345	0.113126	-0.815674	-0.154053	-0.666748	0.095947	-0.008665	0.023982	-0.779339	-0.114652	0.597098	-0.151520	-0.492099	-74.890412	22.381378
40392		9.600908	-0.768530	2.314319	0.528956	-0.588662	0.061412	0.184563	0.042655	0.104940	-0.823730	-0.159424	-0.669189	0.096018	-0.007656	0.023116	-0.779279	-0.115027	0.596861	-0.152483	-0.602842	-74.866617	22.604095
40393		9.580527	-0.742641	2.340253	0.493475	-0.569569	0.048696	0.168217	0.026031	0.093435	-0.825195	-0.157471	-0.659424	0.095812	-0.007401	0.023384	-0.779183	-0.115392	0.596693	-0.153351	-0.698052	-74.852513	22.802393
40394		9.625126	-0.770245	2.193112	0.647018	-0.532522	0.053611	0.178103	0.000427	0.078105	-0.826660	-0.156250	-0.670166	0.096254	-0.007684	0.021924	-0.779018	-0.115855	0.596607	-0.154167	-0.756147	-74.852949	22.966946
40395		9.654086	-0.706295	2.120387	0.694112	-0.441102	0.062529	0.202260	-0.017117	0.070767	-0.824951	-0.161133	-0.668701	0.096542	-0.007050	0.021205	-0.778790	-0.116454	0.596567	-0.155023	-0.784963	-74.863631	23.116671
40396		9.684322	-0.831143	1.850494	0.988989	-0.452885	0.021845	0.230752	-0.017663	0.062720	-0.833740	-0.154297	-0.662354	0.096844	-0.008302	0.018504	-0.778552	-0.117180	0.596501	-0.155924	-0.781111	-74.874497	23.248152
40397		9.671499	-0.914099	1.821361	1.044212	-0.518777	0.002164	0.282745	-0.003328	0.061088	-0.831299	-0.160400	-0.660156	0.096717	-0.009137	0.018202	-0.778323	-0.118110	0.596337	-0.156990	-0.743077	-74.877359	23.376385
40398		9.656511	-1.022406	1.746200	1.151784	-0.590736	-0.031729	0.328963	0.005705	0.068638	-0.833496	-0.163818	-0.662598	0.096569	-0.010220	0.017442	-0.778088	-0.119182	0.596105	-0.158221	-0.695055	-74.874910	23.520428
40399		9.603697	-1.109467	1.749987	1.173794	-0.675549	-0.081798	0.381987	0.018156	0.076550	-0.826416	-0.166016	-0.662598	0.096043	-0.011091	0.017470	-0.777847	-0.120434	0.595785	-0.159655	-0.632328	-74.865418	23.681987
40400		9.557471	-1.276413	1.711896	1.267751	-0.816446	-0.136361	0.427239	0.019873	0.088395	-0.829834	-0.157959	-0.658447	0.095582	-0.012758	0.017082	-0.777574	-0.121818	0.595427	-0.161263	-0.569340	-74.854797	23.868982
40401		9.402189	-1.385182	1.660046	1.326331	-0.909004	-0.300054	0.494411	0.014582	0.102109	-0.828125	-0.178711	-0.663086	0.094030	-0.013845	0.016559	-0.777226	-0.123433	0.595040	-0.163127	-0.496230	-74.847313	24.086533
40402		9.237253	-1.392000	1.527675	1.413810	-0.877006	-0.494410	0.563317	0.008451	0.116682	-0.830811	-0.173096	-0.660645	0.092381	-0.013909	0.015234	-0.776803	-0.125269	0.594627	-0.165242	-0.415355	-74.843247	24.335752
40403		9.094133	-1.330714	1.391827	1.480448	-0.777765	-0.668586	0.637140	-0.022166	0.138868	-0.825439	-0.175293	-0.660156	0.090949	-0.013288	0.013886	-0.776214	-0.127358	0.594278	-0.167647	-0.338824	-74.856834	24.634482
40404		8.934283	-1.164386	1.242064	1.507894	-0.578465	-0.862182	0.702501	-0.067347	0.157212	-0.829590	-0.177002	-0.653564	0.089348	-0.011617	0.012410	-0.775427	-0.129674	0.594056	-0.170281	-0.265640	-74.896252	24.974210
40405		8.859297	-0.992845	1.242397	1.414939	-0.426507	-0.933923	0.748481	-0.130444	0.173610	-0.834473	-0.184326	-0.654785	0.088593	-0.009898	0.012445	-0.774396	-0.132179	0.594040	-0.173078	-0.201763	-74.971991	25.351990
40406		8.824326	-0.859384	1.243660	1.340294	-0.307324	-0.966044	0.773987	-0.176656	0.185295	-0.831299	-0.181396	-0.655518	0.088240	-0.008560	0.012481	-0.773190	-0.134779	0.594181	-0.175957	-0.151647	-75.074242	25.757814
40407		8.640530	-0.697996	1.204984	1.249451	-0.164769	-1.151876	0.783768	-0.196759	0.188816	-0.827881	-0.191162	-0.644775	0.086400	-0.006946	0.012108	-0.771899	-0.137429	0.594382	-0.178868	-0.105228	-75.188137	26.174227
40408		8.497449	-0.579834	1.211722	1.143300	-0.077791	-1.286381	0.766830	-0.243779	0.190892	-0.836426	-0.197510	-0.640869	0.084965	-0.005764	0.012199	-0.770468	-0.140039	0.594773	-0.181695	-0.077722	-75.328960	26.598611
40409		8.494918	-0.424968	1.155643	1.101054	0.081427	-1.300300	0.752761	-0.320408	0.178706	-0.838867	-0.202637	-0.641846	0.084934	-0.004218	0.011677	-0.768815	-0.142707	0.595451	-0.184383	-0.034893	-75.513842	26.999823
40410		8.635134	-0.283999	1.155386	1.040538	0.215579	-1.160992	0.740838	-0.399841	0.168625	-0.848633	-0.203369	-0.644287	0.086330	-0.002810	0.011716	-0.766930	-0.145423	0.596429	-0.186932	0.017488	-75.744315	27.382805
40411		8.894802	-0.103391	1.060577	1.060944	0.435308	-0.927993	0.718694	-0.462472	0.138317	-0.844971	-0.211914	-0.633789	0.088924	-0.001011	0.010808	-0.764887	-0.148207	0.597633	-0.189254	0.121692	-76.010787	27.699785
40412		9.247990	-0.026563	0.914281	1.186948	0.592783	-0.614778	0.692025	-0.481056	0.105167	-0.849365	-0.220215	-0.626709	0.092458	-0.000249	0.009364	-0.762828	-0.150995	0.598900	-0.191347	0.283086	-76.287959	27.940665
40413		9.463491	0.051444	0.826124	1.230337	0.706886	-0.419647	0.648627	-0.471122	0.073578	-0.847412	-0.215820	-0.617188	0.094615	0.000522	0.008486	-0.760846	-0.153708	0.600134	-0.193200	0.494158	-76.559561	28.105663
40414		9.654633	0.026818	0.939677	1.144307	0.631921	-0.200887	0.584018	-0.474270	0.053693	-0.847656	-0.223877	-0.615723	0.096524	0.000266	0.009626	-0.758913	-0.156230	0.601420	-0.194773	0.716814	-76.833014	28.219734
40415		9.711524	-0.183763	1.115716	1.070162	0.348001	-0.100541	0.513488	-0.434440	0.030322	-0.863037	-0.224609	-0.613770	0.097091	-0.001852	0.011363	-0.757168	-0.158519	0.602596	-0.196078	0.958488	-77.083533	28.273477
40416		9.772031	-0.093782	1.262820	0.878952	0.339206	-0.004102	0.490371	-0.421743	0.015259	-0.857666	-0.231201	-0.598633	0.097693	-0.000962	0.012832	-0.755486	-0.160746	0.603730	-0.197260	1.227452	-77.326667	28.284690
40417		9.969631	-0.156898	1.302276	0.879757	0.259796	0.200926	0.468869	-0.457118	0.004565	-0.858154	-0.226807	-0.597412	0.099666	-0.001598	0.013247	-0.753717	-0.162963	0.605002	-0.198311	1.519655	-77.589925	28.260372
40418		10.216688	-0.165870	1.282232	0.910766	0.258738	0.441859	0.468686	-0.464764	0.002463	-0.863770	-0.242188	-0.596680	0.102137	-0.001688	0.013056	-0.751918	-0.165187	0.606297	-0.199340	1.823904	-77.857631	28.222870
40419		10.424252	0.026607	1.404912	0.712360	0.357100	0.675609	0.455631	-0.430187	-0.003078	-0.859619	-0.240234	-0.589844	0.104212	0.000232	0.014274	-0.750233	-0.167346	0.607462	-0.200340	2.140777	-78.105245	28.165623
40420		10.432194	0.138929	1.326761	0.689736	0.466223	0.671445	0.439009	-0.371775	-0.002750	-0.863525	-0.234131	-0.587402	0.104297	0.001358	0.013465	-0.748732	-0.169380	0.608420	-0.201334	2.448376	-78.319357	28.107560
40421		10.465111	0.398589	1.359100	0.507068	0.653098	0.715409	0.448765	-0.315188	0.015885	-0.869385	-0.239990	-0.584717	0.104629	0.003963	0.013765	-0.747370	-0.171338	0.609166	-0.202478	2.708629	-78.501500	28.104185
40422		10.407091	0.560496	1.325835	0.415045	0.783969	0.655960	0.430052	-0.272765	0.045452	-0.864014	-0.250000	-0.579346	0.104051	0.005600	0.013412	-0.746120	-0.173084	0.609796	-0.203704	2.870509	-78.660190	28.189060
40423		10.249486	0.546733	1.409609	0.300001	0.700304	0.519660	0.436280	-0.225972	0.074297	-0.878418	-0.248047	-0.574219	0.102477	0.005474	0.014224	-0.744971	-0.174724	0.610264	-0.205102	2.948286	-78.792974	28.364461
40424		10.057438	0.446227	1.496847	0.223666	0.541640	0.348429	0.387823	-0.210482	0.103694	-0.867432	-0.254150	-0.572510	0.100556	0.004485	0.015083	-0.743878	-0.176074	0.610748	-0.206470	2.908584	-78.917865	28.630557
40425		9.858094	0.346835	1.502784	0.214612	0.428609	0.153799	0.364926	-0.204008	0.132659	-0.872803	-0.251465	-0.569824	0.098563	0.003506	0.015135	-0.742791	-0.177246	0.611253	-0.207884	2.765904	-79.039692	28.988753
40426		9.627512	0.349927	1.546459	0.116175	0.383407	-0.063717	0.321069	-0.187922	0.148415	-0.869629	-0.256104	-0.566650	0.096258	0.003546	0.015561	-0.741773	-0.178187	0.611755	-0.209232	2.543269	-79.152544	29.401998
40427		9.327911	0.393835	1.473244	0.083737	0.430046	-0.371104	0.253776	-0.167960	0.165615	-0.877930	-0.253662	-0.573242	0.093263	0.003997	0.014816	-0.740854	-0.178807	0.612266	-0.210459	2.220917	-79.253972	29.878001
40428		9.261081	0.282409	1.418344	0.157315	0.360312	-0.447621	0.180363	-0.152806	0.181522	-0.879883	-0.256348	-0.564453	0.092597	0.002895	0.014257	-0.740031	-0.179086	0.612812	-0.211528	1.799056	-79.346405	30.411585
40429		9.436749	-0.019790	2.033200	-0.183002	-0.194564	-0.163068	0.086616	-0.084535	0.200612	-0.881592	-0.252197	-0.557861	0.094359	-0.000112	0.020372	-0.739477	-0.178891	0.613219	-0.212447	1.251647	-79.399241	31.018859
40430		9.501863	-0.346847	3.088304	-0.890826	-1.005738	0.093785	-0.039432	-0.040657	0.227318	-0.875488	-0.246338	-0.568604	0.095016	-0.003354	0.030903	-0.739141	-0.178099	0.613623	-0.213113	0.542782	-79.426160	31.716360
40431		9.656703	-0.169202	3.582329	-1.391955	-1.083669	0.336287	-0.056827	-0.116613	0.250685	-0.878906	-0.245361	-0.559570	0.096548	-0.001561	0.035880	-0.738562	-0.177254	0.614344	-0.213748	-0.252509	-79.494735	32.492001
40432		10.463446	0.595409	3.517253	-1.648440	-0.307216	1.114227	-0.056803	-0.139382	0.275354	-0.879150	-0.245850	-0.553711	0.104602	0.006108	0.035244	-0.737887	-0.176351	0.615171	-0.214448	-1.136692	-79.574025	33.356945
40433		11.410879	1.190727	3.255635	-1.629047	0.453475	1.992633	-0.073794	0.021148	0.320167	-0.885010	-0.236572	-0.559814	0.114093	0.012102	0.032540	-0.737668	-0.175081	0.615461	-0.215407	-2.164647	-79.558074	34.359011
40434		11.768927	1.742411	3.381371	-1.986131	0.932335	2.359541	-0.073321	0.180947	0.354730	-0.884521	-0.233154	-0.555664	0.117689	0.017645	0.033701	-0.737902	-0.173531	0.615191	-0.216631	-3.268286	-79.446505	35.437930
40435		11.527399	1.924335	3.932754	-2.583937	0.825343	2.216125	-0.187384	0.192024	0.387721	-0.881836	-0.235840	-0.556152	0.115274	0.019504	0.039199	-0.738229	-0.171448	0.615027	-0.217638	-4.510672	-79.323166	36.592532
40436		11.169825	1.001835	4.423778	-2.565710	-0.193107	1.965174	-0.368536	0.137837	0.366432	-0.879639	-0.229492	-0.562988	0.111710	0.010304	0.044142	-0.738562	-0.168819	0.615240	-0.217959	-5.781257	-79.227486	37.670213
40437		11.022055	-0.178455	4.348768	-1.913964	-1.120504	1.828204	-0.353322	0.106361	0.276164	-0.877197	-0.218262	-0.561523	0.110246	-0.001556	0.043432	-0.738880	-0.166558	0.615471	-0.217967	-6.765235	-79.151183	38.465692
40438		10.974664	-0.935946	3.833877	-1.100262	-1.469800	1.704557	-0.174490	0.092828	0.156813	-0.879883	-0.221191	-0.570068	0.109772	-0.009240	0.038296	-0.739136	-0.165336	0.615456	-0.218070	-7.288282	-79.089008	38.895742
40439		10.987524	-1.141107	3.350630	-0.585216	-1.377829	1.633432	-0.003570	0.086474	0.045347	-0.880371	-0.222900	-0.565674	0.109892	-0.011386	0.033459	-0.739352	-0.165099	0.615185	-0.218285	-7.383919	-79.038141	38.990883
40440		10.937235	-1.233171	3.163898	-0.377549	-1.360326	1.552216	0.087988	0.118658	-0.021066	-0.882324	-0.216797	-0.561279	0.109390	-0.012357	0.031569	-0.739664	-0.165367	0.614640	-0.218559	-7.220087	-78.973750	38.874650
40441		10.791774	-1.428484	3.367912	-0.448853	-1.645743	1.453892	0.160016	0.159000	-0.033100	-0.877930	-0.226563	-0.567139	0.107942	-0.014330	0.033582	-0.740052	-0.165897	0.613857	-0.219046	-6.967727	-78.887274	38.710746
40442		10.495968	-1.446593	3.427066	-0.510316	-1.723543	1.176929	0.232935	0.183471	-0.005457	-0.872803	-0.223877	-0.573242	0.104991	-0.014509	0.034157	-0.740423	-0.166582	0.612926	-0.219877	-6.748363	-78.784967	38.622613
40443		10.312878	-1.074998	3.368473	-0.661806	-1.392321	0.979953	0.290420	0.221494	0.066419	-0.868408	-0.223877	-0.576660	0.103170	-0.010765	0.033555	-0.740781	-0.167220	0.611848	-0.221184	-6.690120	-78.656055	38.732718
40444		10.201739	-0.643382	3.169132	-0.716969	-0.919903	0.825566	0.309833	0.313901	0.150533	-0.879395	-0.225342	-0.571289	0.102072	-0.006406	0.031521	-0.741314	-0.167564	0.610473	-0.222934	-6.824600	-78.468469	39.050037
40445		10.055177	-0.269989	2.977045	-0.752175	-0.493620	0.638756	0.311046	0.408107	0.238340	-0.867676	-0.222168	-0.580322	0.100615	-0.002626	0.029561	-0.742026	-0.167544	0.608818	-0.225095	-7.158886	-78.221337	39.573147
40446		9.925245	0.052504	3.039185	-0.970500	-0.233016	0.519473	0.296678	0.424986	0.301465	-0.870605	-0.230957	-0.575684	0.099316	0.000630	0.030182	-0.742726	-0.167253	0.607164	-0.227455	-7.646557	-77.959026	40.244373
40447		9.850671	0.468316	3.154183	-1.279041	0.087492	0.461558	0.262852	0.409552	0.326545	-0.873535	-0.229736	-0.579346	0.098563	0.004803	0.031346	-0.743371	-0.166781	0.605622	-0.229794	-8.199093	-77.702420	40.963492
40448		9.751405	0.836452	3.082667	-1.416399	0.462547	0.339754	0.160004	0.405213	0.320930	-0.871826	-0.224121	-0.579590	0.097563	0.008496	0.030636	-0.744090	-0.165949	0.604204	-0.231794	-8.770609	-77.447325	41.642410
40449		9.535017	1.252258	2.933829	-1.537547	0.901244	0.082542	0.067439	0.410835	0.299329	-0.866211	-0.227539	-0.584961	0.095391	0.012655	0.029147	-0.744922	-0.164829	0.602851	-0.233438	-9.314457	-77.189532	42.239278
40450		9.172109	1.545263	2.844681	-1.666419	1.181192	-0.302939	-0.070927	0.379962	0.250310	-0.858398	-0.218506	-0.599121	0.091755	0.015577	0.028267	-0.745828	-0.163377	0.601731	-0.234455	-9.807542	-76.952738	42.703266
40451		8.843835	1.681899	2.729897	-1.686373	1.343271	-0.655931	-0.153365	0.306317	0.206142	-0.858154	-0.219727	-0.593506	0.088463	0.016931	0.027151	-0.746627	-0.161836	0.600943	-0.234998	-10.257110	-76.760993	43.074508
40452		8.610890	1.705526	2.697416	-1.701639	1.374574	-0.893764	-0.217680	0.195575	0.155685	-0.862549	-0.219482	-0.597412	0.086122	0.017152	0.026871	-0.747207	-0.160332	0.600599	-0.235066	-10.660803	-76.635870	43.360417
40453		8.676165	1.563208	2.537470	-1.477342	1.372508	-0.863281	-0.270830	0.098511	0.102499	-0.875000	-0.213867	-0.606201	0.086766	0.015711	0.025311	-0.747595	-0.158906	0.600638	-0.234702	-11.008365	-76.571067	43.558003
40454		8.866804	1.221727	2.316894	-1.075992	1.247900	-0.715117	-0.299974	0.075772	0.039516	-0.860840	-0.207520	-0.600342	0.088674	0.012269	0.023117	-0.748011	-0.157585	0.600744	-0.233992	-11.232463	-76.525622	43.611140
40455		9.112848	0.981599	2.194520	-0.798549	1.160385	-0.493929	-0.289637	0.094920	-0.028856	-0.867676	-0.212646	-0.602051	0.091140	0.009835	0.021888	-0.748554	-0.156487	0.600712	-0.233076	-11.281482	-76.477192	43.490705
40456		9.285569	0.827079	2.051539	-0.557644	1.138625	-0.351863	-0.292547	0.119733	-0.092095	-0.862793	-0.216064	-0.606201	0.092872	0.008258	0.020448	-0.749247	-0.155536	0.600539	-0.231930	-11.173634	-76.421700	43.206678
40457		9.388985	0.889805	2.078705	-0.579383	1.197566	-0.247337	-0.232854	0.163455	-0.149348	-0.860107	-0.212891	-0.604248	0.093913	0.008852	0.020700	-0.750087	-0.154933	0.600087	-0.230785	-10.881183	-76.347821	42.768315
40458		9.353147	1.010822	2.047653	-0.601453	1.310728	-0.293433	-0.204751	0.201678	-0.187445	-0.861328	-0.213379	-0.604736	0.093561	0.010041	0.020372	-0.751064	-0.154503	0.599427	-0.229607	-10.471696	-76.255662	42.225666
40459		9.307974	0.981697	1.984035	-0.514235	1.309937	-0.349175	-0.199604	0.217608	-0.224148	-0.862793	-0.215576	-0.610352	0.093112	0.009732	0.019729	-0.752122	-0.154185	0.598672	-0.228322	-9.975943	-76.157414	41.597248
40460		9.230024	1.028429	1.911784	-0.463980	1.370937	-0.441929	-0.205324	0.220690	-0.236779	-0.859375	-0.207031	-0.614502	0.092333	0.010195	0.019005	-0.753208	-0.153879	0.597900	-0.226971	-9.461004	-76.057232	40.945160
40461		9.139697	0.975289	1.793129	-0.323970	1.368037	-0.553962	-0.233825	0.233709	-0.249482	-0.861816	-0.210449	-0.616699	0.091430	0.009660	0.017813	-0.754364	-0.153488	0.597099	-0.225499	-8.937811	-75.949534	40.267704
40462		9.075035	0.911829	1.829647	-0.301907	1.283350	-0.604154	-0.258257	0.257167	-0.244465	-0.853760	-0.207764	-0.616211	0.090785	0.009031	0.018168	-0.755602	-0.152959	0.596238	-0.223985	-8.441373	-75.826497	39.602325
40463		9.042015	0.607728	1.725517	-0.031784	1.070153	-0.649802	-0.301144	0.266316	-0.230307	-0.853271	-0.214111	-0.617676	0.090450	0.005999	0.017126	-0.756878	-0.152219	0.595399	-0.222407	-8.008025	-75.695966	38.977048
40464		9.090492	0.377573	1.678539	0.165591	0.905140	-0.606693	-0.319854	0.262039	-0.202674	-0.845703	-0.223633	-0.628174	0.090931	0.003710	0.016660	-0.758123	-0.151327	0.594615	-0.220869	-7.657005	-75.564536	38.424747
40465		9.182602	0.053082	1.651444	0.400754	0.657165	-0.514422	-0.344566	0.261123	-0.177365	-0.849854	-0.218506	-0.622070	0.091848	0.000478	0.016394	-0.759350	-0.150269	0.593877	-0.219356	-7.384032	-75.431105	37.938688
40466		9.199837	-0.150748	1.718490	0.478908	0.456589	-0.475930	-0.346487	0.285297	-0.152336	-0.842529	-0.208252	-0.628174	0.092022	-0.001548	0.017056	-0.760620	-0.149102	0.593064	-0.217947	-7.165932	-75.281457	37.507709
40467		9.042853	-0.266208	1.711525	0.538373	0.343200	-0.627609	-0.350736	0.306362	-0.138486	-0.850098	-0.210693	-0.635742	0.090453	-0.002695	0.016981	-0.761934	-0.147854	0.592184	-0.216595	-6.981922	-75.118615	37.109348
40468		8.969204	-0.358135	1.731829	0.578281	0.250743	-0.692557	-0.346905	0.294431	-0.121192	-0.840332	-0.203857	-0.627441	0.089715	-0.003606	0.017192	-0.763190	-0.146578	0.591354	-0.215306	-6.841512	-74.960951	36.757430
40469		8.955548	-0.456441	1.748324	0.634335	0.163701	-0.700191	-0.338551	0.274484	-0.114241	-0.849609	-0.207275	-0.640625	0.089577	-0.004586	0.017368	-0.764366	-0.145338	0.590594	-0.214056	-6.721006	-74.814089	36.431499
40470		9.005517	-0.529559	1.806056	0.654207	0.088166	-0.636315	-0.302489	0.253972	-0.100049	-0.829590	-0.205322	-0.646973	0.090075	-0.005313	0.017954	-0.765439	-0.144212	0.589881	-0.212947	-6.618531	-74.677739	36.144858
