// General information: 
//  MT Manager version: 2019.2.0 
//  XDA version: 2019.2.0 build 3853 rev 94535 built on 2019-09-09
// Device information: 
//  DeviceId: 00B47787
//  ProductCode: MTW2-3A7G6
//  Firmware Version: 4.6.0
//  Hardware Version: 2.0.0
// Device settings: 
//  Filter Profile: human(46.1)
//  Option Flags: Orientation Smoother Disabled, AHS Disabled, ICC Disabled
// Coordinate system: ENU
PacketCounter	SampleTimeFine	Acc_X	Acc_Y	Acc_Z	FreeAcc_E	FreeAcc_N	FreeAcc_U	Gyr_X	Gyr_Y	Gyr_Z	Mag_X	Mag_Y	Mag_Z	VelInc_X	VelInc_Y	VelInc_Z	Quat_q0	Quat_q1	Quat_q2	Quat_q3	Roll	Pitch	Yaw
07077		7.029312	2.018747	6.746345	-0.066701	0.043698	0.136854	-0.001112	0.007977	-0.016078	-0.772949	0.179199	-0.413086	0.070297	0.020182	0.067461	0.379056	-0.302832	-0.264072	-0.833592	17.282813	-44.835461	-138.269831
07078		7.016736	2.078347	6.743812	-0.013604	0.013831	0.138832	0.001209	0.010325	-0.013221	-0.780029	0.180908	-0.416260	0.070172	0.020778	0.067435	0.379061	-0.302830	-0.264073	-0.833590	17.282748	-44.835340	-138.269147
07079		7.034900	2.093092	6.737870	-0.013408	-0.007100	0.150722	0.002038	0.009860	-0.015341	-0.777832	0.174561	-0.421631	0.070354	0.020925	0.067375	0.379050	-0.302829	-0.264079	-0.833593	17.284348	-44.835339	-138.271153
07080		7.041367	2.114762	6.711469	-0.007848	-0.039925	0.141972	0.002704	0.005826	-0.017410	-0.767334	0.179199	-0.423828	0.070417	0.021141	0.067113	0.379034	-0.302838	-0.264102	-0.833590	17.288180	-44.836966	-138.274780
07081		7.042884	2.128389	6.744035	0.012039	-0.026242	0.167965	0.000602	0.007006	-0.014844	-0.774170	0.178711	-0.421631	0.070433	0.021278	0.067438	0.379031	-0.302846	-0.264110	-0.833586	17.289288	-44.838280	-138.275623
07082		7.022735	2.063999	6.734146	-0.031304	0.013674	0.133490	0.000765	0.010575	-0.014894	-0.770020	0.184570	-0.417725	0.070232	0.020635	0.067338	0.379028	-0.302841	-0.264112	-0.833589	17.289836	-44.837738	-138.276170
07083		7.038640	2.118245	6.713232	-0.003289	-0.038954	0.141978	0.000323	0.010826	-0.016569	-0.774414	0.185059	-0.419678	0.070392	0.021177	0.067129	0.379024	-0.302833	-0.264114	-0.833593	17.290837	-44.836810	-138.277100
07084		7.030277	2.099038	6.740845	-0.005814	-0.005472	0.150730	-0.000394	0.009398	-0.016320	-0.777588	0.179932	-0.416260	0.070308	0.020985	0.067405	0.379012	-0.302833	-0.264115	-0.833597	17.291696	-44.836668	-138.279029
07085		7.017505	2.106816	6.721237	0.001116	-0.017014	0.130088	0.001207	0.010321	-0.013215	-0.774170	0.176025	-0.414795	0.070180	0.021063	0.067209	0.379018	-0.302833	-0.264116	-0.833595	17.291463	-44.836703	-138.278208
07086		7.016730	2.107740	6.721756	0.002632	-0.016685	0.130088	0.000771	0.005074	-0.011241	-0.769043	0.178955	-0.415283	0.070170	0.021073	0.067216	0.379023	-0.302856	-0.264122	-0.833582	17.290959	-44.839792	-138.277256
07087		7.037356	2.134554	6.747856	0.021241	-0.024246	0.167955	-0.002055	0.010325	-0.012078	-0.786377	0.181641	-0.419434	0.070378	0.021342	0.067475	0.379023	-0.302863	-0.264107	-0.833584	17.288440	-44.839982	-138.276318
07088		7.024665	2.141839	6.728313	0.028135	-0.035789	0.147308	-0.003602	0.009362	-0.009710	-0.773438	0.184570	-0.417236	0.070251	0.021416	0.067279	0.379034	-0.302879	-0.264084	-0.833581	17.283871	-44.840986	-138.273155
07089		7.085729	2.052503	6.722068	-0.076164	-0.017702	0.167313	-0.004922	0.004617	-0.011087	-0.775635	0.168213	-0.424805	0.070860	0.020523	0.067219	0.379029	-0.302917	-0.264066	-0.833575	17.279952	-44.844549	-138.272434
07090		6.994824	2.148128	6.747714	0.056309	-0.012336	0.140720	-0.002765	0.003399	-0.008180	-0.774170	0.178223	-0.423096	0.069950	0.021479	0.067476	0.379040	-0.302958	-0.264056	-0.833559	17.276039	-44.849076	-138.269522
07091		7.054041	2.098022	6.726134	-0.020237	-0.025910	0.157317	-0.006744	0.001976	-0.006797	-0.777588	0.175781	-0.416016	0.070542	0.020980	0.067260	0.379047	-0.303012	-0.264031	-0.833543	17.269625	-44.854458	-138.266098
07092		7.032400	2.072268	6.700770	-0.035827	-0.017688	0.119466	-0.003810	0.000333	-0.011480	-0.778076	0.184814	-0.421875	0.070325	0.020720	0.067007	0.379039	-0.303064	-0.264027	-0.833530	17.267427	-44.860100	-138.266467
07093		7.074948	2.073110	6.734757	-0.046320	-0.014875	0.172665	-0.004413	-0.002985	-0.013105	-0.768066	0.184326	-0.424316	0.070750	0.020728	0.067348	0.379016	-0.303129	-0.264029	-0.833516	17.266306	-44.867394	-138.269190
07094		7.034425	2.085607	6.732857	-0.014354	-0.003638	0.145426	-0.008505	-0.002519	-0.009849	-0.767090	0.186279	-0.420410	0.070344	0.020855	0.067329	0.379003	-0.303203	-0.264009	-0.833501	17.261012	-44.874873	-138.268984
07095		7.041743	2.158002	6.723056	0.037510	-0.054759	0.159183	-0.007232	-0.003234	-0.010293	-0.771973	0.184326	-0.413086	0.070417	0.021579	0.067231	0.379007	-0.303272	-0.264000	-0.833477	17.256447	-44.882586	-138.266686
07096		7.070451	2.152644	6.704548	0.013954	-0.077218	0.165787	-0.010052	-0.003483	-0.007481	-0.771973	0.182129	-0.415771	0.070704	0.021527	0.067046	0.379000	-0.303356	-0.263972	-0.833458	17.249137	-44.890995	-138.264880
07097		7.032341	2.125055	6.717679	0.018104	-0.034334	0.141979	-0.009168	-0.003986	-0.004131	-0.779053	0.183838	-0.418945	0.070323	0.021252	0.067177	0.379010	-0.303447	-0.263943	-0.833430	17.240387	-44.900431	-138.260389
07098		7.063261	2.131528	6.731532	0.012988	-0.043402	0.174531	-0.012826	0.001727	-0.002846	-0.772949	0.188477	-0.417725	0.070633	0.021319	0.067313	0.379025	-0.303521	-0.263886	-0.833414	17.228075	-44.906775	-138.253749
07099		7.022786	2.090948	6.712823	-0.001316	-0.013930	0.124786	-0.012932	-0.001882	0.002673	-0.774902	0.187744	-0.424316	0.070227	0.020915	0.067128	0.379064	-0.303617	-0.263827	-0.833380	17.213011	-44.916175	-138.242850
07100		7.051474	2.136421	6.711805	0.021425	-0.054631	0.153880	-0.013657	0.002190	-0.000725	-0.771729	0.187256	-0.422852	0.070516	0.021369	0.067116	0.379087	-0.303693	-0.263763	-0.833362	17.198982	-44.922624	-138.234453
07101		7.041960	2.154440	6.723971	0.046762	-0.052813	0.159154	-0.014921	-0.002596	0.003365	-0.768555	0.176758	-0.419922	0.070418	0.021551	0.067239	0.379136	-0.303793	-0.263700	-0.833324	17.182447	-44.932339	-138.221693
07102		7.065958	2.139645	6.764562	0.037607	-0.028724	0.200449	-0.013039	-0.005493	0.008192	-0.774414	0.185791	-0.423828	0.070657	0.021404	0.067646	0.379188	-0.303912	-0.263639	-0.833276	17.165190	-44.944499	-138.208227
07103		7.047331	2.072678	6.753906	-0.005913	0.011083	0.166088	-0.018785	-0.005912	0.002878	-0.780273	0.176758	-0.426514	0.070471	0.020734	0.067539	0.379216	-0.304033	-0.263565	-0.833242	17.147567	-44.955887	-138.197807
07104		7.019198	2.076461	6.772308	0.020665	0.034215	0.159443	-0.017459	-0.006669	0.007903	-0.781250	0.184326	-0.419922	0.070189	0.020773	0.067724	0.379258	-0.304164	-0.263489	-0.833199	17.128119	-44.968636	-138.184829
07105		7.022082	1.931905	6.752617	-0.098328	0.102586	0.118050	-0.013969	-0.010450	0.003020	-0.778809	0.169922	-0.411133	0.070217	0.019325	0.067528	0.379280	-0.304298	-0.263442	-0.833155	17.114078	-44.982598	-138.176555
07106		7.015973	1.946058	6.672827	-0.105882	0.044457	0.062759	-0.009215	-0.009443	-0.005954	-0.773438	0.175781	-0.419434	0.070157	0.019462	0.066731	0.379273	-0.304408	-0.263426	-0.833123	17.107391	-44.994526	-138.174953
07107		7.004272	1.969608	6.775190	-0.047758	0.106343	0.128580	-0.004782	-0.015575	-0.014833	-0.782471	0.178467	-0.412354	0.070039	0.019693	0.067757	0.379214	-0.304526	-0.263451	-0.833099	17.109576	-45.008351	-138.183784
07108		7.140918	1.975207	6.725881	-0.129225	0.007568	0.193055	0.000299	-0.012930	-0.020258	-0.781006	0.176270	-0.407715	0.071407	0.019745	0.067263	0.379158	-0.304613	-0.263503	-0.833076	17.116764	-45.019777	-138.194094
07109		8.720773	1.261678	5.479010	-1.908756	-1.161084	0.320022	0.001690	-0.017430	0.006691	-0.781982	0.181152	-0.412598	0.087203	0.012619	0.054798	0.379189	-0.304760	-0.263524	-0.833002	17.110997	-45.038515	-138.187465
07110		8.208113	1.879632	5.628236	-1.100661	-1.170624	0.187380	0.009917	-0.045777	-0.023681	-0.782715	0.185547	-0.410156	0.082070	0.018784	0.056302	0.379090	-0.304961	-0.263683	-0.832923	17.131136	-45.067348	-138.208281
07111		8.240902	1.285457	5.203719	-1.718118	-1.126476	-0.199015	0.003101	-0.005375	-0.013901	-0.782715	0.183350	-0.402100	0.082409	0.012848	0.052040	0.379063	-0.305026	-0.263719	-0.832900	17.135150	-45.076068	-138.213371
07112		7.542295	1.708263	6.221368	-0.700975	-0.356192	0.081329	-0.000593	-0.012431	-0.023599	-0.789551	0.180908	-0.411621	0.075421	0.017074	0.062218	0.378992	-0.305108	-0.263772	-0.832886	17.143600	-45.086653	-138.226173
07113		6.997531	1.915660	6.607277	-0.130985	0.041305	-0.000835	0.005164	0.009954	-0.027399	-0.785400	0.187744	-0.401367	0.069981	0.019145	0.066070	0.378923	-0.305092	-0.263806	-0.832912	17.153691	-45.084874	-138.239363
07114		7.057314	1.913155	6.864833	-0.086161	0.187906	0.214727	0.005050	0.011843	-0.025524	-0.781250	0.184326	-0.405518	0.070580	0.019121	0.068645	0.378884	-0.305060	-0.263839	-0.832931	17.162321	-45.081842	-138.247852
07115		6.878043	2.101507	6.824805	0.144224	0.138742	0.100018	0.010284	-0.005715	-0.034695	-0.779297	0.184082	-0.399414	0.068782	0.021000	0.068251	0.378776	-0.305089	-0.263935	-0.832939	17.181787	-45.087470	-138.269829
07116		6.958165	1.942238	6.899662	-0.002633	0.245177	0.173981	0.017177	-0.000426	-0.044405	-0.785400	0.177490	-0.405518	0.069586	0.019401	0.068998	0.378661	-0.305060	-0.264071	-0.832959	17.209814	-45.087951	-138.295897
07117		7.228075	1.875589	6.629053	-0.283031	-0.021382	0.168629	0.024791	-0.015672	-0.045248	-0.783691	0.182861	-0.398438	0.072280	0.018731	0.066299	0.378515	-0.305089	-0.264262	-0.832954	17.245301	-45.097117	-138.328959
07118		7.226540	1.851383	6.471843	-0.351438	-0.107979	0.056461	0.020931	-0.018998	-0.045725	-0.788818	0.178223	-0.397949	0.072263	0.018491	0.064727	0.378376	-0.305128	-0.264451	-0.832943	17.279383	-45.107515	-138.360532
07119		7.180810	2.066725	6.596306	-0.119591	-0.122729	0.153118	0.005881	-0.014228	-0.044117	-0.795898	0.179199	-0.395752	0.071808	0.020649	0.065969	0.378204	-0.305190	-0.264558	-0.832964	17.303187	-45.116101	-138.392785
07120		7.266605	2.192150	6.468253	-0.105422	-0.318838	0.153987	-0.007413	-0.003142	-0.026665	-0.791992	0.181885	-0.396484	0.072668	0.021914	0.064683	0.378122	-0.305242	-0.264569	-0.832979	17.307867	-45.121057	-138.405773
07121		7.199304	1.980340	6.555216	-0.210483	-0.106996	0.120430	-0.011989	0.010383	-0.019571	-0.787842	0.182373	-0.391357	0.071998	0.019800	0.065547	0.378062	-0.305265	-0.264519	-0.833014	17.303748	-45.120202	-138.412494
07122		7.068741	2.065276	6.718350	-0.024252	0.014610	0.155657	-0.009674	0.010922	-0.029516	-0.786865	0.190186	-0.397461	0.070694	0.020646	0.067179	0.377984	-0.305259	-0.264499	-0.833058	17.306291	-45.116979	-138.424296
07123		7.225305	1.890203	6.627922	-0.273736	-0.019386	0.168893	-0.012841	0.016341	-0.021092	-0.791992	0.173584	-0.399170	0.072260	0.018899	0.066272	0.377934	-0.305252	-0.264439	-0.833102	17.301429	-45.112431	-138.429329
07124		6.921627	1.718867	6.660849	-0.239455	0.242994	-0.060049	-0.002439	0.012357	-0.032034	-0.793945	0.181396	-0.394287	0.069223	0.017178	0.066604	0.377858	-0.305223	-0.264450	-0.833144	17.309252	-45.107994	-138.442734
07125		6.970251	1.707904	6.774324	-0.240553	0.304324	0.048465	0.014806	-0.002752	-0.052677	-0.790283	0.185303	-0.396240	0.069706	0.017056	0.067745	0.377691	-0.305202	-0.264589	-0.833183	17.340884	-45.108471	-138.477209
07126		7.244340	1.684170	6.691354	-0.432360	0.137956	0.181568	0.023929	-0.016986	-0.061340	-0.792480	0.174316	-0.400879	0.072443	0.016811	0.066922	0.377494	-0.305207	-0.264810	-0.833200	17.384936	-45.115060	-138.520427
07127		6.891810	2.252676	6.756898	0.221197	0.025335	0.095778	0.029884	-0.025801	-0.061580	-0.790283	0.181885	-0.392090	0.068916	0.022495	0.067581	0.377285	-0.305241	-0.265070	-0.833200	17.434044	-45.126578	-138.567121
07128		7.218976	2.210514	6.694837	-0.006071	-0.140066	0.276969	0.016040	-0.018083	-0.040300	-0.790283	0.182129	-0.385742	0.072188	0.022085	0.066957	0.377162	-0.305293	-0.265227	-0.833186	17.462243	-45.137335	-138.594333
07129		7.150517	2.709746	6.544118	0.378956	-0.494377	0.232713	-0.006224	-0.003833	0.003998	-0.795166	0.186768	-0.380371	0.071503	0.027101	0.065442	0.377198	-0.305391	-0.265194	-0.833144	17.450888	-45.148094	-138.585151
07130		7.086279	2.957055	6.341566	0.550392	-0.744564	0.102839	-0.035215	0.008688	0.057953	-0.794434	0.181885	-0.400635	0.070857	0.029602	0.063407	0.377442	-0.305559	-0.264938	-0.833054	17.391110	-45.161080	-138.529688
07131		7.142805	2.291119	6.388721	0.015905	-0.360561	0.033854	-0.037172	0.004285	0.075093	-0.799072	0.181396	-0.386963	0.071421	0.022950	0.063881	0.377738	-0.305776	-0.264652	-0.832931	17.321517	-45.179537	-138.463370
07132		6.920831	2.124322	6.761926	0.125406	0.087070	0.092411	-0.035026	-0.031640	0.070689	-0.790527	0.186768	-0.383057	0.069190	0.021280	0.067626	0.377981	-0.306128	-0.264454	-0.832755	17.261658	-45.216666	-138.407682
07133		7.189360	1.732824	6.536002	-0.385982	0.035632	0.049292	-0.018344	-0.072041	0.057541	-0.800293	0.186035	-0.387451	0.071865	0.017355	0.065384	0.378129	-0.306604	-0.264417	-0.832524	17.225465	-45.273818	-138.373564
07134		6.913599	1.499819	6.766686	-0.343139	0.460018	-0.039972	-0.002547	-0.137554	0.024579	-0.792480	0.189453	-0.390869	0.069088	0.015008	0.067714	0.378090	-0.307275	-0.264624	-0.832229	17.227695	-45.361039	-138.379142
07135		7.414278	1.371584	6.452566	-0.794312	0.103640	0.079060	0.033438	-0.218089	-0.015413	-0.795410	0.181396	-0.385498	0.074073	0.013699	0.064609	0.377822	-0.308163	-0.265190	-0.831841	17.286711	-45.485708	-138.436883
07136		7.319189	1.509854	6.484452	-0.614435	0.112428	0.061930	0.059607	-0.252985	-0.051881	-0.794922	0.181885	-0.381348	0.073114	0.015060	0.064942	0.377407	-0.309094	-0.265991	-0.831429	17.387485	-45.623000	-138.530591
07137		7.566226	1.934569	6.286150	-0.460705	-0.353134	0.195759	0.079809	-0.264457	-0.069764	-0.792969	0.180420	-0.380371	0.075586	0.019294	0.062969	0.376921	-0.310016	-0.266921	-0.831008	17.512463	-45.763553	-138.643315
07138		7.302721	2.039565	6.640519	-0.120603	-0.023880	0.265550	0.087095	-0.259550	-0.077623	-0.797119	0.178223	-0.374756	0.072949	0.020338	0.066509	0.376431	-0.310887	-0.267887	-0.830594	17.645879	-45.899698	-138.760131
07139		7.833891	2.253322	6.108446	-0.388976	-0.723652	0.340410	0.081016	-0.256210	-0.058779	-0.805908	0.180908	-0.374512	0.078267	0.022485	0.061194	0.376001	-0.311785	-0.268787	-0.830161	17.765275	-46.037324	-138.863640
07140		7.434404	2.386127	6.408798	0.028488	-0.386867	0.281178	0.077530	-0.237807	-0.040954	-0.800049	0.181396	-0.363770	0.074273	0.023821	0.064186	0.375676	-0.312632	-0.269615	-0.829721	17.869846	-46.167698	-138.947498
07141		7.760346	2.490312	6.231378	-0.105188	-0.692107	0.422769	0.065250	-0.228991	-0.007138	-0.807373	0.177490	-0.369141	0.077533	0.024880	0.062411	0.375470	-0.313516	-0.270316	-0.829252	17.947016	-46.299346	-139.004860
07142		7.275439	2.436373	6.707875	0.267366	-0.094129	0.374713	0.060058	-0.211447	0.002074	-0.809326	0.188477	-0.370605	0.072683	0.024344	0.067163	0.375330	-0.314344	-0.270954	-0.828794	18.013033	-46.422799	-139.048916
07143		7.667871	2.289272	6.230984	-0.192089	-0.494556	0.315523	0.038821	-0.214035	0.033705	-0.802979	0.181885	-0.368164	0.076608	0.022894	0.062396	0.375272	-0.315270	-0.271453	-0.828305	18.049491	-46.553463	-139.070635
07144		7.420617	2.160560	6.363822	-0.109358	-0.201201	0.196275	0.043344	-0.189054	0.042977	-0.809082	0.174316	-0.367432	0.074141	0.021608	0.063713	0.375305	-0.316090	-0.271914	-0.827826	18.078624	-46.671940	-139.076932
07145		7.832549	1.841364	5.878229	-0.718758	-0.523671	0.112138	0.036835	-0.150605	0.041382	-0.805908	0.188477	-0.357178	0.078277	0.018419	0.058845	0.375360	-0.316767	-0.272274	-0.827424	18.097784	-46.769417	-139.076347
07146		7.606571	2.011027	6.158690	-0.367579	-0.315012	0.167256	0.032563	-0.106115	0.031517	-0.799561	0.173584	-0.365723	0.076030	0.020112	0.061631	0.375441	-0.317249	-0.272552	-0.827111	18.111779	-46.840683	-139.070333
07147		7.533795	1.943479	6.148653	-0.380037	-0.243137	0.093753	0.034449	-0.061373	0.023038	-0.800049	0.185059	-0.361084	0.075317	0.019433	0.061513	0.375539	-0.317536	-0.272764	-0.826887	18.123308	-46.886317	-139.061139
07148		7.769649	2.232437	6.064221	-0.295005	-0.567256	0.272807	0.035243	-0.017634	0.033303	-0.804199	0.175049	-0.354248	0.077687	0.022327	0.060653	0.375752	-0.317649	-0.272884	-0.826707	18.120959	-46.909722	-139.030645
07149		7.505915	2.091201	6.183479	-0.231026	-0.287362	0.127702	0.027840	0.054596	0.042553	-0.802002	0.180420	-0.354248	0.075072	0.020919	0.061817	0.376077	-0.317496	-0.272819	-0.826639	18.095258	-46.895689	-138.975783
07150		7.594417	2.394287	6.022876	-0.087383	-0.617466	0.151946	0.014644	0.121038	0.065020	-0.801270	0.175537	-0.358398	0.075973	0.023963	0.060185	0.376577	-0.317117	-0.272543	-0.826648	18.036353	-46.849172	-138.883957
07151		7.385174	2.216752	6.251977	-0.049569	-0.278073	0.110124	-0.012420	0.174859	0.068827	-0.806152	0.181885	-0.349121	0.073899	0.022197	0.062454	0.377109	-0.316579	-0.272043	-0.826776	17.949832	-46.774187	-138.777391
07152		7.358695	1.977451	6.527754	-0.142888	0.041247	0.219766	-0.024756	0.218366	0.058286	-0.799561	0.185303	-0.362549	0.073652	0.019804	0.065195	0.377651	-0.315863	-0.271431	-0.827004	17.854535	-46.673240	-138.666364
07153		7.397635	1.896820	6.458313	-0.256349	0.000431	0.185661	-0.033785	0.245153	0.032078	-0.810791	0.184326	-0.348145	0.074052	0.018991	0.064489	0.378091	-0.315024	-0.270767	-0.827340	17.764753	-46.553237	-138.571897
07154		7.294633	1.948948	6.519014	-0.152060	0.037760	0.161430	-0.034363	0.245146	0.004926	-0.802979	0.190918	-0.362061	0.073026	0.019502	0.065097	0.378433	-0.314142	-0.270149	-0.827722	17.690687	-46.428134	-138.497305
07155		7.128954	1.885472	6.518400	-0.128191	0.129949	0.027697	-0.025336	0.217693	-0.029143	-0.803711	0.185059	-0.364990	0.071363	0.018853	0.065104	0.378593	-0.313318	-0.269667	-0.828118	17.646719	-46.312317	-138.459355
07156		7.019543	2.169356	6.653066	0.186051	0.096720	0.096873	-0.008304	0.158430	-0.042059	-0.800537	0.181152	-0.356445	0.070253	0.021682	0.066474	0.378663	-0.312681	-0.269393	-0.828416	17.630759	-46.226327	-138.444238
07157		6.950031	1.483790	6.769718	-0.296040	0.589429	-0.019907	0.014950	0.104915	-0.051781	-0.793701	0.190674	-0.356445	0.069540	0.014815	0.067662	0.378640	-0.312217	-0.269327	-0.828623	17.643415	-46.168141	-138.452549
07158		7.315861	1.669668	6.431804	-0.452325	0.081940	0.059820	0.040265	0.066724	-0.069670	-0.804688	0.190674	-0.360352	0.073186	0.016658	0.064297	0.378548	-0.311831	-0.269471	-0.828763	17.687575	-46.127420	-138.482181
07159		7.201270	1.758903	6.468519	-0.319034	0.109031	0.019917	0.044799	0.053122	-0.076660	-0.803955	0.183350	-0.352051	0.072037	0.017547	0.064670	0.378400	-0.311490	-0.269665	-0.828896	17.740716	-46.093157	-138.522830
07160		7.236351	2.049606	6.449777	-0.120116	-0.083529	0.094071	0.052978	0.037564	-0.070272	-0.811768	0.180664	-0.354248	0.072383	0.020454	0.064490	0.378286	-0.311200	-0.269918	-0.828975	17.797670	-46.068205	-138.560144
07161		7.322032	2.308292	6.419622	0.024922	-0.288601	0.190711	0.038471	0.032993	-0.052273	-0.806641	0.178223	-0.358398	0.073237	0.023051	0.064189	0.378196	-0.310990	-0.270084	-0.829040	17.836944	-46.049162	-138.587373
07162		7.275487	2.519694	6.455110	0.224220	-0.362936	0.225639	0.017570	0.035793	-0.017436	-0.809326	0.187012	-0.362549	0.072769	0.025185	0.064540	0.378243	-0.310845	-0.270111	-0.829064	17.843980	-46.034418	-138.583549
07163		7.267864	2.206271	6.507212	-0.005861	-0.147545	0.187887	0.001058	0.032413	0.008557	-0.802490	0.184326	-0.358887	0.072688	0.022065	0.065060	0.378349	-0.310790	-0.270030	-0.829063	17.827510	-46.026359	-138.562767
07164		7.475042	1.992144	6.316260	-0.342337	-0.254859	0.165182	-0.018230	0.035986	0.020836	-0.804932	0.187256	-0.351563	0.074760	0.019935	0.063147	0.378499	-0.310764	-0.269849	-0.829063	17.792372	-46.018216	-138.528841
07165		7.120025	2.078116	6.647890	0.015345	0.081754	0.147274	-0.020349	0.040775	0.012406	-0.804932	0.182861	-0.353027	0.071213	0.020792	0.066462	0.378599	-0.310719	-0.269657	-0.829097	17.759967	-46.006257	-138.502989
07166		7.413774	1.997962	6.360434	-0.289377	-0.208460	0.151439	-0.031513	0.036028	0.009059	-0.807617	0.185059	-0.347656	0.074148	0.019993	0.063588	0.378680	-0.310702	-0.269439	-0.829137	17.723895	-45.996006	-138.478331
07167		7.214856	1.941422	6.493686	-0.187906	0.001552	0.084581	-0.028584	0.041729	0.013490	-0.800537	0.187988	-0.340576	0.072161	0.019428	0.064919	0.378769	-0.310671	-0.269208	-0.829183	17.686026	-45.983697	-138.451837
07168		7.126547	2.110132	6.604134	0.028139	0.016450	0.129839	-0.033330	0.046245	0.018805	-0.798340	0.184570	-0.355225	0.071279	0.021119	0.066021	0.378901	-0.310629	-0.268948	-0.829223	17.641600	-45.969539	-138.416998
07169		7.091829	2.133645	6.488764	0.030619	-0.065599	0.033393	-0.035232	0.056478	0.023092	-0.799561	0.182129	-0.346924	0.070934	0.021356	0.064864	0.379041	-0.310562	-0.268647	-0.829281	17.591890	-45.950808	-138.379178
07170		7.187509	1.864724	6.496374	-0.228843	0.041783	0.050691	-0.038788	0.049320	0.024393	-0.801025	0.177246	-0.349365	0.071889	0.018669	0.064942	0.379192	-0.310524	-0.268350	-0.829323	17.540686	-45.935896	-138.339241
07171		7.481247	1.887094	6.244177	-0.440273	-0.284463	0.099182	-0.037596	0.048617	0.018499	-0.802002	0.191162	-0.348877	0.074826	0.018890	0.062420	0.379297	-0.310489	-0.268061	-0.829382	17.493687	-45.920624	-138.307311
07172		7.378178	1.945595	6.269391	-0.330926	-0.258984	0.054000	-0.036813	0.053635	0.012724	-0.799561	0.181396	-0.352295	0.073797	0.019472	0.062671	0.379408	-0.310414	-0.267781	-0.829449	17.449489	-45.901301	-138.275532
07173		7.366005	1.978945	6.409042	-0.253570	-0.183238	0.144833	-0.035770	0.049360	0.006896	-0.807373	0.184814	-0.351074	0.073675	0.019803	0.064069	0.379470	-0.310356	-0.267517	-0.829528	17.409996	-45.883601	-138.252361
07174		7.043940	2.217337	6.622094	0.170994	-0.030325	0.104754	-0.035284	0.043611	0.012245	-0.805420	0.188965	-0.343262	0.070452	0.022189	0.066202	0.379568	-0.310319	-0.267264	-0.829578	17.368770	-45.869645	-138.223483
07175		6.871230	2.418334	6.911099	0.513806	0.127106	0.214539	-0.041137	0.014004	0.027215	-0.803955	0.185303	-0.344971	0.068714	0.024207	0.069101	0.379656	-0.310446	-0.267011	-0.829572	17.321023	-45.874731	-138.193466
07176		7.064763	2.200094	6.757740	0.197075	0.054436	0.206121	-0.041150	-0.007939	0.030953	-0.800293	0.187012	-0.344482	0.070642	0.022026	0.067576	0.379754	-0.310659	-0.266803	-0.829515	17.274957	-45.892130	-138.162532
07177		7.259655	2.137397	6.653409	0.020277	-0.072193	0.263685	-0.042106	-0.034861	0.029543	-0.806152	0.182373	-0.348877	0.072582	0.021399	0.066542	0.379784	-0.310993	-0.266635	-0.829429	17.233879	-45.924303	-138.142600
07178		7.675156	1.843466	6.341185	-0.518375	-0.308353	0.294400	-0.044492	-0.064647	0.028646	-0.799316	0.194092	-0.348877	0.076728	0.018460	0.063433	0.379792	-0.311444	-0.266524	-0.829292	17.197067	-45.972316	-138.127240
07179		7.532380	1.840468	6.366107	-0.429732	-0.220681	0.208192	-0.041993	-0.071561	0.025972	-0.794922	0.191406	-0.338379	0.075299	0.018428	0.063684	0.379760	-0.311925	-0.266433	-0.829155	17.164408	-46.023958	-138.118716
07180		7.539773	2.142326	6.372285	-0.181640	-0.388510	0.279875	-0.036900	-0.078073	0.035199	-0.795654	0.189697	-0.342285	0.075369	0.021448	0.063748	0.379788	-0.312426	-0.266368	-0.828974	17.130479	-46.080416	-138.101344
07181		7.534784	1.828016	6.153720	-0.488136	-0.352461	0.067615	-0.043922	-0.070471	0.039519	-0.800049	0.188721	-0.339355	0.075323	0.018309	0.061560	0.379811	-0.312924	-0.266246	-0.828815	17.088715	-46.133744	-138.081761
07182		7.271935	2.394699	6.469971	0.209031	-0.337859	0.203215	-0.045302	-0.045840	0.063786	-0.792480	0.197021	-0.339355	0.072697	0.023985	0.064711	0.379987	-0.313346	-0.266040	-0.828641	17.027891	-46.177332	-138.033805
07183		7.584783	2.059741	6.234469	-0.281771	-0.452654	0.205085	-0.045242	-0.045827	0.094942	-0.797852	0.202881	-0.337402	0.075824	0.020648	0.062357	0.380270	-0.313818	-0.265778	-0.828417	16.949231	-46.226408	-137.964154
07184		7.790462	1.817040	6.063919	-0.622297	-0.527132	0.192257	-0.042195	-0.042062	0.097556	-0.794189	0.197754	-0.331543	0.077883	0.018221	0.060652	0.380596	-0.314262	-0.265525	-0.828180	16.869958	-46.273466	-137.888270
07185		7.659183	1.803051	6.111442	-0.538888	-0.427546	0.126658	-0.034344	-0.039186	0.089293	-0.791992	0.194092	-0.332764	0.076572	0.018075	0.061126	0.380882	-0.314678	-0.265305	-0.827962	16.799322	-46.317842	-137.821211
07186		7.434193	1.703935	6.422704	-0.392863	-0.056173	0.150457	-0.018614	-0.038922	0.076385	-0.790771	0.196777	-0.332031	0.074323	0.017074	0.064240	0.381161	-0.315036	-0.265176	-0.827738	16.744898	-46.359552	-137.761112
07187		7.253534	1.828795	6.514971	-0.162306	0.020112	0.105798	-0.006555	-0.045763	0.059275	-0.791748	0.194092	-0.330078	0.072515	0.018312	0.065166	0.381356	-0.315387	-0.265130	-0.827529	16.708366	-46.402508	-137.719356
07188		6.885317	2.181687	6.795654	0.405162	0.183113	0.094410	0.001320	-0.048393	0.054650	-0.796875	0.197998	-0.333496	0.068831	0.021835	0.067973	0.381564	-0.315718	-0.265137	-0.827305	16.679348	-46.445782	-137.678646
07189		7.012764	1.946444	6.758828	0.148781	0.235943	0.115629	-0.000864	-0.065531	0.049963	-0.802002	0.203613	-0.335205	0.070101	0.019482	0.067611	0.381702	-0.316127	-0.265166	-0.827076	16.654730	-46.498022	-137.648989
07190		7.322169	1.901742	6.556969	-0.099425	-0.013880	0.198034	0.010681	-0.101447	0.056933	-0.789307	0.200439	-0.326416	0.073183	0.019035	0.065608	0.381864	-0.316662	-0.265309	-0.826751	16.638790	-46.570771	-137.618982
07191		7.327626	0.693506	6.231585	-1.162155	0.457962	-0.249877	0.089339	-0.147843	0.073006	-0.792969	0.201416	-0.324463	0.073228	0.006934	0.062373	0.382132	-0.317269	-0.265832	-0.826226	16.666625	-46.671967	-137.590356
07192		6.852208	2.800372	6.600589	0.897929	-0.250062	0.061205	0.026033	-0.218514	0.110708	-0.791748	0.207275	-0.319580	0.068434	0.028033	0.066084	0.382383	-0.318329	-0.266175	-0.825591	16.648396	-46.817812	-137.545234
07193		7.087644	1.583540	6.695074	-0.144665	0.413899	0.055140	0.047651	-0.289881	0.073935	-0.792969	0.206055	-0.314209	0.070773	0.015846	0.067057	0.382398	-0.319603	-0.266795	-0.824891	16.676525	-46.997129	-137.549991
07194		7.135146	1.481704	6.801168	-0.194604	0.547795	0.138372	0.037816	-0.341626	0.046709	-0.788574	0.205078	-0.312256	0.071232	0.014821	0.068136	0.382239	-0.321062	-0.267524	-0.824163	16.724362	-47.200022	-137.586103
07195		7.264708	1.525302	6.635798	-0.255368	0.379953	0.133501	0.028941	-0.381101	0.028410	-0.783691	0.209717	-0.313477	0.072518	0.015254	0.066498	0.381936	-0.322677	-0.268320	-0.823413	16.785419	-47.421822	-137.646864
07196		7.597938	1.883622	6.268332	-0.230021	-0.194355	0.211177	0.028914	-0.412714	0.027225	-0.790771	0.205322	-0.304688	0.075847	0.018837	0.062843	0.381584	-0.324417	-0.269177	-0.822612	16.853589	-47.660421	-137.717192
07197		7.792057	2.134019	6.157044	-0.134771	-0.466143	0.333433	0.009737	-0.433234	0.057080	-0.791260	0.210449	-0.304443	0.077781	0.021359	0.061740	0.381295	-0.326318	-0.269946	-0.821742	16.897133	-47.915488	-137.768709
07198		7.982427	2.310818	5.902324	-0.138418	-0.793916	0.348356	-0.013767	-0.464031	0.110955	-0.789551	0.210938	-0.306641	0.079674	0.023156	0.059207	0.381144	-0.328460	-0.270586	-0.820747	16.900593	-48.196099	-137.784344
07199		7.230930	2.492022	6.703582	0.683190	0.030280	0.334561	-0.036423	-0.475271	0.136828	-0.788574	0.212891	-0.299805	0.072133	0.024982	0.067203	0.381046	-0.330727	-0.271112	-0.819709	16.877244	-48.487490	-137.781259
07200		7.615719	2.417122	6.333220	0.352179	-0.325765	0.371661	-0.060994	-0.475930	0.185673	-0.793457	0.209961	-0.301514	0.075984	0.024261	0.063506	0.381103	-0.333104	-0.271454	-0.818605	16.809282	-48.787041	-137.737647
07201		7.833099	2.327083	6.003443	0.108913	-0.573233	0.310226	-0.097112	-0.481208	0.220609	-0.785889	0.211914	-0.288330	0.078161	0.023386	0.060211	0.381234	-0.335619	-0.271600	-0.817468	16.698702	-49.095514	-137.665006
07202		7.893812	2.342820	5.874569	0.098960	-0.674077	0.279250	-0.128864	-0.468437	0.268732	-0.789307	0.220215	-0.288330	0.078769	0.023572	0.058915	0.381521	-0.338204	-0.271507	-0.816299	16.535418	-49.404445	-137.547303
07203		7.606239	2.379076	5.711907	0.263816	-0.661462	-0.033456	-0.151303	-0.455526	0.311623	-0.789795	0.217285	-0.287598	0.075895	0.023952	0.057274	0.381961	-0.340835	-0.271225	-0.815092	16.326999	-49.713289	-137.387553
07204		7.020650	2.507329	6.585063	1.009017	0.155531	0.081586	-0.173696	-0.505829	0.372330	-0.778809	0.223633	-0.278809	0.069993	0.025261	0.066006	0.382537	-0.343791	-0.270840	-0.813707	16.072770	-50.058786	-137.185627
07205		7.030470	1.568114	6.765941	0.374969	0.828252	0.027912	-0.179550	-0.603904	0.394028	-0.778564	0.225342	-0.275635	0.070069	0.015880	0.067857	0.383054	-0.347185	-0.270580	-0.812107	15.815465	-50.461445	-136.984973
07206		6.880003	1.348060	6.915908	0.392606	1.154024	-0.040532	-0.165334	-0.722091	0.387898	-0.779785	0.235596	-0.263916	0.068523	0.013671	0.069396	0.383405	-0.351015	-0.270608	-0.810284	15.588341	-50.927497	-136.814238
07207		7.426305	0.818593	6.179775	-0.477001	0.735456	-0.156569	-0.143175	-0.845699	0.377236	-0.784912	0.238525	-0.261963	0.073985	0.008370	0.062105	0.383576	-0.355284	-0.270978	-0.808216	15.400269	-51.460045	-136.678369
07208		7.248027	0.350654	6.112241	-0.721712	1.078304	-0.414181	-0.107239	-0.976860	0.333393	-0.782715	0.237793	-0.256592	0.072175	0.003660	0.061473	0.383447	-0.359944	-0.271814	-0.805932	15.284823	-52.057917	-136.609972
07209		7.258365	0.788088	6.417780	-0.175709	1.114698	-0.157719	-0.053952	-1.096925	0.275144	-0.787598	0.242188	-0.248779	0.072219	0.007998	0.064572	0.383004	-0.364897	-0.273193	-0.803445	15.262997	-52.713576	-136.621679
07210		7.329571	1.422217	6.409054	0.392590	0.805921	-0.013894	-0.031700	-1.232498	0.278178	-0.788818	0.247314	-0.237061	0.072879	0.014334	0.064538	0.382414	-0.370341	-0.274904	-0.800646	15.279175	-53.444360	-136.664986
07211		7.751430	1.901044	6.070088	0.567757	0.215501	0.196015	-0.020917	-1.393857	0.326103	-0.787109	0.250000	-0.234863	0.077058	0.019143	0.061237	0.381797	-0.376461	-0.276866	-0.797404	15.299878	-54.271806	-136.705720
07212		7.918962	2.327984	6.220970	1.018860	0.127230	0.471930	-0.070792	-1.564670	0.422172	-0.788818	0.247803	-0.219482	0.078650	0.023468	0.062818	0.381210	-0.383466	-0.278758	-0.793680	15.254299	-55.207921	-136.699920
07213		8.134513	2.648560	5.966767	1.229493	-0.206597	0.542509	-0.128360	-1.746400	0.579192	-0.789063	0.258301	-0.198486	0.080743	0.026759	0.060357	0.380853	-0.391493	-0.280445	-0.789326	15.085434	-56.268298	-136.584841
07214		8.373704	2.530576	5.903602	1.176055	-0.157657	0.673652	-0.207988	-1.928116	0.749146	-0.786377	0.266357	-0.182861	0.083067	0.025680	0.059812	0.380718	-0.400587	-0.281804	-0.784328	14.756785	-57.453832	-136.335023
07215		8.295603	2.618352	5.972188	1.499677	0.001326	0.631732	-0.277321	-2.099736	0.921459	-0.785156	0.262207	-0.175049	0.082201	0.026647	0.060551	0.380833	-0.410681	-0.282838	-0.778659	14.250182	-58.758480	-135.925743
07216		8.456426	2.535339	6.115670	1.651593	0.228645	0.796476	-0.341080	-2.250815	1.096298	-0.781006	0.277588	-0.153320	0.083728	0.025919	0.062058	0.381226	-0.421669	-0.283510	-0.772324	13.534820	-60.168628	-135.322467
07217		8.734349	2.024552	5.948804	1.302302	0.420518	0.859523	-0.401396	-2.369785	1.230732	-0.785645	0.286621	-0.144287	0.086504	0.020900	0.060475	0.381777	-0.433351	-0.283845	-0.765431	12.610096	-61.658262	-134.527757
07218		9.326866	1.053728	5.536639	0.377859	0.576269	1.062628	-0.420275	-2.454298	1.293126	-0.786621	0.295166	-0.127197	0.092509	0.011255	0.056482	0.382333	-0.445396	-0.284078	-0.758118	11.531905	-63.195578	-133.583494
07219		9.368363	0.617796	4.646924	-0.140297	0.258434	0.658610	-0.373147	-2.488050	1.273253	-0.787354	0.302246	-0.108154	0.093054	0.006860	0.047617	0.382794	-0.457363	-0.284543	-0.750548	10.392510	-64.741137	-132.553717
07220		9.408509	0.097342	4.999187	-0.166171	0.955762	0.797354	-0.264999	-2.544062	1.131764	-0.778320	0.315430	-0.091064	0.093431	0.001571	0.051181	0.382815	-0.469040	-0.285786	-0.742819	9.371567	-66.295440	-131.599161
07221		10.178174	-0.558946	4.199818	-1.059900	0.628652	1.142679	-0.049043	-2.593826	0.915237	-0.784912	0.326172	-0.073242	0.101250	-0.005115	0.043315	0.382393	-0.480089	-0.288380	-0.734933	8.652379	-67.852416	-130.849094
07222		12.183368	0.013623	4.702457	-0.585980	0.356482	3.228301	0.112263	-2.563940	0.726984	-0.780273	0.326904	-0.051758	0.121216	0.000551	0.048581	0.381639	-0.490358	-0.291907	-0.727111	8.195731	-69.373408	-130.289945
07223		10.446953	0.024020	4.253024	-0.171924	0.677367	1.444860	0.104728	-2.477376	0.659493	-0.769775	0.328857	-0.030273	0.103931	0.000561	0.043820	0.380681	-0.500144	-0.295357	-0.719514	7.745400	-70.838409	-129.747494
07224		9.789010	-0.043432	3.927376	-0.055237	0.814274	0.702959	0.156437	-2.492154	0.593782	-0.777832	0.333496	-0.025391	0.097391	-0.000176	0.040489	0.379531	-0.509705	-0.299136	-0.711811	7.364417	-72.305321	-129.251775
07225		10.106973	0.278815	3.474037	0.117367	0.396382	0.870028	0.166674	-2.511496	0.561372	-0.775146	0.346191	0.000977	0.100615	0.003041	0.036008	0.378200	-0.519181	-0.303021	-0.703984	6.978234	-73.779968	-128.748481
07226		10.276853	0.162751	3.467885	0.174047	0.616836	1.015488	0.139993	-2.477210	0.537581	-0.775146	0.341553	0.019531	0.102324	0.001878	0.035949	0.376704	-0.528465	-0.306759	-0.696217	6.530685	-75.232261	-128.201150
07227		10.522615	0.237013	3.119161	0.210491	0.441207	1.153877	0.102413	-2.444820	0.538335	-0.778320	0.346680	0.022949	0.104828	0.002636	0.032476	0.375102	-0.537624	-0.310254	-0.688478	5.942367	-76.664904	-127.534497
07228		11.379790	0.342355	2.913007	0.268359	0.262125	1.932733	0.092714	-2.381294	0.523633	-0.775635	0.352783	0.047607	0.113431	0.003707	0.030484	0.373463	-0.546476	-0.313587	-0.680847	5.222369	-78.058446	-126.742525
07229		13.309503	0.961823	3.125584	0.874164	0.010494	3.864478	0.053281	-2.211372	0.530867	-0.761475	0.354492	0.059570	0.132712	0.009962	0.032727	0.371955	-0.554758	-0.316406	-0.673633	4.218921	-79.352671	-125.688447
07230		16.042910	1.397908	3.554827	1.402125	-0.053006	6.618647	-0.034508	-1.829907	0.591754	-0.771484	0.365234	0.066650	0.160053	0.014459	0.037011	0.370970	-0.561952	-0.318014	-0.667427	2.607998	-80.425693	-124.072556
07231		16.477187	2.084238	3.129691	1.954184	-0.667791	6.961317	-0.193996	-1.243094	0.664254	-0.764160	0.374023	0.078369	0.164503	0.021420	0.032299	0.370685	-0.567558	-0.317776	-0.662939	0.209180	-81.153172	-121.755311
07232		13.771410	3.159116	4.967846	4.213557	0.731457	4.540726	-0.406848	-0.583865	0.681300	-0.772217	0.365967	0.085449	0.137460	0.032161	0.050015	0.370886	-0.571379	-0.315549	-0.660605	-2.680949	-81.484784	-119.067807
07233		10.477303	3.243715	10.161411	7.326883	5.441226	2.030406	-0.416700	0.230188	0.472841	-0.777100	0.380371	0.077148	0.104812	0.032896	0.101425	0.371647	-0.572190	-0.312371	-0.660985	-4.709360	-81.340880	-117.258106
07234		6.481030	2.435106	13.221788	8.539364	8.876709	-1.384756	-0.121428	1.169273	0.258702	-0.781494	0.381592	0.071045	0.065550	0.024516	0.131821	0.374004	-0.569000	-0.309028	-0.663974	-5.392708	-80.665415	-116.636983
07235		3.032791	1.876869	11.493199	7.372690	8.143838	-4.900253	0.224087	1.759899	0.353688	-0.791016	0.389648	0.061035	0.031305	0.018695	0.114680	0.378549	-0.563316	-0.305438	-0.667895	-5.903399	-79.646657	-115.988761
07236		2.500929	3.782220	10.182050	8.290232	6.079397	-5.506486	0.462839	2.081324	0.299480	-0.801270	0.392334	0.029297	0.026011	0.037625	0.101641	0.384039	-0.555970	-0.302161	-0.672391	-5.929378	-78.447616	-115.692486
07237		0.721793	4.407938	8.495241	8.049691	4.644872	-7.415850	0.537642	2.186205	0.163809	-0.809326	0.392334	0.019287	0.008111	0.043857	0.084985	0.389398	-0.547851	-0.299277	-0.677246	-5.514298	-77.196261	-115.801666
07238		1.157155	4.674376	8.153177	8.008665	4.126484	-6.898291	0.536970	2.163572	-0.032816	-0.812744	0.391846	0.000732	0.012461	0.046523	0.081525	0.394002	-0.539451	-0.296933	-0.682338	-4.701267	-75.968139	-116.321464
07239		1.234832	4.817903	7.909869	7.943170	3.816743	-6.708100	0.518915	2.164495	-0.332308	-0.811279	0.389160	-0.010498	0.013284	0.047952	0.079083	0.397489	-0.530568	-0.295296	-0.687968	-3.373808	-74.748852	-117.386393
07240		0.961544	4.804690	7.292834	7.601589	3.354284	-6.956674	0.429589	2.075177	-0.624583	-0.819580	0.383057	-0.024658	0.010522	0.047858	0.072925	0.399552	-0.521678	-0.294270	-0.693985	-1.710466	-73.582115	-118.859698
07241		1.462857	4.531433	7.142528	7.166544	3.212444	-6.347476	0.276122	1.912693	-0.875208	-0.825684	0.376465	-0.042480	0.015509	0.045149	0.071342	0.400053	-0.513225	-0.293650	-0.700234	0.116658	-72.497946	-120.605667
07242		2.563465	3.475076	7.512009	6.195688	3.717710	-5.030730	0.143085	1.781635	-1.118692	-0.831055	0.370361	-0.049316	0.026496	0.034551	0.074911	0.399131	-0.505087	-0.293424	-0.706742	2.084458	-71.470688	-122.588904
07243		3.812070	2.429411	7.830698	5.138500	4.114060	-3.614214	0.112770	1.727148	-1.360228	-0.831299	0.349609	-0.076172	0.038959	0.023987	0.077987	0.397141	-0.496787	-0.293768	-0.713571	4.224992	-70.444685	-124.786950
07244		4.840363	2.112068	7.946519	4.597342	4.019867	-2.482019	0.104507	1.729176	-1.537193	-0.838623	0.351074	-0.086426	0.049249	0.020703	0.079053	0.394463	-0.488176	-0.294489	-0.720666	6.411515	-69.382751	-127.051486
07245		5.763592	2.086342	7.988388	4.245977	3.731512	-1.480243	0.005693	1.735050	-1.604653	-0.842773	0.333008	-0.097900	0.058491	0.020394	0.079380	0.391247	-0.479569	-0.294960	-0.727968	8.420448	-68.283606	-129.203919
07246		7.136106	1.885190	8.276583	3.715039	3.582598	0.002535	-0.173757	1.750500	-1.549070	-0.841309	0.307373	-0.107910	0.072225	0.018366	0.082120	0.387782	-0.471278	-0.294582	-0.735353	10.049079	-67.157938	-131.071724
07247		8.811768	1.358279	8.781498	2.881315	3.653948	1.804014	-0.348045	1.832284	-1.449642	-0.846191	0.309570	-0.120605	0.089013	0.013092	0.086979	0.384319	-0.463105	-0.293116	-0.742910	11.270102	-65.978299	-132.623029
07248		10.500441	0.614176	9.159201	1.742509	3.691411	3.523613	-0.435323	1.998576	-1.353747	-0.854248	0.288818	-0.141602	0.105952	0.005625	0.090524	0.381219	-0.454558	-0.290757	-0.750673	12.154021	-64.706687	-133.870317
07249		11.897753	0.152220	9.299180	0.748273	3.429741	4.874748	-0.417869	2.232205	-1.290896	-0.845947	0.290283	-0.152344	0.120013	0.000942	0.091654	0.378649	-0.445119	-0.287813	-0.758721	12.815613	-63.303945	-134.876561
07250		12.688820	-0.051564	9.099756	-0.064215	2.906348	5.528411	-0.328131	2.504928	-1.241370	-0.850830	0.265625	-0.178711	0.128009	-0.001160	0.089400	0.376815	-0.434466	-0.284546	-0.766996	13.323156	-61.752358	-135.660767
07251		12.860591	0.214355	8.460310	-0.526707	1.953330	5.448645	-0.221392	2.740592	-1.175745	-0.841553	0.250000	-0.202637	0.129759	0.001475	0.082828	0.375693	-0.422711	-0.281026	-0.775367	13.702921	-60.074134	-136.244759
07252		12.773122	0.783777	7.735953	-0.699973	0.836941	5.100524	-0.163470	2.921189	-1.092141	-0.844482	0.243896	-0.240479	0.128883	0.007198	0.075477	0.375212	-0.410167	-0.277167	-0.783682	13.946508	-58.306776	-136.637713
07253		12.605099	1.509845	7.102954	-0.666767	-0.280471	4.715878	-0.175355	3.022823	-0.969401	-0.843506	0.235596	-0.258545	0.127177	0.014545	0.069100	0.375211	-0.397313	-0.272736	-0.791817	14.024433	-56.497935	-136.853259
07254		12.368845	2.051334	6.619582	-0.669387	-1.160626	4.301244	-0.241616	3.061425	-0.850899	-0.831055	0.235107	-0.284424	0.124768	0.020062	0.064267	0.375530	-0.384495	-0.267681	-0.799679	13.948118	-54.685464	-136.928901
07255		12.282077	2.372389	6.348150	-0.799900	-1.817992	4.073110	-0.290698	3.054337	-0.756852	-0.819336	0.225098	-0.310791	0.123860	0.023347	0.061561	0.376004	-0.371825	-0.262183	-0.807234	13.775257	-52.888545	-136.924773
07256		12.294799	2.668414	6.145691	-0.950585	-2.448724	3.939994	-0.295290	3.024775	-0.714385	-0.808594	0.226563	-0.333252	0.123953	0.026331	0.059548	0.376534	-0.359250	-0.256591	-0.814446	13.582018	-51.115229	-136.894633
07257		12.154418	3.064795	5.920687	-0.950127	-3.078926	3.669889	-0.274491	2.968676	-0.693588	-0.797363	0.220215	-0.346924	0.122510	0.030304	0.057351	0.377008	-0.346799	-0.251083	-0.821311	13.404407	-49.374503	-136.870652
07258		11.852532	3.155032	5.681372	-1.105842	-3.445002	3.210769	-0.222084	2.878203	-0.696807	-0.790039	0.208008	-0.368164	0.119435	0.031197	0.055064	0.377378	-0.334545	-0.245919	-0.827761	13.278521	-47.685145	-136.872856
07259		11.626172	3.066744	5.437101	-1.422708	-3.710081	2.770406	-0.123186	2.766592	-0.725321	-0.781982	0.197754	-0.387451	0.117109	0.030277	0.052736	0.377553	-0.322458	-0.241360	-0.833798	13.244773	-46.053024	-136.926824
07260		11.437739	3.010043	5.142386	-1.735132	-4.008293	2.321518	0.000491	2.635848	-0.777291	-0.771240	0.195068	-0.401611	0.115158	0.029654	0.049910	0.377505	-0.310559	-0.237611	-0.839395	13.325445	-44.488215	-137.040369
07261		11.347774	2.928814	4.978577	-2.058668	-4.221263	2.022423	0.112062	2.489304	-0.819085	-0.767334	0.189697	-0.412598	0.114204	0.028794	0.048384	0.377179	-0.298959	-0.234618	-0.844579	13.503937	-42.998230	-137.209973
07262		11.287634	2.544414	4.881931	-2.600764	-4.194745	1.735034	0.206753	2.360903	-0.877047	-0.757080	0.192139	-0.415039	0.113552	0.024898	0.047507	0.376571	-0.287606	-0.232327	-0.849412	13.770354	-41.572572	-137.430271
07263		11.245832	2.085996	4.745504	-3.213618	-4.130795	1.409681	0.271322	2.247327	-0.932356	-0.763184	0.180420	-0.429932	0.113078	0.020271	0.046214	0.375591	-0.276508	-0.230557	-0.854002	14.101034	-40.200650	-137.703137
07264		10.865612	1.594767	4.502374	-3.676500	-3.912868	0.772322	0.285293	2.140296	-0.974252	-0.758057	0.174561	-0.440918	0.109206	0.015353	0.043879	0.374314	-0.265750	-0.229084	-0.858363	14.455888	-38.882013	-138.004185
07265		10.383012	1.146547	4.228115	-4.027455	-3.659796	0.055370	0.253227	2.019956	-0.983287	-0.748291	0.164063	-0.459717	0.104305	0.010901	0.041243	0.372716	-0.255529	-0.227667	-0.862528	14.795821	-37.626622	-138.325277
07266		9.901352	0.661141	3.821114	-4.405446	-3.437187	-0.765677	0.193493	1.872351	-0.944053	-0.749268	0.151367	-0.463623	0.099395	0.006106	0.037288	0.371052	-0.246065	-0.226205	-0.866374	15.087355	-36.458179	-138.625642
07267		9.617074	0.303618	3.556364	-4.729302	-3.293534	-1.326747	0.118180	1.693634	-0.868454	-0.756836	0.141846	-0.470215	0.096479	0.002597	0.034749	0.369332	-0.237582	-0.224621	-0.869882	15.314510	-35.398186	-138.903543
07268		9.513614	-0.011191	3.361810	-5.082117	-3.218155	-1.711831	0.060500	1.525138	-0.760050	-0.744873	0.143555	-0.482422	0.095387	-0.000484	0.032891	0.367847	-0.230034	-0.222962	-0.872961	15.475733	-34.447671	-139.125105
07269		9.327910	-0.366293	3.179974	-5.384525	-3.053799	-2.135727	0.038876	1.365522	-0.637011	-0.750000	0.133545	-0.482666	0.093481	-0.003967	0.031161	0.366616	-0.223354	-0.221336	-0.875623	15.590178	-33.603234	-139.296692
07270		9.048605	-0.710883	3.025776	-5.588555	-2.819576	-2.577033	0.066415	1.201080	-0.523291	-0.741455	0.136475	-0.500000	0.090647	-0.007356	0.029711	0.365770	-0.217450	-0.220005	-0.877796	15.691518	-32.867318	-139.412680
07271		8.771879	-0.790891	2.828172	-5.587922	-2.767219	-2.979924	0.128882	1.038802	-0.419321	-0.743652	0.119141	-0.505371	0.087847	-0.008111	0.027820	0.365204	-0.212259	-0.219115	-0.879523	15.806219	-32.236533	-139.495076
07272		8.371179	-0.721539	2.622032	-5.381102	-2.737520	-3.407887	0.189214	0.863072	-0.318521	-0.746582	0.122070	-0.507813	0.083812	-0.007373	0.025852	0.364996	-0.207826	-0.218707	-0.880769	15.935680	-31.718600	-139.535359
07273		7.947062	-0.470207	2.432203	-5.005391	-2.792521	-3.776125	0.225153	0.674459	-0.229436	-0.740479	0.112061	-0.517090	0.079547	-0.004820	0.024048	0.365003	-0.204249	-0.218706	-0.881603	16.072934	-31.318101	-139.551683
07274		7.743616	-0.094560	2.294277	-4.657118	-3.011976	-3.941117	0.228323	0.475309	-0.156878	-0.747559	0.119629	-0.520264	0.077490	-0.001032	0.022758	0.365113	-0.201624	-0.219006	-0.882086	16.206214	-31.039174	-139.556985
07275		7.472823	0.294721	2.245723	-4.226315	-3.146163	-4.049608	0.194028	0.280599	-0.116017	-0.752197	0.107666	-0.514648	0.074761	0.002882	0.022355	0.365153	-0.199963	-0.219468	-0.882334	16.324822	-30.873596	-139.571961
07276		7.336933	0.683072	2.245628	-3.865930	-3.320901	-4.036338	0.133297	0.102407	-0.082557	-0.745117	0.109863	-0.514160	0.073384	0.006785	0.022423	0.365084	-0.199237	-0.219953	-0.882405	16.414510	-30.811650	-139.598487
07277		7.402786	0.971875	2.460753	-3.661987	-3.422944	-3.756750	0.048099	-0.056095	-0.070293	-0.746094	0.107178	-0.516113	0.074024	0.009687	0.024631	0.364810	-0.199377	-0.220340	-0.882390	16.466749	-30.838608	-139.647097
07278		7.732974	1.193434	2.803429	-3.649881	-3.555282	-3.246050	-0.029118	-0.169983	-0.062171	-0.743408	0.103271	-0.518066	0.077310	0.011914	0.028098	0.364369	-0.200172	-0.220585	-0.882331	16.483107	-30.929593	-139.712024
07279		8.090708	1.350046	3.167744	-3.694407	-3.645962	-2.715147	-0.099435	-0.217473	-0.070360	-0.752930	0.113281	-0.516113	0.080877	0.013488	0.031759	0.363769	-0.201294	-0.220616	-0.882316	16.466766	-31.045315	-139.791292
07280		8.006118	1.298174	3.431907	-3.618377	-3.411717	-2.544354	-0.149697	-0.212761	-0.074524	-0.749512	0.102783	-0.515625	0.080029	0.012978	0.034394	0.363105	-0.202482	-0.220419	-0.882367	16.422578	-31.157834	-139.872342
07281		7.384235	1.133714	3.470546	-3.316230	-2.930875	-2.865062	-0.152367	-0.215978	-0.087702	-0.748779	0.112549	-0.511719	0.073810	0.011331	0.034777	0.362376	-0.203675	-0.220230	-0.882439	16.381828	-31.270147	-139.962419
07282		6.556975	1.087411	3.424012	-2.810548	-2.457665	-3.334963	-0.126130	-0.271229	-0.117117	-0.746094	0.104736	-0.506592	0.065530	0.010857	0.034322	0.361482	-0.205031	-0.220286	-0.882478	16.371464	-31.408008	-140.081988
07283		6.251449	1.060591	3.553862	-2.595592	-2.184497	-3.384140	-0.087863	-0.375156	-0.145112	-0.751953	0.107910	-0.500977	0.062455	0.010576	0.035651	0.360389	-0.206746	-0.220727	-0.882415	16.403305	-31.598666	-140.239443
07284		6.323386	1.257083	3.827553	-2.432393	-2.176529	-3.062746	-0.073246	-0.486377	-0.156064	-0.750244	0.116943	-0.503906	0.063150	0.012536	0.038425	0.359137	-0.208910	-0.221442	-0.882236	16.459052	-31.848355	-140.425816
07285		6.675078	1.407377	4.146979	-2.470867	-2.257702	-2.564774	-0.085660	-0.578857	-0.157832	-0.755371	0.120361	-0.498779	0.066641	0.014039	0.041657	0.357760	-0.211504	-0.222271	-0.881969	16.519042	-32.148706	-140.631771
07286		7.157117	1.422877	4.510495	-2.676982	-2.289739	-1.990659	-0.107598	-0.625411	-0.166545	-0.749268	0.111084	-0.491211	0.071442	0.014194	0.045321	0.356265	-0.214328	-0.223091	-0.881686	16.575677	-32.472724	-140.853596
07287		7.475233	1.475715	4.803629	-2.760201	-2.289195	-1.549980	-0.131506	-0.635103	-0.205216	-0.753418	0.114014	-0.484619	0.074614	0.014712	0.048264	0.354518	-0.217205	-0.223856	-0.881491	16.635435	-32.796145	-141.109153
07288		7.534999	1.678979	4.828140	-2.624621	-2.393894	-1.428981	-0.168974	-0.632075	-0.238134	-0.760742	0.113281	-0.487793	0.075217	0.016741	0.048505	0.352625	-0.220083	-0.224489	-0.881376	16.686471	-33.111689	-141.381479
07289		7.338035	1.796416	4.816897	-2.390645	-2.328524	-1.497705	-0.235094	-0.671796	-0.257612	-0.752197	0.116211	-0.476563	0.073241	0.017927	0.048394	0.350483	-0.223242	-0.224915	-0.881327	16.713458	-33.446371	-141.681189
07290		7.346240	1.802599	4.858947	-2.355221	-2.267839	-1.437992	-0.299783	-0.735942	-0.288509	-0.751465	0.113281	-0.473877	0.073309	0.017993	0.048832	0.348096	-0.226744	-0.225203	-0.881306	16.723378	-33.810379	-142.009768
07291		7.658497	1.862708	5.038637	-2.442594	-2.316796	-1.084804	-0.350917	-0.809917	-0.322619	-0.751709	0.116455	-0.466309	0.076410	0.018592	0.050663	0.345373	-0.230632	-0.225424	-0.881311	16.728068	-34.210094	-142.382195
07292		8.631891	2.082281	5.482579	-2.777150	-2.649635	-0.108538	-0.415878	-0.831842	-0.348241	-0.757324	0.116455	-0.464844	0.086126	0.020787	0.055141	0.342467	-0.234681	-0.225426	-0.881376	16.710214	-34.616877	-142.772725
07293		9.467683	2.127117	5.896119	-3.147967	-2.806620	0.729544	-0.495518	-0.758173	-0.364755	-0.752930	0.114502	-0.455322	0.094491	0.021245	0.059267	0.339434	-0.238531	-0.224960	-0.881635	16.648164	-34.981595	-143.165740
07294		9.582914	1.921723	5.990691	-3.306420	-2.623034	0.845672	-0.565754	-0.637944	-0.365565	-0.745117	0.123779	-0.454834	0.095673	0.019212	0.060158	0.336477	-0.241950	-0.223981	-0.882086	16.534147	-35.279792	-143.531410
07295		9.157690	1.460324	5.640666	-3.415201	-2.261766	0.238859	-0.593584	-0.538994	-0.357962	-0.739990	0.122803	-0.451416	0.091451	0.014607	0.056610	0.333592	-0.244996	-0.222695	-0.882666	16.391995	-35.526474	-143.876768
07296		8.074816	0.944686	5.097170	-3.188434	-1.662023	-0.916192	-0.559517	-0.526477	-0.347665	-0.739258	0.128174	-0.451416	0.080630	0.009450	0.051158	0.330833	-0.247924	-0.221525	-0.883181	16.264688	-35.767633	-144.208893
07297		7.134376	0.529198	4.327604	-3.053603	-1.324317	-2.142681	-0.472119	-0.636417	-0.327967	-0.735840	0.131836	-0.458008	0.071214	0.005278	0.043490	0.328120	-0.251222	-0.220894	-0.883420	16.194488	-36.073908	-144.552967
07298		0.954769	0.737826	4.875697	1.355810	1.757536	-5.307012	-0.338410	-0.797469	-0.315761	-0.738770	0.130371	-0.444092	0.009365	0.007446	0.048782	0.325466	-0.255008	-0.221098	-0.883266	16.216897	-36.469845	-144.919065
07299		-8.913499	6.972841	37.920964	22.491491	20.376271	15.583940	-0.599640	-1.178390	-0.398853	-0.737549	0.139893	-0.441650	-0.091226	0.071044	0.378465	0.321684	-0.260806	-0.220872	-0.883015	16.173393	-37.063047	-145.420079
07300		-11.413181	-9.402846	14.610452	5.749183	19.869032	-7.739101	0.956044	-1.062665	-0.755687	-0.737305	0.119385	-0.439941	-0.115260	-0.094289	0.145044	0.318460	-0.263177	-0.227775	-0.881725	17.165268	-37.529845	-146.153443
07301		-7.251631	3.758245	-5.323799	5.564151	-2.535084	-17.406206	0.643096	-3.059063	0.086486	-0.744629	0.120605	-0.411377	-0.071708	0.037725	-0.054218	0.316215	-0.275767	-0.235335	-0.876686	17.909599	-39.224110	-146.759174
07302		11.949491	-1.258877	8.564832	-5.521018	0.974823	3.835538	-0.069644	-3.711252	0.972779	-0.742920	0.122559	-0.378174	0.117938	-0.011982	0.087851	0.316006	-0.293298	-0.239506	-0.869915	17.970300	-41.426642	-146.915058
07303		17.396945	-1.260947	10.603079	-7.774914	0.281216	9.058297	0.307401	-2.736434	0.961254	-0.749023	0.129639	-0.374268	0.172556	-0.011943	0.108380	0.317377	-0.305897	-0.243725	-0.863885	18.106089	-43.096118	-146.855412
07304		10.840048	2.305296	4.683273	-3.146566	-2.950910	1.418437	0.336207	-2.147308	1.160604	-0.752930	0.150146	-0.356201	0.107753	0.023599	0.048031	0.320310	-0.316089	-0.246783	-0.858247	18.052875	-44.479923	-146.500564
07305		9.720117	4.648505	5.380974	-0.288627	-3.531354	1.697405	-0.018229	-2.186240	1.424938	-0.749756	0.156006	-0.343750	0.096271	0.047178	0.054861	0.323719	-0.327294	-0.247925	-0.852419	17.640001	-45.930753	-145.933859
07306		35.810895	7.949274	18.450229	-7.347090	-7.503230	29.882611	-0.056618	-1.015765	0.969352	-0.740723	0.162354	-0.344727	0.356775	0.081277	0.186294	0.326537	-0.332969	-0.247726	-0.849198	17.229106	-46.660214	-145.410753
07307		6.753132	5.526447	2.783810	1.277340	-4.537125	-1.959101	0.180992	0.606964	0.129082	-0.742920	0.169678	-0.341553	0.067580	0.055283	0.027683	0.328185	-0.330318	-0.247280	-0.849728	17.143402	-46.358193	-145.149831
07308		13.578536	0.913702	9.217714	-3.346341	-0.096182	6.279872	0.010960	0.023793	0.164799	-0.750977	0.167236	-0.353760	0.135789	0.009244	0.092161	0.328978	-0.330463	-0.247007	-0.849444	17.044254	-46.380678	-145.004568
07309		8.397987	0.366262	6.316251	-1.974755	0.452572	0.504813	0.195164	0.262939	0.015880	-0.747070	0.171387	-0.356445	0.084063	0.003608	0.063056	0.329741	-0.329109	-0.247370	-0.849568	17.094140	-46.247744	-144.918993
07310		7.533653	3.202031	6.007087	0.422576	-1.285384	0.250274	0.074413	0.228896	-0.003802	-0.751221	0.164307	-0.358643	0.075406	0.031997	0.059997	0.330177	-0.328069	-0.247306	-0.849820	17.092252	-46.129510	-144.857690
07311		7.845637	2.137510	5.904675	-0.573634	-0.782480	0.189653	0.022111	0.097656	0.041972	-0.759033	0.170898	-0.366211	0.078481	0.021385	0.059011	0.330561	-0.327734	-0.247163	-0.849841	17.057452	-46.091522	-144.791894
07312		8.207310	2.071768	6.012289	-0.778422	-0.819509	0.508273	-0.031605	-0.063312	0.089378	-0.754883	0.164307	-0.372070	0.082045	0.020764	0.060146	0.330857	-0.328226	-0.246978	-0.849590	16.992963	-46.148955	-144.727943
07313		7.888138	1.872138	6.244245	-0.636227	-0.412043	0.392392	-0.039743	-0.102373	0.089907	-0.754883	0.166748	-0.374512	0.078841	0.018769	0.062479	0.331096	-0.328902	-0.246825	-0.849280	16.930151	-46.228542	-144.672503
07314		7.287331	2.268814	6.331588	0.040739	-0.376269	0.096827	-0.051089	-0.096877	0.090723	-0.768066	0.167969	-0.377197	0.072832	0.022737	0.063345	0.331323	-0.329570	-0.246610	-0.848995	16.859196	-46.304499	-144.615210
07315		7.314303	2.287834	6.569926	0.148368	-0.248370	0.277576	-0.045868	-0.056520	0.094983	-0.765381	0.169922	-0.375000	0.073114	0.022928	0.065715	0.331630	-0.330067	-0.246347	-0.848758	16.781595	-46.359699	-144.544298
07316		7.422353	2.363858	6.193973	0.005277	-0.585092	0.122205	-0.040645	-0.005388	0.099457	-0.764648	0.174316	-0.372314	0.074210	0.023688	0.061937	0.332024	-0.330340	-0.246010	-0.848595	16.695386	-46.386791	-144.457768
07317		7.576429	1.688996	6.276168	-0.529577	-0.156910	0.154267	-0.044353	0.025256	0.092531	-0.767578	0.175781	-0.380127	0.075764	0.016939	0.062748	0.332424	-0.330485	-0.245621	-0.848495	16.605710	-46.396560	-144.369034
07318		7.386481	1.598271	6.405082	-0.431278	0.053309	0.084322	-0.035353	0.037291	0.076865	-0.783447	0.177734	-0.375488	0.073871	0.016022	0.064034	0.332783	-0.330540	-0.245273	-0.848434	16.528103	-46.396344	-144.290229
07319		7.295519	1.435805	6.532040	-0.443642	0.270942	0.070806	-0.023813	0.035821	0.047393	-0.774414	0.180664	-0.378662	0.072963	0.014383	0.065306	0.333051	-0.330546	-0.245032	-0.848396	16.474214	-46.392722	-144.233066
07320		7.178156	1.500586	6.575592	-0.311632	0.298672	0.027525	-0.005658	0.034637	0.020818	-0.781738	0.180176	-0.379883	0.071791	0.015015	0.065743	0.333218	-0.330494	-0.244907	-0.848387	16.446416	-46.384764	-144.199545
07321		7.024625	1.533194	6.721162	-0.144105	0.429593	0.019136	0.005420	0.022686	-0.010514	-0.783203	0.177246	-0.382813	0.070255	0.015326	0.067204	0.333273	-0.330436	-0.244908	-0.848387	16.444903	-46.378931	-144.191522
07322		7.484645	1.326783	6.215899	-0.754001	0.058711	-0.022606	0.016446	0.015987	-0.034531	-0.784180	0.186768	-0.388184	0.074854	0.013250	0.062154	0.333220	-0.330359	-0.244999	-0.848412	16.464867	-46.372236	-144.206480
07323		6.977282	1.400072	6.821960	-0.180285	0.603118	0.025277	0.036075	0.023521	-0.082984	-0.781250	0.174805	-0.376465	0.069787	0.013959	0.068214	0.333020	-0.330157	-0.245248	-0.848497	16.522492	-46.354154	-144.255751
07324		7.340362	1.859401	6.595111	-0.146518	0.015054	0.227835	0.045406	0.008427	-0.095745	-0.788086	0.177246	-0.375977	0.073415	0.018544	0.065952	0.332745	-0.329988	-0.245576	-0.848576	16.595558	-46.341597	-144.321175
07325		7.262558	1.923285	6.511194	-0.097098	-0.042687	0.128548	0.047644	0.007659	-0.112707	-0.791260	0.173584	-0.384766	0.072639	0.019176	0.065114	0.332414	-0.329800	-0.245948	-0.848671	16.679600	-46.327296	-144.398485
07326		7.331703	1.928791	6.399208	-0.183613	-0.137425	0.105546	0.054184	-0.020614	-0.115694	-0.791992	0.176514	-0.385742	0.073322	0.019228	0.064005	0.332033	-0.329715	-0.246394	-0.848724	16.774105	-46.327252	-144.486617
07327		7.286279	1.932556	6.545387	-0.103401	-0.018481	0.170082	0.058416	-0.038883	-0.114014	-0.795410	0.173340	-0.373291	0.072861	0.019265	0.065474	0.331658	-0.329704	-0.246892	-0.848730	16.873075	-46.338072	-144.575793
07328		6.896274	2.153000	7.060605	0.474744	0.332617	0.272456	0.063353	-0.053768	-0.119684	-0.793945	0.179443	-0.370361	0.068957	0.021466	0.070631	0.331234	-0.329739	-0.247438	-0.848723	16.980966	-46.355323	-144.675136
07329		7.664759	2.544025	6.101515	-0.056999	-0.831020	0.274692	0.053387	-0.083474	-0.093170	-0.804688	0.176758	-0.372803	0.076634	0.025388	0.061054	0.330880	-0.329952	-0.247952	-0.848628	17.073112	-46.393871	-144.759277
07330		7.437062	2.183615	6.326765	-0.101217	-0.346095	0.186111	0.051568	-0.097188	-0.080150	-0.805176	0.171875	-0.374756	0.074349	0.021790	0.063309	0.330551	-0.330240	-0.248455	-0.848497	17.159434	-46.441338	-144.838050
07331		7.553304	2.320744	6.290780	-0.079727	-0.492527	0.275088	0.048027	-0.101295	-0.055564	-0.808838	0.177979	-0.360352	0.075508	0.023171	0.062952	0.330324	-0.330584	-0.248914	-0.848317	17.230374	-46.495855	-144.897149
07332		7.722753	2.287990	6.157887	-0.248654	-0.611367	0.304613	0.041935	-0.093168	-0.044150	-0.812012	0.187012	-0.362305	0.077204	0.022850	0.061620	0.330136	-0.330915	-0.249310	-0.848145	17.290017	-46.547106	-144.946626
07333		7.475886	2.176767	6.398929	-0.090672	-0.274723	0.261526	0.039356	-0.104607	-0.036169	-0.807861	0.175293	-0.358398	0.074729	0.021742	0.064033	0.329972	-0.331312	-0.249704	-0.847938	17.345705	-46.606681	-144.991639
07334		7.735847	1.790088	6.076330	-0.639749	-0.317145	0.160258	0.042133	-0.141808	-0.037753	-0.806641	0.177979	-0.352295	0.077319	0.017873	0.060822	0.329750	-0.331857	-0.250170	-0.847674	17.410842	-46.685553	-145.048413
07335		8.001479	1.494608	5.903125	-1.064611	-0.321883	0.180679	0.051330	-0.187320	-0.054372	-0.805908	0.174561	-0.357422	0.079964	0.014909	0.059110	0.329422	-0.332562	-0.250781	-0.847344	17.499436	-46.787162	-145.129365
07336		7.197352	1.714530	6.761774	-0.103691	0.422419	0.200995	0.069686	-0.210185	-0.090191	-0.812256	0.176514	-0.343994	0.071910	0.017089	0.067699	0.328938	-0.333285	-0.251564	-0.847017	17.624062	-46.894195	-145.245870
07337		7.449940	1.793752	6.327376	-0.354201	0.017091	0.118527	0.092927	-0.250059	-0.110102	-0.818604	0.177246	-0.345215	0.074430	0.017867	0.063375	0.328362	-0.334117	-0.252546	-0.846620	17.781690	-47.020113	-145.388471
07338		7.016187	1.543578	6.671911	-0.147150	0.602666	-0.028059	0.118445	-0.290987	-0.141552	-0.816895	0.173584	-0.334473	0.070076	0.015347	0.066830	0.327638	-0.335035	-0.253752	-0.846176	17.981064	-47.161724	-145.568411
07339		7.626572	1.777524	6.067634	-0.555115	-0.141240	0.077315	0.155470	-0.337686	-0.168348	-0.818604	0.170166	-0.332031	0.076178	0.017664	0.060819	0.326804	-0.336061	-0.255237	-0.845645	18.227738	-47.324327	-145.783261
07340		7.426282	1.398980	6.107176	-0.696562	0.253331	-0.124816	0.218210	-0.376927	-0.240598	-0.812988	0.176758	-0.327393	0.074164	0.013834	0.061227	0.325717	-0.337051	-0.257170	-0.845085	18.562608	-47.493650	-146.068685
07341		7.298795	2.051014	6.582003	0.039102	0.236330	0.224454	0.260953	-0.399768	-0.277995	-0.820557	0.173828	-0.318604	0.072884	0.020323	0.065992	0.324514	-0.338023	-0.259383	-0.844483	18.951221	-47.668077	-146.392798
07342		7.690445	1.907940	6.065004	-0.492609	-0.099449	0.152985	0.277367	-0.417262	-0.292567	-0.823975	0.167969	-0.311768	0.076805	0.018883	0.060837	0.323250	-0.339014	-0.261715	-0.843851	19.364356	-47.846873	-146.736574
07343		7.745988	1.978755	6.105739	-0.457713	-0.080894	0.236170	0.291388	-0.408546	-0.304339	-0.814941	0.170166	-0.301270	0.077365	0.019581	0.061244	0.321967	-0.339935	-0.264111	-0.843224	19.793779	-48.017845	-147.090735
07344		7.851219	2.447892	5.996061	-0.225231	-0.441856	0.352958	0.273691	-0.364669	-0.284269	-0.817627	0.158691	-0.296875	0.078437	0.024285	0.060137	0.320796	-0.340716	-0.266324	-0.842659	20.194236	-48.166557	-147.418498
07345		7.744011	3.018211	5.982113	0.239312	-0.736900	0.398314	0.208272	-0.286429	-0.194099	-0.817383	0.156494	-0.287598	0.077384	0.030045	0.059963	0.319992	-0.341399	-0.267982	-0.842163	20.487798	-48.290734	-147.652944
07346		7.777586	3.221516	5.749895	0.274325	-1.002019	0.328858	0.159430	-0.203276	-0.108986	-0.814697	0.160645	-0.281006	0.077735	0.032127	0.057604	0.319577	-0.341914	-0.269154	-0.841737	20.684412	-48.385922	-147.794232
07347		7.847448	3.336208	5.438493	0.194403	-1.288345	0.216883	0.112718	-0.103077	-0.039471	-0.821045	0.158936	-0.283936	0.078453	0.033316	0.054444	0.319502	-0.342185	-0.269849	-0.841433	20.790136	-48.442171	-147.850573
07348		7.661204	3.273887	5.673228	0.350282	-1.015233	0.209514	0.061978	0.009901	0.022354	-0.817627	0.159180	-0.274902	0.076611	0.032730	0.056739	0.319760	-0.342136	-0.270046	-0.841292	20.803421	-48.449549	-147.821254
07349		7.737559	2.816591	5.656030	-0.030101	-0.759318	0.148046	0.032125	0.100049	0.060046	-0.812988	0.163574	-0.287109	0.077395	0.028180	0.056526	0.320237	-0.341816	-0.269907	-0.841285	20.756435	-48.417206	-147.735334
07350		7.618844	2.636079	5.753403	-0.057043	-0.546311	0.076479	0.002438	0.173854	0.090696	-0.813477	0.162842	-0.280518	0.076226	0.026395	0.057468	0.320902	-0.341264	-0.269474	-0.841395	20.657019	-48.350529	-147.600870
07351		7.731582	2.607393	5.673594	-0.177189	-0.640287	0.103165	-0.018078	0.234013	0.101825	-0.803223	0.167236	-0.280029	0.077369	0.026118	0.056643	0.321653	-0.340515	-0.268839	-0.841614	20.526209	-48.254557	-147.440560
07352		7.184530	2.548459	6.251199	0.311337	-0.041295	0.040785	-0.018217	0.277020	0.103486	-0.795166	0.170410	-0.283936	0.071919	0.025527	0.062410	0.322474	-0.339579	-0.268130	-0.841904	20.385175	-48.134668	-147.265744
07353		7.437888	2.391086	6.060536	-0.030135	-0.182646	0.073426	-0.002681	0.281850	0.095861	-0.802246	0.172363	-0.280518	0.074453	0.023947	0.060500	0.323298	-0.338591	-0.267495	-0.842188	20.257533	-48.011261	-147.096142
07354		7.498016	2.000153	6.056078	-0.359255	0.022434	0.024351	0.000315	0.267606	0.084244	-0.794922	0.172852	-0.286133	0.075053	0.020033	0.060460	0.324056	-0.337637	-0.266911	-0.842465	20.142355	-47.892108	-146.941179
07355		7.473544	1.759521	6.190434	-0.477392	0.256458	0.035030	0.018586	0.238745	0.056059	-0.791016	0.171387	-0.280029	0.074804	0.017610	0.061817	0.324689	-0.336743	-0.266501	-0.842709	20.061473	-47.783630	-146.817599
07356		7.442492	1.886529	6.292859	-0.337811	0.237411	0.105944	0.018735	0.200787	0.029443	-0.794434	0.174316	-0.285889	0.074485	0.018870	0.062856	0.325157	-0.335967	-0.266195	-0.842935	20.004989	-47.689388	-146.727156
07357		7.212383	1.916622	6.531641	-0.101874	0.450023	0.093943	0.015998	0.149946	0.002145	-0.779541	0.184082	-0.280029	0.072173	0.019162	0.065264	0.325440	-0.335378	-0.266008	-0.843119	19.974359	-47.618007	-146.673234
07358		7.529799	1.778073	6.142385	-0.541832	0.154442	0.049912	0.015366	0.105359	-0.013488	-0.782715	0.192139	-0.283447	0.075332	0.017771	0.061386	0.325594	-0.334952	-0.265915	-0.843258	19.962152	-47.566685	-146.645165
07359		7.481357	1.776613	6.208006	-0.495914	0.212777	0.055199	0.019801	0.069088	-0.031106	-0.777100	0.184082	-0.288086	0.074838	0.017748	0.062056	0.325636	-0.334654	-0.265932	-0.843355	19.970725	-47.532332	-146.641351
07360		7.082911	1.844655	6.785609	-0.001384	0.701323	0.143366	0.036659	0.033961	-0.055230	-0.771484	0.174805	-0.279541	0.070846	0.018415	0.067847	0.325554	-0.334439	-0.266114	-0.843415	20.010568	-47.511284	-146.667282
07361		7.345494	1.933460	6.318980	-0.271898	0.239373	0.061159	0.046612	-0.010278	-0.062358	-0.774170	0.186523	-0.293213	0.073458	0.019297	0.063198	0.325404	-0.334390	-0.266425	-0.843394	20.069813	-47.513516	-146.711373
07362		7.394493	1.882573	6.386258	-0.312478	0.306617	0.127898	0.043357	-0.057084	-0.068028	-0.769531	0.192383	-0.280273	0.073933	0.018787	0.063888	0.325158	-0.334531	-0.266805	-0.843313	20.140559	-47.538899	-146.773996
07363		7.597106	2.075178	6.083842	-0.404758	-0.083168	0.130388	0.047998	-0.102368	-0.078448	-0.760986	0.189209	-0.281250	0.075948	0.020707	0.060882	0.324819	-0.334847	-0.267299	-0.843162	20.230022	-47.587400	-146.857936
07364		7.052237	2.305477	6.717138	0.319842	0.407944	0.182335	0.067352	-0.147637	-0.092601	-0.754395	0.189453	-0.294922	0.070483	0.022999	0.067231	0.324388	-0.335297	-0.267968	-0.842936	20.348952	-47.656430	-146.967079
07365		7.364943	2.380015	6.292960	0.035451	-0.018207	0.162611	0.084988	-0.200966	-0.091651	-0.754395	0.190186	-0.286865	0.073597	0.023740	0.063014	0.323923	-0.335950	-0.268799	-0.842591	20.489588	-47.754999	-147.091364
07366		7.532476	2.068133	6.152019	-0.334917	0.052896	0.124499	0.107606	-0.244281	-0.099742	-0.760254	0.188965	-0.289551	0.075260	0.020611	0.061623	0.323399	-0.336732	-0.269805	-0.842158	20.658203	-47.874066	-147.236100
07367		7.417383	2.300947	6.322042	-0.026358	0.089785	0.200868	0.130560	-0.302246	-0.116663	-0.761719	0.194824	-0.295654	0.074092	0.022925	0.063347	0.322767	-0.337703	-0.271033	-0.841617	20.864041	-48.021318	-147.412555
07368		7.416067	2.290766	6.268559	-0.043609	0.097272	0.163734	0.141971	-0.363501	-0.112843	-0.763672	0.191406	-0.291748	0.074059	0.022821	0.062836	0.322083	-0.338911	-0.272397	-0.840953	21.089477	-48.200793	-147.606497
07369		7.478179	2.384418	6.169140	-0.034465	-0.011220	0.170569	0.143732	-0.434371	-0.094224	-0.762939	0.185547	-0.292969	0.074659	0.023765	0.061871	0.321385	-0.340444	-0.273853	-0.840127	21.323117	-48.422346	-147.809071
07370		7.288647	2.032187	6.203567	-0.149459	0.351776	-0.035567	0.177726	-0.509903	-0.060798	-0.759521	0.186768	-0.291748	0.072734	0.020244	0.062239	0.320777	-0.342277	-0.275511	-0.839072	21.576295	-48.689723	-148.011355
07371		7.326483	2.818278	6.239328	0.441373	-0.086017	0.204630	0.328780	-0.607540	-0.003909	-0.769287	0.188477	-0.290283	0.073075	0.028078	0.062662	0.320532	-0.344358	-0.277863	-0.837537	21.908298	-49.021332	-148.202067
07372		6.506968	5.425503	6.450699	2.924244	-1.266476	0.347654	0.161050	-0.724979	0.189476	-0.764160	0.190186	-0.296143	0.064784	0.054264	0.064786	0.320637	-0.347459	-0.279360	-0.835717	22.057748	-49.455399	-148.277928
07373		7.442963	2.944875	6.276533	0.593030	-0.066812	0.341523	0.104091	-0.846544	0.344323	-0.769531	0.190430	-0.297607	0.074112	0.029544	0.063095	0.321117	-0.351373	-0.280544	-0.833496	22.110461	-49.988125	-148.268783
07374		7.227367	3.190767	6.385822	1.021978	-0.018329	0.294179	0.023261	-0.996198	0.446044	-0.761963	0.199707	-0.282715	0.071883	0.032061	0.064221	0.321658	-0.356169	-0.281442	-0.830945	22.090595	-50.621376	-148.226016
07375		7.175247	3.458869	6.256829	1.298209	-0.200532	0.230665	0.002912	-1.142488	0.532186	-0.781006	0.199219	-0.283936	0.071301	0.034778	0.062977	0.322305	-0.361720	-0.282330	-0.827990	22.040334	-51.351659	-148.159106
07376		7.554274	3.040208	5.944125	0.777576	-0.213961	0.236711	-0.056180	-1.293142	0.599913	-0.773193	0.206787	-0.280273	0.075065	0.030645	0.059919	0.322897	-0.368063	-0.283077	-0.824703	21.948830	-52.175631	-148.083956
07377		7.169138	2.896796	6.344703	1.178402	0.354332	0.113382	-0.120745	-1.471567	0.674879	-0.782227	0.213867	-0.267822	0.071124	0.029247	0.063954	0.323409	-0.375335	-0.283695	-0.821004	21.814179	-53.111186	-148.001499
07378		7.294454	2.790443	6.712475	1.353840	0.722600	0.370374	-0.172764	-1.731954	0.752008	-0.787354	0.219971	-0.258789	0.072254	0.028235	0.067728	0.323742	-0.383835	-0.284350	-0.816705	21.663232	-54.200758	-147.937351
07379		7.023234	3.062114	6.400136	1.735582	0.506843	0.005206	-0.211674	-2.017384	0.833934	-0.791016	0.227295	-0.241211	0.069454	0.030980	0.064672	0.323898	-0.393643	-0.285124	-0.811689	21.507201	-55.460325	-147.894760
07380		7.480545	2.821555	5.471688	1.119138	-0.041389	-0.189804	-0.259344	-2.337519	1.000889	-0.801270	0.238281	-0.236572	0.074017	0.028659	0.055548	0.324132	-0.405005	-0.285850	-0.805729	21.282511	-56.924722	-147.803539
07381		7.894716	2.083634	5.632324	0.680904	0.536802	0.068245	-0.265012	-2.589337	1.099887	-0.796387	0.248047	-0.211182	0.078093	0.021343	0.057310	0.324336	-0.417461	-0.286712	-0.798955	21.039460	-58.544647	-147.695603
07382		7.433304	1.884847	6.098441	1.213800	1.260345	-0.172743	-0.292872	-2.771274	1.187737	-0.805420	0.256592	-0.195801	0.073365	0.019376	0.061977	0.324499	-0.430721	-0.287508	-0.791529	20.744471	-60.278903	-147.548220
07383		7.787614	1.742986	5.516679	0.946584	0.965657	-0.206374	-0.371099	-3.072459	1.336445	-0.814941	0.266846	-0.169434	0.076898	0.018050	0.056320	0.324567	-0.445406	-0.288092	-0.783117	20.340800	-62.204842	-147.330282
07384		7.410138	2.432141	5.910593	2.128413	1.073177	-0.322290	-0.376455	-3.407169	1.477974	-0.810547	0.286133	-0.138916	0.072898	0.024976	0.060308	0.324591	-0.461467	-0.288788	-0.773492	19.867064	-64.337209	-147.041765
07385		7.710961	2.120814	6.343098	2.351675	1.688637	-0.025219	-0.403826	-3.829132	1.658802	-0.819580	0.287109	-0.121338	0.075697	0.021970	0.064845	0.324513	-0.479286	-0.289534	-0.762329	19.270001	-66.731403	-146.640090
07386		8.784027	2.256422	6.942564	2.831834	2.020789	1.065052	-0.347073	-4.051804	1.848341	-0.806885	0.306152	-0.092529	0.086196	0.023488	0.071143	0.324817	-0.497906	-0.290264	-0.749887	18.432370	-69.278562	-145.951689
07387		9.162962	1.990421	7.210595	3.096493	2.526759	1.319272	-0.199788	-3.836430	1.840414	-0.808105	0.326172	-0.049072	0.090036	0.020811	0.073823	0.325616	-0.515232	-0.291080	-0.737417	17.376396	-71.702862	-144.953096
07388		9.260442	1.068901	7.062356	2.708734	3.199052	1.104207	-0.201800	-4.399547	1.794591	-0.804932	0.345459	-0.030273	0.090920	0.011583	0.072625	0.325253	-0.534303	-0.292771	-0.723199	16.415695	-74.421468	-144.070269
07389		12.993528	0.100516	7.087519	1.698935	3.580003	4.446297	-0.009227	-5.213051	1.605601	-0.791992	0.354248	0.012207	0.128016	0.002041	0.074229	0.323317	-0.555375	-0.296795	-0.706355	16.209798	-77.554563	-143.863671
07390		20.438544	0.339180	5.321345	0.364808	1.796320	11.226585	0.642046	-6.356467	1.256235	-0.784668	0.364258	0.062988	0.202531	0.004483	0.059684	0.319965	-0.578408	-0.305666	-0.685299	18.719229	-81.253139	-146.041404
07391		20.016388	0.684340	6.048152	2.128303	3.204653	10.747369	1.552185	-7.119076	1.066876	-0.784912	0.376709	0.114014	0.197803	0.007397	0.067607	0.317045	-0.601608	-0.319052	-0.660119	28.719986	-85.254822	-155.210266
07392		17.925959	1.721005	7.176659	4.683538	4.661011	8.407479	2.519070	-7.186002	0.930268	-0.758789	0.385742	0.159668	0.176443	0.017076	0.078357	0.316024	-0.622423	-0.335692	-0.632478	90.367414	-88.210060	144.521591
07393		17.234646	3.357074	5.189323	5.698159	3.137528	7.297572	2.621862	-7.102316	1.245474	-0.742920	0.398193	0.204834	0.170139	0.033898	0.058405	0.315994	-0.642423	-0.351049	-0.603493	166.161832	-85.754199	70.165926
07394		19.860079	1.082696	5.679978	4.964449	6.053923	9.328199	2.786697	-7.098552	1.236459	-0.729004	0.412354	0.243896	0.196347	0.011188	0.063951	0.316003	-0.661180	-0.366405	-0.573350	179.082952	-81.787713	58.781840
07395		20.474850	3.515795	7.919899	9.018933	7.856874	8.922869	3.096173	-6.743682	1.155119	-0.709473	0.427246	0.289307	0.201709	0.035027	0.086579	0.316993	-0.677320	-0.381822	-0.543107	-175.986757	-77.900255	55.577519
07396		16.382581	4.989666	9.441278	11.096308	8.706230	3.728333	3.191940	-5.877043	1.364475	-0.683105	0.445068	0.321533	0.160604	0.049434	0.099956	0.320119	-0.690481	-0.394925	-0.514581	-172.355348	-74.464224	53.722359
07397		14.732574	4.438350	10.303202	11.045735	10.116457	1.070907	3.201426	-5.192462	1.673584	-0.657959	0.478760	0.345703	0.144204	0.043902	0.107509	0.325125	-0.701687	-0.405513	-0.487328	-168.986364	-71.367633	52.126980
07398		9.196228	6.268856	7.398778	10.513872	5.959718	-4.111629	3.140082	-4.603504	1.720659	-0.639648	0.491455	0.363770	0.089675	0.062273	0.077050	0.330873	-0.711041	-0.414402	-0.461752	-166.089636	-68.572138	50.959159
07399		9.218227	6.356739	14.146102	13.109732	12.112290	-7.194484	3.041202	-3.943604	1.459284	-0.616455	0.519043	0.372070	0.088900	0.062045	0.144187	0.336831	-0.717901	-0.422644	-0.438789	-163.801331	-66.167766	50.378623
07400		25.605327	11.048202	21.548646	23.895346	22.102194	3.695707	2.936831	-1.471440	0.957795	-0.610596	0.535156	0.371826	0.253928	0.108503	0.218963	0.346323	-0.718154	-0.428030	-0.425566	-161.502945	-65.191638	49.702718
07401		16.938066	20.403805	19.157919	29.095990	14.052168	-4.695307	1.724972	1.266022	0.249870	-0.615234	0.537109	0.364502	0.170343	0.202594	0.192254	0.355840	-0.712923	-0.428667	-0.425869	-159.673038	-65.824628	48.798510
07402		11.043623	18.329153	15.106500	24.319397	9.535745	-7.879957	-0.192995	2.916250	0.002462	-0.625732	0.538818	0.351318	0.112619	0.183438	0.149256	0.361377	-0.707038	-0.422980	-0.436569	-158.386268	-67.376318	47.275779
07403		5.663613	12.859428	10.988910	16.712082	6.229165	-10.076939	-1.556951	3.711670	-0.159831	-0.645020	0.528076	0.344971	0.058753	0.129393	0.107807	0.363444	-0.701192	-0.413474	-0.453075	-157.456214	-69.379725	45.343874
07404		-0.417854	7.476957	7.638289	9.340018	3.649445	-13.535071	-2.090087	3.826843	-0.393987	-0.666016	0.515381	0.327148	-0.002578	0.075569	0.075655	0.363058	-0.695392	-0.403036	-0.471360	-156.828692	-71.479775	43.406817
07405		-2.277432	3.485517	6.097886	4.923921	3.470407	-14.081703	-1.930875	3.566077	-0.771687	-0.676514	0.497314	0.319580	-0.021550	0.035529	0.061030	0.361769	-0.688733	-0.394699	-0.488858	-156.639725	-73.529456	42.071960
07406		-1.076287	1.745502	6.001978	3.734618	4.362098	-12.505070	-1.362779	3.249807	-1.293947	-0.693604	0.486816	0.299316	-0.009672	0.017929	0.060062	0.360276	-0.680634	-0.389846	-0.504935	-157.231232	-75.524708	41.875191
07407		2.543466	2.135651	7.183659	5.310504	5.820394	-9.071103	-0.811101	3.192689	-1.798169	-0.709961	0.470459	0.281250	0.026768	0.021410	0.071330	0.359262	-0.670366	-0.388166	-0.520450	-158.797778	-77.604653	43.027537
07408		7.042146	3.572312	8.907109	7.958444	7.275986	-4.773511	-0.584565	3.546519	-2.135660	-0.734863	0.446045	0.266602	0.072363	0.035215	0.087696	0.358566	-0.657951	-0.387318	-0.537136	-161.417062	-79.924189	45.355704
07409		11.002207	4.917271	10.030590	9.896754	7.940537	-0.604332	-0.763883	4.337829	-2.230011	-0.751709	0.437500	0.234131	0.112702	0.048302	0.097695	0.358478	-0.643116	-0.384759	-0.556646	-165.128347	-82.671991	48.683689
07410		12.146539	4.967648	9.603384	9.493025	7.226151	1.234073	-1.226435	5.340508	-2.098001	-0.776123	0.401123	0.198730	0.124482	0.048955	0.092435	0.358834	-0.626197	-0.378328	-0.579641	-171.281668	-85.909468	54.158791
07411		10.530586	3.113806	7.712026	6.525786	5.756449	0.398918	-1.605807	6.159587	-1.893427	-0.794434	0.386230	0.170410	0.107901	0.030725	0.073576	0.359898	-0.607270	-0.368383	-0.604971	136.154233	-89.287656	105.838320
07412		8.399423	0.590166	5.648171	2.984258	4.575459	-1.273287	-1.648985	6.552947	-1.765929	-0.814697	0.370850	0.117676	0.085833	0.005599	0.053642	0.361423	-0.586855	-0.356718	-0.630656	24.402850	-86.429811	-143.334983
07413		7.329883	-1.806887	4.376067	0.012356	4.238845	-2.187023	-1.297308	6.558597	-1.765679	-0.826660	0.347656	0.068604	0.074522	-0.018449	0.041449	0.363625	-0.565014	-0.345752	-0.654974	18.939742	-82.562939	-138.586950
07414		7.577060	-3.192571	4.038448	-1.704554	4.244432	-1.877295	-0.648826	6.386171	-1.878711	-0.832764	0.326904	0.025146	0.076707	-0.032517	0.038050	0.366504	-0.541779	-0.337110	-0.677132	17.743368	-78.758886	-137.752129
07415		9.305939	-3.004828	4.422435	-2.016528	3.855421	-0.003379	0.044960	6.168376	-1.961141	-0.834717	0.309082	-0.027344	0.094063	-0.030977	0.041326	0.370274	-0.517228	-0.331090	-0.696959	17.713573	-75.052264	-137.688533
07416		11.971574	-1.471081	4.772953	-1.584195	2.428986	2.828445	0.515835	6.059995	-1.921524	-0.822998	0.289551	-0.074707	0.120938	-0.015986	0.044037	0.374787	-0.491775	-0.326452	-0.714928	17.940040	-71.417646	-137.616603
07417		14.367270	-0.062043	4.875879	-1.555560	0.695140	5.261026	0.663588	6.034820	-1.766300	-0.824707	0.276367	-0.110107	0.145042	-0.002050	0.044390	0.379837	-0.465844	-0.321681	-0.731597	18.020041	-67.818658	-137.292389
07418		16.229795	0.858204	4.396969	-2.222160	-1.328680	6.820988	0.612408	6.063197	-1.639711	-0.812500	0.258789	-0.136719	0.163594	0.007120	0.039046	0.384863	-0.439698	-0.316051	-0.747434	17.954453	-64.232204	-136.836994
07419		17.433464	1.549271	3.693304	-3.060013	-3.355529	7.485842	0.448375	6.045651	-1.631064	-0.820801	0.240967	-0.167480	0.175463	0.013990	0.031672	0.389141	-0.413485	-0.309497	-0.762766	17.863289	-60.652079	-136.446611
07420		17.907237	1.636668	3.129459	-4.128878	-4.759574	7.314338	0.253026	5.905344	-1.779028	-0.822754	0.231445	-0.186768	0.180028	0.014733	0.026007	0.391869	-0.387586	-0.302493	-0.777634	17.884943	-57.126863	-136.302912
07421		18.881998	1.728508	2.950998	-5.266788	-6.029656	7.623451	0.041193	5.678740	-2.019182	-0.838623	0.216797	-0.224121	0.189718	0.015367	0.024134	0.392536	-0.362232	-0.295281	-0.792157	18.041091	-53.678484	-136.465826
07422		20.588365	1.560479	2.430551	-7.122665	-7.711958	8.128641	-0.164841	5.449184	-2.265069	-0.850830	0.191895	-0.250488	0.206603	0.013284	0.018671	0.391181	-0.337536	-0.287901	-0.806325	18.272043	-50.315227	-136.878988
07423		21.465936	0.722829	1.422341	-9.366087	-8.998470	7.348575	-0.359125	5.181218	-2.456375	-0.865479	0.171631	-0.287109	0.214999	0.004608	0.008646	0.387998	-0.313712	-0.280329	-0.820036	18.513648	-47.057986	-137.476230
07424		22.112323	-1.191525	-0.158177	-12.496190	-9.851111	5.584619	-0.456987	4.857945	-2.620813	-0.880127	0.141113	-0.336182	0.220817	-0.014822	-0.006917	0.383240	-0.290951	-0.273031	-0.833024	18.787806	-43.948407	-138.227866
07425		21.987583	-3.273589	-2.034189	-15.303044	-10.205063	2.831261	-0.399573	4.441959	-2.785678	-0.877686	0.108398	-0.373047	0.218868	-0.035836	-0.025141	0.377021	-0.269351	-0.266800	-0.845058	19.177814	-41.026903	-139.145671
07426		20.909953	-3.788213	-4.042305	-16.176107	-10.808324	-0.360745	-0.298178	3.913794	-2.868297	-0.876221	0.072266	-0.407715	0.207684	-0.040932	-0.044437	0.369656	-0.249534	-0.261945	-0.855846	19.669713	-38.373480	-140.183390
07427		20.566429	-3.509636	-5.829263	-16.633095	-11.909074	-2.691050	-0.326361	3.307687	-2.727419	-0.865479	0.031982	-0.439453	0.204159	-0.037986	-0.061617	0.361862	-0.232396	-0.257768	-0.865219	20.104768	-36.064832	-141.213264
07428		20.017264	-3.695558	-7.016903	-17.036838	-12.143766	-4.732366	-0.424941	2.681607	-2.380379	-0.862549	0.009277	-0.477539	0.198749	-0.039480	-0.072758	0.354515	-0.218521	-0.253802	-0.873013	20.383066	-34.159404	-142.120800
07429		19.774545	-4.264155	-7.861110	-17.721169	-12.030461	-6.318608	-0.424196	2.082796	-1.926907	-0.861328	-0.006592	-0.497314	0.196489	-0.044708	-0.080568	0.348288	-0.207761	-0.250331	-0.879127	20.543084	-32.661322	-142.854325
07430		19.397811	-4.989116	-8.581470	-18.295812	-11.661620	-7.797838	-0.266883	1.557603	-1.451785	-0.856934	-0.016602	-0.513916	0.192933	-0.051410	-0.087252	0.343608	-0.199612	-0.247940	-0.883524	20.677798	-31.541293	-143.396070
07431		18.874342	-5.340604	-9.097455	-18.372595	-11.367924	-8.954766	0.055185	1.132825	-0.970881	-0.860596	-0.022949	-0.532715	0.187962	-0.054294	-0.092056	0.340813	-0.193357	-0.247195	-0.886202	20.880736	-30.743901	-143.728766
07432		18.178016	-4.279847	-9.468481	-17.237915	-11.881940	-9.529366	0.438992	0.765709	-0.498403	-0.850830	-0.040527	-0.535645	0.181309	-0.043042	-0.095474	0.340020	-0.188660	-0.248315	-0.887205	21.192995	-30.240063	-143.849002
07433		16.728932	-3.160600	-9.306888	-15.389580	-11.815869	-9.910585	0.736717	0.424899	-0.055637	-0.850586	-0.045166	-0.540771	0.167082	-0.031309	-0.093540	0.341040	-0.185510	-0.250909	-0.886748	21.577139	-30.009420	-143.774613
07434		15.725643	-1.253339	-9.179219	-13.272361	-12.528424	-9.730076	1.030321	0.043551	0.074284	-0.849609	-0.052490	-0.543945	0.157241	-0.012002	-0.091889	0.342424	-0.183713	-0.255333	-0.885325	22.135939	-30.010331	-143.712124
07435		14.529023	1.467138	-8.990541	-10.435428	-13.594996	-9.220112	1.125099	-0.422947	0.052540	-0.860840	-0.055908	-0.528564	0.145476	0.015214	-0.089513	0.343194	-0.183787	-0.260985	-0.883361	22.814675	-30.254259	-143.780915
07436		13.951940	3.252766	-8.641808	-8.691811	-14.233119	-8.476466	1.051072	-0.931018	-0.183993	-0.868408	-0.060303	-0.515137	0.139949	0.032850	-0.085595	0.342172	-0.185914	-0.267390	-0.881395	23.594363	-30.711351	-144.131290
07437		13.676663	4.441098	-8.004324	-7.600239	-14.409436	-7.479866	0.854606	-1.426605	-0.546060	-0.873535	-0.067627	-0.500244	0.137453	0.044375	-0.078875	0.338690	-0.190070	-0.274098	-0.879791	24.452834	-31.339832	-144.846947
07438		13.275640	4.862562	-7.075744	-6.985645	-13.801993	-6.549332	0.555031	-1.898309	-0.863197	-0.873291	-0.081543	-0.476074	0.133628	0.048244	-0.069358	0.332847	-0.196350	-0.280560	-0.878604	25.328124	-32.126816	-145.906942
07439		12.795827	5.794530	-5.571849	-5.910061	-13.057404	-5.025373	0.188800	-2.352330	-1.007110	-0.895508	-0.095947	-0.437500	0.128891	0.057349	-0.054152	0.325333	-0.205013	-0.286277	-0.877595	26.140549	-33.100396	-147.212756
07440		-3.103464	24.969214	23.120672	23.702173	0.385237	14.797242	-1.648192	-2.867235	-0.039972	-0.899170	-0.078125	-0.419678	-0.034275	0.251590	0.228663	0.319366	-0.220253	-0.283710	-0.876928	25.687858	-34.576606	-148.096196
07441		1.478893	25.441537	22.283794	21.247158	-2.774966	16.394649	-2.056317	-1.626057	0.543047	-0.897217	-0.069580	-0.391602	0.012296	0.256725	0.220313	0.317198	-0.231487	-0.276676	-0.877069	24.587089	-35.561938	-148.229507
07442		-14.021454	-16.177275	-2.328118	-2.081799	14.952394	-25.168723	-1.600123	-2.703978	1.158164	-0.914307	-0.046143	-0.373047	-0.138954	-0.162769	-0.023866	0.316687	-0.247515	-0.272565	-0.874159	23.686887	-37.255516	-148.258052
07443		9.085272	-13.001250	14.369306	-11.056292	13.926714	2.095818	-1.075582	-4.149235	1.204495	-0.923828	-0.041260	-0.321533	0.088614	-0.128692	0.146242	0.314936	-0.268998	-0.272881	-0.868327	23.317918	-39.720003	-148.654259
07444		19.396644	-13.299648	14.800050	-17.312728	10.625526	9.147073	-0.133518	-3.184155	1.205817	-0.937256	-0.030518	-0.298096	0.192373	-0.131733	0.151160	0.315648	-0.284700	-0.275648	-0.862166	23.312091	-41.677216	-148.763060
07445		16.717194	-5.785631	9.118166	-11.667726	3.318127	5.964415	0.367919	-2.279093	1.575303	-0.943115	-0.019043	-0.264404	0.166569	-0.056713	0.092977	0.319839	-0.296156	-0.278558	-0.855803	23.231470	-43.242778	-148.331305
07446		13.120838	3.836740	5.870798	-3.308769	-3.474164	4.269669	0.550092	-2.188723	1.424637	-0.947266	0.001221	-0.242188	0.130278	0.039133	0.060244	0.323718	-0.306662	-0.282271	-0.849405	23.295718	-44.725616	-147.970374
07447		23.028216	8.846294	10.144367	-3.792532	-7.241955	15.576390	0.365799	-1.863353	1.168672	-0.948730	0.002441	-0.218262	0.228801	0.089614	0.103743	0.326640	-0.315685	-0.285026	-0.844044	23.304689	-45.980672	-147.688454
07448		18.521807	11.273513	6.843475	-0.178089	-9.203958	10.977592	-0.102050	-0.459132	0.571562	-0.947998	0.020264	-0.218262	0.184737	0.113299	0.068801	0.328279	-0.318664	-0.284433	-0.842487	23.034794	-46.359714	-147.395764
07449		10.726467	2.217317	5.840342	-2.529680	-1.337277	2.266020	-0.358271	-0.523262	0.161615	-0.945801	0.031250	-0.212646	0.107093	0.022365	0.058644	0.327691	-0.321757	-0.283520	-0.841848	22.857399	-46.681776	-147.433827
07450		9.719749	-2.530382	8.604587	-4.399867	3.916529	2.028646	-0.120291	-0.189064	0.097356	-0.932617	0.039795	-0.211670	0.097128	-0.025205	0.086153	0.327683	-0.322950	-0.283159	-0.841516	22.772689	-46.811571	-147.412529
07451		8.426466	1.043106	7.247991	-1.497353	1.238473	1.180532	0.079464	-0.118423	-0.037907	-0.932861	0.043945	-0.193115	0.084224	0.010386	0.072534	0.327533	-0.323337	-0.283744	-0.841228	22.861913	-46.875660	-147.472206
07452		9.902747	2.738126	5.657792	-1.677094	-1.440565	1.706185	0.108312	-0.057326	-0.166870	-0.921875	0.057373	-0.195557	0.099034	0.027268	0.056621	0.326968	-0.323226	-0.284555	-0.841216	23.025864	-46.876962	-147.612186
07453		7.898384	3.679569	5.312812	0.031146	-1.512201	0.279976	0.153989	-0.026444	-0.258420	-0.922852	0.057617	-0.194580	0.079024	0.036653	0.053167	0.326141	-0.322792	-0.285659	-0.841330	23.260029	-46.842771	-147.811981
07454		7.526489	3.664579	5.784386	0.384580	-1.023416	0.303684	0.130640	-0.006881	-0.200777	-0.902588	0.063232	-0.196289	0.075300	0.036532	0.057870	0.325541	-0.322383	-0.286535	-0.841421	23.443400	-46.809157	-147.961164
07455		7.787694	2.873316	5.543020	-0.449679	-0.778596	0.128175	0.132339	0.048088	-0.169160	-0.898682	0.077637	-0.182861	0.077915	0.028631	0.055430	0.325160	-0.321797	-0.287283	-0.841538	23.596556	-46.755353	-148.066993
07456		7.342926	3.138537	5.933694	0.125489	-0.505385	0.122428	0.085803	0.083777	-0.118094	-0.880371	0.079346	-0.182373	0.073473	0.031317	0.059320	0.324966	-0.321198	-0.287689	-0.841703	23.685454	-46.692637	-148.121952
07457		7.149187	2.761738	6.116388	0.012356	-0.072024	-0.007438	0.088758	0.121983	-0.095427	-0.872803	0.093994	-0.190674	0.071542	0.027556	0.061132	0.324931	-0.320477	-0.288014	-0.841880	23.754103	-46.616843	-148.146099
07458		7.288866	2.366883	7.032307	-0.050895	0.759976	0.560493	0.081126	0.080292	-0.126790	-0.863281	0.089844	-0.194824	0.072932	0.023594	0.070303	0.324686	-0.319887	-0.288420	-0.842060	23.845613	-46.553840	-148.208469
07459		7.084656	2.153838	6.299173	-0.361071	0.464284	-0.108823	0.108910	0.057130	-0.167683	-0.855225	0.101074	-0.197998	0.070883	0.021445	0.062983	0.324286	-0.319303	-0.289051	-0.842220	23.981237	-46.495181	-148.309071
07460		7.295656	1.911542	6.780048	-0.508199	0.883554	0.277440	0.090710	-0.021672	-0.185202	-0.841064	0.107666	-0.203125	0.072967	0.019017	0.067817	0.323663	-0.319042	-0.289755	-0.842316	24.135046	-46.471687	-148.449883
07461		8.036668	3.026185	5.517529	-0.582876	-0.939439	0.334560	0.085355	-0.050812	-0.176968	-0.833984	0.101807	-0.204834	0.080379	0.030167	0.055209	0.323029	-0.318936	-0.290476	-0.842352	24.288468	-46.466903	-148.593781
07462		7.694626	2.757621	5.970302	-0.429630	-0.315936	0.295320	0.101927	-0.110517	-0.196628	-0.819580	0.105713	-0.208008	0.076940	0.027470	0.059760	0.322246	-0.319014	-0.291388	-0.842307	24.476944	-46.486522	-148.773554
07463		7.611218	3.619514	5.463841	0.062653	-1.153497	0.164815	0.106858	-0.128062	-0.174658	-0.810547	0.103516	-0.207764	0.076109	0.036099	0.054706	0.321543	-0.319202	-0.292320	-0.842181	24.660930	-46.521967	-148.942483
07464		7.998132	3.196843	5.234869	-0.558187	-1.166266	0.183411	0.116011	-0.130311	-0.115856	-0.793945	0.116455	-0.209229	0.079966	0.031892	0.052419	0.321093	-0.319457	-0.293194	-0.841952	24.818565	-46.570483	-149.068449
07465		7.110891	3.506323	6.259197	0.547739	-0.308973	0.269034	0.103734	-0.141292	-0.086282	-0.790283	0.108398	-0.222168	0.071080	0.035000	0.062660	0.320737	-0.319835	-0.293992	-0.841666	24.956245	-46.633512	-149.175770
07466		7.397727	3.149491	6.118178	0.071247	-0.267023	0.286884	0.099692	-0.154787	-0.070120	-0.782471	0.107422	-0.231201	0.073941	0.031438	0.061255	0.320418	-0.320286	-0.294763	-0.841347	25.086293	-46.705393	-149.276407
07467		7.350434	2.609878	6.194147	-0.262860	0.159600	0.142873	0.095407	-0.199182	-0.079153	-0.775635	0.115234	-0.234619	0.073453	0.026040	0.062027	0.319992	-0.320930	-0.295607	-0.840967	25.231022	-46.799836	-149.399660
07468		7.350990	2.433146	6.531961	-0.269079	0.531191	0.300133	0.115796	-0.211515	-0.105217	-0.771973	0.104736	-0.234375	0.073454	0.024255	0.065411	0.319466	-0.321541	-0.296593	-0.840586	25.405360	-46.892139	-149.548071
07469		7.516968	3.131177	5.896536	-0.078585	-0.379916	0.233588	0.106224	-0.211256	-0.117564	-0.760010	0.105713	-0.255615	0.075126	0.031236	0.059061	0.318878	-0.322161	-0.297562	-0.840230	25.581879	-46.982869	-149.705996
07470		7.678542	3.124476	5.766738	-0.221698	-0.498077	0.270980	0.100021	-0.188330	-0.100255	-0.757813	0.102539	-0.260498	0.076747	0.031177	0.057755	0.318380	-0.322706	-0.298435	-0.839900	25.739518	-47.063822	-149.843507
07471		7.663719	3.084483	5.512077	-0.328826	-0.626955	0.093290	0.081918	-0.150716	-0.075839	-0.764160	0.095947	-0.268311	0.076607	0.030793	0.055191	0.318018	-0.323171	-0.299138	-0.839608	25.863905	-47.133173	-149.948832
07472		8.073949	3.174511	5.052551	-0.663486	-1.132142	0.140828	0.063323	-0.106432	-0.026851	-0.763916	0.102295	-0.277344	0.080717	0.031718	0.050579	0.317891	-0.323540	-0.299608	-0.839346	25.938466	-47.189893	-150.001412
07473		7.524968	3.228804	6.323536	0.151538	-0.068551	0.531865	0.040822	-0.056036	-0.001541	-0.755859	0.105957	-0.281738	0.075232	0.032275	0.063263	0.317915	-0.323785	-0.299868	-0.839150	25.972850	-47.228957	-150.015943
07474		7.629549	3.764670	5.519084	0.200597	-1.002509	0.276801	0.010639	-0.001080	0.045756	-0.758301	0.093018	-0.293701	0.076287	0.037661	0.055193	0.318166	-0.323904	-0.299831	-0.839022	25.948372	-47.249580	-149.974677
07475		7.313179	3.119298	5.873185	0.046659	-0.248163	0.068768	-0.005509	0.041265	0.074432	-0.753662	0.097900	-0.307617	0.073132	0.031222	0.058716	0.318579	-0.323928	-0.299619	-0.838932	25.887517	-47.257552	-149.895623
07476		6.939045	3.047552	6.428839	0.414930	0.309461	0.112026	-0.036604	0.072678	0.100149	-0.758057	0.099609	-0.315186	0.069399	0.030522	0.064258	0.319092	-0.323895	-0.299178	-0.838907	25.785627	-47.253659	-149.785816
07477		7.712744	3.266856	5.460195	-0.214106	-0.789130	0.152448	-0.047572	0.103924	0.132840	-0.756592	0.099609	-0.318604	0.077134	0.032733	0.054554	0.319776	-0.323810	-0.298595	-0.838887	25.651187	-47.243624	-149.639374
07478		7.535603	2.969743	5.893236	-0.166943	-0.255822	0.199384	-0.083816	0.127313	0.164382	-0.763428	0.095215	-0.326172	0.075369	0.029784	0.058872	0.320562	-0.323718	-0.297765	-0.838917	25.471824	-47.227015	-149.460849
07479		7.599045	3.143217	5.601454	-0.170493	-0.612172	0.116950	-0.094388	0.143919	0.192378	-0.773682	0.099121	-0.327637	0.076000	0.031532	0.055945	0.321479	-0.323629	-0.296824	-0.838934	25.266846	-47.210319	-149.254760
07480		7.509664	2.777646	5.777666	-0.313766	-0.254110	0.052845	-0.090481	0.152973	0.201387	-0.777588	0.099121	-0.329590	0.075113	0.027878	0.057707	0.322447	-0.323494	-0.295864	-0.838954	25.056482	-47.188572	-149.039086
07481		7.566081	2.775924	5.967221	-0.270366	-0.163730	0.210241	-0.104417	0.163902	0.227363	-0.782227	0.099365	-0.343750	0.075678	0.027876	0.059596	0.323522	-0.323388	-0.294792	-0.838959	24.821298	-47.168931	-148.799511
07482		7.395752	2.570126	6.175806	-0.237031	0.142654	0.155596	-0.114532	0.176487	0.251965	-0.784912	0.101807	-0.349854	0.073979	0.025830	0.061678	0.324697	-0.323266	-0.293609	-0.838966	24.563125	-47.145849	-148.537279
07483		7.093071	2.656422	6.182218	0.016365	0.172115	-0.037306	-0.128016	0.202359	0.259618	-0.785645	0.103027	-0.345215	0.070959	0.026696	0.061733	0.325924	-0.323083	-0.292321	-0.839011	24.286964	-47.112353	-148.260074
07484		7.285270	2.911969	5.985457	0.038325	-0.226373	0.052786	-0.165095	0.231256	0.341253	-0.795654	0.110352	-0.356201	0.072872	0.029293	0.059746	0.327470	-0.322943	-0.290692	-0.839029	23.936459	-47.079723	-147.911080
07485		7.543158	3.673050	5.459792	0.288103	-1.201020	0.120798	-0.258408	0.296308	0.456166	-0.798096	0.107422	-0.359863	0.075428	0.036973	0.054438	0.329444	-0.322861	-0.288383	-0.839084	23.452487	-47.039805	-147.451773
07486		7.110296	3.873266	5.639159	0.777211	-1.096440	-0.037618	-0.325194	0.336922	0.543468	-0.806152	0.114746	-0.353027	0.071092	0.039017	0.056209	0.331727	-0.322827	-0.285576	-0.839158	22.871728	-46.993151	-146.912974
07487		7.368805	3.165288	5.727660	0.170903	-0.755717	0.011958	-0.372248	0.311432	0.579876	-0.811035	0.123779	-0.353760	0.073685	0.031973	0.057103	0.334049	-0.323040	-0.282558	-0.839176	22.250782	-46.966287	-146.354953
07488		7.310908	2.737064	5.881905	-0.020781	-0.423093	-0.047552	-0.399976	0.216561	0.554212	-0.809814	0.118164	-0.361328	0.073096	0.027691	0.058685	0.336076	-0.323643	-0.279613	-0.839122	21.650431	-46.978141	-145.847577
07489		6.958549	1.603225	7.282947	-0.127402	1.324820	0.299749	-0.362871	0.083895	0.452426	-0.817139	0.133301	-0.357178	0.069579	0.016322	0.072771	0.337545	-0.324611	-0.277215	-0.838954	21.159372	-47.038485	-145.460703
07490		7.378503	0.694463	7.016617	-1.097049	1.508166	0.221218	-0.298038	-0.037341	0.323717	-0.822754	0.119873	-0.357178	0.073760	0.007169	0.070169	0.338410	-0.325780	-0.275493	-0.838719	20.804447	-47.133026	-145.209621
07491		7.042436	0.342325	7.328386	-1.023753	2.054746	0.094289	-0.217450	-0.169711	0.179984	-0.822998	0.143311	-0.347412	0.070359	0.003566	0.073340	0.338612	-0.327189	-0.274572	-0.838391	20.607328	-47.270987	-145.111762
07492		7.298952	0.600323	6.903242	-1.095913	1.510390	0.077077	-0.122874	-0.297879	0.050326	-0.819580	0.134277	-0.334961	0.072885	0.006064	0.069137	0.338257	-0.328776	-0.274470	-0.837947	20.566535	-47.449011	-145.152386
07493		7.738702	0.828622	6.456572	-1.305357	0.918986	0.172943	-0.027956	-0.408564	-0.081670	-0.822021	0.138672	-0.327881	0.077258	0.008264	0.064722	0.337339	-0.330505	-0.275173	-0.837406	20.682986	-47.662212	-145.333443
07494		7.537531	1.328060	6.292609	-0.859242	0.615906	0.039073	0.059541	-0.520831	-0.182329	-0.825928	0.138184	-0.328125	0.075223	0.013193	0.063126	0.336000	-0.332395	-0.276592	-0.836728	20.935306	-47.912183	-145.628428
07495		7.703508	2.050243	5.963957	-0.514151	-0.064431	0.129519	0.122516	-0.619036	-0.236531	-0.827637	0.131104	-0.305176	0.076874	0.020375	0.059890	0.334384	-0.334535	-0.278530	-0.835880	21.282830	-48.204983	-146.003223
07496		7.566270	2.152060	6.171964	-0.265246	0.133855	0.181522	0.183561	-0.687336	-0.252775	-0.834229	0.131836	-0.299072	0.075477	0.021368	0.061999	0.332718	-0.336808	-0.280858	-0.834852	21.695582	-48.526568	-146.415121
07497		7.260027	2.089281	6.082443	-0.156172	0.299123	-0.119660	0.315796	-0.752014	-0.236208	-0.830322	0.124268	-0.288330	0.072395	0.020711	0.061130	0.331221	-0.339177	-0.283814	-0.833487	22.197757	-48.886640	-146.845865
07498		7.078893	4.518475	5.894560	1.706734	-1.190157	0.234358	0.317809	-0.812534	-0.138703	-0.835205	0.120850	-0.274658	0.070580	0.045042	0.059304	0.330069	-0.341899	-0.286707	-0.831841	22.663308	-49.294930	-147.221298
07499		7.134137	3.283890	6.242723	0.929600	-0.123694	0.175873	0.192400	-0.867964	0.035888	-0.843506	0.121094	-0.270020	0.071064	0.032791	0.062768	0.329309	-0.345332	-0.288866	-0.829975	22.972692	-49.772425	-147.486749
07500		7.377509	3.902764	5.770685	1.134706	-0.850045	0.234658	0.173733	-0.917836	0.143648	-0.832520	0.124512	-0.257568	0.073481	0.039030	0.058078	0.328919	-0.349120	-0.290837	-0.827854	23.221650	-50.296787	-147.682058
07501		7.335712	3.634441	5.917857	1.082919	-0.492535	0.218596	0.163913	-0.991664	0.256860	-0.834717	0.126221	-0.250732	0.073016	0.036390	0.059571	0.328829	-0.353417	-0.292683	-0.825412	23.420170	-50.887966	-147.821223
07502		7.399225	3.573807	5.797771	1.040836	-0.487331	0.177946	0.132322	-1.119874	0.376584	-0.828613	0.127930	-0.232910	0.073599	0.035838	0.058414	0.329015	-0.358428	-0.294389	-0.822566	23.561439	-51.570818	-147.905527
07503		7.667472	3.837184	5.547346	1.103247	-0.836031	0.305088	0.090740	-1.301615	0.504580	-0.829834	0.127930	-0.223389	0.076214	0.038539	0.055988	0.329337	-0.364457	-0.295980	-0.819209	23.651718	-52.381074	-147.957753
07504		7.060763	4.131771	6.558030	2.175146	0.002825	0.444016	0.038712	-1.506720	0.638930	-0.824707	0.141846	-0.209473	0.069978	0.041529	0.066117	0.329826	-0.371560	-0.297434	-0.815286	23.681793	-53.327104	-147.968005
07505		7.304800	4.604093	5.825266	2.266585	-0.798524	0.322063	-0.024989	-1.757169	0.820698	-0.822266	0.152832	-0.199951	0.072343	0.046346	0.058885	0.330541	-0.380043	-0.298686	-0.810615	23.623949	-54.448448	-147.913675
07506		6.959757	3.819049	6.119724	2.142924	0.102754	-0.021492	-0.069592	-2.034124	0.956977	-0.815674	0.160645	-0.181641	0.068787	0.038542	0.061886	0.331270	-0.389868	-0.299916	-0.805179	23.524305	-55.744327	-147.841139
07507		6.607992	2.621479	7.011629	1.977783	1.704500	-0.175344	-0.098112	-2.308239	1.041828	-0.819092	0.171387	-0.156982	0.065127	0.026590	0.070859	0.331828	-0.400928	-0.301284	-0.798983	23.429572	-57.205563	-147.794443
07508		7.503965	1.548148	6.290535	0.649704	1.684487	-0.065351	-0.096666	-2.684463	1.121659	-0.820068	0.180664	-0.136475	0.074098	0.015930	0.063897	0.332076	-0.413521	-0.303057	-0.791759	23.400163	-58.880750	-147.825388
07509		6.794129	1.205288	7.272792	1.398165	2.987423	-0.346038	-0.084716	-3.156365	1.207813	-0.808838	0.183838	-0.111572	0.066708	0.012489	0.073782	0.331894	-0.428000	-0.305413	-0.783189	23.488880	-60.825530	-147.983677
07510		7.198989	1.217360	6.851833	1.335979	2.745564	-0.277514	-0.113209	-3.660736	1.311746	-0.804199	0.199219	-0.092285	0.070638	0.012679	0.069812	0.331174	-0.444504	-0.308164	-0.773159	23.697027	-63.056864	-148.293314
07511		7.184530	1.962984	7.547585	2.605836	3.071414	-0.004835	-0.122014	-4.239613	1.482440	-0.804932	0.217285	-0.053955	0.070076	0.020200	0.076962	0.330057	-0.463337	-0.311328	-0.761220	24.046512	-65.632110	-148.758174
07512		8.583473	3.218664	7.614398	3.558300	2.363582	1.311017	-0.066615	-4.735835	1.730654	-0.794678	0.228516	-0.038574	0.083717	0.032943	0.078132	0.329049	-0.484076	-0.314763	-0.747209	24.496410	-68.521784	-149.288227
07513		11.348843	4.232131	8.088871	4.277031	1.975914	3.967450	0.068334	-4.785954	2.015614	-0.782715	0.244385	0.007080	0.111076	0.043421	0.083581	0.329139	-0.504919	-0.317892	-0.731894	24.779313	-71.505759	-149.547292
07514		12.511223	3.788702	8.434142	4.424093	2.735217	4.846974	0.145076	-5.040609	2.082567	-0.778076	0.257080	0.039063	0.122531	0.039109	0.087480	0.329025	-0.526304	-0.321320	-0.715192	25.311535	-74.635937	-150.016826
07515		20.948114	2.495050	7.019030	1.553512	1.855699	12.284879	0.484532	-5.805864	2.038014	-0.774170	0.276855	0.073242	0.207058	0.026889	0.076289	0.328137	-0.549353	-0.327068	-0.695387	27.342152	-78.145592	-151.819383
07516		22.438391	2.959894	6.244632	2.350476	1.753152	13.477579	1.376624	-6.328435	1.801663	-0.765869	0.290283	0.120605	0.221979	0.031143	0.069707	0.327678	-0.571786	-0.337078	-0.672358	33.455303	-81.808329	-157.223420
07517		19.821363	2.959988	6.923347	4.090555	3.478909	10.695520	2.113643	-6.149890	1.694003	-0.743164	0.317383	0.153076	0.195698	0.030488	0.075597	0.328895	-0.591589	-0.349201	-0.648004	48.475990	-85.140218	-171.115934
07518		17.330420	4.240058	5.369821	5.391124	2.411618	7.855317	2.173825	-5.822461	1.937620	-0.740723	0.348633	0.180420	0.171217	0.043443	0.059172	0.331288	-0.610002	-0.359874	-0.623408	94.138486	-87.441463	144.391145
07519		18.559219	2.109101	6.824450	5.050491	5.592458	8.587676	2.415342	-5.389615	1.997335	-0.724121	0.360107	0.212158	0.183442	0.022064	0.073470	0.335045	-0.626155	-0.370035	-0.598957	157.779431	-86.408399	82.063443
07520		16.559399	4.880507	8.481136	8.903089	6.248861	6.047762	2.619632	-4.844971	2.132257	-0.718018	0.388184	0.236816	0.162940	0.049401	0.089425	0.340542	-0.640001	-0.379129	-0.575057	179.921023	-83.875987	61.355011
07521		17.807974	7.225335	9.541278	12.073906	6.848649	6.545322	2.520037	-4.120715	2.247156	-0.701904	0.411621	0.255615	0.175234	0.072993	0.099960	0.347154	-0.651646	-0.386036	-0.553008	-170.188131	-81.400923	52.840165
07522		8.492329	10.655207	15.948635	17.425732	10.353722	-4.419140	2.341325	-3.066107	1.979670	-0.697510	0.420898	0.279053	0.081405	0.105483	0.161991	0.354274	-0.659781	-0.391261	-0.534878	-164.528939	-79.429867	48.461906
07523		12.845162	9.194783	26.758646	21.083129	21.655507	-2.597575	2.592518	-1.139736	1.364662	-0.693359	0.456055	0.270508	0.126304	0.089329	0.269480	0.364217	-0.660876	-0.395632	-0.523511	-160.199789	-78.563211	45.564579
07524		4.279747	18.821572	20.722146	25.856080	11.506737	-10.813243	2.326580	0.335617	0.823571	-0.699463	0.466309	0.266113	0.042379	0.185964	0.209322	0.374711	-0.657393	-0.398330	-0.518421	-156.322320	-78.558832	42.968321
07525		1.290236	22.655328	18.401894	27.868975	7.885646	-13.645002	1.042100	1.001130	0.258322	-0.711914	0.476074	0.259521	0.013535	0.225608	0.185129	0.380830	-0.653365	-0.398285	-0.519088	-153.801600	-79.011358	41.011030
07526		2.435056	20.852310	17.394749	25.998469	7.922629	-11.963127	-0.371682	1.680136	-0.369837	-0.710449	0.470703	0.254639	0.026194	0.208798	0.173345	0.382002	-0.649005	-0.395286	-0.525943	-152.674062	-79.957711	39.647399
07527		1.225886	15.866497	16.432992	21.017339	8.729385	-12.120235	-1.269487	2.366350	-1.250387	-0.739502	0.461426	0.239502	0.015190	0.159614	0.163151	0.379277	-0.642673	-0.391439	-0.538419	-153.527849	-81.487320	39.780383
07528		-0.174883	10.787125	14.916086	15.814847	9.073188	-12.343923	-1.536277	2.876091	-2.141145	-0.747803	0.439209	0.218994	0.001551	0.109008	0.148320	0.374151	-0.633588	-0.388629	-0.554568	-157.682659	-83.487110	43.082434
07529		-0.673367	7.275060	13.742694	12.309237	9.287589	-11.916553	-1.453470	3.171201	-2.802697	-0.766846	0.413330	0.199707	-0.003530	0.073812	0.136966	0.367927	-0.621889	-0.387463	-0.572499	-169.269800	-85.695263	53.892395
07530		0.305926	5.216027	13.080980	10.374636	9.516478	-10.240157	-1.313145	3.379479	-3.161037	-0.789795	0.386230	0.185303	0.006098	0.052937	0.130378	0.361257	-0.608386	-0.387179	-0.591145	155.591209	-87.477215	88.332195
07531		2.424767	3.510213	12.805575	8.784379	9.992678	-7.546578	-1.218626	3.610378	-3.267050	-0.804688	0.359131	0.161865	0.027128	0.035452	0.127368	0.354856	-0.593379	-0.386880	-0.610166	93.981543	-87.069853	149.308909
07532		4.911447	2.422769	12.655717	7.565164	10.252993	-4.542780	-1.197685	3.941335	-3.193482	-0.829834	0.326660	0.135986	0.051980	0.024166	0.125407	0.349087	-0.577161	-0.385552	-0.629581	66.156475	-84.824084	176.507820
07533		7.565251	1.499051	12.545501	6.240697	10.359389	-1.412298	-1.242919	4.377499	-2.981146	-0.833008	0.305908	0.095459	0.078592	0.014606	0.123665	0.344495	-0.559580	-0.382451	-0.649557	53.887087	-82.080803	-171.857614
07534		9.331060	0.181416	12.055918	4.280272	10.184966	0.691856	-1.267425	4.853109	-2.688325	-0.842041	0.276367	0.052246	0.096218	0.001288	0.118238	0.341385	-0.540697	-0.377321	-0.669875	46.243191	-79.119113	-164.848779
07535		10.378699	-1.440934	11.161555	1.838543	9.725195	1.864816	-1.155536	5.274133	-2.397386	-0.850586	0.252441	0.017334	0.106505	-0.015041	0.108916	0.340143	-0.520211	-0.370764	-0.690085	40.647455	-75.978589	-159.789059
07536		10.999759	-2.865211	9.921440	-0.589619	8.841987	2.396327	-0.857741	5.564172	-2.131042	-0.843018	0.232910	-0.031982	0.112392	-0.029424	0.096235	0.340749	-0.498350	-0.363697	-0.709410	36.458799	-72.732120	-155.951690
07537		11.749479	-3.416959	8.665025	-2.387289	7.450132	2.976026	-0.428073	5.686609	-1.900989	-0.834961	0.216309	-0.071777	0.119565	-0.035119	0.083344	0.343224	-0.475201	-0.357047	-0.727254	33.354224	-69.435664	-152.923896
07538		13.069180	-2.412142	7.804556	-2.950134	5.448087	4.297052	-0.024585	5.675190	-1.713650	-0.820068	0.196533	-0.105469	0.132623	-0.025243	0.074303	0.346948	-0.451405	-0.351117	-0.743356	31.114729	-66.169856	-150.521684
07539		15.142090	-0.441679	6.984342	-3.063962	2.715424	6.355765	0.168221	5.648088	-1.574062	-0.818604	0.196045	-0.134277	0.153271	-0.005675	0.065528	0.351262	-0.427180	-0.345308	-0.758218	29.409176	-62.920894	-148.529979
07540		16.748496	1.608994	6.077061	-3.071359	-0.166999	7.807787	0.081477	5.600025	-1.471013	-0.807617	0.175293	-0.154785	0.169211	0.014826	0.056055	0.355416	-0.403155	-0.338766	-0.772258	27.982694	-59.710187	-146.851714
07541		18.894859	2.707550	5.274431	-4.114131	-2.742704	9.360533	-0.217596	5.489325	-1.435342	-0.820068	0.166260	-0.166748	0.190488	0.025766	0.047501	0.358611	-0.379768	-0.330893	-0.785929	26.700063	-56.539403	-145.491896
07542		21.111667	2.350209	4.451297	-6.463874	-4.710145	10.360332	-0.539635	5.338897	-1.551388	-0.820313	0.166260	-0.192139	0.212378	0.021968	0.038794	0.360221	-0.357107	-0.322007	-0.799391	25.598559	-53.410299	-144.525159
07543		23.970312	1.757259	2.992686	-9.621387	-7.326211	11.168931	-0.780941	5.179128	-1.750637	-0.847412	0.129150	-0.214111	0.240512	0.015570	0.023642	0.360054	-0.334875	-0.312530	-0.812739	24.693880	-50.298945	-143.947185
07544		27.090832	1.104262	0.465703	-13.389020	-10.822801	11.134154	-0.988043	5.070290	-1.848632	-0.863037	0.109619	-0.253906	0.270996	0.008538	-0.002259	0.358716	-0.313101	-0.302359	-0.825754	23.860515	-47.223746	-143.592450
07545		28.975416	0.651228	-3.038357	-16.622222	-14.587612	9.159190	-1.168131	5.001376	-1.696160	-0.871582	0.091797	-0.290771	0.288913	0.003854	-0.037644	0.357342	-0.291889	-0.291085	-0.838079	22.932484	-44.209679	-143.234207
07546		28.554785	-0.059140	-7.041882	-18.688779	-17.390623	4.784405	-1.311991	4.866028	-1.280899	-0.887695	0.066895	-0.343994	0.283709	-0.002905	-0.077323	0.357065	-0.271945	-0.278661	-0.849057	21.821158	-41.360467	-142.705586
07547		25.809311	-1.812206	-10.297749	-19.622826	-17.704788	-1.049379	-1.286894	4.519644	-0.813093	-0.878662	0.059814	-0.389160	0.255602	-0.019852	-0.108649	0.358092	-0.253873	-0.266137	-0.858190	20.654551	-38.781056	-142.041386
07548		21.709205	-4.370832	-12.206745	-19.641321	-15.636511	-6.806651	-0.911267	3.912354	-0.562090	-0.883301	0.053223	-0.424805	0.214527	-0.044882	-0.126078	0.359703	-0.237980	-0.255879	-0.865162	19.763151	-36.574240	-141.437886
07549		17.647804	-5.803392	-12.986990	-18.329403	-13.276957	-11.037814	-0.244490	3.089741	-0.575656	-0.876465	0.044922	-0.457031	0.174276	-0.058699	-0.132502	0.360869	-0.224326	-0.249906	-0.870057	19.415379	-34.800329	-141.083637
07550		15.404910	-4.893652	-12.825640	-16.111472	-12.602465	-12.521164	0.400183	2.170471	-0.643280	-0.872314	0.042969	-0.469238	0.152487	-0.049170	-0.130015	0.361255	-0.213404	-0.248436	-0.873059	19.594562	-33.513048	-140.994874
07551		15.277019	-3.089946	-12.277832	-14.506432	-13.354514	-12.024825	0.728894	1.339865	-0.547105	-0.864502	0.018066	-0.489990	0.151858	-0.030865	-0.123910	0.361340	-0.205599	-0.249766	-0.874517	20.030647	-32.690449	-141.030105
07552		15.918108	-2.165729	-11.804511	-14.090700	-14.029986	-11.238446	0.780142	0.649875	-0.353488	-0.876465	0.011230	-0.494385	0.158758	-0.021476	-0.118645	0.361451	-0.200965	-0.252365	-0.874802	20.512657	-32.279067	-141.095820
07553		16.713242	-1.445717	-11.239479	-13.941109	-14.602267	-10.221930	0.709750	0.078902	-0.225613	-0.867432	0.000977	-0.493896	0.167072	-0.014247	-0.112512	0.361321	-0.199106	-0.255550	-0.874356	20.981610	-32.198250	-141.213522
07554		17.457480	-0.558677	-10.199753	-13.589700	-14.939601	-8.699780	0.555990	-0.374988	-0.165084	-0.878174	0.000488	-0.493896	0.174761	-0.005448	-0.101685	0.360719	-0.199591	-0.258823	-0.873531	21.401264	-32.372547	-141.403301
07555		17.322069	0.548284	-9.321870	-12.551851	-14.997772	-7.629100	0.314990	-0.733793	-0.133606	-0.876953	-0.004883	-0.484863	0.173565	0.005513	-0.092574	0.359546	-0.202118	-0.261657	-0.872588	21.722275	-32.744058	-141.664651
07556		16.835803	1.982992	-8.369394	-11.052718	-14.984124	-6.536519	0.003334	-1.068498	-0.110568	-0.887451	-0.008301	-0.471436	0.168813	0.019738	-0.082793	0.357711	-0.206688	-0.263702	-0.871656	21.906529	-33.297108	-141.999762
07557		16.069423	3.224834	-7.477491	-9.542161	-14.709682	-5.676746	-0.333985	-1.419780	-0.176636	-0.891602	-0.002930	-0.455322	0.161248	0.031982	-0.073685	0.354766	-0.213308	-0.264970	-0.870880	21.976791	-34.023737	-142.471103
07558		14.097083	4.372786	-7.499511	-7.514851	-14.306657	-6.216746	-0.652382	-1.840887	-0.420892	-0.898926	-0.003174	-0.435303	0.141745	0.043188	-0.073834	0.349828	-0.221975	-0.265831	-0.870449	22.023872	-34.919597	-143.215164
07559		11.281532	5.498247	-7.269873	-4.972907	-13.343305	-7.061214	-0.883637	-2.476873	-0.787944	-0.904785	0.004639	-0.399414	0.113921	0.054217	-0.071533	0.342146	-0.233312	-0.267181	-0.870124	22.193941	-36.075452	-144.378205
07560		1.131996	18.106226	10.525073	14.767269	-5.359055	4.082716	-2.155083	-3.471714	-0.567395	-0.908203	-0.000732	-0.368896	0.010029	0.182154	0.103473	0.332500	-0.251356	-0.264348	-0.869703	21.741076	-37.806859	-145.679712
07561		1.036859	20.820143	22.240593	20.213820	-0.053329	13.002573	-2.478416	-2.997335	-1.093326	-0.902100	0.005859	-0.334961	0.008208	0.210888	0.219937	0.320654	-0.267091	-0.259892	-0.870804	21.283049	-39.185851	-147.222346
07562		-5.036212	-11.512954	3.825470	-3.469194	12.101728	-13.560998	-1.418392	-3.857847	-1.323019	-0.913330	0.003906	-0.302979	-0.051857	-0.114519	0.038078	0.307960	-0.284441	-0.261602	-0.869378	21.741117	-40.972685	-149.196272
07563		10.016555	-13.389712	8.848174	-12.414346	10.989165	-0.703732	-1.406188	-4.677269	-0.444088	-0.907227	0.005859	-0.263428	0.097749	-0.133479	0.091726	0.297869	-0.306341	-0.263258	-0.864942	22.052149	-43.374688	-150.856817
07564		21.775553	-17.194823	17.674501	-18.412739	15.606126	12.537699	-0.926687	-3.603280	0.739461	-0.914307	0.013672	-0.219482	0.215147	-0.170316	0.181429	0.294897	-0.324283	-0.263427	-0.859350	21.887504	-45.456048	-151.380611
07565		32.444377	-13.165548	19.605745	-20.645173	10.771602	22.868173	-0.139862	-1.815036	1.870841	-0.912842	0.040039	-0.209717	0.323858	-0.128486	0.199089	0.300343	-0.334801	-0.262446	-0.853712	21.161664	-46.827356	-150.484349
07566		21.066293	11.088069	8.123406	-1.470101	-9.477205	13.441134	0.207364	0.560972	1.079386	-0.904297	0.066406	-0.201660	0.210288	0.111932	0.080760	0.306074	-0.333566	-0.260666	-0.852705	20.537325	-46.755233	-149.465137
07567		9.649295	10.266063	2.594471	2.529650	-8.641340	1.330024	-0.255429	0.074302	0.350512	-0.894531	0.070068	-0.204834	0.096322	0.102863	0.025778	0.307290	-0.334179	-0.258875	-0.852573	20.168857	-46.796286	-149.159923
07568		12.091286	0.187501	9.306759	-3.151509	1.614487	5.030194	-0.246069	0.304048	0.244586	-0.881104	0.077881	-0.206299	0.121052	0.002137	0.092881	0.308360	-0.333638	-0.256940	-0.852984	19.818402	-46.688545	-148.872680
07569		7.767222	0.128806	5.763314	-2.114290	0.856982	-0.412827	0.066112	0.362336	0.090615	-0.882568	0.085938	-0.206787	0.077776	0.001304	0.057493	0.309374	-0.332190	-0.256510	-0.853311	19.724500	-46.521963	-148.690689
07570		8.537123	2.200849	5.840940	-1.105104	-0.791212	0.675186	0.046244	0.199294	-0.003186	-0.861328	0.103760	-0.211182	0.085430	0.021994	0.058329	0.309739	-0.331325	-0.256395	-0.853550	19.706057	-46.421878	-148.629086
07571		7.247200	1.081534	6.820463	-0.744176	1.057716	0.113931	0.143643	0.060575	-0.137727	-0.858398	0.110840	-0.215820	0.072500	0.010716	0.068190	0.309519	-0.330751	-0.257141	-0.853628	19.848116	-46.373848	-148.711034
07572		7.722680	1.860886	6.092048	-0.793548	-0.095684	0.166130	0.159065	0.026003	-0.208363	-0.837402	0.108154	-0.211426	0.077254	0.018480	0.060925	0.308972	-0.330187	-0.258114	-0.853751	20.045429	-46.327163	-148.858150
07573		7.814821	2.739817	6.133194	-0.236865	-0.678177	0.467293	0.154237	0.001769	-0.231146	-0.829346	0.114258	-0.220459	0.078180	0.027261	0.061352	0.308295	-0.329727	-0.259150	-0.853859	20.257713	-46.291994	-149.028995
07574		8.398081	2.607046	5.224678	-1.060404	-1.362358	0.269037	0.156275	-0.027310	-0.238827	-0.815674	0.119629	-0.225342	0.084005	0.025929	0.052279	0.307543	-0.329354	-0.260243	-0.853942	20.481030	-46.267122	-149.214477
07575		7.696624	2.571804	5.976433	-0.382340	-0.583684	0.241318	0.123099	-0.025266	-0.221447	-0.802979	0.122559	-0.231445	0.076987	0.025596	0.059790	0.306820	-0.329070	-0.261171	-0.854028	20.675284	-46.247616	-149.385127
07576		7.809929	2.609730	5.837922	-0.491912	-0.724382	0.243171	0.060682	-0.010508	-0.149781	-0.788086	0.122803	-0.238770	0.078116	0.026021	0.058391	0.306312	-0.328887	-0.261683	-0.854124	20.790090	-46.230990	-149.496326
07577		7.099279	2.946100	6.292932	0.342300	-0.400659	0.107119	-0.012641	0.009038	-0.065529	-0.778320	0.123047	-0.246338	0.071005	0.029442	0.062924	0.306076	-0.328869	-0.261722	-0.854204	20.811949	-46.224438	-149.535972
07578		7.133742	3.299604	6.437553	0.626393	-0.561690	0.312128	-0.077520	0.035402	0.043687	-0.770264	0.135742	-0.256592	0.071342	0.033037	0.064350	0.306227	-0.328954	-0.261255	-0.854260	20.729612	-46.222477	-149.483831
07579		6.925207	3.565198	6.181684	0.839472	-0.845375	0.059645	-0.111252	0.063969	0.110206	-0.767090	0.126465	-0.267090	0.069252	0.035725	0.061775	0.306651	-0.329081	-0.260500	-0.854289	20.585142	-46.222067	-149.371323
07580		6.736087	3.015184	6.432303	0.679380	-0.261833	-0.049974	-0.121686	0.094630	0.156157	-0.753906	0.129883	-0.275635	0.067368	0.030244	0.064273	0.307287	-0.329128	-0.259569	-0.854326	20.402141	-46.210706	-149.214795
07581		7.143421	2.481900	6.557302	0.125424	0.015821	0.195833	-0.118159	0.112321	0.144533	-0.749268	0.130859	-0.287109	0.071453	0.024909	0.065518	0.307908	-0.329103	-0.258654	-0.854390	20.224603	-46.190665	-149.061862
07582		6.963974	2.065881	6.837045	0.062265	0.523518	0.148839	-0.089084	0.078640	0.120006	-0.751465	0.133301	-0.300049	0.069654	0.020731	0.068334	0.308422	-0.329120	-0.257945	-0.854412	20.084033	-46.180127	-148.938168
07583		7.440460	1.762533	6.796531	-0.440996	0.519835	0.394912	-0.072496	0.043529	0.077106	-0.747559	0.134033	-0.312012	0.074413	0.017679	0.067943	0.308740	-0.329231	-0.257441	-0.854406	19.984708	-46.183364	-148.857359
07584		7.345685	1.781406	6.719884	-0.395142	0.483383	0.281842	-0.065372	-0.006872	0.065522	-0.750000	0.131592	-0.322754	0.073449	0.017860	0.067196	0.308950	-0.329507	-0.257055	-0.854341	19.905753	-46.207921	-148.800237
07585		7.252508	2.494394	6.339245	0.014321	-0.216335	0.135171	-0.083091	-0.030850	0.089305	-0.757324	0.134277	-0.328369	0.072504	0.025003	0.063393	0.309207	-0.329967	-0.256600	-0.854206	19.808430	-46.253462	-148.730738
07586		7.171535	2.732877	6.444621	0.285637	-0.288407	0.200697	-0.108330	-0.042888	0.126417	-0.751709	0.135742	-0.342529	0.071684	0.027409	0.064447	0.309560	-0.330541	-0.255985	-0.854042	19.677596	-46.309088	-148.635971
07587		7.477676	2.445028	6.158759	-0.193005	-0.395870	0.168801	-0.137901	-0.060013	0.152821	-0.751221	0.132080	-0.342285	0.074740	0.024550	0.061593	0.309960	-0.331292	-0.255237	-0.853830	19.518427	-46.382373	-148.524516
07588		7.254050	2.766967	6.330142	0.254548	-0.433988	0.192054	-0.140602	-0.064362	0.174935	-0.758789	0.134766	-0.350342	0.072496	0.027778	0.063305	0.310438	-0.332068	-0.254436	-0.853593	19.345205	-46.458494	-148.396980
07589		7.309668	2.909078	6.441668	0.390047	-0.489978	0.336047	-0.138225	-0.056881	0.191827	-0.768799	0.141602	-0.354736	0.073050	0.029205	0.064417	0.311007	-0.332855	-0.253616	-0.853324	19.162146	-46.537020	-148.253107
07590		7.252564	2.596082	6.637537	0.308211	-0.144610	0.350003	-0.138160	-0.044917	0.211387	-0.772705	0.137451	-0.364014	0.072483	0.026083	0.066374	0.311668	-0.333590	-0.252735	-0.853057	18.964615	-46.608866	-148.090494
07591		7.134297	2.134942	6.734081	0.117465	0.259799	0.223381	-0.138580	-0.046455	0.197598	-0.775391	0.148438	-0.361328	0.071306	0.021467	0.067343	0.312272	-0.334339	-0.251887	-0.852793	18.774948	-46.682148	-147.938143
07592		7.261658	1.826965	6.742221	-0.147259	0.415232	0.253736	-0.130469	-0.049948	0.180656	-0.791260	0.144287	-0.367432	0.072583	0.018379	0.067428	0.312808	-0.335044	-0.251096	-0.852554	18.599422	-46.750347	-147.800089
07593		7.473233	1.942506	6.372539	-0.322185	0.012513	0.193701	-0.119102	-0.024797	0.152291	-0.795654	0.148682	-0.355469	0.074710	0.019520	0.063723	0.313305	-0.335602	-0.250373	-0.852364	18.440558	-46.802302	-147.672799
07594		7.510925	2.286631	6.195921	-0.160501	-0.359068	0.181181	-0.099891	0.012608	0.135288	-0.801025	0.146484	-0.354980	0.075098	0.022948	0.061943	0.313776	-0.335934	-0.249691	-0.852260	18.296051	-46.827766	-147.553482
07595		7.540212	2.175883	6.424629	-0.147717	-0.161797	0.327189	-0.097781	0.038190	0.124378	-0.806885	0.147217	-0.352295	0.075401	0.021837	0.064221	0.314255	-0.336160	-0.249006	-0.852195	18.153761	-46.840384	-147.433400
07596		7.252138	2.358043	6.507117	0.190376	-0.141008	0.209303	-0.085152	0.064175	0.127257	-0.812744	0.154053	-0.347900	0.072527	0.023654	0.065038	0.314780	-0.336239	-0.248318	-0.852171	18.012380	-46.835927	-147.306836
07597		7.532460	2.208218	6.401822	-0.111298	-0.225330	0.313236	-0.090406	0.083846	0.141893	-0.808350	0.158691	-0.349854	0.075336	0.022165	0.063977	0.315394	-0.336284	-0.247563	-0.852146	17.855931	-46.826565	-147.162268
07598		7.492819	2.664807	6.474194	0.270809	-0.493324	0.426550	-0.086928	0.122485	0.157222	-0.812012	0.150879	-0.341797	0.074947	0.026735	0.064684	0.316116	-0.336154	-0.246725	-0.852173	17.685369	-46.795061	-146.997019
07599		7.357241	2.915662	6.269865	0.447486	-0.764285	0.244989	-0.092023	0.164637	0.188161	-0.822021	0.155518	-0.344482	0.073596	0.029255	0.062625	0.317019	-0.335915	-0.245757	-0.852211	17.486715	-46.749090	-146.795949
07600		7.455743	2.517787	6.300968	0.129753	-0.538068	0.253252	-0.095430	0.195401	0.218372	-0.818359	0.161133	-0.331055	0.074591	0.025289	0.062925	0.318076	-0.335561	-0.244664	-0.852271	17.263152	-46.687398	-146.564335
07601		7.568256	1.701009	6.056871	-0.607261	-0.209517	0.007948	-0.092198	0.218347	0.223176	-0.821045	0.165283	-0.333740	0.075730	0.017122	0.060478	0.319180	-0.335140	-0.243549	-0.852343	17.036121	-46.617198	-146.325027
07602		7.195249	1.695829	6.562704	-0.184413	0.225316	0.068187	-0.075895	0.220300	0.192843	-0.813721	0.153564	-0.329346	0.072008	0.017053	0.065541	0.320190	-0.334617	-0.242541	-0.852458	16.835481	-46.536382	-146.109023
07603		7.000289	1.220306	6.782873	-0.316589	0.735780	-0.021931	-0.066501	0.176201	0.156870	-0.818115	0.161865	-0.325928	0.070053	0.012281	0.067763	0.320994	-0.334255	-0.241713	-0.852532	16.670602	-46.477430	-145.935281
07604		6.788456	0.820387	6.943267	-0.412645	1.169707	-0.146943	-0.038834	0.138658	0.094951	-0.816162	0.163818	-0.316650	0.067929	0.008250	0.069384	0.321548	-0.333901	-0.241157	-0.852620	16.562972	-46.424574	-145.817858
07605		6.836303	1.114375	7.081180	-0.175301	1.026530	0.037972	-0.016549	0.096312	0.043608	-0.802734	0.168945	-0.319580	0.068395	0.011165	0.070778	0.321847	-0.333665	-0.240858	-0.852684	16.506692	-46.390741	-145.755168
07606		6.876646	1.548675	6.694069	-0.052372	0.467834	-0.103125	0.001615	0.060680	0.011514	-0.806885	0.170166	-0.316162	0.068786	0.015490	0.066920	0.322019	-0.333477	-0.240738	-0.852726	16.483980	-46.366979	-145.722894
07607		7.199642	1.479607	6.370135	-0.420637	0.184826	-0.097153	0.016548	0.019272	-0.012520	-0.818848	0.165527	-0.312500	0.072003	0.014786	0.063696	0.322047	-0.333447	-0.240798	-0.852710	16.491855	-46.366147	-145.722142
07608		7.270387	1.661831	6.265182	-0.376599	-0.029982	-0.079754	0.032544	0.002013	-0.034566	-0.797363	0.175537	-0.306885	0.072707	0.016596	0.062654	0.322003	-0.333404	-0.240981	-0.852692	16.523437	-46.367116	-145.740393
07609		7.105377	1.739159	6.426019	-0.163067	0.087574	-0.077673	0.048692	-0.013514	-0.058372	-0.797119	0.174805	-0.290527	0.071054	0.017355	0.064269	0.321844	-0.333409	-0.241306	-0.852658	16.582001	-46.376959	-145.784847
07610		7.086192	2.126330	6.567984	0.178353	-0.070978	0.078569	0.060799	-0.025931	-0.063011	-0.790039	0.180176	-0.300293	0.070860	0.021221	0.065695	0.321692	-0.333406	-0.241703	-0.852604	16.650977	-46.388587	-145.832383
07611		7.062537	2.079994	6.652093	0.191560	0.031168	0.107921	0.070786	-0.037581	-0.059811	-0.788330	0.176025	-0.291260	0.070619	0.020755	0.066542	0.321563	-0.333466	-0.242165	-0.852499	16.725975	-46.410741	-145.879485
07612		6.954701	2.364305	6.965236	0.583140	0.087475	0.292984	0.082563	-0.066285	-0.040023	-0.787354	0.173340	-0.284668	0.069529	0.023600	0.069685	0.321496	-0.333627	-0.242680	-0.852314	16.801261	-46.448222	-145.918482
07613		6.900343	1.974396	7.071048	0.384214	0.452073	0.245179	0.093749	-0.124706	-0.018903	-0.785400	0.187500	-0.290283	0.068961	0.019704	0.070763	0.321473	-0.334071	-0.243312	-0.851969	16.881204	-46.524835	-145.954181
07614		6.235069	3.295595	7.069473	1.711527	-0.162547	0.023910	0.162499	-0.269732	0.030835	-0.774170	0.175537	-0.293213	0.062250	0.032908	0.070805	0.321594	-0.335056	-0.244376	-0.851232	16.997431	-46.685571	-145.986376
07615		6.989437	1.675372	6.735840	0.020777	0.462098	0.026847	0.092578	-0.529570	0.123480	-0.770996	0.189209	-0.285400	0.069705	0.016766	0.067551	0.321679	-0.337396	-0.245414	-0.849976	17.066631	-47.007721	-146.008026
07616		6.605993	1.788620	7.259986	0.587862	0.911023	0.105456	0.091824	-0.811783	0.172427	-0.772461	0.190674	-0.289063	0.065749	0.017910	0.072875	0.321614	-0.340967	-0.246807	-0.848170	17.158405	-47.489084	-146.061730
07617		6.794916	1.997761	7.344333	0.741188	0.818252	0.330350	0.095529	-1.072547	0.221790	-0.774658	0.190430	-0.277588	0.067532	0.020017	0.073816	0.321440	-0.345715	-0.248555	-0.845800	17.273165	-48.124972	-146.142291
07618		6.948687	2.296312	7.202874	0.906883	0.551516	0.400561	0.069941	-1.336039	0.291296	-0.767334	0.196533	-0.281250	0.068970	0.023039	0.072499	0.321171	-0.351666	-0.250478	-0.842876	17.383908	-48.913225	-146.236983
07619		6.747945	3.073749	7.357723	1.763442	0.301064	0.478866	0.038848	-1.574283	0.376671	-0.767822	0.198975	-0.265137	0.066839	0.030849	0.074111	0.320895	-0.358783	-0.252497	-0.839372	17.474047	-49.849678	-146.325969
