// General information: 
//  MT Manager version: 2019.2.0 
//  XDA version: 2019.2.0 build 3853 rev 94535 built on 2019-09-09
// Device information: 
//  DeviceId: 00B4778F
//  ProductCode: MTW2-3A7G6
//  Firmware Version: 4.6.0
//  Hardware Version: 2.0.0
// Device settings: 
//  Filter Profile: human(46.1)
//  Option Flags: Orientation Smoother Disabled, AHS Disabled, ICC Disabled
// Coordinate system: ENU
PacketCounter	SampleTimeFine	Acc_X	Acc_Y	Acc_Z	FreeAcc_E	FreeAcc_N	FreeAcc_U	Gyr_X	Gyr_Y	Gyr_Z	Mag_X	Mag_Y	Mag_Z	VelInc_X	VelInc_Y	VelInc_Z	Quat_q0	Quat_q1	Quat_q2	Quat_q3	Roll	Pitch	Yaw
37386		8.695816	-0.715153	4.359555	-0.071522	-0.005134	-0.059266	-0.005477	-0.020199	0.005883	-0.735107	-0.084473	-0.868652	0.086954	-0.007148	0.043605	0.840032	0.031325	-0.528076	0.120418	-9.609889	-63.475772	22.268012
37387		8.711450	-0.693693	4.335297	-0.051492	0.022409	-0.057575	-0.013750	-0.027325	-0.000491	-0.733154	-0.084717	-0.862305	0.087109	-0.006934	0.043365	0.839955	0.031296	-0.528212	0.120364	-9.619705	-63.493462	22.270421
37388		8.743592	-0.700778	4.346705	-0.049826	0.018583	-0.023280	-0.013084	-0.030404	0.002992	-0.733154	-0.086914	-0.855713	0.087429	-0.007004	0.043481	0.839865	0.031276	-0.528361	0.120346	-9.633663	-63.512522	22.280654
37389		8.761233	-0.729989	4.380022	-0.068464	-0.013123	0.009319	-0.017753	-0.031467	-0.002385	-0.738037	-0.075195	-0.858154	0.087605	-0.007297	0.043815	0.839779	0.031237	-0.528517	0.120273	-9.644440	-63.532732	22.281574
37390		8.762675	-0.730610	4.377033	-0.068756	-0.013454	0.009317	-0.020962	-0.033533	-0.002789	-0.729248	-0.081787	-0.860840	0.087619	-0.007303	0.043786	0.839685	0.031198	-0.528684	0.120206	-9.657218	-63.554253	22.284905
37391		8.825595	-0.671187	4.393485	-0.075100	0.051166	0.068409	-0.024292	-0.035181	-0.007420	-0.728516	-0.078125	-0.859131	0.088248	-0.006710	0.043951	0.839592	0.031148	-0.528859	0.120094	-9.666757	-63.577045	22.280259
37392		8.838653	-0.704032	4.392619	-0.064842	0.020964	0.082155	-0.025643	-0.028686	-0.008486	-0.731445	-0.085449	-0.864990	0.088380	-0.007038	0.043940	0.839517	0.031098	-0.529006	0.119987	-9.674717	-63.596173	22.274615
37393		8.843388	-0.722682	4.373982	-0.045410	0.006436	0.079602	-0.029396	-0.028089	-0.008138	-0.730469	-0.081543	-0.853271	0.088427	-0.007224	0.043753	0.839444	0.031024	-0.529154	0.119859	-9.684995	-63.615029	22.267531
37394		8.817034	-0.734877	4.341705	-0.027894	-0.004597	0.042755	-0.024717	-0.021449	-0.008972	-0.730957	-0.091064	-0.858643	0.088165	-0.007347	0.043427	0.839387	0.030981	-0.529270	0.119761	-9.690310	-63.630167	22.260584
37395		8.852387	-0.759731	4.337629	-0.006538	-0.022619	0.074498	-0.024715	-0.021446	-0.008969	-0.725098	-0.073242	-0.859375	0.088519	-0.007596	0.043387	0.839332	0.030925	-0.529387	0.119644	-9.695665	-63.645352	22.251001
37396		8.818113	-0.830303	4.295989	0.030110	-0.089896	0.030841	-0.025259	-0.018783	-0.008215	-0.741211	-0.082764	-0.862061	0.088177	-0.008301	0.042969	0.839282	0.030873	-0.529492	0.119545	-9.701633	-63.658841	22.244023
37397		8.776933	-0.864473	4.286366	0.027329	-0.128802	-0.007716	-0.017885	-0.019222	-0.007245	-0.736328	-0.084717	-0.862793	0.087765	-0.008644	0.042873	0.839230	0.030840	-0.529596	0.119453	-9.704603	-63.672604	22.236148
37398		8.828060	-0.844944	4.310349	0.020383	-0.106264	0.047129	-0.015609	-0.018480	-0.006670	-0.730713	-0.075928	-0.859375	0.088276	-0.008449	0.043112	0.839177	0.030828	-0.529695	0.119391	-9.706769	-63.685910	22.231818
37399		8.800682	-0.783904	4.270935	0.027964	-0.045343	0.000801	-0.011482	-0.009181	-0.006760	-0.728516	-0.080322	-0.852539	0.088005	-0.007840	0.042714	0.839151	0.030814	-0.529753	0.119319	-9.704656	-63.693955	22.222368
37400		8.836812	-0.786294	4.318028	0.000726	-0.050672	0.053938	-0.008272	-0.007113	-0.006356	-0.737061	-0.081543	-0.856445	0.088366	-0.007864	0.043184	0.839129	0.030818	-0.529800	0.119269	-9.700946	-63.700719	22.214578
37401		8.806254	-0.779630	4.303372	-0.001464	-0.047507	0.019641	-0.011746	-0.008011	-0.009326	-0.732666	-0.087158	-0.861328	0.088060	-0.007798	0.043038	0.839107	0.030809	-0.529853	0.119187	-9.695816	-63.708351	22.201594
37402		8.808046	-0.757499	4.352479	-0.050330	-0.035176	0.041031	-0.010280	-0.009022	-0.004359	-0.731934	-0.078369	-0.853516	0.088078	-0.007575	0.043529	0.839077	0.030808	-0.529909	0.119151	-9.695649	-63.716066	22.198224
37403		8.803617	-0.761457	4.317746	-0.021708	-0.034003	0.022189	-0.010827	-0.006361	-0.003607	-0.731445	-0.077881	-0.858398	0.088035	-0.007614	0.043181	0.839057	0.030787	-0.529955	0.119095	-9.696202	-63.722213	22.192168
37404		8.797162	-0.724992	4.348939	-0.061391	-0.005957	0.027289	-0.006649	-0.009190	-0.008933	-0.735352	-0.082520	-0.853760	0.087969	-0.007252	0.043494	0.839030	0.030806	-0.530010	0.119039	-9.689030	-63.730423	22.181608
37405		8.799720	-0.764699	4.282037	0.006647	-0.033149	0.003347	-0.013472	-0.011409	-0.010645	-0.738037	-0.087158	-0.852539	0.087994	-0.007649	0.042826	0.839000	0.030795	-0.530077	0.118945	-9.684024	-63.740100	22.167665
37406		8.800163	-0.764122	4.281229	0.006360	-0.033495	0.003346	-0.010002	-0.004929	-0.013885	-0.736328	-0.084229	-0.856689	0.088000	-0.007645	0.042815	0.838985	0.030821	-0.530116	0.118874	-9.672028	-63.746546	22.151679
37407		8.766085	-0.738770	4.282848	-0.015531	-0.016139	-0.028399	-0.007727	-0.004188	-0.013314	-0.736328	-0.080811	-0.855469	0.087659	-0.007392	0.042831	0.838976	0.030837	-0.530149	0.118786	-9.659250	-63.752399	22.132742
37408		8.766529	-0.738098	4.282054	-0.015808	-0.016474	-0.028400	-0.013328	-0.012153	-0.012301	-0.729248	-0.082275	-0.857178	0.087662	-0.007384	0.042826	0.838943	0.030845	-0.530220	0.118706	-9.652446	-63.762689	22.119624
37409		8.792903	-0.674998	4.252276	0.004788	0.053139	-0.022398	-0.011417	-0.021302	-0.011986	-0.741455	-0.083008	-0.853271	0.087924	-0.006753	0.042533	0.838887	0.030853	-0.530328	0.118611	-9.646622	-63.778080	22.106084
37410		8.843171	-0.749566	4.234607	0.056360	-0.008950	0.020530	-0.016942	-0.012304	-0.013605	-0.736328	-0.073486	-0.858398	0.088429	-0.007498	0.042352	0.838855	0.030849	-0.530400	0.118515	-9.640384	-63.788565	22.091283
37411		8.840450	-0.730914	4.249224	0.036379	0.004892	0.023082	-0.013711	-0.016137	-0.012877	-0.736084	-0.079834	-0.857910	0.088401	-0.007312	0.042500	0.838815	0.030846	-0.530488	0.118411	-9.633824	-63.801122	22.075462
37412		8.878861	-0.773028	4.229953	0.077433	-0.027296	0.052276	-0.014281	-0.007575	-0.012449	-0.731445	-0.084229	-0.861572	0.088787	-0.007733	0.042303	0.838795	0.030838	-0.530540	0.118317	-9.626720	-63.808749	22.059637
37413		8.849580	-0.744072	4.265569	0.026645	-0.011459	0.039365	-0.008276	-0.001523	-0.012555	-0.727539	-0.079590	-0.858643	0.088495	-0.007445	0.042657	0.838793	0.030849	-0.530563	0.118231	-9.614554	-63.813018	22.041042
37414		8.876013	-0.753640	4.244968	0.057214	-0.013784	0.054829	-0.014280	-0.007574	-0.012447	-0.738770	-0.085938	-0.859863	0.088758	-0.007539	0.042454	0.838773	0.030847	-0.530613	0.118144	-9.607047	-63.820487	22.025923
37415		8.848789	-0.764593	4.214578	0.074746	-0.024783	0.017986	-0.009334	-0.002422	-0.016608	-0.726807	-0.081055	-0.857666	0.088487	-0.007651	0.042147	0.838771	0.030865	-0.530639	0.118038	-9.590992	-63.825647	22.002320
37416		8.853662	-0.759945	4.248605	0.045594	-0.026642	0.036816	-0.013395	0.005559	-0.013261	-0.729736	-0.082764	-0.859619	0.088537	-0.007602	0.042484	0.838786	0.030864	-0.530634	0.117956	-9.579469	-63.825871	21.983889
37417		8.796400	-0.742591	4.255292	0.012613	-0.021461	-0.012943	-0.009907	0.006141	-0.016177	-0.734375	-0.075684	-0.857422	0.087965	-0.007431	0.042551	0.838805	0.030873	-0.530625	0.117851	-9.562570	-63.826147	21.958981
37418		8.822511	-0.751947	4.235405	0.043164	-0.023776	0.002523	-0.012436	0.000985	-0.013104	-0.733398	-0.082031	-0.858398	0.088225	-0.007523	0.042354	0.838809	0.030872	-0.530639	0.117764	-9.551779	-63.828909	21.940715
37419		8.799694	-0.748459	4.115811	0.138790	-0.003828	-0.070233	-0.018898	0.008653	-0.014548	-0.738525	-0.069092	-0.866699	0.087998	-0.007487	0.041155	0.838836	0.030838	-0.530625	0.117642	-9.541417	-63.827606	21.917351
37420		8.759623	-0.665743	4.200294	0.028886	0.054581	-0.075497	-0.013664	0.001459	-0.003734	-0.735107	-0.072998	-0.866699	0.087596	-0.006656	0.042003	0.838837	0.030801	-0.530639	0.117584	-9.542218	-63.829200	21.910169
37421		8.765640	-0.630044	4.160493	0.058093	0.097839	-0.090026	-0.020680	0.006509	0.007663	-0.738037	-0.079346	-0.856445	0.087658	-0.006293	0.041603	0.838845	0.030702	-0.530639	0.117551	-9.558827	-63.826998	21.915720
37422		8.833332	-0.619368	4.272778	-0.015890	0.101600	0.018764	-0.033581	0.010668	0.017189	-0.732422	-0.074951	-0.858398	0.088336	-0.006179	0.042724	0.838860	0.030522	-0.530630	0.117531	-9.593278	-63.821438	21.933627
37423		8.908440	-0.719191	4.361019	-0.040518	0.005020	0.131877	-0.046452	0.008927	0.027040	-0.728271	-0.077637	-0.861084	0.089087	-0.007170	0.043608	0.838868	0.030262	-0.530638	0.117511	-9.646438	-63.816012	21.963454
37424		8.969666	-0.736458	4.389450	-0.036974	-0.002356	0.200463	-0.055037	0.015123	0.023386	-0.727051	-0.084717	-0.859131	0.089701	-0.007342	0.043890	0.838895	0.029974	-0.530622	0.117461	-9.699269	-63.807240	21.988259
37425		9.068293	-0.796762	4.400446	0.007859	-0.041647	0.298242	-0.067409	0.028129	0.025661	-0.726807	-0.070068	-0.860107	0.090690	-0.007941	0.043994	0.838957	0.029618	-0.530561	0.117383	-9.759032	-63.791078	22.012067
37426		9.076056	-0.793742	4.471375	-0.050193	-0.045041	0.335883	-0.063280	0.048321	0.007322	-0.731445	-0.081299	-0.858398	0.090772	-0.007920	0.044694	0.839082	0.029322	-0.530409	0.117252	-9.791378	-63.765058	22.009377
37427		9.057743	-0.673705	4.482471	-0.090649	0.070626	0.315290	-0.067066	0.066335	0.000886	-0.732910	-0.077148	-0.852051	0.090592	-0.006722	0.044797	0.839260	0.029010	-0.530183	0.117076	-9.814936	-63.729729	21.993045
37428		8.980486	-0.558409	4.450937	-0.115190	0.179180	0.223567	-0.068530	0.073285	-0.004350	-0.726807	-0.072021	-0.862549	0.089821	-0.005571	0.044478	0.839456	0.028715	-0.529929	0.116896	-9.831968	-63.691005	21.971270
37429		8.919826	-0.544406	4.463885	-0.148160	0.184374	0.173802	-0.073759	0.086742	-0.009523	-0.731934	-0.072998	-0.855957	0.089217	-0.005432	0.044602	0.839694	0.028391	-0.529620	0.116662	-9.843458	-63.645179	21.937184
37430		8.780920	-0.561287	4.421944	-0.156565	0.156138	0.032326	-0.075916	0.103014	-0.012609	-0.726074	-0.068848	-0.856689	0.087832	-0.005602	0.044176	0.839977	0.028061	-0.529243	0.116419	-9.849739	-63.590365	21.896803
37431		8.654475	-0.588617	4.432580	-0.203074	0.110644	-0.074069	-0.069594	0.107617	-0.015956	-0.710938	-0.071533	-0.861084	0.086568	-0.005878	0.044281	0.840273	0.027759	-0.528843	0.116171	-9.847550	-63.533388	21.850074
37432		8.479601	-0.686451	4.474450	-0.281477	-0.016938	-0.204564	-0.066342	0.103802	-0.015199	-0.721436	-0.076416	-0.872803	0.084819	-0.006856	0.044703	0.840559	0.027471	-0.528455	0.115938	-9.845368	-63.478214	21.805665
37433		8.459025	-0.815788	4.586201	-0.350468	-0.162237	-0.163610	-0.036057	0.109411	-0.021873	-0.724365	-0.073242	-0.869385	0.084614	-0.008159	0.045817	0.840858	0.027325	-0.528027	0.115755	-9.817167	-63.420796	21.751292
37434		8.697298	-0.932392	4.855122	-0.452347	-0.281170	0.177351	0.000096	0.103938	-0.042070	-0.719482	-0.075928	-0.867188	0.086996	-0.009342	0.048506	0.841149	0.027395	-0.527595	0.115594	-9.746608	-63.368087	21.674426
37435		9.251638	-1.176449	5.007150	-0.291751	-0.456671	0.758723	0.015792	0.062585	-0.086248	-0.725098	-0.073975	-0.864746	0.092527	-0.011808	0.050042	0.841354	0.027664	-0.527324	0.115270	-9.625719	-63.343260	21.549546
37436		9.501174	-1.421193	4.727360	0.122594	-0.616346	0.875862	0.077246	0.069407	-0.109517	-0.721436	-0.077393	-0.859619	0.095020	-0.014282	0.047235	0.841581	0.028257	-0.526984	0.115025	-9.442398	-63.316463	21.396070
37437		9.295189	-1.454521	4.526529	0.236570	-0.661234	0.604240	0.155766	0.163691	-0.105741	-0.714600	-0.079102	-0.861328	0.092981	-0.014630	0.045178	0.842043	0.029108	-0.526204	0.115002	-9.201483	-63.235925	21.226513
37438		8.979250	-1.364943	4.577545	0.061829	-0.645995	0.337324	0.195360	0.195522	-0.070545	-0.715332	-0.079834	-0.865967	0.089832	-0.013726	0.045674	0.842559	0.030025	-0.525271	0.115253	-8.972876	-63.133787	21.098195
37439		8.731562	-1.421293	4.582576	-0.011167	-0.750783	0.121919	0.221326	0.176531	-0.018873	-0.719238	-0.077393	-0.871094	0.087355	-0.014272	0.045733	0.842992	0.030916	-0.524410	0.115770	-8.791496	-63.037714	21.037246
37440		8.326607	-1.369875	4.348739	0.032448	-0.731774	-0.347811	0.276438	0.174737	0.043578	-0.712891	-0.090088	-0.871094	0.083307	-0.013741	0.043396	0.843373	0.031880	-0.523532	0.116702	-8.649254	-62.936977	21.056543
37441		8.023772	-1.015843	4.276261	-0.093460	-0.427598	-0.674435	0.330561	0.178139	0.101896	-0.711182	-0.096436	-0.872803	0.080281	-0.010188	0.042674	0.843719	0.032914	-0.522617	0.118013	-8.540039	-62.829515	21.146877
37442		7.900386	-0.538233	4.286820	-0.247632	0.013357	-0.811516	0.334201	0.179730	0.147468	-0.703857	-0.087402	-0.874023	0.079046	-0.005396	0.042788	0.844034	0.033861	-0.521696	0.119554	-8.478301	-62.717133	21.296794
37443		7.780201	-0.282451	4.319298	-0.371999	0.238477	-0.920423	0.285530	0.158199	0.179548	-0.715088	-0.088379	-0.873535	0.077839	-0.002816	0.043127	0.844283	0.034514	-0.520900	0.121071	-8.482946	-62.614491	21.486433
37444		7.811268	-0.137832	4.396257	-0.448071	0.375452	-0.867285	0.240661	0.135454	0.189321	-0.700439	-0.092773	-0.876465	0.078144	-0.001357	0.043908	0.844471	0.034970	-0.520227	0.122519	-8.527087	-62.523624	21.692964
37445		7.813506	-0.085227	4.414725	-0.467464	0.431381	-0.860407	0.163234	0.092971	0.191823	-0.698730	-0.091553	-0.875732	0.078156	-0.000813	0.044110	0.844558	0.035115	-0.519781	0.123758	-8.624272	-62.456744	21.908238
37446		7.989534	0.033441	4.506410	-0.496006	0.567831	-0.670858	0.134773	0.060247	0.163329	-0.705078	-0.099854	-0.882813	0.079909	0.000369	0.045040	0.844583	0.035240	-0.519481	0.124809	-8.711465	-62.410270	22.095606
37447		8.293506	0.204236	4.679263	-0.555970	0.760447	-0.334709	0.084809	0.031226	0.128741	-0.699219	-0.093750	-0.878418	0.082941	0.002076	0.046781	0.844561	0.035255	-0.519333	0.125567	-8.794405	-62.383548	22.244284
37448		8.614188	0.205849	4.745938	-0.478470	0.811748	-0.020718	0.019416	-0.024315	0.088347	-0.705078	-0.088623	-0.874268	0.086135	0.002092	0.047470	0.844431	0.035147	-0.519449	0.125995	-8.879940	-62.391338	22.356453
37449		9.024059	0.189083	4.660277	-0.230534	0.888029	0.303924	-0.011659	-0.069371	0.045312	-0.711182	-0.083740	-0.880371	0.090224	0.001914	0.046634	0.844217	0.035035	-0.519771	0.126132	-8.944800	-62.428771	22.422350
37450		9.335806	0.280765	4.499619	0.011027	1.062671	0.500085	-0.031918	-0.083511	-0.003697	-0.712646	-0.089844	-0.885010	0.093339	0.002813	0.045035	0.844000	0.034976	-0.520155	0.126013	-8.970877	-62.478333	22.431962
37451		9.584848	0.169418	4.338958	0.278675	1.028523	0.655791	-0.078931	-0.030764	-0.031290	-0.707031	-0.084961	-0.876709	0.095842	0.001696	0.043404	0.843947	0.034754	-0.520342	0.125659	-8.984692	-62.500732	22.396800
37452		9.551930	-0.277697	4.172616	0.520860	0.621496	0.582969	-0.091835	0.045848	-0.058827	-0.706787	-0.095459	-0.882568	0.095528	-0.002786	0.041706	0.844111	0.034506	-0.520208	0.125176	-8.962828	-62.481983	22.314090
37453		9.426741	-0.612519	4.165833	0.562864	0.275604	0.492651	-0.071513	0.090130	-0.076404	-0.708008	-0.083496	-0.886230	0.094284	-0.006146	0.041618	0.844398	0.034358	-0.519873	0.124672	-8.902800	-62.439955	22.200433
37454		9.179322	-0.948880	4.210113	0.510120	-0.102732	0.317199	-0.066843	0.091241	-0.060761	-0.704834	-0.083496	-0.879395	0.091810	-0.009503	0.042062	0.844677	0.034195	-0.519530	0.124257	-8.856955	-62.395593	22.107301
37455		9.042481	-1.370612	4.109976	0.648847	-0.515896	0.179799	-0.069365	0.067502	-0.038152	-0.708984	-0.088623	-0.879395	0.090436	-0.013709	0.041074	0.844881	0.033970	-0.519295	0.123916	-8.841362	-62.362928	22.045100
37456		8.983252	-1.592697	4.096837	0.694445	-0.739127	0.136735	-0.012204	0.055095	-0.034731	-0.700439	-0.091064	-0.870605	0.089841	-0.015940	0.040945	0.845039	0.033991	-0.519076	0.123744	-8.798956	-62.336845	21.990763
37457		8.866734	-1.629421	4.120475	0.638808	-0.800278	0.046510	0.021333	0.069340	-0.008765	-0.705566	-0.086914	-0.882080	0.088681	-0.016302	0.041172	0.845214	0.034072	-0.518782	0.123763	-8.763026	-62.300534	21.964244
37458		8.726361	-1.747520	4.158432	0.582103	-0.945514	-0.052415	0.045939	0.085772	0.012802	-0.705322	-0.091064	-0.882324	0.087283	-0.017479	0.041543	0.845412	0.034199	-0.518406	0.123953	-8.733592	-62.252942	21.962864
37459		8.622992	-1.718300	4.263159	0.449474	-0.953543	-0.098173	0.100772	0.102998	0.036068	-0.707520	-0.099121	-0.887695	0.086255	-0.017189	0.042579	0.845632	0.034479	-0.517928	0.124373	-8.694980	-62.193663	21.984734
37460		8.659633	-1.519939	4.472443	0.247175	-0.792985	0.016467	0.138964	0.112527	0.057828	-0.704834	-0.093018	-0.884033	0.086626	-0.015205	0.044665	0.845853	0.034870	-0.517388	0.125006	-8.656172	-62.127016	22.033988
37461		8.688097	-1.280118	4.555119	0.141333	-0.569979	0.062837	0.173515	0.110065	0.078911	-0.704834	-0.087646	-0.887939	0.086911	-0.012806	0.045492	0.846051	0.035342	-0.516841	0.125796	-8.620600	-62.060060	22.106487
37462		8.674039	-1.073785	4.629963	0.033094	-0.385439	0.070574	0.212529	0.134445	0.093276	-0.697998	-0.093750	-0.885010	0.086776	-0.010747	0.046230	0.846292	0.035933	-0.516167	0.126764	-8.574119	-61.977985	22.193521
37463		8.616395	-0.877746	4.748119	-0.126230	-0.226801	0.061012	0.241192	0.174670	0.109447	-0.699951	-0.091553	-0.896973	0.086210	-0.008787	0.047395	0.846622	0.036572	-0.515308	0.127870	-8.521637	-61.871878	22.290916
37464		8.499422	-0.832469	4.842146	-0.249610	-0.219078	-0.001000	0.258123	0.200879	0.126561	-0.694336	-0.087158	-0.883545	0.085048	-0.008333	0.048325	0.847003	0.037226	-0.514327	0.129106	-8.473304	-61.749313	22.405434
37465		8.407160	-0.943049	4.938167	-0.322316	-0.357300	-0.028844	0.269163	0.208007	0.136792	-0.696289	-0.097168	-0.886719	0.084129	-0.009439	0.049281	0.847391	0.037891	-0.513311	0.130404	-8.427827	-61.622088	22.529208
37466		8.284132	-0.973628	5.009701	-0.406825	-0.419960	-0.100326	0.293905	0.214086	0.136846	-0.695557	-0.104004	-0.887451	0.082902	-0.009753	0.049994	0.847786	0.038660	-0.512250	0.131776	-8.367218	-61.491361	22.653029
37467		8.123337	-1.029138	4.949597	-0.386711	-0.488529	-0.265019	0.317149	0.234589	0.134637	-0.691895	-0.098877	-0.893066	0.081298	-0.010315	0.049384	0.848228	0.039516	-0.511085	0.133192	-8.287260	-61.349372	22.769159
37468		7.975174	-1.161546	4.987569	-0.423650	-0.647916	-0.366572	0.294796	0.238297	0.150983	-0.685059	-0.098633	-0.898193	0.079820	-0.011629	0.049763	0.848667	0.040242	-0.509919	0.134638	-8.236252	-61.203888	22.905976
37469		7.887254	-1.355931	4.959093	-0.359612	-0.839657	-0.442228	0.277162	0.255453	0.167894	-0.690918	-0.113037	-0.899170	0.078947	-0.013562	0.049471	0.849141	0.040829	-0.508695	0.136096	-8.209535	-61.047443	23.057069
37470		7.857729	-1.444199	5.051164	-0.399039	-0.941397	-0.415968	0.285422	0.277888	0.185379	-0.678711	-0.108887	-0.905518	0.078661	-0.014441	0.050382	0.849653	0.041400	-0.507369	0.137670	-8.191907	-60.876647	23.226280
37471		7.848282	-1.483058	5.047511	-0.359854	-0.970057	-0.421108	0.279929	0.289229	0.207841	-0.683350	-0.100586	-0.897217	0.078571	-0.014819	0.050341	0.850176	0.041874	-0.506003	0.139311	-8.197494	-60.697820	23.416699
37472		7.789099	-1.283318	5.045897	-0.412058	-0.778785	-0.485219	0.289306	0.273578	0.229308	-0.674072	-0.109619	-0.898193	0.077975	-0.012817	0.050334	0.850639	0.042349	-0.504697	0.141074	-8.220538	-60.525817	23.635008
37473		7.863847	-1.028380	5.002700	-0.388727	-0.498880	-0.457229	0.273290	0.236521	0.246721	-0.677734	-0.111572	-0.904297	0.078710	-0.010255	0.049920	0.850995	0.042733	-0.503563	0.142851	-8.273893	-60.373598	23.876597
37474		8.032974	-0.723937	4.992282	-0.369752	-0.157769	-0.335663	0.236838	0.216636	0.266747	-0.683350	-0.109375	-0.908203	0.080393	-0.007191	0.049827	0.851289	0.042934	-0.502539	0.144634	-8.369432	-60.230606	24.145223
37475		8.283151	-0.409911	5.024182	-0.355778	0.202466	-0.124891	0.216972	0.220092	0.275912	-0.668701	-0.107910	-0.901123	0.082892	-0.004039	0.050146	0.851587	0.043016	-0.501517	0.146388	-8.482995	-60.084876	24.419726
37476		8.592898	-0.021081	5.091015	-0.367783	0.641655	0.147721	0.190851	0.223965	0.290456	-0.680176	-0.108398	-0.908447	0.085986	-0.000134	0.050814	0.851885	0.042954	-0.500497	0.148154	-8.623495	-59.935220	24.710198
37477		8.773684	0.284292	5.145209	-0.406732	0.979571	0.306922	0.150820	0.189939	0.285705	-0.667969	-0.104492	-0.912842	0.087782	0.002930	0.051371	0.852108	0.042752	-0.499650	0.149777	-8.785055	-59.805056	24.997169
37478		8.972895	0.632905	5.223634	-0.474073	1.357982	0.489296	0.122398	0.180053	0.273672	-0.662354	-0.119873	-0.912842	0.089767	0.006420	0.052159	0.852318	0.042471	-0.498861	0.151287	-8.951061	-59.680927	25.272181
37479		9.114630	0.676827	5.358504	-0.523687	1.424206	0.672800	0.050891	0.205992	0.264896	-0.659668	-0.107910	-0.914063	0.091192	0.006875	0.053493	0.852613	0.041883	-0.498014	0.152575	-9.143442	-59.542695	25.529264
37480		9.352836	0.508168	5.595525	-0.546530	1.290048	1.007695	0.018877	0.245655	0.240553	-0.666260	-0.102539	-0.914551	0.093591	0.005189	0.055841	0.853028	0.041199	-0.497013	0.153705	-9.322374	-59.383538	25.752265
37481		9.601478	0.106166	5.822680	-0.479790	0.939554	1.367214	0.019299	0.269218	0.197661	-0.665527	-0.103027	-0.922119	0.096092	0.001151	0.058098	0.853533	0.040594	-0.495903	0.154639	-9.454758	-59.215078	25.919348
37482		9.623957	-0.164703	5.745977	-0.301814	0.723991	1.369827	0.069765	0.202749	0.110473	-0.660645	-0.114258	-0.913086	0.096299	-0.001614	0.057362	0.853928	0.040478	-0.495018	0.155324	-9.485093	-59.092101	26.002852
37483		9.540775	-0.428202	5.391279	0.053417	0.544431	1.140685	0.065583	0.159263	0.060171	-0.662109	-0.103271	-0.909424	0.095452	-0.004271	0.053835	0.854255	0.040496	-0.494313	0.155764	-9.476819	-58.998618	26.037284
37484		9.271835	-0.771499	4.974535	0.397790	0.256726	0.726950	0.066237	0.173627	0.020897	-0.656738	-0.103516	-0.929199	0.092762	-0.007722	0.049662	0.854645	0.040614	-0.493536	0.156058	-9.428951	-58.900636	26.028434
37485		8.951756	-0.957168	4.713025	0.544420	0.068620	0.334310	0.131717	0.217541	-0.008059	-0.654541	-0.099365	-0.913574	0.089568	-0.009606	0.047027	0.855155	0.041038	-0.492515	0.156381	-9.310066	-58.780607	25.977962
37486		8.650818	-0.934671	4.680142	0.448905	0.027580	0.057047	0.173054	0.221929	-0.022514	-0.664551	-0.107666	-0.916992	0.086559	-0.009397	0.046697	0.855675	0.041676	-0.491438	0.156753	-9.154143	-58.659181	25.912901
37487		8.366683	-0.896335	4.587851	0.402582	0.016004	-0.237155	0.193973	0.163420	-0.021464	-0.652344	-0.109375	-0.921875	0.083703	-0.009017	0.045801	0.856046	0.042441	-0.490596	0.157160	-8.996566	-58.570852	25.858768
37488		8.147322	-0.771025	4.347584	0.475495	0.133370	-0.558990	0.205369	0.102173	-0.013059	-0.649414	-0.107910	-0.920410	0.081495	-0.007760	0.043426	0.856254	0.043291	-0.490007	0.157632	-8.849685	-58.516303	25.826658
37489		7.924485	-0.603240	4.165502	0.480038	0.277476	-0.856944	0.204149	0.077687	0.015990	-0.656494	-0.112549	-0.929932	0.079262	-0.006069	0.041618	0.856381	0.044076	-0.489530	0.158206	-8.734058	-58.473099	25.828497
37490		7.688524	-0.537854	4.071138	0.436159	0.304435	-1.112461	0.189222	0.098384	0.048900	-0.648438	-0.111328	-0.926514	0.076907	-0.005398	0.040668	0.856533	0.044706	-0.488982	0.158899	-8.654578	-58.415193	25.864111
37491		7.473099	-0.379918	4.187834	0.199490	0.378080	-1.248416	0.193051	0.131021	0.091655	-0.646973	-0.112549	-0.922852	0.074760	-0.003805	0.041826	0.856731	0.045215	-0.488301	0.159781	-8.607656	-58.335274	25.939172
37492		7.272288	-0.178578	4.330813	-0.065556	0.492215	-1.361213	0.181483	0.139422	0.120922	-0.650391	-0.113525	-0.929443	0.072754	-0.001781	0.043256	0.856925	0.045602	-0.487598	0.160771	-8.592936	-58.247973	26.045573
37493		7.196911	0.045976	4.512442	-0.313490	0.649714	-1.348683	0.152934	0.100312	0.158640	-0.650879	-0.117188	-0.926758	0.071991	0.000482	0.045089	0.857001	0.045801	-0.487095	0.161834	-8.634124	-58.179715	26.197380
37494		7.152231	0.345015	4.672882	-0.560343	0.891313	-1.327356	0.089025	0.021892	0.188519	-0.646484	-0.122559	-0.927002	0.071524	0.003497	0.046723	0.856873	0.045723	-0.486985	0.162863	-8.749723	-58.153080	26.395239
37495		7.349889	0.592050	4.787707	-0.647260	1.154029	-1.121152	-0.003045	-0.056907	0.209771	-0.654297	-0.118408	-0.934570	0.073479	0.005998	0.047898	0.856557	0.045257	-0.487292	0.163730	-8.948495	-58.168995	26.627429
37496		7.814056	0.830037	4.972647	-0.669771	1.459331	-0.653137	-0.097041	-0.076881	0.221624	-0.644775	-0.120850	-0.923096	0.078112	0.008411	0.049752	0.856202	0.044385	-0.487763	0.164428	-9.214893	-58.194530	26.877864
37497		8.306786	0.864588	5.137157	-0.602126	1.590352	-0.156149	-0.211502	-0.134917	0.209025	-0.642334	-0.113037	-0.927002	0.083024	0.008787	0.051418	0.855740	0.043092	-0.488573	0.164765	-9.544896	-58.253477	27.123769
37498		9.232140	0.666196	5.934893	-0.776988	1.465149	1.056936	-0.289812	-0.017407	0.191994	-0.641357	-0.102051	-0.926025	0.092310	0.006837	0.059347	0.855593	0.041418	-0.488939	0.164877	-9.886314	-58.246806	27.332324
37499		10.058382	0.509129	7.813832	-1.865888	1.117366	2.747400	-0.094036	0.507567	0.141283	-0.645020	-0.103760	-0.930420	0.100778	0.005199	0.077880	0.856727	0.040263	-0.486886	0.165344	-9.985446	-57.948597	27.385896
37500		9.038392	-0.219856	9.270505	-3.233677	-0.110575	2.725785	0.041011	0.821495	0.150060	-0.646973	-0.097900	-0.935547	0.090765	-0.002150	0.092332	0.858581	0.039410	-0.483372	0.166247	-9.964519	-57.472199	27.390365
37501		7.844943	-2.067506	8.176001	-2.274201	-1.847555	1.326388	-0.490855	0.050711	0.183160	-0.636719	-0.103271	-0.929688	0.078489	-0.020402	0.081790	0.858639	0.036830	-0.483610	0.165845	-10.397370	-57.427268	27.570499
37502		9.229637	-4.052837	6.487590	0.318769	-2.951647	1.801296	-0.927870	-0.935494	0.233146	-0.647705	-0.080566	-0.934814	0.092038	-0.040118	0.065494	0.856327	0.033076	-0.488440	0.164426	-11.293391	-57.930668	28.003714
37503		9.508898	-4.333391	4.227280	2.239055	-2.642689	0.914261	-0.784583	-1.399803	0.091646	-0.662598	-0.078857	-0.909912	0.094809	-0.043122	0.043106	0.852929	0.030654	-0.495092	0.162654	-12.087444	-58.707670	28.408809
37504		9.783253	-3.075432	1.393526	4.197709	-0.816369	-0.388064	-0.242803	-1.233470	-0.312026	-0.668213	-0.078857	-0.907227	0.097696	-0.030889	0.014576	0.850141	0.031410	-0.500504	0.160528	-12.180654	-59.438302	28.356838
37505		10.176979	0.134331	2.087798	2.751064	2.111254	-0.018718	0.219284	-0.283854	-0.429913	-0.681885	-0.080078	-0.912842	0.101743	0.001102	0.021024	0.849732	0.033658	-0.501479	0.159193	-11.700175	-59.650637	27.945468
37506		8.708758	2.216660	3.522934	0.273266	3.384675	-0.777416	0.174444	0.424068	-0.392836	-0.669189	-0.090332	-0.919189	0.087205	0.021965	0.035064	0.851066	0.035064	-0.499482	0.158031	-11.140747	-59.459223	27.414191
37507		7.938845	3.233482	4.902029	-1.483931	3.853123	-0.842648	0.003365	0.576464	-0.296492	-0.661377	-0.088867	-0.916260	0.079577	0.032216	0.048792	0.852729	0.035374	-0.496986	0.156867	-10.749816	-59.169427	26.962116
37508		7.570164	3.255655	6.208127	-2.705767	3.520512	-0.499677	-0.388760	0.281030	-0.011569	-0.664307	-0.098389	-0.927734	0.075791	0.032673	0.061911	0.853495	0.033543	-0.496101	0.155899	-10.908566	-59.014612	26.889275
37509		7.797742	1.663023	6.425584	-2.312854	2.050487	-0.050286	-0.621904	-0.373435	0.116481	-0.669434	-0.079346	-0.911865	0.077848	0.016876	0.064349	0.852570	0.030902	-0.498210	0.154778	-11.441448	-59.213820	27.095270
37510		8.475187	0.440877	5.602440	-1.016131	1.238643	0.229381	-0.437350	-0.791263	0.087739	-0.673096	-0.074951	-0.918213	0.084527	0.004569	0.056349	0.850582	0.029454	-0.501942	0.153941	-11.928002	-59.649799	27.371776
37511		9.108255	-0.509234	4.944512	0.004447	0.625098	0.544729	-0.561205	-0.942589	0.147559	-0.689453	-0.070557	-0.903320	0.090852	-0.004886	0.049888	0.848166	0.027433	-0.506410	0.153007	-12.587739	-60.161861	27.762911
37512		9.266108	-2.172931	4.143097	1.128897	-0.743473	0.479036	-0.680362	-0.793184	0.234879	-0.690674	-0.065918	-0.906982	0.092521	-0.021479	0.041871	0.846051	0.024579	-0.510332	0.152168	-13.384979	-60.576677	28.233428
37513		8.788402	-3.771953	3.309451	2.003411	-2.192498	-0.138238	-0.540573	-0.469423	0.189610	-0.693848	-0.054688	-0.899658	0.087842	-0.037546	0.033402	0.844763	0.022176	-0.512763	0.151521	-13.993987	-60.814574	28.576888
37514		8.209736	-3.894274	3.808742	1.309082	-2.527043	-0.380196	-0.386931	-0.219648	0.029227	-0.697998	-0.054443	-0.898438	0.082061	-0.038857	0.038253	0.844210	0.020653	-0.513998	0.150626	-14.297386	-60.934702	28.672273
37515		7.703704	-3.625180	3.921009	0.887940	-2.407218	-0.797141	-0.177513	-0.299775	-0.013760	-0.705078	-0.049805	-0.900391	0.076976	-0.036222	0.039358	0.843461	0.020176	-0.515409	0.150070	-14.460156	-61.105338	28.742335
37516		7.658099	-2.991654	3.955847	0.627030	-1.826856	-0.895599	-0.089514	-0.484324	-0.023327	-0.701416	-0.050049	-0.889404	0.076481	-0.029908	0.039757	0.842228	0.020241	-0.517527	0.149691	-14.612361	-61.379561	28.859314
37517		7.550220	-2.389656	3.622514	0.653704	-1.226762	-1.215811	-0.075744	-0.724688	0.002726	-0.702148	-0.042236	-0.886230	0.075371	-0.023882	0.036507	0.840346	0.020469	-0.520646	0.149421	-14.851502	-61.783037	29.082133
37518		7.812704	-1.826435	3.270460	0.848064	-0.578159	-1.209421	-0.034585	-0.872164	0.008421	-0.729492	-0.041504	-0.873291	0.077984	-0.018255	0.033048	0.838057	0.020969	-0.524345	0.149272	-15.121113	-62.266687	29.366219
37519		8.156321	-1.341173	2.977877	1.038089	0.001685	-1.088356	-0.003241	-0.866433	0.027116	-0.734863	-0.047852	-0.868896	0.081435	-0.013400	0.030132	0.835751	0.021543	-0.527990	0.149273	-15.400621	-62.743839	29.679476
37520		8.494072	-1.004063	2.895194	1.083009	0.401644	-0.856967	-0.054038	-0.755794	0.060020	-0.730713	-0.044678	-0.875732	0.084833	-0.010007	0.029275	0.833701	0.021740	-0.531206	0.149299	-15.721911	-63.154290	30.007124
37521		8.678509	-0.912806	3.045640	0.935855	0.492706	-0.630814	-0.095136	-0.608435	0.080301	-0.740967	-0.045166	-0.860840	0.086696	-0.009079	0.030725	0.832024	0.021596	-0.533833	0.149303	-16.052112	-63.479316	30.315928
37522		8.779246	-1.000772	3.324835	0.697368	0.372326	-0.404922	-0.106784	-0.544766	0.078842	-0.736816	-0.043457	-0.854492	0.087705	-0.009955	0.033493	0.830511	0.021366	-0.536198	0.149284	-16.374157	-63.768676	30.608591
37523		8.990293	-1.152629	3.542479	0.572698	0.228017	-0.100691	-0.121406	-0.542631	0.063310	-0.751953	-0.033447	-0.850586	0.089810	-0.011476	0.035676	0.829012	0.021109	-0.538561	0.149152	-16.693222	-64.058742	30.886648
37524		9.127750	-1.547262	3.692999	0.542701	-0.151626	0.138710	-0.160026	-0.526616	0.055583	-0.748047	-0.039063	-0.845215	0.091184	-0.015418	0.037183	0.827557	0.020704	-0.540880	0.148891	-17.026831	-64.340635	31.156542
37525		9.121307	-1.873627	3.862149	0.426005	-0.502132	0.246692	-0.153996	-0.454906	0.026003	-0.763672	-0.034180	-0.841553	0.091127	-0.018695	0.038843	0.826314	0.020347	-0.542892	0.148524	-17.303643	-64.587620	31.365788
37526		9.065365	-2.004445	4.184493	0.110211	-0.707447	0.345850	-0.140065	-0.348852	-0.005520	-0.763672	-0.030762	-0.839355	0.090580	-0.020018	0.042017	0.825375	0.020060	-0.544450	0.148083	-17.501731	-64.781743	31.497634
37527		8.975701	-2.056727	4.459529	-0.188416	-0.835527	0.382755	-0.155097	-0.275289	-0.025661	-0.757813	-0.030273	-0.837891	0.089693	-0.020544	0.044735	0.824651	0.019706	-0.545711	0.147517	-17.660019	-64.938903	31.574575
37528		8.843089	-1.837865	4.647721	-0.491103	-0.696705	0.309202	-0.150238	-0.232871	-0.047892	-0.761475	-0.029053	-0.833740	0.088372	-0.018365	0.046594	0.824057	0.019404	-0.546791	0.146881	-17.775126	-65.076733	31.607597
37529		8.597934	-1.477297	4.738527	-0.781511	-0.427629	0.075024	-0.197483	-0.233016	-0.058218	-0.769775	-0.024658	-0.837402	0.085920	-0.014751	0.047500	0.823473	0.018932	-0.547903	0.146068	-17.905794	-65.216402	31.627156
37530		8.364589	-1.248070	4.718153	-0.933812	-0.257608	-0.176995	-0.267630	-0.250698	-0.060816	-0.770752	-0.028320	-0.837891	0.083583	-0.012443	0.047303	0.822846	0.018194	-0.549138	0.145055	-18.081579	-65.366133	31.652696
37531		8.035787	-1.035655	4.593781	-1.023106	-0.103296	-0.555702	-0.308246	-0.281390	-0.079790	-0.767822	-0.023438	-0.832275	0.080289	-0.010318	0.046067	0.822150	0.017361	-0.550524	0.143843	-18.270973	-65.535939	31.666998
37532		7.756816	-0.845821	4.427193	-1.050850	0.046967	-0.903307	-0.323462	-0.315809	-0.114522	-0.767578	-0.024414	-0.824219	0.077493	-0.008431	0.044408	0.821381	0.016589	-0.552056	0.142450	-18.442445	-65.730625	31.652872
37533		7.599372	-0.694380	4.169593	-0.944513	0.201235	-1.170614	-0.356118	-0.364667	-0.144873	-0.776611	-0.026123	-0.831299	0.075912	-0.006924	0.041847	0.820497	0.015798	-0.553807	0.140830	-18.616816	-65.957482	31.620605
37534		7.546077	-0.726694	3.906879	-0.753075	0.200158	-1.319881	-0.400329	-0.407027	-0.169421	-0.776855	-0.010986	-0.816162	0.075375	-0.007252	0.039237	0.819508	0.014929	-0.555756	0.138992	-18.805178	-66.211792	31.577250
37535		7.667545	-0.974051	3.678682	-0.482188	0.020666	-1.266363	-0.423797	-0.417234	-0.190003	-0.783691	-0.013428	-0.824951	0.076589	-0.009735	0.036967	0.818501	0.014022	-0.557756	0.136994	-18.987361	-66.475599	31.511301
37536		7.797571	-1.376605	3.512051	-0.229539	-0.320162	-1.159577	-0.431346	-0.406590	-0.197666	-0.795654	-0.014648	-0.816650	0.077890	-0.013767	0.035309	0.817521	0.013098	-0.559712	0.134944	-19.161182	-66.735050	31.431748
37537		7.890888	-1.679334	3.306514	0.020551	-0.569605	-1.112440	-0.388172	-0.400825	-0.216720	-0.790039	-0.020264	-0.810059	0.078824	-0.016814	0.033256	0.816560	0.012400	-0.561609	0.132934	-19.283868	-66.995166	31.323555
37538		7.999088	-1.862744	3.192944	0.163303	-0.722022	-1.031915	-0.310957	-0.411004	-0.238315	-0.801025	-0.012451	-0.806396	0.079903	-0.018673	0.032123	0.815570	0.012092	-0.563491	0.131062	-19.338813	-67.265005	31.191588
37539		8.120655	-1.893334	3.098732	0.257134	-0.732107	-0.950993	-0.266968	-0.426966	-0.250484	-0.792969	-0.012207	-0.803467	0.081116	-0.018993	0.031186	0.814536	0.012001	-0.565403	0.129252	-19.358839	-67.545756	31.047849
37540		8.327414	-2.022038	3.007962	0.395296	-0.823530	-0.776779	-0.255806	-0.460116	-0.246181	-0.798340	-0.008301	-0.795654	0.083180	-0.020284	0.030297	0.813397	0.011968	-0.567439	0.127495	-19.392126	-67.843638	30.926638
37541		8.410140	-2.242001	2.823830	0.595414	-1.014746	-0.738185	-0.226720	-0.489181	-0.251818	-0.800781	-0.014160	-0.794922	0.084004	-0.022494	0.028469	0.812172	0.012084	-0.569569	0.125787	-19.413284	-68.158316	30.809602
37542		8.569728	-2.344284	2.664261	0.769959	-1.085092	-0.633162	-0.170127	-0.503182	-0.268966	-0.807861	-0.016113	-0.799316	0.085598	-0.023535	0.026878	0.810906	0.012491	-0.571714	0.124175	-19.383892	-68.483763	30.674128
37543		8.773555	-2.318763	2.520545	0.917100	-1.030968	-0.495990	-0.072966	-0.495472	-0.294442	-0.805908	-0.013428	-0.787842	0.087638	-0.023307	0.025431	0.809665	0.013356	-0.573760	0.122731	-19.256272	-68.809860	30.492459
37544		8.955312	-2.096673	2.529398	0.876199	-0.819518	-0.349500	0.008879	-0.489412	-0.300368	-0.817627	-0.016113	-0.782471	0.089459	-0.021102	0.025512	0.808433	0.014570	-0.575726	0.121504	-19.065340	-69.133409	30.294537
37545		9.017777	-1.855596	2.512848	0.818841	-0.609211	-0.323955	0.051909	-0.495156	-0.295659	-0.818848	-0.017822	-0.785645	0.090088	-0.018696	0.025347	0.807172	0.015943	-0.577685	0.120412	-18.853016	-69.459137	30.099595
37546		9.024915	-1.795078	2.468889	0.808079	-0.579560	-0.337580	0.072411	-0.510951	-0.283829	-0.816162	-0.017334	-0.769775	0.090160	-0.018088	0.024913	0.805849	0.017377	-0.579692	0.119430	-18.648205	-69.790918	29.926302
37547		9.127975	-1.666872	2.464774	0.772986	-0.474845	-0.254956	0.123330	-0.541009	-0.278634	-0.827148	-0.023682	-0.773438	0.091189	-0.016811	0.024884	0.804424	0.019016	-0.581784	0.118607	-18.430047	-70.137939	29.769550
37548		9.278330	-1.485407	2.404510	0.789415	-0.302183	-0.150353	0.135690	-0.573538	-0.268115	-0.839600	-0.033447	-0.763184	0.092694	-0.014995	0.024301	0.802888	0.020694	-0.583995	0.117862	-18.231603	-70.500462	29.641982
37549		9.412519	-1.362523	2.223331	0.922964	-0.168764	-0.090830	0.139539	-0.588632	-0.257401	-0.839111	-0.032959	-0.753662	0.094042	-0.013762	0.022501	0.801294	0.022364	-0.586260	0.117164	-18.048531	-70.869242	29.532953
37550		9.702367	-1.132629	2.149466	0.976498	0.074875	0.141181	0.158038	-0.571220	-0.259810	-0.844727	-0.042969	-0.765869	0.096947	-0.011469	0.021763	0.799738	0.024113	-0.588439	0.116523	-17.836792	-71.229118	29.406611
37551		9.909147	-0.967432	2.175700	0.927538	0.224718	0.333724	0.130095	-0.518808	-0.243502	-0.846436	-0.033936	-0.756104	0.099023	-0.009809	0.022008	0.798326	0.025664	-0.590418	0.115859	-17.633500	-71.557104	29.271000
37552		10.100382	-1.117028	2.074001	1.065097	0.091174	0.503512	0.095508	-0.453682	-0.224962	-0.855713	-0.041260	-0.750977	0.100944	-0.011294	0.020964	0.797093	0.026988	-0.592155	0.115182	-17.441197	-71.846015	29.127339
37553		10.327089	-1.091869	2.113647	1.047089	0.109134	0.732452	0.142406	-0.389806	-0.214000	-0.850098	-0.037354	-0.748535	0.103218	-0.011044	0.021330	0.796032	0.028426	-0.593609	0.114687	-17.201114	-72.098086	28.960907
37554		10.476913	-1.093436	2.147057	1.024952	0.092460	0.888338	0.134186	-0.328070	-0.186987	-0.857666	-0.053711	-0.735352	0.104723	-0.011047	0.021635	0.795135	0.029715	-0.594824	0.114289	-16.975050	-72.311557	28.804909
37555		10.544677	-1.344546	2.087643	1.126589	-0.157886	0.960522	0.116550	-0.280351	-0.151148	-0.856201	-0.047363	-0.730713	0.105407	-0.013537	0.021016	0.794360	0.030800	-0.595861	0.113982	-16.790797	-72.492758	28.681908
37556		10.565539	-1.560579	2.098771	1.146927	-0.389972	1.004118	0.154503	-0.227087	-0.127377	-0.866943	-0.058105	-0.744873	0.105621	-0.015689	0.021096	0.793719	0.031943	-0.596670	0.113902	-16.595896	-72.641038	28.572212
37557		10.443145	-1.662462	2.058486	1.159454	-0.519574	0.885260	0.182715	-0.173988	-0.118177	-0.858154	-0.053467	-0.731445	0.104404	-0.016705	0.020660	0.793229	0.033132	-0.597250	0.113940	-16.370174	-72.758179	28.445683
37558		10.278096	-1.650186	1.860309	1.287624	-0.512739	0.670738	0.193617	-0.176690	-0.113682	-0.852783	-0.056885	-0.730957	0.102755	-0.016578	0.018678	0.792722	0.034359	-0.597835	0.114038	-16.145589	-72.876039	28.328393
37559		10.178917	-1.596129	1.582316	1.498087	-0.440076	0.493802	0.199218	-0.196712	-0.120848	-0.856445	-0.055908	-0.728760	0.101764	-0.016039	0.015907	0.792159	0.035634	-0.598492	0.114110	-15.912497	-73.005814	28.204209
37560		10.226450	-1.287533	1.288231	1.706497	-0.096203	0.433099	0.240877	-0.146760	-0.132048	-0.865234	-0.070313	-0.720459	0.102246	-0.012958	0.012942	0.791742	0.037081	-0.598925	0.114278	-15.607697	-73.109603	28.030895
37561		10.226248	-1.052161	1.184791	1.745231	0.134780	0.386474	0.233867	-0.073038	-0.120555	-0.868164	-0.072998	-0.717041	0.102252	-0.010597	0.011873	0.791539	0.038422	-0.599070	0.114477	-15.287180	-73.170656	27.836236
37562		10.195807	-1.050001	1.157716	1.762808	0.124004	0.349714	0.212945	-0.011788	-0.094155	-0.863281	-0.077881	-0.729004	0.101952	-0.010560	0.011572	0.791502	0.039579	-0.598992	0.114746	-14.995310	-73.194152	27.661490
37563		10.132668	-1.135351	1.193323	1.739475	0.015354	0.304525	0.243884	0.059539	-0.071020	-0.863037	-0.069580	-0.734131	0.101326	-0.011404	0.011889	0.791663	0.040735	-0.598615	0.115196	-14.692805	-73.173911	27.491689
37564		10.150504	-1.063385	1.320316	1.622038	0.054191	0.349634	0.294066	0.126134	-0.063684	-0.868408	-0.074463	-0.722900	0.101510	-0.010686	0.013123	0.792006	0.042037	-0.597945	0.115850	-14.344491	-73.115460	27.305606
37565		10.177939	-1.005818	1.470299	1.495380	0.077170	0.410899	0.321437	0.186448	-0.044454	-0.859131	-0.076904	-0.728516	0.101791	-0.010104	0.014592	0.792511	0.043346	-0.597023	0.116664	-13.989549	-73.020412	27.127336
37566		9.992339	-1.136718	1.531696	1.445890	-0.090274	0.256386	0.327346	0.229461	-0.027761	-0.851318	-0.077881	-0.719971	0.099939	-0.011406	0.015184	0.793127	0.044611	-0.595931	0.117581	-13.646389	-72.899186	26.966202
37567		9.754719	-1.270329	1.450721	1.521620	-0.235360	0.010859	0.355858	0.289724	-0.025564	-0.857422	-0.084717	-0.732422	0.097566	-0.012741	0.014343	0.793916	0.045940	-0.594578	0.118593	-13.267653	-72.743435	26.783434
37568		9.606694	-1.420102	1.696961	1.326796	-0.453092	-0.054660	0.405085	0.371925	-0.034426	-0.850098	-0.089600	-0.736328	0.096096	-0.014252	0.016762	0.794934	0.047448	-0.592866	0.119746	-12.817321	-72.542876	26.556415
37569		9.436599	-1.615731	2.565164	0.570634	-0.851975	0.045725	0.344055	0.524766	-0.008984	-0.849365	-0.093750	-0.738037	0.094432	-0.016205	0.025376	0.796400	0.048539	-0.590582	0.120843	-12.393712	-72.252844	26.319052
37570		9.253298	-1.953307	3.539716	-0.234521	-1.410245	0.183525	0.340336	0.695307	0.032261	-0.843262	-0.095215	-0.739014	0.092658	-0.019578	0.035042	0.798334	0.049400	-0.587625	0.122147	-11.991305	-71.862032	26.103116
37571		9.756385	-1.752492	5.440232	-1.807407	-1.561582	1.239367	0.513402	1.000590	0.032886	-0.828857	-0.098877	-0.754395	0.097837	-0.017648	0.053868	0.801106	0.050753	-0.583329	0.124021	-11.399831	-71.299066	25.789994
37572		10.816764	-0.616663	7.044907	-3.132559	-0.682782	2.706574	0.829350	1.196074	0.038080	-0.819824	-0.108154	-0.755127	0.108587	-0.006436	0.069774	0.804327	0.053241	-0.578031	0.126896	-10.604447	-70.624607	25.453363
37573		12.557431	2.115723	8.974278	-4.971420	1.717271	4.851477	0.975507	0.733360	0.090605	-0.809082	-0.111084	-0.759766	0.125893	0.020778	0.089384	0.806106	0.056448	-0.574489	0.130261	-9.974448	-70.204128	25.378171
37574		13.216529	3.826373	7.898350	-4.231383	3.687883	5.026329	0.500742	-0.162921	0.384305	-0.816895	-0.115234	-0.769287	0.132027	0.038319	0.079187	0.805232	0.057491	-0.574937	0.133205	-10.332717	-70.259479	26.066043
37575		12.236224	2.405960	4.550310	-1.144820	3.039334	3.058598	-0.221201	-0.406379	0.685113	-0.832764	-0.106445	-0.764160	0.122186	0.024529	0.045725	0.803656	0.054913	-0.576926	0.135198	-11.658597	-70.415414	27.339671
37576		10.855806	-1.662605	2.484075	1.427601	-0.479999	1.345906	-0.519103	0.192903	0.737631	-0.826172	-0.095215	-0.754883	0.108642	-0.016161	0.024778	0.803838	0.050590	-0.576710	0.136718	-13.040439	-70.219293	28.493499
37577		9.496735	-4.329180	2.632160	1.665952	-3.209070	0.325537	0.109409	0.879054	0.428551	-0.811768	-0.095215	-0.764404	0.095174	-0.043102	0.025880	0.806034	0.049205	-0.573216	0.138966	-13.314881	-69.675192	28.852625
37578		8.840276	-3.906587	4.151448	0.061976	-3.233001	0.196766	0.535222	0.961888	0.159849	-0.812744	-0.091064	-0.772949	0.088632	-0.039105	0.040984	0.808524	0.050257	-0.569012	0.141382	-12.909941	-69.120209	28.749971
37579		8.845467	-3.352944	4.704569	-0.496172	-2.818613	0.357174	0.513838	0.697376	0.119087	-0.802002	-0.092529	-0.782227	0.088638	-0.033597	0.046651	0.810279	0.051514	-0.565867	0.143489	-12.556546	-68.717698	28.687001
37580		8.722506	-3.279566	4.336930	-0.148918	-2.669104	0.112027	0.495864	0.503934	0.122489	-0.792969	-0.102539	-0.787842	0.087354	-0.032849	0.043068	0.811474	0.052830	-0.563511	0.145516	-12.286824	-68.422930	28.703798
37581		8.612622	-2.907520	4.019511	0.060414	-2.248775	-0.131452	0.631899	0.563065	0.084582	-0.793701	-0.113525	-0.784912	0.086251	-0.029165	0.039860	0.812817	0.054757	-0.560797	0.147776	-11.871170	-68.099575	28.646341
37582		8.463365	-2.048024	4.281895	-0.399772	-1.523259	-0.237891	0.768389	0.776658	0.064353	-0.786377	-0.112793	-0.802002	0.084805	-0.020616	0.042411	0.814714	0.057148	-0.557093	0.150409	-11.296831	-67.658384	28.504238
37583		8.108722	-0.991360	4.519310	-0.959562	-0.646901	-0.548873	0.856324	0.950935	0.089367	-0.786865	-0.121094	-0.807373	0.081305	-0.010070	0.044764	0.817027	0.059683	-0.552602	0.153415	-10.674477	-67.116000	28.361808
37584		7.853374	0.270699	4.771311	-1.573013	0.432611	-0.765483	0.869448	0.994104	0.140982	-0.777100	-0.124268	-0.812500	0.078768	0.002556	0.047333	0.819378	0.062102	-0.547915	0.156691	-10.119074	-66.543179	28.301712
37585		7.567186	1.311332	4.830254	-1.982105	1.348238	-1.062468	0.737050	0.889405	0.261750	-0.763916	-0.140137	-0.819824	0.075869	0.013035	0.048014	0.821359	0.063718	-0.543778	0.160044	-9.829005	-66.017526	28.446396
37586		7.359593	1.760951	4.787607	-2.111335	1.756704	-1.289672	0.521726	0.694319	0.381045	-0.761719	-0.130371	-0.824707	0.073728	0.017625	0.047666	0.822757	0.064293	-0.540634	0.163253	-9.854258	-65.590242	28.804571
37587		7.348650	1.565098	4.665912	-1.904881	1.630829	-1.331262	0.275918	0.558348	0.435678	-0.757080	-0.135986	-0.824707	0.073582	0.015747	0.046475	0.823809	0.063806	-0.538261	0.165958	-10.109320	-65.234115	29.259172
37588		7.388687	1.056220	4.507839	-1.547750	1.242432	-1.322132	0.123393	0.532682	0.423936	-0.757080	-0.133057	-0.827148	0.073984	0.010691	0.044888	0.824838	0.062752	-0.536107	0.168210	-10.432711	-64.892497	29.696192
37589		7.647806	0.635998	4.634534	-1.383698	0.907818	-1.001709	0.042747	0.548539	0.374942	-0.746582	-0.127197	-0.835938	0.076593	0.006494	0.046137	0.825968	0.061474	-0.533936	0.170030	-10.730339	-64.546325	30.052684
37590		8.064203	0.594056	4.891645	-1.398334	0.925607	-0.512144	0.033425	0.554619	0.302932	-0.736572	-0.130859	-0.837891	0.080768	0.006055	0.048694	0.827167	0.060354	-0.531718	0.171545	-10.939185	-64.203662	30.308088
37591		8.666542	0.805744	5.120451	-1.404244	1.226501	0.112069	0.006321	0.461648	0.203776	-0.736816	-0.128906	-0.836426	0.086775	0.008144	0.051005	0.828208	0.059454	-0.529876	0.172532	-11.064723	-63.923970	30.451970
37592		9.148746	1.044970	5.040701	-1.202806	1.608061	0.491071	-0.064049	0.366684	0.103734	-0.732910	-0.133301	-0.843262	0.091574	0.010513	0.050236	0.829099	0.058623	-0.528452	0.172906	-11.134436	-63.708286	30.491696
37593		9.526822	1.180058	4.928093	-0.977406	1.872693	0.769211	-0.124878	0.336177	0.007689	-0.736084	-0.119873	-0.845215	0.095350	0.011835	0.049113	0.830009	0.057806	-0.527181	0.172695	-11.137069	-63.520683	30.415023
37594		9.746116	1.267762	5.002655	-0.945445	2.003884	0.990594	-0.168180	0.493983	-0.055528	-0.724365	-0.118896	-0.852539	0.097588	0.012692	0.049775	0.831396	0.056852	-0.525268	0.172169	-11.059336	-63.251114	30.223059
37595		9.499623	1.098127	5.182823	-1.073341	1.763185	0.866684	-0.165245	0.709087	-0.121392	-0.717773	-0.124268	-0.861328	0.095186	0.010966	0.051482	0.833397	0.055885	-0.522438	0.171419	-10.865041	-62.867708	29.899168
37596		9.320934	0.791815	5.586236	-1.302858	1.348488	0.920268	-0.143122	0.776156	-0.198252	-0.725586	-0.120850	-0.870361	0.093433	0.007865	0.055494	0.835621	0.055160	-0.519275	0.170435	-10.568351	-62.453647	29.474753
37597		9.300673	0.341463	5.672579	-1.152602	0.913739	0.987008	-0.142185	0.643016	-0.259565	-0.710205	-0.127686	-0.867432	0.093193	0.003334	0.056424	0.837539	0.054703	-0.516648	0.169146	-10.242125	-62.120363	29.014498
37598		9.307722	-0.107947	5.242579	-0.573567	0.610781	0.837559	-0.127337	0.402359	-0.295575	-0.705811	-0.119141	-0.869385	0.093181	-0.001184	0.052239	0.838852	0.054615	-0.514999	0.167692	-9.922348	-61.925107	28.572251
37599		9.189462	-0.382966	4.528191	0.112889	0.505194	0.425932	-0.110810	0.238202	-0.308552	-0.694824	-0.124512	-0.873291	0.091942	-0.003946	0.045175	0.839746	0.054757	-0.514021	0.166166	-9.614013	-61.822806	28.150903
37600		9.201814	-0.447357	4.083794	0.542235	0.548891	0.234975	-0.082480	0.185824	-0.288554	-0.702881	-0.123535	-0.885254	0.092049	-0.004590	0.040754	0.840477	0.055015	-0.513240	0.164792	-9.321995	-61.746869	27.767550
37601		9.156352	-0.759542	3.803122	0.892140	0.305334	0.086312	-0.060849	0.278606	-0.245643	-0.701416	-0.129883	-0.890137	0.091607	-0.007696	0.037906	0.841403	0.055172	-0.512064	0.163668	-9.049156	-61.613948	27.418277
37602		8.864207	-0.966544	3.630514	1.023478	0.083663	-0.240107	0.026448	0.480486	-0.221280	-0.692871	-0.128174	-0.886475	0.088718	-0.009768	0.036091	0.842797	0.055474	-0.509968	0.162935	-8.722317	-61.363378	27.065305
37603		8.527436	-0.904067	3.848697	0.732931	0.009357	-0.442024	0.110836	0.665935	-0.206213	-0.689453	-0.129150	-0.891357	0.085392	-0.009150	0.038198	0.844621	0.055936	-0.507025	0.162521	-8.340922	-61.005754	26.702757
37604		8.163144	-0.685959	4.062360	0.391672	0.081127	-0.677599	0.129555	0.737047	-0.175654	-0.688721	-0.135742	-0.892578	0.081774	-0.006958	0.040318	0.846582	0.056346	-0.503765	0.162311	-7.978493	-60.603981	26.374258
37605		7.828693	-0.459015	4.177884	0.139593	0.196258	-0.930373	0.108315	0.697672	-0.140290	-0.672852	-0.133057	-0.906494	0.078429	-0.004668	0.041503	0.848411	0.056603	-0.500694	0.162174	-7.677733	-60.221079	26.100035
37606		7.576777	-0.211922	4.182161	-0.001284	0.378939	-1.164039	0.049142	0.582276	-0.103303	-0.681641	-0.139160	-0.903809	0.075888	-0.002169	0.041600	0.849927	0.056616	-0.498165	0.162022	-7.468724	-59.900199	25.893166
37607		7.406242	-0.081874	4.138952	-0.039957	0.483480	-1.341882	-0.018970	0.493755	-0.066404	-0.671875	-0.138428	-0.909668	0.074164	-0.000839	0.041207	0.851207	0.056312	-0.496075	0.161820	-7.349745	-59.626720	25.743141
37608		7.262366	-0.041717	4.087074	-0.037898	0.513975	-1.495107	-0.073551	0.454280	-0.039346	-0.667725	-0.132324	-0.908203	0.072716	-0.000416	0.040706	0.852374	0.055750	-0.494201	0.161600	-7.294966	-59.373635	25.632953
37609		7.265331	0.081652	4.164184	-0.105599	0.624312	-1.462172	-0.078111	0.454124	-0.019529	-0.663818	-0.145508	-0.914307	0.072748	0.000826	0.041476	0.853526	0.055109	-0.492336	0.161438	-7.263172	-59.119106	25.544150
37610		7.221671	0.314538	4.327407	-0.302777	0.807338	-1.432094	-0.080476	0.432971	0.004211	-0.654053	-0.138916	-0.920654	0.072310	0.003164	0.043116	0.854599	0.054427	-0.490566	0.161380	-7.258418	-58.874878	25.487149
37611		7.235719	0.582934	4.404885	-0.419496	1.059964	-1.398481	-0.135146	0.332366	0.032005	-0.655029	-0.136230	-0.920654	0.072429	0.005871	0.043925	0.855418	0.053514	-0.489276	0.161263	-7.323540	-58.685810	25.473025
37612		7.461891	0.800997	4.383423	-0.349617	1.338518	-1.232366	-0.201108	0.179613	0.057912	-0.651855	-0.127441	-0.926025	0.074656	0.008076	0.043759	0.855856	0.052387	-0.488696	0.161068	-7.468283	-58.581499	25.509733
37613		7.652055	0.857212	4.263664	-0.174475	1.481945	-1.138533	-0.294386	0.058086	0.071922	-0.655762	-0.125732	-0.920654	0.076530	0.008662	0.042602	0.856009	0.050916	-0.488717	0.160659	-7.694183	-58.545230	25.577082
37614		7.853799	0.869916	4.111213	0.040137	1.597103	-1.049778	-0.390714	0.023335	0.080627	-0.648438	-0.120850	-0.916504	0.078539	0.008811	0.041086	0.856092	0.049043	-0.488963	0.160051	-7.987423	-58.527777	25.659734
37615		8.124790	0.968833	4.362146	-0.071188	1.716003	-0.700642	-0.446688	0.075118	0.077229	-0.646973	-0.110352	-0.937012	0.081260	0.009817	0.043569	0.856315	0.046894	-0.489030	0.159296	-8.302525	-58.481073	25.729398
37616		8.453089	1.108795	4.570414	-0.131066	1.902767	-0.329279	-0.536319	0.072725	0.063008	-0.653564	-0.113770	-0.922119	0.084544	0.011237	0.045643	0.856559	0.044398	-0.489171	0.158262	-8.655542	-58.436524	25.783808
37617		8.841892	1.144343	4.847127	-0.186747	1.994156	0.135759	-0.643904	0.041619	0.034317	-0.647217	-0.101807	-0.927979	0.088427	0.011615	0.048416	0.856766	0.041535	-0.489521	0.156831	-9.047791	-58.412123	25.811453
37618		9.719114	0.787952	5.945427	-0.559620	1.653588	1.473691	-0.671566	0.286057	0.044177	-0.646973	-0.102539	-0.921143	0.097274	0.008100	0.059288	0.857558	0.038342	-0.488841	0.155431	-9.427826	-58.248478	25.807309
37619		9.951489	0.179862	7.051877	-1.140831	0.946346	2.294988	-0.584965	0.582340	0.012342	-0.637207	-0.091797	-0.932861	0.099720	0.002010	0.070223	0.859070	0.035362	-0.486811	0.154152	-9.683003	-57.920480	25.713356
37620		9.356378	-0.806317	8.357533	-2.142665	-0.334671	2.570217	-0.513071	0.797360	0.047574	-0.634766	-0.081543	-0.936523	0.093898	-0.007827	0.083222	0.861048	0.032446	-0.483797	0.153244	-9.893928	-57.467834	25.616809
37621		8.846560	-2.638415	8.959823	-2.290171	-2.241872	2.646437	-0.628743	0.554204	0.077781	-0.621338	-0.074951	-0.939209	0.088724	-0.026068	0.089435	0.862417	0.029137	-0.481915	0.152135	-10.233923	-57.149610	25.593026
37622		9.942200	-4.452926	7.515053	-0.094167	-3.368245	2.985598	-1.067626	-0.683503	-0.001622	-0.630615	-0.062988	-0.942139	0.099163	-0.044127	0.075726	0.860904	0.025069	-0.485677	0.149443	-10.954341	-57.536774	25.722666
37623		10.291338	-4.488908	4.203464	2.651314	-2.692131	1.564924	-1.104626	-1.505049	-0.203738	-0.653564	-0.057373	-0.920654	0.102546	-0.044758	0.043055	0.857496	0.021943	-0.492948	0.145677	-11.672575	-58.407484	25.823574
37624		10.207904	-2.909839	0.171529	5.422512	-0.519909	-0.700994	-0.334224	-0.842253	-0.503484	-0.654541	-0.060059	-0.927734	0.101997	-0.029352	0.002194	0.855805	0.022376	-0.496755	0.142592	-11.557530	-58.940435	25.465289
37625		9.821296	0.497379	2.774631	2.127989	2.141018	-0.050966	-0.136535	0.429818	-0.471492	-0.647705	-0.058105	-0.925537	0.098284	0.004761	0.027532	0.857212	0.022668	-0.494972	0.140271	-11.115300	-58.754312	24.857403
37626		7.823602	1.913398	3.950092	-0.097751	2.842439	-1.304855	-0.285278	1.018047	-0.418554	-0.640625	-0.060059	-0.938477	0.078476	0.019026	0.039075	0.860038	0.021780	-0.490766	0.137877	-10.712192	-58.229033	24.193675
37627		7.528716	3.271585	5.767393	-2.009673	3.780905	-0.740059	-0.243772	1.022293	-0.353832	-0.636475	-0.053955	-0.940430	0.075638	0.032652	0.057248	0.862797	0.020905	-0.486506	0.135855	-10.360054	-57.692465	23.613778
37628		6.871921	3.372393	7.527427	-3.749497	3.476920	-0.372857	-0.650059	0.349378	-0.096073	-0.633545	-0.057129	-0.929443	0.068867	0.033935	0.075044	0.863767	0.018109	-0.485441	0.133885	-10.587747	-57.507814	23.442734
37629		7.515875	1.760508	6.447821	-2.144059	2.282307	-0.254671	-0.894508	-0.712494	-0.005880	-0.638184	-0.037842	-0.932129	0.074929	0.017892	0.064666	0.862102	0.014747	-0.489122	0.131610	-11.215061	-57.911543	23.578807
37630		8.892232	0.646363	5.327949	-0.356641	1.704517	0.426595	-0.888807	-1.060661	0.061616	-0.652832	-0.037842	-0.933350	0.088636	0.006729	0.053721	0.859504	0.011477	-0.494288	0.129613	-11.974881	-58.502326	23.874482
37631		9.289239	-0.988149	4.494261	0.807265	0.362115	0.515952	-0.981194	-0.923564	0.153666	-0.660889	-0.018311	-0.925537	0.092691	-0.009588	0.045418	0.857152	0.007490	-0.498905	0.127781	-12.864224	-59.002434	24.257420
37632		9.181207	-3.065222	3.735829	1.782360	-1.525418	0.293859	-0.889130	-0.390933	0.229176	-0.658447	-0.014648	-0.918945	0.091774	-0.030380	0.037673	0.856046	0.003370	-0.501166	0.126519	-13.670859	-59.192736	24.604275
37633		8.310419	-4.172342	4.188015	1.186716	-2.797016	-0.077231	-0.776520	0.138929	0.220373	-0.657471	0.000244	-0.928955	0.083179	-0.041469	0.041984	0.856253	-0.000583	-0.501077	0.125506	-14.286596	-59.087284	24.803544
37634		7.308122	-4.819526	4.288100	0.756211	-3.607767	-0.788483	-0.539907	0.198709	0.210552	-0.656982	0.000000	-0.930176	0.073174	-0.048002	0.042938	0.856607	-0.003536	-0.500575	0.125042	-14.740883	-58.949026	24.972735
37635		6.697155	-4.799630	4.617832	0.168568	-3.733097	-1.138114	-0.273327	-0.080671	0.090824	-0.655762	0.008545	-0.922852	0.066975	-0.047903	0.046271	0.856336	-0.004873	-0.501104	0.124737	-14.998821	-58.982654	25.091268
37636		6.698781	-3.678565	4.545350	-0.033886	-2.633360	-1.319759	-0.051814	-0.518639	0.016918	-0.661621	0.008301	-0.917969	0.066873	-0.036768	0.045637	0.855015	-0.004803	-0.503368	0.124682	-15.171501	-59.269247	25.258261
37637		6.964450	-2.613330	4.111157	0.185647	-1.501661	-1.449385	-0.036103	-0.841085	0.015382	-0.676758	0.007080	-0.916504	0.069473	-0.026120	0.041409	0.852874	-0.004460	-0.506996	0.124665	-15.420475	-59.734075	25.523476
37638		7.212777	-1.893737	3.696944	0.435446	-0.715835	-1.531670	0.013509	-0.962482	-0.000215	-0.687256	0.012695	-0.908447	0.071949	-0.018940	0.037315	0.850417	-0.003790	-0.511101	0.124710	-15.666642	-60.267781	25.817126
37639		7.450235	-1.127902	3.586198	0.402758	0.072486	-1.477760	0.084187	-0.944203	-0.012850	-0.687256	0.010498	-0.898438	0.074331	-0.011299	0.036208	0.847997	-0.002800	-0.515072	0.124876	-15.863961	-60.792746	26.099440
37640		7.744148	-0.358306	3.555606	0.324732	0.865668	-1.334051	0.078241	-0.856438	-0.011749	-0.699219	0.004395	-0.894531	0.077288	-0.003602	0.035886	0.845784	-0.001894	-0.518665	0.125027	-16.049464	-61.268786	26.362693
37641		8.079982	0.102054	3.783173	0.105131	1.340892	-0.992284	-0.036943	-0.735201	0.048624	-0.700684	0.005371	-0.896240	0.080660	0.001047	0.038128	0.843834	-0.001706	-0.521808	0.125132	-16.333836	-61.667882	26.662546
37642		8.228947	-0.249966	3.886970	0.084453	1.018137	-0.766004	-0.292998	-0.689823	0.130832	-0.709961	0.008057	-0.893555	0.082156	-0.002389	0.039157	0.841936	-0.002837	-0.524910	0.124917	-16.844484	-62.027548	27.052105
37643		8.403550	-1.111357	3.837699	0.311685	0.236087	-0.515945	-0.368590	-0.672684	0.112775	-0.718262	0.015625	-0.882568	0.083912	-0.010995	0.038680	0.840082	-0.004254	-0.527981	0.124422	-17.385932	-62.379233	27.425708
37644		8.549143	-1.581021	3.871527	0.369479	-0.185248	-0.304534	-0.316201	-0.646548	0.061275	-0.720215	0.024658	-0.870117	0.085370	-0.015723	0.039016	0.838317	-0.005328	-0.530902	0.123849	-17.845051	-62.723988	27.739553
37645		8.607977	-1.765552	3.885614	0.352635	-0.350933	-0.217658	-0.307495	-0.603908	0.015839	-0.721436	0.019287	-0.869141	0.085963	-0.017589	0.039143	0.836684	-0.006274	-0.533635	0.123104	-18.245410	-63.052534	27.991666
37646		8.594794	-1.733005	4.026516	0.155141	-0.339843	-0.171795	-0.294683	-0.525920	-0.029437	-0.730957	0.030029	-0.868164	0.085839	-0.017283	0.040516	0.835278	-0.007093	-0.536029	0.122200	-18.568885	-63.346156	28.165156
37647		8.496314	-1.396984	4.211253	-0.165709	-0.060677	-0.229250	-0.246416	-0.429859	-0.083488	-0.738525	0.026367	-0.862793	0.084867	-0.013953	0.042312	0.834159	-0.007624	-0.537990	0.121195	-18.775224	-63.597172	28.238237
37648		8.371166	-0.956813	4.441515	-0.547010	0.306706	-0.308710	-0.251939	-0.346580	-0.125638	-0.734375	0.026855	-0.859619	0.083629	-0.009565	0.044572	0.833283	-0.008116	-0.539606	0.119995	-18.909432	-63.810747	28.227097
37649		8.180766	-0.806582	4.541885	-0.773986	0.396741	-0.461341	-0.370664	-0.306394	-0.148461	-0.740479	0.037842	-0.856689	0.081732	-0.008042	0.045559	0.832520	-0.009065	-0.541123	0.118378	-19.072189	-64.006802	28.172110
37650		8.010697	-0.959294	4.529103	-0.832250	0.213885	-0.600424	-0.482789	-0.295908	-0.179515	-0.750000	0.032227	-0.849365	0.080031	-0.009555	0.045433	0.831793	-0.010403	-0.542660	0.116325	-19.261174	-64.203061	28.074766
37651		7.800535	-1.070527	4.503508	-0.902702	0.064820	-0.787346	-0.508454	-0.298768	-0.231936	-0.741699	0.053223	-0.849609	0.077926	-0.010681	0.045179	0.831079	-0.011703	-0.544222	0.113986	-19.407632	-64.410969	27.914266
37652		7.668323	-0.972457	4.390205	-0.901712	0.141404	-0.970201	-0.513980	-0.333123	-0.283805	-0.749512	0.046875	-0.844971	0.076596	-0.009720	0.044055	0.830293	-0.012868	-0.545926	0.111412	-19.511597	-64.647473	27.702984
37653		7.562076	-0.880772	4.254789	-0.870006	0.215918	-1.137416	-0.545011	-0.362108	-0.325790	-0.761719	0.048584	-0.849609	0.075529	-0.008815	0.042709	0.829437	-0.014028	-0.547765	0.108584	-19.595807	-64.907842	27.451149
37654		7.531576	-0.904833	4.038034	-0.716399	0.198053	-1.251349	-0.585552	-0.369598	-0.354302	-0.757568	0.045898	-0.841309	0.075225	-0.009063	0.040546	0.828563	-0.015275	-0.549650	0.105522	-19.670998	-65.177826	27.163895
37655		7.626292	-1.108055	3.905448	-0.565047	0.019249	-1.191732	-0.627944	-0.359834	-0.377215	-0.762939	0.055420	-0.837646	0.076172	-0.011101	0.039226	0.827711	-0.016639	-0.551510	0.102250	-19.737284	-65.447184	26.841129
37656		7.748155	-1.536654	3.782799	-0.382015	-0.379403	-1.071135	-0.631462	-0.355633	-0.403241	-0.756592	0.044922	-0.837646	0.077383	-0.015403	0.038014	0.826869	-0.017948	-0.553347	0.098856	-19.769327	-65.719346	26.478974
37657		7.834164	-1.812842	3.714065	-0.289685	-0.645715	-0.983545	-0.581156	-0.379968	-0.435863	-0.771973	0.049072	-0.830078	0.078231	-0.018191	0.037342	0.825966	-0.018946	-0.555253	0.095469	-19.739839	-66.011038	26.082046
37658		7.904409	-2.035415	3.625979	-0.198541	-0.866217	-0.925599	-0.553422	-0.424827	-0.446910	-0.777100	0.061279	-0.816162	0.078921	-0.020430	0.036484	0.824933	-0.019774	-0.557323	0.092118	-19.694483	-66.328857	25.686440
37659		7.963311	-2.237933	3.481237	-0.069145	-1.069126	-0.902381	-0.533740	-0.492972	-0.456443	-0.770020	0.061035	-0.822266	0.079496	-0.022467	0.035068	0.823701	-0.020465	-0.559656	0.088785	-19.650311	-66.685253	25.305081
37660		8.007983	-2.403729	3.297466	0.078797	-1.240333	-0.911341	-0.488526	-0.574788	-0.463427	-0.780762	0.061035	-0.817871	0.079929	-0.024142	0.033263	0.822233	-0.020917	-0.562295	0.085553	-19.600971	-67.086910	24.946802
37661		8.118701	-2.361263	3.133704	0.200148	-1.203122	-0.878432	-0.391493	-0.668140	-0.486303	-0.788818	0.058838	-0.815674	0.081024	-0.023748	0.031654	0.820505	-0.020862	-0.565269	0.082512	-19.501330	-67.543286	24.595944
37662		8.246268	-2.378405	2.922536	0.371478	-1.224162	-0.837064	-0.365843	-0.762673	-0.473433	-0.794678	0.060791	-0.799072	0.082294	-0.023925	0.029583	0.818489	-0.020701	-0.568604	0.079601	-19.438673	-68.047936	24.301699
37663		8.456321	-2.552527	2.556531	0.723883	-1.379995	-0.750043	-0.377135	-0.838467	-0.436619	-0.799072	0.059570	-0.789063	0.084399	-0.025661	0.025968	0.816221	-0.020658	-0.572237	0.076818	-19.461414	-68.586613	24.093887
37664		8.791036	-2.948714	2.131210	1.191269	-1.735783	-0.534405	-0.296097	-0.815306	-0.412604	-0.816650	0.059082	-0.788086	0.087761	-0.029636	0.021714	0.813999	-0.020364	-0.575728	0.074357	-19.454622	-69.108080	23.904493
37665		9.250830	-2.943244	1.905001	1.478434	-1.693707	-0.178653	-0.094708	-0.685570	-0.428313	-0.811523	0.057861	-0.780762	0.092379	-0.029621	0.019381	0.812159	-0.019250	-0.578606	0.072401	-19.237450	-69.562385	23.614643
37666		9.664873	-2.604674	2.081772	1.350912	-1.354920	0.230554	0.038522	-0.572212	-0.391423	-0.822998	0.050537	-0.778564	0.096537	-0.026240	0.021089	0.810636	-0.017746	-0.580963	0.070965	-18.928826	-69.947804	23.308997
37667		9.803171	-2.737556	2.242741	1.199802	-1.517249	0.428617	0.013142	-0.559033	-0.320838	-0.823975	0.045898	-0.764893	0.097924	-0.027534	0.022699	0.809114	-0.016551	-0.583264	0.069742	-18.723168	-70.312668	23.098577
37668		9.727398	-3.110311	2.005726	1.381371	-1.919234	0.322759	0.091447	-0.560690	-0.278979	-0.829834	0.049805	-0.771973	0.097174	-0.031248	0.020316	0.807571	-0.015162	-0.585534	0.068916	-18.530301	-70.670425	22.949685
37669		9.926183	-2.981357	1.861028	1.517972	-1.793617	0.451787	0.272767	-0.535212	-0.274487	-0.830566	0.046143	-0.751709	0.099171	-0.029975	0.018835	0.806106	-0.013062	-0.587632	0.068636	-18.219826	-71.013389	22.786702
37670		10.214965	-2.571596	2.007270	1.384130	-1.397575	0.728587	0.373345	-0.483613	-0.250754	-0.841064	0.039307	-0.753418	0.102068	-0.025882	0.020271	0.804782	-0.010647	-0.589480	0.068741	-17.854465	-71.323624	22.626321
37671		10.625269	-2.263254	2.155346	1.296013	-1.087137	1.132744	0.426285	-0.444019	-0.197609	-0.841797	0.029053	-0.747559	0.106182	-0.022784	0.021741	0.803551	-0.008186	-0.591141	0.069216	-17.515988	-71.602757	22.527178
37672		10.765879	-2.187184	1.960059	1.479178	-1.012133	1.201722	0.446109	-0.416581	-0.133969	-0.840576	0.029785	-0.754883	0.107603	-0.021988	0.019776	0.802371	-0.005844	-0.592677	0.070003	-17.251999	-71.855769	22.518410
37673		10.788336	-2.111463	1.655923	1.735106	-0.936375	1.128110	0.521682	-0.382718	-0.086679	-0.851074	0.015625	-0.752686	0.107842	-0.021205	0.016710	0.801269	-0.003349	-0.594043	0.071202	-17.002509	-72.082299	22.570620
37674		10.647849	-2.096479	1.294084	2.012366	-0.927602	0.889483	0.551155	-0.321629	-0.047719	-0.849854	0.018799	-0.737305	0.106453	-0.021026	0.013054	0.800326	-0.000875	-0.595147	0.072644	-16.769315	-72.268889	22.657504
37675		10.369700	-2.192314	1.086618	2.125402	-1.050317	0.574668	0.565978	-0.248932	-0.028394	-0.849365	0.017578	-0.745361	0.103680	-0.021969	0.010933	0.799585	0.001576	-0.595948	0.074205	-16.521107	-72.412540	22.737584
37676		10.187217	-2.239329	1.113448	2.046691	-1.131034	0.413043	0.651189	-0.174776	-0.019943	-0.856689	0.009766	-0.734619	0.101860	-0.022440	0.011150	0.799053	0.004311	-0.596416	0.076053	-16.200155	-72.514193	22.792110
37677		9.941249	-2.027338	1.108043	1.954972	-0.960179	0.158391	0.736085	-0.163434	-0.023077	-0.843506	-0.001465	-0.741699	0.099401	-0.020326	0.011087	0.798543	0.007394	-0.596798	0.078142	-15.816741	-72.610177	22.832532
37678		9.900489	-1.578004	1.199418	1.795062	-0.541758	0.108635	0.809161	-0.160497	-0.006754	-0.848145	-0.002686	-0.734619	0.098995	-0.015832	0.012010	0.798020	0.010717	-0.597132	0.080514	-15.418036	-72.702161	22.900670
37679		9.970073	-1.338256	1.186998	1.788408	-0.305796	0.152769	0.831891	-0.167385	0.019269	-0.852051	-0.013672	-0.734375	0.099692	-0.013422	0.011898	0.797452	0.014057	-0.597474	0.083055	-15.053297	-72.794109	23.018085
37680		9.928621	-1.246063	1.066259	1.874461	-0.213000	0.072055	0.858690	-0.136824	0.028664	-0.853760	-0.021973	-0.734375	0.099281	-0.012492	0.010677	0.796953	0.017462	-0.597673	0.085715	-14.675325	-72.868073	23.137581
37681		9.805474	-1.177982	1.100394	1.798965	-0.171478	-0.041293	0.898552	-0.068621	0.031107	-0.847168	-0.020264	-0.725098	0.098053	-0.011814	0.010985	0.796639	0.020990	-0.597572	0.088507	-14.244739	-72.903995	23.225975
37682		9.635921	-1.131145	1.227110	1.632517	-0.169461	-0.172022	0.912388	-0.006794	0.030702	-0.856689	-0.041992	-0.731201	0.096361	-0.011352	0.012223	0.796491	0.024545	-0.597207	0.091346	-13.778042	-72.905950	23.284859
37683		9.353481	-1.213542	1.274086	1.539137	-0.296557	-0.425106	0.899740	0.042936	0.037085	-0.849854	-0.042236	-0.729736	0.093540	-0.012175	0.012666	0.796474	0.028009	-0.596636	0.094174	-13.307119	-72.879342	23.331758
37684		9.073078	-1.089723	1.329499	1.406516	-0.223388	-0.688676	0.940566	0.106226	0.012403	-0.846436	-0.055176	-0.734619	0.090738	-0.010954	0.013195	0.796634	0.031681	-0.595780	0.097040	-12.743551	-72.820912	23.306867
37685		8.782658	-1.042959	1.432324	1.243956	-0.236050	-0.943009	0.875908	0.147573	0.020476	-0.847656	-0.047852	-0.736572	0.087838	-0.010483	0.014213	0.796908	0.035049	-0.594778	0.099743	-12.215778	-72.738084	23.279981
37686		8.634729	-1.165895	1.690940	1.009926	-0.425264	-1.004948	0.785723	0.186556	0.023365	-0.849365	-0.062012	-0.724121	0.086364	-0.011715	0.016783	0.797296	0.038028	-0.593657	0.102198	-11.733850	-72.633198	23.247200
37687		8.949680	-1.473347	3.089932	-0.115335	-0.947366	-0.278318	0.590882	0.412301	0.063427	-0.841797	-0.073486	-0.736572	0.089565	-0.014796	0.030671	0.798361	0.039996	-0.591733	0.104272	-11.354279	-72.396718	23.204437
37688		9.593643	-1.898967	5.049306	-1.606271	-1.648856	0.950205	0.451396	0.848354	0.107838	-0.832520	-0.077637	-0.731201	0.096160	-0.019051	0.050043	0.800704	0.041050	-0.588141	0.106204	-10.988768	-71.910372	23.093301
37689		11.813246	-1.524637	8.067061	-3.701653	-1.581839	3.998368	0.779032	1.611859	0.098461	-0.822754	-0.080078	-0.749756	0.118785	-0.015500	0.079655	0.805191	0.043034	-0.581283	0.109205	-10.197800	-70.994436	22.730074
37690		14.597190	2.888147	12.820441	-8.034378	2.064834	7.990722	1.494396	1.300980	0.050370	-0.811035	-0.083740	-0.765381	0.146796	0.027964	0.127463	0.808572	0.048208	-0.575226	0.114027	-9.065194	-70.257080	22.438675
37691		15.477877	7.505063	11.883453	-7.971259	6.737716	8.302674	0.742042	-0.647360	0.235958	-0.815186	-0.082764	-0.759033	0.154304	0.074790	0.119612	0.806378	0.050909	-0.577483	0.116946	-9.177127	-70.604065	23.008939
37692		15.304550	6.814509	5.264388	-1.985200	7.468939	5.955873	-0.261934	-1.538829	0.790666	-0.830811	-0.088379	-0.746338	0.152364	0.068818	0.053728	0.801499	0.048479	-0.584032	0.118973	-11.069466	-71.394653	24.851893
37693		13.456912	0.231909	1.040993	2.837440	1.870844	3.251493	-1.355045	-0.333014	1.010018	-0.836670	-0.069092	-0.748047	0.134537	0.003070	0.010615	0.800216	0.040307	-0.586409	0.118968	-13.646166	-71.459453	26.751344
37694		11.585154	-5.917804	0.950401	3.862162	-4.218379	1.910233	-0.488673	1.194452	0.566966	-0.829590	-0.053223	-0.757568	0.116073	-0.058827	0.008955	0.803450	0.035995	-0.582033	0.120038	-14.359560	-70.719158	27.210731
37695		9.285854	-5.562649	3.782543	0.622220	-4.718177	0.619301	0.630839	1.554729	0.086587	-0.812500	-0.062988	-0.772705	0.093172	-0.055704	0.036926	0.807773	0.037355	-0.575417	0.122487	-13.530220	-69.844947	26.713962
37696		8.717789	-4.245332	4.683735	-0.535893	-3.703300	0.284681	0.770617	1.051416	-0.081311	-0.805664	-0.071777	-0.773438	0.087405	-0.042668	0.046214	0.810677	0.040070	-0.570685	0.124564	-12.599098	-69.270942	26.192304
37697		8.928806	-2.897992	4.654258	-0.663709	-2.378425	0.369945	0.816551	0.556304	-0.041364	-0.805420	-0.076416	-0.776855	0.089411	-0.029187	0.046175	0.812108	0.043163	-0.567919	0.126826	-11.890083	-68.966739	25.934438
37698		8.181940	-2.164690	3.703400	-0.153474	-1.596724	-0.714785	0.643667	0.471278	0.085028	-0.803711	-0.071777	-0.784668	0.081915	-0.021731	0.036771	0.813237	0.045252	-0.565625	0.129099	-11.500667	-68.694749	25.913734
37699		6.745974	-2.088977	2.642057	0.381422	-1.510113	-2.435277	0.492151	0.740551	0.230652	-0.787598	-0.078125	-0.784424	0.067581	-0.020876	0.026119	0.815055	0.046134	-0.562355	0.131584	-11.330956	-68.254924	26.034674
37700		5.875525	-1.464267	2.698811	-0.055725	-1.043594	-3.266185	0.597932	1.122458	0.255759	-0.781738	-0.081299	-0.804199	0.058924	-0.014647	0.026614	0.817878	0.047124	-0.557448	0.134558	-11.033252	-67.597798	26.083738
37701		5.567869	-0.086017	3.237742	-0.935582	0.120540	-3.440800	0.758649	1.434482	0.149675	-0.770020	-0.088379	-0.810303	0.055910	-0.000940	0.031973	0.821562	0.048854	-0.551102	0.137607	-10.431889	-66.776535	25.903169
37702		6.177977	2.048110	4.589828	-2.424780	1.959414	-2.484057	0.810270	1.529288	0.057521	-0.755127	-0.096436	-0.824219	0.062123	0.020314	0.045507	0.825500	0.050982	-0.544268	0.140440	-9.690058	-65.910094	25.600929
37703		6.600035	4.057454	6.418232	-4.371688	3.527107	-1.466173	0.427407	1.179634	0.262443	-0.751221	-0.101318	-0.833740	0.066325	0.040525	0.063878	0.828392	0.051214	-0.539168	0.142973	-9.520277	-65.220802	25.683681
37704		6.893616	3.600314	6.164631	-3.854750	3.242690	-1.262108	-0.339532	0.356468	0.452919	-0.744141	-0.090576	-0.835449	0.068964	0.036264	0.061462	0.829104	0.048347	-0.538059	0.144021	-10.187678	-64.977178	26.206203
37705		8.232161	2.068015	5.230815	-2.079228	2.310177	-0.339243	-0.537704	-0.039129	0.424313	-0.749268	-0.087891	-0.834717	0.082267	0.020995	0.052268	0.828811	0.045016	-0.538721	0.144311	-11.013448	-64.956716	26.777818
37706		8.851302	1.345810	4.603624	-1.096947	1.933667	0.006049	-0.421840	0.014573	0.256640	-0.744629	-0.074951	-0.836426	0.088499	0.013669	0.046001	0.828750	0.042581	-0.539033	0.144237	-11.557438	-64.921818	27.112648
37707		9.271619	1.046147	4.267449	-0.556230	1.841323	0.265432	-0.419781	0.136615	0.121321	-0.744141	-0.081055	-0.845947	0.092739	0.010607	0.042589	0.829110	0.040428	-0.538807	0.143626	-11.906425	-64.833293	27.232710
37708		9.587878	0.583547	4.376351	-0.381133	1.471536	0.632861	-0.480726	0.391182	0.060424	-0.742920	-0.069336	-0.844727	0.095962	0.005969	0.043562	0.830207	0.038005	-0.537552	0.142654	-12.151984	-64.608864	27.200595
37709		9.686696	-0.101191	4.714414	-0.401212	0.800483	0.923503	-0.428805	0.694436	-0.019417	-0.729248	-0.062012	-0.842285	0.097030	-0.000921	0.046809	0.832154	0.035793	-0.534980	0.141541	-12.197051	-64.224533	26.978426
37710		9.873650	-0.287740	5.268845	-0.691621	0.571590	1.346471	-0.248825	0.769153	-0.149267	-0.728271	-0.077148	-0.852783	0.098936	-0.002886	0.052312	0.834348	0.034625	-0.531937	0.140382	-11.976208	-63.813568	26.574721
37711		10.044115	0.065566	5.612037	-0.946184	0.883842	1.620014	-0.146923	0.577341	-0.262293	-0.722412	-0.068115	-0.857910	0.100603	0.000565	0.055830	0.836082	0.034316	-0.529597	0.138985	-11.623880	-63.522746	26.087939
37712		10.147665	-0.003563	5.213573	-0.480708	0.914434	1.549047	-0.195749	0.352254	-0.315058	-0.722656	-0.070068	-0.866943	0.101568	-0.000145	0.051957	0.837256	0.034105	-0.528216	0.137208	-11.298936	-63.362883	25.600880
37713		10.160374	-0.304365	4.528349	0.243757	0.750760	1.287248	-0.160215	0.266611	-0.360817	-0.721924	-0.069824	-0.859131	0.101658	-0.003191	0.045151	0.838226	0.034215	-0.527161	0.135308	-10.926065	-63.255069	25.081056
37714		9.888607	-0.441303	4.242730	0.454803	0.603680	0.930154	-0.132312	0.295822	-0.348839	-0.717773	-0.069092	-0.867188	0.098941	-0.004558	0.042284	0.839254	0.034395	-0.525962	0.133542	-10.548068	-63.127866	24.573707
37715		9.625729	-0.873971	3.926345	0.774777	0.184036	0.589253	-0.116891	0.373454	-0.283987	-0.718018	-0.072998	-0.873291	0.096318	-0.008854	0.039089	0.840437	0.034413	-0.524436	0.132096	-10.221945	-62.948947	24.132937
37716		9.378078	-1.200031	3.759729	0.948875	-0.156446	0.316424	0.029544	0.493888	-0.265717	-0.702637	-0.070801	-0.875000	0.093857	-0.012131	0.037364	0.841891	0.034922	-0.522305	0.131135	-9.814450	-62.698841	23.694792
37717		9.161349	-0.992778	3.899559	0.742436	-0.038215	0.165761	0.176451	0.600292	-0.256810	-0.705811	-0.075928	-0.876221	0.091717	-0.010080	0.038712	0.843585	0.035953	-0.519629	0.130607	-9.321450	-62.386341	23.253407
37718		8.832181	-0.810667	3.971649	0.559692	0.051409	-0.111023	0.180266	0.655977	-0.200596	-0.698975	-0.078613	-0.880371	0.088443	-0.008231	0.039419	0.845376	0.036818	-0.516717	0.130338	-8.887393	-62.035430	22.880086
37719		8.425130	-0.926340	3.947574	0.500710	-0.134050	-0.476990	0.144600	0.662795	-0.134587	-0.691162	-0.084229	-0.884766	0.084375	-0.009349	0.039190	0.847137	0.037356	-0.513807	0.130252	-8.551808	-61.673939	22.593726
37720		8.070753	-0.906361	3.877339	0.463425	-0.165523	-0.826597	0.177525	0.653793	-0.093278	-0.684326	-0.084229	-0.894287	0.080829	-0.009136	0.038501	0.848832	0.037935	-0.510915	0.130429	-8.249359	-61.313267	22.366250
37721		7.762026	-0.615543	3.830568	0.349538	0.069608	-1.142398	0.169619	0.634967	-0.058876	-0.676758	-0.091064	-0.897461	0.077740	-0.006211	0.038054	0.850448	0.038403	-0.508109	0.130720	-7.995720	-60.960043	22.187871
37722		7.483557	-0.408775	3.802840	0.247306	0.228862	-1.415154	0.106994	0.600610	-0.012886	-0.681152	-0.087891	-0.904785	0.074949	-0.004113	0.037801	0.851951	0.038512	-0.505492	0.131046	-7.833861	-60.622167	22.073676
37723		7.136344	-0.302801	3.787129	0.122239	0.280080	-1.733834	0.049440	0.570102	0.031304	-0.670410	-0.093994	-0.902344	0.071471	-0.003026	0.037667	0.853352	0.038281	-0.503049	0.131402	-7.756146	-60.298270	22.017179
37724		6.953744	-0.188638	3.874773	-0.023226	0.352169	-1.857860	0.017828	0.550971	0.061324	-0.660400	-0.092041	-0.908936	0.069644	-0.001868	0.038556	0.854683	0.037856	-0.500710	0.131809	-7.729820	-59.982845	21.999906
37725		6.831533	0.078450	4.020389	-0.234176	0.572931	-1.909757	0.007354	0.509126	0.086655	-0.665771	-0.085693	-0.915771	0.068417	0.000813	0.040030	0.855890	0.037346	-0.498558	0.132282	-7.740190	-59.689270	22.017045
37726		6.817161	0.344086	4.187964	-0.419991	0.809942	-1.856644	-0.050093	0.394273	0.122023	-0.656738	-0.093018	-0.908936	0.068252	0.003493	0.041744	0.856793	0.036580	-0.496938	0.132746	-7.832153	-59.457979	22.091337
37727		6.972889	0.572041	4.078190	-0.295756	1.099196	-1.794938	-0.138028	0.182436	0.156846	-0.646729	-0.085938	-0.918457	0.069762	0.005803	0.040714	0.857159	0.035489	-0.496290	0.133096	-8.034886	-59.344213	22.235262
37728		7.324746	0.729052	3.814878	0.052549	1.389474	-1.639360	-0.250745	-0.006606	0.179775	-0.653076	-0.082520	-0.925537	0.073240	0.007404	0.038142	0.857060	0.033989	-0.496528	0.133239	-8.348621	-59.335256	22.434361
37729		7.637098	0.898547	3.666988	0.272068	1.664578	-1.461966	-0.320643	-0.052247	0.196384	-0.655762	-0.072754	-0.919434	0.076352	0.009119	0.036675	0.856846	0.032173	-0.497012	0.133264	-8.725140	-59.350335	22.658763
37730		8.056306	1.220230	3.791034	0.273181	2.059713	-1.069241	-0.354423	-0.003933	0.200506	-0.655762	-0.073486	-0.919189	0.080550	0.012350	0.037890	0.856752	0.030171	-0.497308	0.133230	-9.117761	-59.336651	22.879512
37731		8.581360	1.448485	4.486359	-0.127454	2.288481	-0.293667	-0.433537	0.090399	0.198287	-0.648682	-0.069092	-0.924805	0.085819	0.014667	0.044793	0.856901	0.027771	-0.497252	0.133003	-9.538489	-59.269323	23.080196
37732		9.617246	1.104708	6.260849	-1.021088	1.895600	1.513102	-0.384637	0.612645	0.225216	-0.643799	-0.057861	-0.926758	0.096351	0.011276	0.062292	0.858316	0.025169	-0.494922	0.133087	-9.869706	-58.903516	23.210213
37733		9.678530	0.041568	8.468208	-2.504792	0.562156	2.788702	-0.214068	0.889451	0.205954	-0.641113	-0.057617	-0.929688	0.097160	0.000606	0.084250	0.860391	0.023160	-0.491282	0.133540	-10.036278	-58.383382	23.261917
37734		9.693712	-0.556939	9.879883	-3.458579	-0.199977	3.599555	-0.167695	0.413839	0.086158	-0.635254	-0.049561	-0.935303	0.097144	-0.005445	0.098603	0.861362	0.021961	-0.489635	0.133534	-10.141328	-58.143236	23.272656
37735		10.516189	-1.836763	9.218166	-2.174059	-1.106314	4.079317	-0.426587	-0.060238	0.136077	-0.638672	-0.047363	-0.925537	0.105146	-0.018099	0.092252	0.861162	0.019842	-0.490207	0.133057	-10.516990	-58.165429	23.427434
37736		11.323891	-4.683996	7.154917	0.542010	-3.283050	3.981775	-1.148316	-1.027220	0.274608	-0.654541	-0.030029	-0.926758	0.112932	-0.046271	0.072396	0.858543	0.014916	-0.495419	0.131305	-11.607980	-58.714907	23.935564
37737		10.823209	-6.927602	2.438120	4.631874	-4.787945	1.443200	-1.040646	-1.386443	0.090918	-0.666016	-0.021729	-0.920654	0.108089	-0.069096	0.025491	0.855088	0.011144	-0.502056	0.128998	-12.565091	-59.483020	24.356376
37738		9.716136	-3.738418	-0.701103	5.953073	-1.505166	-1.376713	0.396316	-0.393174	-0.607604	-0.663574	-0.030273	-0.916260	0.097061	-0.037665	-0.006895	0.854457	0.014624	-0.503458	0.127359	-11.837002	-59.779006	23.775284
37739		9.434731	1.574176	3.173622	1.293382	2.917765	-0.253548	0.543717	0.502691	-0.661445	-0.661865	-0.035156	-0.923584	0.094478	0.015344	0.031541	0.856086	0.018303	-0.500923	0.125926	-10.791262	-59.573168	22.924976
37740		8.015747	2.755953	4.091821	-0.350890	3.602367	-1.124211	-0.122907	0.889971	-0.362222	-0.646240	-0.040771	-0.929688	0.080388	0.027439	0.040544	0.858539	0.018129	-0.497166	0.124132	-10.357813	-59.112027	22.338677
37741		6.863937	3.049653	4.957857	-1.616255	3.539690	-1.697758	-0.308559	0.865027	-0.126815	-0.646729	-0.040771	-0.927979	0.068872	0.030529	0.049234	0.860780	0.016593	-0.493641	0.122887	-10.267008	-58.639633	22.026358
37742		6.538109	3.171349	6.572165	-3.108338	3.381941	-1.158315	-0.421262	0.356958	-0.045132	-0.641846	-0.036377	-0.934570	0.065505	0.031837	0.065538	0.861714	0.014682	-0.492371	0.121668	-10.404465	-58.445151	21.904585
37743		6.877369	2.516892	6.255113	-2.534301	2.886808	-0.980768	-0.529949	-0.582915	-0.001014	-0.645752	-0.033203	-0.918213	0.068591	0.025335	0.062684	0.860305	0.012767	-0.495216	0.120304	-10.805682	-58.775763	22.019167
37744		8.343171	1.672672	5.165281	-0.793933	2.524539	-0.216754	-0.660607	-1.063997	0.063414	-0.651123	-0.021729	-0.914063	0.083150	0.016925	0.052040	0.857651	0.010420	-0.500199	0.118859	-11.437343	-59.369247	22.314715
37745		8.853366	0.098605	4.377478	0.354908	1.225945	-0.018596	-0.863534	-0.967072	0.177196	-0.661865	-0.020996	-0.918701	0.088320	0.001255	0.044197	0.855147	0.006859	-0.504872	0.117395	-12.293885	-59.892875	22.734284
37746		8.850454	-2.019296	4.027242	1.004029	-0.746222	0.039272	-0.925439	-0.542969	0.321419	-0.671143	-0.002197	-0.909180	0.088427	-0.019863	0.040605	0.853600	0.002422	-0.507752	0.116400	-13.251976	-60.157709	23.228479
37747		8.145662	-3.855952	3.835481	1.159260	-2.595023	-0.439712	-0.746432	-0.082624	0.356526	-0.670410	0.012207	-0.912109	0.081509	-0.038271	0.038532	0.853177	-0.001610	-0.508554	0.116014	-14.042999	-60.157800	23.647642
37748		7.446009	-4.799881	4.183252	0.698825	-3.647577	-0.746917	-0.449721	0.105958	0.247859	-0.672363	0.015381	-0.903564	0.074542	-0.047812	0.041901	0.853290	-0.004214	-0.508373	0.115909	-14.512099	-60.066233	23.890842
37749		7.118008	-4.659852	4.637907	0.116618	-3.604614	-0.819157	-0.110337	-0.047509	0.071070	-0.676758	0.013428	-0.905273	0.071186	-0.046548	0.046422	0.853119	-0.004827	-0.508653	0.115922	-14.653618	-60.084627	23.981457
37750		7.168954	-3.539847	4.997544	-0.412438	-2.543468	-0.742936	0.017802	-0.454461	0.015917	-0.680908	0.018066	-0.906494	0.071579	-0.035397	0.050135	0.851944	-0.004518	-0.510596	0.116033	-14.772450	-60.336719	24.130099
37751		7.315522	-2.758112	4.419327	-0.050250	-1.696597	-0.993784	-0.096269	-0.857557	0.053988	-0.686279	0.015381	-0.899902	0.072972	-0.027540	0.044520	0.849706	-0.004558	-0.514313	0.116024	-15.103017	-60.805797	24.446575
37752		7.544140	-2.390082	3.826727	0.415321	-1.233996	-1.119332	-0.110881	-1.065078	0.064239	-0.694336	0.018799	-0.894531	0.075244	-0.023855	0.038682	0.846908	-0.004568	-0.518908	0.116021	-15.520834	-61.387028	24.851101
37753		7.774542	-1.725322	3.417073	0.655819	-0.505873	-1.186571	-0.025961	-1.105544	0.037868	-0.710693	0.019775	-0.895264	0.077558	-0.017234	0.034602	0.843996	-0.004123	-0.523610	0.116127	-15.890692	-61.993263	25.254570
37754		7.841361	-0.813560	3.187657	0.623873	0.405668	-1.341820	0.049890	-1.015186	0.009142	-0.712158	0.015625	-0.885742	0.078251	-0.008140	0.032272	0.841317	-0.003339	-0.527872	0.116302	-16.175354	-62.553080	25.608217
37755		8.129854	0.044023	3.202925	0.486876	1.282694	-1.182949	-0.005579	-0.841621	0.054122	-0.722656	0.019531	-0.879150	0.081163	0.000463	0.032371	0.839049	-0.003005	-0.531424	0.116518	-16.497965	-63.009438	25.967665
37756		8.380960	0.265754	3.432683	0.272753	1.520514	-0.884770	-0.230993	-0.684750	0.151623	-0.723633	0.021240	-0.862793	0.083689	0.002761	0.034610	0.837126	-0.003968	-0.534438	0.116537	-17.016402	-63.362238	26.400235
37757		8.339939	-0.466318	3.552695	0.223426	0.798764	-0.773586	-0.404897	-0.655533	0.179812	-0.733887	0.028076	-0.863037	0.083286	-0.004516	0.035809	0.835247	-0.005750	-0.537424	0.116209	-17.668559	-63.692400	26.869878
37758		8.435558	-0.937875	3.570343	0.267877	0.368576	-0.616078	-0.301052	-0.675991	0.086948	-0.734131	0.033691	-0.859619	0.084238	-0.009288	0.036002	0.833358	-0.006839	-0.540431	0.115768	-18.178561	-64.047995	27.245714
37759		8.533531	-0.877621	3.794151	0.026710	0.422181	-0.442114	-0.226378	-0.675735	-0.004020	-0.747314	0.037109	-0.848877	0.085206	-0.008735	0.038239	0.831514	-0.007369	-0.543388	0.115152	-18.554364	-64.418536	27.519241
37760		8.530623	-0.968500	3.883482	-0.101727	0.318770	-0.395751	-0.294994	-0.610966	-0.051478	-0.752686	0.041260	-0.845703	0.085185	-0.009649	0.039109	0.829861	-0.008097	-0.546111	0.114142	-18.899222	-64.761895	27.713309
37761		8.517118	-1.227001	4.072206	-0.288659	0.039823	-0.297197	-0.372605	-0.511243	-0.090631	-0.755615	0.040527	-0.840576	0.085061	-0.012232	0.040962	0.828489	-0.009092	-0.548460	0.112758	-19.210020	-65.058097	27.821015
37762		8.599883	-1.366092	4.302029	-0.490719	-0.106807	-0.113239	-0.393548	-0.380272	-0.128324	-0.761719	0.047852	-0.841553	0.085908	-0.013631	0.043211	0.827490	-0.010149	-0.550275	0.111149	-19.439402	-65.290473	27.824760
37763		8.672809	-1.217827	4.571476	-0.772528	0.020964	0.036261	-0.398997	-0.265495	-0.174981	-0.759521	0.041016	-0.828857	0.086657	-0.012163	0.045854	0.826826	-0.011159	-0.551616	0.109330	-19.570518	-65.469721	27.717775
37764		8.711454	-0.915297	4.798790	-1.046744	0.298522	0.115592	-0.448849	-0.226862	-0.196279	-0.766113	0.058350	-0.835938	0.087051	-0.009131	0.048107	0.826272	-0.012341	-0.552823	0.107278	-19.688559	-65.632341	27.564620
37765		8.486138	-0.741646	4.778049	-1.167343	0.426364	-0.125078	-0.503784	-0.261372	-0.226218	-0.773682	0.052734	-0.833252	0.084790	-0.007392	0.047910	0.825628	-0.013645	-0.554198	0.104956	-19.816826	-65.819478	27.388941
37766		8.213849	-0.609481	4.554291	-1.113957	0.522906	-0.481775	-0.531637	-0.326170	-0.267998	-0.769531	0.053223	-0.830078	0.082056	-0.006083	0.045693	0.824818	-0.014920	-0.555852	0.102380	-19.938157	-66.049772	27.187378
37767		7.925817	-0.490946	4.209408	-0.953602	0.610659	-0.896616	-0.559092	-0.367190	-0.309840	-0.775146	0.061523	-0.825195	0.079173	-0.004914	0.042253	0.823900	-0.016165	-0.557686	0.099565	-20.041378	-66.310562	26.950302
37768		7.698101	-0.589729	3.941239	-0.809034	0.486791	-1.195827	-0.596297	-0.375215	-0.350164	-0.774658	0.059082	-0.816895	0.076897	-0.005914	0.039574	0.822967	-0.017451	-0.559566	0.096472	-20.117597	-66.583665	26.660183
37769		7.581151	-0.834579	3.721883	-0.648690	0.233154	-1.354111	-0.627642	-0.345264	-0.377921	-0.780762	0.068359	-0.819580	0.075731	-0.008372	0.037376	0.822114	-0.018798	-0.561332	0.093180	-20.160928	-66.846340	26.316112
37770		7.598447	-1.241876	3.632457	-0.540011	-0.169731	-1.318403	-0.623870	-0.310292	-0.419999	-0.783691	0.062256	-0.819824	0.075902	-0.012465	0.036481	0.821366	-0.020033	-0.562946	0.089714	-20.128371	-67.098419	25.891614
37771		7.591278	-1.669257	3.491166	-0.393449	-0.596940	-1.322052	-0.614910	-0.314503	-0.429343	-0.787598	0.067383	-0.810303	0.075822	-0.016748	0.035082	0.820597	-0.021197	-0.564566	0.086240	-20.075732	-67.354582	25.452673
37772		7.642353	-2.168228	3.346488	-0.224455	-1.088166	-1.264527	-0.616152	-0.393505	-0.431969	-0.788818	0.074463	-0.819336	0.076310	-0.021744	0.033682	0.819592	-0.022328	-0.566499	0.082753	-20.051512	-67.653544	25.043869
37773		7.880059	-2.597711	3.154843	0.031794	-1.483610	-1.060885	-0.543008	-0.483879	-0.434519	-0.788818	0.076660	-0.802002	0.078667	-0.026062	0.031810	0.818325	-0.023111	-0.568765	0.079478	-20.019493	-68.001697	24.673581
37774		8.189365	-2.774566	2.947096	0.290948	-1.627015	-0.828420	-0.399907	-0.561202	-0.448962	-0.796631	0.075684	-0.793457	0.081748	-0.027870	0.029756	0.816848	-0.023244	-0.571279	0.076548	-19.916194	-68.393980	24.314326
37775		8.398292	-2.860638	2.652671	0.584256	-1.698917	-0.728462	-0.314378	-0.583702	-0.423032	-0.805420	0.068604	-0.786865	0.083844	-0.028742	0.026817	0.815291	-0.023085	-0.573842	0.073979	-19.802237	-68.793258	23.998705
37776		8.445441	-3.048919	2.303512	0.889508	-1.895233	-0.782509	-0.194187	-0.500165	-0.382545	-0.812744	0.074219	-0.786621	0.084338	-0.030628	0.023276	0.813963	-0.022588	-0.576007	0.071903	-19.625753	-69.139222	23.689645
37777		8.374843	-3.158345	2.207251	0.924086	-2.041916	-0.870566	-0.055744	-0.375111	-0.349683	-0.818115	0.067871	-0.784180	0.083651	-0.031724	0.022238	0.812990	-0.021662	-0.577605	0.070351	-19.345472	-69.411053	23.356074
37778		8.498554	-3.049606	2.440080	0.703032	-1.960462	-0.694481	0.093070	-0.345340	-0.317968	-0.822754	0.063232	-0.782959	0.084895	-0.030642	0.024533	0.812105	-0.020239	-0.579022	0.069348	-19.002697	-69.660006	23.046257
37779		8.845007	-2.852843	2.623994	0.591058	-1.759333	-0.335693	0.166191	-0.427863	-0.254843	-0.821045	0.061035	-0.776611	0.088357	-0.028663	0.026405	0.810960	-0.018667	-0.580740	0.068827	-18.744852	-69.941581	22.873226
37780		9.148319	-2.799577	2.465409	0.791288	-1.688435	-0.110604	0.220803	-0.553212	-0.207244	-0.827148	0.055420	-0.770264	0.091385	-0.028118	0.024876	0.809433	-0.016974	-0.582936	0.068664	-18.585307	-70.282098	22.837464
37781		9.479441	-2.726761	2.218264	1.071487	-1.590065	0.113995	0.300918	-0.639598	-0.197673	-0.840088	0.057129	-0.768311	0.094696	-0.027395	0.022444	0.807648	-0.014949	-0.585448	0.068785	-18.435349	-70.667928	22.861537
37782		9.667010	-2.532524	1.913867	1.344790	-1.387951	0.176929	0.375311	-0.661392	-0.201249	-0.836182	0.052490	-0.754150	0.096581	-0.025459	0.019410	0.805795	-0.012611	-0.588014	0.069105	-18.246119	-71.066133	22.888196
37783		9.812323	-2.305083	1.832559	1.390063	-1.172368	0.269293	0.441076	-0.635911	-0.205812	-0.839600	0.036865	-0.760498	0.098041	-0.023193	0.018586	0.804009	-0.009998	-0.590445	0.069602	-17.994136	-71.451452	22.889220
37784		9.919700	-2.136877	1.830903	1.354858	-1.026275	0.357353	0.475373	-0.619914	-0.200285	-0.841309	0.044434	-0.751709	0.099118	-0.021512	0.018565	0.802257	-0.007274	-0.592790	0.070217	-17.718361	-71.826950	22.885133
37785		9.958234	-1.921541	1.848093	1.277024	-0.844052	0.381952	0.523411	-0.606880	-0.195926	-0.855469	0.036377	-0.739258	0.099507	-0.019362	0.018732	0.800530	-0.004369	-0.595057	0.070994	-17.408893	-72.194686	22.875312
37786		10.161025	-1.521663	1.945643	1.148177	-0.467187	0.570498	0.593996	-0.592182	-0.186271	-0.847656	0.023438	-0.741455	0.101538	-0.015370	0.019712	0.798831	-0.001224	-0.597228	0.072012	-17.061731	-72.552612	22.867194
37787		10.329047	-1.293908	1.957526	1.106186	-0.256987	0.718472	0.580584	-0.595923	-0.130963	-0.858643	0.015137	-0.738770	0.103223	-0.013064	0.019845	0.797086	0.001712	-0.599408	0.073216	-16.814819	-72.903444	22.957226
37788		10.407296	-1.374712	1.706147	1.325630	-0.332660	0.734558	0.549495	-0.567086	-0.078715	-0.859619	0.015381	-0.730225	0.104019	-0.013835	0.017319	0.795395	0.004352	-0.601475	0.074531	-16.662841	-73.229853	23.127176
37789		10.359417	-1.417235	1.478330	1.489990	-0.380211	0.634643	0.595281	-0.497430	-0.059889	-0.865723	0.016357	-0.719482	0.103553	-0.014248	0.014999	0.793893	0.007097	-0.603239	0.076062	-16.480328	-73.515146	23.292897
37790		10.366254	-1.362901	1.402304	1.519230	-0.336728	0.620990	0.598633	-0.424752	-0.040187	-0.870117	0.010986	-0.727783	0.103630	-0.013692	0.014202	0.792592	0.009760	-0.604706	0.077678	-16.293356	-73.757419	23.454791
37791		10.272939	-1.267197	1.254322	1.593137	-0.251746	0.488325	0.610768	-0.348739	-0.018035	-0.870605	-0.006836	-0.714844	0.102706	-0.012720	0.012684	0.791500	0.012382	-0.605859	0.079426	-16.097998	-73.954516	23.615965
37792		10.277904	-1.021020	1.275960	1.514228	-0.023544	0.483544	0.652641	-0.293922	-0.005418	-0.870605	-0.005859	-0.719971	0.102760	-0.010255	0.012877	0.790557	0.015105	-0.606773	0.081350	-15.873071	-74.119592	23.770550
37793		10.404498	-0.843848	1.336329	1.441090	0.146787	0.610993	0.635208	-0.246717	0.019412	-0.870605	-0.011475	-0.713379	0.104029	-0.008471	0.013465	0.789739	0.017668	-0.607501	0.083325	-15.678816	-74.254926	23.947158
37794		10.422369	-0.893313	1.136594	1.628811	0.119231	0.581945	0.617945	-0.160323	0.051808	-0.870850	-0.011719	-0.717529	0.104217	-0.008941	0.011422	0.789162	0.020025	-0.607892	0.085379	-15.511534	-74.337781	24.140829
37795		10.450920	-0.819431	1.301026	1.462244	0.170046	0.647656	0.662124	-0.034227	0.063325	-0.873535	-0.016846	-0.715332	0.104510	-0.008204	0.013001	0.788951	0.022471	-0.607760	0.087628	-15.271658	-74.349376	24.285939
37796		10.309038	-0.626007	1.524968	1.189122	0.311345	0.554699	0.695167	0.089818	0.076346	-0.868164	-0.026611	-0.713867	0.103100	-0.006274	0.015182	0.789098	0.024947	-0.607121	0.090037	-14.973255	-74.290666	24.389073
37797		10.103931	-0.525806	1.709609	0.962336	0.360226	0.396758	0.674150	0.172602	0.106585	-0.874023	-0.031982	-0.713135	0.101057	-0.005262	0.016991	0.789476	0.027217	-0.606159	0.092515	-14.702457	-74.181739	24.509287
37798		9.917536	-0.570904	1.629117	1.022319	0.311250	0.197079	0.637729	0.196331	0.119529	-0.865723	-0.030029	-0.714355	0.099195	-0.005701	0.016176	0.789914	0.029290	-0.605116	0.094935	-14.467572	-74.058072	24.644953
37799		9.812369	-0.479520	1.623848	1.007464	0.394859	0.085719	0.640151	0.223193	0.116498	-0.872559	-0.043213	-0.707031	0.098145	-0.004790	0.016114	0.790426	0.031372	-0.603957	0.097354	-14.211827	-73.919943	24.760711
37800		9.902147	-0.314198	2.118082	0.558223	0.489703	0.291074	0.556070	0.318982	0.107862	-0.867188	-0.039551	-0.720459	0.099057	-0.003147	0.021014	0.791235	0.033098	-0.602454	0.099499	-13.943773	-73.730122	24.813412
37801		10.066696	-0.360756	2.778532	0.023926	0.357204	0.630511	0.423076	0.444490	0.123157	-0.857666	-0.040771	-0.712891	0.100731	-0.003604	0.027554	0.792430	0.034191	-0.600516	0.101323	-13.723340	-73.468252	24.836559
37802		10.526675	-0.269417	4.110785	-1.077332	0.276944	1.436503	0.398216	0.599642	0.113659	-0.849609	-0.046143	-0.722168	0.105391	-0.002716	0.040787	0.794090	0.035132	-0.597968	0.103060	-13.434511	-73.121445	24.773034
37803		11.843386	-0.282281	6.219343	-2.619362	0.064704	3.308254	0.272810	0.954378	0.127637	-0.846680	-0.045410	-0.732666	0.118731	-0.002831	0.061623	0.796811	0.035353	-0.594066	0.104538	-13.098416	-72.574715	24.585126
37804		13.589006	0.598899	7.969951	-3.843254	0.838744	5.453752	0.635213	0.888125	0.149330	-0.834961	-0.051758	-0.737793	0.136238	0.005839	0.079114	0.799237	0.036985	-0.590228	0.107164	-12.637704	-72.061958	24.483525
37805		15.261472	2.729526	8.333141	-4.106282	3.057847	7.027506	0.540482	0.073523	0.264365	-0.840576	-0.049805	-0.740234	0.152609	0.027272	0.083349	0.799200	0.038337	-0.589703	0.109818	-12.751251	-71.989842	24.928705
37806		15.170274	2.215790	5.012235	-0.961645	3.213932	5.964327	-0.132879	-0.423543	0.572554	-0.844238	-0.043701	-0.733398	0.151532	0.022625	0.050428	0.797648	0.036359	-0.591588	0.111621	-13.984132	-72.152407	26.144425
37807		13.783712	-2.306788	1.602227	2.812118	-0.643289	3.955270	-0.289743	0.286694	0.543904	-0.841553	-0.037842	-0.742920	0.137922	-0.022670	0.015858	0.798232	0.033446	-0.590715	0.112974	-14.950713	-71.917792	26.986268
37808		11.805127	-5.167578	2.583408	2.060322	-3.812540	2.595224	0.296729	1.184218	0.305495	-0.826416	-0.036865	-0.752197	0.118280	-0.051533	0.025058	0.801483	0.033067	-0.585874	0.115252	-14.763445	-71.219462	26.967844
37809		10.144526	-5.419594	4.359899	0.143606	-4.583680	1.600417	0.600642	1.226446	0.240237	-0.829346	-0.034424	-0.754395	0.101775	-0.054203	0.042813	0.804810	0.034075	-0.580652	0.118164	-14.292011	-70.507003	26.833361
37810		9.583713	-5.762480	4.775911	-0.175303	-5.050345	1.247355	0.762805	0.939463	0.251262	-0.813965	-0.047852	-0.762939	0.096132	-0.057685	0.047088	0.807235	0.035866	-0.576467	0.121534	-13.876707	-69.952206	26.856066
37811		9.109779	-5.151595	4.389010	0.029603	-4.442604	0.630078	1.087246	0.726797	0.212754	-0.802979	-0.047852	-0.771973	0.091311	-0.051655	0.043278	0.808980	0.039211	-0.572911	0.125644	-13.306421	-69.521084	26.912451
37812		8.404466	-3.947504	3.986413	0.005852	-3.303503	-0.263083	1.216593	0.741728	0.285000	-0.805420	-0.063721	-0.780029	0.084248	-0.039595	0.039311	0.810657	0.042857	-0.569201	0.130413	-12.774447	-69.072448	27.088875
37813		7.048618	-2.957036	3.232934	0.117812	-2.395924	-1.867651	1.270895	0.898174	0.384927	-0.794922	-0.072266	-0.791016	0.070687	-0.029638	0.031824	0.812656	0.046337	-0.564809	0.135768	-12.309999	-68.524485	27.371994
37814		5.954704	-1.700309	2.898516	-0.180845	-1.285207	-3.099577	1.349162	0.944830	0.426571	-0.783203	-0.076416	-0.802490	0.059719	-0.017070	0.028588	0.814685	0.049982	-0.560146	0.141518	-11.849687	-67.946125	27.709141
37815		5.238115	-0.337053	2.812056	-0.658465	-0.080935	-3.895029	1.354453	0.917028	0.424055	-0.790527	-0.087158	-0.807617	0.052517	-0.003449	0.027857	0.816578	0.053673	-0.555551	0.147252	-11.392199	-67.384782	28.053788
37816		5.036781	0.697177	3.044767	-1.189298	0.810254	-4.063368	1.233630	0.994024	0.482079	-0.774414	-0.097412	-0.809814	0.050502	0.006906	0.030240	0.818617	0.056646	-0.550707	0.152901	-11.061851	-66.774374	28.462712
37817		4.574048	1.463070	3.246871	-1.722398	1.401239	-4.457841	1.022138	1.076457	0.596219	-0.770752	-0.104004	-0.816895	0.045871	0.014602	0.032297	0.820803	0.058375	-0.545684	0.158444	-10.971901	-66.105924	29.003733
37818		4.929798	2.058581	4.257224	-2.636446	1.771461	-3.764915	0.812735	0.967566	0.672710	-0.760010	-0.099365	-0.822021	0.049434	0.020579	0.042417	0.822643	0.059122	-0.541264	0.163697	-11.109248	-65.490168	29.665956
37819		5.994572	2.333904	5.880439	-3.719873	1.823355	-2.144619	0.577609	0.849599	0.764025	-0.740479	-0.103027	-0.830078	0.060106	0.023399	0.058617	0.824122	0.058746	-0.537524	0.168639	-11.498339	-64.929248	30.459328
37820		6.937912	1.985126	5.958652	-3.289565	1.710907	-1.220119	0.432979	0.621712	0.744099	-0.749023	-0.102295	-0.834961	0.069490	0.019981	0.059414	0.825020	0.058017	-0.534819	0.173042	-11.978096	-64.495650	31.264895
37821		8.804623	2.048718	5.760847	-2.435296	2.282074	0.373937	0.425363	0.346302	0.675425	-0.740723	-0.091797	-0.835693	0.088076	0.020662	0.057500	0.825224	0.057678	-0.533227	0.177053	-12.432366	-64.222154	32.039378
37822		10.815279	1.759814	5.775203	-1.612272	2.513482	2.208251	0.269333	0.006161	0.590951	-0.744141	-0.105225	-0.833496	0.108102	0.017840	0.057773	0.824629	0.057219	-0.533142	0.180202	-12.957043	-64.146280	32.794129
37823		12.017022	1.056593	5.547627	-0.768675	2.240115	3.252228	0.191270	-0.362675	0.442831	-0.750244	-0.089111	-0.833252	0.120046	0.010779	0.055704	0.823198	0.057166	-0.534602	0.182422	-13.454625	-64.292898	33.468671
37824		11.521271	0.323015	4.264526	0.354075	1.821889	2.335777	0.150572	-0.506835	0.257373	-0.757324	-0.097656	-0.830322	0.115100	0.003346	0.042940	0.821555	0.057575	-0.536633	0.183732	-13.808105	-64.542465	33.957167
37825		11.081436	-0.047747	2.312122	1.977566	1.938382	1.163574	0.352310	-0.039507	0.021829	-0.754883	-0.097900	-0.834961	0.110810	-0.000506	0.023142	0.821319	0.059012	-0.536490	0.184744	-13.640539	-64.563773	33.995401
37826		11.076802	0.759470	3.266943	0.896889	2.397138	1.474211	0.560569	0.655879	-0.104761	-0.743652	-0.104004	-0.838135	0.110878	0.007446	0.032327	0.822996	0.061004	-0.533254	0.186002	-13.014191	-64.214032	33.657813
37827		10.356648	0.982498	4.243425	-0.194340	2.141649	1.214864	0.408921	0.872850	-0.086548	-0.739014	-0.105469	-0.839355	0.103755	0.009694	0.042002	0.825262	0.062117	-0.529262	0.186989	-12.452502	-63.739421	33.293745
37828		9.420505	0.377936	4.357780	-0.322771	1.333776	0.482715	0.321294	0.774755	-0.046067	-0.732666	-0.112549	-0.845459	0.094374	0.003688	0.043218	0.827243	0.062852	-0.525757	0.187878	-12.025039	-63.313202	33.022288
37829		8.595819	0.045991	4.137031	-0.252382	0.900652	-0.319000	0.338192	0.579508	-0.052132	-0.730713	-0.119385	-0.848633	0.086078	0.000368	0.041122	0.828698	0.063856	-0.523036	0.188721	-11.636467	-62.996595	32.804218
37830		8.180249	0.500422	3.956878	-0.382128	1.270998	-0.809234	0.380650	0.421727	-0.055891	-0.723145	-0.124268	-0.862305	0.081887	0.004906	0.039406	0.829722	0.065198	-0.520921	0.189612	-11.260508	-62.768298	32.627957
37831		7.793285	1.073156	3.620288	-0.433448	1.802892	-1.353664	0.256835	0.324484	-0.015566	-0.726563	-0.118652	-0.866211	0.077992	0.010679	0.036090	0.830490	0.066008	-0.519338	0.190310	-11.024324	-62.589846	32.528012
37832		7.541463	1.637968	3.292068	-0.448991	2.362626	-1.774610	0.132554	0.292800	0.005961	-0.729980	-0.126709	-0.865723	0.075462	0.016360	0.032821	0.831195	0.066278	-0.518008	0.190764	-10.890616	-62.426404	32.463387
37833		7.576221	2.203928	3.261369	-0.606773	2.907371	-1.808194	-0.003214	0.280911	0.007752	-0.722900	-0.120117	-0.863770	0.075807	0.022043	0.032507	0.831909	0.065988	-0.516858	0.190869	-10.840345	-62.269731	32.404817
37834		7.876288	2.775891	3.302791	-0.722277	3.505860	-1.576358	-0.158457	0.260511	-0.018695	-0.715088	-0.124512	-0.864746	0.078808	0.027778	0.032903	0.832644	0.065144	-0.515931	0.190458	-10.855078	-62.127384	32.319531
37835		8.059103	3.257482	3.150444	-0.686905	4.053356	-1.531139	-0.330416	0.144847	-0.071585	-0.711670	-0.118164	-0.876221	0.080625	0.032598	0.031392	0.833186	0.063827	-0.515632	0.189343	-10.936230	-62.055872	32.197396
37836		8.753886	3.794523	3.081198	-0.538854	4.756121	-1.002943	-0.557608	0.040893	-0.101056	-0.710449	-0.120605	-0.870361	0.087564	0.037987	0.030688	0.833557	0.061739	-0.515966	0.187483	-11.137003	-62.046013	32.063375
37837		9.042038	3.925521	3.385402	-0.701053	4.884852	-0.632512	-0.861573	0.159922	-0.072016	-0.715088	-0.101563	-0.876465	0.090461	0.039368	0.033612	0.834289	0.058196	-0.516093	0.184996	-11.518215	-61.966514	31.936307
37838		9.068188	2.889089	4.758798	-1.404773	3.600942	0.101122	-1.180126	0.746454	0.017663	-0.708252	-0.092773	-0.875732	0.090856	0.029178	0.047077	0.836517	0.052549	-0.514075	0.182222	-12.047047	-61.547985	31.769232
37839		8.370539	0.447402	6.422424	-2.103391	0.822936	0.502771	-1.215764	1.689043	0.160691	-0.689209	-0.078613	-0.886963	0.084240	0.004929	0.063485	0.840979	0.045521	-0.508146	0.180192	-12.531443	-60.585076	31.527042
37840		5.528542	-3.063844	8.730615	-3.901480	-3.629846	-0.443819	-1.094347	1.519357	0.058180	-0.676270	-0.069824	-0.905029	0.055956	-0.030145	0.087049	0.844994	0.039412	-0.502748	0.177976	-12.878687	-59.730873	31.204232
37841		6.933395	-2.830058	8.359966	-3.061317	-2.853793	0.601431	-1.065868	-0.035850	-0.190893	-0.672852	-0.058838	-0.904541	0.069292	-0.027921	0.083762	0.845266	0.035431	-0.503817	0.174469	-13.312518	-59.777935	30.999765
37842		10.808705	-3.259564	6.203728	0.384186	-1.707164	2.949349	-1.987048	-1.771469	-0.148772	-0.692871	-0.033691	-0.886719	0.107506	-0.032051	0.063311	0.841207	0.028959	-0.512976	0.168487	-14.734337	-60.785290	31.325427
37843		12.813316	-4.908000	0.655444	6.164985	-1.579516	2.360485	-1.791926	-2.126938	-0.437705	-0.711670	-0.028564	-0.871338	0.127943	-0.049291	0.008357	0.836290	0.024346	-0.523331	0.161714	-15.905930	-62.029192	31.490656
37844		12.260903	-0.852287	-2.031651	6.923736	2.563735	0.220838	-0.198619	-0.200079	-0.943775	-0.716309	-0.039551	-0.872070	0.122587	-0.009121	-0.020185	0.836537	0.026151	-0.524222	0.157203	-15.089616	-62.286550	30.437634
37845		9.809546	3.830684	2.783769	0.481541	5.344261	-0.333478	-0.379631	1.083842	-1.028184	-0.705566	-0.033691	-0.885010	0.098440	0.037853	0.027233	0.840204	0.026417	-0.519851	0.152033	-13.936062	-61.835261	28.885973
37846		8.104842	3.993207	4.362235	-1.473085	4.777053	-1.113796	-0.927872	1.248945	-0.877960	-0.695557	-0.034424	-0.889160	0.081493	0.039775	0.042930	0.844201	0.023861	-0.515187	0.146074	-13.252177	-61.260373	27.503137
37847		7.232310	3.026953	6.507281	-3.302781	3.294663	-0.754594	-1.217427	0.774310	-0.515960	-0.696533	-0.027588	-0.900391	0.072652	0.030477	0.064607	0.846686	0.019496	-0.512745	0.140837	-13.242630	-60.898547	26.695579
37848		6.599885	0.374028	6.623581	-2.960578	0.646006	-0.959010	-1.238603	-0.305168	-0.495621	-0.701416	-0.011963	-0.898682	0.065907	0.003987	0.066312	0.846347	0.015747	-0.514865	0.135510	-13.523861	-61.136998	26.205250
37849		8.222839	0.193826	5.361823	-1.184589	1.037524	-0.121389	-0.811038	-1.031192	-0.483556	-0.700195	-0.009277	-0.889648	0.081955	0.001958	0.054033	0.844056	0.014270	-0.519741	0.131281	-13.747365	-61.778775	25.930960
37850		9.336846	-0.439008	4.683563	-0.086168	0.753486	0.614605	-1.104693	-1.243940	-0.241785	-0.713379	-0.007568	-0.875000	0.093069	-0.004242	0.047439	0.841026	0.011055	-0.525696	0.127271	-14.452360	-62.506189	26.010832
37851		9.696117	-2.669966	3.702579	1.274269	-1.168191	0.763766	-1.503063	-1.250265	0.113347	-0.722900	0.017090	-0.870117	0.096741	-0.026363	0.037830	0.837703	0.005243	-0.531904	0.123711	-15.797933	-63.183090	26.555457
37852		9.827917	-6.264627	1.220768	4.135448	-4.255837	0.292127	-1.467307	-0.757885	0.178235	-0.732666	0.039551	-0.857666	0.098287	-0.062465	0.013039	0.835580	-0.000903	-0.535987	0.120508	-17.076616	-63.573151	27.044126
37853		8.881700	-7.021040	1.574781	3.495225	-5.219607	-0.262899	-0.721361	0.054065	-0.028657	-0.734863	0.044189	-0.861572	0.088811	-0.070166	0.015977	0.835726	-0.003861	-0.536207	0.118443	-17.437766	-63.550789	26.986135
37854		7.492570	-5.125106	3.550286	0.770944	-3.891090	-0.909044	-0.477162	0.046655	-0.081206	-0.737549	0.044922	-0.859131	0.074913	-0.051197	0.035608	0.835882	-0.005666	-0.536310	0.116795	-17.604131	-63.541796	26.864288
37855		6.933834	-4.428592	3.580778	0.349707	-3.322112	-1.484816	-0.574180	-0.401591	-0.038665	-0.736816	0.055176	-0.861572	0.069258	-0.044196	0.036074	0.834799	-0.007717	-0.538335	0.115094	-18.030596	-63.769992	26.973327
37856		7.113299	-3.650892	3.242436	0.510914	-2.491413	-1.568134	-0.412759	-0.884867	-0.077501	-0.742676	0.053711	-0.852783	0.070974	-0.036469	0.032814	0.832430	-0.008719	-0.542277	0.113667	-18.504262	-64.267726	27.235544
37857		7.755772	-2.629861	2.932724	0.761913	-1.353563	-1.253747	-0.209834	-1.194559	-0.206116	-0.754639	0.061279	-0.838623	0.077353	-0.026347	0.029817	0.829276	-0.008343	-0.547381	0.112280	-18.848462	-64.956308	27.483711
37858		8.887127	-1.243740	2.779816	0.976741	0.198132	-0.471331	-0.068128	-1.167819	-0.327373	-0.766602	0.051514	-0.836182	0.088686	-0.012573	0.028321	0.826239	-0.007072	-0.552278	0.110757	-18.970800	-65.652454	27.573665
37859		9.862520	0.315812	2.856109	0.900256	1.859872	0.249930	-0.202605	-0.783110	-0.224047	-0.774658	0.054688	-0.833740	0.098516	0.003077	0.028944	0.824179	-0.006845	-0.555643	0.109289	-19.140900	-66.120845	27.633099
37860		9.675023	0.451152	3.322547	0.321371	1.895491	0.244776	-0.654584	-0.447269	-0.049794	-0.773438	0.059082	-0.818115	0.096677	0.004597	0.033427	0.822928	-0.009157	-0.557854	0.107255	-19.645675	-66.374455	27.773239
37861		9.201806	-0.696200	3.622670	0.025880	0.669267	0.078365	-0.863228	-0.298345	-0.058906	-0.780518	0.068115	-0.822998	0.091962	-0.006832	0.036394	0.822072	-0.012373	-0.559556	0.104607	-20.198980	-66.549056	27.837531
37862		8.778082	-1.113541	3.783267	-0.239319	0.178972	-0.194037	-0.677025	-0.203260	-0.185153	-0.785400	0.072021	-0.814453	0.087732	-0.011088	0.037959	0.821546	-0.014529	-0.560767	0.101938	-20.447824	-66.697558	27.684292
37863		8.335682	-0.844501	4.056808	-0.712714	0.338280	-0.537342	-0.631136	-0.161354	-0.271154	-0.782471	0.082520	-0.812500	0.083313	-0.008430	0.040662	0.821173	-0.016267	-0.561781	0.099056	-20.543685	-66.840952	27.395343
37864		7.913993	-0.757486	4.139500	-0.968885	0.342139	-0.908491	-0.729025	-0.128071	-0.287344	-0.783936	0.080078	-0.810303	0.079103	-0.007537	0.041473	0.820884	-0.018389	-0.562701	0.095810	-20.658040	-66.969999	27.063550
37865		7.596756	-0.872789	4.148851	-1.092264	0.176981	-1.183607	-0.802484	-0.146985	-0.316393	-0.781494	0.085449	-0.810303	0.075923	-0.008681	0.041579	0.820532	-0.020711	-0.563726	0.092256	-20.785770	-67.115314	26.703180
37866		7.504629	-0.952902	4.145818	-1.136519	0.087114	-1.261901	-0.833417	-0.231202	-0.356708	-0.789063	0.088867	-0.804932	0.074981	-0.009490	0.041584	0.819943	-0.023017	-0.565103	0.088440	-20.918283	-67.314266	26.327014
37867		7.406572	-1.065669	3.870736	-0.935934	-0.022385	-1.440176	-0.857324	-0.364649	-0.391631	-0.800293	0.098877	-0.803467	0.073974	-0.010635	0.038888	0.818968	-0.025252	-0.567030	0.084443	-21.083125	-67.592140	25.973886
37868		7.317027	-1.103591	3.464273	-0.627181	-0.056569	-1.666446	-0.853385	-0.457776	-0.416258	-0.803711	0.098633	-0.792969	0.073068	-0.011040	0.034857	0.817721	-0.027373	-0.569322	0.080348	-21.257239	-67.925236	25.631646
37869		7.392794	-1.134655	3.230894	-0.428470	-0.072220	-1.676933	-0.852691	-0.487021	-0.431841	-0.800293	0.103271	-0.786865	0.073824	-0.011368	0.032537	0.816371	-0.029423	-0.571721	0.076210	-21.422906	-68.277597	25.283897
37870		7.510215	-1.275648	2.997584	-0.208064	-0.194107	-1.631311	-0.868315	-0.491112	-0.427199	-0.802490	0.113037	-0.781738	0.075001	-0.012786	0.030216	0.814983	-0.031558	-0.574124	0.072028	-21.602339	-68.631505	24.939879
37871		7.750547	-1.637015	2.826036	0.008304	-0.520179	-1.418264	-0.886053	-0.489560	-0.415193	-0.811523	0.118408	-0.777832	0.077402	-0.016405	0.028523	0.813567	-0.033789	-0.576509	0.067859	-21.805295	-68.982507	24.613308
37872		8.126138	-2.147180	2.623205	0.299628	-0.977004	-1.067342	-0.883732	-0.484690	-0.412271	-0.818848	0.117676	-0.778809	0.081153	-0.021522	0.026524	0.812142	-0.036035	-0.578854	0.063684	-22.005546	-69.330636	24.283060
37873		8.565789	-2.856323	2.453063	0.583928	-1.629922	-0.617532	-0.798039	-0.415707	-0.425062	-0.814697	0.123047	-0.775879	0.085546	-0.028646	0.024823	0.810911	-0.037901	-0.580880	0.059713	-22.096215	-69.645251	23.891918
37874		8.921374	-3.493393	2.501876	0.628166	-2.235155	-0.186509	-0.630570	-0.278265	-0.448305	-0.825195	0.117432	-0.754395	0.089100	-0.035054	0.025253	0.810103	-0.039076	-0.582289	0.056086	-21.971213	-69.891749	23.371059
37875		9.095901	-3.832410	2.750357	0.418309	-2.578319	0.095103	-0.444720	-0.190393	-0.469794	-0.817871	0.124756	-0.766357	0.090842	-0.038476	0.027676	0.809580	-0.039445	-0.583287	0.052916	-21.648637	-70.095454	22.756843
37876		9.168325	-3.953454	3.048502	0.124998	-2.722733	0.264625	-0.289615	-0.221040	-0.450622	-0.824707	0.115234	-0.763184	0.091560	-0.039697	0.030644	0.808986	-0.039247	-0.584358	0.050263	-21.273317	-70.310111	22.179270
37877		9.120830	-4.022519	3.112661	0.013001	-2.832186	0.239038	-0.201271	-0.294366	-0.416947	-0.831055	0.119629	-0.761230	0.091078	-0.040384	0.031301	0.808179	-0.038758	-0.585693	0.048036	-20.929970	-70.555878	21.692737
37878		8.705017	-3.888858	2.838717	0.100486	-2.788392	-0.264212	-0.054591	-0.360346	-0.409138	-0.834229	0.114258	-0.759033	0.086919	-0.039059	0.028555	0.807201	-0.037696	-0.587252	0.046267	-20.541714	-70.834256	21.245993
37879		8.312710	-2.880508	2.787517	-0.035441	-1.874877	-0.776534	0.167809	-0.346302	-0.446310	-0.842529	0.114258	-0.743408	0.083014	-0.029014	0.027995	0.806306	-0.035618	-0.588707	0.045014	-19.946311	-71.111297	20.718129
37880		8.095505	-1.993523	2.968262	-0.330445	-1.060506	-1.032720	0.146043	-0.372727	-0.429487	-0.832520	0.109375	-0.749268	0.080856	-0.020131	0.029819	0.805320	-0.033684	-0.590263	0.043752	-19.389332	-71.397465	20.215983
37881		8.056111	-1.726933	2.883154	-0.303407	-0.836802	-1.129180	0.001345	-0.421583	-0.373849	-0.844238	0.104736	-0.745117	0.080468	-0.017420	0.029001	0.804145	-0.032473	-0.592035	0.042312	-19.017598	-71.698411	19.825157
37882		8.117752	-1.743738	2.578984	-0.036145	-0.878941	-1.163088	-0.029863	-0.524237	-0.360794	-0.848145	0.105469	-0.729004	0.081078	-0.017580	0.026005	0.802652	-0.031419	-0.594218	0.040830	-18.731637	-72.051714	19.503716
37883		8.674563	-1.423147	2.340868	0.294066	-0.536282	-0.736420	0.074462	-0.603603	-0.366858	-0.845703	0.090820	-0.732666	0.086648	-0.014399	0.023665	0.800931	-0.029896	-0.596693	0.039664	-18.407533	-72.448857	19.208452
37884		9.403804	-1.054974	2.227157	0.543783	-0.131349	-0.107462	0.076996	-0.618735	-0.302122	-0.860352	0.105469	-0.724121	0.093952	-0.010700	0.022558	0.799143	-0.028567	-0.599210	0.038751	-18.191213	-72.841996	19.025762
37885		9.956879	-1.055015	1.961470	0.892929	-0.104973	0.350539	0.019251	-0.601888	-0.201570	-0.857178	0.093262	-0.720703	0.099498	-0.010652	0.019913	0.797368	-0.027759	-0.601651	0.038080	-18.169997	-73.208036	19.015352
37886		10.274634	-1.430438	1.640419	1.240285	-0.466320	0.606007	-0.001726	-0.535161	-0.122917	-0.864258	0.095947	-0.717773	0.102693	-0.014367	0.016679	0.795770	-0.027301	-0.603812	0.037630	-18.265478	-73.523525	19.111166
37887		10.621625	-1.606237	1.600956	1.323620	-0.621832	0.949428	0.102503	-0.470412	-0.082592	-0.861084	0.096191	-0.714355	0.106172	-0.016115	0.016251	0.794367	-0.026544	-0.605688	0.037665	-18.338870	-73.796644	19.249087
37888		10.930814	-1.704689	1.561410	1.395627	-0.701219	1.250176	0.112910	-0.484105	-0.047320	-0.870361	0.091797	-0.704346	0.109266	-0.017082	0.015869	0.792914	-0.025868	-0.607607	0.037855	-18.486649	-74.070632	19.467381
37889		11.102854	-2.162787	1.224651	1.726581	-1.146294	1.374604	0.092944	-0.485651	-0.018897	-0.875732	0.098877	-0.697998	0.110996	-0.021644	0.012506	0.791441	-0.025340	-0.609529	0.038116	-18.707431	-74.340185	19.752405
37890		11.196948	-2.618527	0.825368	2.103391	-1.595614	1.409575	0.179827	-0.406176	-0.055308	-0.882080	0.085205	-0.698730	0.111945	-0.026224	0.008457	0.790226	-0.024389	-0.611121	0.038468	-18.762985	-74.573044	19.914206
37891		11.244072	-2.460564	0.990386	1.917974	-1.446658	1.487441	0.315297	-0.282610	-0.085818	-0.876465	0.087891	-0.702637	0.112416	-0.024670	0.010024	0.789405	-0.022816	-0.612200	0.039117	-18.598107	-74.744558	19.930799
37892		11.224780	-2.286356	1.155791	1.729555	-1.289571	1.496804	0.372467	-0.165901	-0.059145	-0.873779	0.088379	-0.691406	0.112231	-0.022918	0.011608	0.788940	-0.021138	-0.612801	0.040017	-18.375169	-74.847789	19.918462
37893		11.204269	-2.286099	1.247742	1.629426	-1.303144	1.499497	0.442848	-0.099068	-0.030712	-0.878418	0.075928	-0.691895	0.112033	-0.022906	0.012482	0.788678	-0.019266	-0.613118	0.041254	-18.121767	-74.909572	19.919041
37894		10.955774	-2.284654	1.150235	1.667100	-1.329283	1.233825	0.539796	-0.018531	0.006774	-0.873291	0.081299	-0.691162	0.109557	-0.022874	0.011451	0.788659	-0.017161	-0.613091	0.042911	-17.836329	-74.920834	19.941150
37895		10.750619	-2.339396	1.138665	1.647514	-1.405095	1.034271	0.634083	0.088274	0.050364	-0.879883	0.066895	-0.692627	0.107517	-0.023403	0.011265	0.788959	-0.014823	-0.612613	0.045036	-17.514300	-74.866240	19.984137
37896		10.586860	-2.405993	1.180102	1.600149	-1.486775	0.887404	0.728794	0.171828	0.090778	-0.875000	0.072754	-0.700439	0.105890	-0.024054	0.011622	0.789504	-0.012271	-0.611775	0.047588	-17.169642	-74.759148	20.057154
37897		10.281799	-2.288952	1.138640	1.596662	-1.392452	0.568198	0.844353	0.230170	0.124312	-0.870850	0.058594	-0.700684	0.102845	-0.022873	0.011171	0.790213	-0.009362	-0.610665	0.050637	-16.790247	-74.614564	20.165616
37898		9.974546	-2.132154	1.066163	1.622779	-1.254305	0.235571	0.924944	0.257389	0.159034	-0.874512	0.057617	-0.710693	0.099776	-0.021291	0.010435	0.790982	-0.006265	-0.609414	0.054051	-16.421833	-74.449602	20.330579
37899		9.649331	-2.008734	0.888592	1.746794	-1.140837	-0.138949	0.968429	0.262182	0.200741	-0.876465	0.052734	-0.709961	0.096525	-0.020033	0.008662	0.791737	-0.003106	-0.608115	0.057777	-16.107342	-74.275515	20.580432
37900		9.438718	-2.000299	0.744217	1.875453	-1.127650	-0.386376	1.006174	0.272114	0.224745	-0.863525	0.041992	-0.708740	0.094420	-0.019934	0.007213	0.792495	0.000108	-0.606750	0.061695	-15.815001	-74.092629	20.873113
37901		9.210501	-1.926698	0.733109	1.865555	-1.057388	-0.621150	1.044403	0.302079	0.257446	-0.866943	0.036621	-0.708008	0.092141	-0.019186	0.007092	0.793309	0.003383	-0.605235	0.065873	-15.544767	-73.888448	21.214756
37902		9.026443	-1.724167	0.870640	1.710018	-0.866094	-0.783128	1.089490	0.329361	0.287618	-0.859619	0.021973	-0.720459	0.090303	-0.017158	0.008464	0.794169	0.006721	-0.603580	0.070293	-15.292604	-73.665173	21.600047
37903		8.843988	-1.773166	0.936552	1.652538	-0.917601	-0.943400	1.090465	0.357318	0.314252	-0.860840	0.021973	-0.723389	0.088484	-0.017643	0.009111	0.795077	0.009988	-0.601791	0.074832	-15.070859	-73.422751	22.020544
37904		8.955878	-1.915227	1.678763	1.045816	-1.103725	-0.626729	1.054878	0.454819	0.319126	-0.850586	0.015869	-0.727051	0.089627	-0.019097	0.016483	0.796249	0.013049	-0.599610	0.079276	-14.829203	-73.126296	22.397491
37905		9.287119	-2.268419	3.369200	-0.349715	-1.594733	0.191392	0.949750	0.717844	0.356179	-0.843994	0.014648	-0.735107	0.093031	-0.022677	0.033251	0.798174	0.015489	-0.596401	0.083577	-14.583649	-72.678973	22.710148
37906		10.058425	-2.718928	5.453416	-1.931308	-2.193368	1.578609	0.911432	1.038167	0.418499	-0.836426	0.011230	-0.742920	0.100922	-0.027225	0.053887	0.800994	0.017439	-0.591910	0.088021	-14.323582	-72.045582	22.983082
37907		11.692057	-2.109882	7.326451	-3.173802	-1.646399	3.679757	1.304507	1.115447	0.367199	-0.818359	0.001465	-0.747070	0.117365	-0.021358	0.072472	0.803980	0.021097	-0.586891	0.093436	-13.721696	-71.376841	23.136611
37908		14.449483	1.749754	9.363805	-4.831676	2.122368	6.669991	1.825355	0.416088	0.216790	-0.825439	-0.017578	-0.750977	0.144671	0.016801	0.093493	0.804863	0.027599	-0.584378	0.099682	-12.869237	-71.118598	23.338767
37909		16.719132	6.720210	7.695861	-3.597647	7.447435	7.949839	1.408183	-0.318654	0.424804	-0.822510	-0.022217	-0.751953	0.166925	0.067012	0.077697	0.803494	0.032194	-0.585014	0.105448	-12.874488	-71.244636	24.196947
37910		13.989219	5.451805	3.669906	-0.475098	6.578490	4.165325	0.306409	0.077218	0.991560	-0.820557	-0.021973	-0.755615	0.139634	0.055155	0.036729	0.803129	0.030484	-0.584708	0.110321	-14.284936	-71.070490	25.871327
37911		11.113391	-0.838803	2.504169	1.118864	0.380761	1.548787	-0.335799	0.805956	1.040219	-0.820557	-0.010498	-0.760986	0.111275	-0.007768	0.024607	0.804936	0.025661	-0.581815	0.113626	-15.781032	-70.472196	27.252262
37912		9.553121	-4.355977	3.286754	0.781425	-3.299050	0.653564	0.567587	1.311404	0.790283	-0.810059	-0.007813	-0.772461	0.095915	-0.043273	0.032116	0.808194	0.024903	-0.576312	0.118603	-16.085264	-69.627728	27.920590
37913		7.988196	-4.691781	4.024716	-0.161963	-3.943067	-0.515027	1.002715	1.087347	0.584379	-0.797363	-0.005859	-0.776367	0.080235	-0.046883	0.039576	0.810822	0.026637	-0.571391	0.123975	-15.904984	-68.938907	28.342318
37914		7.744140	-4.937759	4.064023	-0.091926	-4.193485	-0.687197	1.047603	0.634979	0.585597	-0.796387	-0.011719	-0.779785	0.077714	-0.049361	0.040135	0.812108	0.028817	-0.568247	0.129405	-15.876147	-68.499421	28.954042
37915		7.072854	-4.819993	3.410496	0.361376	-4.041393	-1.540754	1.181928	0.373609	0.663168	-0.789795	-0.018555	-0.788330	0.070951	-0.048165	0.033688	0.812542	0.031502	-0.566060	0.135496	-15.968594	-68.191654	29.782366
37916		5.882150	-3.894606	2.729001	0.446081	-3.204705	-2.975628	1.342377	0.402722	0.647686	-0.779053	-0.030273	-0.798096	0.059002	-0.038937	0.026910	0.813000	0.034849	-0.563614	0.141968	-15.925815	-67.870051	30.564242
37917		5.012699	-2.382129	2.647331	-0.094436	-1.887991	-3.961518	1.473671	0.614929	0.592157	-0.780518	-0.027100	-0.800049	0.050278	-0.023866	0.026143	0.814019	0.038745	-0.560164	0.148620	-15.639936	-67.441047	31.168295
37918		5.145586	-0.837092	3.171752	-0.894583	-0.505904	-3.797607	1.541738	0.831063	0.482573	-0.772949	-0.042725	-0.806885	0.051607	-0.008490	0.031438	0.815650	0.043049	-0.555721	0.155039	-15.089425	-66.910773	31.527950
37919		5.892816	1.002977	3.923575	-1.804632	1.199399	-2.998729	1.515277	1.017337	0.374339	-0.772217	-0.050293	-0.818359	0.059108	0.009844	0.039010	0.817817	0.047410	-0.550467	0.160977	-14.355625	-66.294822	31.674632
37920		7.145792	3.021614	4.995952	-2.907766	3.078879	-1.614078	1.281078	0.914430	0.441823	-0.759521	-0.060059	-0.813721	0.071619	0.030055	0.049825	0.819641	0.050696	-0.545797	0.166504	-13.885063	-65.727076	31.961668
37921		8.549752	4.708973	6.200359	-3.993981	4.647398	-0.006216	0.840451	0.737005	0.622737	-0.753662	-0.061768	-0.821777	0.085579	0.047096	0.061886	0.820897	0.051838	-0.542237	0.171522	-13.937620	-65.233692	32.548952
37922		9.616373	4.973834	6.982193	-4.367222	4.956977	1.247155	0.323091	0.563016	0.734460	-0.754639	-0.055176	-0.830322	0.096177	0.049979	0.069632	0.821695	0.050693	-0.539846	0.175540	-14.457186	-64.819845	33.325315
37923		10.196829	3.974138	6.410559	-3.318750	4.372904	1.620930	0.037796	0.168411	0.639010	-0.751709	-0.056885	-0.834473	0.101895	0.040055	0.064027	0.821568	0.048988	-0.539293	0.178298	-15.130700	-64.635366	34.094308
37924		10.739474	2.953576	5.696418	-2.184138	3.798459	1.905245	-0.150484	-0.236302	0.480899	-0.749023	-0.055664	-0.827881	0.107256	0.029837	0.057069	0.820531	0.047287	-0.540526	0.179790	-15.852409	-64.694293	34.796221
37925		11.025600	1.672818	4.795086	-0.913427	2.955411	1.925532	-0.357397	-0.463599	0.278446	-0.756592	-0.051270	-0.817383	0.110121	0.016968	0.048176	0.819101	0.045497	-0.542825	0.179845	-16.537882	-64.907213	35.327725
37926		10.998448	0.522910	3.351431	0.686705	2.281063	1.447708	-0.285997	-0.225373	0.014466	-0.751953	-0.041260	-0.830566	0.109946	0.005285	0.033631	0.818535	0.044496	-0.544020	0.179060	-16.795971	-65.030679	35.431164
37927		10.839258	0.654300	2.439988	1.394849	2.604297	0.917783	-0.017209	0.379922	-0.237055	-0.755127	-0.056641	-0.832275	0.108446	0.006417	0.024193	0.819776	0.044743	-0.542439	0.178116	-16.392048	-64.863192	34.974657
37928		10.513398	1.160922	3.809072	-0.013256	2.627010	1.118283	0.039847	0.825629	-0.308265	-0.748291	-0.042969	-0.837158	0.105308	0.011439	0.037659	0.822268	0.045012	-0.538958	0.177125	-15.732201	-64.459609	34.268842
37929		9.669686	0.673514	4.230637	-0.421296	1.857460	0.590506	-0.100459	0.794444	-0.314719	-0.739502	-0.058105	-0.848633	0.096874	0.006604	0.041918	0.824696	0.044755	-0.535718	0.175726	-15.175198	-64.071243	33.586868
37930		9.441007	0.111465	4.293203	-0.291476	1.258303	0.478472	-0.053384	0.572041	-0.350021	-0.734375	-0.054688	-0.848389	0.094534	0.000961	0.042661	0.826539	0.044974	-0.533338	0.174245	-14.634844	-63.808274	32.950089
37931		9.032171	-0.004304	3.873501	0.014099	1.146939	-0.052140	0.007685	0.350855	-0.356322	-0.729980	-0.055420	-0.850586	0.090389	-0.000206	0.038576	0.827774	0.045663	-0.531813	0.172860	-14.126066	-63.666549	32.387909
