// General information: 
//  MT Manager version: 2019.2.0 
//  XDA version: 2019.2.0 build 3853 rev 94535 built on 2019-09-09
// Device information: 
//  DeviceId: 00B47796
//  ProductCode: MTW2-3A7G6
//  Firmware Version: 4.6.0
//  Hardware Version: 2.0.0
// Device settings: 
//  Filter Profile: human(46.1)
//  Option Flags: Orientation Smoother Disabled, AHS Disabled, ICC Disabled
// Coordinate system: ENU
PacketCounter	SampleTimeFine	Acc_X	Acc_Y	Acc_Z	FreeAcc_E	FreeAcc_N	FreeAcc_U	Gyr_X	Gyr_Y	Gyr_Z	Mag_X	Mag_Y	Mag_Z	VelInc_X	VelInc_Y	VelInc_Z	Quat_q0	Quat_q1	Quat_q2	Quat_q3	Roll	Pitch	Yaw
37386		5.778109	0.132714	7.811475	0.024301	0.031367	-0.095603	0.005073	0.010168	0.001716	-0.793945	0.055908	-0.552490	0.057785	0.001326	0.078112	0.125491	-0.310732	-0.050005	-0.940849	1.150652	-36.673541	-165.186789
37387		5.769182	0.151387	7.755805	0.003964	0.005682	-0.145276	0.003977	0.012610	0.002000	-0.795166	0.050537	-0.546631	0.057697	0.001513	0.077554	0.125494	-0.310708	-0.050008	-0.940857	1.151412	-36.670644	-165.186753
37388		5.776321	0.133119	7.812790	0.025742	0.031568	-0.095608	0.004806	0.010550	0.004401	-0.792969	0.052002	-0.539063	0.057767	0.001331	0.078125	0.125487	-0.310693	-0.050005	-0.940863	1.151503	-36.668848	-165.187738
37389		5.755474	0.124264	7.802719	0.033518	0.042602	-0.116275	0.003476	0.010056	0.002715	-0.795410	0.058838	-0.544678	0.057559	0.001242	0.078024	0.125492	-0.310681	-0.050006	-0.940866	1.151693	-36.667422	-165.187229
37390		5.774839	0.133311	7.813882	0.027189	0.031767	-0.095612	0.002976	0.007504	0.003429	-0.787109	0.057861	-0.547119	0.057751	0.001333	0.078137	0.125476	-0.310682	-0.049997	-0.940868	1.151155	-36.667393	-165.188905
37391		5.805253	0.173959	7.833734	0.025811	-0.010179	-0.060875	0.004571	0.007613	0.002431	-0.786865	0.056396	-0.548096	0.058055	0.001739	0.078335	0.125481	-0.310681	-0.050006	-0.940867	1.152115	-36.667363	-165.188633
37392		5.773643	0.133578	7.814762	0.028625	0.031963	-0.095617	0.001232	0.008040	0.000542	-0.790283	0.050049	-0.555176	0.057740	0.001335	0.078145	0.125454	-0.310679	-0.049994	-0.940872	1.151796	-36.666926	-165.191889
37393		5.784121	0.165031	7.823873	0.034294	0.000937	-0.081546	0.002624	0.004304	0.008028	-0.787598	0.052002	-0.543945	0.057843	0.001652	0.078238	0.125481	-0.310696	-0.049987	-0.940863	1.149282	-36.668856	-165.187668
37394		5.770388	0.050220	7.778017	-0.011880	0.106416	-0.128371	0.002413	0.009179	-0.001656	-0.789795	0.043945	-0.548340	0.057707	0.000501	0.077778	0.125441	-0.310687	-0.049982	-0.940872	1.150619	-36.667743	-165.193071
37395		5.763203	0.156473	7.813844	0.042773	0.012057	-0.102220	0.006528	-0.000208	-0.000106	-0.784424	0.059814	-0.549561	0.057632	0.001562	0.078139	0.125435	-0.310721	-0.050008	-0.940860	1.153849	-36.672164	-165.194723
37396		5.820944	0.100599	7.808461	-0.019590	0.053646	-0.072959	0.006347	0.003757	0.000664	-0.797852	0.052246	-0.549072	0.058211	0.001004	0.078084	0.125411	-0.310736	-0.050022	-0.940857	1.156485	-36.674181	-165.198414
37397		5.814471	0.173430	7.759218	-0.023051	-0.023391	-0.115134	0.004070	0.005060	0.003146	-0.791260	0.049316	-0.552002	0.058147	0.001734	0.077591	0.125418	-0.310747	-0.050029	-0.940853	1.156875	-36.675622	-165.197669
37398		5.773193	0.188893	7.823292	0.049855	-0.018795	-0.088157	0.002974	0.007502	0.003430	-0.787598	0.058594	-0.549072	0.057735	0.001889	0.078231	0.125401	-0.310748	-0.050019	-0.940855	1.156375	-36.675557	-165.199589
37399		5.811870	0.148588	7.783843	-0.013528	0.005281	-0.097343	0.003888	0.009024	0.003916	-0.786621	0.053711	-0.541748	0.058122	0.001486	0.077836	0.125412	-0.310741	-0.050022	-0.940856	1.156297	-36.674736	-165.198238
37400		5.820305	0.125897	7.786248	-0.024795	0.025592	-0.090743	-0.001959	0.007820	0.002537	-0.792969	0.054199	-0.546631	0.058206	0.001260	0.077860	0.125388	-0.310743	-0.049991	-0.940860	1.153299	-36.674471	-165.200177
37401		5.768972	0.105539	7.787282	0.010086	0.055774	-0.120901	0.006810	0.009625	0.004607	-0.789063	0.044922	-0.551025	0.057693	0.001054	0.077870	0.125407	-0.310731	-0.050006	-0.940861	1.154597	-36.673313	-165.198324
37402		5.768133	0.105675	7.787902	0.010799	0.055867	-0.120902	0.001049	0.012002	0.001312	-0.789795	0.056152	-0.543457	0.057686	0.001057	0.077876	0.125377	-0.310712	-0.049988	-0.940872	1.153867	-36.670638	-165.201751
37403		5.789397	0.168934	7.805888	0.021396	-0.006300	-0.092757	0.004336	0.004675	0.000463	-0.785645	0.055176	-0.546631	0.057896	0.001688	0.078058	0.125372	-0.310724	-0.050000	-0.940868	1.155557	-36.672268	-165.202928
37404		5.788355	0.139939	7.775754	-0.002907	0.016689	-0.118013	0.002376	0.012494	0.003000	-0.793457	0.050537	-0.539063	0.057888	0.001399	0.077754	0.125357	-0.310701	-0.049987	-0.940878	1.154807	-36.669337	-165.204539
37405		5.747873	0.151268	7.785597	0.036905	0.015721	-0.134111	0.004567	0.007609	0.002434	-0.795166	0.046875	-0.542725	0.057482	0.001512	0.077854	0.125362	-0.310700	-0.049995	-0.940878	1.155763	-36.669309	-165.204267
37406		5.787053	0.140154	7.776720	-0.001464	0.016898	-0.118014	0.002058	0.005978	0.002944	-0.790283	0.050293	-0.543945	0.057873	0.001402	0.077765	0.125338	-0.310709	-0.049982	-0.940878	1.154969	-36.670161	-165.206964
37407		5.775841	0.137905	7.799050	0.019343	0.025243	-0.106837	0.005066	0.010160	0.001720	-0.794678	0.053711	-0.544434	0.057762	0.001378	0.077988	0.125341	-0.310695	-0.049993	-0.940882	1.156493	-36.668664	-165.207165
37408		5.796702	0.172010	7.786440	0.004905	-0.014039	-0.103941	0.002971	0.007499	0.003431	-0.783936	0.049805	-0.547607	0.057970	0.001720	0.077862	0.125324	-0.310696	-0.049983	-0.940885	1.155974	-36.668617	-165.209030
37409		5.794210	0.117839	7.780075	-0.011266	0.037445	-0.111409	0.000961	0.008420	0.003227	-0.796631	0.052002	-0.541260	0.057945	0.001179	0.077798	0.125327	-0.310693	-0.049973	-0.940886	1.154519	-36.668134	-165.208180
37410		5.803015	0.124474	7.813101	0.002503	0.034858	-0.079558	0.005893	0.008100	0.004123	-0.790771	0.062988	-0.545166	0.058033	0.001244	0.078129	0.125318	-0.310689	-0.049976	-0.940888	1.155383	-36.667735	-165.209578
37411		5.753145	0.129287	7.790328	0.029252	0.036555	-0.127523	0.004796	0.010542	0.004406	-0.792725	0.052002	-0.548340	0.057536	0.001292	0.077900	0.125333	-0.310675	-0.049981	-0.940890	1.155604	-36.666050	-165.207855
37412		5.772499	0.138330	7.801517	0.022935	0.025729	-0.106846	0.001643	0.007006	0.001744	-0.788330	0.049316	-0.550781	0.057728	0.001383	0.078013	0.125311	-0.310678	-0.049969	-0.940893	1.155000	-36.666247	-165.210307
37413		5.801047	0.124748	7.814558	0.004674	0.035167	-0.079560	0.002969	0.007498	0.003432	-0.787598	0.051758	-0.547363	0.058013	0.001247	0.078143	0.125318	-0.310678	-0.049969	-0.940892	1.154615	-36.666294	-165.209324
37414		5.791385	0.147454	7.813053	0.017338	0.015023	-0.086169	0.004565	0.007606	0.002436	-0.798096	0.050781	-0.544189	0.057917	0.001473	0.078128	0.125300	-0.310677	-0.049969	-0.940895	1.155452	-36.666118	-165.211810
37415		5.781374	0.140901	7.780929	0.004997	0.017818	-0.118016	0.001373	0.007389	0.004429	-0.791504	0.053467	-0.540039	0.057817	0.001410	0.077807	0.125310	-0.310679	-0.049959	-0.940893	1.153730	-36.666239	-165.210117
37416		5.753612	0.208752	7.775506	0.041571	-0.042801	-0.137846	0.006573	0.006685	0.002641	-0.795410	0.050293	-0.539307	0.057539	0.002086	0.077753	0.125294	-0.310682	-0.049968	-0.940894	1.155616	-36.666677	-165.212674
37417		5.847669	0.091180	7.808874	-0.043463	0.056923	-0.056821	-0.003788	0.004775	0.001561	-0.802002	0.054443	-0.536621	0.058479	0.000914	0.078087	0.125281	-0.310699	-0.049941	-0.940892	1.152181	-36.668262	-165.213067
37418		7.984253	0.513372	6.408258	-2.387357	-1.026072	0.103225	0.011244	-0.037428	-0.028014	-0.800537	0.049072	-0.537109	0.079831	0.005119	0.064098	0.125115	-0.310899	-0.050047	-0.940842	1.170200	-36.693656	-165.238349
37419		6.853007	0.729857	6.508913	-1.393913	-0.982976	-0.487822	0.025742	0.015791	-0.017031	-0.805664	0.059082	-0.542969	0.068536	0.007284	0.065085	0.125063	-0.310841	-0.050180	-0.940861	1.191525	-36.688712	-165.251863
37420		6.984561	0.762104	6.849720	-1.293425	-0.980031	-0.135387	0.014113	0.009160	-0.013997	-0.803223	0.060303	-0.543213	0.069849	0.007611	0.068495	0.124981	-0.310824	-0.050249	-0.940874	1.204811	-36.687636	-165.266278
37421		6.354122	0.617369	7.483488	-0.481017	-0.601916	-0.006316	0.004876	0.014120	0.002489	-0.810059	0.052979	-0.527832	0.063546	0.006173	0.074831	0.124988	-0.310792	-0.050255	-0.940883	1.205862	-36.683879	-165.265870
37422		6.017264	0.579426	7.698977	-0.106877	-0.460265	-0.035460	-0.005733	0.011690	0.014547	-0.805420	0.059814	-0.533203	0.060177	0.005801	0.076986	0.125011	-0.310783	-0.050184	-0.940887	1.195579	-36.681737	-165.259774
37423		5.616150	0.203402	7.983000	0.266642	0.030731	-0.053652	-0.016674	0.013865	0.023489	-0.802246	0.054199	-0.530762	0.056167	0.002047	0.079826	0.125084	-0.310770	-0.050056	-0.940888	1.175325	-36.678375	-165.244372
37424		5.590205	-0.176204	8.012443	0.202681	0.404250	-0.051735	-0.010920	0.011485	0.026792	-0.803711	0.050537	-0.530029	0.055907	-0.001750	0.080121	0.125156	-0.310768	-0.049943	-0.940885	1.156881	-36.676431	-165.229537
37425		5.690700	0.005566	7.836591	0.073024	0.176278	-0.129721	-0.010984	0.005493	0.013597	-0.807129	0.062256	-0.530029	0.056909	0.000064	0.078364	0.125189	-0.310789	-0.049863	-0.940878	1.144183	-36.677744	-165.221324
37426		5.912475	-0.055356	7.638330	-0.228160	0.154570	-0.157193	0.000601	0.005221	0.007828	-0.810059	0.052002	-0.526855	0.059127	-0.000551	0.076382	0.125186	-0.310804	-0.049837	-0.940875	1.140493	-36.679135	-165.220313
37427		5.993493	0.240480	7.628484	-0.217544	-0.148680	-0.111960	0.007526	0.004886	-0.001524	-0.812988	0.053955	-0.521484	0.059937	0.002401	0.076283	0.125177	-0.310813	-0.049867	-0.940872	1.144856	-36.680622	-165.222908
37428		5.943362	0.187159	7.544149	-0.240925	-0.101139	-0.210371	0.003150	0.003533	0.002664	-0.810547	0.057373	-0.529297	0.059435	0.001871	0.075440	0.125149	-0.310833	-0.049860	-0.940869	1.144863	-36.682922	-165.226190
37429		6.075892	0.297392	7.593444	-0.285567	-0.225999	-0.089896	0.001055	0.000875	0.004373	-0.818604	0.055908	-0.522461	0.060759	0.002975	0.075934	0.125156	-0.310866	-0.049854	-0.940858	1.143036	-36.686774	-165.224630
37430		5.906716	0.368658	7.682771	-0.083496	-0.245180	-0.118200	-0.002679	0.001426	0.011734	-0.813721	0.062500	-0.522217	0.059067	0.003691	0.076827	0.125163	-0.310902	-0.049808	-0.940847	1.135844	-36.690390	-165.221211
37431		6.033881	0.223835	7.565324	-0.286957	-0.152565	-0.138685	-0.003179	-0.001124	0.012448	-0.803955	0.057373	-0.524170	0.060338	0.002243	0.075654	0.125201	-0.310949	-0.049770	-0.940829	1.128161	-36.695478	-165.213911
37432		5.839426	0.181582	7.684934	-0.078324	-0.052577	-0.159648	-0.004644	0.009241	0.014270	-0.810547	0.053955	-0.532227	0.058398	0.001822	0.076847	0.125222	-0.310950	-0.049706	-0.940829	1.118686	-36.694650	-165.208209
37433		5.928588	0.160216	7.645388	-0.175827	-0.058364	-0.138419	-0.005241	0.014230	0.013840	-0.816895	0.058105	-0.529785	0.059291	0.001608	0.076450	0.125267	-0.310927	-0.049647	-0.940834	1.109098	-36.690956	-165.199699
37434		5.921944	0.117751	7.802652	-0.092251	0.009686	-0.016971	-0.000041	0.013524	0.012055	-0.814453	0.054688	-0.527100	0.059225	0.001181	0.078023	0.125284	-0.310904	-0.049606	-0.940841	1.103187	-36.687653	-165.195814
37435		5.819612	0.076290	7.804231	-0.023241	0.069778	-0.077477	-0.002411	0.011248	0.016449	-0.819336	0.056396	-0.521240	0.058200	0.000769	0.078039	0.125345	-0.310894	-0.049557	-0.940839	1.094134	-36.685694	-165.185483
37436		6.081306	0.003780	7.596815	-0.363509	0.049433	-0.088526	-0.001950	-0.004215	0.016053	-0.820557	0.053223	-0.516113	0.060811	0.000043	0.075969	0.125371	-0.310957	-0.049511	-0.940817	1.085574	-36.692598	-165.179290
37437		5.981744	0.050496	7.688907	-0.219409	0.040688	-0.073421	0.011373	-0.015237	0.005777	-0.816650	0.058838	-0.515381	0.059812	0.000502	0.076894	0.125396	-0.311060	-0.049561	-0.940777	1.089187	-36.705694	-165.176942
37438		5.938209	0.164250	7.677839	-0.159108	-0.060457	-0.106527	0.015524	-0.027938	0.002678	-0.819336	0.061523	-0.518066	0.059371	0.001637	0.076787	0.125378	-0.311220	-0.049632	-0.940722	1.096541	-36.726050	-165.180844
37439		5.983444	0.295540	7.765336	-0.105516	-0.179414	-0.007278	0.015341	-0.035100	0.006511	-0.824219	0.062012	-0.521729	0.059821	0.002951	0.077664	0.125409	-0.311414	-0.049711	-0.940650	1.102276	-36.750533	-165.178247
37440		6.116785	0.465424	7.599385	-0.254420	-0.397895	-0.057725	0.000056	-0.037592	0.014991	-0.819824	0.053223	-0.523438	0.061153	0.004659	0.076005	0.125426	-0.311633	-0.049698	-0.940576	1.095563	-36.776558	-165.172967
37441		6.119823	0.195834	7.541782	-0.357896	-0.148958	-0.106052	-0.008522	-0.022017	0.016480	-0.822021	0.047119	-0.521973	0.061190	0.001967	0.075424	0.125470	-0.311783	-0.049641	-0.940524	1.083244	-36.793654	-165.163054
37442		6.028067	0.398991	7.599582	-0.196641	-0.317440	-0.111605	-0.015449	-0.010559	0.022776	-0.819580	0.059326	-0.519531	0.060276	0.004003	0.075999	0.125500	-0.311886	-0.049524	-0.940491	1.064123	-36.804288	-165.152660
37443		6.016229	0.368831	7.645134	-0.167569	-0.280677	-0.082719	-0.022014	0.004096	0.024471	-0.831055	0.062012	-0.520020	0.060163	0.003704	0.076450	0.125566	-0.311924	-0.049375	-0.940478	1.040430	-36.806505	-165.136670
37444		5.759719	0.272475	7.757070	0.070358	-0.119748	-0.148245	-0.033462	0.014845	0.031077	-0.822998	0.058838	-0.517578	0.057603	0.002747	0.077566	0.125619	-0.311921	-0.049146	-0.940484	1.007209	-36.802666	-165.119366
37445		5.919394	0.214655	7.612437	-0.151606	-0.125887	-0.169261	-0.027029	0.022162	0.029836	-0.819092	0.059814	-0.520264	0.059202	0.002166	0.076118	0.125707	-0.311878	-0.048954	-0.940496	0.978209	-36.794573	-165.099312
37446		5.656836	0.072705	7.827302	0.136088	0.097399	-0.156408	-0.025201	0.036318	0.027759	-0.825928	0.055664	-0.524414	0.056582	0.000745	0.078263	0.125761	-0.311768	-0.048754	-0.940536	0.951008	-36.778386	-165.084202
37447		5.895441	0.051401	7.726435	-0.113872	0.047747	-0.094589	-0.020375	0.033324	0.020114	-0.822754	0.055420	-0.522217	0.058967	0.000528	0.077254	0.125817	-0.311666	-0.048602	-0.940570	0.929922	-36.763792	-165.070988
37448		6.063132	0.001656	7.615556	-0.322681	0.038973	-0.083729	-0.020332	0.041131	0.012403	-0.825439	0.065430	-0.516113	0.060647	0.000028	0.076143	0.125805	-0.311527	-0.048446	-0.940626	0.912084	-36.744696	-165.067201
37449		6.063923	0.108468	7.631981	-0.288374	-0.063723	-0.068825	-0.003211	0.046653	0.004908	-0.834473	0.068359	-0.527832	0.060657	0.001087	0.076306	0.125819	-0.311348	-0.048389	-0.940686	0.907260	-36.722322	-165.064721
37450		6.022980	0.202867	7.681645	-0.206791	-0.139163	-0.052412	0.002995	0.051037	0.001703	-0.833984	0.063721	-0.530518	0.060249	0.002028	0.076801	0.125801	-0.311145	-0.048355	-0.940758	0.907268	-36.697458	-165.067787
37451		6.174804	0.313290	7.636055	-0.324976	-0.285777	0.003035	0.004625	0.046904	0.006512	-0.828125	0.065674	-0.520508	0.061766	0.003133	0.076346	0.125834	-0.310959	-0.048333	-0.940816	0.906251	-36.674955	-165.064162
37452		6.071335	0.297798	7.615878	-0.264244	-0.254198	-0.075288	0.007622	0.050144	0.015763	-0.830566	0.058105	-0.531006	0.060732	0.002980	0.076144	0.125888	-0.310761	-0.048298	-0.940876	0.902935	-36.650740	-165.057357
37453		6.008516	0.358116	7.678574	-0.167429	-0.290335	-0.061858	0.006925	0.051544	0.017254	-0.832764	0.066650	-0.534668	0.060105	0.003584	0.076770	0.125977	-0.310555	-0.048267	-0.940933	0.898634	-36.625675	-165.046015
37454		5.949788	0.229316	7.668094	-0.166129	-0.157439	-0.107027	0.009332	0.049580	0.018668	-0.828613	0.070557	-0.527588	0.059517	0.002295	0.076666	0.126047	-0.310359	-0.048237	-0.940990	0.895094	-36.601818	-165.037230
37455		5.724506	-0.011887	7.727692	-0.025743	0.130328	-0.196571	0.011016	0.053255	0.015769	-0.836670	0.062988	-0.525391	0.057266	-0.000119	0.077262	0.126135	-0.310142	-0.048226	-0.941050	0.893771	-36.575758	-165.026941
37456		5.664501	0.012104	7.650310	-0.020562	0.106181	-0.294165	0.023763	0.036114	0.008121	-0.826660	0.065918	-0.519775	0.056659	0.000114	0.076493	0.126175	-0.309998	-0.048289	-0.941089	0.903073	-36.559522	-165.025691
37457		5.657329	-0.031785	7.753924	0.030007	0.168659	-0.215794	0.027442	0.021805	-0.004738	-0.832275	0.066162	-0.532471	0.056582	-0.000330	0.077533	0.126185	-0.309914	-0.048407	-0.941110	0.920087	-36.551296	-165.030379
37458		5.738816	-0.001831	7.689379	-0.063837	0.114314	-0.218761	0.035120	0.015832	-0.009765	-0.832031	0.064697	-0.525146	0.057394	-0.000035	0.076889	0.126154	-0.309854	-0.048564	-0.941126	0.943621	-36.546513	-165.042098
37459		5.959730	-0.025627	7.577566	-0.306793	0.075745	-0.177404	0.036329	0.006778	-0.019368	-0.839600	0.055176	-0.534912	0.059600	-0.000276	0.075774	0.126105	-0.309831	-0.048756	-0.941130	0.972040	-36.546752	-165.057388
37460		5.856590	-0.028169	7.663388	-0.179425	0.118223	-0.169981	0.040082	0.006222	-0.026721	-0.835449	0.063721	-0.527100	0.058568	-0.000305	0.076632	0.125995	-0.309809	-0.048967	-0.941141	1.005701	-36.547308	-165.081881
37461		5.919948	0.082701	7.679085	-0.191191	0.005850	-0.118133	0.045430	0.005768	-0.035064	-0.838867	0.065430	-0.530762	0.059202	0.000799	0.076789	0.125886	-0.309781	-0.049227	-0.941151	1.046008	-36.547950	-165.108379
37462		5.829386	0.137811	7.749888	-0.067224	-0.011296	-0.114396	0.043223	0.010636	-0.034497	-0.838623	0.064941	-0.525879	0.058298	0.001351	0.077496	0.125748	-0.309734	-0.049463	-0.941172	1.084716	-36.545875	-165.137957
37463		5.855265	0.222423	7.635272	-0.131691	-0.112851	-0.189751	0.040704	0.009004	-0.033990	-0.839355	0.063965	-0.536377	0.058556	0.002199	0.076351	0.125638	-0.309694	-0.049697	-0.941188	1.121832	-36.544647	-165.163644
37464		5.975465	0.247425	7.615672	-0.231257	-0.160445	-0.133502	0.036490	0.014796	-0.033638	-0.836914	0.073975	-0.525146	0.059761	0.002450	0.076153	0.125495	-0.309633	-0.049897	-0.941217	1.156277	-36.540175	-165.192468
37465		5.742879	0.301863	7.727032	0.024998	-0.142018	-0.181591	0.035630	0.027039	-0.028640	-0.841064	0.061523	-0.522217	0.057440	0.002997	0.077263	0.125407	-0.309512	-0.050088	-0.941258	1.188051	-36.528653	-165.214073
37466		5.798466	0.249840	7.723669	-0.037014	-0.100114	-0.152031	0.034172	0.027181	-0.034216	-0.844971	0.060059	-0.523682	0.057996	0.002475	0.077229	0.125263	-0.309393	-0.050271	-0.941306	1.221283	-36.517059	-165.242927
37467		5.921761	0.290854	7.572728	-0.211577	-0.187056	-0.199243	0.035051	0.039780	-0.036783	-0.843018	0.061279	-0.532227	0.059233	0.002884	0.075716	0.125138	-0.309212	-0.050463	-0.941372	1.256038	-36.498118	-165.270114
37468		6.035655	0.208270	7.541902	-0.344618	-0.131752	-0.157809	0.045697	0.049040	-0.046055	-0.838867	0.067139	-0.531738	0.060376	0.002052	0.075405	0.124957	-0.308980	-0.050704	-0.941460	1.300677	-36.473833	-165.307615
37469		5.675159	0.164975	7.692416	0.003483	0.014164	-0.251951	0.048168	0.068607	-0.046867	-0.846924	0.051270	-0.530518	0.056778	0.001618	0.076905	0.124812	-0.308651	-0.050956	-0.941573	1.346883	-36.438214	-165.341457
37470		5.820904	0.144930	7.604801	-0.173304	-0.006446	-0.236319	0.054442	0.084270	-0.059671	-0.838135	0.057373	-0.538818	0.058241	0.001411	0.076024	0.124590	-0.308245	-0.051237	-0.941720	1.401849	-36.393522	-165.387908
37471		5.797061	0.251723	7.612661	-0.132154	-0.098327	-0.242173	0.051955	0.111007	-0.058658	-0.847656	0.066162	-0.527588	0.058014	0.002480	0.076095	0.124406	-0.307711	-0.051498	-0.941905	1.454634	-36.333399	-165.429263
37472		5.921463	0.394345	7.645538	-0.185070	-0.251441	-0.139219	0.045539	0.132046	-0.056923	-0.834229	0.060059	-0.530273	0.059266	0.003909	0.076417	0.124198	-0.307085	-0.051704	-0.942125	1.502644	-36.261324	-165.472375
37473		6.066308	0.540399	7.636014	-0.278338	-0.420870	-0.058396	0.030390	0.139341	-0.043802	-0.844238	0.057129	-0.533691	0.060717	0.005379	0.076319	0.124058	-0.306435	-0.051823	-0.942349	1.536330	-36.185145	-165.502457
37474		5.884876	0.498840	7.883439	-0.021586	-0.301140	0.033025	0.013271	0.143370	-0.025112	-0.850342	0.063477	-0.540527	0.058906	0.004976	0.078793	0.123952	-0.305784	-0.051821	-0.942574	1.552241	-36.107050	-165.522766
37475		5.702081	0.517795	7.971191	0.163631	-0.269498	-0.003391	-0.004340	0.123387	-0.003489	-0.840576	0.063721	-0.534912	0.057070	0.005179	0.079677	0.123945	-0.305241	-0.051725	-0.942757	1.549260	-36.040620	-165.524479
37476		5.789327	0.394804	7.958590	0.045964	-0.174853	0.035086	-0.021356	0.102645	0.012747	-0.854492	0.068604	-0.538330	0.057934	0.003960	0.079556	0.123956	-0.304813	-0.051528	-0.942904	1.529980	-35.986432	-165.518384
37477		5.722524	0.364300	7.931134	0.067613	-0.142154	-0.027081	-0.032261	0.082720	0.027721	-0.844238	0.066895	-0.541992	0.057258	0.003664	0.079287	0.124043	-0.304487	-0.051278	-0.943012	1.498504	-35.943768	-165.498822
37478		6.034620	0.362705	7.739424	-0.290162	-0.242897	0.000756	-0.034092	0.065069	0.031709	-0.843262	0.054932	-0.541504	0.060371	0.003650	0.077374	0.124117	-0.304248	-0.051015	-0.943094	1.464517	-35.911373	-165.479871
37479		5.988852	0.315101	7.744788	-0.267153	-0.192615	-0.022952	-0.035213	0.046019	0.034210	-0.840088	0.060547	-0.541992	0.059906	0.003175	0.077434	0.124220	-0.304099	-0.050764	-0.943142	1.429107	-35.889806	-165.456454
37480		6.155212	0.213578	7.684857	-0.459270	-0.144060	0.023856	-0.031385	0.019792	0.034902	-0.852783	0.069092	-0.536865	0.061559	0.002159	0.076842	0.124296	-0.304073	-0.050536	-0.943152	1.395892	-35.883382	-165.436812
37481		6.199590	0.125693	7.727018	-0.492670	-0.065488	0.082287	-0.027885	-0.001856	0.032474	-0.852295	0.062012	-0.543213	0.061995	0.001278	0.077271	0.124390	-0.304144	-0.050352	-0.943127	1.365904	-35.889192	-165.415474
37482		5.881725	-0.081054	7.763124	-0.275327	0.201897	-0.078686	-0.020920	-0.019497	0.019604	-0.850098	0.057861	-0.531982	0.058810	-0.000797	0.077637	0.124401	-0.304293	-0.050222	-0.943084	1.345399	-35.905060	-165.407085
37483		6.005061	-0.062592	7.742858	-0.374859	0.154431	-0.022276	-0.005452	-0.031412	0.009669	-0.854492	0.065674	-0.527588	0.060038	-0.000621	0.077438	0.124415	-0.304484	-0.050196	-0.943022	1.337996	-35.927482	-165.402352
37484		5.709816	-0.114897	7.886943	-0.072616	0.290444	-0.079782	0.005040	-0.031957	-0.004258	-0.852539	0.068115	-0.543701	0.057086	-0.001152	0.078879	0.124344	-0.304670	-0.050231	-0.942969	1.342388	-35.950174	-165.411651
37485		5.616964	-0.079812	7.812756	-0.028717	0.264963	-0.193707	0.011542	-0.034855	-0.012837	-0.853760	0.070068	-0.529053	0.056156	-0.000806	0.078137	0.124277	-0.304861	-0.050322	-0.942912	1.354105	-35.974265	-165.422903
37486		5.734265	-0.039132	7.735250	-0.149802	0.191796	-0.186775	0.020050	-0.038674	-0.021192	-0.866699	0.067139	-0.531494	0.057328	-0.000405	0.077364	0.124155	-0.305065	-0.050459	-0.942855	1.374183	-36.000569	-165.443483
37487		5.764743	0.101951	7.678837	-0.164460	0.044295	-0.211740	0.029858	-0.042007	-0.027845	-0.856445	0.064941	-0.535889	0.057631	0.001000	0.076801	0.124043	-0.305274	-0.050664	-0.942791	1.402741	-36.028541	-165.465515
37488		5.862041	0.165170	7.620466	-0.253560	-0.040998	-0.200386	0.038822	-0.036435	-0.034159	-0.855469	0.070801	-0.530518	0.058607	0.001627	0.076216	0.123884	-0.305453	-0.050907	-0.942741	1.439004	-36.053370	-165.495798
37489		5.859165	0.271666	7.598789	-0.232718	-0.141065	-0.217316	0.037286	-0.032997	-0.035082	-0.863525	0.065674	-0.537842	0.058580	0.002692	0.075998	0.123752	-0.305613	-0.051152	-0.942693	1.474790	-36.076055	-165.522851
37490		5.712003	0.265453	7.822557	0.008951	-0.060882	-0.123206	0.045250	-0.025627	-0.037241	-0.860107	0.070801	-0.532227	0.057110	0.002626	0.078233	0.123595	-0.305736	-0.051424	-0.942659	1.515943	-36.094624	-165.554775
37491		5.469070	0.205043	7.883459	0.218563	0.062708	-0.218419	0.043407	-0.014925	-0.032746	-0.860596	0.065674	-0.530029	0.054685	0.002024	0.078839	0.123487	-0.305808	-0.051684	-0.942635	1.554101	-36.106965	-165.579880
37492		5.552832	0.295925	7.878721	0.174697	-0.037486	-0.170912	0.036941	-0.004291	-0.031877	-0.868164	0.067871	-0.532715	0.055527	0.002936	0.078789	0.123348	-0.305836	-0.051895	-0.942633	1.588040	-36.113364	-165.607601
37493		5.665066	0.313973	7.826850	0.061921	-0.082176	-0.146222	0.029291	0.005225	-0.028826	-0.871338	0.062500	-0.531982	0.056653	0.003120	0.078267	0.123243	-0.305823	-0.052070	-0.942641	1.616254	-36.114203	-165.629549
37494		5.986886	0.424396	7.589185	-0.296043	-0.290857	-0.145920	0.026022	0.016066	-0.029925	-0.866211	0.057373	-0.527344	0.059876	0.004225	0.075888	0.123098	-0.305763	-0.052213	-0.942672	1.642902	-36.108954	-165.655925
37495		5.910860	0.407432	7.687787	-0.187360	-0.239235	-0.111451	0.017691	0.020122	-0.028138	-0.878418	0.055420	-0.535645	0.059117	0.004059	0.076872	0.122982	-0.305686	-0.052323	-0.942705	1.663999	-36.101256	-165.677079
37496		6.141095	0.420155	7.641946	-0.391994	-0.302910	-0.012508	0.014175	0.017609	-0.032027	-0.866211	0.053467	-0.527588	0.061418	0.004186	0.076414	0.122803	-0.305626	-0.052411	-0.942743	1.684744	-36.095085	-165.705750
37497		5.621258	0.245844	7.967332	0.150645	0.027925	-0.060053	0.013880	0.018000	-0.029345	-0.864502	0.055176	-0.528320	0.056220	0.002445	0.079668	0.122675	-0.305562	-0.052506	-0.942776	1.704178	-36.088570	-165.727795
37498		5.764695	0.299072	8.155042	0.157822	-0.016808	0.177341	0.009842	-0.012066	-0.028358	-0.863525	0.064453	-0.527588	0.057642	0.002979	0.081554	0.122498	-0.305646	-0.052586	-0.942767	1.721279	-36.099448	-165.754480
37499		6.087150	0.529728	8.090672	-0.066522	-0.312084	0.320977	0.001391	-0.058901	-0.007790	-0.871094	0.058350	-0.528809	0.060848	0.005294	0.080925	0.122432	-0.305957	-0.052636	-0.942672	1.725527	-36.137337	-165.762886
37500		6.254468	0.338616	8.172948	-0.191373	-0.144151	0.481617	-0.010943	-0.127892	-0.000488	-0.883301	0.065186	-0.526367	0.062492	0.003390	0.081769	0.122331	-0.306606	-0.052648	-0.942473	1.720530	-36.215022	-165.771617
37501		6.027693	-0.492328	7.709650	-0.477612	0.625434	-0.045658	-0.009330	-0.198365	-0.007820	-0.875000	0.053223	-0.519043	0.060200	-0.004922	0.077156	0.122212	-0.307581	-0.052733	-0.942166	1.720436	-36.332782	-165.783036
37502		6.931551	-0.410205	7.268682	-1.389687	0.299078	0.138578	0.021576	-0.259972	-0.052425	-0.878906	0.062500	-0.525879	0.069220	-0.004128	0.072776	0.121875	-0.308819	-0.053057	-0.941787	1.757745	-36.485214	-165.832232
37503		5.799475	-0.233037	7.847618	-0.106668	0.464590	-0.063532	0.031488	-0.272314	-0.050027	-0.882568	0.055420	-0.507813	0.057887	-0.002357	0.078555	0.121600	-0.310105	-0.053444	-0.941378	1.800102	-36.644563	-165.875576
37504		5.476564	0.284974	8.313496	0.575335	0.121924	0.129255	0.015391	-0.343067	-0.023399	-0.883057	0.056396	-0.503662	0.054623	0.002837	0.083229	0.121369	-0.311744	-0.053744	-0.940849	1.823027	-36.845081	-165.906281
37505		5.537695	1.026844	8.438374	0.830586	-0.572827	0.282286	-0.005108	-0.408248	0.003717	-0.893555	0.056885	-0.506836	0.055204	0.010272	0.084496	0.121252	-0.313704	-0.053957	-0.940200	1.823590	-37.083228	-165.914587
37506		4.807721	0.459233	8.556089	1.360429	0.147710	-0.083406	0.003062	-0.523088	0.062767	-0.890869	0.052734	-0.505371	0.047852	0.004606	0.085686	0.121354	-0.316218	-0.054172	-0.939332	1.804743	-37.388380	-165.888017
37507		5.027053	2.427028	9.160290	2.122424	-1.678295	0.567620	-0.099047	-0.708116	0.151012	-0.891846	0.053223	-0.490723	0.049927	0.024353	0.091768	0.121698	-0.319679	-0.053893	-0.938132	1.690441	-37.800841	-165.796148
37508		5.245544	0.681821	8.393410	1.128276	-0.175900	0.042533	-0.192904	-0.820206	0.224778	-0.900635	0.047119	-0.490234	0.052103	0.006958	0.084142	0.122162	-0.323741	-0.053109	-0.936722	1.488971	-38.278592	-165.656198
37509		5.598971	1.122440	8.198281	0.954001	-0.709347	0.107293	-0.186030	-0.967526	0.272175	-0.904785	0.062988	-0.470459	0.055577	0.011377	0.082242	0.122862	-0.328490	-0.052383	-0.935016	1.268262	-38.840834	-165.475534
37510		5.506237	0.338664	8.227398	0.941603	0.065332	0.047915	-0.203796	-1.073151	0.313706	-0.906982	0.066162	-0.466309	0.054614	0.003557	0.082564	0.123647	-0.333749	-0.051553	-0.933094	1.014792	-39.463562	-165.267035
37511		5.313361	-0.002170	8.437629	1.241200	0.466091	0.069939	-0.192876	-1.189841	0.336924	-0.919678	0.066895	-0.450439	0.052630	0.000149	0.084690	0.124572	-0.339536	-0.050821	-0.930921	0.751711	-40.152496	-165.031083
37512		5.864379	-0.912157	8.332216	0.656008	1.216656	0.323223	-0.177936	-1.299659	0.290330	-0.921387	0.068359	-0.443604	0.058114	-0.008963	0.083709	0.125228	-0.345801	-0.050289	-0.928553	0.514236	-40.903313	-164.830193
37513		6.011646	-0.655086	8.349401	0.766373	0.953923	0.423648	-0.114842	-1.369529	0.181396	-0.927490	0.068359	-0.425049	0.059549	-0.006449	0.083907	0.125508	-0.352305	-0.050294	-0.926067	0.361972	-41.693087	-164.701469
37514		6.279397	-1.298329	8.179075	0.435287	1.512215	0.460369	-0.100592	-1.417805	0.072986	-0.936523	0.066895	-0.408691	0.062217	-0.012919	0.082240	0.125246	-0.358981	-0.050567	-0.923520	0.270268	-42.509999	-164.658703
37515		6.247140	-0.735157	8.015441	0.643958	0.978641	0.308597	0.007238	-1.408453	0.001816	-0.945557	0.066162	-0.398682	0.061905	-0.007354	0.080591	0.124892	-0.365508	-0.051474	-0.920954	0.276646	-43.321301	-164.664191
37516		6.568921	0.466251	7.577573	0.586952	-0.281997	0.205399	0.014918	-1.402061	-0.052900	-0.943604	0.070068	-0.375732	0.065157	0.004640	0.076234	0.124243	-0.371971	-0.052489	-0.918393	0.317879	-44.128782	-164.720158
37517		7.433685	0.002805	7.229090	-0.235722	-0.022396	0.553690	0.001336	-1.333005	-0.078146	-0.941162	0.070313	-0.366455	0.073853	-0.000001	0.072784	0.123517	-0.378098	-0.053464	-0.915930	0.366837	-44.896578	-164.791047
37518		7.258494	-1.235825	6.585362	-0.760755	1.125720	-0.028375	0.123914	-1.237206	-0.096131	-0.965088	0.072998	-0.347656	0.072170	-0.012434	0.066293	0.122914	-0.383692	-0.054953	-0.913593	0.498575	-45.609326	-164.884643
37519		7.031577	-0.842387	6.389940	-0.528456	0.799328	-0.322444	0.260882	-1.201693	-0.079648	-0.966309	0.058105	-0.340332	0.069927	-0.008535	0.064309	0.122701	-0.389028	-0.057032	-0.911235	0.702462	-46.301646	-164.962434
37520		6.521855	-0.273654	6.983865	0.475433	0.515067	-0.278982	0.345479	-1.099106	-0.072447	-0.956543	0.061523	-0.341797	0.064832	-0.002881	0.070191	0.122657	-0.393835	-0.059393	-0.909022	0.953797	-46.935044	-165.044721
37521		4.493229	-1.315139	9.664668	3.495842	2.481082	0.033479	0.389448	-0.893752	0.003493	-0.963867	0.055908	-0.321045	0.044500	-0.013339	0.096820	0.123156	-0.397690	-0.061701	-0.907121	1.184957	-47.451379	-165.057708
37522		2.035371	-2.582308	11.620274	6.188612	4.598609	-0.517790	0.479529	-0.600967	0.168850	-0.958740	0.057373	-0.312012	0.020026	-0.026085	0.116201	0.124621	-0.400208	-0.063884	-0.905661	1.361954	-47.802014	-164.933917
37523		0.245658	-3.214739	13.176248	8.286087	5.919616	-0.851282	0.547411	-0.335128	0.452560	-0.968018	0.066895	-0.313232	0.002309	-0.032503	0.131678	0.127641	-0.401561	-0.065662	-0.904514	1.393712	-48.004507	-164.556054
37524		1.026593	-3.924054	14.714366	8.639881	6.861361	0.734271	0.518644	0.004162	0.880185	-0.958984	0.067139	-0.309326	0.010443	-0.039576	0.147041	0.132591	-0.401532	-0.066209	-0.903774	1.130397	-48.017208	-163.811042
37525		3.188721	-3.693997	15.738853	7.961384	6.492309	3.071019	0.415025	0.500056	1.294166	-0.967773	0.079590	-0.314697	0.032520	-0.037057	0.157231	0.139418	-0.399450	-0.065150	-0.903747	0.543403	-47.745857	-162.701158
37526		1.801997	-3.585286	14.601388	7.948948	6.393935	1.377947	0.453100	0.992757	1.502210	-0.953369	0.094971	-0.327148	0.019014	-0.036043	0.145840	0.147347	-0.395156	-0.063469	-0.904496	-0.137819	-47.183760	-161.434860
37527		1.243248	-2.155982	13.279364	7.682453	4.841347	0.190980	0.447057	1.213260	1.570576	-0.937012	0.107178	-0.342041	0.013408	-0.021754	0.132666	0.155693	-0.389853	-0.061488	-0.905535	-0.835085	-46.485298	-160.129816
37528		2.266841	-0.946616	12.604238	6.807545	3.271022	0.572705	0.293431	1.326007	1.536758	-0.925781	0.121582	-0.352539	0.023576	-0.009472	0.125874	0.163538	-0.384106	-0.058752	-0.906789	-1.565859	-45.710660	-158.893356
37529		3.053403	-0.579364	11.860631	5.781099	2.486541	0.709987	0.071734	1.412957	1.412955	-0.918945	0.137695	-0.377930	0.031411	-0.005616	0.118384	0.170472	-0.378073	-0.055203	-0.908269	-2.315011	-44.878480	-157.783639
37530		3.381778	-0.587645	10.967354	4.839114	2.103358	0.396167	-0.109644	1.460797	1.210612	-0.907227	0.145264	-0.395508	0.034652	-0.005608	0.109426	0.176073	-0.371881	-0.051135	-0.909993	-3.020063	-44.013342	-156.877722
37531		3.742943	-0.302019	10.175653	4.063691	1.447250	0.138904	-0.266078	1.454121	0.962412	-0.892822	0.154053	-0.403809	0.038181	-0.002703	0.101484	0.180306	-0.365767	-0.046852	-0.911871	-3.650936	-43.153898	-156.185986
37532		4.075964	-0.085653	9.529388	3.393173	0.890471	-0.059674	-0.432004	1.414964	0.721667	-0.877197	0.162109	-0.410400	0.041435	-0.000502	0.095004	0.183044	-0.359892	-0.042252	-0.913886	-4.229013	-42.319796	-155.710460
37533		4.483486	-0.232130	9.033107	2.647999	0.680013	-0.103095	-0.575399	1.369674	0.495536	-0.869873	0.165527	-0.429199	0.045457	-0.001950	0.090027	0.184540	-0.354290	-0.037474	-0.915980	-4.758383	-41.519604	-155.413836
37534		4.746545	-0.474610	8.476727	1.934747	0.596389	-0.299058	-0.649581	1.320700	0.303382	-0.854248	0.183350	-0.429932	0.048031	-0.004399	0.084466	0.184932	-0.348916	-0.032709	-0.918144	-5.225245	-40.753684	-155.281728
37535		4.989239	-0.611261	8.016922	1.342548	0.453395	-0.457063	-0.675911	1.257477	0.157191	-0.848877	0.176758	-0.449463	0.050400	-0.005803	0.079873	0.184660	-0.343822	-0.028167	-0.920268	-5.631662	-40.032336	-155.254517
37536		5.348380	-0.829669	7.705014	0.737965	0.390134	-0.433843	-0.659340	1.187636	0.062036	-0.840820	0.179443	-0.457275	0.053943	-0.008027	0.076757	0.183896	-0.338995	-0.023900	-0.922331	-5.982689	-39.354760	-155.307120
37537		5.718868	-0.938084	7.401920	0.173443	0.234996	-0.416543	-0.623034	1.125822	0.022289	-0.823242	0.169434	-0.464111	0.057605	-0.009144	0.073724	0.183058	-0.334408	-0.019951	-0.924263	-6.294954	-38.716476	-155.380507
37538		5.967098	-0.994105	7.126237	-0.267594	0.086197	-0.469358	-0.547342	1.079155	0.028366	-0.820801	0.178711	-0.470459	0.060056	-0.009738	0.070966	0.182290	-0.329946	-0.016354	-0.926088	-6.567509	-38.103239	-155.458418
37539		6.163131	-1.103350	6.956127	-0.623609	0.029356	-0.474664	-0.457610	1.025055	0.076865	-0.802002	0.180664	-0.475586	0.061991	-0.010851	0.069269	0.181958	-0.325655	-0.013172	-0.927721	-6.811538	-37.519231	-155.490511
37540		6.395826	-1.099613	6.783146	-0.967158	-0.138530	-0.476121	-0.351047	0.979933	0.125819	-0.793945	0.182861	-0.476563	0.064297	-0.010837	0.067536	0.181950	-0.321460	-0.010418	-0.929220	-7.016839	-36.956194	-155.494810
37541		6.582218	-1.103911	6.613479	-1.276372	-0.276713	-0.508068	-0.247158	0.928362	0.171049	-0.785156	0.176514	-0.487061	0.066138	-0.010901	0.065842	0.182379	-0.317414	-0.008148	-0.930548	-7.182954	-36.420689	-155.456327
37542		6.794904	-0.998586	6.462924	-1.552924	-0.517812	-0.525224	-0.166177	0.861483	0.209147	-0.777100	0.176758	-0.495605	0.068237	-0.009861	0.064344	0.183042	-0.313589	-0.006229	-0.931729	-7.320715	-35.918977	-155.395244
37543		7.011281	-0.870078	6.257398	-1.851171	-0.784627	-0.591672	-0.112771	0.792581	0.237651	-0.767822	0.177979	-0.494873	0.070370	-0.008582	0.062300	0.183982	-0.310042	-0.004603	-0.932740	-7.441475	-35.455575	-155.301588
37544		7.155759	-0.667262	5.903166	-2.149427	-1.110833	-0.832538	-0.093586	0.718363	0.255586	-0.762695	0.184082	-0.497803	0.071777	-0.006553	0.058777	0.184965	-0.306809	-0.003082	-0.933620	-7.560927	-35.031513	-155.198450
37545		7.274903	-0.548344	5.547636	-2.448374	-1.346455	-1.083807	-0.085497	0.628608	0.262613	-0.755371	0.183105	-0.506836	0.072930	-0.005364	0.055250	0.186054	-0.303994	-0.001697	-0.934328	-7.681575	-34.659019	-155.075675
37546		7.429962	-0.496062	5.224099	-2.769452	-1.523495	-1.283298	-0.074811	0.531986	0.241012	-0.742920	0.188477	-0.499512	0.074444	-0.004851	0.052045	0.186999	-0.301607	-0.000461	-0.934914	-7.791539	-34.341601	-154.967280
37547		7.448646	-0.526795	4.835633	-3.044802	-1.576349	-1.603707	-0.065027	0.431565	0.186368	-0.741699	0.185547	-0.511963	0.074595	-0.005183	0.048197	0.187759	-0.299688	0.000529	-0.935379	-7.878914	-34.086532	-154.880839
37548		7.490895	-0.641926	4.553791	-3.299995	-1.536907	-1.812033	-0.034700	0.330543	0.097306	-0.747314	0.178711	-0.509521	0.074987	-0.006375	0.045415	0.188098	-0.298202	0.001170	-0.935785	-7.919775	-33.894582	-154.852496
37549		7.483327	-0.757433	4.317000	-3.487122	-1.462782	-2.008164	0.004033	0.243884	-0.026618	-0.739502	0.176514	-0.504883	0.074885	-0.007585	0.043079	0.187964	-0.297095	0.001343	-0.936163	-7.895576	-33.762722	-154.894529
37550		7.504091	-0.889738	4.393859	-3.523309	-1.334717	-1.925114	0.035606	0.153251	-0.174726	-0.739502	0.170654	-0.516602	0.075067	-0.008971	0.043879	0.187127	-0.296375	0.001084	-0.936560	-7.802217	-33.692841	-155.036048
37551		7.636029	-0.956157	4.556878	-3.568790	-1.284142	-1.713122	0.038242	0.066208	-0.320129	-0.736572	0.177734	-0.512207	0.076360	-0.009693	0.045542	0.185670	-0.296069	0.000495	-0.936947	-7.656854	-33.684368	-155.261340
37552		7.977770	-0.959075	4.835443	-3.683795	-1.341206	-1.293481	-0.006537	0.007664	-0.428207	-0.741699	0.169922	-0.513672	0.079759	-0.009760	0.048352	0.183589	-0.296070	-0.000079	-0.937357	-7.499299	-33.715918	-155.561490
37553		8.137984	-1.281787	4.979189	-3.843775	-1.044950	-1.049386	-0.062475	-0.006315	-0.485075	-0.732666	0.170166	-0.515137	0.081347	-0.013000	0.049799	0.181209	-0.296194	-0.000508	-0.937781	-7.352438	-33.759869	-155.893090
37554		7.983029	-1.519216	4.834160	-3.892457	-0.750318	-1.228308	-0.102675	-0.009700	-0.483050	-0.737793	0.154785	-0.500244	0.079791	-0.015360	0.048353	0.178730	-0.296362	-0.000730	-0.938203	-7.229397	-33.804173	-156.229057
37555		7.805121	-1.468314	4.642550	-3.848389	-0.727324	-1.488628	-0.132392	-0.030708	-0.426440	-0.731445	0.156982	-0.501709	0.078013	-0.014819	0.046447	0.176519	-0.296660	-0.000766	-0.938527	-7.145342	-33.856640	-156.519003
37556		7.833097	-1.477245	4.419902	-3.994157	-0.727833	-1.652287	-0.174809	-0.066556	-0.314632	-0.741211	0.155518	-0.509766	0.078293	-0.014857	0.044238	0.174765	-0.297157	-0.000462	-0.938698	-7.130100	-33.920605	-156.729981
37557		8.024799	-1.577098	4.251709	-4.260071	-0.699240	-1.668701	-0.190658	-0.083164	-0.203578	-0.732422	0.153076	-0.497559	0.080214	-0.015812	0.042566	0.173513	-0.297751	0.000061	-0.938743	-7.166481	-33.986839	-156.863139
37558		8.249324	-1.620162	4.191470	-4.469518	-0.730507	-1.582594	-0.190807	-0.092082	-0.109789	-0.731934	0.153076	-0.499268	0.082465	-0.016207	0.041968	0.172696	-0.298383	0.000722	-0.938692	-7.239750	-34.050931	-156.931597
37559		8.261248	-1.525781	4.025193	-4.530159	-0.838348	-1.716192	-0.195915	-0.097112	-0.048637	-0.732666	0.159424	-0.497803	0.082589	-0.015238	0.040307	0.172161	-0.299045	0.001488	-0.938579	-7.339159	-34.114100	-156.957215
37560		8.094546	-1.410464	3.703963	-4.534244	-0.925831	-2.078745	-0.195322	-0.122767	-0.026525	-0.737793	0.152344	-0.488281	0.080921	-0.014079	0.037103	0.171687	-0.299825	0.002280	-0.938416	-7.448426	-34.189880	-156.970703
37561		8.356922	-1.076747	3.588199	-4.677575	-1.337921	-2.053632	-0.214167	-0.162390	-0.022067	-0.745605	0.150879	-0.488770	0.083539	-0.010738	0.035961	0.171250	-0.300808	0.003115	-0.938178	-7.571972	-34.288221	-156.971905
37562		8.601319	-0.976258	3.462300	-4.884853	-1.526253	-2.019613	-0.249653	-0.196811	-0.007235	-0.739014	0.159912	-0.495361	0.085979	-0.009722	0.034720	0.170827	-0.301981	0.004115	-0.937875	-7.724151	-34.404695	-156.959684
37563		8.868001	-1.048191	3.326708	-5.166828	-1.561126	-1.959417	-0.269381	-0.216305	0.000865	-0.739746	0.166748	-0.498535	0.088644	-0.010437	0.033377	0.170415	-0.303263	0.005198	-0.937531	-7.891494	-34.531859	-156.939390
37564		8.859689	-1.295804	3.044794	-5.378404	-1.354899	-2.152339	-0.243335	-0.222492	0.013882	-0.749512	0.167236	-0.487061	0.088564	-0.012915	0.030562	0.170059	-0.304550	0.006190	-0.937172	-8.050052	-34.661396	-156.914330
37565		8.598830	-1.684012	2.661661	-5.501216	-0.942453	-2.552621	-0.150580	-0.262899	0.019947	-0.745117	0.169434	-0.490723	0.085955	-0.016811	0.026742	0.169917	-0.305946	0.006705	-0.936739	-8.160016	-34.813361	-156.875416
37566		8.713750	-1.589537	2.452332	-5.655449	-1.085801	-2.649807	-0.037992	-0.341988	0.017607	-0.740967	0.175049	-0.479004	0.087097	-0.015883	0.024675	0.169892	-0.307618	0.006641	-0.936196	-8.209769	-35.010445	-156.835508
37567		10.426021	-5.752363	2.780140	-8.035264	2.328451	-0.894532	0.191776	-0.442276	-0.097296	-0.759521	0.174805	-0.484863	0.104170	-0.057601	0.027977	0.169732	-0.309566	0.005221	-0.935592	-8.087441	-35.273645	-156.859765
37568		15.926741	-11.669116	6.002329	-12.234960	6.725276	5.382522	3.464659	-0.206815	-1.983982	-0.760986	0.147461	-0.491699	0.158032	-0.119281	0.058136	0.165726	-0.307625	-0.014212	-0.936856	-5.311337	-35.528699	-158.234014
37569		4.905056	1.612217	10.968998	2.972818	-1.350995	1.861670	3.682822	0.386466	-2.600396	-0.766113	0.107666	-0.494629	0.049449	0.013459	0.109859	0.159181	-0.302537	-0.035135	-0.939094	-2.132438	-35.408842	-160.078240
37570		-0.254615	11.697955	16.137333	12.852890	-8.196818	3.028978	2.626490	-0.026209	-2.148409	-0.773438	0.083984	-0.499023	-0.001326	0.114866	0.162891	0.152979	-0.300193	-0.050710	-0.940165	0.246533	-35.448919	-161.595045
37571		8.911362	12.164824	13.655808	4.491948	-11.139626	6.606800	1.205642	-0.618980	-0.779179	-0.773438	0.072998	-0.501465	0.089160	0.120474	0.137563	0.150948	-0.302011	-0.058015	-0.939488	1.259936	-35.801978	-162.151500
37572		10.378257	18.181436	10.733722	3.664709	-17.605012	5.356894	0.499530	-0.251574	-0.611987	-0.780762	0.068848	-0.494385	0.104202	0.181227	0.107921	0.148705	-0.302677	-0.061460	-0.939413	1.801574	-35.941285	-162.594357
37573		12.287880	4.280484	9.441976	-2.950284	-5.086952	5.150071	-0.099140	0.014113	-0.241054	-0.772949	0.067871	-0.493652	0.122937	0.042703	0.094390	0.147410	-0.302647	-0.061345	-0.939634	1.844099	-35.933095	-162.766181
37574		6.955202	2.660753	6.603810	-0.896520	-2.846287	-0.317446	-0.049253	-0.156501	0.134463	-0.781250	0.067627	-0.502197	0.069482	0.026671	0.066086	0.147875	-0.303501	-0.061014	-0.939307	1.761634	-36.029814	-162.679613
37575		7.622595	4.965775	6.296042	-0.835650	-5.273233	-0.122610	-0.210078	-0.074121	0.230432	-0.797119	0.073975	-0.499512	0.076145	0.049812	0.062936	0.148600	-0.304111	-0.059729	-0.939078	1.545529	-36.080363	-162.519521
37576		6.668050	1.205827	7.284786	-0.717187	-1.306915	0.024103	-0.302512	-0.075774	0.340300	-0.788330	0.082275	-0.491455	0.066632	0.012282	0.072855	0.149669	-0.304834	-0.057837	-0.938792	1.230547	-36.133237	-162.284832
37577		5.769002	-1.771854	8.109924	-0.487689	1.864979	0.110799	-0.273354	-0.087458	0.335990	-0.784668	0.083496	-0.497559	0.057684	-0.017511	0.081148	0.150788	-0.305583	-0.056103	-0.938475	0.933361	-36.191275	-162.049185
37578		5.021797	-4.046949	8.408942	-0.452432	4.237589	-0.109872	-0.172257	-0.077539	0.218024	-0.791016	0.092285	-0.494385	0.050229	-0.040342	0.084144	0.151484	-0.306179	-0.055011	-0.938233	0.743352	-36.242298	-161.900009
37579		5.407725	-4.222755	7.960670	-1.044430	4.204782	-0.237909	-0.055290	-0.045743	0.085675	-0.791992	0.092041	-0.499756	0.054077	-0.042182	0.079631	0.151773	-0.306496	-0.054651	-0.938104	0.675311	-36.273423	-161.841090
37580		6.239226	-2.527877	7.256763	-1.532453	2.249801	-0.295929	0.034390	0.011617	-0.026547	-0.788086	0.090576	-0.499512	0.062393	-0.025300	0.072560	0.151664	-0.306450	-0.054835	-0.938126	0.705605	-36.271337	-161.864311
37581		6.583140	-1.055275	7.039471	-1.454262	0.731393	-0.254672	0.081032	0.074867	-0.091878	-0.795166	0.082275	-0.493652	0.065853	-0.010612	0.070366	0.151362	-0.306049	-0.055295	-0.938278	0.789624	-36.232068	-161.930443
37582		5.930947	0.423923	7.633282	-0.164584	-0.381562	-0.145727	0.096502	0.111857	-0.112356	-0.792236	0.094238	-0.507324	0.059355	0.004169	0.076302	0.150970	-0.305462	-0.055824	-0.938501	0.890783	-36.171825	-162.014018
37583		5.931674	0.951796	7.777553	0.069281	-0.844636	-0.021734	0.081311	0.100719	-0.097539	-0.801514	0.086670	-0.508301	0.059361	0.009457	0.077749	0.150648	-0.304938	-0.056274	-0.938697	0.976908	-36.117519	-162.083620
37584		5.961191	0.985644	7.858748	0.089975	-0.860789	0.062440	0.063459	0.102822	-0.078150	-0.800537	0.093018	-0.507324	0.059656	0.009808	0.078560	0.150368	-0.304427	-0.056604	-0.938887	1.044589	-36.062607	-162.142089
37585		5.846104	0.968702	7.752620	0.103028	-0.832387	-0.090808	0.049145	0.095256	-0.050367	-0.795898	0.082275	-0.509521	0.058500	0.009653	0.077501	0.150218	-0.303966	-0.056836	-0.939047	1.092412	-36.011803	-162.178092
37586		5.726273	1.064431	7.951203	0.326333	-0.852585	0.001152	0.019710	0.088757	-0.012369	-0.801025	0.096436	-0.508545	0.057299	0.010633	0.079488	0.150174	-0.303573	-0.056871	-0.939179	1.107631	-35.965607	-162.190177
37587		5.841626	0.812885	7.704516	0.014763	-0.693368	-0.134673	-0.005036	0.068090	0.021276	-0.806152	0.091553	-0.506592	0.058442	0.008137	0.077025	0.150270	-0.303300	-0.056760	-0.939258	1.094775	-35.931137	-162.175777
37588		5.884977	0.702988	7.756161	-0.029136	-0.593976	-0.069407	-0.021520	0.060559	0.034987	-0.805176	0.094971	-0.509521	0.058872	0.007049	0.077543	0.150382	-0.303083	-0.056551	-0.939323	1.066952	-35.901606	-162.154404
37589		5.504420	0.512038	8.106368	0.393922	-0.255368	-0.011992	-0.033473	0.060397	0.051149	-0.803467	0.098389	-0.515625	0.055067	0.005148	0.081046	0.150572	-0.302876	-0.056267	-0.939376	1.025523	-35.871845	-162.119032
37590		5.422271	0.026110	8.019495	0.252801	0.202057	-0.137499	-0.035029	0.049558	0.048739	-0.798340	0.099609	-0.513672	0.054243	0.000288	0.080181	0.150727	-0.302725	-0.055983	-0.939417	0.984411	-35.848724	-162.087893
37591		5.861364	-0.493335	7.706014	-0.425379	0.518347	-0.141493	-0.015183	0.034337	0.034189	-0.804932	0.098389	-0.509521	0.058628	-0.004917	0.077050	0.150858	-0.302622	-0.055831	-0.939438	0.960725	-35.833691	-162.064888
37592		6.031030	-0.255931	7.698710	-0.486691	0.246856	-0.044824	0.004246	0.032198	0.013926	-0.806396	0.093262	-0.510986	0.060323	-0.002557	0.076977	0.150905	-0.302513	-0.055797	-0.939468	0.956649	-35.820155	-162.058435
37593		5.785039	0.016510	7.833559	-0.138196	0.075279	-0.075808	0.006550	0.030809	0.011491	-0.809570	0.105225	-0.513428	0.057862	0.000166	0.078327	0.150962	-0.302404	-0.055784	-0.939495	0.954840	-35.806921	-162.051520
37594		5.878803	0.410068	8.013143	0.012169	-0.287007	0.129969	-0.000923	0.015492	0.009527	-0.805420	0.108398	-0.514893	0.058794	0.004104	0.080127	0.150974	-0.302376	-0.055745	-0.939504	0.949738	-35.802921	-162.048593
37595		6.024558	0.290383	7.725773	-0.295835	-0.267188	-0.019410	-0.002933	-0.011134	0.020184	-0.807861	0.101074	-0.520264	0.060241	0.002911	0.077261	0.151045	-0.302473	-0.055705	-0.939464	0.939191	-35.813796	-162.036029
37596		6.049566	0.215665	7.899486	-0.240044	-0.169741	0.135137	-0.008736	-0.021482	0.031740	-0.822510	0.105713	-0.524170	0.060487	0.002170	0.079001	0.151145	-0.302631	-0.055625	-0.939402	0.920656	-35.831182	-162.017166
37597		5.970618	-0.155215	7.673426	-0.417970	0.156523	-0.099056	0.000286	-0.029926	0.020033	-0.817871	0.098633	-0.517090	0.059695	-0.001546	0.076743	0.151215	-0.302814	-0.055615	-0.939332	0.912127	-35.852817	-162.004909
37598		5.801847	-0.196342	7.800583	-0.226824	0.263700	-0.095277	0.011823	-0.036218	0.003907	-0.819580	0.112061	-0.513428	0.058004	-0.001967	0.078016	0.151206	-0.303018	-0.055684	-0.939264	0.916997	-35.878401	-162.006501
37599		5.672128	-0.350060	7.943055	-0.093742	0.472837	-0.057928	0.031326	-0.032164	-0.009745	-0.814453	0.108398	-0.516113	0.056708	-0.003516	0.079439	0.151182	-0.303180	-0.055866	-0.939204	0.938602	-35.901044	-162.015326
37600		5.463543	-0.201238	8.003254	0.149501	0.400745	-0.129716	0.049982	-0.022118	-0.025149	-0.824463	0.111084	-0.525146	0.054626	-0.002039	0.080038	0.151104	-0.303280	-0.056149	-0.939168	0.977255	-35.918265	-162.036577
37601		5.459670	-0.112175	8.058134	0.211957	0.334112	-0.086560	0.051784	-0.018549	-0.028096	-0.828369	0.103760	-0.532471	0.054589	-0.001150	0.080586	0.151030	-0.303357	-0.056445	-0.939137	1.018127	-35.932915	-162.058254
37602		5.739878	0.128240	7.744527	-0.100267	-0.019654	-0.172672	0.051631	-0.014625	-0.027370	-0.826660	0.105957	-0.523438	0.057393	0.001255	0.077450	0.150945	-0.303421	-0.056733	-0.939113	1.058616	-35.945790	-162.081123
37603		5.962296	0.228518	7.698142	-0.265136	-0.173913	-0.078108	0.043097	-0.009877	-0.023018	-0.832275	0.111572	-0.522461	0.059619	0.002262	0.076985	0.150884	-0.303465	-0.056974	-0.939094	1.092360	-35.955504	-162.099124
37604		5.670479	0.310276	7.851711	0.070390	-0.143792	-0.123811	0.037289	-0.000074	-0.021137	-0.839844	0.106934	-0.517822	0.056705	0.003082	0.078518	0.150811	-0.303473	-0.057174	-0.939091	1.121944	-35.960096	-162.117423
37605		5.425326	0.186430	7.911112	0.252332	0.049894	-0.221627	0.029259	-0.000916	-0.012333	-0.829834	0.109375	-0.527100	0.054253	0.001849	0.079112	0.150781	-0.303488	-0.057327	-0.939081	1.143256	-35.964783	-162.127750
37606		5.294629	0.165052	8.062282	0.429747	0.135421	-0.176417	0.023741	0.000389	-0.007951	-0.847412	0.107666	-0.519531	0.052947	0.001639	0.080623	0.150748	-0.303508	-0.057442	-0.939073	1.159608	-35.969247	-162.136885
37607		5.735917	0.162593	7.685870	-0.118811	-0.044455	-0.221875	0.022972	-0.005023	-0.009154	-0.845703	0.106445	-0.520508	0.057357	0.001614	0.076860	0.150722	-0.303548	-0.057564	-0.939057	1.176036	-35.976319	-162.145026
37608		5.523384	0.245591	7.853866	0.164129	-0.034258	-0.209397	0.026801	0.005032	-0.013117	-0.846191	0.115234	-0.519531	0.055236	0.002442	0.078538	0.150667	-0.303543	-0.057697	-0.939059	1.196272	-35.978056	-162.158274
37609		5.521645	0.218322	7.824839	0.139767	-0.010927	-0.234343	0.029510	0.010705	-0.019521	-0.846680	0.101074	-0.521484	0.055221	0.002166	0.078246	0.150607	-0.303501	-0.057854	-0.939073	1.220623	-35.975988	-162.173526
37610		5.396791	0.312648	8.039969	0.383638	-0.023396	-0.131960	0.028252	0.009631	-0.017309	-0.847168	0.106689	-0.523193	0.053972	0.003110	0.080398	0.150537	-0.303472	-0.057997	-0.939085	1.243388	-35.975025	-162.189489
37611		5.208112	0.088348	8.180593	0.534690	0.266722	-0.132950	0.021767	0.001996	-0.012145	-0.853027	0.106445	-0.522217	0.052082	0.000871	0.081806	0.150497	-0.303479	-0.058112	-0.939081	1.260313	-35.978029	-162.199653
37612		5.600177	0.129257	7.862742	0.070405	0.070104	-0.159111	0.026450	-0.012200	-0.016445	-0.851318	0.111328	-0.523926	0.055997	0.001278	0.078631	0.150421	-0.303554	-0.058262	-0.939060	1.281897	-35.989559	-162.215501
37613		5.864574	0.140614	7.641429	-0.251162	-0.046374	-0.182568	0.034948	-0.015722	-0.028648	-0.860596	0.105713	-0.517822	0.058640	0.001384	0.076419	0.150319	-0.303630	-0.058478	-0.939039	1.313415	-36.002492	-162.237639
37614		5.561874	0.188125	7.952026	0.169666	0.050728	-0.108400	0.035981	-0.017570	-0.032802	-0.855713	0.114014	-0.518066	0.055612	0.001858	0.079525	0.150178	-0.303717	-0.058701	-0.939019	1.347334	-36.016870	-162.265167
37615		5.452058	0.045858	8.106987	0.296089	0.248999	-0.050484	0.033755	-0.027591	-0.029795	-0.853271	0.111572	-0.532959	0.054509	0.000437	0.081077	0.150065	-0.303849	-0.058921	-0.938980	1.378789	-36.036565	-162.288344
37616		5.730641	0.189617	7.868448	-0.001664	0.001021	-0.076740	0.020718	-0.048461	-0.029982	-0.864990	0.103760	-0.514893	0.057288	0.001879	0.078699	0.149912	-0.304094	-0.059093	-0.938915	1.403103	-36.068639	-162.313728
37617		5.689571	0.290226	7.928588	0.099587	-0.067340	-0.050336	0.025341	-0.053751	-0.019090	-0.863037	0.104492	-0.516357	0.056875	0.002887	0.079302	0.149829	-0.304358	-0.059278	-0.938831	1.425581	-36.103452	-162.329814
37618		5.852323	0.642136	8.184895	0.235319	-0.384806	0.259605	0.003786	-0.098086	0.000030	-0.868896	0.100586	-0.510010	0.058483	0.006420	0.081878	0.149765	-0.304858	-0.059359	-0.938674	1.428269	-36.164375	-162.336166
37619		6.209521	0.336103	7.932266	-0.263666	-0.230166	0.260517	-0.009484	-0.152014	0.024723	-0.866943	0.104980	-0.508789	0.062034	0.003372	0.079370	0.149805	-0.305622	-0.059387	-0.938417	1.413487	-36.256093	-162.322911
37620		6.009423	0.524741	8.340298	0.196214	-0.274175	0.474945	-0.022949	-0.211642	0.038956	-0.872314	0.112305	-0.507324	0.060005	0.005269	0.083466	0.149846	-0.306686	-0.059367	-0.938065	1.385650	-36.382610	-162.303879
37621		5.663813	-0.294794	8.433957	0.280274	0.609437	0.328677	-0.041593	-0.293985	0.060094	-0.869385	0.108154	-0.506104	0.056515	-0.002913	0.084423	0.149961	-0.308150	-0.059296	-0.937571	1.338782	-36.556119	-162.267673
37622		5.849555	-1.348290	7.766367	-0.535124	1.432632	-0.116672	-0.029268	-0.403691	0.033566	-0.876465	0.111084	-0.504395	0.058341	-0.013462	0.077784	0.149915	-0.310116	-0.059400	-0.936923	1.311192	-36.792531	-162.254681
37623		5.905000	-0.151433	8.100147	0.033796	0.363878	0.205826	-0.018566	-0.476281	0.001713	-0.888428	0.101318	-0.489258	0.058857	-0.001506	0.081142	0.149736	-0.312397	-0.059664	-0.936177	1.303956	-37.069671	-162.262867
37624		5.635158	0.996377	8.152717	0.684023	-0.635765	0.104078	-0.063630	-0.552705	0.038025	-0.885498	0.105713	-0.491943	0.056124	0.010000	0.081679	0.149604	-0.315084	-0.059708	-0.935294	1.255846	-37.391491	-162.249546
37625		4.688713	1.756417	9.350774	2.389776	-0.876125	0.484251	-0.238108	-0.672761	0.046876	-0.890137	0.104492	-0.479248	0.046568	0.017687	0.093644	0.149230	-0.318457	-0.059020	-0.934255	1.104336	-37.781728	-162.227304
37626		4.501528	-0.246085	8.945332	1.742810	0.988330	0.002018	-0.130473	-0.864845	0.164538	-0.891846	0.104980	-0.472900	0.044630	-0.002366	0.089648	0.149488	-0.322681	-0.058781	-0.932778	0.962438	-38.283570	-162.124362
37627		5.048362	2.325818	8.663825	2.083774	-1.634966	0.134220	-0.232057	-1.052645	0.240092	-0.904297	0.110596	-0.457764	0.049999	0.023419	0.086875	0.149905	-0.327866	-0.058094	-0.930944	0.726302	-38.892963	-161.961378
37628		5.305058	0.532153	8.415768	1.295610	-0.044841	0.065068	-0.236713	-1.190929	0.331789	-0.912109	0.107422	-0.438965	0.052539	0.005509	0.084465	0.150663	-0.333718	-0.057326	-0.928788	0.440767	-39.581875	-161.730643
37629		5.307287	1.165947	8.199422	1.497169	-0.688721	-0.115277	-0.259173	-1.346398	0.383930	-0.914795	0.116455	-0.425293	0.052497	0.011867	0.082334	0.151608	-0.340304	-0.056491	-0.926292	0.110498	-40.358677	-161.450051
37630		5.558277	0.164595	8.457127	1.301296	0.256197	0.221429	-0.283392	-1.468113	0.391022	-0.928467	0.113770	-0.420898	0.054956	0.001874	0.084974	0.152461	-0.347459	-0.055609	-0.923545	-0.246260	-41.204218	-161.159458
37631		5.243227	-0.211690	8.650979	1.686392	0.734834	0.136657	-0.321615	-1.586639	0.365741	-0.932861	0.122314	-0.399414	0.051747	-0.001882	0.086925	0.153128	-0.355157	-0.054693	-0.920556	-0.623598	-42.116017	-160.871306
37632		6.079972	-1.410621	8.696437	0.920634	1.685429	0.717875	-0.378378	-1.704829	0.265319	-0.934326	0.120605	-0.385254	0.060074	-0.013861	0.087505	0.153147	-0.363393	-0.053766	-0.917388	-0.993100	-43.095177	-160.652955
37633		6.025934	-2.386481	9.038143	1.055330	2.715300	0.920699	-0.259246	-1.729711	0.147925	-0.942383	0.122559	-0.374756	0.059492	-0.023703	0.090929	0.152867	-0.371587	-0.053628	-0.914155	-1.241166	-44.088739	-160.510821
37634		6.337186	-1.093623	8.582592	1.142854	1.357341	0.763949	-0.155188	-1.797222	0.036016	-0.952637	0.120117	-0.351807	0.062599	-0.010858	0.086399	0.152196	-0.379954	-0.054205	-0.910787	-1.373863	-45.122295	-160.455770
37635		7.191655	-0.358909	8.040887	0.629683	0.391633	0.955394	-0.208625	-1.787921	-0.066420	-0.952881	0.119873	-0.329590	0.071193	-0.003528	0.081051	0.150990	-0.388257	-0.054737	-0.907448	-1.480993	-46.151684	-160.475246
37636		7.396315	-0.338617	7.600499	0.383738	0.278783	0.787306	-0.265234	-1.745717	-0.115978	-0.961182	0.118164	-0.308838	0.073294	-0.003327	0.076651	0.149402	-0.396371	-0.055053	-0.904178	-1.591178	-47.157861	-160.540472
37637		7.291299	-0.917842	7.472191	0.356615	0.870835	0.625269	-0.315154	-1.678211	-0.161458	-0.974121	0.116455	-0.295166	0.072275	-0.009119	0.075345	0.147563	-0.404170	-0.055198	-0.901013	-1.700965	-48.126027	-160.638318
37638		6.741853	-0.139023	6.708012	0.561248	0.130748	-0.318729	-0.229643	-1.623027	-0.204035	-0.979736	0.116699	-0.275635	0.066870	-0.001381	0.067626	0.145661	-0.411620	-0.055748	-0.897911	-1.731724	-49.063559	-160.780899
37639		7.123991	0.748961	6.522566	0.612241	-0.791605	-0.176682	-0.260882	-1.627716	-0.196793	-0.976074	0.112061	-0.253418	0.070713	0.007505	0.065793	0.143764	-0.419084	-0.056163	-0.894733	-1.782878	-50.003553	-160.912129
37640		7.027533	0.135012	6.447264	0.575600	-0.161521	-0.293633	-0.301556	-1.571172	-0.176462	-0.987061	0.107422	-0.241943	0.069767	0.001386	0.065020	0.141829	-0.426305	-0.056286	-0.891617	-1.867984	-50.911042	-161.034166
37641		5.263630	-1.091693	8.401586	2.851446	1.837776	-0.433222	-0.194101	-1.418853	-0.131904	-0.984619	0.104004	-0.229004	0.052031	-0.010870	0.084397	0.140407	-0.432755	-0.056705	-0.888703	-1.918590	-51.730403	-161.113745
37642		3.199871	-1.709210	11.663430	6.450135	3.604406	-0.086506	0.085946	-1.123049	-0.073537	-0.989990	0.103271	-0.222900	0.031337	-0.017154	0.116804	0.139873	-0.437696	-0.058006	-0.886280	-1.842310	-52.379351	-161.156856
37643		0.499232	-0.361971	13.940857	10.220595	3.417035	-0.947593	0.276832	-0.799383	-0.010798	-0.995850	0.104492	-0.206787	0.004435	-0.003813	0.139422	0.140181	-0.441072	-0.059813	-0.884436	-1.694219	-52.841700	-161.145525
37644		-1.274485	0.243816	15.913491	12.962468	3.688854	-1.251772	0.217606	-0.405810	0.062596	-0.991455	0.108887	-0.200195	-0.013068	0.002261	0.159111	0.140742	-0.442769	-0.060893	-0.883425	-1.625814	-53.077230	-161.084094
37645		-0.481231	-0.601787	17.572003	13.530485	4.755648	0.369589	0.104601	0.063005	0.136182	-0.982910	0.099365	-0.206055	-0.004753	-0.006113	0.175718	0.141577	-0.442493	-0.061007	-0.883422	-1.668317	-53.043264	-160.957835
37646		0.545862	-1.110794	18.097348	13.148008	5.161967	1.568369	0.095526	0.696823	0.125854	-0.986572	0.113525	-0.220947	0.006096	-0.011191	0.180948	0.142474	-0.439416	-0.060624	-0.884839	-1.693037	-52.645779	-160.868234
37647		-0.471063	-0.795890	16.927314	12.836687	4.773812	0.178097	0.089220	1.238852	0.054389	-0.983887	0.101807	-0.230469	-0.003660	-0.008036	0.169294	0.143266	-0.433915	-0.060014	-0.887463	-1.655511	-51.939723	-160.852973
37648		-0.204419	-0.219642	15.763139	11.850990	3.860419	-0.158014	-0.027451	1.565940	-0.044427	-0.974365	0.103027	-0.249512	-0.000810	-0.002175	0.157641	0.143380	-0.426990	-0.058826	-0.890876	-1.606957	-51.046866	-160.946799
37649		1.252625	-0.410944	14.870864	10.107349	3.470186	0.611975	-0.198622	1.832512	-0.183898	-0.969482	0.107910	-0.271240	0.013884	-0.003974	0.148590	0.142653	-0.418933	-0.057016	-0.894927	-1.557870	-50.004582	-161.159784
37650		2.287757	-0.969513	13.780620	8.327569	3.448775	0.903189	-0.329824	2.058637	-0.358840	-0.968994	0.100098	-0.293457	0.024277	-0.009511	0.137577	0.140818	-0.409861	-0.054773	-0.899547	-1.470258	-48.833831	-161.538364
37651		2.847665	-1.341718	12.485267	6.736187	3.307410	0.650093	-0.411019	2.199361	-0.543179	-0.945557	0.109375	-0.316162	0.029811	-0.013241	0.124557	0.138109	-0.400118	-0.052483	-0.904476	-1.323571	-47.585997	-162.052975
37652		3.419812	-1.401674	11.334409	5.337423	2.908104	0.442943	-0.515539	2.250873	-0.696754	-0.939209	0.098389	-0.345947	0.035423	-0.013847	0.112986	0.134377	-0.390111	-0.049937	-0.909540	-1.161653	-46.307957	-162.694801
37653		4.137348	-1.616869	10.435869	3.982224	2.694713	0.459361	-0.667810	2.238111	-0.812773	-0.935059	0.088867	-0.375977	0.042473	-0.015992	0.103941	0.129911	-0.380184	-0.046975	-0.914536	-1.042718	-45.039140	-163.398028
37654		4.921959	-2.070813	9.627999	2.587515	2.730444	0.534190	-0.833154	2.189550	-0.882299	-0.916016	0.079590	-0.395264	0.050179	-0.020528	0.095820	0.124658	-0.370503	-0.043365	-0.919406	-1.002841	-43.796336	-164.154106
37655		5.593246	-2.647003	8.899903	1.308077	2.943265	0.537307	-0.976308	2.111929	-0.916799	-0.905518	0.074951	-0.412109	0.056748	-0.026296	0.088531	0.119067	-0.361212	-0.039252	-0.924018	-1.049175	-42.600221	-164.905816
37656		6.195677	-3.279798	8.075802	0.024842	3.235739	0.379919	-1.066235	2.012308	-0.914133	-0.880371	0.061279	-0.436768	0.062617	-0.032654	0.080305	0.113152	-0.352368	-0.034720	-0.928347	-1.168100	-41.460030	-165.659415
37657		6.632220	-3.847359	7.197790	-1.126337	3.519934	0.032954	-1.112636	1.879040	-0.853576	-0.880859	0.058350	-0.448975	0.066832	-0.038359	0.071565	0.107532	-0.344140	-0.029990	-0.932258	-1.361577	-40.398820	-166.339493
37658		6.996671	-4.255242	6.500879	-2.039773	3.714002	-0.254110	-1.089234	1.720267	-0.714705	-0.862793	0.065674	-0.454590	0.070372	-0.042451	0.064636	0.102417	-0.336604	-0.025158	-0.935722	-1.622098	-39.426618	-166.926191
37659		7.514699	-4.622773	6.052000	-2.884053	3.887167	-0.271266	-1.013200	1.566585	-0.496611	-0.836914	0.059082	-0.475586	0.075505	-0.046110	0.060163	0.098565	-0.329752	-0.020445	-0.938685	-1.950462	-38.542697	-167.329433
37660		8.018358	-4.864989	5.781887	-3.575025	3.963410	-0.174119	-0.861703	1.440071	-0.212100	-0.830566	0.064697	-0.484619	0.080547	-0.048487	0.057449	0.096154	-0.323408	-0.015990	-0.941226	-2.325479	-37.725208	-167.539373
37661		8.191454	-4.695749	5.632676	-3.862488	3.696334	-0.205703	-0.674150	1.325955	0.081528	-0.817139	0.060547	-0.497803	0.082305	-0.046735	0.055940	0.095536	-0.317526	-0.012042	-0.943348	-2.722573	-36.968548	-167.524035
37662		8.298736	-4.273431	5.510784	-4.037162	3.183513	-0.269879	-0.508610	1.199734	0.361857	-0.805420	0.069824	-0.496826	0.083393	-0.042444	0.054717	0.096376	-0.312149	-0.008447	-0.945094	-3.142841	-36.274049	-167.325085
37663		8.503439	-3.719116	5.388210	-4.262309	2.510775	-0.289011	-0.379680	1.068510	0.592679	-0.791748	0.071289	-0.500000	0.085430	-0.036837	0.053497	0.098613	-0.307338	-0.005207	-0.946463	-3.581113	-35.647363	-166.951807
37664		8.452389	-2.787961	5.093399	-4.303734	1.493200	-0.625461	-0.302026	0.957945	0.793058	-0.792725	0.078125	-0.514404	0.084876	-0.027467	0.050570	0.101802	-0.302992	-0.002041	-0.947538	-4.051318	-35.072195	-166.454890
37665		8.338050	-1.641763	4.596642	-4.346924	0.257600	-1.188064	-0.266509	0.839242	0.974692	-0.774170	0.086182	-0.515137	0.083651	-0.015949	0.045637	0.106008	-0.299192	0.001131	-0.948285	-4.567050	-34.555140	-165.821689
37666		8.514366	-0.848569	4.285330	-4.558111	-0.683019	-1.426134	-0.285802	0.717111	1.119898	-0.767334	0.089111	-0.516113	0.085342	-0.007947	0.042559	0.110769	-0.295955	0.004584	-0.948747	-5.145095	-34.094273	-165.102834
37667		8.783421	-0.898515	4.070938	-4.941857	-0.821278	-1.480187	-0.238905	0.600792	1.152362	-0.758789	0.096191	-0.511230	0.088006	-0.008430	0.040455	0.115852	-0.293241	0.007761	-0.948961	-5.702702	-33.693589	-164.351134
37668		9.120288	-0.640084	4.006527	-5.221013	-1.264566	-1.399460	-0.122417	0.519765	1.078436	-0.755615	0.109619	-0.523438	0.091339	-0.005884	0.039832	0.120662	-0.290824	0.010268	-0.949082	-6.161659	-33.336415	-163.662550
37669		9.206493	-0.052524	3.932399	-5.221345	-1.959364	-1.498623	-0.050336	0.457872	0.937582	-0.745117	0.114258	-0.513672	0.092156	-0.000084	0.039113	0.125000	-0.288667	0.012151	-0.949157	-6.521703	-33.020770	-163.060132
37670		9.052340	0.409827	3.759487	-5.101205	-2.461302	-1.802338	-0.063964	0.393582	0.774712	-0.742432	0.123779	-0.520508	0.090580	0.004461	0.037415	0.128538	-0.286817	0.013836	-0.949222	-6.828621	-32.748269	-162.567899
37671		9.084348	0.301114	3.433793	-5.341507	-2.447478	-2.074163	-0.108076	0.328300	0.611523	-0.736328	0.119873	-0.516846	0.090890	0.003308	0.034187	0.131249	-0.285322	0.015442	-0.949277	-7.099761	-32.523510	-162.182788
37672		9.245730	-0.010274	3.111972	-5.730423	-2.258040	-2.247552	-0.122588	0.265733	0.469513	-0.727539	0.132080	-0.526123	0.092498	0.000133	0.030997	0.133261	-0.284133	0.016885	-0.949329	-7.329579	-32.341939	-161.890673
37673		9.309297	-0.264301	2.906776	-5.962150	-2.082839	-2.376519	-0.097018	0.211143	0.380965	-0.731689	0.125244	-0.525879	0.093128	-0.002452	0.028971	0.134900	-0.283200	0.018032	-0.949355	-7.513096	-32.198226	-161.653924
37674		9.361104	-0.309820	2.754025	-6.102703	-2.095803	-2.486336	-0.055292	0.152214	0.337528	-0.724121	0.133301	-0.514160	0.093637	-0.002933	0.027470	0.136391	-0.282515	0.018890	-0.949329	-7.660140	-32.089714	-161.442451
37675		9.256868	-0.096600	2.484389	-6.112784	-2.316868	-2.802907	-0.020661	0.095731	0.346084	-0.721191	0.133057	-0.523193	0.092582	-0.000803	0.024800	0.137982	-0.282079	0.019547	-0.949216	-7.791528	-32.013153	-161.220051
37676		9.138618	0.061936	2.393194	-6.023148	-2.474038	-2.968255	-0.024099	0.038785	0.385063	-0.727783	0.141846	-0.513184	0.091389	0.000798	0.023914	0.139752	-0.281906	0.020246	-0.948993	-7.942081	-31.964626	-160.967188
37677		9.067151	-0.024934	2.253417	-6.054425	-2.412751	-3.118349	-0.008472	-0.006912	0.437474	-0.713867	0.139160	-0.521484	0.090671	-0.000050	0.022537	0.141804	-0.281938	0.020903	-0.948665	-8.103236	-31.938015	-160.674719
37678		8.893279	-0.221678	2.084669	-6.044905	-2.220808	-3.330992	0.049606	-0.047720	0.478880	-0.709717	0.147461	-0.515137	0.088933	-0.002009	0.020867	0.144131	-0.282113	0.021323	-0.948253	-8.248641	-31.929956	-160.351234
37679		8.472319	-0.060595	1.757970	-5.827461	-2.307385	-3.846881	0.125911	-0.113794	0.517432	-0.712646	0.145264	-0.511963	0.084714	-0.000398	0.017628	0.146761	-0.282543	0.021378	-0.947720	-8.366446	-31.956089	-159.995103
37680		7.942449	0.068716	1.289908	-5.603207	-2.334832	-4.530308	0.209292	-0.233512	0.545324	-0.717773	0.150635	-0.508789	0.079407	0.000890	0.012993	0.149647	-0.283473	0.020999	-0.947000	-8.454036	-32.046848	-159.608569
37681		7.736791	0.094410	1.143158	-5.484232	-2.340870	-4.751366	0.299508	-0.405306	0.554982	-0.707764	0.162598	-0.504883	0.077342	0.001141	0.011590	0.152728	-0.285146	0.020068	-0.946025	-8.502717	-32.234107	-159.197366
37682		7.954637	0.167830	1.282221	-5.522638	-2.502145	-4.503456	0.384822	-0.572231	0.538018	-0.724854	0.156738	-0.504883	0.079504	0.001867	0.013053	0.155860	-0.287539	0.018590	-0.944819	-8.508383	-32.517068	-158.779888
37683		8.340782	0.211779	1.443870	-5.677183	-2.681801	-4.131546	0.437590	-0.712354	0.502762	-0.719238	0.163574	-0.499023	0.083350	0.002295	0.014741	0.158915	-0.290551	0.016694	-0.943423	-8.480438	-32.882646	-158.370349
37684		8.468412	-0.017137	1.422152	-5.799999	-2.529238	-4.007580	0.476379	-0.832093	0.445860	-0.722412	0.169678	-0.498779	0.084624	-0.000017	0.014574	0.161761	-0.294096	0.014444	-0.941877	-8.419989	-33.321177	-157.985909
37685		8.127796	-2.516321	1.912179	-5.948468	-0.037663	-3.435910	0.494532	-0.965486	0.356459	-0.731445	0.177246	-0.490723	0.081229	-0.025066	0.019452	0.164220	-0.298250	0.011862	-0.940180	-8.325431	-33.843179	-157.647363
37686		7.175658	-23.431639	5.026425	-9.920340	20.476726	0.577717	5.022244	-1.405506	-1.713593	-0.750000	0.140625	-0.482178	0.069411	-0.236089	0.044843	0.163611	-0.300765	-0.015434	-0.939433	-4.847145	-34.760478	-158.722959
37687		12.644102	12.707953	23.031874	7.104083	-12.065028	15.790534	5.327367	-0.698849	-3.177024	-0.754395	0.091064	-0.490479	0.127559	0.118858	0.234003	0.156553	-0.299335	-0.045791	-0.940102	-0.535083	-35.250301	-160.920885
37688		10.601959	26.532374	15.578225	8.829966	-24.912548	9.171143	1.915547	-0.680665	-1.832046	-0.761230	0.069336	-0.471924	0.107898	0.262831	0.158673	0.150574	-0.300632	-0.058041	-0.939989	1.310078	-35.637878	-162.219647
37689		16.086893	21.904237	17.475732	4.074492	-21.112238	14.304578	0.806255	-0.598615	-0.955911	-0.767822	0.065918	-0.478516	0.161385	0.217564	0.176119	0.147100	-0.302591	-0.063713	-0.939543	2.173871	-35.968341	-162.909151
37690		10.925709	5.266502	6.224487	-3.409084	-6.283088	1.795577	-0.079885	0.366269	-0.472553	-0.766113	0.069336	-0.485352	0.109495	0.052431	0.062024	0.144828	-0.300819	-0.063770	-0.940461	2.317273	-35.752687	-163.238342
37691		9.814495	3.109200	8.504056	-1.987604	-3.481584	2.924592	0.055528	-0.298781	0.012872	-0.768799	0.072266	-0.485596	0.098016	0.031075	0.085196	0.144860	-0.302224	-0.064224	-0.939974	2.348271	-35.928305	-163.239557
37692		8.317375	8.176170	5.529893	-0.852107	-8.565089	-0.193890	-0.182246	-0.182641	0.190920	-0.774170	0.067627	-0.481201	0.083045	0.081891	0.055300	0.145386	-0.303317	-0.063203	-0.939610	2.167135	-36.041951	-163.113865
37693		6.770116	2.628892	6.946608	-0.574860	-2.671877	-0.141530	-0.361045	-0.072201	0.377227	-0.779785	0.071045	-0.484619	0.067626	0.026542	0.069443	0.146571	-0.304074	-0.060983	-0.939328	1.803445	-36.095062	-162.850090
37694		5.458417	-1.677661	8.775956	0.127069	2.056886	0.452746	-0.336912	-0.044853	0.382207	-0.781738	0.084961	-0.485352	0.054596	-0.016524	0.087800	0.147795	-0.304690	-0.058844	-0.939073	1.451141	-36.131849	-162.585179
37695		5.233716	-3.441672	8.534509	-0.373683	3.697224	0.100209	-0.210217	0.006089	0.314159	-0.779297	0.081787	-0.486084	0.052394	-0.034245	0.085380	0.148936	-0.304945	-0.057370	-0.938901	1.198677	-36.136818	-162.363889
37696		5.774072	-4.475955	7.623689	-1.618178	4.337094	-0.322388	-0.152313	0.077610	0.180629	-0.779541	0.087402	-0.482910	0.057811	-0.044649	0.076249	0.149534	-0.304788	-0.056313	-0.938921	1.034988	-36.099236	-162.239262
37697		5.795730	-4.576823	7.088273	-1.970312	4.307843	-0.738452	-0.010658	0.139764	0.003797	-0.785400	0.088379	-0.479980	0.058008	-0.045763	0.070845	0.149559	-0.304178	-0.056149	-0.939125	1.025659	-36.023511	-162.236383
37698		5.856206	-0.957989	7.330020	-0.757199	0.905623	-0.455949	0.072419	0.186138	-0.062470	-0.788086	0.100830	-0.487549	0.058627	-0.009625	0.073242	0.149386	-0.303275	-0.056435	-0.939427	1.091210	-35.921094	-162.282867
37699		5.447109	1.227227	7.878694	0.530250	-0.958104	-0.218327	0.046735	0.213965	-0.044113	-0.777832	0.096680	-0.477539	0.054558	0.012242	0.078731	0.149294	-0.302259	-0.056558	-0.939762	1.133940	-35.802333	-162.312709
37700		5.321764	1.280040	7.943169	0.660739	-0.966782	-0.237598	0.011638	0.181188	-0.015265	-0.781738	0.097656	-0.493652	0.053291	0.012792	0.079384	0.149258	-0.301437	-0.056492	-0.940035	1.144868	-35.703228	-162.324663
37701		5.572818	1.253149	7.870668	0.404213	-1.022076	-0.150076	-0.011861	0.139636	0.013214	-0.782471	0.096436	-0.493408	0.055782	0.012540	0.078667	0.149325	-0.300830	-0.056308	-0.940230	1.130902	-35.627688	-162.314987
37702		5.569592	1.633011	8.007496	0.591705	-1.363147	-0.035225	-0.053669	0.120221	0.057779	-0.780273	0.100586	-0.497070	0.055739	0.016368	0.080037	0.149517	-0.300364	-0.055872	-0.940375	1.074998	-35.564311	-162.276291
37703		5.416882	1.130626	8.000651	0.542236	-0.862713	-0.138339	-0.091623	0.098804	0.102884	-0.785400	0.100830	-0.497559	0.054202	0.011371	0.079975	0.149875	-0.300033	-0.055209	-0.940462	0.979068	-35.513068	-162.204197
37704		5.398268	0.466358	8.029932	0.360911	-0.238034	-0.135309	-0.113241	0.076315	0.121898	-0.784668	0.107422	-0.497803	0.054010	0.004742	0.080276	0.150268	-0.299835	-0.054429	-0.940508	0.863397	-35.475319	-162.120976
37705		5.212019	-0.392692	8.180233	0.316204	0.636417	-0.131235	-0.099396	0.054012	0.123705	-0.789551	0.102051	-0.495850	0.052145	-0.003854	0.081790	0.150699	-0.299726	-0.053732	-0.940514	0.755033	-35.449683	-162.034990
37706		5.407919	-0.498339	7.786762	-0.083853	0.599027	-0.338421	-0.065985	0.034732	0.098189	-0.784424	0.115234	-0.500732	0.054095	-0.004931	0.077860	0.151040	-0.299681	-0.053241	-0.940502	0.676507	-35.435327	-161.969119
37707		5.765819	-0.436174	7.624638	-0.429138	0.411126	-0.261937	-0.019409	0.005726	0.057581	-0.789063	0.103516	-0.508057	0.057662	-0.004338	0.076245	0.151267	-0.299721	-0.053056	-0.940463	0.641253	-35.436736	-161.930131
37708		5.608337	-0.783499	7.942979	-0.241329	0.838141	-0.096850	0.002081	0.000938	0.027866	-0.789551	0.115234	-0.501221	0.056085	-0.007828	0.079429	0.151373	-0.299764	-0.053017	-0.940434	0.630526	-35.441213	-161.913592
37709		5.589210	-0.217194	8.149181	0.066805	0.344887	0.065176	0.019241	-0.008578	0.019273	-0.785156	0.118652	-0.497803	0.055889	-0.002174	0.081494	0.151474	-0.299832	-0.053081	-0.940393	0.633096	-35.450560	-161.901650
37710		5.756543	-0.154306	8.018564	-0.112272	0.219226	0.056370	0.017043	-0.024066	0.011630	-0.790527	0.108154	-0.501953	0.057556	-0.001547	0.080192	0.151524	-0.299977	-0.053157	-0.940334	0.637615	-35.469246	-161.896201
37711		5.961740	0.140261	7.971662	-0.200341	-0.118956	0.139957	0.023253	-0.034242	0.007063	-0.792969	0.112549	-0.500977	0.059604	0.001395	0.079727	0.151567	-0.300159	-0.053278	-0.940263	0.647580	-35.493220	-161.893050
37712		5.806378	-0.000578	7.878190	-0.172376	0.038842	-0.027562	0.027157	-0.036236	0.007622	-0.798096	0.115479	-0.509033	0.058050	-0.000014	0.078792	0.151604	-0.300353	-0.053415	-0.940187	0.659621	-35.518868	-161.891198
37713		6.188647	-0.256987	7.544086	-0.729458	0.124994	-0.079708	0.042075	-0.036308	-0.003731	-0.800781	0.115234	-0.499268	0.061873	-0.002587	0.075452	0.151624	-0.300527	-0.053642	-0.940115	0.684802	-35.543955	-161.895676
37714		6.001596	-0.178282	7.775278	-0.430263	0.147715	0.000515	0.057399	-0.036144	-0.021729	-0.800781	0.120361	-0.504395	0.060002	-0.001812	0.077763	0.151571	-0.300690	-0.053966	-0.940053	0.726173	-35.569353	-161.914190
37715		5.348230	-0.084053	8.088182	0.278375	0.290551	-0.124169	0.063538	-0.028183	-0.024114	-0.801514	0.115967	-0.506104	0.053471	-0.000873	0.080889	0.151530	-0.300805	-0.054318	-0.940003	0.771991	-35.589627	-161.932995
37716		5.432731	-0.111933	8.018218	0.167624	0.289781	-0.132458	0.065098	-0.041142	-0.034383	-0.793945	0.122803	-0.506104	0.054311	-0.001155	0.080193	0.151431	-0.300981	-0.054701	-0.939940	0.823010	-35.617759	-161.960189
37717		5.694261	0.101831	7.773729	-0.098303	-0.017399	-0.176513	0.073594	-0.052749	-0.041343	-0.805908	0.121826	-0.504395	0.056922	0.000978	0.077753	0.151317	-0.301199	-0.055146	-0.939863	0.881864	-35.651932	-161.991455
37718		5.609765	0.029327	7.775661	-0.051995	0.082130	-0.225103	0.067702	-0.049792	-0.042160	-0.807617	0.126953	-0.498535	0.056078	0.000255	0.077771	0.151187	-0.301411	-0.055561	-0.939791	0.937667	-35.684894	-162.023743
37719		5.445943	0.012122	7.986922	0.187997	0.189652	-0.149456	0.072261	-0.047685	-0.032481	-0.810303	0.117432	-0.498291	0.054440	0.000084	0.079882	0.151114	-0.301608	-0.055982	-0.939714	0.992166	-35.716202	-162.048805
37720		5.424126	0.165490	7.975689	0.250127	0.056022	-0.169325	0.066375	-0.044724	-0.033302	-0.809814	0.124023	-0.503418	0.054224	0.001619	0.079770	0.151023	-0.301801	-0.056372	-0.939644	1.043619	-35.746301	-162.075166
37721		5.426429	0.310616	8.033107	0.328258	-0.062806	-0.119302	0.065338	-0.035470	-0.030397	-0.809814	0.117432	-0.500732	0.054251	0.003072	0.080342	0.150953	-0.301946	-0.056748	-0.939586	1.093269	-35.770597	-162.098684
37722		5.587609	0.263550	7.837169	0.083008	-0.089952	-0.184756	0.050538	-0.033502	-0.030852	-0.819092	0.125000	-0.504883	0.055863	0.002607	0.078382	0.150853	-0.302098	-0.057053	-0.939535	1.134612	-35.794248	-162.123164
37723		5.816564	0.287819	7.624994	-0.201054	-0.205782	-0.222430	0.050536	-0.027318	-0.024233	-0.814209	0.117432	-0.498535	0.058156	0.002852	0.076259	0.150791	-0.302218	-0.057344	-0.939488	1.173216	-35.813918	-162.142271
37724		5.445934	0.259878	7.893769	0.225628	-0.028414	-0.221775	0.040541	-0.020292	-0.013087	-0.814941	0.119873	-0.504395	0.054452	0.002579	0.078944	0.150763	-0.302321	-0.057564	-0.939446	1.201421	-35.830191	-162.154104
37725		5.188264	0.374172	8.172990	0.615847	-0.012817	-0.144367	0.039990	-0.016589	-0.005729	-0.829590	0.123291	-0.503906	0.051876	0.003724	0.081735	0.150776	-0.302404	-0.057770	-0.939405	1.226262	-35.843923	-162.160009
37726		5.195557	0.293119	8.116813	0.555133	0.054589	-0.187136	0.030823	-0.021732	0.000582	-0.821533	0.122559	-0.494873	0.051947	0.002919	0.081174	0.150797	-0.302524	-0.057925	-0.939353	1.243277	-35.861167	-162.162220
37727		5.387081	0.110737	8.017330	0.296501	0.163388	-0.158887	0.035084	-0.024136	-0.001554	-0.817871	0.123291	-0.505127	0.053861	0.001093	0.080180	0.150820	-0.302647	-0.058107	-0.939299	1.263656	-35.879271	-162.165303
37728		5.824643	0.163575	7.724262	-0.183255	-0.050539	-0.138944	0.025092	-0.028884	-0.007563	-0.824219	0.126221	-0.510742	0.058235	0.001624	0.077251	0.150793	-0.302803	-0.058253	-0.939244	1.280831	-35.900489	-162.173239
37729		5.733232	-0.038365	7.777361	-0.145894	0.177863	-0.153193	0.029342	-0.018063	-0.022107	-0.828369	0.124023	-0.507080	0.057325	-0.000401	0.077779	0.150712	-0.302896	-0.058434	-0.939215	1.306400	-35.914847	-162.190778
37730		5.512435	0.068786	8.103566	0.240074	0.200441	-0.016687	0.023739	-0.024168	-0.016472	-0.831299	0.124268	-0.504395	0.055115	0.000674	0.081042	0.150646	-0.303027	-0.058585	-0.939174	1.326449	-35.933240	-162.204669
37731		5.310055	0.302498	8.193212	0.522801	0.050815	-0.058663	0.012971	-0.040523	-0.030272	-0.828369	0.115479	-0.510254	0.053084	0.003012	0.081943	0.150495	-0.303236	-0.058719	-0.939123	1.346271	-35.960344	-162.228378
37732		5.906847	-0.318606	7.905279	-0.288348	0.438721	0.046834	0.025048	-0.078966	-0.016993	-0.829346	0.127197	-0.508301	0.059037	-0.003201	0.079076	0.150407	-0.303624	-0.058916	-0.938999	1.367884	-36.010105	-162.244151
37733		6.098701	2.389980	8.382826	0.701169	-2.072363	0.598440	0.031030	-0.161228	-0.009307	-0.840332	0.122070	-0.503906	0.060921	0.023884	0.083881	0.150347	-0.304392	-0.059194	-0.938743	1.390593	-36.106622	-162.255124
37734		6.366550	-1.472741	7.860575	-1.004199	1.424283	0.259727	-0.027883	-0.223956	-0.013349	-0.838867	0.127197	-0.502930	0.063576	-0.014721	0.078679	0.150156	-0.305500	-0.059247	-0.938410	1.381917	-36.239470	-162.270466
37735		5.977915	-1.558920	8.012341	-0.623262	1.641211	0.151308	0.006871	-0.290405	-0.029442	-0.847656	0.125000	-0.489258	0.059660	-0.015601	0.080210	0.149926	-0.306885	-0.059539	-0.937976	1.400662	-36.409696	-162.298047
37736		6.208016	-1.334485	7.608808	-0.921703	1.304605	-0.031960	0.014354	-0.384996	-0.070534	-0.853516	0.129639	-0.494873	0.061929	-0.013372	0.076206	0.149481	-0.308700	-0.059998	-0.937422	1.442245	-36.633977	-162.357340
37737		5.358645	-1.160841	8.452788	0.293441	1.540691	0.139812	0.062179	-0.435102	-0.117974	-0.860107	0.123047	-0.491943	0.053396	-0.011666	0.084641	0.148876	-0.310693	-0.060793	-0.936808	1.532641	-36.885727	-162.451412
37738		5.425532	0.643716	8.359494	0.803982	-0.181212	0.139823	0.019468	-0.516343	-0.131033	-0.856201	0.124512	-0.481445	0.054043	0.006394	0.083735	0.148114	-0.313097	-0.061466	-0.936085	1.605886	-37.184159	-162.557848
37739		5.781257	2.897245	8.585986	1.424489	-2.337108	0.581764	-0.140477	-0.602833	-0.155076	-0.863525	0.125000	-0.482910	0.057576	0.028988	0.086013	0.146965	-0.316010	-0.061494	-0.935285	1.600065	-37.531226	-162.683419
37740		4.015239	-1.821375	8.959483	1.559633	2.649123	-0.312103	-0.197784	-0.722950	-0.121726	-0.861084	0.121826	-0.474365	0.039817	-0.018149	0.089757	0.145839	-0.319537	-0.061287	-0.934276	1.548957	-37.948104	-162.788176
37741		5.009598	2.825146	9.238119	2.505784	-1.921889	0.601098	-0.047774	-0.950082	0.052696	-0.876221	0.117432	-0.459473	0.049649	0.028287	0.092611	0.145700	-0.324059	-0.061668	-0.932713	1.508769	-38.497365	-162.769935
37742		4.920625	1.070875	8.713936	1.821930	-0.326987	0.079966	-0.211741	-1.104469	0.095165	-0.880859	0.119629	-0.448730	0.048719	0.010824	0.087398	0.145432	-0.329428	-0.061324	-0.930895	1.355840	-39.136013	-162.723072
37743		5.253011	1.439795	8.023540	1.396931	-0.885422	-0.257185	-0.171517	-1.275490	0.178922	-0.884521	0.114746	-0.429688	0.052004	0.014514	0.080556	0.145572	-0.335574	-0.061154	-0.928687	1.185979	-39.873208	-162.612944
37744		5.645893	1.742859	8.173153	1.428026	-1.217943	0.096384	-0.247382	-1.411483	0.225352	-0.888184	0.125000	-0.414551	0.055861	0.017593	0.082105	0.145735	-0.342408	-0.060644	-0.926197	0.947231	-40.688832	-162.467141
37745		5.510404	0.584885	8.391097	1.449241	-0.030188	0.137885	-0.307751	-1.504250	0.256049	-0.900146	0.116699	-0.409912	0.054463	0.006048	0.084313	0.145917	-0.349702	-0.059872	-0.923489	0.652916	-41.556978	-162.290077
37746		6.097476	-0.585033	8.391072	0.829555	0.959774	0.498461	-0.284548	-1.610931	0.238942	-0.909424	0.128418	-0.388428	0.060303	-0.005658	0.084406	0.146001	-0.357447	-0.059305	-0.920542	0.373709	-42.485778	-162.120866
37747		5.941289	-0.994173	8.946827	1.340295	1.524887	0.780174	-0.184092	-1.636955	0.162951	-0.917480	0.129883	-0.378174	0.058686	-0.009811	0.089960	0.145914	-0.365188	-0.059356	-0.917510	0.185174	-43.428449	-162.001234
37748		6.133027	-0.766911	8.846689	1.388679	1.279132	0.812692	-0.137419	-1.689419	0.068184	-0.925781	0.129639	-0.354248	0.060583	-0.007587	0.088986	0.145435	-0.373084	-0.059822	-0.914373	0.070648	-44.401071	-161.953929
37749		6.752096	-0.275473	8.150081	0.834460	0.566808	0.726294	-0.174706	-1.720547	-0.059207	-0.939941	0.123291	-0.337158	0.066816	-0.002703	0.082080	0.144302	-0.381081	-0.060380	-0.911213	0.004675	-45.391175	-162.004447
37750		7.364570	-0.733792	7.780435	0.212802	0.837176	0.890650	-0.249776	-1.733257	-0.159172	-0.941162	0.125244	-0.322510	0.072962	-0.007298	0.078448	0.142530	-0.389134	-0.060782	-0.908056	-0.044877	-46.388828	-162.139797
37751		7.743323	-1.336297	7.980805	0.100571	1.424487	1.295675	-0.301954	-1.659706	-0.184833	-0.947021	0.119385	-0.303467	0.076755	-0.013313	0.080467	0.140577	-0.396850	-0.060948	-0.905005	-0.106431	-47.344236	-162.294619
37752		6.861971	-0.085777	7.442362	0.838923	0.342277	0.269956	-0.261845	-1.570631	-0.261136	-0.950195	0.118896	-0.290283	0.068031	-0.000849	0.074961	0.138349	-0.404087	-0.061370	-0.902112	-0.093307	-48.248926	-162.520139
37753		6.976873	1.168936	7.050283	1.011227	-0.922237	0.080476	-0.363904	-1.570349	-0.288130	-0.965332	0.115967	-0.283203	0.069229	0.011718	0.071027	0.135811	-0.411355	-0.061393	-0.899207	-0.115917	-49.153300	-162.769609
37754		6.883155	0.362339	6.972679	0.919819	-0.116346	-0.052257	-0.484629	-1.494193	-0.291118	-0.960205	0.106445	-0.266357	0.068313	0.003693	0.070230	0.132998	-0.418337	-0.060811	-0.896441	-0.200472	-50.014366	-163.028553
37755		4.618852	-0.492580	7.725076	2.748285	1.312331	-1.328786	-0.476840	-1.370492	-0.262054	-0.965820	0.104248	-0.247803	0.045651	-0.004801	0.077576	0.130388	-0.424741	-0.060129	-0.893856	-0.296330	-50.804575	-163.260679
37756		3.423392	-1.455740	11.217243	5.912946	3.226163	-0.102242	-0.259332	-1.100163	-0.226766	-0.964355	0.106445	-0.231445	0.033600	-0.014450	0.112377	0.128441	-0.429789	-0.060151	-0.891721	-0.287606	-51.440018	-163.468709
37757		0.507276	-0.556338	13.586695	9.777929	3.409437	-0.984774	-0.032613	-0.757290	-0.168747	-0.972412	0.103516	-0.225830	0.004554	-0.005545	0.135886	0.127373	-0.433167	-0.060852	-0.890191	-0.186334	-51.878641	-163.623600
37758		-1.009902	0.010559	15.534466	12.356223	3.567502	-1.041368	0.019939	-0.374065	-0.109854	-0.965576	0.102783	-0.226807	-0.010389	0.000096	0.155325	0.126762	-0.434821	-0.061399	-0.889434	-0.094908	-52.097254	-163.731227
37759		1.493051	0.107638	17.478877	12.390884	3.469264	2.111326	-0.052868	0.129993	-0.044134	-0.969727	0.102783	-0.224854	0.015044	0.001119	0.174779	0.126474	-0.434297	-0.061175	-0.889746	-0.092586	-52.027144	-163.774518
37760		0.249283	-0.856625	17.459697	12.797873	4.578936	1.181999	-0.078067	0.800718	-0.038218	-0.970459	0.104980	-0.234375	0.003190	-0.008499	0.174588	0.126325	-0.430801	-0.060384	-0.891519	-0.108308	-51.572088	-163.817841
37761		-0.587995	-0.782301	16.562045	12.544632	4.418419	0.105237	-0.042783	1.262572	-0.064697	-0.963135	0.097168	-0.247314	-0.004837	-0.007786	0.165655	0.126306	-0.425207	-0.059531	-0.894261	-0.085205	-50.853080	-163.880891
37762		-0.140063	-0.319288	15.671499	11.607605	3.652534	0.068350	-0.107996	1.568163	-0.114624	-0.960938	0.101318	-0.270752	-0.000174	-0.003108	0.156721	0.125963	-0.418245	-0.058276	-0.897668	-0.066129	-49.957898	-163.993695
37763		1.024982	-0.373094	14.977655	10.203748	3.278310	0.706333	-0.256147	1.826690	-0.171421	-0.949707	0.085693	-0.284424	0.011614	-0.003549	0.149679	0.125168	-0.410175	-0.056329	-0.901619	-0.096534	-48.915750	-164.148871
37764		1.898138	-0.868334	13.935977	8.580189	3.287310	0.870734	-0.396757	2.025556	-0.271115	-0.943115	0.098877	-0.313965	0.020380	-0.008434	0.139175	0.123616	-0.401220	-0.053795	-0.906006	-0.146395	-47.758367	-164.396258
37765		2.519012	-1.341399	12.826014	7.066557	3.304311	0.760399	-0.496562	2.153153	-0.372954	-0.937500	0.088135	-0.339844	0.026545	-0.013145	0.128012	0.121484	-0.391684	-0.050956	-0.910620	-0.196851	-46.529674	-164.717623
37766		3.076461	-1.617708	11.600145	5.571956	3.128543	0.473462	-0.606279	2.191251	-0.463642	-0.918457	0.083008	-0.358887	0.031996	-0.015899	0.115704	0.118652	-0.381956	-0.047737	-0.915288	-0.264880	-45.277818	-165.117042
37767		3.630137	-2.089854	10.409016	4.073112	3.166559	0.150808	-0.721492	2.163941	-0.528432	-0.908936	0.081055	-0.380127	0.037371	-0.020622	0.103764	0.115347	-0.372364	-0.044154	-0.919832	-0.372605	-44.044002	-165.554066
37768		4.360376	-2.548767	9.437531	2.628157	3.217464	0.052066	-0.832835	2.090784	-0.556933	-0.890869	0.073486	-0.397461	0.044517	-0.025219	0.094018	0.111588	-0.363105	-0.040114	-0.924172	-0.538644	-42.851044	-166.019101
37769		5.142455	-2.962930	8.595681	1.263027	3.258516	0.030774	-0.932831	1.973248	-0.557313	-0.882324	0.073486	-0.419189	0.052188	-0.029374	0.085582	0.107692	-0.354408	-0.035707	-0.928182	-0.771407	-41.728516	-166.469767
37770		5.957275	-3.524497	7.768835	-0.128518	3.462632	-0.001584	-1.020213	1.842871	-0.537590	-0.871094	0.067871	-0.435303	0.060192	-0.035011	0.077315	0.103601	-0.346311	-0.030890	-0.931870	-1.071750	-40.680052	-166.915031
37771		6.887291	-4.139186	7.109229	-1.489520	3.745700	0.130067	-1.037118	1.709814	-0.468204	-0.852295	0.060791	-0.449219	0.069382	-0.041187	0.070715	0.099867	-0.338828	-0.025977	-0.935173	-1.421950	-39.710820	-167.295516
37772		7.756305	-4.508932	6.568709	-2.668517	3.833567	0.277907	-0.990925	1.612870	-0.334621	-0.839111	0.067139	-0.469971	0.078015	-0.044895	0.065282	0.096708	-0.331744	-0.021060	-0.938163	-1.812337	-38.794854	-167.591012
37773		8.094197	-4.680051	5.870482	-3.498434	3.809596	-0.059323	-0.910082	1.531834	-0.138004	-0.823730	0.065674	-0.466064	0.081357	-0.046591	0.058295	0.094694	-0.325008	-0.016273	-0.940818	-2.247331	-37.924897	-167.732787
37774		8.350575	-4.516282	5.413983	-4.046249	3.496785	-0.281731	-0.819753	1.431000	0.096465	-0.814697	0.070068	-0.475098	0.083913	-0.044902	0.053725	0.093821	-0.318683	-0.011542	-0.943136	-2.732998	-37.105817	-167.720718
37775		8.761562	-4.062598	5.015711	-4.622597	2.868773	-0.387867	-0.764546	1.318368	0.354020	-0.806641	0.064697	-0.476807	0.088016	-0.040280	0.049732	0.094330	-0.312872	-0.006748	-0.945075	-3.293353	-36.345213	-167.518772
37776		9.091703	-3.716227	4.590048	-5.166918	2.343815	-0.574415	-0.723079	1.216943	0.619681	-0.795166	0.079346	-0.491455	0.091309	-0.036715	0.045479	0.096050	-0.307497	-0.001745	-0.946687	-3.934217	-35.629556	-167.148600
37777		9.409186	-3.239014	4.304763	-5.588820	1.683061	-0.675660	-0.654944	1.127165	0.871213	-0.788330	0.082031	-0.495117	0.094472	-0.031839	0.042621	0.099159	-0.302512	0.003242	-0.947968	-4.628588	-34.952673	-166.598916
37778		9.495483	-2.774160	3.832831	-5.926001	1.053076	-1.076440	-0.556479	1.033457	1.092345	-0.778076	0.091064	-0.504883	0.095301	-0.027116	0.037912	0.103368	-0.297885	0.008085	-0.948954	-5.343940	-34.311154	-165.915951
37779		9.265897	-2.393883	3.263293	-6.063989	0.560614	-1.741242	-0.410536	0.920001	1.234402	-0.764160	0.100342	-0.505371	0.092953	-0.023299	0.032254	0.108560	-0.293710	0.012352	-0.949630	-6.019953	-33.721011	-165.130782
37780		9.261580	-1.882147	2.776245	-6.288521	-0.093597	-2.231739	-0.222128	0.776022	1.278508	-0.759766	0.108887	-0.506592	0.092840	-0.018198	0.027423	0.114151	-0.290083	0.015744	-0.950039	-6.597724	-33.201544	-164.328097
37781		9.393043	-1.194752	2.529840	-6.428205	-0.929842	-2.473148	-0.066572	0.627641	1.231527	-0.753418	0.121338	-0.514893	0.094080	-0.011360	0.025007	0.119839	-0.287073	0.018209	-0.950208	-7.063887	-32.764991	-163.544700
37782		9.479524	-0.753595	2.500476	-6.442868	-1.494676	-2.536980	0.027793	0.475834	1.127619	-0.741211	0.128418	-0.503906	0.094895	-0.007005	0.024778	0.125087	-0.284714	0.020024	-0.950205	-7.438023	-32.416047	-162.836266
37783		9.634962	-0.640608	2.632280	-6.483696	-1.739589	-2.389313	0.091783	0.340764	0.974405	-0.733643	0.124268	-0.519287	0.096424	-0.005948	0.026156	0.129799	-0.282974	0.021193	-0.950068	-7.719949	-32.153318	-162.212864
37784		9.728647	-0.636273	2.863124	-6.439185	-1.845201	-2.171974	0.133463	0.231456	0.815120	-0.723389	0.146973	-0.516357	0.097344	-0.005985	0.028515	0.133814	-0.281728	0.021880	-0.949865	-7.924274	-31.961661	-161.689543
37785		9.635204	-0.852192	3.155392	-6.260986	-1.670539	-1.968651	0.180271	0.153415	0.669212	-0.729736	0.143311	-0.508301	0.096404	-0.008228	0.031472	0.137216	-0.280842	0.022074	-0.949638	-8.050834	-31.825783	-161.257415
37786		9.190586	-0.774672	3.468309	-5.716482	-1.664936	-1.961204	0.223016	0.092385	0.578553	-0.720215	0.141357	-0.513916	0.091944	-0.007519	0.034632	0.140195	-0.280215	0.021919	-0.949391	-8.123671	-31.730364	-160.887554
37787		8.758197	-0.835725	3.696381	-5.259972	-1.520133	-1.996714	0.213369	0.037267	0.538797	-0.723389	0.141113	-0.517578	0.087611	-0.008161	0.036939	0.143034	-0.279867	0.021691	-0.949076	-8.189452	-31.669881	-160.532643
37788		8.450804	-0.954398	3.990537	-4.882139	-1.346170	-1.900432	0.215147	0.006196	0.543990	-0.719238	0.150146	-0.510498	0.084535	-0.009357	0.039893	0.145896	-0.279656	0.021452	-0.948708	-8.258342	-31.625496	-160.172029
37789		8.221117	-1.022857	4.282921	-4.554443	-1.240041	-1.769328	0.226301	-0.003645	0.581840	-0.715576	0.155518	-0.501953	0.082240	-0.010038	0.042819	0.148959	-0.279483	0.021194	-0.948289	-8.333025	-31.583916	-159.785031
37790		7.900074	-1.118010	4.453515	-4.227525	-1.085766	-1.784990	0.273648	-0.003640	0.640238	-0.717285	0.163086	-0.513428	0.079035	-0.010988	0.044521	0.152358	-0.279262	0.020804	-0.947822	-8.401701	-31.536478	-159.359840
37791		7.446450	-0.794307	4.509844	-3.740309	-1.293258	-2.018030	0.337582	-0.021902	0.712211	-0.715332	0.151123	-0.505371	0.074487	-0.007754	0.045093	0.156193	-0.279070	0.020186	-0.947268	-8.458102	-31.493523	-158.884855
37792		7.339909	-0.300631	4.661526	-3.423722	-1.760463	-2.010558	0.365045	-0.045705	0.792863	-0.712158	0.166016	-0.510010	0.073400	-0.002800	0.046627	0.160442	-0.278955	0.019542	-0.946605	-8.528732	-31.456345	-158.354545
37793		7.458014	-0.003029	4.925116	-3.273163	-2.106669	-1.767383	0.374773	-0.057418	0.871994	-0.709961	0.169189	-0.502197	0.074565	0.000203	0.049273	0.165083	-0.278875	0.018942	-0.945842	-8.620198	-31.418841	-157.770426
37794		7.265505	0.154598	4.905182	-3.064958	-2.236187	-1.908409	0.431118	-0.049925	0.903585	-0.708496	0.180420	-0.503906	0.072635	0.001768	0.049074	0.169942	-0.278704	0.018136	-0.945048	-8.690513	-31.373348	-157.166734
37795		6.975638	0.662459	4.677750	-2.778628	-2.667664	-2.319865	0.527526	-0.064368	0.879765	-0.707031	0.181641	-0.502441	0.069712	0.006808	0.046818	0.174824	-0.278514	0.016818	-0.944237	-8.696481	-31.338072	-156.577357
37796		6.806434	1.657062	4.499594	-2.392522	-3.580742	-2.687118	0.567609	-0.128769	0.817560	-0.699463	0.186279	-0.502930	0.067967	0.016721	0.045087	0.179466	-0.278592	0.015177	-0.943371	-8.662324	-31.344573	-156.023049
37797		6.912116	2.267376	4.381698	-2.296604	-4.212959	-2.805974	0.534518	-0.224702	0.709892	-0.704102	0.186279	-0.498535	0.068991	0.022801	0.043955	0.183561	-0.279154	0.013445	-0.942443	-8.614322	-31.415223	-155.530032
37798		7.654362	2.683529	4.642596	-2.546174	-4.854211	-2.243164	0.431675	-0.312858	0.585109	-0.700928	0.198486	-0.496094	0.076392	0.026958	0.046604	0.186923	-0.280229	0.011952	-0.941482	-8.588534	-31.546700	-155.110750
37799		10.828457	-10.701763	1.363478	-11.364445	6.163096	-1.657474	1.049302	-0.448276	0.303551	-0.712646	0.189209	-0.483887	0.108417	-0.106924	0.013317	0.189832	-0.281374	0.007021	-0.940608	-8.117643	-31.780006	-154.865422
37800		2.543139	6.834276	-3.152668	-1.187215	-7.593217	-11.823104	2.914926	-1.436962	-0.912191	-0.719238	0.180908	-0.484619	0.025965	0.068673	-0.030342	0.189649	-0.285398	-0.009324	-0.939412	-6.187457	-32.666548	-155.358108
37801		17.851444	2.085608	15.910260	-4.450373	-5.759772	13.058924	3.245401	-1.205145	-1.866902	-0.723389	0.151123	-0.477051	0.177718	0.016598	0.160468	0.185405	-0.287877	-0.028369	-0.939120	-3.673891	-33.450837	-156.559791
37802		7.972261	13.505560	18.536210	8.584364	-11.984744	9.479513	2.145720	-0.444940	-1.650446	-0.724854	0.131104	-0.478271	0.080408	0.132394	0.186970	0.180646	-0.287758	-0.041220	-0.939608	-1.826707	-33.755596	-157.680326
37803		9.132956	12.199868	10.858092	3.153642	-12.155459	4.059468	1.230777	-1.051714	-0.745016	-0.738770	0.125977	-0.474854	0.091206	0.120986	0.109807	0.178677	-0.291459	-0.049020	-0.938468	-0.843247	-34.372315	-158.179862
37804		15.754079	11.455920	12.188589	-1.427134	-13.011773	9.072300	0.625804	-0.676811	-0.609960	-0.738770	0.115967	-0.467285	0.157474	0.113696	0.122776	0.176543	-0.293963	-0.053445	-0.937850	-0.247430	-34.768087	-158.601118
37805		7.711310	3.499077	8.425494	-0.128606	-3.827810	1.502251	0.211842	-0.417066	-0.248440	-0.752930	0.118652	-0.468018	0.076980	0.034806	0.084452	0.175561	-0.295701	-0.055168	-0.937388	-0.027883	-35.011715	-158.775429
37806		8.342420	0.652281	7.725107	-1.979162	-1.468876	1.305938	0.092449	-0.426599	0.006324	-0.753906	0.117432	-0.460449	0.083259	0.006490	0.077432	0.175594	-0.297661	-0.055966	-0.936714	0.021906	-35.260946	-158.772302
37807		6.737890	-0.830000	6.862053	-1.724041	0.222231	-0.317738	0.050187	-0.299747	0.088108	-0.759033	0.121338	-0.464844	0.067280	-0.008288	0.068719	0.175982	-0.299082	-0.056330	-0.936166	0.014220	-35.437027	-158.711972
37808		7.151163	-2.142812	8.170849	-1.782851	1.608027	0.991441	0.094623	-0.240037	0.090331	-0.754639	0.125488	-0.466309	0.071423	-0.021435	0.081784	0.176436	-0.300191	-0.056841	-0.935695	0.031155	-35.579529	-158.653178
37809		5.979551	-3.073763	8.334136	-1.134240	2.866558	0.441931	0.127160	-0.071073	0.027475	-0.765137	0.130371	-0.459961	0.059770	-0.030782	0.083343	0.176719	-0.300456	-0.057455	-0.935519	0.092112	-35.624589	-158.635376
37810		5.934937	-3.439004	7.983544	-1.427700	3.159300	0.125504	0.192712	0.020327	-0.093368	-0.759033	0.127441	-0.461914	0.059341	-0.034495	0.079796	0.176542	-0.300207	-0.058471	-0.935569	0.240279	-35.617738	-158.705060
37811		5.764552	-1.677970	7.615371	-0.867463	1.511961	-0.273247	0.245961	0.077788	-0.157121	-0.760254	0.130127	-0.459961	0.057662	-0.016919	0.076111	0.176183	-0.299617	-0.059786	-0.935743	0.444811	-35.576947	-158.816974
37812		5.986351	1.420466	7.797357	0.177787	-1.376028	0.022341	0.193748	0.104233	-0.168656	-0.765625	0.123779	-0.463867	0.059916	0.014079	0.077956	0.175681	-0.298951	-0.060846	-0.935982	0.623797	-35.521271	-158.938713
37813		5.774521	1.336607	7.972490	0.384844	-1.183927	0.043397	0.081797	0.128542	-0.116624	-0.765625	0.120605	-0.464844	0.057804	0.013300	0.079693	0.175280	-0.298279	-0.061287	-0.936243	0.717053	-35.451153	-159.021272
37814		5.130967	1.246878	8.131774	0.913700	-0.874073	-0.199758	0.026356	0.109166	-0.028626	-0.760986	0.129639	-0.472656	0.051356	0.012451	0.081291	0.175182	-0.297780	-0.061350	-0.936416	0.742673	-35.393356	-159.044533
37815		5.273961	1.993702	8.204835	1.108877	-1.599650	-0.049474	-0.056451	0.080743	0.033836	-0.775635	0.129883	-0.474121	0.052769	0.019969	0.082021	0.175264	-0.297499	-0.060961	-0.936515	0.695522	-35.351648	-159.021609
37816		5.254619	1.200866	8.023132	0.734856	-0.907733	-0.217911	-0.120813	0.072005	0.090975	-0.766113	0.133057	-0.465576	0.052570	0.012081	0.080205	0.175502	-0.297338	-0.060192	-0.936571	0.588453	-35.315899	-158.960407
37817		5.435330	0.106748	7.732489	0.043649	-0.020316	-0.360531	-0.105263	0.041031	0.118617	-0.775879	0.132568	-0.464844	0.054369	0.001140	0.077313	0.175897	-0.297311	-0.059483	-0.936551	0.479211	-35.297336	-158.878405
37818		5.699062	0.275551	7.767448	-0.073947	-0.260512	-0.178626	-0.057455	0.022011	0.125282	-0.772949	0.142334	-0.463867	0.056997	0.002814	0.077667	0.176373	-0.297338	-0.059003	-0.936483	0.394869	-35.290193	-158.793874
37819		5.439890	-0.376885	8.028883	0.028049	0.469127	-0.118538	-0.041418	0.012699	0.122429	-0.760986	0.137207	-0.464844	0.054406	-0.003719	0.080286	0.176872	-0.297389	-0.058613	-0.936398	0.320807	-35.287671	-158.709410
37820		5.093456	-0.915531	8.321225	0.254734	1.129522	-0.082139	-0.010827	-0.024166	0.067336	-0.772217	0.145508	-0.469482	0.050928	-0.009134	0.083219	0.177136	-0.297574	-0.058478	-0.936298	0.286751	-35.306632	-158.665215
37821		5.382277	-1.557421	8.016659	-0.359153	1.576691	-0.166634	0.040727	-0.059600	-0.005412	-0.771240	0.151611	-0.468018	0.053798	-0.015592	0.080179	0.177137	-0.297852	-0.058727	-0.936193	0.311753	-35.345081	-158.670756
37822		5.533984	-1.277468	7.726267	-0.523924	1.218355	-0.315677	0.103945	-0.072654	-0.070954	-0.773438	0.141602	-0.462891	0.055307	-0.012834	0.077276	0.176916	-0.298121	-0.059379	-0.936108	0.399661	-35.391333	-158.723230
37823		5.808149	-0.886465	7.836739	-0.528223	0.814697	-0.066297	0.155542	-0.067163	-0.125113	-0.775879	0.152588	-0.465088	0.058050	-0.008962	0.078380	0.176526	-0.298298	-0.060351	-0.936064	0.539325	-35.433539	-158.813110
37824		5.753853	-0.219689	8.093587	-0.105918	0.288675	0.115386	0.185850	-0.055988	-0.141054	-0.783936	0.148193	-0.465820	0.057514	-0.002313	0.080950	0.176102	-0.298395	-0.061475	-0.936039	0.702882	-35.469618	-158.915199
37825		5.801278	0.336130	8.129373	0.078501	-0.210833	0.177501	0.182987	-0.058175	-0.136486	-0.780029	0.144043	-0.468750	0.057991	0.003247	0.081314	0.175702	-0.298501	-0.062584	-0.936007	0.863175	-35.506184	-159.013361
37826		5.971988	0.661460	7.986074	-0.009973	-0.573038	0.164839	0.148396	-0.070378	-0.122904	-0.775879	0.144287	-0.467773	0.059696	0.006519	0.079887	0.175303	-0.298704	-0.063519	-0.935954	0.998237	-35.550226	-159.103028
37827		6.051741	0.544167	7.830070	-0.196253	-0.502560	0.083704	0.117851	-0.079524	-0.116008	-0.779297	0.145996	-0.466064	0.060489	0.005360	0.078328	0.174894	-0.298973	-0.064311	-0.935891	1.113287	-35.598857	-159.187363
37828		5.917736	0.096258	7.759577	-0.293689	-0.045566	-0.058122	0.099646	-0.080594	-0.112682	-0.780029	0.148682	-0.467285	0.059147	0.000891	0.077620	0.174470	-0.299268	-0.065012	-0.935827	1.216615	-35.648575	-159.269863
37829		5.530940	-0.035191	7.988298	0.077675	0.256162	-0.100131	0.105065	-0.076006	-0.110334	-0.786865	0.139160	-0.460449	0.055279	-0.000424	0.079904	0.174070	-0.299533	-0.065732	-0.935766	1.322280	-35.695008	-159.350468
37830		5.368392	0.206459	8.080251	0.341380	0.114799	-0.116143	0.095055	-0.076602	-0.115749	-0.781982	0.147461	-0.471924	0.053654	0.001995	0.080824	0.173625	-0.299813	-0.066413	-0.935711	1.424497	-35.742156	-159.435454
37831		5.549964	0.047104	7.982538	0.094833	0.204737	-0.092898	0.093280	-0.068221	-0.117421	-0.793457	0.149658	-0.471924	0.055473	0.000401	0.079845	0.173177	-0.300049	-0.067082	-0.935671	1.526528	-35.783789	-159.521217
37832		5.810166	0.247067	7.751764	-0.152815	-0.092928	-0.123677	0.086799	-0.059166	-0.120237	-0.798828	0.144287	-0.469971	0.058080	0.002402	0.077536	0.172711	-0.300251	-0.067718	-0.935646	1.625890	-35.820608	-159.608491
37833		5.748695	0.286622	7.851113	-0.037659	-0.074857	-0.078080	0.074522	-0.049264	-0.129941	-0.791748	0.145996	-0.468750	0.057469	0.002800	0.078526	0.172182	-0.300410	-0.068301	-0.935651	1.722361	-35.850934	-159.702964
37834		5.416903	0.158462	8.029881	0.265159	0.193127	-0.130781	0.069709	-0.057689	-0.124343	-0.788818	0.150635	-0.462646	0.054147	0.001523	0.080315	0.171669	-0.300619	-0.068861	-0.935637	1.813850	-35.886607	-159.793664
37835		5.425836	0.311118	8.080097	0.342899	0.073888	-0.081223	0.072210	-0.073797	-0.115377	-0.791260	0.147461	-0.476318	0.054230	0.003051	0.080822	0.171195	-0.300899	-0.069433	-0.935591	1.903506	-35.931006	-159.878610
37836		5.553542	0.606518	8.022494	0.325771	-0.236916	-0.044994	0.058200	-0.091515	-0.100097	-0.791260	0.146729	-0.468506	0.055502	0.006014	0.080252	0.170774	-0.301284	-0.069933	-0.935507	1.979008	-35.986264	-159.952347
37837		5.397659	1.467581	8.404808	0.968359	-0.895313	0.196808	0.005734	-0.112833	-0.114741	-0.798584	0.148682	-0.469727	0.053938	0.014642	0.084079	0.170189	-0.301803	-0.070226	-0.935424	2.031167	-36.052852	-160.038070
37838		4.964098	0.710030	8.039213	0.834422	-0.141458	-0.375577	0.125349	-0.130778	-0.067006	-0.799316	0.148682	-0.463867	0.049591	0.007033	0.080429	0.170010	-0.302325	-0.071024	-0.935228	2.132277	-36.131116	-160.089680
37839		6.749294	4.294677	8.138477	0.839797	-3.935450	0.866215	0.049981	-0.200333	-0.010836	-0.796875	0.148438	-0.459961	0.067414	0.042923	0.081463	0.169947	-0.303252	-0.071441	-0.934908	2.168077	-36.249860	-160.104414
37840		6.406081	-3.909971	8.158908	-1.827125	3.817664	0.433312	-0.102560	-0.244330	0.013143	-0.801758	0.152344	-0.471924	0.063964	-0.039054	0.081687	0.169756	-0.304526	-0.071150	-0.934550	2.107072	-36.394805	-160.102255
37841		5.630719	-4.522026	7.950957	-1.545273	4.560213	-0.211233	0.043959	-0.326620	-0.019486	-0.799805	0.150391	-0.463135	0.056173	-0.045243	0.079591	0.169599	-0.306044	-0.071659	-0.934044	2.145130	-36.585677	-160.126483
37842		6.224537	0.618667	7.480749	-0.366519	-0.485309	-0.080308	0.093824	-0.393389	-0.079940	-0.805420	0.157715	-0.457520	0.062101	0.006127	0.074933	0.169223	-0.307813	-0.072553	-0.933462	2.238649	-36.813919	-160.194549
37843		5.595920	1.025486	8.146954	0.653619	-0.510795	0.089360	0.020822	-0.411395	-0.111918	-0.809570	0.148926	-0.453369	0.055797	0.010215	0.081585	0.168566	-0.309711	-0.073167	-0.932905	2.305276	-37.051176	-160.288136
37844		5.576051	-0.105197	8.373291	0.425732	0.623733	0.219508	-0.028700	-0.454152	-0.085724	-0.812744	0.146484	-0.445313	0.055570	-0.001064	0.083859	0.167950	-0.311861	-0.073549	-0.932269	2.333314	-37.313944	-160.363087
37845		5.123242	0.570587	8.622555	1.194244	0.191178	0.160207	-0.103053	-0.549400	-0.065612	-0.817139	0.150391	-0.444580	0.050997	0.005734	0.086363	0.167264	-0.314520	-0.073629	-0.931493	2.312375	-37.631217	-160.428248
37846		4.273299	2.096697	9.768470	3.080177	-0.723106	0.582956	-0.314551	-0.690206	-0.122540	-0.819824	0.149414	-0.436035	0.042409	0.021095	0.097798	0.165934	-0.317990	-0.072932	-0.930607	2.198026	-38.028344	-160.537468
37847		4.414346	-0.312201	9.166591	1.860064	1.350135	0.103303	-0.246499	-0.901644	-0.010225	-0.833008	0.146240	-0.432129	0.043729	-0.003011	0.091867	0.165147	-0.322419	-0.072546	-0.929252	2.076173	-38.548646	-160.571229
37848		5.176823	2.533662	9.095010	2.367305	-1.513522	0.581643	-0.242531	-1.106307	0.083648	-0.840820	0.155029	-0.427246	0.051254	0.025469	0.091204	0.164730	-0.327824	-0.072195	-0.927461	1.915780	-39.188453	-160.539047
37849		5.453735	0.113301	8.640999	1.170482	0.586048	0.321803	-0.296127	-1.308829	0.051276	-0.840088	0.151855	-0.409912	0.053970	0.001275	0.086763	0.163989	-0.334185	-0.071811	-0.925349	1.741201	-39.943196	-160.533755
37850		5.586468	0.767716	8.776410	1.528459	-0.005125	0.506478	-0.319141	-1.469440	0.023985	-0.845459	0.144531	-0.394043	0.055217	0.007824	0.088159	0.163024	-0.341283	-0.071497	-0.922950	1.566777	-40.789769	-160.548423
37851		6.174858	0.383579	9.186368	1.384959	0.332169	1.170679	-0.432844	-1.567412	-0.095308	-0.851563	0.154297	-0.378418	0.061028	0.004006	0.092335	0.161263	-0.348859	-0.070935	-0.920467	1.386547	-41.690416	-160.653564
37852		6.484789	-0.436403	8.791722	0.811105	0.958946	1.048126	-0.507302	-1.571107	-0.255530	-0.858887	0.164795	-0.362549	0.064149	-0.004222	0.088434	0.158624	-0.356435	-0.070308	-0.918069	1.246605	-42.591560	-160.880397
37853		6.010558	-0.369533	8.526409	1.160876	0.978104	0.514778	-0.581835	-1.491866	-0.431340	-0.869385	0.148926	-0.354492	0.059459	-0.003575	0.085720	0.155060	-0.363616	-0.069584	-0.915914	1.160231	-43.445258	-161.244686
37854		6.585046	-0.639956	8.369840	0.728592	1.091386	0.775166	-0.698088	-1.382346	-0.557369	-0.879150	0.147705	-0.337158	0.065252	-0.006289	0.084173	0.150741	-0.370319	-0.068469	-0.914031	1.081297	-44.235400	-161.709735
37855		5.524821	-1.778603	8.555389	1.345421	2.475906	0.134161	-0.726905	-1.202005	-0.703361	-0.884766	0.141602	-0.329102	0.054670	-0.017667	0.085948	0.145747	-0.376143	-0.067350	-0.912545	1.074354	-44.920703	-162.295416
37856		2.528152	-2.806478	11.166310	4.914878	4.713144	-0.190682	-0.555848	-0.930935	-0.855795	-0.883545	0.136230	-0.323242	0.024642	-0.027860	0.111856	0.140463	-0.380536	-0.067097	-0.911570	1.259807	-45.448467	-163.008137
37857		3.933217	-0.321417	14.179830	6.877460	2.746255	2.907331	-0.512819	-0.626174	-1.000565	-0.888428	0.128662	-0.309814	0.038872	-0.003046	0.141928	0.134696	-0.383442	-0.067099	-0.911223	1.560535	-45.797322	-163.842111
37858		1.817315	-1.016174	14.606223	8.452353	3.871565	1.643529	-0.769317	-0.151596	-0.996096	-0.891602	0.116455	-0.312256	0.018013	-0.009690	0.146114	0.128612	-0.384344	-0.065599	-0.911831	1.709204	-45.872064	-164.666306
37859		0.062386	-2.748593	14.081794	8.834516	5.640882	-0.015445	-0.911130	0.165816	-0.924747	-0.893555	0.107178	-0.317139	0.000616	-0.026847	0.140941	0.122679	-0.383898	-0.063111	-0.913011	1.729042	-45.765491	-165.424059
37860		0.000901	-3.135366	14.020874	8.775274	5.889540	-0.080177	-0.936623	0.368442	-0.783827	-0.886719	0.104492	-0.307373	0.000146	-0.030697	0.140353	0.117393	-0.382568	-0.060103	-0.914466	1.644777	-45.545104	-166.060010
37861		0.827802	-2.931687	14.270098	8.457452	5.471733	0.744083	-0.978530	0.622569	-0.602087	-0.890625	0.101807	-0.313477	0.008636	-0.028644	0.142816	0.112936	-0.380142	-0.056410	-0.916273	1.423521	-45.183580	-166.539133
37862		0.667743	-2.804778	13.778816	8.252784	5.138349	0.368408	-1.036994	0.863219	-0.390842	-0.885010	0.096436	-0.315674	0.007219	-0.027347	0.137901	0.109388	-0.376683	-0.051900	-0.918395	1.041326	-44.687782	-166.843271
37863		0.721620	-2.801510	12.972135	7.635395	4.833838	-0.067058	-1.058514	1.022814	-0.186366	-0.876709	0.101807	-0.322510	0.007854	-0.027335	0.129828	0.106784	-0.372542	-0.046826	-0.920661	0.531221	-44.104653	-166.983233
37864		1.146051	-2.544971	12.315803	6.904181	4.258561	-0.134712	-1.047816	1.137227	0.019697	-0.869873	0.098389	-0.331055	0.012164	-0.024803	0.123221	0.105154	-0.367888	-0.041340	-0.922980	-0.083446	-43.456302	-166.967514
37865		1.645024	-2.214252	11.770221	6.192142	3.625640	-0.083549	-1.009877	1.220565	0.208803	-0.859619	0.103760	-0.343018	0.017191	-0.021530	0.117709	0.104493	-0.362854	-0.035648	-0.925282	-0.769607	-42.760434	-166.812407
37866		2.118712	-1.855958	11.293129	5.532517	2.987069	-0.018100	-0.946648	1.279456	0.389477	-0.857178	0.107910	-0.352295	0.021945	-0.017983	0.112879	0.104764	-0.357512	-0.029873	-0.927533	-1.503662	-42.026013	-166.534036
37867		2.555583	-1.457220	10.665729	4.797553	2.303960	-0.112960	-0.879119	1.312272	0.527323	-0.854736	0.113281	-0.363770	0.026293	-0.014035	0.106549	0.105814	-0.351990	-0.024160	-0.929690	-2.254576	-41.268995	-166.164363
37868		2.796895	-0.921581	10.095182	4.267343	1.539019	-0.325680	-0.810409	1.319907	0.647980	-0.843262	0.117676	-0.365479	0.028663	-0.008715	0.100800	0.107511	-0.346373	-0.018531	-0.931732	-3.011293	-40.499237	-165.724599
37869		3.117145	-0.434433	9.532725	3.676460	0.818223	-0.507307	-0.759669	1.300801	0.731280	-0.825928	0.118896	-0.377441	0.031805	-0.003867	0.095137	0.109703	-0.340814	-0.013020	-0.933618	-3.762612	-39.734866	-165.236500
37870		3.509153	-0.130886	9.033890	3.037790	0.277383	-0.612938	-0.692156	1.277934	0.769712	-0.815674	0.134766	-0.384766	0.035672	-0.000860	0.090116	0.112138	-0.335290	-0.007750	-0.935385	-4.478146	-38.975497	-164.742062
37871		3.940024	0.213208	8.758734	2.522012	-0.282663	-0.547567	-0.618885	1.254461	0.757511	-0.812500	0.137695	-0.395020	0.039939	0.002553	0.087330	0.114674	-0.329825	-0.002877	-0.937047	-5.130825	-38.227324	-164.266773
37872		4.611798	0.487699	8.768795	1.983644	-0.800010	-0.126528	-0.563472	1.228609	0.686666	-0.802979	0.137939	-0.415771	0.046638	0.005283	0.087388	0.116920	-0.324414	0.001625	-0.938660	-5.707855	-37.491913	-163.860990
37873		5.294175	0.580859	8.797747	1.401890	-1.143734	0.311089	-0.539433	1.211805	0.573177	-0.786621	0.141846	-0.422119	0.053456	0.006198	0.087638	0.118708	-0.319066	0.005800	-0.940251	-6.210629	-36.771682	-163.542669
37874		5.807639	0.537262	8.615235	0.783355	-1.329649	0.475959	-0.528324	1.214359	0.424247	-0.784912	0.139160	-0.418701	0.058586	0.005723	0.085783	0.119755	-0.313672	0.009708	-0.941899	-6.635360	-36.055610	-163.346718
37875		6.243769	0.317688	8.196984	0.040934	-1.331807	0.409793	-0.518377	1.228539	0.271871	-0.769043	0.142822	-0.434814	0.062935	0.003474	0.081576	0.120146	-0.308214	0.013316	-0.943606	-6.984573	-35.342643	-163.259898
37876		6.447916	-0.022190	7.623963	-0.637767	-1.155341	0.084683	-0.496429	1.227726	0.119925	-0.763672	0.137695	-0.446777	0.064946	0.000006	0.075842	0.119784	-0.302726	0.016610	-0.945375	-7.256845	-34.638675	-163.291972
37877		6.559748	-0.382290	6.866860	-1.345658	-0.924883	-0.449843	-0.474261	1.206856	-0.011997	-0.757813	0.136230	-0.457031	0.066010	-0.003665	0.068280	0.118893	-0.297337	0.019561	-0.947139	-7.464593	-33.958221	-163.408254
37878		6.776066	-0.800794	6.114538	-2.132361	-0.640414	-0.925285	-0.450192	1.159649	-0.114491	-0.747803	0.135010	-0.464355	0.068109	-0.007910	0.060769	0.117481	-0.292140	0.022241	-0.948872	-7.622335	-33.310782	-163.600651
37879		7.072473	-1.287994	5.408724	-2.955636	-0.286966	-1.320677	-0.424549	1.100072	-0.185132	-0.748535	0.132080	-0.461426	0.071009	-0.012831	0.053724	0.115845	-0.287223	0.024636	-0.950514	-7.743688	-32.704773	-163.827241
37880		7.473689	-1.914232	5.223495	-3.591108	0.203769	-1.218093	-0.391204	1.020176	-0.227910	-0.727295	0.132324	-0.479492	0.074980	-0.019126	0.051890	0.114056	-0.282648	0.026772	-0.952042	-7.837027	-32.145958	-164.075651
37881		8.129444	-2.398060	5.285450	-4.262352	0.510244	-0.793485	-0.370996	0.927932	-0.254891	-0.728271	0.125488	-0.483643	0.081508	-0.023987	0.052521	0.112179	-0.278510	0.028712	-0.953427	-7.915381	-31.643769	-164.332579
37882		8.456641	-2.657723	5.146289	-4.723978	0.678038	-0.741501	-0.372281	0.851260	-0.239760	-0.725098	0.128662	-0.479492	0.084753	-0.026583	0.051152	0.110378	-0.274716	0.030645	-0.954677	-8.006152	-31.182522	-164.572362
37883		8.561852	-2.970869	4.745128	-5.143434	0.950197	-1.021243	-0.374983	0.779012	-0.191043	-0.708496	0.110352	-0.492920	0.085774	-0.029702	0.047173	0.108817	-0.271269	0.032608	-0.955776	-8.119560	-30.760396	-164.772477
37884		8.597871	-3.132426	4.410886	-5.430003	1.090250	-1.296963	-0.338769	0.685910	-0.096517	-0.713867	0.127441	-0.493896	0.086114	-0.031291	0.043867	0.107767	-0.268215	0.034484	-0.956691	-8.250209	-30.382228	-164.902203
37885		8.701650	-3.044789	4.206077	-5.649081	0.967817	-1.456161	-0.290272	0.577757	0.020088	-0.702393	0.115967	-0.497559	0.087141	-0.030378	0.041853	0.107361	-0.265641	0.036216	-0.957391	-8.396445	-30.057471	-164.945154
37886		8.557548	-2.793882	3.952072	-5.648892	0.735852	-1.799908	-0.229786	0.478153	0.165451	-0.697754	0.121582	-0.505127	0.085693	-0.027823	0.039348	0.107744	-0.263473	0.037808	-0.957885	-8.560874	-29.775688	-164.884698
37887		8.172569	-2.429882	3.700320	-5.416572	0.440488	-2.272521	-0.163609	0.381184	0.329654	-0.687988	0.119629	-0.503174	0.081836	-0.024134	0.036867	0.109023	-0.261710	0.039237	-0.958166	-8.743449	-29.535813	-164.708273
37888		8.093411	-2.254093	3.706087	-5.337066	0.247174	-2.344505	-0.058599	0.278180	0.476175	-0.690674	0.121094	-0.497559	0.081039	-0.022337	0.036955	0.111155	-0.260344	0.040309	-0.958249	-8.917522	-29.339802	-164.427866
37889		8.440834	-1.684148	3.901136	-5.437691	-0.438393	-2.096342	0.055239	0.207999	0.577777	-0.687256	0.130371	-0.495850	0.084497	-0.016608	0.038919	0.113941	-0.259237	0.040918	-0.958196	-9.059855	-29.174828	-164.075030
37890		8.649846	-1.090794	3.901389	-5.507635	-1.113834	-2.088983	0.125304	0.159332	0.616267	-0.686035	0.123535	-0.501221	0.086563	-0.010666	0.038938	0.117006	-0.258307	0.041223	-0.958065	-9.176306	-29.032306	-163.693578
37891		8.631222	-0.499016	3.630123	-5.513601	-1.726223	-2.427231	0.149712	0.117893	0.609614	-0.673096	0.129150	-0.506592	0.086348	-0.004754	0.036247	0.120082	-0.257566	0.041367	-0.957877	-9.276683	-28.914090	-163.312458
37892		8.455275	-0.291312	3.230394	-5.521965	-1.920661	-2.896707	0.155769	0.036796	0.566368	-0.670898	0.136963	-0.489990	0.084567	-0.002699	0.032286	0.122971	-0.257211	0.041388	-0.957605	-9.364397	-28.844519	-162.951593
37893		8.341184	-0.213358	2.924876	-5.554498	-1.999947	-3.230634	0.171184	-0.075522	0.490565	-0.676025	0.127930	-0.490479	0.083406	-0.001954	0.029279	0.125543	-0.257403	0.041158	-0.957230	-9.424205	-28.845794	-162.627516
37894		8.292598	-0.261659	2.624608	-5.660200	-1.965983	-3.502286	0.216956	-0.207915	0.392897	-0.671143	0.139893	-0.489990	0.082904	-0.002482	0.026330	0.127729	-0.258216	0.040509	-0.956749	-9.435406	-28.930446	-162.352455
37895		8.235056	-0.252514	2.469392	-5.666634	-1.977258	-3.651728	0.300947	-0.351954	0.294240	-0.678955	0.128906	-0.484131	0.082311	-0.002441	0.024835	0.129583	-0.259685	0.039230	-0.956155	-9.374783	-29.106303	-162.125143
37896		8.495747	-0.035272	2.636725	-5.719884	-2.267033	-3.388155	0.365985	-0.482581	0.207340	-0.674805	0.140869	-0.484619	0.084894	-0.000313	0.026572	0.131128	-0.261751	0.037450	-0.955453	-9.257943	-29.364174	-161.940307
37897		8.546998	0.073227	2.702896	-5.666804	-2.386945	-3.289514	0.376726	-0.582450	0.154580	-0.678711	0.133057	-0.475098	0.085390	0.000747	0.027279	0.132455	-0.264294	0.035476	-0.954644	-9.123043	-29.683924	-161.779166
37898		8.143606	-0.132104	2.369737	-5.512378	-2.077262	-3.709424	0.420404	-0.679248	0.119129	-0.687256	0.141846	-0.476563	0.081356	-0.001323	0.023971	0.133683	-0.267274	0.033189	-0.953725	-8.958165	-30.062035	-161.631651
37899		7.779374	-0.296854	2.130786	-5.331972	-1.815148	-4.031511	0.502473	-0.824108	0.113050	-0.697998	0.140381	-0.468506	0.077707	-0.002979	0.021621	0.135016	-0.270884	0.030398	-0.952611	-8.751340	-30.523073	-161.473981
37900		8.022525	-0.252954	2.163764	-5.450241	-1.915263	-3.834990	0.596423	-0.987917	0.141240	-0.689209	0.136719	-0.458496	0.080119	-0.002538	0.022026	0.136629	-0.275202	0.027093	-0.951243	-8.510059	-31.075267	-161.282652
37901		8.569088	-0.297941	2.277641	-5.780969	-2.009951	-3.390426	0.696942	-1.083179	0.174649	-0.704834	0.136963	-0.445068	0.085568	-0.002985	0.023230	0.138550	-0.279886	0.023283	-0.949698	-8.227388	-31.679163	-161.061573
37902		8.461929	-0.257414	2.222776	-5.644467	-2.009451	-3.432050	0.802661	-1.139431	0.181774	-0.703125	0.130859	-0.446533	0.084493	-0.002588	0.022699	0.140650	-0.284755	0.018948	-0.948036	-7.891197	-32.315900	-160.832728
37903		1.794001	-16.386464	3.925547	-3.541096	15.428124	-3.765072	1.499561	-1.206508	0.097959	-0.714844	0.135986	-0.438232	0.017788	-0.164145	0.038133	0.143344	-0.289435	0.011134	-0.946338	-7.126693	-32.998353	-160.660105
37904		4.719999	-9.300655	22.580052	6.160867	9.570509	12.299818	4.581614	-1.324332	-1.282050	-0.715820	0.110107	-0.430908	0.045094	-0.098444	0.223890	0.143921	-0.292445	-0.013336	-0.945296	-4.070437	-33.830123	-161.448054
37905		0.819407	15.966604	22.002065	15.885416	-12.660829	8.268986	4.015604	-0.644075	-1.976849	-0.725098	0.078857	-0.425049	0.009027	0.155119	0.223194	0.140356	-0.292430	-0.035660	-0.945258	-1.017081	-34.253423	-162.794995
37906		10.337893	27.029770	11.299365	5.760984	-26.531384	5.286969	1.914606	-1.594444	-1.418580	-0.734131	0.063721	-0.409424	0.104369	0.268456	0.116399	0.136134	-0.298379	-0.047886	-0.943475	0.639183	-35.174196	-163.781559
37907		21.055569	16.543484	13.020933	-4.645678	-18.274540	13.231071	0.594375	-0.703676	-1.016569	-0.733887	0.051514	-0.401611	0.210931	0.163974	0.131440	0.132037	-0.301081	-0.052679	-0.942943	1.397656	-35.571262	-164.506134
37908		11.639569	0.361288	8.269097	-4.444162	-1.350989	3.693297	0.234192	-0.165087	-0.599395	-0.744629	0.043457	-0.400879	0.116337	0.003167	0.082791	0.129504	-0.301585	-0.054791	-0.943013	1.779077	-35.661030	-164.933196
37909		8.925744	1.867853	7.385226	-2.383374	-2.323679	1.439836	0.246951	-0.158222	-0.089874	-0.739258	0.043701	-0.402344	0.089207	0.018547	0.073946	0.129393	-0.302183	-0.056189	-0.942754	1.959124	-35.754236	-165.001895
37910		8.453610	6.135411	7.189445	-0.918398	-6.343448	1.128614	0.034755	-0.126918	0.121145	-0.742676	0.046143	-0.404053	0.084453	0.061393	0.071959	0.129966	-0.302834	-0.056249	-0.942463	1.930306	-35.834148	-164.920960
37911		6.642789	1.556986	7.133201	-0.788989	-1.589825	-0.102729	-0.118189	-0.082124	0.296756	-0.753418	0.048828	-0.399658	0.066375	0.015711	0.071350	0.131146	-0.303418	-0.055291	-0.942168	1.740271	-35.890903	-164.714801
37912		5.972642	-1.170867	8.132656	-0.457492	1.328415	0.247601	-0.112153	-0.075414	0.363204	-0.756348	0.058594	-0.401123	0.059717	-0.011555	0.081356	0.132651	-0.303988	-0.054260	-0.941834	1.525903	-35.944988	-164.460965
37913		5.141800	-3.069597	8.483671	-0.140363	3.367374	0.009443	-0.123600	-0.031862	0.286159	-0.750732	0.065186	-0.396973	0.051448	-0.030570	0.084864	0.133786	-0.304334	-0.053259	-0.941618	1.335936	-35.971622	-164.260677
37914		5.194155	-4.122744	7.645231	-0.947425	4.195399	-0.651529	-0.037485	0.035700	0.129071	-0.755127	0.071777	-0.393555	0.051982	-0.041180	0.076451	0.134332	-0.304268	-0.052860	-0.941585	1.260012	-35.957804	-164.170230
37915		5.039290	-2.194978	8.012949	-0.078054	2.442666	-0.408061	0.009964	0.114685	-0.013560	-0.754395	0.069336	-0.394775	0.050437	-0.021957	0.080099	0.134297	-0.303754	-0.052846	-0.941756	1.269710	-35.896232	-164.179656
37916		4.925702	0.068061	8.007681	0.641368	0.296824	-0.437686	0.000901	0.141905	-0.056028	-0.750488	0.068115	-0.404297	0.049314	0.000666	0.080042	0.134057	-0.303113	-0.052837	-0.941998	1.291469	-35.819168	-164.218490
37917		5.419410	0.370069	7.751746	0.187821	-0.148560	-0.350174	-0.001655	0.114582	-0.049976	-0.755371	0.077393	-0.399414	0.054239	0.003688	0.077486	0.133833	-0.302597	-0.052824	-0.942196	1.309494	-35.757177	-164.253568
37918		5.512159	1.658090	7.915157	0.563579	-1.375100	-0.139304	-0.000817	0.078586	-0.015237	-0.757568	0.076172	-0.398682	0.055154	0.016577	0.079130	0.133766	-0.302266	-0.052787	-0.942314	1.313925	-35.716882	-164.264533
37919		5.684202	1.326723	7.914429	0.329757	-1.098720	-0.045773	-0.029077	0.049647	0.031438	-0.767090	0.079102	-0.402832	0.056860	0.013288	0.079128	0.133867	-0.302096	-0.052564	-0.942366	1.283266	-35.693145	-164.243186
37920		6.178321	1.094834	7.649225	-0.271071	-1.038966	0.022354	-0.029294	0.034420	0.062031	-0.758057	0.081787	-0.392334	0.061793	0.010979	0.076480	0.134109	-0.302012	-0.052306	-0.942373	1.240073	-35.679127	-164.200380
37921		5.881670	0.815076	7.946852	0.046840	-0.659435	0.085484	-0.052404	0.023735	0.077242	-0.766846	0.083252	-0.392822	0.058823	0.008194	0.079459	0.134384	-0.301992	-0.051923	-0.942362	1.177477	-35.670760	-164.147174
37922		5.786722	-0.472915	8.184260	-0.111435	0.631211	0.201356	-0.041831	-0.007402	0.057251	-0.768311	0.098633	-0.398682	0.057866	-0.004695	0.081846	0.134574	-0.302112	-0.051641	-0.942312	1.129481	-35.680591	-164.108368
37923		6.028243	-0.896697	7.928825	-0.559412	0.935471	0.128238	0.005572	-0.027590	0.005154	-0.767578	0.089111	-0.399658	0.060272	-0.008968	0.079296	0.134583	-0.302276	-0.051674	-0.942256	1.130173	-35.700751	-164.106724
37924		5.468369	-0.992159	8.084612	-0.060581	1.182793	-0.073811	0.043155	-0.016841	-0.036239	-0.763428	0.087402	-0.391113	0.054675	-0.009949	0.080849	0.134458	-0.302359	-0.051940	-0.942233	1.169372	-35.714916	-164.133991
37925		5.524717	-0.830067	7.927535	-0.145492	0.995025	-0.166648	0.081315	-0.019064	-0.072015	-0.772217	0.087646	-0.383545	0.055237	-0.008353	0.079277	0.134221	-0.302412	-0.052440	-0.942222	1.245196	-35.729263	-164.186702
37926		6.035899	-0.016883	7.696498	-0.441982	0.073054	-0.041927	0.096141	-0.027466	-0.095740	-0.764648	0.095703	-0.395996	0.060348	-0.000235	0.076973	0.133893	-0.302494	-0.053053	-0.942208	1.339368	-35.748680	-164.256185
37927		6.180467	0.487827	7.858024	-0.321948	-0.400215	0.183355	0.079093	-0.027694	-0.098489	-0.769775	0.082275	-0.397949	0.061796	0.004817	0.078591	0.133525	-0.302582	-0.053589	-0.942201	1.424997	-35.767473	-164.327807
37928		5.777266	0.610025	8.000801	0.107309	-0.391808	0.066418	0.061038	-0.026253	-0.075537	-0.769531	0.101563	-0.392334	0.057764	0.006054	0.080017	0.133239	-0.302687	-0.054004	-0.942185	1.490806	-35.786343	-164.383103
