// General information: 
//  MT Manager version: 2019.2.0 
//  XDA version: 2019.2.0 build 3853 rev 94535 built on 2019-09-09
// Device information: 
//  DeviceId: 00B47793
//  ProductCode: MTW2-3A7G6
//  Firmware Version: 4.6.0
//  Hardware Version: 2.0.0
// Device settings: 
//  Filter Profile: human(46.1)
//  Option Flags: Orientation Smoother Disabled, AHS Disabled, ICC Disabled
// Coordinate system: ENU
PacketCounter	SampleTimeFine	Acc_X	Acc_Y	Acc_Z	FreeAcc_E	FreeAcc_N	FreeAcc_U	Gyr_X	Gyr_Y	Gyr_Z	Mag_X	Mag_Y	Mag_Z	VelInc_X	VelInc_Y	VelInc_Z	Quat_q0	Quat_q1	Quat_q2	Quat_q3	Roll	Pitch	Yaw
48925		4.162106	-2.902023	8.408413	0.001312	0.035934	0.007953	0.008619	0.000472	-0.011569	-0.848389	0.578369	-0.715088	0.041620	-0.029026	0.084083	-0.168609	-0.189539	0.187684	-0.948905	-18.817270	-25.024048	164.060696
48926		4.162411	-2.900999	8.408616	0.000747	0.035312	0.007956	0.006232	-0.001097	-0.007631	-0.848877	0.571289	-0.717773	0.041623	-0.029014	0.084085	-0.168601	-0.189539	0.187678	-0.948907	-18.816713	-25.023897	164.061494
48927		4.151135	-2.894771	8.440871	0.017664	0.013602	0.029032	0.006705	-0.000043	-0.008792	-0.847656	0.567383	-0.719727	0.041510	-0.028952	0.084408	-0.168579	-0.189540	0.187667	-0.948913	-18.815949	-25.023403	164.063957
48928		4.142570	-2.889872	8.418659	0.016666	0.016805	0.004925	0.008144	-0.000579	-0.010410	-0.839844	0.566162	-0.720947	0.041424	-0.028904	0.084186	-0.168583	-0.189543	0.187649	-0.948916	-18.813549	-25.023484	164.062986
48929		4.141755	-2.915039	8.441364	0.033960	0.029247	0.031407	0.005129	0.000142	-0.009853	-0.847412	0.569336	-0.729980	0.041416	-0.029155	0.084413	-0.168588	-0.189538	0.187646	-0.948916	-18.813090	-25.022940	164.062238
48930		4.163718	-2.896941	8.409368	-0.001555	0.032738	0.007964	0.011022	-0.001652	-0.013647	-0.847412	0.567383	-0.720947	0.041635	-0.028977	0.084092	-0.168604	-0.189551	0.187612	-0.948918	-18.808315	-25.024200	164.059549
48931		4.144051	-2.940149	8.409899	0.032751	0.065927	0.012719	0.008121	0.003122	-0.012274	-0.847656	0.571533	-0.725586	0.041440	-0.029407	0.084097	-0.168621	-0.189536	0.187590	-0.948922	-18.805211	-25.022449	164.056532
48932		4.152612	-2.889005	8.442121	0.014784	0.010467	0.029040	0.007984	0.002768	-0.014953	-0.845703	0.560303	-0.718018	0.041525	-0.028897	0.084419	-0.168650	-0.189527	0.187565	-0.948924	-18.801464	-25.021553	164.052160
48933		4.173232	-2.896829	8.432831	-0.002868	0.027022	0.032077	0.011133	0.002404	-0.012832	-0.857422	0.568848	-0.720459	0.041731	-0.028976	0.084326	-0.168673	-0.189518	0.187530	-0.948928	-18.796565	-25.020381	164.048253
48934		4.163409	-2.917818	8.433314	0.014015	0.043308	0.034462	0.007646	0.002070	-0.011115	-0.849365	0.571289	-0.726318	0.041633	-0.029184	0.084332	-0.168684	-0.189508	0.187511	-0.948932	-18.794044	-25.019155	164.046321
48935		4.153116	-2.885085	8.443213	0.013071	0.008561	0.029045	0.009556	0.002589	-0.013894	-0.847900	0.571045	-0.726563	0.041530	-0.028858	0.084430	-0.168711	-0.189499	0.187483	-0.948935	-18.789848	-25.018178	164.042125
48936		4.163819	-2.915276	8.433990	0.012879	0.042034	0.034469	0.008611	0.000481	-0.011573	-0.854248	0.566895	-0.723389	0.041637	-0.029159	0.084339	-0.168721	-0.189498	0.187460	-0.948937	-18.786794	-25.017898	164.040242
48937		4.143618	-2.904778	8.443987	0.029372	0.024212	0.031436	0.009554	0.002591	-0.013895	-0.847412	0.569336	-0.724609	0.041435	-0.029055	0.084438	-0.168747	-0.189489	0.187431	-0.948940	-18.782546	-25.016835	164.036087
48938		4.164274	-2.912639	8.434676	0.011731	0.040772	0.034475	0.009081	0.001537	-0.012735	-0.846191	0.569092	-0.726807	0.041642	-0.029133	0.084345	-0.168763	-0.189485	0.187405	-0.948944	-18.778839	-25.016196	164.033294
48939		4.154017	-2.879858	8.444554	0.010763	0.006042	0.029049	0.007977	0.002775	-0.014957	-0.852539	0.567627	-0.720703	0.041539	-0.028805	0.084444	-0.168787	-0.189475	0.187380	-0.948946	-18.775224	-25.015106	164.029543
48940		4.135326	-2.897064	8.422616	0.027222	0.026178	0.007340	0.008112	0.003130	-0.012278	-0.848877	0.568604	-0.725586	0.041353	-0.028977	0.084224	-0.168804	-0.189461	0.187357	-0.948951	-18.772050	-25.013519	164.026699
48941		4.155970	-2.904835	8.413347	0.009570	0.042715	0.010379	0.013666	0.000642	-0.012233	-0.847656	0.563477	-0.714600	0.041558	-0.029057	0.084131	-0.168817	-0.189463	0.187312	-0.948957	-18.766062	-25.013251	164.023822
48942		4.154638	-2.875567	8.445711	0.009062	0.004151	0.029052	0.010987	0.002060	-0.015516	-0.855225	0.562256	-0.716309	0.041545	-0.028764	0.084455	-0.168845	-0.189461	0.187273	-0.948960	-18.760513	-25.012840	164.019257
48943		4.115633	-2.883270	8.433485	0.042633	0.007083	0.004312	0.010986	0.002062	-0.015517	-0.844727	0.569580	-0.720703	0.041155	-0.028841	0.084333	-0.168896	-0.189455	0.187240	-0.948958	-18.755108	-25.012643	164.012026
48944		4.145103	-2.894816	8.446678	0.025402	0.019788	0.031457	0.010153	0.004007	-0.012381	-0.858643	0.563232	-0.716553	0.041451	-0.028955	0.084464	-0.168912	-0.189439	0.187207	-0.948965	-18.750664	-25.010598	164.008942
48945		4.146303	-2.867325	8.424529	0.007000	0.006065	0.004949	0.010649	0.001364	-0.011677	-0.849121	0.560059	-0.723633	0.041462	-0.028680	0.084243	-0.168932	-0.189435	0.187177	-0.948968	-18.746537	-25.009974	164.005626
48946		4.145307	-2.892200	8.447474	0.024285	0.018507	0.031462	0.007138	0.004724	-0.011825	-0.848145	0.572266	-0.722900	0.041453	-0.028927	0.084473	-0.168949	-0.189413	0.187158	-0.948974	-18.743900	-25.007437	164.002730
48947		4.145471	-2.890956	8.447819	0.023705	0.017870	0.031465	0.010041	-0.000043	-0.013196	-0.850098	0.564209	-0.726563	0.041453	-0.028917	0.084477	-0.168970	-0.189415	0.187130	-0.948975	-18.739772	-25.007675	163.999351
48948		4.176202	-2.876495	8.438320	-0.011379	0.017501	0.032093	0.010176	0.000312	-0.010517	-0.846191	0.566895	-0.724121	0.041761	-0.028771	0.084382	-0.168974	-0.189416	0.187101	-0.948980	-18.736105	-25.007291	163.998135
48949		4.137133	-2.884785	8.425942	0.022148	0.020479	0.007366	0.004150	0.001742	-0.009402	-0.852051	0.572754	-0.727051	0.041371	-0.028852	0.084258	-0.168985	-0.189401	0.187102	-0.948981	-18.736106	-25.005808	163.996553
48950		4.147240	-2.861652	8.425997	0.004152	0.002937	0.004952	0.005588	0.001208	-0.011021	-0.844971	0.572998	-0.726318	0.041471	-0.028621	0.084259	-0.168996	-0.189393	0.187094	-0.948982	-18.734863	-25.005030	163.994853
48951		4.198411	-2.856774	8.406710	-0.048063	0.019701	0.008610	0.006085	-0.001436	-0.010316	-0.850098	0.570557	-0.713867	0.041982	-0.028572	0.084067	-0.168983	-0.189400	0.187085	-0.948985	-18.734000	-25.005364	163.996365
48952		4.137930	-2.882042	8.426489	0.020415	0.018586	0.007373	0.007161	0.001029	-0.009960	-0.847412	0.563721	-0.714844	0.041378	-0.028825	0.084264	-0.168987	-0.189393	0.187070	-0.948988	-18.732139	-25.004488	163.995336
48953		4.176327	-2.897981	8.461883	0.003576	0.027345	0.058620	0.003678	0.000688	-0.008241	-0.851807	0.561523	-0.720459	0.041762	-0.028983	0.084618	-0.168987	-0.189385	0.187077	-0.948988	-18.733071	-25.003628	163.995422
48954		4.147200	-2.884034	8.449337	0.019700	0.013420	0.031481	0.009067	0.001552	-0.012742	-0.862793	0.564209	-0.704590	0.041471	-0.028847	0.084492	-0.169004	-0.189380	0.187051	-0.948992	-18.729370	-25.002980	163.992622
48955		4.120095	-2.817902	8.391668	0.000235	-0.026667	-0.048716	0.004284	0.002098	-0.006724	-0.866455	0.558838	-0.707764	0.041201	-0.028182	0.083916	-0.169028	-0.189361	0.187060	-0.948989	-18.730095	-25.001360	163.989637
48956		4.252515	-2.874837	8.542425	-0.048411	-0.006748	0.153215	0.008098	0.003142	-0.012286	-0.859863	0.558594	-0.704590	0.042525	-0.028754	0.085422	-0.169044	-0.189348	0.187037	-0.948993	-18.726929	-24.999766	163.986787
48957		5.162561	-2.347672	7.686997	-1.300036	0.120506	-0.349659	0.010125	-0.000414	-0.052687	-0.873779	0.562988	-0.695068	0.051619	-0.023494	0.076869	-0.169296	-0.189386	0.186981	-0.948952	-18.712874	-25.008163	163.954765
48958		5.491613	-1.281622	8.427692	-1.783873	-1.034250	0.115781	0.040243	0.011698	-0.043850	-0.864258	0.558105	-0.703125	0.054918	-0.012845	0.084271	-0.169439	-0.189389	0.186769	-0.948968	-18.682565	-25.007721	163.931279
48959		5.718247	-1.887076	8.130133	-1.830960	-0.320312	0.132334	0.020011	0.011043	-0.041218	-0.876709	0.554688	-0.690918	0.057183	-0.018891	0.081296	-0.169600	-0.189375	0.186659	-0.948963	-18.664783	-25.007321	163.908345
48960		5.041059	-2.224335	8.129167	-1.108745	-0.192736	-0.056826	0.021525	0.010878	-0.030957	-0.874023	0.560059	-0.684570	0.050412	-0.022260	0.081287	-0.169699	-0.189354	0.186548	-0.948972	-18.648535	-25.004946	163.892748
48961		4.603749	-2.694328	8.330072	-0.484062	0.025445	0.067041	0.007707	0.013549	-0.023266	-0.880127	0.553467	-0.697510	0.046040	-0.026952	0.083297	-0.169778	-0.189301	0.186509	-0.948976	-18.642081	-24.999741	163.881233
48962		4.285855	-3.006318	8.324176	-0.087030	0.221235	0.017973	0.005973	0.009679	-0.015933	-0.880127	0.552490	-0.686279	0.042860	-0.030069	0.083239	-0.169820	-0.189258	0.186487	-0.948981	-18.638652	-24.995262	163.874879
48963		3.921524	-3.083469	8.428971	0.291087	0.153750	-0.023647	0.006803	0.007739	-0.019070	-0.879395	0.553955	-0.681641	0.039216	-0.030841	0.084287	-0.169875	-0.189228	0.186461	-0.948982	-18.634276	-24.992445	163.867067
48964		4.284390	-3.054448	8.556360	0.001467	0.167402	0.230665	0.010818	0.001745	-0.018212	-0.890381	0.543213	-0.679199	0.042842	-0.030553	0.085562	-0.169915	-0.189229	0.186421	-0.948983	-18.628172	-24.992690	163.860952
48965		4.135784	-2.882079	8.325312	-0.005051	0.076996	-0.080475	0.008739	0.004568	-0.019983	-0.890381	0.552246	-0.681396	0.041357	-0.028829	0.083251	-0.169969	-0.189217	0.186388	-0.948982	-18.622731	-24.991758	163.853234
48966		4.376214	-2.772889	8.301918	-0.263903	0.053254	-0.030585	0.014621	0.002802	-0.023779	-0.899414	0.550537	-0.675537	0.043760	-0.027740	0.083017	-0.170034	-0.189222	0.186324	-0.948982	-18.612948	-24.992446	163.843571
48967		4.574537	-2.750841	8.333811	-0.435214	0.072251	0.074238	0.013838	0.004742	-0.029852	-0.901123	0.540039	-0.669678	0.045743	-0.027521	0.083335	-0.170130	-0.189222	0.186257	-0.948978	-18.602073	-24.993225	163.829906
48968		4.343920	-2.779682	8.367361	-0.212634	0.026811	0.013963	0.015081	0.003866	-0.024947	-0.899902	0.542969	-0.660400	0.043437	-0.027809	0.083671	-0.170201	-0.189223	0.186188	-0.948979	-18.591641	-24.993546	163.819329
48969		4.163001	-2.910538	8.417498	0.011654	0.075852	0.018396	0.012394	0.005279	-0.028237	-0.894287	0.539795	-0.666992	0.041628	-0.029116	0.084172	-0.170291	-0.189218	0.186129	-0.948975	-18.581954	-24.993740	163.806522
48970		4.362643	-2.862230	8.426637	-0.177478	0.081796	0.096653	0.016312	-0.004765	-0.028184	-0.897217	0.537354	-0.669678	0.043620	-0.028635	0.084265	-0.170368	-0.189264	0.186059	-0.948966	-18.570731	-24.999336	163.795742
48971		4.318467	-2.787169	8.324044	-0.197674	0.049577	-0.031806	0.017198	0.001056	-0.032390	-0.903076	0.536621	-0.668213	0.043181	-0.027886	0.083238	-0.170469	-0.189288	0.185977	-0.948959	-18.557598	-25.002580	163.781296
48972		4.304498	-2.777401	8.411242	-0.162879	0.002967	0.034400	0.016599	0.007408	-0.025767	-0.910645	0.538330	-0.667236	0.043045	-0.027787	0.084109	-0.170546	-0.189274	0.185897	-0.948964	-18.545785	-25.001118	163.769513
48973		4.414352	-2.716874	8.404685	-0.284037	-0.017888	0.057756	0.007466	0.005466	-0.024904	-0.909912	0.538574	-0.651123	0.044142	-0.027177	0.084045	-0.170625	-0.189261	0.185865	-0.948958	-18.539748	-25.000601	163.758666
48974		4.273014	-2.679288	8.440362	-0.164902	-0.100574	0.017859	0.009123	-0.002110	-0.020092	-0.908691	0.538330	-0.657959	0.042727	-0.026801	0.084403	-0.170673	-0.189281	0.185834	-0.948952	-18.534465	-25.003274	163.752198
48975		4.396058	-2.678843	8.391899	-0.285836	-0.049378	0.028113	-0.000472	-0.005115	-0.018062	-0.909668	0.536133	-0.657471	0.043956	-0.026792	0.083920	-0.170717	-0.189305	0.185855	-0.948935	-18.535603	-25.007262	163.747576
48976		4.417863	-2.607257	8.368443	-0.338997	-0.096931	-0.003415	0.000909	-0.013398	-0.018614	-0.909668	0.530029	-0.654297	0.044171	-0.026077	0.083687	-0.170755	-0.189370	0.185874	-0.948911	-18.536360	-25.015797	163.744263
48977		4.250966	-2.719642	8.362741	-0.149992	-0.039792	-0.046495	-0.007477	-0.013582	-0.013549	-0.912109	0.544434	-0.648926	0.042502	-0.027196	0.083631	-0.170777	-0.189424	0.185939	-0.948884	-18.543371	-25.023568	163.744048
48978		4.230147	-2.842782	8.430217	-0.062400	0.032571	0.038158	-0.011417	-0.014995	-0.010662	-0.908203	0.535645	-0.654053	0.042294	-0.028425	0.084307	-0.170788	-0.189479	0.186026	-0.948854	-18.553342	-25.031522	163.745824
48979		4.293336	-2.870102	8.400524	-0.114312	0.083341	0.047282	-0.005723	-0.013399	-0.019019	-0.918213	0.534668	-0.654053	0.042925	-0.028703	0.084009	-0.170834	-0.189538	0.186078	-0.948823	-18.557945	-25.040193	163.742295
48980		4.325059	-2.776547	8.376670	-0.184867	0.018852	0.013270	-0.003589	-0.008459	-0.018315	-0.924805	0.533203	-0.648682	0.043245	-0.027768	0.083769	-0.170880	-0.189576	0.186114	-0.948801	-18.560933	-25.045992	163.738169
48981		4.469857	-2.679498	8.282098	-0.376177	0.010052	-0.034606	0.001781	-0.007567	-0.022825	-0.921387	0.528564	-0.651123	0.044692	-0.026801	0.082822	-0.170942	-0.189618	0.186122	-0.948779	-18.559772	-25.052193	163.731184
48982		4.416646	-2.707013	8.378360	-0.289470	-0.019843	0.033500	-0.001374	-0.007216	-0.024951	-0.915771	0.527832	-0.644287	0.044160	-0.027075	0.083785	-0.171018	-0.189658	0.186141	-0.948754	-18.559699	-25.058527	163.722830
48983		4.195050	-2.767985	8.456167	-0.048656	-0.055938	0.024053	-0.004850	-0.007572	-0.023228	-0.924072	0.533447	-0.653809	0.041944	-0.027683	0.084564	-0.171089	-0.189695	0.186179	-0.948726	-18.562231	-25.064811	163.715603
48984		4.207632	-2.798990	8.445977	-0.048939	-0.022484	0.029576	-0.008614	-0.020088	-0.023929	-0.927002	0.525146	-0.648438	0.042064	-0.027991	0.084465	-0.171155	-0.189788	0.186244	-0.948683	-18.567662	-25.077951	163.710453
48985		4.300927	-2.758667	8.415372	-0.153062	-0.022567	0.031232	-0.008761	-0.020434	-0.026614	-0.922607	0.531738	-0.649414	0.042997	-0.027589	0.084159	-0.171234	-0.189886	0.186309	-0.948636	-18.572668	-25.091840	163.703786
48986		4.280245	-2.827860	8.491670	-0.083217	-0.001241	0.107939	-0.017145	-0.020626	-0.021546	-0.923584	0.516602	-0.644775	0.042791	-0.028276	0.084924	-0.171296	-0.189972	0.186417	-0.948587	-18.583638	-25.104839	163.700176
48987		4.297188	-2.835066	8.403710	-0.119119	0.044117	0.041735	-0.013600	-0.023952	-0.030614	-0.924072	0.523926	-0.640869	0.042957	-0.028352	0.084044	-0.171395	-0.190087	0.186504	-0.948529	-18.590697	-25.121373	163.691822
48988		4.333104	-2.822918	8.337998	-0.172058	0.068639	-0.002868	-0.007584	-0.025341	-0.031738	-0.931396	0.522461	-0.642334	0.043316	-0.028233	0.083387	-0.171492	-0.190213	0.186562	-0.948475	-18.593995	-25.138794	163.683052
48989		4.496026	-2.758706	8.310107	-0.344868	0.064971	0.023950	-0.003150	-0.015100	-0.036861	-0.934326	0.524658	-0.646240	0.044949	-0.027594	0.083105	-0.171619	-0.190300	0.186586	-0.948429	-18.592710	-25.151666	163.669164
48990		4.424645	-2.724575	8.370755	-0.276563	-0.008107	0.035855	0.005046	-0.003799	-0.038343	-0.922852	0.519531	-0.640625	0.044240	-0.027256	0.083708	-0.171756	-0.190341	0.186558	-0.948402	-18.585236	-25.158595	163.652081
48991		4.328118	-2.866347	8.359663	-0.138603	0.096674	0.026213	0.009161	0.005731	-0.039618	-0.934570	0.519775	-0.636963	0.043278	-0.028676	0.083594	-0.171904	-0.190343	0.186503	-0.948386	-18.574401	-25.160661	163.632332
48992		4.420544	-2.876818	8.321627	-0.225088	0.147599	0.035882	0.021091	0.010363	-0.045615	-0.924561	0.521240	-0.645752	0.044203	-0.028787	0.083211	-0.172073	-0.190338	0.186381	-0.948380	-18.554661	-25.161217	163.608028
48993		4.419855	-2.898354	8.345785	-0.207908	0.159963	0.062478	0.034485	0.022238	-0.054303	-0.923340	0.518555	-0.645264	0.044200	-0.029010	0.083448	-0.172281	-0.190296	0.186178	-0.948390	-18.524158	-25.156983	163.576141
48994		4.312140	-2.979289	8.323506	-0.087981	0.217695	0.020741	0.043092	0.026891	-0.065117	-0.932129	0.519775	-0.634277	0.043123	-0.029825	0.083223	-0.172537	-0.190250	0.185918	-0.948404	-18.485428	-25.152083	163.536810
48995		4.124597	-3.130038	8.322232	0.135774	0.308984	-0.017021	0.066264	0.038523	-0.089746	-0.929443	0.510498	-0.642822	0.041248	-0.031346	0.083204	-0.172899	-0.190191	0.185516	-0.948429	-18.426298	-25.145389	163.480390
48996		4.166667	-3.111099	8.284298	0.083185	0.329593	-0.037511	0.091074	0.034888	-0.117730	-0.943359	0.508545	-0.637207	0.041663	-0.031173	0.082822	-0.173366	-0.190197	0.184972	-0.948449	-18.345982	-25.145575	163.407876
48997		3.821682	-3.188436	8.252623	0.408345	0.333929	-0.189855	0.109018	0.042395	-0.151782	-0.933105	0.507568	-0.642334	0.038210	-0.031958	0.082501	-0.173984	-0.190215	0.184305	-0.948462	-18.246206	-25.147790	163.313429
48998		3.722619	-3.098972	8.468870	0.529587	0.155824	-0.072127	0.138418	0.022935	-0.192936	-0.927979	0.505371	-0.636963	0.037206	-0.031084	0.084663	-0.174752	-0.190387	0.183475	-0.948447	-18.120523	-25.167697	163.198041
48999		3.964642	-2.940017	8.480937	0.270787	0.093510	-0.004209	0.160195	-0.006368	-0.221871	-0.930664	0.502686	-0.633789	0.039611	-0.029512	0.084787	-0.175608	-0.190744	0.182540	-0.948397	-17.977467	-25.208542	163.070927
49000		3.802376	-2.629344	8.781926	0.390682	-0.327074	0.098624	0.140687	-0.051380	-0.233595	-0.935059	0.499756	-0.637939	0.037970	-0.026400	0.087810	-0.176498	-0.191308	0.181725	-0.948275	-17.845976	-25.275634	162.945326
49001		3.734299	-2.679410	8.857209	0.511778	-0.319104	0.147764	0.116361	-0.119555	-0.238637	-0.939941	0.495361	-0.633545	0.037258	-0.026890	0.088579	-0.177373	-0.192178	0.181082	-0.948059	-17.732651	-25.380635	162.829664
49002		3.926649	-2.705652	8.831826	0.374542	-0.224738	0.214745	0.105462	-0.186726	-0.265260	-0.933350	0.492432	-0.622070	0.039148	-0.027155	0.088341	-0.178322	-0.193380	0.180522	-0.947743	-17.623680	-25.526659	162.710478
49003		3.951315	-2.658274	8.857280	0.374090	-0.263395	0.233271	0.089545	-0.257712	-0.280115	-0.951416	0.498779	-0.625977	0.039362	-0.026678	0.088612	-0.179294	-0.194917	0.180088	-0.947328	-17.525472	-25.713896	162.595482
49004		3.525759	-3.002499	8.929872	0.943519	-0.105326	0.201657	0.089319	-0.348682	-0.314697	-0.942871	0.495361	-0.624756	0.035055	-0.030120	0.089347	-0.180346	-0.196915	0.179700	-0.946788	-17.425028	-25.956554	162.476281
49005		3.128561	-3.398657	9.202937	1.584714	0.020916	0.361827	0.153006	-0.488505	-0.343921	-0.952881	0.478027	-0.622314	0.031002	-0.034110	0.092079	-0.181347	-0.199657	0.179108	-0.946135	-17.291234	-26.280504	162.365091
49006		3.556258	-3.078689	9.639998	1.296107	-0.316795	0.830338	0.282270	-0.668564	-0.337897	-0.954590	0.476807	-0.621826	0.035188	-0.030983	0.096474	-0.182027	-0.203360	0.178070	-0.945411	-17.098796	-26.701651	162.290244
49007		3.489428	-2.314231	10.050268	1.258897	-1.174496	0.937870	0.105193	-0.891014	-0.381149	-0.957275	0.474121	-0.612305	0.034402	-0.023261	0.100644	-0.182890	-0.207988	0.178026	-0.944245	-17.013718	-27.251773	162.229331
49008		3.535962	-3.535514	9.691971	1.729834	0.026022	0.954982	0.116632	-1.128840	-0.454283	-0.964111	0.456787	-0.605469	0.034731	-0.035491	0.097096	-0.183868	-0.213808	0.178062	-0.942747	-16.920565	-27.944351	162.166722
49009		3.984926	-2.978311	10.117746	1.404723	-0.546304	1.360707	0.047188	-1.369605	-0.577336	-0.974854	0.464355	-0.583008	0.039069	-0.029921	0.101440	-0.185279	-0.220798	0.178509	-0.940773	-16.851086	-28.789315	162.071456
49010		3.775162	-3.310490	9.893360	1.816239	-0.266699	1.128826	0.033446	-1.634864	-0.674962	-0.979492	0.458252	-0.577637	0.036829	-0.033247	0.099232	-0.186914	-0.229097	0.179145	-0.938342	-16.781606	-29.795856	161.963146
49011		3.994757	-2.253331	10.190239	1.484148	-1.306695	1.185593	-0.033092	-1.893576	-0.763388	-0.998047	0.456299	-0.546631	0.038894	-0.022666	0.102278	-0.188792	-0.238604	0.180219	-0.935386	-16.744114	-30.958805	161.845938
49012		4.088270	-3.324465	9.705662	1.917758	-0.222490	1.060828	-0.108622	-2.105597	-0.860591	-0.995605	0.439697	-0.533691	0.039714	-0.033364	0.097497	-0.191002	-0.249092	0.181708	-0.931909	-16.735199	-32.254133	161.705068
49013		4.291588	-3.624115	9.508273	2.056146	0.094787	1.037021	-0.048996	-2.302970	-0.952552	-1.012695	0.439941	-0.512695	0.041644	-0.036418	0.095576	-0.193359	-0.260604	0.182968	-0.928020	-16.676165	-33.672762	161.539815
49014		4.288830	-4.083786	9.101130	2.364362	0.591239	0.768203	0.048332	-2.432158	-1.063149	-1.025635	0.427490	-0.486084	0.041559	-0.041083	0.091512	-0.195953	-0.272869	0.183726	-0.923791	-16.527185	-35.180265	161.320562
49015		5.207660	-2.841006	9.067245	1.343987	-0.287683	0.934844	0.081486	-2.524614	-1.147891	-1.032959	0.416504	-0.461914	0.050762	-0.028741	0.091307	-0.198772	-0.285619	0.184273	-0.919214	-16.325862	-36.751622	161.052476
49016		5.726231	-2.712419	8.505298	0.927178	-0.080787	0.752025	-0.043464	-2.591943	-1.290736	-1.045166	0.405518	-0.437744	0.055977	-0.027470	0.085790	-0.202324	-0.298631	0.185220	-0.914100	-16.130134	-38.382261	160.686242
49017		6.625149	-3.715337	7.853868	0.745343	1.222889	1.018713	-0.117656	-2.737566	-1.383726	-1.048340	0.396240	-0.407715	0.064909	-0.037559	0.079455	-0.206231	-0.312251	0.186474	-0.908403	-15.935749	-40.106660	160.267985
49018		7.624232	-5.174449	7.619806	0.968376	2.739244	1.785277	-0.024506	-2.746155	-1.417226	-1.067139	0.386963	-0.389648	0.074817	-0.052269	0.077238	-0.210089	-0.325965	0.187217	-0.902529	-15.649898	-41.839797	159.806596
49019		8.120661	-4.714581	7.143706	0.499449	2.636778	1.676119	0.218776	-2.635075	-1.395379	-1.060059	0.371582	-0.359375	0.079925	-0.047785	0.072444	-0.213507	-0.339336	0.186739	-0.896880	-15.191482	-43.505806	159.311044
49020		9.027758	-4.086815	6.685675	-0.345096	2.522162	1.866851	0.353235	-2.322112	-1.373776	-1.071289	0.355957	-0.341309	0.089210	-0.041603	0.067824	-0.216849	-0.351360	0.185321	-0.891728	-14.588442	-44.992045	158.733092
49021		7.745374	-4.287829	5.992002	0.516444	2.685339	0.521569	0.580583	-2.049703	-1.322822	-1.074707	0.341553	-0.325439	0.076548	-0.043562	0.060582	-0.219780	-0.362308	0.182654	-0.887168	-13.806712	-46.314575	158.101112
49022		6.695650	-4.904722	6.644446	2.117670	2.629297	0.268718	0.802668	-1.744350	-1.090728	-1.090820	0.338867	-0.304688	0.066105	-0.049677	0.066825	-0.221527	-0.371884	0.179059	-0.883496	-12.952467	-47.429802	157.557161
49023		4.679750	-6.220392	9.355224	5.815121	1.940573	0.700615	0.776869	-1.140443	-0.597711	-1.085205	0.330811	-0.296387	0.046077	-0.062706	0.093573	-0.221665	-0.378288	0.175813	-0.881392	-12.305003	-48.140526	157.279962
49024		6.456816	-7.852787	10.345551	6.228884	3.331570	2.855728	0.449953	-0.264922	0.425745	-1.077881	0.339111	-0.302490	0.064599	-0.078623	0.103364	-0.218674	-0.379561	0.174964	-0.881761	-12.357982	-48.235101	157.693339
49025		2.011002	-7.922433	7.458600	7.246391	3.668441	-2.297967	0.263878	0.360682	1.075911	-1.080811	0.342529	-0.297363	0.020671	-0.079212	0.074445	-0.213711	-0.377292	0.175485	-0.883846	-12.835088	-47.897107	158.533825
49026		-0.548119	-5.653925	5.645249	6.538220	2.021939	-5.653524	0.378162	0.480666	1.305153	-1.074707	0.365234	-0.307129	-0.004976	-0.056679	0.056358	-0.207617	-0.374400	0.175794	-0.886463	-13.357719	-47.457731	159.530102
49027		0.444052	-2.921829	5.976807	4.690507	-0.179961	-5.077407	0.386335	0.407644	1.289225	-1.076172	0.385986	-0.323975	0.004751	-0.029304	0.059702	-0.201501	-0.371831	0.176109	-0.888890	-13.862431	-47.054810	160.514489
49028		2.357190	-2.220591	7.516354	3.976390	-1.035955	-2.734719	0.186082	0.558578	1.224997	-1.067139	0.394775	-0.323730	0.023917	-0.022130	0.075076	-0.196168	-0.368432	0.177029	-0.891312	-14.405499	-46.571286	161.401850
49029		3.266425	-2.537980	8.140123	3.819655	-0.844571	-1.562334	0.000013	0.894093	1.183394	-1.066162	0.414063	-0.333740	0.033177	-0.025185	0.081254	-0.191649	-0.363369	0.178367	-0.894102	-14.963215	-45.901567	162.169748
49030		3.217254	-2.520617	7.726139	3.488201	-0.676900	-1.827067	-0.076047	1.235490	1.187394	-1.056396	0.426514	-0.348145	0.032798	-0.024983	0.077070	-0.187543	-0.356684	0.179710	-0.897390	-15.492629	-45.037971	162.847486
49031		2.919152	-2.188845	7.129079	3.064756	-0.746601	-2.451678	-0.070622	1.431597	1.229209	-1.048340	0.448242	-0.372559	0.029835	-0.021681	0.071086	-0.183399	-0.349052	0.180909	-0.900999	-15.989427	-44.054945	163.493511
49032		3.135988	-1.562201	6.998021	2.423880	-1.178664	-2.465503	-0.055297	1.485374	1.310932	-1.042969	0.454834	-0.385254	0.031980	-0.015394	0.069749	-0.178894	-0.341090	0.182111	-0.904705	-16.487470	-43.025844	164.166585
49033		3.907748	-1.275421	7.168070	1.705898	-1.348738	-1.841029	-0.063021	1.504412	1.417897	-1.034424	0.466309	-0.394775	0.039704	-0.012452	0.071388	-0.173915	-0.332897	0.183498	-0.908439	-17.016401	-41.963665	164.891456
49034		4.687229	-1.183995	7.466083	1.110657	-1.416081	-1.102164	-0.030079	1.520993	1.516215	-1.032471	0.493164	-0.414307	0.047526	-0.011470	0.074303	-0.168432	-0.324535	0.184860	-0.912214	-17.543904	-40.871433	165.658697
49035		5.206718	-0.895054	7.638807	0.527651	-1.657087	-0.689339	0.036039	1.561996	1.565714	-1.026611	0.505127	-0.440430	0.052730	-0.008553	0.075976	-0.162632	-0.315952	0.185948	-0.916051	-18.023310	-39.742472	166.426877
49036		5.674064	-0.407323	7.716385	-0.161553	-2.044099	-0.448052	0.067903	1.615463	1.529903	-1.012207	0.521973	-0.450684	0.057390	-0.003662	0.076701	-0.156977	-0.307150	0.186764	-0.919857	-18.433261	-38.587008	167.133315
49037		6.056146	-0.218404	7.573005	-0.782855	-2.088903	-0.373628	0.058215	1.658856	1.431814	-1.000732	0.546875	-0.473145	0.061200	-0.001769	0.075224	-0.151807	-0.298188	0.187419	-0.923533	-18.777368	-37.421630	167.741347
49038		6.383913	-0.372396	7.324164	-1.282639	-1.794531	-0.343365	0.025468	1.672932	1.286447	-0.996582	0.545410	-0.486328	0.064471	-0.003320	0.072704	-0.147355	-0.289244	0.187974	-0.926979	-19.058594	-36.273741	168.230140
49039		6.808642	-0.802197	7.137058	-1.727949	-1.264989	-0.150918	-0.009770	1.660813	1.135525	-0.984863	0.567871	-0.511230	0.068720	-0.007630	0.070802	-0.143625	-0.280435	0.188465	-0.930166	-19.287802	-35.158384	168.607998
49040		7.349063	-1.497229	6.998434	-2.153109	-0.500133	0.204270	-0.037593	1.622373	1.019320	-0.963867	0.581299	-0.524902	0.074130	-0.014582	0.069387	-0.140425	-0.271873	0.188929	-0.933098	-19.482574	-34.085475	168.908169
49041		7.656716	-2.148934	6.877255	-2.407870	0.181944	0.419901	-0.054372	1.566375	0.964002	-0.957764	0.596436	-0.536133	0.077205	-0.021100	0.068175	-0.137440	-0.263583	0.189421	-0.935817	-19.665697	-33.051944	169.177592
49042		7.672788	-2.725849	6.742996	-2.458181	0.755217	0.441777	-0.047692	1.479972	0.960568	-0.948242	0.602783	-0.548584	0.077354	-0.026872	0.066866	-0.134370	-0.255689	0.189918	-0.938349	-19.846376	-32.065626	169.457557
49043		7.655625	-3.036214	6.666926	-2.544576	1.056103	0.418748	-0.043897	1.354137	0.989068	-0.942871	0.610352	-0.560791	0.077154	-0.029967	0.066155	-0.131031	-0.248337	0.190508	-0.940673	-20.042353	-31.140129	169.777830
49044		7.642451	-3.235276	6.630856	-2.648455	1.233859	0.400207	-0.033116	1.228493	1.040803	-0.931885	0.621826	-0.579346	0.076997	-0.031942	0.065842	-0.127307	-0.241522	0.191177	-0.942821	-20.255241	-30.271649	170.152322
49045		7.778277	-3.220551	6.773075	-2.872096	1.158428	0.538879	-0.034120	1.110899	1.093615	-0.921387	0.626953	-0.588867	0.078332	-0.031767	0.067302	-0.123215	-0.235190	0.191980	-0.944800	-20.490530	-29.453987	170.579562
49046		7.807429	-3.099560	6.932742	-3.027838	0.954612	0.605800	-0.060926	1.013614	1.146015	-0.912354	0.641357	-0.595215	0.078600	-0.030525	0.068939	-0.118806	-0.229241	0.193018	-0.946614	-20.758534	-28.676854	171.053843
49047		7.850146	-2.944377	6.952798	-3.254134	0.771030	0.553104	-0.091508	0.937829	1.165308	-0.895996	0.656006	-0.609375	0.078996	-0.028953	0.069172	-0.114261	-0.223597	0.194258	-0.948268	-21.049152	-27.933836	171.549810
49048		7.685021	-2.646333	6.936098	-3.344740	0.440951	0.325783	-0.114111	0.853600	1.152048	-0.891602	0.671631	-0.615967	0.077296	-0.025979	0.069047	-0.109716	-0.218344	0.195626	-0.949747	-21.348730	-27.236813	172.049760
49049		7.792782	-2.313421	7.043523	-3.622788	0.058132	0.314556	-0.133606	0.765021	1.097029	-0.875488	0.680908	-0.622070	0.078322	-0.022658	0.070151	-0.105361	-0.213540	0.197068	-0.951033	-21.646000	-26.595843	172.530683
49050		8.142580	-2.107302	7.236552	-4.035913	-0.220289	0.520342	-0.137610	0.711945	1.001018	-0.870361	0.682129	-0.622314	0.081787	-0.020615	0.072089	-0.101411	-0.209076	0.198444	-0.952167	-21.918175	-26.001826	172.960983
49051		8.165501	-1.739391	7.234649	-4.263857	-0.596179	0.361005	-0.132745	0.690016	0.867035	-0.857178	0.697266	-0.628418	0.081978	-0.016991	0.072075	-0.098068	-0.204841	0.199663	-0.953183	-22.149836	-25.446222	173.312594
49052		8.064959	-1.314610	7.056760	-4.442481	-0.952922	-0.018551	-0.124218	0.645140	0.700926	-0.854248	0.699219	-0.636230	0.080922	-0.012819	0.070315	-0.095461	-0.200988	0.200685	-0.954053	-22.334883	-24.949639	173.573768
49053		7.992309	-1.081662	6.905476	-4.567602	-1.134601	-0.295243	-0.143895	0.574919	0.508333	-0.849854	0.715576	-0.633545	0.080148	-0.010564	0.068832	-0.093720	-0.197647	0.201640	-0.954722	-22.488593	-24.531373	173.736979
49054		8.119010	-1.149641	6.816142	-4.758081	-1.041837	-0.327189	-0.161651	0.494685	0.319411	-0.850586	0.712402	-0.646240	0.081377	-0.011312	0.067969	-0.092816	-0.194871	0.202525	-0.955193	-22.613250	-24.196970	173.808143
49055		8.155245	-1.403078	6.718819	-4.809745	-0.779197	-0.332277	-0.178746	0.427922	0.155389	-0.843994	0.715576	-0.640869	0.081707	-0.013907	0.067026	-0.092644	-0.192570	0.203364	-0.955498	-22.715114	-23.933797	173.799627
49056		8.008905	-1.645074	6.504205	-4.725235	-0.488604	-0.507484	-0.181261	0.344340	0.035273	-0.838867	0.712158	-0.655273	0.080204	-0.016378	0.064919	-0.092963	-0.190789	0.204134	-0.955660	-22.798151	-23.741572	173.741488
49057		7.834062	-1.998146	6.295686	-4.570988	-0.100051	-0.642257	-0.186030	0.249572	-0.056479	-0.843506	0.718750	-0.655029	0.078413	-0.019945	0.062878	-0.093628	-0.189551	0.204885	-0.955681	-22.872205	-23.619815	173.653273
49058		7.736607	-2.268491	6.228754	-4.450078	0.162256	-0.649228	-0.181282	0.154686	-0.107867	-0.837646	0.719238	-0.651367	0.077402	-0.022670	0.062248	-0.094436	-0.188821	0.205607	-0.955591	-22.940790	-23.559746	173.558412
49059		7.644304	-2.474975	6.195105	-4.329205	0.352408	-0.643500	-0.178817	0.063594	-0.143003	-0.836426	0.718994	-0.649658	0.076445	-0.024749	0.061949	-0.095316	-0.188564	0.206328	-0.955399	-23.009009	-23.555741	173.465535
49060		7.406673	-2.613304	6.150088	-4.088689	0.469343	-0.725659	-0.174621	-0.012988	-0.162693	-0.832031	0.717773	-0.645996	0.074041	-0.026140	0.061529	-0.096208	-0.188695	0.207045	-0.955129	-23.077535	-23.596581	173.380018
49061		7.081888	-2.693143	6.096162	-3.779927	0.526131	-0.868155	-0.181176	-0.084311	-0.184976	-0.844238	0.721191	-0.642578	0.070768	-0.026942	0.061016	-0.097138	-0.189187	0.207808	-0.954771	-23.151838	-23.680259	173.299243
49062		6.756371	-2.740431	6.047196	-3.471314	0.548952	-1.016343	-0.182770	-0.157857	-0.198435	-0.836426	0.718994	-0.646484	0.067489	-0.027416	0.060550	-0.098057	-0.190042	0.208600	-0.954335	-23.230905	-23.805663	173.228878
49063		6.457493	-2.772814	6.015691	-3.179720	0.550759	-1.143073	-0.188416	-0.231246	-0.203914	-0.847412	0.723877	-0.632080	0.064477	-0.027737	0.060258	-0.098931	-0.191251	0.209450	-0.953817	-23.319395	-23.971254	173.173686
49064		5.732977	-6.175484	6.020228	-1.575245	3.500231	-0.194287	-0.031375	-0.323766	-0.198868	-0.846191	0.713135	-0.641602	0.057171	-0.061802	0.060305	-0.099533	-0.192971	0.209600	-0.953375	-23.328115	-24.184195	173.144430
49065		5.480967	-6.713064	8.967499	-0.201749	2.714768	2.357373	1.100730	-0.324843	-0.068660	-0.853027	0.710449	-0.641602	0.054641	-0.067642	0.089392	-0.098419	-0.195122	0.204478	-0.954165	-22.718910	-24.368666	173.189531
49066		4.121946	-2.896222	11.789784	0.968034	-1.955200	2.821259	0.984605	0.017931	0.209669	-0.862061	0.706055	-0.642334	0.041261	-0.029499	0.117750	-0.096439	-0.195288	0.200004	-0.955280	-22.207936	-24.310821	173.312021
49067		1.630422	0.081959	9.413156	1.661078	-3.817590	-1.213919	0.831579	0.020791	0.075584	-0.853760	0.704346	-0.641357	0.016314	0.000434	0.094132	-0.095249	-0.195499	0.196127	-0.956160	-21.752590	-24.281429	173.356206
49068		1.861167	1.635707	11.284616	1.704978	-5.908198	-0.031692	0.570470	-0.142011	-0.270215	-0.855225	0.705322	-0.645996	0.018553	0.016010	0.112905	-0.095806	-0.196698	0.193233	-0.956448	-21.378855	-24.411629	173.235990
49069		3.241224	0.278255	11.714504	0.980318	-4.655399	1.375637	0.273448	-0.061072	-0.497576	-0.865967	0.684814	-0.645996	0.032383	0.002542	0.117159	-0.097821	-0.197588	0.191496	-0.956410	-21.111895	-24.545420	172.963004
49070		3.412310	-2.347307	9.035083	0.625665	-1.138564	0.041173	0.086821	-0.105172	-0.495972	-0.866943	0.684570	-0.650146	0.034017	-0.023597	0.090359	-0.099969	-0.198592	0.190672	-0.956144	-20.955272	-24.701322	172.700056
49071		4.891689	-5.493490	8.193592	-0.118734	2.243695	0.966624	0.107897	-0.282137	-0.347076	-0.869629	0.684326	-0.632568	0.048706	-0.055064	0.081975	-0.101215	-0.200312	0.189984	-0.955791	-20.839104	-24.921148	172.563964
49072		5.993774	-5.115853	7.583752	-1.381553	2.294401	0.790966	0.251128	-0.259695	-0.163449	-0.873047	0.690918	-0.633545	0.059797	-0.051303	0.075851	-0.101461	-0.201819	0.188782	-0.955686	-20.683792	-25.091162	172.530595
49073		4.957157	-2.300414	8.361042	-0.910632	-0.674636	0.111416	0.267811	-0.201872	-0.172505	-0.872070	0.674805	-0.642090	0.049467	-0.023159	0.083629	-0.101787	-0.203069	0.187462	-0.955647	-20.510977	-25.232126	172.478425
49074		4.363013	-2.257020	8.679832	-0.255278	-0.888722	0.117793	0.205530	-0.084540	-0.212981	-0.876465	0.669678	-0.630127	0.043569	-0.022706	0.086793	-0.102480	-0.203762	0.186338	-0.955645	-20.352058	-25.317828	172.375749
49075		4.445743	-2.594155	8.181411	-0.396098	-0.351626	-0.161307	0.200436	-0.075957	-0.198021	-0.877686	0.671387	-0.639893	0.044401	-0.026068	0.081805	-0.103115	-0.204398	0.185249	-0.955652	-20.198905	-25.395927	172.279776
49076		5.408785	-2.462839	8.704497	-1.095790	-0.540848	0.656099	0.160418	-0.039907	-0.161796	-0.877930	0.663086	-0.643311	0.054050	-0.024742	0.087036	-0.103650	-0.204806	0.184369	-0.955677	-20.074236	-25.447044	172.197227
49077		5.076417	-2.195636	8.680912	-0.874760	-0.798743	0.412079	0.088584	0.066664	-0.115231	-0.882813	0.667969	-0.640625	0.050780	-0.022024	0.086782	-0.104135	-0.204626	0.183825	-0.955768	-19.992729	-25.431769	172.119173
49078		4.572824	-2.647811	8.473485	-0.376723	-0.355673	0.159932	0.049499	0.093181	-0.091074	-0.885254	0.664551	-0.637695	0.045756	-0.026520	0.084707	-0.104568	-0.204276	0.183477	-0.955863	-19.937276	-25.397156	172.049799
49079		4.278568	-2.902981	8.424470	-0.067088	-0.132149	0.070792	0.026632	0.118280	-0.073617	-0.894775	0.668457	-0.635498	0.042825	-0.029057	0.084216	-0.104965	-0.203779	0.183245	-0.955970	-19.897218	-25.345824	171.985480
49080		4.101342	-3.081349	8.445310	0.139723	0.007164	0.067565	0.020959	0.126057	-0.081400	-0.886475	0.667725	-0.642090	0.041054	-0.030839	0.084424	-0.105411	-0.203247	0.183026	-0.956076	-19.857706	-25.291516	171.914901
49081		4.162179	-3.102272	8.255819	0.017178	0.116160	-0.061145	0.026657	0.119292	-0.101489	-0.894531	0.657471	-0.636719	0.041655	-0.031055	0.082529	-0.105941	-0.202770	0.182764	-0.956168	-19.810611	-25.244971	171.833890
49082		4.649450	-2.960373	8.556313	-0.358872	-0.059718	0.358808	0.030780	0.090923	-0.112857	-0.890381	0.649170	-0.646729	0.046517	-0.029643	0.085537	-0.106496	-0.202440	0.182485	-0.956230	-19.760853	-25.215604	171.752244
49083		4.404361	-2.967442	8.419928	-0.188945	-0.023895	0.140353	0.016394	0.081011	-0.094779	-0.885986	0.644531	-0.641357	0.044064	-0.029702	0.084179	-0.106970	-0.202135	0.182300	-0.956277	-19.724966	-25.188291	171.683547
49084		4.233059	-3.031288	8.483709	0.000494	-0.007755	0.141244	0.003974	0.071342	-0.079488	-0.889893	0.643066	-0.640137	0.042349	-0.030331	0.084821	-0.107374	-0.201853	0.182193	-0.956312	-19.700909	-25.162944	171.626047
49085		4.466591	-2.973420	8.394484	-0.258847	0.008765	0.146828	-0.004943	0.049066	-0.063382	-0.892334	0.653076	-0.635254	0.044677	-0.029746	0.083935	-0.107690	-0.201660	0.182158	-0.956323	-19.688169	-25.146751	171.582928
49086		4.411584	-3.002816	8.333110	-0.225469	0.054327	0.080033	-0.013037	0.050536	-0.052935	-0.896240	0.650391	-0.635986	0.044129	-0.030034	0.083322	-0.107965	-0.201445	0.182170	-0.956335	-19.682513	-25.127477	171.545718
49087		4.370517	-3.098551	8.254636	-0.191876	0.167961	0.024814	-0.009470	0.039538	-0.037852	-0.886475	0.653564	-0.633789	0.043716	-0.030990	0.082539	-0.108155	-0.201272	0.182188	-0.956347	-19.679717	-25.111494	171.519858
49088		4.464873	-3.043600	8.197233	-0.313497	0.154416	-0.000903	0.002349	0.026531	-0.042255	-0.885254	0.645752	-0.645752	0.044653	-0.030446	0.081966	-0.108342	-0.201170	0.182151	-0.956354	-19.670138	-25.103106	171.494138
49089		4.545828	-2.918268	8.210920	-0.417521	0.047550	0.006858	0.002779	0.024469	-0.038916	-0.899170	0.642334	-0.637207	0.045463	-0.029193	0.082103	-0.108511	-0.201077	0.182116	-0.956361	-19.661431	-25.095458	171.470862
49090		4.599178	-2.840208	8.523420	-0.380892	-0.138461	0.272136	-0.019519	0.021405	-0.022017	-0.897217	0.635742	-0.629395	0.045998	-0.028399	0.085232	-0.108618	-0.200969	0.182207	-0.956355	-19.669966	-25.085928	171.458296
49091		4.374307	-2.773480	8.495644	-0.210152	-0.220929	0.132651	-0.040045	0.019176	0.001124	-0.904785	0.640869	-0.636963	0.043751	-0.027718	0.084958	-0.108634	-0.200842	0.182421	-0.956339	-19.696387	-25.073424	171.459997
49092		4.146986	-3.039804	8.547243	0.083235	-0.034571	0.161537	-0.066445	0.013485	0.006696	-0.889648	0.640869	-0.633301	0.041477	-0.030368	0.085480	-0.108644	-0.200720	0.182769	-0.956297	-19.739770	-25.062626	171.466211
49093		4.253463	-2.777095	8.437442	-0.125755	-0.223019	0.032570	-0.074203	-0.005475	0.001656	-0.904053	0.631348	-0.633301	0.042533	-0.027739	0.084386	-0.108669	-0.200691	0.183159	-0.956225	-19.788118	-25.063309	171.473480
49094		4.376921	-2.972876	8.350983	-0.212091	-0.002448	0.071105	-0.082894	-0.011579	0.013255	-0.892578	0.639404	-0.635986	0.043766	-0.029691	0.083525	-0.108641	-0.200674	0.183606	-0.956146	-19.844846	-25.064738	171.488951
49095		4.447321	-2.993401	8.316161	-0.281519	0.030888	0.077583	-0.073803	-0.026814	0.007556	-0.904541	0.643311	-0.632324	0.044463	-0.029902	0.083179	-0.108617	-0.200742	0.184013	-0.956057	-19.896394	-25.075761	171.504318
49096		4.445138	-3.069515	8.087953	-0.335467	0.182153	-0.094126	-0.065087	-0.035905	0.005663	-0.903564	0.630615	-0.633301	0.044438	-0.030668	0.080897	-0.108586	-0.200858	0.184380	-0.955965	-19.943236	-25.091751	171.520522
49097		4.207003	-3.068574	8.214980	-0.076901	0.092192	-0.087128	-0.054694	-0.035535	0.000280	-0.909912	0.631592	-0.620850	0.042055	-0.030663	0.082166	-0.108570	-0.200985	0.184692	-0.955880	-19.982817	-25.108878	171.533470
49098		3.827907	-3.192136	8.220111	0.301268	0.146026	-0.205360	-0.044736	-0.033091	-0.008441	-0.903076	0.626709	-0.630371	0.038264	-0.031905	0.082215	-0.108588	-0.201112	0.184946	-0.955802	-20.014201	-25.126097	171.540707
49099		4.062230	-3.188774	8.173760	0.076971	0.188204	-0.146302	-0.035909	-0.027482	-0.029084	-0.906250	0.627441	-0.630371	0.040606	-0.031879	0.081749	-0.108701	-0.201238	0.185135	-0.955726	-20.034881	-25.144635	171.534473
49100		4.147485	-2.939639	8.394478	0.008830	-0.117623	0.000389	-0.032659	-0.021743	-0.036102	-0.910400	0.619629	-0.634277	0.041460	-0.029390	0.083954	-0.108849	-0.201342	0.185297	-0.955656	-20.051319	-25.161172	171.522817
49101		4.484810	-2.798245	8.327853	-0.353742	-0.177609	0.043283	-0.043678	-0.017956	-0.043820	-0.909912	0.624756	-0.618896	0.044834	-0.027974	0.083289	-0.109049	-0.201432	0.185503	-0.955574	-20.071847	-25.177482	171.505763
49102		4.313093	-2.844821	8.285182	-0.199763	-0.144832	-0.051584	-0.050621	-0.009035	-0.047341	-0.911865	0.619629	-0.620850	0.043120	-0.028437	0.082861	-0.109281	-0.201476	0.185733	-0.955494	-20.094556	-25.189399	171.484671
49103		4.234937	-3.164344	8.316901	-0.026700	0.118505	0.041442	-0.045540	-0.006030	-0.052648	-0.912842	0.619385	-0.623535	0.042339	-0.031636	0.083177	-0.109536	-0.201516	0.185933	-0.955417	-20.112802	-25.201048	171.459780
49104		4.325945	-3.074526	8.319911	-0.130647	0.045615	0.054850	-0.034100	-0.010334	-0.060404	-0.914063	0.615234	-0.617188	0.043246	-0.030744	0.083207	-0.109813	-0.201587	0.186071	-0.955344	-20.122851	-25.216249	171.431207
49105		4.287204	-3.303534	8.323718	-0.027010	0.244993	0.112885	-0.024844	-0.008308	-0.058917	-0.913574	0.614990	-0.620605	0.042859	-0.033038	0.083243	-0.110075	-0.201655	0.186166	-0.955281	-20.127852	-25.230370	171.403084
49106		4.075742	-3.360815	8.162489	0.125859	0.332480	-0.096382	-0.013032	-0.009577	-0.077600	-0.916016	0.614014	-0.621338	0.040740	-0.033619	0.081629	-0.110413	-0.201751	0.186186	-0.955217	-20.121381	-25.248557	171.364113
49107		4.547273	-3.173279	8.127626	-0.356907	0.242950	0.016824	0.026705	-0.021044	-0.093789	-0.926758	0.609375	-0.611328	0.045449	-0.031765	0.081277	-0.110778	-0.201940	0.186007	-0.955170	-20.089161	-25.276389	171.318004
49108		4.824445	-2.925831	8.132503	-0.667672	0.059599	0.062737	0.042597	-0.035459	-0.094090	-0.917480	0.597412	-0.612061	0.048216	-0.029298	0.081327	-0.111114	-0.202205	0.185759	-0.955123	-20.048978	-25.311713	171.274809
49109		4.220680	-3.238083	8.285603	0.022088	0.203530	0.031530	0.041340	-0.053572	-0.087331	-0.924561	0.597412	-0.610596	0.042170	-0.032416	0.082861	-0.111403	-0.202552	0.185535	-0.955060	-20.012961	-25.355745	171.239543
49110		4.024312	-3.385552	8.427068	0.298527	0.258655	0.112860	0.057731	-0.074570	-0.100523	-0.933594	0.599121	-0.607910	0.040195	-0.033900	0.084276	-0.111718	-0.203018	0.185230	-0.954983	-19.966000	-25.413334	171.200906
49111		4.063534	-3.283076	8.375358	0.228495	0.198118	0.053722	0.074948	-0.097135	-0.114192	-0.932373	0.597656	-0.602295	0.040576	-0.032885	0.083761	-0.112061	-0.203617	0.184842	-0.954891	-19.907785	-25.486022	171.158931
49112		4.547523	-3.143307	8.352403	-0.236789	0.155358	0.199443	0.085298	-0.110286	-0.128761	-0.933838	0.585938	-0.596191	0.045409	-0.031498	0.083536	-0.112450	-0.204295	0.184396	-0.954786	-19.840924	-25.568286	171.110968
49113		4.441751	-3.120150	8.349639	-0.134150	0.128927	0.144537	0.085361	-0.113211	-0.130735	-0.943848	0.578857	-0.594971	0.044350	-0.031266	0.083508	-0.112846	-0.204991	0.183951	-0.954676	-19.773758	-25.652767	171.062327
49114		4.728042	-2.963772	8.170932	-0.480601	0.106356	0.069627	0.081857	-0.120300	-0.138075	-0.932129	0.580322	-0.601563	0.047211	-0.029704	0.081726	-0.113274	-0.205723	0.183517	-0.954552	-19.707134	-25.742132	171.010660
49115		4.712940	-2.816090	8.256137	-0.463474	-0.055769	0.091252	0.076737	-0.120143	-0.137325	-0.944824	0.578613	-0.594971	0.047060	-0.028225	0.082579	-0.113704	-0.206453	0.183109	-0.954421	-19.643579	-25.831529	170.959269
49116		4.515538	-2.820318	8.342583	-0.239593	-0.107347	0.080443	0.066542	-0.126071	-0.126715	-0.937988	0.578613	-0.588135	0.045085	-0.028260	0.083445	-0.114087	-0.207193	0.182763	-0.954281	-19.588968	-25.921724	170.915356
49117		4.248709	-3.073855	8.339235	0.087429	0.091773	0.037534	0.059598	-0.126744	-0.132205	-0.955566	0.575928	-0.586426	0.042414	-0.030791	0.083410	-0.114504	-0.207940	0.182446	-0.954130	-19.536927	-26.013619	170.868175
49118		4.768644	-2.990989	8.150378	-0.447948	0.171518	0.080974	0.063522	-0.129508	-0.148874	-0.943604	0.569580	-0.580811	0.047611	-0.029971	0.081525	-0.114993	-0.208714	0.182094	-0.953969	-19.478273	-26.109834	170.811412
49119		4.664615	-2.708724	8.268815	-0.379303	-0.139534	0.051680	0.064280	-0.121346	-0.153905	-0.947266	0.561523	-0.579590	0.046575	-0.027150	0.082708	-0.115514	-0.209458	0.181728	-0.953813	-19.417024	-26.202871	170.749742
49120		4.338965	-3.218088	8.145689	0.033223	0.331520	-0.044171	0.067786	-0.114464	-0.162219	-0.947021	0.548828	-0.578613	0.043317	-0.032244	0.081471	-0.116075	-0.210175	0.181332	-0.953662	-19.350652	-26.293382	170.681425
49121		4.143394	-3.080835	8.256764	0.222577	0.143877	-0.078052	0.092087	-0.103500	-0.192482	-0.952881	0.552734	-0.569580	0.041362	-0.030886	0.082575	-0.116766	-0.210883	0.180782	-0.953526	-19.261138	-26.383944	170.592353
49122		4.138251	-3.073239	8.344224	0.274497	0.113801	-0.009237	0.117446	-0.108776	-0.204429	-0.956787	0.544678	-0.571289	0.041306	-0.030824	0.083447	-0.117482	-0.211640	0.180101	-0.953399	-19.154045	-26.479146	170.496916
49123		4.103786	-3.178518	8.212003	0.307557	0.269988	-0.106324	0.121170	-0.098268	-0.221152	-0.958984	0.549805	-0.563477	0.040962	-0.031880	0.082121	-0.118283	-0.212366	0.179379	-0.953275	-19.039144	-26.571951	170.388888
49124		4.769940	-2.838552	8.208754	-0.364333	0.078015	0.089558	0.141975	-0.102473	-0.233502	-0.953125	0.538574	-0.559082	0.047624	-0.028499	0.082092	-0.119117	-0.213132	0.178546	-0.953156	-18.908967	-26.668805	170.273927
49125		4.658024	-2.609685	8.214641	-0.313666	-0.131353	-0.021248	0.146976	-0.091573	-0.233757	-0.953857	0.530518	-0.554688	0.046512	-0.026212	0.082148	-0.119956	-0.213852	0.177683	-0.953051	-18.774615	-26.759883	170.156223
49126		4.760500	-2.605225	8.225074	-0.382782	-0.106442	0.033301	0.139558	-0.095203	-0.221847	-0.963135	0.529541	-0.549561	0.047537	-0.026162	0.082255	-0.120743	-0.214571	0.176869	-0.952942	-18.647703	-26.850176	170.046168
49127		4.473858	-2.610694	8.330131	-0.072702	-0.170640	-0.005152	0.124627	-0.091134	-0.212209	-0.972168	0.521729	-0.549072	0.044673	-0.026206	0.083305	-0.121503	-0.215256	0.176135	-0.952827	-18.531430	-26.936624	169.940860
49128		4.632569	-2.665976	8.333308	-0.176143	-0.081898	0.085512	0.127877	-0.096761	-0.205081	-0.962891	0.510986	-0.548340	0.046258	-0.026760	0.083338	-0.122221	-0.215960	0.175395	-0.952712	-18.415426	-27.024312	169.840755
49129		4.312779	-2.738278	8.445484	0.185730	-0.094943	0.055488	0.127977	-0.092529	-0.204474	-0.966064	0.508789	-0.547363	0.043061	-0.027481	0.084457	-0.122939	-0.216645	0.174653	-0.952600	-18.298970	-27.109743	169.739899
49130		4.810453	-2.596634	8.292584	-0.332238	-0.070736	0.113766	0.128306	-0.107920	-0.210312	-0.967285	0.510254	-0.537354	0.048032	-0.026070	0.082935	-0.123671	-0.217407	0.173912	-0.952468	-18.181757	-27.204077	169.638287
49131		4.653742	-2.623731	8.309134	-0.160460	-0.062878	0.064217	0.132020	-0.129142	-0.202437	-0.964111	0.500977	-0.526611	0.046457	-0.026339	0.083104	-0.124343	-0.218267	0.173175	-0.952318	-18.066360	-27.308717	169.545459
49132		4.398348	-2.719932	8.498477	0.184911	-0.075518	0.133551	0.127582	-0.144111	-0.204762	-0.965576	0.504883	-0.529785	0.043894	-0.027299	0.084999	-0.125017	-0.219194	0.172465	-0.952145	-17.953835	-27.421425	169.453854
49133		4.801464	-2.701900	8.234455	-0.247751	0.088620	0.091416	0.141370	-0.165037	-0.211600	-0.971436	0.496094	-0.519531	0.047918	-0.027128	0.082365	-0.125691	-0.220238	0.171695	-0.951955	-17.833132	-27.546915	169.361852
49134		4.707035	-2.634462	8.370613	-0.109511	-0.026423	0.144770	0.139793	-0.193741	-0.208109	-0.971924	0.490723	-0.517334	0.046962	-0.026452	0.083733	-0.126325	-0.221412	0.170953	-0.951732	-17.716500	-27.686951	169.277253
49135		4.714211	-2.566916	8.459049	-0.074800	-0.107651	0.204851	0.144935	-0.228440	-0.201881	-0.965820	0.486816	-0.516113	0.047019	-0.025778	0.084626	-0.126894	-0.222750	0.170217	-0.951476	-17.601569	-27.845037	169.202887
49136		4.572669	-2.584651	8.579947	0.132271	-0.150352	0.245394	0.117328	-0.274057	-0.212320	-0.973389	0.493896	-0.503418	0.045582	-0.025945	0.085847	-0.127503	-0.224294	0.169627	-0.951137	-17.503124	-28.029384	169.130527
49137		4.589471	-2.421815	8.565920	0.097177	-0.283053	0.197993	0.104088	-0.326210	-0.208674	-0.967773	0.480225	-0.493652	0.045730	-0.024311	0.085721	-0.128066	-0.226076	0.169138	-0.950727	-17.417759	-28.241843	169.070136
49138		4.562364	-2.504766	8.597440	0.200424	-0.219705	0.233028	0.089206	-0.378110	-0.206029	-0.978027	0.471924	-0.485840	0.045435	-0.025133	0.086049	-0.128589	-0.228089	0.168755	-0.950243	-17.345994	-28.481818	169.021016
49139		4.633815	-2.374883	8.524054	0.113333	-0.297300	0.170818	0.064317	-0.423671	-0.195090	-0.974854	0.467285	-0.481445	0.046134	-0.023821	0.085331	-0.129048	-0.230295	0.168531	-0.949688	-17.295676	-28.745134	168.987163
49140		4.856065	-2.317529	8.448376	-0.076860	-0.285577	0.199289	0.062549	-0.484130	-0.204717	-0.969727	0.464600	-0.476318	0.048332	-0.023251	0.084594	-0.129504	-0.232791	0.168342	-0.949051	-17.248759	-29.042808	168.958688
49141		4.335161	-2.575501	8.623465	0.578251	-0.208551	0.157911	0.057615	-0.537144	-0.207283	-0.973877	0.466797	-0.469971	0.043093	-0.025825	0.086343	-0.129932	-0.235538	0.168207	-0.948338	-17.208671	-29.370241	168.938574
49142		4.452601	-2.655849	8.529903	0.525681	-0.086120	0.154978	0.052908	-0.588919	-0.211174	-0.972168	0.458008	-0.453125	0.044247	-0.026628	0.085423	-0.130339	-0.238527	0.168121	-0.947550	-17.174723	-29.726330	168.925772
49143		4.829627	-2.581405	8.456454	0.215249	-0.070250	0.259496	0.057153	-0.647408	-0.228953	-0.976563	0.460693	-0.452637	0.047993	-0.025893	0.084713	-0.130776	-0.241810	0.168031	-0.946674	-17.138269	-30.117754	168.912853
49144		4.842583	-2.640149	8.304650	0.230969	0.035032	0.153916	0.055401	-0.687848	-0.240867	-0.982666	0.451904	-0.442871	0.048108	-0.026483	0.083205	-0.131234	-0.245288	0.167959	-0.945728	-17.102683	-30.533008	168.899933
49145		4.976482	-2.657032	8.259103	0.178870	0.081003	0.187258	0.058787	-0.736228	-0.257093	-0.982910	0.454834	-0.428223	0.049426	-0.026658	0.082766	-0.131723	-0.249009	0.167880	-0.944701	-17.064504	-30.977793	168.885789
49146		5.315048	-2.542867	8.058798	-0.149839	0.100700	0.168644	0.065678	-0.776083	-0.280544	-0.984131	0.447998	-0.425049	0.052801	-0.025529	0.080785	-0.132279	-0.252937	0.167763	-0.943600	-17.018256	-31.448029	168.863988
49147		5.240353	-2.511902	8.183986	0.040257	0.002774	0.224559	0.065626	-0.810352	-0.289832	-0.989990	0.452637	-0.409912	0.052035	-0.025221	0.082043	-0.132847	-0.257032	0.167655	-0.942432	-16.972054	-31.938892	168.842405
49148		5.061969	-2.515591	8.113701	0.245814	-0.006320	0.072794	0.066425	-0.845409	-0.297127	-0.986572	0.438477	-0.394043	0.050239	-0.025258	0.081342	-0.133417	-0.261291	0.167553	-0.941198	-16.926027	-32.449862	168.822420
49149		5.684893	-2.213046	7.983058	-0.340137	-0.139938	0.227670	0.066557	-0.886991	-0.307265	-0.993408	0.446289	-0.384277	0.056460	-0.022244	0.080074	-0.133996	-0.265751	0.167461	-0.939882	-16.880391	-32.985610	168.803475
49150		5.756602	-2.222106	8.047465	-0.270842	-0.157328	0.323336	0.057904	-0.928726	-0.320945	-0.995605	0.434326	-0.382324	0.057156	-0.022336	0.080734	-0.134614	-0.270405	0.167416	-0.938473	-16.838791	-33.546196	168.783233
49151		5.357097	-2.310807	7.987826	0.158444	-0.132031	0.076715	0.063598	-0.979178	-0.329863	-0.998535	0.429199	-0.365967	0.053141	-0.023221	0.080132	-0.135220	-0.275303	0.167363	-0.936971	-16.795795	-34.136232	168.766550
49152		5.465848	-2.417732	8.168683	0.297619	-0.102209	0.304044	0.075025	-1.046014	-0.329824	-0.998779	0.428467	-0.353271	0.054190	-0.024298	0.081962	-0.135750	-0.280511	0.167295	-0.935360	-16.753270	-34.762602	168.762630
49153		5.252090	-2.391068	8.133289	0.555124	-0.162114	0.143040	0.090052	-1.096943	-0.338415	-0.996338	0.432861	-0.337891	0.052033	-0.024036	0.081608	-0.136252	-0.285968	0.167176	-0.933654	-16.704379	-35.418638	168.762585
49154		5.689158	-2.316946	8.240523	0.349842	-0.218086	0.457159	0.082328	-1.149669	-0.351293	-1.004395	0.425781	-0.334961	0.056376	-0.023303	0.082721	-0.136777	-0.291664	0.167103	-0.931826	-16.660628	-36.105424	168.763850
49155		5.540412	-2.591026	7.728749	0.431581	0.188581	0.032110	0.057374	-1.202068	-0.371924	-1.009766	0.417236	-0.312744	0.054890	-0.026035	0.077611	-0.137385	-0.297596	0.167147	-0.929851	-16.628901	-36.824655	168.761189
49156		5.884319	-2.492400	7.978697	0.382303	0.035317	0.402394	0.084354	-1.280962	-0.408557	-1.010254	0.411621	-0.298584	0.058279	-0.025077	0.080151	-0.138052	-0.303930	0.167057	-0.927718	-16.575745	-37.592906	168.748780
49157		5.721024	-2.800629	8.579282	1.075287	0.032884	0.818322	0.107667	-1.395565	-0.432570	-1.014893	0.409424	-0.283203	0.056549	-0.028175	0.086174	-0.138692	-0.310818	0.166895	-0.925366	-16.512773	-38.428293	168.742260
49158		5.350605	-3.602392	7.742486	1.360607	1.013572	0.120673	0.126763	-1.498485	-0.489209	-1.003662	0.408691	-0.272949	0.052836	-0.036203	0.077800	-0.139471	-0.318222	0.166617	-0.922779	-16.426176	-39.329138	168.715741
49159		6.361903	-3.016239	7.783549	0.570787	0.603288	0.649751	0.198393	-1.635631	-0.579256	-1.020752	0.406982	-0.253906	0.062892	-0.030423	0.078322	-0.140427	-0.326365	0.165950	-0.919906	-16.273649	-40.320119	168.650787
49160		6.356198	-2.519080	8.451019	0.954657	-0.126905	1.014859	0.207057	-1.756118	-0.655161	-1.023926	0.395508	-0.234619	0.062734	-0.025485	0.085037	-0.141607	-0.335102	0.165189	-0.916715	-16.092548	-41.389114	168.551206
49161		5.651939	-2.842778	8.298335	1.709447	0.107522	0.480553	0.204626	-1.853793	-0.703585	-1.031982	0.381104	-0.214844	0.055647	-0.028710	0.083473	-0.142919	-0.344295	0.164413	-0.913238	-15.897100	-42.519538	168.430118
49162		6.145767	-2.883424	7.572702	1.153978	0.491577	0.279550	0.211841	-1.963955	-0.748313	-1.027344	0.379883	-0.197021	0.060602	-0.029143	0.076294	-0.144317	-0.353995	0.163588	-0.909450	-15.683255	-43.717104	168.290925
49163		6.736777	-1.975901	7.354925	0.482600	-0.169946	0.341972	0.290530	-2.095395	-0.782660	-1.029053	0.375732	-0.175049	0.066514	-0.020128	0.074220	-0.145607	-0.364337	0.162421	-0.905360	-15.416540	-44.992269	168.143586
49164		6.287414	-2.026797	7.280907	0.997521	-0.173845	-0.034074	0.298926	-2.224012	-0.782856	-1.030029	0.379150	-0.160400	0.061979	-0.020621	0.073471	-0.146759	-0.375217	0.161286	-0.900922	-15.153808	-46.337841	168.011991
49165		6.579141	-2.173154	7.232141	1.066744	0.004223	0.145641	0.349445	-2.360307	-0.811168	-1.033691	0.365234	-0.133545	0.064843	-0.022123	0.073052	-0.147812	-0.386717	0.159947	-0.896113	-14.855398	-47.762763	167.874092
49166		6.762570	-2.070813	6.948284	0.979210	0.037058	0.053072	0.404119	-2.495981	-0.877306	-1.030029	0.360840	-0.099121	0.066660	-0.021143	0.070276	-0.148922	-0.398851	0.158308	-0.890887	-14.491696	-49.271729	167.694138
49167		6.718335	-2.506112	7.459170	1.791680	0.208997	0.375294	0.426643	-2.622358	-0.970120	-1.037354	0.334961	-0.088867	0.066075	-0.025544	0.075409	-0.150272	-0.411564	0.156449	-0.885188	-14.054812	-50.863277	167.439623
49168		7.407194	-3.250243	6.778867	1.495620	1.244351	0.559880	0.456900	-2.738300	-1.139362	-1.044922	0.335938	-0.057617	0.072948	-0.033076	0.068717	-0.152186	-0.424856	0.154160	-0.878960	-13.471528	-52.540740	167.026619
49169		6.849453	-4.511678	7.179187	2.924500	2.157386	0.463235	0.570522	-2.808392	-1.303114	-1.033936	0.333984	-0.025146	0.067182	-0.045764	0.072611	-0.154489	-0.438571	0.151043	-0.872339	-12.664436	-54.275450	166.425174
49170		7.144546	-4.205660	6.882702	2.751201	2.062456	0.398597	0.671819	-2.906728	-1.534320	-1.027832	0.322510	0.000000	0.070110	-0.042831	0.069709	-0.157463	-0.452850	0.147011	-0.865170	-11.555615	-56.086695	165.540300
49171		7.909330	-3.678105	7.345924	2.825914	1.547861	1.125942	0.751123	-2.981454	-1.716546	-1.026611	0.297119	0.023193	0.077667	-0.037730	0.074484	-0.160944	-0.467516	0.142242	-0.857492	-10.142744	-57.948206	164.365882
49172		8.481639	-2.878643	7.026822	2.361602	1.082257	1.270517	0.665509	-3.129442	-1.950497	-1.017090	0.280273	0.057617	0.083417	-0.029841	0.071483	-0.165470	-0.482759	0.137363	-0.848937	-8.422022	-59.896836	162.799178
49173		9.299133	-3.060307	8.415528	3.560880	0.872890	2.564650	0.434807	-3.180415	-2.074978	-1.022217	0.264160	0.084473	0.091313	-0.031741	0.085548	-0.170987	-0.497941	0.133158	-0.839694	-6.493331	-61.857072	160.873657
49174		8.131570	-2.874125	7.099605	3.410476	1.083545	0.768663	0.334397	-3.339750	-2.282291	-1.010254	0.251953	0.106934	0.079780	-0.029778	0.072288	-0.177453	-0.513651	0.128941	-0.829486	-4.117969	-63.882753	158.417392
49175		10.172505	-2.230104	8.182819	3.649371	0.441733	2.910269	0.166521	-3.442504	-2.429746	-1.003418	0.222900	0.146484	0.100015	-0.023592	0.083540	-0.184818	-0.529514	0.125080	-0.818421	-1.265080	-65.918250	155.369853
49176		9.384072	-0.956221	7.638562	3.438223	-0.592779	1.811855	-0.097468	-3.478030	-2.457395	-0.988281	0.203613	0.178955	0.092367	-0.010665	0.078006	-0.192891	-0.545058	0.122200	-0.806704	1.997811	-67.902400	151.759910
49177		9.713339	-2.876270	7.915283	4.900965	1.072484	2.022803	-0.331552	-3.572741	-2.515348	-0.982666	0.178223	0.200439	0.095328	-0.029836	0.080915	-0.201686	-0.560540	0.120144	-0.794156	5.877478	-69.846743	147.394876
49178		10.882177	-4.170664	8.174688	5.903076	2.315400	2.931037	-0.257164	-3.563814	-2.543418	-0.971680	0.148926	0.237793	0.106801	-0.042967	0.083717	-0.210295	-0.575810	0.117644	-0.781267	10.687715	-71.659471	142.141987
49179		11.810872	-2.837782	7.398798	4.957748	1.648081	3.414775	-0.149831	-3.457226	-2.624469	-0.951660	0.133789	0.258057	0.116421	-0.029857	0.076032	-0.218872	-0.590549	0.114327	-0.768294	16.685368	-73.231263	135.759498
49180		13.567083	-3.471864	7.736221	5.757380	2.435100	4.913434	-0.334052	-3.069919	-2.575970	-0.939453	0.118652	0.273926	0.134001	-0.036320	0.079487	-0.227935	-0.603315	0.111385	-0.756075	23.327050	-74.382513	128.642384
49181		8.362025	-1.406085	7.526922	5.908813	-0.351541	-0.142821	-0.475291	-2.573211	-2.551649	-0.919922	0.090332	0.297119	0.082456	-0.014937	0.076370	-0.237522	-0.613805	0.108445	-0.745027	30.243416	-75.043017	121.187798
49182		9.697254	2.373430	13.797582	9.551289	-6.156790	2.872162	-0.920319	-1.557963	-2.546792	-0.919434	0.058105	0.299805	0.096192	0.023143	0.138620	-0.248942	-0.619808	0.105938	-0.736643	36.089505	-74.994211	114.587823
49183		18.428933	-4.894333	20.811758	18.267637	-1.092181	11.676930	-1.907608	1.479808	-2.086015	-0.925293	0.046387	0.274902	0.185315	-0.048893	0.207215	-0.263269	-0.612992	0.104692	-0.737543	36.612183	-73.605352	112.906561
49184		6.472294	-11.113760	13.093113	16.099304	4.727036	-2.376534	-2.011498	3.220878	-1.611005	-0.938721	0.027100	0.239258	0.065941	-0.110348	0.130988	-0.276986	-0.599166	0.102954	-0.744096	34.419780	-71.569514	113.993289
49185		0.911073	-10.324337	7.244661	11.470132	5.227105	-8.804409	-1.429334	3.678443	-1.038999	-0.954102	0.013672	0.197998	0.009915	-0.102773	0.073005	-0.286948	-0.583891	0.100091	-0.752804	31.739067	-69.480489	115.964244
49186		0.031756	-8.539265	5.539479	9.241709	4.260365	-9.606482	-1.116729	3.589314	-0.334119	-0.965332	0.010986	0.168457	0.001175	-0.085083	0.055855	-0.293191	-0.568828	0.098194	-0.762123	28.864479	-67.610067	118.362055
49187		-0.087805	-8.238224	4.921668	8.602780	4.249849	-9.653014	-1.000227	3.356111	0.486779	-0.977783	0.007568	0.115967	0.000153	-0.082135	0.049631	-0.295760	-0.554223	0.098503	-0.771790	25.638098	-66.029386	121.244289
49188		0.284237	-8.418253	4.741947	8.466160	4.618604	-9.164200	-0.818018	3.129855	1.285462	-0.988770	0.020996	0.083984	0.004128	-0.083964	0.047705	-0.294542	-0.540203	0.100620	-0.781857	22.104976	-64.688608	124.612333
49189		1.347571	-7.796169	5.428967	8.320262	4.208287	-7.548904	-0.606577	3.040563	1.961885	-1.009277	0.046875	0.033936	0.015064	-0.077654	0.054305	-0.289967	-0.526321	0.103845	-0.792541	18.332909	-63.442452	128.415897
49190		2.134129	-6.400983	6.067929	7.657508	3.120678	-6.076378	-0.436775	3.122630	2.488091	-1.021484	0.066406	0.009033	0.023079	-0.063598	0.060467	-0.282797	-0.511902	0.107615	-0.803991	14.428272	-62.128113	132.521492
49191		2.299099	-4.384340	6.539175	6.630866	1.382203	-5.188878	-0.421093	3.303783	2.827914	-1.043701	0.099121	-0.031006	0.024683	-0.043365	0.065085	-0.274191	-0.496356	0.111899	-0.816045	10.521786	-60.628739	136.691939
49192		2.308269	-2.615294	6.710107	5.549822	-0.096742	-4.677104	-0.572387	3.456550	2.972149	-1.047852	0.117188	-0.072998	0.024622	-0.025603	0.066758	-0.265322	-0.479659	0.116881	-0.828173	6.779839	-58.926266	140.638967
49193		2.417528	-1.419452	6.864807	4.725874	-1.094781	-4.205200	-0.817536	3.526259	2.943938	-1.064941	0.155273	-0.114990	0.025584	-0.013545	0.068262	-0.257053	-0.462095	0.122666	-0.839848	3.323537	-57.060218	144.157186
49194		2.430332	-1.188697	6.866689	4.347297	-1.275127	-3.987087	-1.024627	3.519443	2.828297	-1.066650	0.186035	-0.163818	0.025669	-0.011180	0.068282	-0.249608	-0.444126	0.128986	-0.850771	0.224333	-55.093872	147.180610
49195		3.120138	-1.365926	7.338510	4.161121	-1.124786	-2.966912	-1.121736	3.456940	2.687706	-1.063965	0.219482	-0.204102	0.032640	-0.012817	0.072903	-0.242802	-0.426145	0.135426	-0.860876	-2.502954	-53.080444	149.749110
49196		4.016289	-1.445920	8.050709	3.890504	-1.115514	-1.649213	-1.126948	3.389013	2.634264	-1.068115	0.244629	-0.243652	0.041702	-0.013465	0.079887	-0.236072	-0.408286	0.141780	-0.870328	-4.928916	-51.043745	152.002401
49197		5.247400	-1.448692	8.888062	3.361949	-1.146130	-0.014787	-1.096154	3.358369	2.698115	-1.065674	0.283447	-0.281982	0.054142	-0.013280	0.088056	-0.228859	-0.390334	0.148105	-0.879391	-7.159285	-48.964423	154.088427
49198		6.333806	-1.732902	9.220529	2.623178	-0.781471	1.170301	-1.061633	3.366662	2.846384	-1.059082	0.325684	-0.324951	0.065112	-0.015925	0.091206	-0.220821	-0.372093	0.154474	-0.888213	-9.257359	-46.820856	156.092356
49199		7.309750	-1.813710	9.466325	1.693557	-0.608574	2.148527	-0.960219	3.368801	3.034007	-1.055176	0.370361	-0.371094	0.074938	-0.016559	0.093493	-0.211642	-0.353596	0.160667	-0.896863	-11.219824	-44.608846	158.059290
49200		7.773198	-1.200474	9.506835	0.573582	-1.106493	2.461905	-0.874867	3.316492	3.201558	-1.030273	0.408936	-0.390625	0.079469	-0.010330	0.093808	-0.201408	-0.335114	0.166732	-0.905171	-13.050872	-42.363622	159.987119
49201		8.415056	-0.085905	9.864464	-0.751621	-2.162377	2.949036	-0.858969	3.264692	3.262710	-1.012451	0.458252	-0.430908	0.085740	0.000951	0.097252	-0.190712	-0.316629	0.172796	-0.912971	-14.748451	-40.094809	161.809805
49202		8.718820	0.758822	10.119460	-1.767488	-3.050835	3.092338	-0.898863	3.243464	3.142580	-0.997803	0.485107	-0.474854	0.088675	0.009424	0.099725	-0.180510	-0.298151	0.178769	-0.920089	-16.271324	-37.820581	163.407993
49203		8.988290	1.303371	10.425696	-2.594582	-3.713673	3.250017	-0.940070	3.256775	2.846092	-0.976563	0.537109	-0.491455	0.091362	0.014812	0.102710	-0.171649	-0.279670	0.184395	-0.926456	-17.575399	-35.556535	164.682612
49204		9.418484	1.339892	10.660721	-3.370518	-3.853847	3.525810	-0.973367	3.261516	2.443855	-0.947510	0.564697	-0.518555	0.095728	0.015076	0.104984	-0.164625	-0.261396	0.189514	-0.932017	-18.653508	-33.342943	165.597519
49205		10.199198	0.759839	10.570667	-4.339158	-3.217233	3.867010	-0.986848	3.269413	2.061738	-0.926270	0.580566	-0.552734	0.103612	0.009177	0.103979	-0.159334	-0.243309	0.194118	-0.936873	-19.543507	-31.182046	166.198705
49206		10.701987	0.048002	9.959434	-5.241462	-2.268799	3.643893	-0.963929	3.215485	1.775846	-0.902344	0.611816	-0.580322	0.108590	0.001914	0.097850	-0.155245	-0.225695	0.198229	-0.941098	-20.292270	-29.101037	166.584445
49207		10.868935	-0.389050	8.962210	-6.059780	-1.441935	2.827933	-0.956080	3.031097	1.605117	-0.881836	0.631348	-0.604248	0.110055	-0.002588	0.087975	-0.151712	-0.209030	0.202191	-0.944674	-20.979053	-27.147379	166.871850
49208		11.250895	-0.617768	8.036843	-7.032126	-0.785660	2.081440	-0.955467	2.701762	1.516882	-0.858398	0.651611	-0.624023	0.113622	-0.004940	0.078864	-0.148221	-0.193967	0.206244	-0.947560	-21.653348	-25.386993	167.152292
49209		12.169880	-0.755653	7.626198	-8.278156	-0.344481	1.942100	-0.911738	2.306557	1.474081	-0.833496	0.669922	-0.642334	0.122617	-0.006312	0.074882	-0.144445	-0.180790	0.210298	-0.949856	-22.313480	-23.841120	167.474803
49210		14.074946	-0.776785	7.425079	-10.350660	0.075418	2.298602	-0.789063	1.976819	1.466667	-0.806396	0.687744	-0.645508	0.141525	-0.006443	0.072882	-0.140222	-0.169258	0.213955	-0.951795	-22.915715	-22.469972	167.849696
49211		14.818443	-0.533208	6.916738	-11.527652	0.160570	1.797085	-0.606583	1.770832	1.442918	-0.796143	0.691406	-0.657227	0.148821	-0.004053	0.067865	-0.135713	-0.158819	0.216840	-0.953593	-23.413108	-21.207842	168.243554
49212		15.112842	0.312890	6.403449	-12.444465	-0.364196	0.887431	-0.428626	1.573457	1.378552	-0.768799	0.708252	-0.666260	0.151599	0.004308	0.062835	-0.131141	-0.149505	0.218927	-0.955260	-23.799670	-20.062917	168.635924
49213		15.212948	0.705860	5.794421	-13.000202	-0.488241	-0.001688	-0.284376	1.371570	1.308934	-0.757080	0.725586	-0.661621	0.152471	0.008137	0.056888	-0.126556	-0.141299	0.220386	-0.956790	-24.097571	-19.036440	169.029577
49214		15.044025	0.563005	5.197659	-13.090506	-0.198688	-0.743590	-0.127244	1.190493	1.220323	-0.737549	0.731445	-0.676270	0.150708	0.006582	0.051076	-0.122077	-0.134156	0.221124	-0.958229	-24.295068	-18.125098	169.412148
49215		14.741118	0.475901	4.648517	-13.025172	0.002221	-1.477440	0.045358	1.016066	1.137265	-0.726563	0.733887	-0.685303	0.147615	0.005588	0.045737	-0.117678	-0.128029	0.221074	-0.959628	-24.386716	-17.322574	169.788233
49216		14.036703	0.351737	4.061875	-12.545550	0.188142	-2.314523	0.182935	0.829374	1.075174	-0.718506	0.743896	-0.693848	0.140512	0.004236	0.040040	-0.113277	-0.122948	0.220419	-0.960972	-24.397311	-16.632783	170.174282
49217		13.507969	0.063478	3.503036	-12.152332	0.534791	-2.973583	0.279561	0.613689	1.032676	-0.706543	0.745605	-0.691406	0.135181	0.001284	0.034617	-0.108777	-0.118995	0.219389	-0.962224	-24.357043	-16.065105	170.589340
49218		12.830970	-0.117391	2.972168	-11.620426	0.746205	-3.657300	0.333590	0.379013	1.019795	-0.691162	0.744629	-0.693115	0.128370	-0.000569	0.029477	-0.104048	-0.116216	0.218209	-0.963355	-24.295568	-15.623937	171.054407
49219		12.030645	-0.225542	2.660476	-10.931903	0.770821	-4.176765	0.370325	0.120189	1.038323	-0.691162	0.746826	-0.701660	0.120332	-0.001680	0.026529	-0.098921	-0.114676	0.216993	-0.964354	-24.229920	-15.313834	171.592429
49220		11.295977	-0.276298	2.701464	-10.241524	0.594725	-4.360182	0.384968	-0.119108	1.059643	-0.688721	0.750244	-0.697510	0.112956	-0.002217	0.027077	-0.093421	-0.114272	0.215826	-0.965212	-24.171506	-15.124608	172.199920
49221		10.600337	-0.266203	2.954703	-9.549970	0.277787	-4.345677	0.401000	-0.329153	1.082511	-0.683350	0.765137	-0.697510	0.105967	-0.002148	0.029717	-0.087571	-0.114861	0.214690	-0.965943	-24.119275	-15.040439	172.870598
49222		12.539528	0.391245	2.198090	-11.691492	0.133384	-4.761529	0.431719	-0.646471	0.888715	-0.685791	0.767090	-0.697998	0.125304	0.004421	0.022395	-0.082296	-0.117201	0.213422	-0.966407	-24.042063	-15.168265	173.513255
49223		8.272158	2.749526	-4.888637	-9.470986	0.498107	-12.964923	0.673781	-1.759101	0.193751	-0.692383	0.763916	-0.684082	0.083120	0.027739	-0.048063	-0.079046	-0.125752	0.211024	-0.966130	-23.802733	-16.042330	174.047591
49224		8.909656	-2.116758	10.617515	-5.725221	-1.749125	2.866029	0.739474	-1.964284	-0.265084	-0.713867	0.760010	-0.686768	0.088020	-0.021679	0.106964	-0.077746	-0.135790	0.208077	-0.965516	-23.476025	-17.131701	174.377939
49225		3.605720	-4.163473	17.033607	1.457054	-3.046081	7.767765	0.877408	-1.005830	-0.573987	-0.724121	0.763672	-0.679443	0.035079	-0.042484	0.170329	-0.078834	-0.141569	0.203868	-0.965495	-22.954050	-17.789012	174.303965
49226		-2.868951	0.868444	9.922671	4.979165	-5.157043	-2.325621	0.922042	-1.076194	-1.092831	-0.735840	0.742188	-0.678223	-0.029177	0.008386	0.099110	-0.082318	-0.148221	0.199088	-0.965204	-22.317976	-18.596651	173.950196
49227		4.195494	0.516596	11.708897	-0.985767	-4.808007	1.627324	0.545849	-1.726311	-1.236645	-0.752197	0.745117	-0.671875	0.040972	0.004590	0.117459	-0.086121	-0.157987	0.196266	-0.963900	-21.910774	-19.777752	173.654242
49228		10.079808	-4.057244	13.176325	-4.791129	-0.595197	6.569088	0.295607	-1.515906	-0.851911	-0.763184	0.748535	-0.653809	0.099621	-0.041194	0.132461	-0.088464	-0.166235	0.194843	-0.962588	-21.697532	-20.763067	173.519885
49229		7.449442	-3.496971	10.412817	-3.040811	-0.243389	3.104025	0.242181	-1.178002	-0.531520	-0.781494	0.738281	-0.644043	0.073786	-0.035293	0.104522	-0.089634	-0.172515	0.193783	-0.961589	-21.549980	-21.500880	173.487907
49230		6.506930	-1.971163	10.060701	-2.485447	-1.580294	1.967247	0.157886	-1.065489	-0.490257	-0.787598	0.733154	-0.645996	0.064483	-0.019950	0.100936	-0.090783	-0.178165	0.193105	-0.960586	-21.448952	-22.169455	173.452290
49231		6.908746	-0.761348	9.969565	-3.051426	-2.598420	1.660696	0.036419	-0.883632	-0.528471	-0.802002	0.735840	-0.646729	0.068626	-0.007813	0.099998	-0.092397	-0.182923	0.192888	-0.959581	-21.392581	-22.749592	173.352288
49232		6.385427	-1.170357	9.219411	-2.607485	-1.982419	0.976720	-0.111948	-0.718879	-0.525527	-0.804688	0.730713	-0.640137	0.063491	-0.011819	0.092429	-0.094289	-0.186811	0.193305	-0.958564	-21.406145	-23.240580	173.215949
49233		5.508956	-2.711805	8.893711	-1.440946	-0.557786	0.883696	-0.190406	-0.616523	-0.476276	-0.814697	0.726074	-0.635742	0.054750	-0.027164	0.089132	-0.096117	-0.190125	0.194091	-0.957571	-21.465632	-23.667435	173.084730
49234		5.139502	-4.183072	8.358481	-0.827484	0.936591	0.780442	-0.197685	-0.537898	-0.428435	-0.823975	0.728027	-0.631104	0.051080	-0.041858	0.083764	-0.097796	-0.193004	0.194918	-0.956657	-21.532544	-24.041774	172.963478
49235		5.981803	-4.735008	8.134664	-1.451994	1.606978	1.127329	-0.140704	-0.496949	-0.364101	-0.836670	0.719727	-0.629395	0.059529	-0.047401	0.081528	-0.099153	-0.195657	0.195512	-0.955857	-21.577609	-24.381583	172.870404
49236		7.053875	-6.449047	8.238431	-1.872724	3.226885	2.241317	0.002682	-0.343081	-0.198103	-0.832031	0.717529	-0.626953	0.070333	-0.064561	0.082504	-0.099724	-0.197476	0.195506	-0.955424	-21.565666	-24.603737	172.838830
49237		4.435808	-3.265317	7.463569	-0.587179	0.371975	-0.562805	0.082201	-0.306067	-0.079956	-0.835205	0.715576	-0.621826	0.044231	-0.032702	0.074690	-0.099690	-0.199048	0.195217	-0.955161	-21.533366	-24.782081	172.867829
49238		4.865371	-2.912856	8.905592	-0.546179	-0.492853	0.719399	0.042144	-0.277059	-0.125294	-0.850586	0.720215	-0.617920	0.048512	-0.029178	0.089117	-0.099939	-0.200499	0.195060	-0.954863	-21.510051	-24.953716	172.863426
49239		4.539055	-3.382282	8.446704	-0.256746	0.083311	0.351798	0.010992	-0.200059	-0.109990	-0.844238	0.716797	-0.616455	0.045287	-0.033852	0.084511	-0.100222	-0.201558	0.195028	-0.954617	-21.500802	-25.081899	172.850110
49240		4.304068	-3.704519	8.516698	0.086912	0.317809	0.418345	0.015438	-0.182195	-0.081737	-0.853516	0.706543	-0.614990	0.042948	-0.037069	0.085203	-0.100382	-0.202499	0.194994	-0.954408	-21.494280	-25.193815	172.849265
49241		4.592354	-3.202722	8.157266	-0.413336	0.044104	0.072419	0.010848	-0.163290	-0.098862	-0.855713	0.706055	-0.616699	0.045841	-0.032054	0.081608	-0.100648	-0.203371	0.194955	-0.954203	-21.484202	-25.300064	172.833912
49242		4.402570	-3.434396	8.333408	-0.103445	0.159081	0.216638	-0.000840	-0.096016	-0.099788	-0.863037	0.711426	-0.609619	0.043969	-0.034366	0.083355	-0.100995	-0.203911	0.194937	-0.954055	-21.473870	-25.369819	172.802373
49243		3.755705	-3.870436	7.918158	0.462377	0.652507	-0.265790	0.020311	-0.091340	-0.109915	-0.863281	0.706787	-0.618896	0.037500	-0.038733	0.079195	-0.101374	-0.204455	0.194805	-0.953925	-21.448337	-25.440024	172.763720
49244		4.497657	-3.468951	7.826087	-0.330813	0.417534	-0.157306	0.070093	-0.088917	-0.155723	-0.873291	0.706787	-0.623779	0.044915	-0.034752	0.078269	-0.101921	-0.205051	0.194387	-0.953824	-21.382315	-25.517662	172.697363
49245		4.482811	-3.227477	8.040610	-0.294871	0.119029	-0.062689	0.087741	-0.055431	-0.164537	-0.877441	0.698730	-0.615479	0.044779	-0.032347	0.080404	-0.102526	-0.205511	0.193860	-0.953767	-21.300474	-25.580024	172.617900
49246		4.052666	-3.333613	8.351126	0.240367	0.048457	0.047243	0.091681	-0.053244	-0.155913	-0.884521	0.701416	-0.609619	0.040478	-0.033406	0.083507	-0.103087	-0.205948	0.193321	-0.953722	-21.218212	-25.638491	172.542905
49247		4.035708	-2.986649	8.449759	0.207334	-0.296490	0.009457	0.094706	-0.073662	-0.169634	-0.869141	0.690674	-0.609131	0.040301	-0.029941	0.084498	-0.103692	-0.206503	0.192763	-0.953649	-21.132606	-25.711444	172.464326
49248		5.006084	-2.874723	8.361741	-0.707980	-0.235944	0.320757	0.074433	-0.070255	-0.164442	-0.875000	0.689697	-0.605713	0.050008	-0.028819	0.083624	-0.104295	-0.207020	0.192306	-0.953564	-21.059441	-25.780570	172.387893
49249		4.423786	-3.015545	8.599465	-0.052154	-0.266968	0.313525	0.043294	-0.061166	-0.143490	-0.883545	0.682617	-0.606934	0.044190	-0.030206	0.086002	-0.104840	-0.207463	0.192014	-0.953466	-21.008505	-25.841300	172.321698
49250		4.298702	-3.275540	8.476538	0.101025	0.009845	0.239644	0.038812	-0.080247	-0.159501	-0.882568	0.681152	-0.602295	0.042927	-0.032806	0.084776	-0.105446	-0.208004	0.191737	-0.953338	-20.957764	-25.914622	172.250246
49251		4.765267	-3.087907	8.245319	-0.434517	-0.002188	0.189281	0.036896	-0.101077	-0.181436	-0.891357	0.676270	-0.604492	0.047583	-0.030937	0.082472	-0.106140	-0.208670	0.191457	-0.953171	-20.904335	-26.004372	172.170346
49252		4.444675	-3.365412	8.235597	-0.056607	0.220615	0.129862	0.043694	-0.108649	-0.212389	-0.896729	0.669922	-0.611816	0.044366	-0.033719	0.082373	-0.106966	-0.209399	0.191116	-0.952987	-20.839474	-26.103571	172.073565
49253		4.293977	-3.775519	8.047266	0.147483	0.659374	0.035901	0.085993	-0.134039	-0.245386	-0.896973	0.667480	-0.602295	0.042839	-0.037842	0.080485	-0.107882	-0.210310	0.190552	-0.952797	-20.743956	-26.223820	171.962589
49254		4.621894	-3.193521	8.107029	-0.264432	0.163184	0.045698	0.103071	-0.140949	-0.288382	-0.903320	0.658936	-0.602783	0.046116	-0.032044	0.081086	-0.108976	-0.211296	0.189864	-0.952591	-20.627579	-26.355429	171.827112
49255		4.750490	-3.317864	8.057418	-0.334764	0.327465	0.100837	0.111731	-0.148540	-0.285346	-0.903809	0.654785	-0.603760	0.047398	-0.033291	0.080591	-0.110041	-0.212326	0.189143	-0.952383	-20.507329	-26.491117	171.694691
49256		4.465320	-3.071716	8.394599	-0.004885	-0.054235	0.179348	0.104078	-0.155943	-0.287158	-0.902344	0.649170	-0.600830	0.044544	-0.030825	0.083965	-0.111113	-0.213382	0.188459	-0.952158	-20.391217	-26.630029	171.562379
49257		5.182734	-2.776342	8.166434	-0.781667	-0.119417	0.218967	0.107589	-0.160932	-0.290421	-0.911621	0.641357	-0.599365	0.051721	-0.027883	0.081691	-0.112194	-0.214473	0.187758	-0.951925	-20.272211	-26.772906	171.428725
49258		4.728909	-2.852842	8.257529	-0.298821	-0.133597	0.116102	0.074482	-0.153324	-0.284671	-0.920166	0.638428	-0.594482	0.047185	-0.028626	0.082601	-0.113288	-0.215496	0.187215	-0.951671	-20.172466	-26.909447	171.296388
49259		4.655581	-2.981556	8.518200	-0.074573	-0.121573	0.341299	0.058764	-0.153543	-0.271956	-0.925049	0.627930	-0.595215	0.046450	-0.029904	0.085209	-0.114340	-0.216507	0.186761	-0.951405	-20.084761	-27.044305	171.171353
49260		4.516956	-2.964128	8.506021	0.063068	-0.142211	0.262881	0.042152	-0.159208	-0.267864	-0.925049	0.627686	-0.596436	0.045062	-0.029720	0.085090	-0.115384	-0.217522	0.186393	-0.951120	-20.007845	-27.180349	171.049687
49261		4.622879	-2.979190	8.346388	-0.058846	-0.041210	0.182489	0.040356	-0.165203	-0.275504	-0.926758	0.614990	-0.591309	0.046119	-0.029872	0.083496	-0.116461	-0.218580	0.186028	-0.950817	-19.930003	-27.321871	170.924338
49262		4.073140	-3.496414	8.313228	0.593936	0.370995	0.058213	0.055540	-0.160204	-0.281420	-0.936523	0.612305	-0.581299	0.040616	-0.035044	0.083155	-0.117552	-0.219620	0.185581	-0.950531	-19.840868	-27.460790	170.793930
49263		4.668942	-3.323736	8.113491	-0.028014	0.391488	0.113079	0.084050	-0.155173	-0.313048	-0.939941	0.606201	-0.586182	0.046574	-0.033344	0.081157	-0.118768	-0.220689	0.184960	-0.950253	-19.725498	-27.603818	170.642730
49264		5.196384	-2.937992	7.975365	-0.631477	0.191308	0.127392	0.125010	-0.147638	-0.338849	-0.959717	0.591309	-0.577881	0.051855	-0.029518	0.079774	-0.120067	-0.221762	0.184111	-0.950005	-19.578011	-27.746548	170.473620
49265		4.936309	-3.175038	8.014806	-0.287751	0.371384	0.110231	0.142308	-0.137640	-0.337898	-0.946533	0.591553	-0.583252	0.049254	-0.031891	0.080159	-0.121353	-0.222804	0.183175	-0.949778	-19.419198	-27.884208	170.302264
49266		4.921332	-3.195296	7.887148	-0.288948	0.460615	0.002645	0.173442	-0.129253	-0.337329	-0.940674	0.587402	-0.572021	0.049108	-0.032104	0.078875	-0.122607	-0.223816	0.182085	-0.949589	-19.241205	-28.015867	170.128805
49267		5.331618	-2.549440	8.027678	-0.768981	-0.092366	0.125593	0.203658	-0.109364	-0.318764	-0.960205	0.569580	-0.574707	0.053231	-0.025661	0.080280	-0.123757	-0.224742	0.180860	-0.949455	-19.048611	-28.133704	169.961802
49268		4.799592	-2.810632	8.118644	-0.166283	0.051794	0.026910	0.216357	-0.088719	-0.281153	-0.963623	0.556152	-0.571533	0.047920	-0.028262	0.081177	-0.124732	-0.225536	0.179603	-0.949378	-18.857036	-28.231933	169.812966
49269		4.850598	-2.504424	8.302659	-0.216256	-0.264407	0.117963	0.227683	-0.080925	-0.251018	-0.961426	0.552490	-0.573242	0.048441	-0.025200	0.083018	-0.125559	-0.226279	0.178321	-0.949333	-18.666533	-28.320887	169.680541
49270		4.957901	-2.482579	8.147471	-0.355480	-0.180487	0.034456	0.228346	-0.098201	-0.234204	-0.966064	0.547607	-0.560059	0.049510	-0.024977	0.081471	-0.126289	-0.227082	0.177066	-0.949280	-18.481897	-28.414828	169.561656
49271		4.706495	-2.623184	8.394115	0.023963	-0.166792	0.160520	0.219274	-0.122315	-0.209008	-0.981934	0.540527	-0.554443	0.046986	-0.026373	0.083941	-0.126889	-0.227979	0.175897	-0.949203	-18.311836	-28.517956	169.462848
49272		4.710279	-2.446580	8.444886	0.007271	-0.324846	0.156411	0.210615	-0.158832	-0.200593	-0.973389	0.524902	-0.553955	0.047011	-0.024602	0.084460	-0.127425	-0.229027	0.174801	-0.949081	-18.152442	-28.638241	169.376296
49273		4.534329	-2.679551	8.453083	0.264538	-0.128216	0.142624	0.153592	-0.208255	-0.220184	-0.978516	0.521973	-0.545898	0.045226	-0.026910	0.084557	-0.128076	-0.230298	0.173984	-0.948836	-18.024254	-28.789695	169.287115
49274		4.930245	-2.565513	8.409422	-0.098397	-0.136562	0.265959	0.147159	-0.259667	-0.233362	-0.971680	0.510742	-0.538574	0.049163	-0.025774	0.084139	-0.128752	-0.231811	0.173215	-0.948516	-17.900361	-28.970369	169.199617
49275		4.813316	-2.417979	8.404211	-0.011487	-0.276243	0.165730	0.128034	-0.300746	-0.232865	-0.986328	0.501953	-0.525635	0.047978	-0.024290	0.084099	-0.129412	-0.233514	0.172563	-0.948127	-17.791000	-29.174160	169.120064
49276		5.034531	-2.482734	8.204013	-0.220434	-0.095376	0.125042	0.109307	-0.344308	-0.225140	-0.988281	0.497559	-0.516113	0.050176	-0.024929	0.082113	-0.130019	-0.235396	0.172037	-0.947675	-17.698504	-29.399294	169.053525
49277		4.384517	-2.460765	8.456206	0.471299	-0.315644	0.008965	0.094796	-0.372715	-0.208770	-0.983154	0.493896	-0.520020	0.043662	-0.024693	0.084632	-0.130541	-0.237395	0.171616	-0.947180	-17.621623	-29.637968	169.002357
49278		4.814828	-2.531300	8.339804	0.124267	-0.132791	0.142669	0.087862	-0.411375	-0.205197	-0.988037	0.479492	-0.500488	0.047951	-0.025399	0.083486	-0.131019	-0.239561	0.171256	-0.946634	-17.553289	-29.896120	168.960713
49279		5.182091	-2.635720	8.138219	-0.188493	0.101907	0.186592	0.082464	-0.439540	-0.213011	-0.994141	0.480469	-0.487061	0.051614	-0.026446	0.081485	-0.131517	-0.241870	0.170930	-0.946036	-17.487924	-30.171919	168.919247
49280		4.685569	-2.723519	8.307353	0.381172	0.033691	0.098801	0.080954	-0.456503	-0.212950	-0.987305	0.476318	-0.484131	0.046637	-0.027319	0.083169	-0.132000	-0.244249	0.170622	-0.945413	-17.424799	-30.455986	168.880765
49281		5.217177	-2.763969	8.105125	-0.086758	0.236957	0.211662	0.089142	-0.491602	-0.231871	-0.994385	0.462891	-0.474365	0.051940	-0.027736	0.081167	-0.132533	-0.246821	0.170274	-0.944733	-17.353927	-30.763398	168.836700
49282		5.222998	-2.595251	8.035110	-0.120917	0.113465	0.114560	0.112304	-0.520310	-0.271408	-0.999268	0.457275	-0.469238	0.051985	-0.026068	0.080472	-0.133198	-0.249568	0.169785	-0.944006	-17.259271	-31.092245	168.772507
49283		5.105734	-2.715073	8.171651	0.137408	0.152217	0.195990	0.110540	-0.560796	-0.296227	-0.999268	0.457764	-0.451904	0.050788	-0.027271	0.081844	-0.133947	-0.252532	0.169299	-0.943199	-17.160698	-31.448324	168.699530
49284		4.891610	-2.508902	8.368037	0.398036	-0.144059	0.190656	0.126945	-0.612321	-0.317235	-0.996338	0.447266	-0.441650	0.048620	-0.025219	0.083814	-0.134728	-0.255756	0.168741	-0.942318	-17.050094	-31.835086	168.622230
49285		5.310207	-2.536670	8.301941	0.103284	-0.020870	0.362951	0.126932	-0.670000	-0.340035	-0.999756	0.438232	-0.432129	0.052780	-0.025509	0.083180	-0.135568	-0.259277	0.168191	-0.941334	-16.936543	-32.258093	168.540310
49286		5.096313	-2.436121	8.463189	0.397669	-0.210593	0.352429	0.105722	-0.744967	-0.347276	-0.997559	0.427490	-0.424561	0.050605	-0.024494	0.084808	-0.136403	-0.263129	0.167780	-0.940217	-16.839378	-32.722325	168.467198
49287		4.775776	-2.431351	8.569713	0.795180	-0.313857	0.258458	0.105684	-0.827836	-0.347178	-1.000000	0.434814	-0.406738	0.047360	-0.024441	0.085881	-0.137166	-0.267374	0.167422	-0.938971	-16.749871	-33.232840	168.409156
49288		5.159275	-2.495427	8.428978	0.534405	-0.143171	0.365033	0.104076	-0.919645	-0.365095	-0.996826	0.419434	-0.401855	0.051159	-0.025092	0.084513	-0.137935	-0.272051	0.167108	-0.937570	-16.663688	-33.795668	168.356211
49289		5.125123	-2.405424	8.433806	0.638384	-0.240549	0.322183	0.126520	-1.019056	-0.374308	-1.008545	0.422119	-0.383057	0.050775	-0.024203	0.084582	-0.138630	-0.277216	0.166739	-0.936019	-16.570920	-34.415437	168.315349
49290		5.568987	-2.461099	8.390092	0.395110	-0.109017	0.545643	0.124270	-1.118380	-0.400749	-1.004150	0.409668	-0.369141	0.055170	-0.024774	0.084195	-0.139364	-0.282851	0.166408	-0.934281	-16.479417	-35.093097	168.275034
49291		5.567233	-2.446074	8.134781	0.394242	-0.035800	0.335904	0.117627	-1.203540	-0.433269	-1.014160	0.413086	-0.347656	0.055128	-0.024629	0.081666	-0.140184	-0.288902	0.166114	-0.932357	-16.387361	-35.823677	168.227986
49292		5.618279	-2.280623	8.204732	0.464181	-0.219128	0.376461	0.117367	-1.314018	-0.460940	-1.015137	0.406250	-0.332275	0.055589	-0.022983	0.082400	-0.141035	-0.295471	0.165853	-0.930215	-16.295805	-36.618495	168.182310
49293		5.836185	-2.526003	8.105079	0.478873	0.059835	0.478043	0.090306	-1.420387	-0.505674	-1.014160	0.399658	-0.317383	0.057720	-0.025443	0.081451	-0.142039	-0.302544	0.165717	-0.927809	-16.212224	-37.479827	168.125100
49294		5.771475	-2.335776	8.138333	0.635429	-0.155925	0.413157	0.106715	-1.512107	-0.546294	-1.016113	0.402588	-0.292725	0.057033	-0.023558	0.081804	-0.143121	-0.310062	0.165498	-0.925196	-16.111100	-38.397148	168.055711
49295		5.615326	-2.578829	7.945603	0.909417	0.093708	0.211113	0.098506	-1.603041	-0.579598	-1.021973	0.389160	-0.276367	0.055439	-0.025989	0.079890	-0.144285	-0.318008	0.165320	-0.922346	-16.008640	-39.370588	167.978212
49296		6.015161	-2.422851	8.189120	0.858441	-0.102125	0.597102	0.117296	-1.702529	-0.607299	-1.025146	0.381104	-0.265381	0.059378	-0.024458	0.082385	-0.145453	-0.326418	0.165070	-0.919264	-15.892525	-40.402210	167.897765
49297		5.889647	-2.363099	7.811154	0.909639	-0.048090	0.209959	0.148336	-1.800792	-0.647477	-1.022461	0.375977	-0.238525	0.058113	-0.023878	0.078619	-0.146663	-0.335314	0.164669	-0.915936	-15.748632	-41.494974	167.803872
49298		6.023694	-2.617471	8.278144	1.374631	-0.006748	0.664436	0.170236	-1.934964	-0.685154	-1.028076	0.369629	-0.211914	0.059342	-0.026450	0.083336	-0.147882	-0.344832	0.164186	-0.912286	-15.587130	-42.666552	167.704436
49299		5.995056	-2.646731	7.728686	1.303708	0.212528	0.233682	0.178166	-2.046595	-0.756427	-1.034668	0.358887	-0.196289	0.059055	-0.026761	0.077870	-0.149305	-0.354891	0.163609	-0.908291	-15.393722	-43.911240	167.567402
49300		6.397457	-3.379456	8.043235	1.729733	0.787671	0.837369	0.264235	-2.261024	-0.850841	-1.039795	0.354248	-0.176514	0.062915	-0.034171	0.081103	-0.150808	-0.366011	0.162611	-0.903798	-15.122121	-45.287478	167.392407
49301		6.044162	-3.513807	8.026854	2.281494	0.844917	0.549907	0.383366	-2.477807	-0.937322	-1.040771	0.348389	-0.137939	0.059276	-0.035572	0.080940	-0.152284	-0.378217	0.161054	-0.898790	-14.751412	-46.796527	167.178894
49302		6.298151	-3.752418	7.629427	2.243227	1.248496	0.451661	0.456609	-2.712614	-1.044071	-1.038574	0.341064	-0.102783	0.061742	-0.038024	0.077051	-0.153881	-0.391540	0.159113	-0.893141	-14.290116	-48.449286	166.905015
49303		6.202809	-4.048965	7.376899	2.568195	1.596984	0.193939	0.517748	-2.929672	-1.193377	-1.031494	0.324463	-0.080322	0.060696	-0.041047	0.074559	-0.155817	-0.405910	0.156737	-0.886787	-13.701911	-50.242326	166.517218
49304		6.288315	-3.688808	7.692965	2.916392	1.155883	0.310522	0.570829	-3.141088	-1.377238	-1.038330	0.314453	-0.051514	0.061409	-0.037536	0.077795	-0.158251	-0.421285	0.153872	-0.879659	-12.944147	-52.173759	165.961309
49305		6.489901	-3.305365	7.643019	2.970146	0.862482	0.280941	0.551253	-3.358092	-1.579119	-1.029541	0.300293	-0.010498	0.063340	-0.033770	0.077410	-0.161395	-0.437621	0.150791	-0.871609	-12.012139	-54.246844	165.188650
49306		6.527088	-3.210659	7.902839	3.488949	0.682728	0.321986	0.552081	-3.555876	-1.806177	-1.022705	0.279541	0.016846	0.063559	-0.032906	0.080079	-0.165316	-0.454820	0.147312	-0.862617	-10.821328	-56.447288	164.122578
49307		6.937844	-2.888601	7.363802	3.160586	0.684621	0.198697	0.625674	-3.793514	-2.034757	-1.016357	0.263672	0.058838	0.067666	-0.029813	0.074840	-0.169809	-0.473078	0.143128	-0.852570	-9.260636	-58.790007	162.696107
49308		7.491859	-2.319835	8.122579	3.683101	-0.032509	0.859569	0.609830	-4.016372	-2.198332	-1.010010	0.240234	0.096924	0.073006	-0.024258	0.082632	-0.174791	-0.492149	0.138741	-0.841421	-7.337492	-61.247937	160.876689
49309		8.747891	-2.034220	7.607493	3.110759	0.133635	1.536991	0.527282	-4.269044	-2.385440	-0.997314	0.228516	0.139648	0.085577	-0.021574	0.077859	-0.180489	-0.512062	0.134385	-0.828949	-4.935972	-63.825807	158.508247
49310		8.605887	-1.692737	8.750220	4.497547	-0.661072	1.711060	0.250590	-4.390719	-2.462289	-0.985840	0.199219	0.181641	0.083893	-0.018080	0.089338	-0.187020	-0.531963	0.131004	-0.815400	-2.101178	-66.423315	155.539774
49311		9.121614	-1.678379	7.660814	3.992431	-0.158667	1.532413	0.061675	-4.624018	-2.617728	-0.967529	0.191406	0.226074	0.089183	-0.017984	0.078680	-0.194409	-0.552385	0.128111	-0.800415	1.555642	-69.080952	151.625282
49312		11.400339	-1.421459	9.361247	5.236455	-0.757274	4.028449	-0.233892	-4.710675	-2.690201	-0.948242	0.161621	0.255127	0.111553	-0.015615	0.096277	-0.202709	-0.572514	0.126192	-0.784355	6.234309	-71.671324	146.514640
49313		9.677911	-0.692344	8.360543	5.157129	-1.348658	1.831612	-0.680161	-4.713472	-2.709903	-0.923828	0.128174	0.297607	0.094670	-0.007926	0.085879	-0.212211	-0.591788	0.125877	-0.767404	12.210795	-74.092563	139.852485
49314		9.106378	-0.864938	7.299657	5.016524	-0.931271	0.717963	-1.073418	-4.869949	-2.850833	-0.905762	0.114258	0.339844	0.089118	-0.009529	0.075232	-0.223152	-0.610869	0.126719	-0.748989	20.493824	-76.318024	130.649395
49315		11.212956	-5.339390	8.148201	8.229248	2.779927	2.234097	-1.361263	-4.777274	-2.875127	-0.878906	0.084473	0.376221	0.109358	-0.054411	0.084485	-0.234937	-0.628793	0.128358	-0.730033	31.503285	-78.067449	118.559740
49316		12.141660	-4.151433	6.730164	7.022197	2.450449	2.620286	-1.060881	-4.656904	-3.061487	-0.851807	0.048584	0.401855	0.119152	-0.042982	0.070319	-0.246345	-0.646241	0.128069	-0.710834	45.936259	-79.063585	103.215621
49317		12.066642	-2.112066	8.053794	7.766732	-0.073703	2.619349	-1.163579	-4.295794	-3.093712	-0.819336	0.017334	0.431885	0.118557	-0.022487	0.083228	-0.258240	-0.661801	0.127500	-0.692153	61.027616	-79.108166	87.168007
49318		10.072045	-2.061847	7.392817	7.685221	-0.279679	0.246295	-1.721029	-3.800693	-3.036047	-0.796875	-0.005859	0.449707	0.098967	-0.021482	0.076003	-0.271917	-0.674431	0.128319	-0.674343	73.507326	-78.344375	73.437152
49319		6.801210	-1.847010	4.463618	5.268521	0.376330	-3.356456	-2.167274	-3.199571	-3.089582	-0.770508	-0.035889	0.458984	0.066993	-0.019017	0.045918	-0.287489	-0.684028	0.129567	-0.657775	82.172396	-77.000375	63.295259
49320		25.927857	2.868402	19.138846	16.967738	-7.878141	16.584244	-3.039376	-1.224964	-3.025381	-0.768066	-0.075439	0.450439	0.258525	0.027690	0.192548	-0.306955	-0.685462	0.130989	-0.647118	84.100179	-75.367455	59.514260
49321		22.177250	-10.993903	17.802057	23.471744	2.844628	9.438030	-3.737693	2.250948	-2.266826	-0.779541	-0.101563	0.412598	0.222533	-0.109137	0.177563	-0.328465	-0.673698	0.131868	-0.648731	78.044704	-73.889159	63.569649
49322		11.419214	-15.720632	9.939806	18.702057	8.498814	-2.441383	-2.919809	4.063180	-1.497328	-0.790527	-0.129883	0.367920	0.115037	-0.156615	0.099356	-0.345709	-0.656466	0.129622	-0.657826	69.756159	-72.421537	70.477498
49323		3.822808	-13.663296	6.185575	13.719817	7.144160	-9.279739	-1.766721	4.701071	-0.629074	-0.820068	-0.130859	0.320068	0.039258	-0.136207	0.062146	-0.356495	-0.638121	0.125253	-0.670839	61.741003	-70.989133	77.847878
49324		0.342468	-11.990068	4.444415	11.111677	5.901027	-12.122490	-0.885531	4.380877	0.281216	-0.839111	-0.132813	0.284668	0.004573	-0.119697	0.044883	-0.361016	-0.621496	0.121323	-0.684610	54.979154	-69.811755	84.482908
49325		1.237813	-10.281534	3.821490	9.576025	5.422297	-10.671805	-0.195848	3.881222	1.201629	-0.865234	-0.126953	0.235840	0.013735	-0.102698	0.038058	-0.359770	-0.606968	0.118752	-0.698608	49.053294	-68.989122	90.688756
49326		2.418976	-8.437486	4.702264	8.977010	4.127494	-8.579857	0.190240	3.630293	2.096079	-0.893555	-0.100830	0.201172	0.025920	-0.084154	0.046482	-0.353931	-0.593235	0.117934	-0.713370	43.165074	-68.415016	97.121748
49327		3.351204	-6.317784	6.054463	8.450538	2.305932	-6.487420	0.294025	3.578335	2.838700	-0.918701	-0.081299	0.161377	0.035480	-0.062772	0.059829	-0.344928	-0.579130	0.118999	-0.729022	36.911044	-67.893859	104.035613
49328		3.519093	-4.793793	6.540465	7.628136	1.127630	-5.492250	0.187480	3.679544	3.353274	-0.947266	-0.058594	0.137451	0.037183	-0.047386	0.064688	-0.334226	-0.563850	0.121683	-0.745358	30.303418	-67.202505	111.296968
49329		2.738066	-3.469788	6.338034	6.531069	0.100861	-5.686064	0.023064	3.849374	3.597615	-0.973633	-0.024658	0.098145	0.029212	-0.034191	0.062826	-0.322954	-0.547122	0.125322	-0.762005	23.702916	-66.172629	118.492274
49330		2.747908	-2.078177	6.302948	5.414306	-0.832095	-5.167373	-0.199869	4.019051	3.596593	-1.000488	0.015869	0.044434	0.029105	-0.020205	0.062476	-0.312179	-0.529019	0.129427	-0.778416	17.569826	-64.742953	125.103836
49331		2.258041	-0.688721	6.567291	4.646484	-2.140200	-5.066832	-0.484935	4.143545	3.452500	-1.016602	0.052979	-0.003906	0.024047	-0.006322	0.065201	-0.302563	-0.509668	0.133988	-0.794192	12.134614	-62.952360	130.842841
49332		2.209691	0.488635	6.774557	3.858436	-3.132893	-4.683816	-0.877449	4.205660	3.268817	-1.039307	0.081055	-0.047852	0.023427	0.005558	0.067239	-0.294504	-0.489250	0.139430	-0.808988	7.391322	-60.893851	135.644423
49333		2.209631	-0.732709	6.691128	4.298341	-2.094027	-4.585846	-1.143046	4.174057	3.133065	-1.053711	0.118652	-0.101318	0.023594	-0.006585	0.066468	-0.287401	-0.468283	0.145577	-0.822751	3.266449	-58.675684	139.653452
49334		2.203667	-1.755069	6.631857	4.618851	-1.226798	-4.421167	-1.133729	4.020371	3.062730	-1.061279	0.153809	-0.154541	0.023626	-0.016822	0.065951	-0.280261	-0.447713	0.151624	-0.835474	-0.248796	-56.417901	143.045187
49335		3.647362	-2.136747	7.494662	4.470730	-0.851547	-2.511205	-0.993406	3.831774	3.175024	-1.056641	0.193115	-0.199707	0.038231	-0.020400	0.074328	-0.272004	-0.427719	0.157516	-0.847502	-3.359302	-54.161892	146.130199
49336		5.171014	-2.501825	8.530647	4.201999	-0.560061	-0.443648	-0.827504	3.709312	3.439388	-1.058838	0.228516	-0.241943	0.053697	-0.023756	0.084423	-0.262005	-0.408010	0.163319	-0.859191	-6.215889	-51.877920	149.108263
49337		6.758066	-2.669070	9.527050	3.553415	-0.412176	1.621171	-0.700707	3.694380	3.801169	-1.063721	0.287842	-0.290283	0.069813	-0.025047	0.094084	-0.249993	-0.387924	0.169237	-0.870849	-8.926854	-49.487319	152.086555
49338		7.567291	-2.773938	9.987140	2.805722	-0.325613	2.704752	-0.565630	3.731861	4.150537	-1.054932	0.335693	-0.334961	0.078069	-0.025856	0.098504	-0.236050	-0.367288	0.175055	-0.882460	-11.456383	-46.959932	155.039184
49339		7.778130	-2.301456	9.914156	1.718300	-0.664262	2.862306	-0.430631	3.724238	4.389916	-1.040527	0.385986	-0.382813	0.080086	-0.021062	0.097711	-0.220596	-0.346302	0.180598	-0.893754	-13.749148	-44.322497	157.893439
49340		7.843593	-0.961289	9.927257	0.346027	-1.847371	2.734488	-0.374006	3.618724	4.433521	-1.020996	0.436768	-0.418945	0.080399	-0.007661	0.097845	-0.204579	-0.325558	0.185914	-0.904210	-15.769004	-41.667995	160.536156
49341		8.133111	0.770224	10.187865	-1.162265	-3.475186	2.720384	-0.479650	3.393503	4.259010	-1.004639	0.489990	-0.444336	0.082851	0.009698	0.100460	-0.189144	-0.305593	0.191522	-0.913322	-17.567779	-39.098819	162.880724
49342		9.140595	1.244725	10.760388	-2.404674	-4.065766	3.549327	-0.667246	3.148421	3.868983	-0.978516	0.533691	-0.479980	0.092816	0.014589	0.106104	-0.175419	-0.286767	0.197476	-0.920867	-19.151957	-36.686092	164.832545
49343		10.263095	0.257528	11.225035	-3.193555	-3.356194	4.675395	-0.695127	2.986078	3.332659	-0.956787	0.577637	-0.503906	0.104225	0.004690	0.110688	-0.163933	-0.268992	0.202829	-0.927162	-20.428578	-34.423039	166.335640
49344		11.397548	-0.607043	12.037859	-3.980486	-2.900331	6.026920	-0.624044	2.939846	2.768962	-0.930176	0.607910	-0.540771	0.115794	-0.004103	0.118700	-0.154849	-0.251971	0.207027	-0.932562	-21.371952	-32.281096	167.396016
49345		13.002823	-1.096074	12.713124	-5.458322	-2.590517	7.373241	-0.609869	3.007144	2.316689	-0.896973	0.633545	-0.563721	0.132033	-0.009055	0.125186	-0.147857	-0.234980	0.210463	-0.937351	-22.089296	-30.182432	168.098001
49346		14.360065	-2.363806	12.439083	-6.888916	-1.179139	8.009736	-0.617284	3.162819	2.018146	-0.875732	0.656982	-0.583740	0.145771	-0.021795	0.122166	-0.142390	-0.217518	0.213383	-0.941742	-22.659640	-28.064085	168.537507
49347		14.835060	-3.353314	11.084157	-8.073795	0.371714	7.181902	-0.553365	3.245558	1.828656	-0.857422	0.672852	-0.610596	0.150420	-0.031862	0.108501	-0.137775	-0.199801	0.215667	-0.945825	-23.106359	-25.936903	168.814865
49348		15.929385	-3.174630	9.883998	-10.095261	0.964867	6.269367	-0.463553	3.133497	1.734053	-0.816162	0.687988	-0.630127	0.161083	-0.030129	0.096397	-0.133358	-0.182744	0.217428	-0.949497	-23.470944	-23.892493	169.043366
49349		18.447977	-2.935484	9.201407	-13.208988	1.508120	6.212736	-0.441707	3.027207	1.746448	-0.781006	0.709717	-0.649170	0.186091	-0.027535	0.089268	-0.128696	-0.166103	0.219105	-0.952806	-23.823033	-21.896089	169.288397
49350		19.779310	-2.724624	8.024676	-15.350183	2.081078	5.121549	-0.430159	3.068620	1.814829	-0.756104	0.715576	-0.666260	0.199229	-0.025274	0.077253	-0.123711	-0.149176	0.220681	-0.955899	-24.163573	-19.864424	169.544703
49351		18.761593	-2.216127	5.876100	-15.547526	2.426368	2.178237	-0.333784	3.056324	1.855847	-0.719971	0.725586	-0.678711	0.188679	-0.020319	0.055918	-0.118399	-0.132248	0.221769	-0.958807	-24.444813	-17.825206	169.812055
49352		16.679130	-1.191065	3.463197	-14.734555	2.250093	-1.481497	-0.188295	2.801750	1.792792	-0.684814	0.728271	-0.703857	0.167352	-0.010381	0.032300	-0.112981	-0.116682	0.222195	-0.961379	-24.637959	-15.935677	170.096357
49353		16.021982	-0.098073	2.422000	-14.823683	1.606846	-3.469351	-0.129250	2.337448	1.684741	-0.665771	0.729004	-0.702393	0.160489	0.000385	0.022345	-0.107499	-0.103452	0.222490	-0.963452	-24.802458	-14.310513	170.429235
49354		16.926243	0.167393	1.938820	-15.994897	1.660410	-4.184531	-0.192363	1.891809	1.594097	-0.648193	0.734619	-0.715088	0.169415	0.003041	0.017784	-0.101976	-0.092437	0.223234	-0.964999	-25.006599	-12.940114	170.816498
49355		17.525770	-0.052589	1.143385	-16.755267	2.199389	-5.029992	-0.198729	1.528964	1.546909	-0.631348	0.756592	-0.722168	0.175335	0.000841	0.010093	-0.096262	-0.083195	0.224147	-0.966214	-25.219324	-11.766457	171.262062
49356		17.652661	0.371261	0.356602	-17.162720	2.065696	-6.200805	-0.130928	1.176063	1.527043	-0.616943	0.753662	-0.727783	0.176508	0.005062	0.002525	-0.090213	-0.075719	0.224864	-0.967246	-25.398151	-10.780590	171.779314
49357		17.586053	1.076041	-0.275525	-17.377118	1.559288	-7.342891	-0.033402	0.822252	1.494584	-0.596680	0.761963	-0.734375	0.175760	0.012074	-0.003480	-0.083876	-0.070020	0.225244	-0.968156	-25.526150	-9.983580	172.363957
49358		16.810847	1.918021	-0.905251	-16.880778	0.818469	-8.601435	0.061067	0.432512	1.402812	-0.585205	0.776855	-0.726074	0.167948	0.020361	-0.009410	-0.077509	-0.066354	0.225278	-0.968937	-25.600223	-9.410505	172.995493
49359		16.225033	2.876337	-0.700938	-16.470982	-0.375916	-9.052173	0.117415	-0.013858	1.217523	-0.590088	0.772461	-0.730469	0.162072	0.029754	-0.006981	-0.071514	-0.065077	0.225146	-0.969515	-25.640249	-9.113331	173.640765
49360		16.195275	3.195125	0.092272	-16.414865	-1.195438	-8.537998	0.123198	-0.379032	0.983125	-0.588135	0.780273	-0.736328	0.161791	0.032746	0.001249	-0.066239	-0.065834	0.225026	-0.969867	-25.669307	-9.062516	174.254624
49361		15.797067	3.076077	1.200580	-15.879919	-1.783382	-7.555084	0.126608	-0.585078	0.722507	-0.589600	0.788818	-0.722656	0.157822	0.031323	0.012487	-0.061996	-0.067890	0.224872	-0.970041	-25.684043	-9.183368	174.784069
49362		10.031925	-1.024359	0.088082	-9.695611	1.740730	-7.653833	0.833667	-1.116311	0.241202	-0.596680	0.791504	-0.720459	0.100325	-0.010128	0.001398	-0.059246	-0.073274	0.221277	-0.970648	-25.276294	-9.698618	175.193908
49363		-2.020352	1.789505	13.158759	3.356480	-7.482659	0.825736	1.006205	-1.569812	-0.143116	-0.607422	0.782959	-0.729248	-0.021223	0.017248	0.131512	-0.057795	-0.081342	0.216827	-0.971097	-24.758500	-10.547124	175.509321
49364		-7.735640	-4.427470	15.710906	10.427833	-3.326007	4.556281	0.806553	-1.210012	-0.701411	-0.623535	0.774902	-0.721680	-0.078460	-0.044633	0.156457	-0.059518	-0.088192	0.212995	-0.971243	-24.284850	-11.342058	175.434492
49365		-7.406765	1.638759	8.933247	8.341415	-5.840173	-4.011002	0.969125	-1.636781	-1.501486	-0.645508	0.774414	-0.721924	-0.074672	0.016516	0.088803	-0.064596	-0.098015	0.208128	-0.971032	-23.647842	-12.546962	175.024941
49366		2.201304	1.147759	9.786660	-0.610032	-4.906347	-1.009729	0.686540	-2.467520	-1.786066	-0.668945	0.761230	-0.712158	0.020902	0.010951	0.098167	-0.070316	-0.112048	0.204718	-0.969841	-23.168291	-14.248417	174.641541
49367		9.278374	-2.465034	13.575351	-5.728890	-2.514028	5.591737	0.302111	-2.458125	-1.438978	-0.687256	0.755859	-0.698730	0.090925	-0.025515	0.136841	-0.074563	-0.125527	0.203319	-0.968166	-22.943478	-15.865570	174.431802
49368		10.073728	-4.582024	12.018867	-6.011915	0.141623	5.377848	0.205503	-2.094051	-1.104589	-0.715088	0.751465	-0.694092	0.099216	-0.046495	0.121185	-0.077607	-0.136839	0.202425	-0.966580	-22.795044	-17.214535	174.314596
49369		8.852130	-2.748876	11.225761	-5.091660	-1.298858	3.763566	0.171283	-1.837732	-0.979411	-0.723145	0.745850	-0.685547	0.087349	-0.028015	0.113040	-0.080322	-0.146765	0.201658	-0.965061	-22.665472	-18.401215	174.203022
49370		8.473812	-2.614957	11.093978	-4.537740	-1.398317	3.572688	0.083447	-1.570163	-0.858110	-0.739014	0.740479	-0.680664	0.083750	-0.026557	0.111589	-0.082777	-0.155219	0.201277	-0.963609	-22.584983	-19.418295	174.093911
49371		8.162235	-2.417852	10.218685	-4.309829	-1.248897	2.707374	0.001614	-1.341788	-0.724889	-0.753174	0.747803	-0.670654	0.080846	-0.024473	0.102731	-0.084879	-0.162405	0.201284	-0.962239	-22.556338	-20.286560	174.004643
49372		6.778496	-2.311248	9.670229	-3.026991	-1.266592	1.764627	-0.100231	-1.187813	-0.624684	-0.770020	0.739746	-0.662354	0.067136	-0.023274	0.097114	-0.086731	-0.168687	0.201788	-0.960887	-22.592034	-21.049921	173.935460
49373		5.588799	-2.746930	9.193309	-1.819082	-0.812849	1.110957	-0.179362	-1.060679	-0.585132	-0.774658	0.741943	-0.656006	0.055319	-0.027549	0.092252	-0.088586	-0.174291	0.202641	-0.959537	-22.669436	-21.738992	173.859044
49374		5.051969	-3.214280	8.645957	-1.252448	-0.240067	0.626618	-0.222070	-0.997386	-0.585110	-0.786621	0.739502	-0.653076	0.049993	-0.032193	0.086745	-0.090537	-0.179552	0.203665	-0.958168	-22.765291	-22.393113	173.768359
49375		5.042928	-4.702960	8.738700	-0.733616	1.034646	1.246427	-0.213617	-0.876185	-0.555574	-0.802979	0.748047	-0.654297	0.049915	-0.047075	0.087657	-0.092463	-0.184214	0.204611	-0.956896	-22.850692	-22.978481	173.666034
49376		5.075375	-6.830058	8.346409	-0.239201	3.097962	1.694531	-0.089765	-0.765844	-0.514119	-0.814697	0.739990	-0.640137	0.050258	-0.068393	0.083688	-0.094183	-0.188345	0.204949	-0.955851	-22.863377	-23.494759	173.561018
49377		6.143062	-7.747530	7.290022	-1.219184	4.483641	1.559023	0.196425	-0.632829	-0.360262	-0.821289	0.739014	-0.639648	0.061060	-0.077657	0.073018	-0.095037	-0.191829	0.203997	-0.955277	-22.733495	-23.908257	173.511498
49378		4.132353	-4.860625	8.003606	0.164770	1.394846	0.325685	0.318472	-0.586721	-0.230794	-0.832764	0.732666	-0.630615	0.041032	-0.048781	0.080079	-0.095197	-0.195001	0.202563	-0.954924	-22.559030	-24.266955	173.524537
49379		4.104962	-2.996844	8.323123	-0.126043	-0.396696	-0.069356	0.331241	-0.520415	-0.347512	-0.839355	0.730713	-0.639893	0.040781	-0.030177	0.083288	-0.095972	-0.197993	0.200920	-0.954578	-22.342122	-24.617909	173.452438
49380		5.022725	-4.059834	7.730314	-0.814714	0.935116	0.183771	0.351391	-0.466953	-0.379218	-0.849854	0.729248	-0.627441	0.049969	-0.040829	0.077348	-0.096927	-0.200754	0.199121	-0.954282	-22.099414	-24.945320	173.347322
49381		5.525229	-2.854705	8.973275	-1.098597	-0.586006	1.033808	0.349673	-0.387378	-0.358800	-0.849365	0.726318	-0.625000	0.055027	-0.028803	0.089789	-0.097868	-0.203128	0.197311	-0.954059	-21.853544	-25.227491	173.233543
49382		5.116674	-2.248456	8.909769	-0.866624	-1.117906	0.609352	0.239484	-0.248452	-0.374455	-0.859131	0.711182	-0.624512	0.051014	-0.022687	0.089134	-0.099129	-0.204784	0.195940	-0.953858	-21.651808	-25.436824	173.076470
49383		4.216342	-3.042979	8.827406	0.163433	-0.438007	0.421649	0.195668	-0.217583	-0.315605	-0.865234	0.708008	-0.624512	0.042019	-0.030583	0.088290	-0.100186	-0.206227	0.194822	-0.953665	-21.486097	-25.618741	172.945917
49384		4.730588	-2.907524	8.675289	-0.355526	-0.419322	0.472762	0.177191	-0.180714	-0.260781	-0.871582	0.704102	-0.618652	0.047189	-0.029214	0.086770	-0.101034	-0.207416	0.193829	-0.953520	-21.340714	-25.767319	172.838560
49385		4.452617	-3.108552	8.662658	-0.029024	-0.245720	0.408332	0.135470	-0.165273	-0.227884	-0.876709	0.696045	-0.620605	0.044419	-0.031195	0.086642	-0.101786	-0.208493	0.193061	-0.953361	-21.225655	-25.902488	172.746606
49386		4.473756	-3.368474	8.342178	-0.066872	0.138405	0.233673	0.133051	-0.148588	-0.207734	-0.881348	0.694092	-0.620850	0.044641	-0.033787	0.083433	-0.102457	-0.209454	0.192317	-0.953229	-21.115259	-26.022512	172.662435
49387		5.116763	-2.978470	8.492364	-0.669804	-0.187537	0.516346	0.129836	-0.150506	-0.202685	-0.876953	0.689697	-0.620850	0.051073	-0.029892	0.084943	-0.103109	-0.210433	0.191594	-0.953089	-21.007829	-26.144288	172.581324
49388		4.741606	-3.266700	8.566924	-0.206191	0.012225	0.507372	0.096884	-0.148393	-0.178794	-0.885498	0.679688	-0.616699	0.047323	-0.032751	0.085689	-0.103680	-0.211346	0.191052	-0.952934	-20.925154	-26.258006	172.513719
49389		4.850698	-2.931127	8.326282	-0.461725	-0.169974	0.247413	0.098693	-0.150891	-0.183646	-0.889160	0.675049	-0.615967	0.048417	-0.029397	0.083285	-0.104273	-0.212292	0.190496	-0.952770	-20.840078	-26.375904	172.443479
49390		4.841806	-3.490911	8.272067	-0.296092	0.368850	0.377154	0.082249	-0.121927	-0.195566	-0.891357	0.679443	-0.607910	0.048333	-0.034990	0.082736	-0.104964	-0.213087	0.189992	-0.952617	-20.758184	-26.478681	172.359326
49391		4.493137	-3.691332	8.298205	0.099795	0.509413	0.306843	0.086969	-0.116183	-0.214663	-0.901123	0.661621	-0.605225	0.044843	-0.036998	0.082992	-0.105750	-0.213891	0.189440	-0.952460	-20.667547	-26.584109	172.262129
49392		4.263618	-3.658268	7.952313	0.187275	0.605270	-0.096764	0.113518	-0.109502	-0.237543	-0.903076	0.657471	-0.604248	0.042549	-0.036678	0.079526	-0.106620	-0.214681	0.188735	-0.952325	-20.554677	-26.688441	172.149457
49393		4.339213	-3.379086	8.344613	0.206619	0.217856	0.176775	0.118791	-0.099210	-0.259783	-0.908691	0.658203	-0.605713	0.043307	-0.033897	0.083448	-0.107602	-0.215463	0.187974	-0.952189	-20.431320	-26.793481	172.020719
49394		4.273079	-3.074389	8.234695	0.158159	-0.005194	-0.040473	0.128750	-0.101851	-0.276542	-0.909912	0.651611	-0.601807	0.042646	-0.030856	0.082349	-0.108647	-0.216262	0.187149	-0.952051	-20.297656	-26.901045	171.882147
49395		4.825276	-2.971287	8.264345	-0.326874	-0.023567	0.202490	0.122376	-0.096938	-0.266969	-0.916992	0.643311	-0.598633	0.048173	-0.029828	0.082649	-0.109661	-0.217040	0.186362	-0.951912	-20.169277	-27.005765	171.747804
49396		4.469333	-3.066272	8.450643	0.104262	-0.041238	0.226122	0.113666	-0.099874	-0.253352	-0.916260	0.632813	-0.594727	0.044612	-0.030767	0.084511	-0.110614	-0.217798	0.185632	-0.951772	-20.049617	-27.107146	171.622012
49397		4.635804	-2.852154	8.404780	-0.101390	-0.179815	0.198463	0.106180	-0.100945	-0.255005	-0.926758	0.634521	-0.597168	0.046279	-0.028625	0.084056	-0.111585	-0.218575	0.184936	-0.951616	-19.933447	-27.211188	171.495052
49398		4.660159	-2.839868	8.370439	-0.119239	-0.159139	0.177637	0.104941	-0.108594	-0.237217	-0.927002	0.610840	-0.606201	0.046522	-0.028498	0.083715	-0.112462	-0.219354	0.184270	-0.951462	-19.823423	-27.313671	171.380260
49399		4.214403	-3.288246	8.472182	0.464007	0.160849	0.192831	0.106631	-0.130026	-0.220113	-0.931152	0.614990	-0.594727	0.042053	-0.032974	0.084732	-0.113239	-0.220237	0.183625	-0.951291	-19.718901	-27.426210	171.280139
49400		4.702266	-3.100638	8.184355	-0.106007	0.184782	0.120262	0.116357	-0.136081	-0.235016	-0.936768	0.602783	-0.595215	0.046930	-0.031109	0.081857	-0.114067	-0.221150	0.182921	-0.951116	-19.605008	-27.542713	171.171992
49401		4.473895	-3.205786	8.148090	0.135239	0.277706	0.015267	0.119580	-0.145064	-0.238974	-0.937500	0.598633	-0.584473	0.044641	-0.032160	0.081494	-0.114905	-0.222128	0.182202	-0.950925	-19.488565	-27.666637	171.062933
49402		4.792690	-2.950540	8.385345	-0.105937	0.010547	0.285737	0.121745	-0.139936	-0.251578	-0.941162	0.595703	-0.586670	0.047831	-0.029617	0.083869	-0.115802	-0.223077	0.181456	-0.950737	-19.366499	-27.787986	170.944729
49403		4.833927	-2.694292	8.127468	-0.292890	-0.098357	0.015143	0.123768	-0.151259	-0.262276	-0.956055	0.581787	-0.571533	0.048242	-0.027057	0.081294	-0.116740	-0.224107	0.180694	-0.950525	-19.240810	-27.919271	170.821909
49404		4.844771	-3.206636	7.979133	-0.178785	0.441550	0.046008	0.107121	-0.157638	-0.260599	-0.949951	0.581055	-0.573486	0.048343	-0.032172	0.079812	-0.117680	-0.225139	0.180016	-0.950294	-19.125422	-28.051451	170.701084
49405		4.768388	-2.489861	8.326628	-0.170509	-0.342053	0.093044	0.126212	-0.157212	-0.280155	-0.956543	0.573975	-0.573242	0.047583	-0.025018	0.083288	-0.118694	-0.226214	0.179225	-0.950062	-18.992810	-28.188864	170.567620
49406		4.309057	-3.221627	8.277929	0.461023	0.290098	0.045009	0.118692	-0.171270	-0.268826	-0.968750	0.557861	-0.561523	0.042976	-0.032323	0.082797	-0.119646	-0.227323	0.178490	-0.949816	-18.868789	-28.329490	170.443641
49407		3.959708	-2.914490	8.657485	0.845502	-0.174854	0.105985	0.125751	-0.181841	-0.284371	-0.967529	0.549072	-0.549561	0.039477	-0.029256	0.086592	-0.120658	-0.228517	0.177710	-0.949548	-18.736572	-28.480511	170.311697
49408		4.430445	-2.901369	8.347056	0.342400	0.019150	0.066706	0.128751	-0.216988	-0.284523	-0.971191	0.536865	-0.548584	0.044172	-0.029130	0.083500	-0.121633	-0.229862	0.176936	-0.949243	-18.605616	-28.648336	170.186482
49409		3.938847	-3.151025	8.516664	0.945562	0.119350	0.039652	0.129992	-0.242489	-0.283755	-0.982666	0.532959	-0.541748	0.039240	-0.031621	0.085194	-0.122582	-0.231344	0.176172	-0.948903	-18.475951	-28.831628	170.066321
49410		5.123376	-2.787651	8.237863	-0.264923	0.092095	0.277087	0.161128	-0.272375	-0.283558	-0.970703	0.512451	-0.535889	0.051082	-0.028015	0.082426	-0.123465	-0.232969	0.175278	-0.948556	-18.330926	-29.028875	169.951819
49411		4.873654	-2.256890	8.341776	-0.136653	-0.452470	0.097293	0.183040	-0.307998	-0.269671	-0.980713	0.520996	-0.516846	0.048577	-0.022711	0.083472	-0.124227	-0.234780	0.174317	-0.948187	-18.180239	-29.244745	169.852400
49412		5.002008	-2.464477	8.339061	-0.140584	-0.229983	0.215316	0.135547	-0.344653	-0.254439	-0.984131	0.505127	-0.509033	0.049845	-0.024765	0.083460	-0.124937	-0.236704	0.173622	-0.947743	-18.064508	-29.475666	169.769282
49413		4.949773	-2.471159	8.201580	-0.105907	-0.168467	0.078370	0.135321	-0.355891	-0.262464	-0.980225	0.485352	-0.504883	0.049319	-0.024832	0.082087	-0.125679	-0.238704	0.172924	-0.947271	-17.946732	-29.715988	169.682597
49414		4.676384	-2.853255	8.143599	0.270110	0.168227	-0.003182	0.130065	-0.361378	-0.259151	-0.987793	0.490479	-0.492676	0.046580	-0.028646	0.081502	-0.126402	-0.240706	0.172257	-0.946790	-17.833024	-29.956562	169.598438
49415		4.642784	-2.830111	8.278654	0.390952	0.099379	0.083685	0.131696	-0.348421	-0.279845	-0.992432	0.482666	-0.481689	0.046244	-0.028420	0.082849	-0.127235	-0.242681	0.171549	-0.946303	-17.709666	-30.195539	169.497737
49416		4.895751	-2.770692	8.070892	0.113743	0.177215	0.022957	0.154401	-0.338634	-0.284926	-0.986572	0.471191	-0.468018	0.048781	-0.027839	0.080770	-0.128069	-0.244610	0.170720	-0.945843	-17.570056	-30.427849	169.391082
49417		4.886951	-3.025555	8.029356	0.231167	0.436694	0.049488	0.156757	-0.346930	-0.302224	-0.989502	0.470459	-0.469971	0.048684	-0.030392	0.080354	-0.128977	-0.246610	0.169863	-0.945355	-17.423340	-30.669439	169.274078
49418		5.068025	-2.792565	8.179648	0.111288	0.210762	0.203944	0.169704	-0.352227	-0.327985	-0.982910	0.466553	-0.444092	0.050490	-0.028078	0.081862	-0.129983	-0.248647	0.168915	-0.944853	-17.260548	-30.916055	169.140775
49419		4.977720	-2.946149	8.165767	0.282178	0.356926	0.183811	0.173368	-0.395315	-0.359304	-0.986816	0.451904	-0.450928	0.049563	-0.029621	0.081730	-0.131098	-0.250931	0.167938	-0.944269	-17.088427	-31.193217	168.994670
49420		5.036663	-2.783769	8.320427	0.300201	0.175841	0.297975	0.180592	-0.433928	-0.385527	-0.996338	0.451172	-0.425293	0.050132	-0.028010	0.083288	-0.132291	-0.253406	0.166918	-0.943622	-16.906127	-31.493544	168.837965
49421		4.785527	-2.843379	8.407255	0.628487	0.171404	0.249284	0.179017	-0.482686	-0.419856	-0.988770	0.445313	-0.409912	0.047592	-0.028609	0.084162	-0.133609	-0.256152	0.165893	-0.942876	-16.716339	-31.827853	168.666863
49422		4.647210	-2.785057	8.667659	0.905218	0.010364	0.368740	0.173346	-0.557005	-0.433534	-0.989746	0.434570	-0.407227	0.046170	-0.028026	0.086781	-0.134932	-0.259237	0.164924	-0.942014	-16.530934	-32.202741	168.499422
49423		4.626640	-2.693174	8.612182	0.940879	-0.043699	0.283895	0.161079	-0.626246	-0.460785	-0.995605	0.424316	-0.399414	0.045934	-0.027107	0.086244	-0.136343	-0.262675	0.164022	-0.941015	-16.347901	-32.621584	168.325291
49424		4.964771	-2.384683	8.785546	0.717412	-0.323621	0.526626	0.144204	-0.730549	-0.478503	-0.999023	0.420898	-0.392334	0.049269	-0.024028	0.088019	-0.137770	-0.266585	0.163245	-0.939842	-16.176739	-33.098240	168.157166
49425		5.244509	-2.478878	8.623059	0.541847	-0.123231	0.565040	0.135573	-0.845689	-0.490515	-0.997070	0.410400	-0.369385	0.052019	-0.024975	0.086434	-0.139170	-0.271050	0.162568	-0.938475	-16.015356	-33.641671	168.000288
49426		5.178500	-2.159519	8.603434	0.580434	-0.414425	0.433765	0.166017	-0.948025	-0.509551	-1.001465	0.403320	-0.358154	0.051321	-0.021798	0.086260	-0.140528	-0.276010	0.161789	-0.936960	-15.837488	-34.242194	167.847286
49427		5.684390	-2.043845	8.390192	0.147164	-0.349890	0.518797	0.153038	-1.073933	-0.517686	-0.999512	0.405762	-0.346924	0.056339	-0.020649	0.084190	-0.141839	-0.281563	0.161143	-0.935220	-15.673989	-34.914890	167.709175
49428		5.293393	-1.998071	8.731937	0.736430	-0.594713	0.548853	0.127457	-1.172866	-0.536469	-1.011475	0.393555	-0.324219	0.052367	-0.020177	0.087615	-0.143186	-0.287549	0.160654	-0.933276	-15.525420	-35.642905	167.573736
49429		5.483089	-2.503506	8.335831	0.711963	0.039422	0.449266	0.113559	-1.285405	-0.577258	-1.012695	0.391846	-0.317139	0.054221	-0.025240	0.083694	-0.144648	-0.294085	0.160244	-0.931082	-15.377095	-36.440837	167.427907
49430		4.792838	-2.582839	8.663717	1.595513	-0.147181	0.293400	0.121982	-1.394816	-0.606411	-1.013184	0.385010	-0.294434	0.047244	-0.026025	0.086952	-0.146136	-0.301129	0.159822	-0.928667	-15.220265	-37.301497	167.278544
49431		5.517865	-2.670801	8.096350	0.934100	0.264557	0.296023	0.130272	-1.507484	-0.659634	-1.017578	0.392090	-0.278320	0.054478	-0.026941	0.081358	-0.147762	-0.308741	0.159354	-0.925987	-15.043810	-38.233839	167.108149
49432		5.425129	-2.699380	8.722837	1.520401	0.017049	0.698814	0.139286	-1.635437	-0.696872	-1.019775	0.372559	-0.257080	0.053441	-0.027242	0.087649	-0.149431	-0.316943	0.158870	-0.923026	-14.854980	-39.240325	166.929637
49433		5.401592	-2.649350	8.684300	1.694144	-0.035259	0.615080	0.169000	-1.821746	-0.741804	-1.020020	0.368408	-0.236328	0.053123	-0.026765	0.087307	-0.151101	-0.326050	0.158303	-0.919674	-14.643578	-40.357786	166.746645
49434		5.601177	-2.796857	9.282527	2.156283	-0.121533	1.173276	0.208369	-2.073498	-0.787657	-1.026123	0.353760	-0.211914	0.054935	-0.028283	0.093369	-0.152700	-0.336330	0.157653	-0.915811	-14.410378	-41.619232	166.569051
49435		5.340687	-3.914032	9.712793	3.283566	0.647480	1.455527	0.235197	-2.349970	-0.857729	-1.039063	0.349854	-0.188721	0.052092	-0.039480	0.097699	-0.154337	-0.347917	0.156951	-0.911318	-14.151186	-43.045065	166.380461
49436		5.653987	-4.589294	8.822660	3.101039	1.633599	1.076506	0.318257	-2.686393	-1.024067	-1.028564	0.340820	-0.158936	0.055112	-0.046319	0.088900	-0.156294	-0.361156	0.155812	-0.906014	-13.785992	-44.678622	166.112756
49437		5.350421	-4.915285	9.328499	4.083927	1.647921	1.160072	0.313923	-3.021827	-1.254768	-1.025391	0.331055	-0.122314	0.051777	-0.049628	0.093998	-0.159005	-0.376015	0.154502	-0.899700	-13.314143	-46.529912	165.700452
49438		4.845906	-5.522683	9.389233	5.082790	2.054199	0.773615	0.328409	-3.388554	-1.533991	-1.033936	0.311523	-0.087402	0.046434	-0.055743	0.094599	-0.162612	-0.392623	0.152845	-0.892212	-12.674528	-48.617674	165.085350
49439		5.580303	-3.720769	10.001395	4.703573	0.278960	1.268344	0.350701	-3.751375	-1.819518	-1.039795	0.294189	-0.052734	0.053572	-0.037878	0.100967	-0.167108	-0.410940	0.150765	-0.883444	-11.816538	-50.938820	164.221392
49440		5.849060	-4.150949	10.161410	5.319123	0.610548	1.412412	0.333789	-4.113335	-2.070099	-1.027344	0.287598	-0.004883	0.055951	-0.042268	0.102712	-0.172392	-0.430824	0.148472	-0.873286	-10.728103	-53.480553	163.083023
49441		6.109632	-2.599192	9.830587	4.802624	-0.639067	1.014167	0.381950	-4.490736	-2.316020	-1.023682	0.254395	0.034424	0.058562	-0.026869	0.099589	-0.178263	-0.452331	0.145680	-0.861624	-9.297925	-56.244672	161.598811
49442		7.220528	-3.783299	10.153218	5.557375	0.435365	1.952625	0.275402	-4.761278	-2.493864	-1.018311	0.233398	0.083008	0.069282	-0.038850	0.103152	-0.184824	-0.474725	0.143085	-0.848530	-7.546482	-59.151623	159.710905
49443		8.660928	-2.110428	11.238309	5.601771	-1.313921	3.325344	0.162433	-4.922968	-2.668816	-1.009277	0.220459	0.127930	0.083516	-0.022325	0.114447	-0.192139	-0.497470	0.140597	-0.834169	-5.326038	-62.125900	157.267648
49444		8.267547	-1.492751	9.626108	4.922850	-1.325260	1.900892	-0.145004	-5.182785	-2.828085	-0.995361	0.184082	0.171387	0.079923	-0.016000	0.098368	-0.200542	-0.520701	0.139127	-0.818106	-2.568366	-65.200128	154.096151
49445		11.277422	-1.437310	11.830094	6.264717	-1.910994	5.228141	-0.580336	-5.246043	-2.902062	-0.971924	0.156250	0.212646	0.109399	-0.015628	0.121244	-0.210157	-0.543343	0.139186	-0.800774	0.843730	-68.231918	150.018037
49446		7.053810	-2.197519	8.702702	6.141769	-0.784547	-0.223726	-0.970175	-5.275491	-3.031617	-0.951660	0.136475	0.254150	0.067869	-0.022589	0.088949	-0.221136	-0.565280	0.140354	-0.782214	5.407285	-71.158267	144.558639
49447		8.560704	-4.471945	9.734467	8.337475	0.773199	1.044236	-1.162668	-5.336921	-3.111791	-0.928467	0.113281	0.305176	0.082262	-0.045441	0.099833	-0.232713	-0.586752	0.141983	-0.762501	11.784605	-73.920852	137.174804
49448		12.090852	-7.025592	9.095075	9.174959	3.689843	3.618077	-1.011409	-5.182211	-3.172481	-0.906006	0.080078	0.332520	0.117363	-0.071665	0.094383	-0.243965	-0.607288	0.142537	-0.742540	20.888531	-76.268567	127.155033
49449		12.325298	-5.512289	10.082191	9.957640	1.754822	3.664711	-0.825186	-4.628324	-3.237233	-0.877197	0.059326	0.371826	0.119964	-0.056658	0.103855	-0.255068	-0.625501	0.141407	-0.723666	32.807579	-77.807824	114.439779
49450		7.349669	-4.157921	6.133566	6.938190	1.600042	-2.183504	-1.027160	-3.922930	-3.260301	-0.846436	0.032959	0.388916	0.071585	-0.042436	0.062969	-0.267200	-0.640462	0.139926	-0.706282	45.833863	-78.369860	100.525579
49451		12.402743	6.110074	11.623653	5.968885	-8.804893	4.785402	-1.532884	-2.927019	-3.384244	-0.829346	-0.003662	0.400879	0.123334	0.059908	0.117583	-0.281915	-0.650914	0.138425	-0.691139	56.948945	-77.902576	88.269237
49452		27.824455	-1.290026	24.789926	21.239047	-6.892375	20.050320	-3.081536	0.692328	-2.989731	-0.835205	-0.029785	0.381104	0.278905	-0.013255	0.247137	-0.302672	-0.646078	0.138379	-0.686895	57.739531	-76.249969	85.644026
49453		10.910675	-13.069192	13.346262	18.684966	4.904661	-0.077147	-3.528309	3.139889	-2.543494	-0.848633	-0.068848	0.334961	0.109554	-0.129722	0.134039	-0.324848	-0.631451	0.137530	-0.690528	53.217632	-74.033338	88.226576
49454		2.824677	-16.839714	7.855987	16.723991	8.571368	-9.492036	-2.366690	3.997886	-2.099178	-0.854736	-0.087646	0.290283	0.028073	-0.167751	0.079985	-0.342194	-0.615027	0.132579	-0.697903	48.546935	-71.657626	91.691700
49455		0.038550	-15.234621	6.165495	14.536478	7.337624	-12.038824	-1.117697	3.941055	-1.342837	-0.871094	-0.097412	0.240479	0.000590	-0.152002	0.062495	-0.352827	-0.600071	0.125634	-0.706856	44.718074	-69.550474	95.066982
49456		-0.176106	-13.356043	5.416601	12.803854	6.303795	-11.831468	-0.267291	3.646351	-0.235512	-0.894043	-0.109863	0.211426	-0.000928	-0.133486	0.054366	-0.356675	-0.586743	0.119460	-0.717109	41.147120	-67.931233	98.730924
49457		0.138550	-11.355065	5.679673	11.671480	4.910755	-10.744540	0.163006	3.364475	1.047734	-0.909912	-0.099121	0.166016	0.002934	-0.113584	0.056663	-0.354367	-0.574208	0.115994	-0.728872	37.175527	-66.817694	103.129286
49458		0.673497	-9.941052	6.281991	11.101023	3.914695	-9.401979	0.317102	3.183542	2.262732	-0.928467	-0.070801	0.138428	0.008857	-0.099418	0.062533	-0.346971	-0.561729	0.115712	-0.742080	32.512088	-66.063118	108.411387
49459		1.120113	-8.841805	6.681266	10.527402	3.266019	-8.213532	0.381522	3.149328	3.256803	-0.956787	-0.030762	0.099121	0.013688	-0.088336	0.066442	-0.335517	-0.548625	0.118017	-0.756644	27.115917	-65.425563	114.563130
49460		1.649964	-7.508076	6.834034	9.538990	2.602605	-6.982755	0.405307	3.306503	3.909197	-0.981934	-0.013184	0.073730	0.019089	-0.074862	0.067887	-0.321437	-0.534293	0.121661	-0.772275	21.278666	-64.615883	121.254497
49461		0.865445	-5.686996	6.724962	8.313296	1.184856	-7.023083	0.421041	3.555209	4.219724	-1.009277	0.037354	0.027588	0.011045	-0.056795	0.066948	-0.306025	-0.518414	0.125616	-0.788554	15.460066	-63.441354	127.987195
49462		0.991868	-2.994425	7.007639	6.671203	-0.853707	-6.096426	0.234436	3.783732	4.240069	-1.028809	0.083008	-0.005127	0.011874	-0.029788	0.069829	-0.290931	-0.500967	0.129881	-0.804688	10.071028	-61.862268	134.200719
49463		1.439064	-1.549182	7.209691	5.619861	-1.843304	-5.180298	-0.147694	3.978544	4.092010	-1.044922	0.116699	-0.063477	0.016133	-0.015120	0.071799	-0.277266	-0.481822	0.134952	-0.820219	5.241848	-59.909406	139.623213
49464		1.951135	-1.370637	7.022170	4.954556	-1.661363	-4.551744	-0.566249	4.100430	3.815664	-1.051758	0.154785	-0.114014	0.021200	-0.013115	0.069836	-0.265615	-0.461441	0.140767	-0.834689	1.086577	-57.682490	144.097310
