// General information: 
//  MT Manager version: 2019.2.0 
//  XDA version: 2019.2.0 build 3853 rev 94535 built on 2019-09-09
// Device information: 
//  DeviceId: 00B47793
//  ProductCode: MTW2-3A7G6
//  Firmware Version: 4.6.0
//  Hardware Version: 2.0.0
// Device settings: 
//  Filter Profile: human(46.1)
//  Option Flags: Orientation Smoother Disabled, AHS Disabled, ICC Disabled
// Coordinate system: ENU
PacketCounter	SampleTimeFine	Acc_X	Acc_Y	Acc_Z	FreeAcc_E	FreeAcc_N	FreeAcc_U	Gyr_X	Gyr_Y	Gyr_Z	Mag_X	Mag_Y	Mag_Z	VelInc_X	VelInc_Y	VelInc_Z	Quat_q0	Quat_q1	Quat_q2	Quat_q3	Roll	Pitch	Yaw
14096		4.228583	-2.949991	8.327219	-0.017400	0.049404	-0.018649	0.001781	-0.001052	-0.006357	-0.826416	0.492920	-0.668945	0.042284	-0.029502	0.083272	-0.274783	-0.168879	0.212071	-0.922497	-19.284338	-25.348760	151.201871
14097		4.236648	-2.910211	8.409292	-0.030869	-0.017360	0.042943	0.002661	-0.003625	-0.007671	-0.835449	0.490723	-0.673828	0.042364	-0.029105	0.084093	-0.274773	-0.168889	0.212086	-0.922494	-19.286253	-25.350194	151.203543
14098		4.242220	-2.944083	8.367122	-0.024114	0.030874	0.019466	0.000112	0.001051	-0.006271	-0.825439	0.497314	-0.679688	0.042422	-0.029442	0.083671	-0.274767	-0.168871	0.212107	-0.922495	-19.289375	-25.348628	151.204720
14099		4.183953	-2.938505	8.355529	0.016143	0.006536	-0.017034	0.000327	-0.000616	-0.005667	-0.825684	0.486328	-0.668945	0.041838	-0.029386	0.083555	-0.274762	-0.168860	0.212131	-0.922493	-19.292691	-25.347969	151.205830
14100		4.242958	-2.927237	8.424676	-0.023799	-0.010155	0.063846	0.001659	-0.002429	-0.009502	-0.834473	0.488037	-0.669922	0.042427	-0.029275	0.084247	-0.274766	-0.168863	0.212146	-0.922487	-19.294410	-25.348895	151.205801
14101		4.210269	-2.943608	8.377863	0.002437	0.010548	0.014808	0.003470	0.000936	-0.010173	-0.828613	0.495117	-0.673096	0.042102	-0.029440	0.083778	-0.274802	-0.168851	0.212153	-0.922477	-19.294540	-25.348507	151.201371
14102		4.263478	-2.930070	8.374162	-0.048334	0.025222	0.030390	0.003686	-0.000730	-0.009569	-0.822998	0.491455	-0.670166	0.042633	-0.029304	0.083741	-0.274806	-0.168850	0.212157	-0.922476	-19.294929	-25.348528	151.200946
14103		4.210926	-2.942260	8.378007	0.001060	0.009555	0.014810	0.002448	-0.001960	-0.008275	-0.828369	0.494873	-0.674561	0.042107	-0.029425	0.083780	-0.274803	-0.168852	0.212170	-0.922473	-19.296586	-25.349100	151.201597
14104		4.196689	-2.971729	8.386555	0.031017	0.021431	0.024805	0.003686	-0.000731	-0.009569	-0.826904	0.498779	-0.674805	0.041965	-0.029721	0.083865	-0.274807	-0.168850	0.212174	-0.922471	-19.296974	-25.349121	151.201172
14105		4.249926	-2.958101	8.382864	-0.019766	0.036067	0.040381	0.004925	0.000498	-0.010864	-0.825195	0.500977	-0.669678	0.042498	-0.029585	0.083828	-0.274810	-0.168848	0.212169	-0.922472	-19.296383	-25.348786	151.200728
14106		4.211931	-2.940128	8.378250	-0.001025	0.008077	0.014811	0.001445	-0.000765	-0.010106	-0.827637	0.489502	-0.667480	0.042118	-0.029404	0.083782	-0.274818	-0.168844	0.212183	-0.922467	-19.297922	-25.348927	151.199989
14107		4.232511	-2.927582	8.385111	-0.023229	0.003850	0.025728	0.003668	-0.004823	-0.005839	-0.829834	0.489990	-0.679199	0.042322	-0.029279	0.083852	-0.274794	-0.168860	0.212197	-0.922468	-19.299896	-25.350669	151.203468
14108		4.212789	-2.938859	8.378264	-0.002400	0.007058	0.014812	0.005713	0.000967	-0.009637	-0.820801	0.493652	-0.676514	0.042127	-0.029393	0.083782	-0.274799	-0.168854	0.212189	-0.922469	-19.298954	-25.349785	151.202647
14109		4.213201	-2.938234	8.378276	-0.003094	0.006590	0.014812	-0.000365	-0.004131	-0.009433	-0.820557	0.495850	-0.681152	0.042129	-0.029384	0.083784	-0.274808	-0.168861	0.212216	-0.922459	-19.301920	-25.351572	151.202255
14110		4.219329	-2.955889	8.393548	0.005329	0.014777	0.035734	0.001877	-0.004098	-0.008897	-0.825195	0.491943	-0.687012	0.042190	-0.029562	0.083936	-0.274807	-0.168871	0.212234	-0.922453	-19.303819	-25.353287	151.202938
14111		4.219904	-2.955277	8.393474	0.004596	0.014337	0.035735	0.003116	-0.002869	-0.010192	-0.825684	0.498779	-0.669922	0.042196	-0.029556	0.083935	-0.274808	-0.168878	0.212240	-0.922450	-19.304431	-25.354271	151.203006
14112		4.234968	-2.924544	8.384930	-0.026739	0.001484	0.025719	0.002449	-0.001962	-0.008274	-0.825928	0.493164	-0.670898	0.042348	-0.029248	0.083849	-0.274806	-0.168879	0.212253	-0.922448	-19.305970	-25.354713	151.203615
14113		4.215245	-2.936000	8.378031	-0.005903	0.004656	0.014812	0.001446	-0.000767	-0.010105	-0.825928	0.494385	-0.669922	0.042151	-0.029363	0.083780	-0.274805	-0.168878	0.212267	-0.922445	-19.307749	-25.354998	151.204041
14114		4.228425	-2.946674	8.360331	-0.013643	0.026694	0.008550	0.001428	-0.004858	-0.006375	-0.829102	0.495850	-0.672607	0.042281	-0.029469	0.083604	-0.274792	-0.168889	0.212289	-0.922442	-19.310621	-25.356646	151.206394
14115		4.242064	-2.941085	8.400104	-0.019698	0.008613	0.046642	0.004554	-0.007397	-0.007152	-0.823242	0.494385	-0.677734	0.042416	-0.029414	0.084002	-0.274775	-0.168919	0.212302	-0.922439	-19.311908	-25.359988	151.209207
14116		4.235122	-2.963604	8.375576	-0.005914	0.034355	0.029480	0.002805	0.001839	-0.008256	-0.833252	0.498535	-0.671631	0.042351	-0.029639	0.083755	-0.274776	-0.168903	0.212307	-0.922440	-19.312907	-25.358371	151.209029
14117		4.235400	-2.962958	8.375663	-0.006609	0.033844	0.029481	0.003905	-0.002400	-0.008965	-0.824951	0.494629	-0.673584	0.042352	-0.029633	0.083757	-0.274770	-0.168910	0.212313	-0.922439	-19.313618	-25.359262	151.209975
14118		4.223169	-2.951040	8.393323	-0.000256	0.010839	0.035741	0.004355	-0.001642	-0.011486	-0.827881	0.496826	-0.674072	0.042229	-0.029515	0.083933	-0.274782	-0.168916	0.212313	-0.922435	-19.313214	-25.360140	151.208595
14119		4.225248	-2.925129	8.344928	-0.026202	0.015521	-0.012381	0.005143	-0.001172	-0.010259	-0.825928	0.495117	-0.665771	0.042250	-0.029256	0.083449	-0.274781	-0.168920	0.212311	-0.922434	-19.312770	-25.360590	151.208583
14120		4.203976	-2.961272	8.386605	0.019882	0.013561	0.024848	0.005810	-0.002080	-0.012177	-0.832275	0.493164	-0.677979	0.042037	-0.029618	0.083866	-0.274794	-0.168931	0.212304	-0.922430	-19.311395	-25.361834	151.206881
14121		4.204416	-2.960416	8.386686	0.019210	0.013046	0.024850	0.003689	-0.000736	-0.009569	-0.828125	0.486816	-0.668213	0.042042	-0.029608	0.083866	-0.274802	-0.168930	0.212310	-0.922427	-19.311897	-25.362067	151.206083
14122		4.257926	-2.946738	8.382806	-0.031602	0.027648	0.040377	0.003215	-0.005918	-0.012730	-0.829590	0.488770	-0.666260	0.042575	-0.029471	0.083829	-0.274815	-0.168955	0.212320	-0.922416	-19.312211	-25.365492	151.204855
14123		4.212908	-2.951716	8.353586	0.001737	0.025908	-0.002338	0.009058	-0.003240	-0.009809	-0.833252	0.479492	-0.662109	0.042126	-0.029523	0.083535	-0.274836	-0.168971	0.212307	-0.922410	-19.309666	-25.367309	151.201960
14124		4.226545	-2.945564	8.393547	-0.004347	0.007847	0.035743	0.005458	-0.005885	-0.012194	-0.836670	0.484863	-0.654785	0.042261	-0.029461	0.083936	-0.274845	-0.168998	0.212308	-0.922402	-19.308829	-25.370615	151.201045
14125		4.227370	-2.944666	8.393446	-0.004910	0.007299	0.035743	0.004004	-0.005449	-0.011503	-0.847412	0.474121	-0.657227	0.042270	-0.029451	0.083935	-0.274902	-0.169017	0.212325	-0.922378	-19.308915	-25.374404	151.194430
14126		4.235320	-2.936738	8.360337	-0.021745	0.020676	0.008550	0.006697	-0.004657	-0.013489	-0.852295	0.468750	-0.647461	0.042349	-0.029373	0.083603	-0.274918	-0.169042	0.212317	-0.922370	-19.306926	-25.377292	151.192482
14127		4.374842	-2.908824	8.341791	-0.151221	0.069117	0.044205	0.003548	-0.006545	-0.018395	-0.850586	0.472168	-0.633789	0.043743	-0.029094	0.083419	-0.274975	-0.169074	0.212326	-0.922345	-19.305664	-25.382468	151.185645
14128		5.574540	-1.624417	8.058931	-1.897133	-0.243798	-0.065788	0.038382	-0.006820	-0.068136	-0.860107	0.463135	-0.631104	0.055737	-0.016279	0.080588	-0.275214	-0.169211	0.212129	-0.922294	-19.271687	-25.396868	151.151437
14129		5.639598	-1.800182	8.017076	-1.851635	-0.058529	-0.020484	0.025325	0.002208	-0.037410	-0.862793	0.464111	-0.632813	0.056393	-0.018023	0.080168	-0.275331	-0.169256	0.212006	-0.922279	-19.252334	-25.400683	151.133731
14130		5.375195	-2.453864	8.038782	-1.257401	0.313844	0.079563	0.017597	0.003283	-0.040848	-0.867432	0.462402	-0.621582	0.053748	-0.024557	0.080385	-0.275472	-0.169288	0.211913	-0.922252	-19.236356	-25.404440	151.113735
14131		4.948922	-2.320938	8.190839	-0.966149	-0.044407	-0.013045	0.015607	0.010091	-0.038830	-0.873535	0.461426	-0.615479	0.049489	-0.023225	0.081904	-0.275613	-0.169285	0.211823	-0.922232	-19.221475	-25.404290	151.093516
14132		4.792117	-2.765914	8.225841	-0.575542	0.209900	0.081948	0.024773	0.000055	-0.038027	-0.882080	0.458496	-0.606445	0.047916	-0.027678	0.082255	-0.275731	-0.169339	0.211705	-0.922214	-19.202397	-25.409252	151.075881
14133		4.489463	-2.827227	8.183908	-0.307686	0.146754	-0.065450	0.015524	0.017562	-0.030614	-0.886230	0.452148	-0.594482	0.044897	-0.028285	0.081833	-0.275841	-0.169293	0.211612	-0.922210	-19.188996	-25.403523	151.059017
14134		4.208926	-2.928703	8.319063	-0.000242	0.038048	-0.040394	0.020670	0.012641	-0.027723	-0.885010	0.440674	-0.591797	0.042090	-0.029301	0.083185	-0.275929	-0.169273	0.211503	-0.922213	-19.173792	-25.399725	151.044930
14135		3.954278	-3.194611	8.407431	0.372845	0.087781	0.004645	0.016534	0.016717	-0.019369	-0.886963	0.433594	-0.584717	0.039547	-0.031957	0.084068	-0.275986	-0.169220	0.211416	-0.922225	-19.162780	-25.392335	151.034983
14136		4.350692	-2.939170	8.366897	-0.096213	0.089384	0.064304	0.025706	0.006333	-0.027972	-0.899902	0.436523	-0.586182	0.043505	-0.029409	0.083664	-0.276064	-0.169236	0.211293	-0.922227	-19.145194	-25.391992	151.022062
14137		4.464672	-2.719511	8.347735	-0.316556	-0.015479	0.031766	0.026170	0.011518	-0.024816	-0.905029	0.432129	-0.583496	0.044648	-0.027212	0.083471	-0.276132	-0.169227	0.211164	-0.922238	-19.127733	-25.388431	151.009940
14138		4.545258	-2.826046	8.307318	-0.325358	0.122583	0.063372	0.021008	0.007909	-0.029650	-0.909180	0.430420	-0.575439	0.045452	-0.028276	0.083068	-0.276223	-0.169230	0.211059	-0.922234	-19.112268	-25.387543	150.995687
14139		4.710628	-2.634470	8.275043	-0.572287	0.067639	0.050106	0.026609	0.003745	-0.029278	-0.903320	0.435059	-0.570557	0.047104	-0.026363	0.082746	-0.276304	-0.169262	0.210935	-0.922233	-19.094099	-25.389029	150.982504
14140		4.436176	-2.786665	8.310350	-0.259047	0.047923	0.007581	0.017426	0.009685	-0.026356	-0.904053	0.425049	-0.577881	0.044362	-0.027880	0.083099	-0.276385	-0.169249	0.210847	-0.922231	-19.081375	-25.386556	150.969857
14141		4.331398	-2.952096	8.307568	-0.079741	0.130750	0.009131	0.023248	0.003860	-0.025375	-0.902100	0.428467	-0.565186	0.043312	-0.029536	0.083071	-0.276450	-0.169272	0.210741	-0.922231	-19.066119	-25.387253	150.958985
14142		4.406169	-2.882162	8.320525	-0.175671	0.106623	0.031605	0.027749	0.008012	-0.028037	-0.913330	0.414063	-0.563477	0.044061	-0.028839	0.083199	-0.276528	-0.169282	0.210606	-0.922237	-19.047198	-25.385994	150.945678
14143		4.467792	-2.817146	8.293770	-0.266149	0.100082	0.016008	0.030560	0.010187	-0.026881	-0.920410	0.421875	-0.561768	0.044678	-0.028190	0.082931	-0.276601	-0.169288	0.210457	-0.922248	-19.026806	-25.383544	150.932594
14144		4.520405	-2.800254	8.291284	-0.317002	0.114604	0.031460	0.029669	0.012758	-0.025574	-0.918945	0.420410	-0.555420	0.045206	-0.028021	0.082906	-0.276671	-0.169277	0.210309	-0.922263	-19.006999	-25.379246	150.919785
14145		4.427042	-2.817904	8.340386	-0.222787	0.066426	0.038571	0.028889	0.016721	-0.021126	-0.924805	0.416504	-0.558838	0.044274	-0.028196	0.083396	-0.276726	-0.169243	0.210163	-0.922286	-18.988466	-25.372183	150.908803
14146		4.223244	-2.985813	8.370588	0.042303	0.093023	0.026376	0.036739	0.012601	-0.020210	-0.921143	0.426025	-0.550537	0.042235	-0.029878	0.083698	-0.276765	-0.169237	0.209987	-0.922315	-18.966005	-25.366962	150.899248
14147		4.282653	-2.960871	8.335696	-0.024640	0.121401	0.014640	0.050696	0.021351	-0.036395	-0.919434	0.409424	-0.543213	0.042830	-0.029638	0.083345	-0.276877	-0.169229	0.209722	-0.922344	-18.930653	-25.360225	150.878164
14148		4.249514	-2.756669	8.426096	-0.098230	-0.086342	0.017856	0.042857	0.025453	-0.037312	-0.921875	0.409180	-0.541748	0.042501	-0.027593	0.084250	-0.277003	-0.169190	0.209485	-0.922367	-18.899167	-25.351205	150.855717
14149		4.201323	-2.783201	8.447526	-0.039680	-0.093208	0.023356	0.033202	0.022124	-0.033809	-0.924072	0.421631	-0.537598	0.042018	-0.027853	0.084466	-0.277118	-0.169151	0.209301	-0.922381	-18.874444	-25.343550	150.836035
14150		4.210985	-2.690033	8.433584	-0.103519	-0.149673	-0.011621	0.021856	0.012378	-0.032156	-0.917480	0.421631	-0.539063	0.042111	-0.026916	0.084330	-0.277225	-0.169137	0.209184	-0.922378	-18.857472	-25.340647	150.819373
14151		4.325222	-2.629379	8.345068	-0.245766	-0.101087	-0.056114	0.004459	0.010108	-0.032108	-0.923828	0.418457	-0.532959	0.043252	-0.026303	0.083448	-0.277344	-0.169112	0.209151	-0.922354	-18.850708	-25.339181	150.803178
14152		4.412558	-2.572179	8.339740	-0.348752	-0.102762	-0.039978	-0.001056	0.003070	-0.027536	-0.927734	0.413086	-0.540039	0.044123	-0.025727	0.083397	-0.277439	-0.169105	0.209156	-0.922326	-18.848866	-25.340465	150.791194
14153		4.493166	-2.555091	8.252324	-0.438862	-0.038022	-0.085209	0.001306	0.000054	-0.029526	-0.934326	0.412842	-0.533203	0.044928	-0.025558	0.082523	-0.277538	-0.169119	0.209153	-0.922294	-18.845445	-25.343976	150.778604
14154		4.230913	-2.762551	8.260648	-0.109112	-0.000009	-0.129779	0.002862	0.005467	-0.021407	-0.932373	0.408447	-0.539307	0.042308	-0.027631	0.082605	-0.277604	-0.169100	0.209142	-0.922280	-18.842722	-25.342826	150.769807
14155		4.085261	-2.995295	8.235459	0.136759	0.125437	-0.145760	0.020591	0.007476	-0.017704	-0.932129	0.415283	-0.529053	0.040853	-0.029965	0.082350	-0.277640	-0.169095	0.209050	-0.922291	-18.830631	-25.340129	150.762787
14156		4.236660	-2.974693	8.200991	0.000018	0.196194	-0.116510	0.044448	0.009353	-0.038698	-0.926270	0.410156	-0.527832	0.042365	-0.029773	0.082001	-0.277755	-0.169134	0.208828	-0.922300	-18.799301	-25.340062	150.742820
14157		4.440422	-2.721563	8.298162	-0.286674	0.053167	-0.019897	0.064922	0.024324	-0.048206	-0.932373	0.399414	-0.522949	0.044408	-0.027253	0.082967	-0.277912	-0.169144	0.208482	-0.922329	-18.752512	-25.333844	150.714060
14158		4.258016	-2.815311	8.403339	-0.065014	0.001059	0.019329	0.076196	0.036700	-0.056739	-0.937744	0.400391	-0.523926	0.042588	-0.028197	0.084015	-0.278111	-0.169120	0.208060	-0.922369	-18.695983	-25.322227	150.677700
14159		4.041259	-2.967312	8.453564	0.207185	0.005316	0.013630	0.082304	0.037316	-0.062611	-0.935791	0.401123	-0.530762	0.040419	-0.029721	0.084516	-0.278333	-0.169109	0.207604	-0.922406	-18.634423	-25.311552	150.637672
14160		4.219936	-2.879917	8.404343	0.009265	0.051198	0.022558	0.087215	0.036290	-0.076591	-0.932373	0.393555	-0.524414	0.042204	-0.028852	0.084023	-0.278614	-0.169122	0.207114	-0.922429	-18.566544	-25.303716	150.589504
14161		4.526768	-2.652548	8.429123	-0.355922	0.013122	0.109555	0.091542	0.033524	-0.081774	-0.930420	0.393799	-0.526367	0.045271	-0.026583	0.084271	-0.278913	-0.169162	0.206604	-0.922446	-18.495124	-25.298502	150.538759
14162		4.722386	-2.467795	8.330918	-0.633039	0.016828	0.056158	0.085370	0.039951	-0.077124	-0.940674	0.391113	-0.526123	0.047231	-0.024732	0.083289	-0.279201	-0.169156	0.206118	-0.922469	-18.427874	-25.288666	150.489563
14163		4.630987	-2.563363	8.437964	-0.481153	0.007054	0.136410	0.067111	0.038005	-0.059503	-0.932861	0.386230	-0.522949	0.046318	-0.025676	0.084362	-0.279422	-0.169118	0.205733	-0.922495	-18.375803	-25.276896	150.451329
14164		4.638711	-2.483148	8.368203	-0.546548	-0.009277	0.057049	0.059177	0.046985	-0.045389	-0.936279	0.394775	-0.523682	0.046401	-0.024867	0.083664	-0.279594	-0.169010	0.205384	-0.922540	-18.331141	-25.257427	150.419844
14165		4.254063	-2.710523	8.511447	-0.082561	-0.068924	0.080600	0.050702	0.045311	-0.033788	-0.929688	0.392822	-0.515381	0.042555	-0.027134	0.085098	-0.279717	-0.168889	0.205087	-0.922591	-18.294473	-25.237013	150.395646
14166		4.394515	-2.735660	8.503613	-0.179783	0.022784	0.140914	0.046774	0.030743	-0.028646	-0.939941	0.383545	-0.514160	0.043954	-0.027383	0.085023	-0.279805	-0.168822	0.204831	-0.922633	-18.262620	-25.223334	150.377495
14167		4.418569	-2.586492	8.432072	-0.299171	-0.040921	0.047452	0.046238	0.016032	-0.027390	-0.941162	0.384521	-0.524170	0.044189	-0.025890	0.084311	-0.279873	-0.168823	0.204601	-0.922664	-18.232644	-25.217681	150.362982
14168		4.290133	-2.687394	8.474686	-0.129324	-0.037804	0.057950	0.036467	0.011304	-0.027033	-0.937500	0.387207	-0.522217	0.042902	-0.026895	0.084740	-0.279943	-0.168830	0.204422	-0.922681	-18.208761	-25.214275	150.349669
14169		4.350525	-2.680304	8.381808	-0.197882	0.030696	0.001879	0.028161	0.006140	-0.027357	-0.939941	0.391113	-0.510010	0.043504	-0.026821	0.083813	-0.280016	-0.168851	0.204289	-0.922685	-18.189984	-25.213993	150.337135
14170		4.405973	-2.580616	8.395745	-0.295727	-0.024762	0.009362	0.019615	-0.001403	-0.024541	-0.939697	0.383789	-0.518066	0.044056	-0.025820	0.083955	-0.280075	-0.168890	0.204207	-0.922678	-18.177466	-25.217052	150.327835
14171		4.491984	-2.546974	8.438814	-0.373608	-0.031833	0.073565	-0.001376	-0.008536	-0.010610	-0.927734	0.392090	-0.503906	0.044915	-0.025472	0.084390	-0.280080	-0.168921	0.204245	-0.922662	-18.181137	-25.221767	150.328276
14172		4.461513	-2.507040	8.457064	-0.369124	-0.086009	0.064996	-0.010852	-0.017529	-0.002745	-0.937744	0.396240	-0.500732	0.044607	-0.025066	0.084576	-0.280048	-0.168969	0.204345	-0.922641	-18.193021	-25.229706	150.335277
14173		4.473641	-2.602556	8.421623	-0.329915	0.005887	0.066665	-0.022050	-0.015909	0.007071	-0.926025	0.386230	-0.500488	0.044731	-0.026015	0.084223	-0.279982	-0.168987	0.204503	-0.922622	-18.213688	-25.235276	150.347813
14174		4.546404	-2.620127	8.414822	-0.378909	0.051450	0.096796	-0.025086	-0.020485	0.009061	-0.940430	0.393799	-0.510254	0.045457	-0.026189	0.084156	-0.279904	-0.169017	0.204683	-0.922600	-18.237011	-25.242704	150.362510
14175		4.443724	-2.591907	8.486149	-0.300993	-0.054063	0.106278	-0.031022	-0.032708	0.010525	-0.933838	0.393311	-0.512207	0.044425	-0.025904	0.084873	-0.279813	-0.169096	0.204909	-0.922564	-18.265128	-25.256795	150.380460
14176		4.511386	-2.634256	8.453817	-0.335524	0.017815	0.119384	-0.039754	-0.047130	0.010837	-0.941406	0.390625	-0.498291	0.045095	-0.026323	0.084554	-0.279712	-0.169227	0.205196	-0.922507	-18.299583	-25.278387	150.401533
14177		4.353855	-2.579172	8.462937	-0.241444	-0.105967	0.044288	-0.050306	-0.056397	0.013732	-0.940918	0.381104	-0.509766	0.043516	-0.025767	0.084648	-0.279598	-0.169385	0.205547	-0.922434	-18.341607	-25.304771	150.426152
14178		4.228801	-2.772818	8.482737	-0.024683	-0.032847	0.062859	-0.059118	-0.072252	0.010913	-0.945068	0.390625	-0.510010	0.042259	-0.027701	0.084851	-0.279487	-0.169604	0.205957	-0.922336	-18.389359	-25.339982	150.452332
14179		4.166921	-2.863512	8.482105	0.078899	-0.000855	0.061663	-0.059058	-0.076764	0.005266	-0.940186	0.374512	-0.499268	0.041637	-0.028609	0.084845	-0.279398	-0.169853	0.206370	-0.922225	-18.436010	-25.378936	150.475996
14180		4.332242	-2.860709	8.350897	-0.075672	0.123786	0.019322	-0.045489	-0.085457	-0.002792	-0.946045	0.382080	-0.500488	0.043286	-0.028589	0.083534	-0.279325	-0.170166	0.206724	-0.922110	-18.473620	-25.423773	150.496659
14181		4.385071	-2.873855	8.317924	-0.112076	0.164501	0.017680	-0.041848	-0.079192	-0.013574	-0.942627	0.378174	-0.500977	0.043816	-0.028724	0.083203	-0.279306	-0.170469	0.207045	-0.921988	-18.505816	-25.467440	150.509549
14182		4.421484	-2.774236	8.304262	-0.197320	0.104166	-0.006726	-0.030567	-0.079397	-0.020285	-0.953125	0.387207	-0.495850	0.044179	-0.027734	0.083064	-0.279307	-0.170793	0.207307	-0.921868	-18.529879	-25.512147	150.518532
14183		4.421535	-2.782412	8.333102	-0.181894	0.089761	0.020483	-0.027069	-0.078148	-0.021044	-0.940674	0.382324	-0.486572	0.044180	-0.027817	0.083352	-0.279311	-0.171120	0.207551	-0.921752	-18.551620	-25.556603	150.526767
14184		4.363343	-2.786077	8.350374	-0.125266	0.051869	0.011331	-0.021517	-0.083722	-0.023786	-0.945068	0.382813	-0.484863	0.043595	-0.027857	0.083525	-0.279316	-0.171480	0.207775	-0.921633	-18.569995	-25.604292	150.534560
14185		4.399365	-2.692815	8.442929	-0.183792	-0.053994	0.079330	-0.026080	-0.089317	-0.024236	-0.946289	0.383301	-0.490723	0.043953	-0.026922	0.084452	-0.279321	-0.171863	0.208027	-0.921503	-18.591347	-25.655394	150.543173
14186		4.383019	-2.889267	8.339364	-0.070749	0.129422	0.040330	-0.035152	-0.094588	-0.016348	-0.946045	0.372803	-0.477783	0.043788	-0.028882	0.083419	-0.279292	-0.172247	0.208335	-0.921370	-18.620465	-25.707618	150.557700
14187		4.519967	-2.760321	8.243924	-0.266964	0.130399	-0.018634	-0.025677	-0.094106	-0.026140	-0.953369	0.383545	-0.475586	0.045157	-0.027599	0.082464	-0.279301	-0.172654	0.208591	-0.921234	-18.641549	-25.761665	150.566195
14188		4.588847	-2.682813	8.267864	-0.355805	0.083459	0.009686	-0.029310	-0.083795	-0.020938	-0.950439	0.387207	-0.483154	0.045851	-0.026821	0.082702	-0.279300	-0.173001	0.208853	-0.921110	-18.665211	-25.808860	150.575819
14189		4.640484	-2.734550	8.226459	-0.368787	0.159110	0.012035	-0.012928	-0.076254	-0.026626	-0.945557	0.388184	-0.476074	0.046370	-0.027346	0.082284	-0.279318	-0.173344	0.209024	-0.921001	-18.677309	-25.853309	150.580430
14190		4.489274	-2.775620	8.235636	-0.218771	0.114024	-0.034013	-0.010942	-0.066442	-0.034202	-0.947021	0.393799	-0.479736	0.044861	-0.027759	0.082373	-0.279380	-0.173650	0.209166	-0.920892	-18.685439	-25.893515	150.578546
14191		4.599802	-2.788576	8.215078	-0.296468	0.178191	0.000681	-0.013301	-0.063871	-0.041612	-0.943848	0.386719	-0.475586	0.045966	-0.027890	0.082167	-0.279481	-0.173952	0.209308	-0.920772	-18.692707	-25.934002	150.571603
14192		4.290825	-2.837904	8.352618	0.007481	0.008080	-0.002948	-0.024909	-0.055368	-0.046091	-0.950439	0.382324	-0.477051	0.042879	-0.028379	0.083542	-0.279621	-0.174200	0.209488	-0.920642	-18.704712	-25.970382	150.560293
14193		4.375387	-2.846323	8.309664	-0.057614	0.067457	-0.000032	-0.030112	-0.064542	-0.050275	-0.956543	0.384766	-0.475098	0.043720	-0.028462	0.083115	-0.279776	-0.174490	0.209702	-0.920491	-18.719378	-26.012832	150.548269
14194		4.331896	-2.802727	8.375982	-0.029896	-0.023100	0.024805	-0.039737	-0.082396	-0.057423	-0.955566	0.378906	-0.473633	0.043276	-0.028023	0.083783	-0.279952	-0.174854	0.209978	-0.920305	-18.739294	-26.065968	150.535663
14195		4.532761	-2.710655	8.249330	-0.259999	0.050153	-0.021115	-0.036244	-0.095182	-0.059495	-0.960449	0.372803	-0.470947	0.045280	-0.027105	0.082520	-0.280122	-0.175286	0.210255	-0.920108	-18.757776	-26.126746	150.524371
14196		4.780743	-2.585782	8.102054	-0.549359	0.129630	-0.072747	-0.026481	-0.104476	-0.061215	-0.953613	0.367920	-0.463623	0.047757	-0.025862	0.081049	-0.280281	-0.175774	0.210497	-0.919911	-18.771072	-26.192568	150.514030
14197		4.577379	-2.731250	8.203902	-0.275553	0.094168	-0.033560	-0.007101	-0.081870	-0.054495	-0.958008	0.372559	-0.464844	0.045733	-0.027322	0.082059	-0.280417	-0.176180	0.210625	-0.919763	-18.772965	-26.245216	150.503038
14198		4.729408	-2.691998	8.147083	-0.421498	0.155909	-0.025597	0.009839	-0.066636	-0.060235	-0.947510	0.380859	-0.463867	0.047259	-0.026938	0.081485	-0.280579	-0.176544	0.210648	-0.919639	-18.762250	-26.290329	150.485506
14199		4.473840	-2.725067	8.282784	-0.167687	0.000711	-0.013830	0.020401	-0.041831	-0.058759	-0.954834	0.377930	-0.460205	0.044713	-0.027272	0.082834	-0.280752	-0.176809	0.210590	-0.919548	-18.743566	-26.322047	150.463676
14200		4.407785	-2.930474	8.260672	0.006050	0.137769	-0.002696	0.026158	-0.020958	-0.058332	-0.951172	0.376709	-0.450928	0.044061	-0.029328	0.082608	-0.280939	-0.176983	0.210476	-0.919484	-18.719818	-26.342015	150.437877
14201		4.433685	-2.763897	8.245079	-0.111409	0.033756	-0.052335	0.033117	0.000705	-0.068617	-0.953857	0.397461	-0.453369	0.044328	-0.027668	0.082446	-0.281191	-0.177082	0.210290	-0.919430	-18.687297	-26.352444	150.401318
14202		4.626103	-2.672466	8.230000	-0.314982	0.061411	-0.005913	0.034215	0.014547	-0.071760	-0.961426	0.385010	-0.457520	0.046257	-0.026755	0.082292	-0.281470	-0.177118	0.210077	-0.919387	-18.652074	-26.355577	150.360088
14203		4.645507	-2.695090	8.229581	-0.313796	0.092017	0.008887	0.029397	0.024179	-0.080906	-0.959473	0.381592	-0.456299	0.046454	-0.026982	0.082286	-0.281806	-0.177116	0.209865	-0.919332	-18.616236	-26.355477	150.311269
14204		4.764356	-2.605162	8.164808	-0.470535	0.113960	-0.019034	0.028830	0.035591	-0.089621	-0.960693	0.384521	-0.452393	0.047646	-0.026085	0.081636	-0.282194	-0.177067	0.209631	-0.919276	-18.577387	-26.350399	150.254920
14205		4.553061	-2.704858	8.283191	-0.220138	0.043611	0.016225	0.029489	0.038685	-0.095279	-0.970703	0.379395	-0.450928	0.045534	-0.027082	0.082819	-0.282611	-0.177013	0.209385	-0.919214	-18.536324	-26.344992	150.194438
14206		4.275212	-2.866154	8.357863	0.109404	0.011248	0.002303	0.031713	0.042769	-0.098500	-0.966553	0.375488	-0.445557	0.042756	-0.028696	0.083565	-0.283045	-0.176944	0.209120	-0.919155	-18.492805	-26.337557	150.131263
14207		4.340751	-2.814152	8.346987	0.027980	0.013077	0.007333	0.034486	0.039009	-0.106148	-0.961670	0.355957	-0.440674	0.043409	-0.028179	0.083457	-0.283508	-0.176907	0.208841	-0.919083	-18.445943	-26.333864	150.064140
14208		4.459711	-2.705582	8.340201	-0.127170	-0.005267	0.023569	0.035754	0.039721	-0.116849	-0.968018	0.362793	-0.449951	0.044598	-0.027097	0.083388	-0.284019	-0.176877	0.208545	-0.918998	-18.395461	-26.331315	149.990469
14209		4.711261	-2.464835	8.314932	-0.467226	-0.053992	0.045724	0.036056	0.037533	-0.125630	-0.965576	0.365234	-0.444092	0.047113	-0.024693	0.083136	-0.284568	-0.176870	0.208243	-0.918898	-18.342596	-26.331837	149.911833
14210		4.653183	-2.436200	8.363603	-0.424996	-0.118189	0.053540	0.026213	0.029778	-0.131452	-0.965332	0.364258	-0.441406	0.046528	-0.024404	0.083626	-0.285144	-0.176887	0.207992	-0.918773	-18.294535	-26.337209	149.831302
14211		4.278570	-2.728024	8.444428	0.060885	-0.101485	0.038334	0.016068	0.018684	-0.127869	-0.967773	0.354492	-0.439209	0.042776	-0.027314	0.084438	-0.285701	-0.176940	0.207807	-0.918631	-18.254169	-26.348279	149.755071
14212		4.174910	-2.858022	8.486070	0.232492	-0.066853	0.064206	0.013995	0.009988	-0.130284	-0.965088	0.362793	-0.440674	0.041735	-0.028613	0.084857	-0.286262	-0.177029	0.207641	-0.918477	-18.215143	-26.364106	149.679185
14213		4.256754	-2.833460	8.398267	0.142370	-0.002237	0.018846	0.023654	-0.001641	-0.128845	-0.975830	0.366455	-0.433105	0.042549	-0.028372	0.083980	-0.286796	-0.177187	0.207449	-0.918323	-18.171912	-26.386312	149.606382
14214		4.497131	-2.704676	8.362644	-0.120467	0.031448	0.059382	0.034251	-0.012324	-0.141851	-0.967285	0.367188	-0.436279	0.044947	-0.027093	0.083625	-0.287368	-0.177420	0.207212	-0.918153	-18.120052	-26.416245	149.527853
14215		4.568162	-2.641569	8.243252	-0.228434	0.078826	-0.028067	0.048665	-0.021928	-0.151892	-0.964600	0.362793	-0.432129	0.045652	-0.026470	0.082431	-0.287965	-0.177730	0.206914	-0.917973	-18.057941	-26.453479	149.444981
14216		4.620054	-2.646325	8.320901	-0.238428	0.073896	0.062687	0.050018	-0.027286	-0.171357	-0.973145	0.355713	-0.427734	0.046166	-0.026524	0.083209	-0.288642	-0.178085	0.206599	-0.917763	-17.990217	-26.496645	149.351334
14217		4.405214	-2.766483	8.339538	0.015953	0.061777	0.016002	0.051073	-0.041450	-0.180785	-0.967041	0.355713	-0.430420	0.044010	-0.027726	0.083397	-0.289349	-0.178518	0.206292	-0.917525	-17.920399	-26.549456	149.254553
14218		4.257506	-2.948022	8.376097	0.261196	0.116688	0.030804	0.055995	-0.055059	-0.196644	-0.977051	0.346436	-0.423340	0.042523	-0.029545	0.083764	-0.290108	-0.179034	0.205967	-0.917258	-17.844550	-26.612008	149.150748
14219		4.640107	-2.712955	8.277716	-0.179225	0.168746	0.053957	0.065960	-0.060886	-0.211475	-0.972412	0.338379	-0.430176	0.046347	-0.027206	0.082782	-0.290921	-0.179609	0.205592	-0.916972	-17.759210	-26.680562	149.038785
14220		4.618858	-2.558231	8.370139	-0.219772	0.004313	0.081213	0.069363	-0.075053	-0.220360	-0.976807	0.333984	-0.421143	0.046129	-0.025662	0.083710	-0.291756	-0.180261	0.205214	-0.916663	-17.670568	-26.757890	148.924060
14221		4.839494	-2.455479	8.300352	-0.446542	0.068120	0.093969	0.074402	-0.086752	-0.223682	-0.970947	0.338867	-0.419434	0.048331	-0.024640	0.083015	-0.292590	-0.180979	0.204826	-0.916343	-17.578846	-26.842380	148.809268
14222		4.605880	-2.551549	8.352965	-0.177953	0.011059	0.059735	0.078782	-0.102999	-0.224456	-0.978027	0.338867	-0.407715	0.045987	-0.025600	0.083543	-0.293406	-0.181776	0.204441	-0.916010	-17.485613	-26.935356	148.696994
14223		4.335370	-2.657835	8.450017	0.135446	-0.078540	0.048233	0.080975	-0.122790	-0.212594	-0.980469	0.348145	-0.405518	0.043274	-0.026659	0.084516	-0.294145	-0.182657	0.204085	-0.915677	-17.395802	-27.037319	148.595453
14224		4.430873	-2.687836	8.398095	0.093556	0.015762	0.055243	0.111118	-0.150927	-0.198279	-0.980713	0.338135	-0.414307	0.044219	-0.026969	0.083999	-0.294762	-0.183693	0.203645	-0.915369	-17.294947	-27.151708	148.507911
14225		4.330774	-2.449292	8.577356	0.086968	-0.292394	0.098546	0.101996	-0.168713	-0.195868	-0.978760	0.342529	-0.407715	0.043211	-0.024579	0.085798	-0.295358	-0.184798	0.203276	-0.915037	-17.201181	-27.275649	148.424845
14226		4.901586	-2.279914	8.345080	-0.473543	-0.040919	0.118975	0.084186	-0.197653	-0.209861	-0.976318	0.331543	-0.401123	0.048909	-0.022886	0.083490	-0.296003	-0.186019	0.203017	-0.914638	-17.115936	-27.417321	148.338439
14227		4.710401	-2.274732	8.456534	-0.278734	-0.189638	0.125195	0.089866	-0.227599	-0.210596	-0.987305	0.326416	-0.398438	0.046984	-0.022835	0.084609	-0.296617	-0.187390	0.202775	-0.914213	-17.029410	-27.575766	148.256802
14228		4.595494	-2.542060	8.348022	-0.020429	0.003536	0.049847	0.089204	-0.248992	-0.194138	-0.989258	0.308350	-0.392822	0.045826	-0.025502	0.083526	-0.297132	-0.188837	0.202583	-0.913791	-16.949558	-27.742710	148.189110
14229		4.591634	-2.534262	8.456379	0.034122	-0.061240	0.137736	0.105198	-0.270366	-0.191679	-0.991943	0.306641	-0.384277	0.045778	-0.025431	0.084612	-0.297600	-0.190405	0.202351	-0.913364	-16.862696	-27.921238	148.126485
14230		4.448743	-2.585275	8.563268	0.232412	-0.147656	0.173733	0.121541	-0.314639	-0.180330	-0.993408	0.307861	-0.371338	0.044329	-0.025945	0.085687	-0.297954	-0.192185	0.202121	-0.912927	-16.773388	-28.121718	148.078907
14231		4.364472	-2.504759	8.597400	0.292824	-0.270143	0.141148	0.151549	-0.361163	-0.187845	-0.981934	0.305664	-0.376953	0.043466	-0.025154	0.086034	-0.298265	-0.194231	0.201815	-0.912460	-16.668326	-28.349250	148.034770
14232		4.975288	-2.763339	8.461955	0.011486	0.262480	0.381673	0.151803	-0.423985	-0.207915	-0.999268	0.313232	-0.375244	0.049545	-0.027749	0.084704	-0.298603	-0.196581	0.201581	-0.911898	-16.562363	-28.614134	147.989330
14233		4.253682	-2.888210	8.686326	0.730871	-0.100874	0.254250	0.173819	-0.466871	-0.219986	-0.994385	0.318848	-0.365479	0.042302	-0.029004	0.086937	-0.298929	-0.199173	0.201297	-0.911291	-16.443361	-28.904813	147.943475
14234		4.618782	-2.582173	8.594099	0.302836	-0.125291	0.274511	0.193006	-0.529347	-0.247934	-0.990723	0.324463	-0.353516	0.045928	-0.025962	0.086038	-0.299297	-0.202102	0.200990	-0.910593	-16.309876	-29.233912	147.890820
14235		4.897814	-2.430101	8.557883	0.055956	-0.105894	0.341947	0.202411	-0.601116	-0.263201	-0.996094	0.311523	-0.350830	0.048689	-0.024452	0.085701	-0.299651	-0.205387	0.200730	-0.909798	-16.171868	-29.605162	147.840556
14236		4.851674	-2.267032	8.576943	0.062521	-0.275881	0.294816	0.204058	-0.670170	-0.288529	-1.005859	0.294922	-0.332764	0.048196	-0.022828	0.085908	-0.300044	-0.209010	0.200537	-0.908886	-16.030375	-30.018007	147.785727
14237		4.545321	-2.261320	8.635168	0.374594	-0.471880	0.186116	0.211880	-0.736723	-0.311075	-1.001221	0.293945	-0.329102	0.045099	-0.022775	0.086494	-0.300461	-0.212968	0.200382	-0.907863	-15.882103	-30.471273	147.727108
14238		5.103105	-2.355568	8.516391	0.078721	-0.112804	0.390237	0.216262	-0.813678	-0.314319	-1.003662	0.281494	-0.321777	0.050647	-0.023728	0.085345	-0.300805	-0.217279	0.200316	-0.906741	-15.736219	-30.967010	147.678841
14239		4.827863	-2.408199	8.422556	0.373432	-0.183050	0.180983	0.212588	-0.858069	-0.326765	-1.007568	0.271240	-0.312744	0.047877	-0.024250	0.084406	-0.301159	-0.221797	0.200315	-0.905529	-15.591093	-31.489372	147.628746
14240		5.178522	-2.092703	8.462789	0.023711	-0.308355	0.322341	0.213177	-0.919737	-0.329111	-1.014648	0.284424	-0.305420	0.051361	-0.021102	0.084842	-0.301453	-0.226589	0.200397	-0.904226	-15.449402	-32.045712	147.586521
14241		5.134902	-2.247569	8.248505	0.187311	-0.143285	0.157272	0.200000	-0.970879	-0.341644	-0.994873	0.289795	-0.288086	0.050909	-0.022646	0.082710	-0.301761	-0.231601	0.200596	-0.902808	-15.314361	-32.632428	147.543345
14242		5.391031	-2.163281	8.118230	0.012450	-0.063314	0.169471	0.210048	-1.025298	-0.361705	-1.009277	0.284668	-0.283447	0.053454	-0.021815	0.081434	-0.302084	-0.236886	0.200803	-0.901282	-15.170311	-33.251853	147.494830
14243		5.501344	-2.069588	8.076996	-0.033145	-0.102808	0.175959	0.229330	-1.069933	-0.369034	-1.016846	0.282959	-0.262451	0.054542	-0.020890	0.081039	-0.302363	-0.242402	0.200976	-0.899681	-15.015135	-33.897255	147.447045
14244		5.818412	-1.935058	8.103427	-0.223258	-0.116763	0.346013	0.227037	-1.109757	-0.382459	-1.011963	0.287842	-0.253662	0.057696	-0.019553	0.081333	-0.302654	-0.248098	0.201196	-0.897980	-14.858453	-34.566275	147.394995
14245		5.526922	-2.432476	7.826789	0.321555	0.216862	0.065106	0.223012	-1.135324	-0.402272	-1.013428	0.267822	-0.239014	0.054775	-0.024523	0.078552	-0.303003	-0.253915	0.201441	-0.896180	-14.696878	-35.252533	147.331315
14246		5.398577	-2.410710	7.739734	0.479597	0.145793	-0.086067	0.254806	-1.156994	-0.420514	-1.019775	0.254883	-0.230469	0.053486	-0.024319	0.077677	-0.303360	-0.259884	0.201545	-0.894323	-14.509743	-35.952979	147.256042
14247		5.593970	-2.170230	7.909189	0.366515	-0.075513	0.107809	0.289067	-1.191648	-0.435659	-1.016113	0.248535	-0.203369	0.055420	-0.021938	0.079392	-0.303693	-0.266067	0.201521	-0.892395	-14.297390	-36.674889	147.172654
14248		5.780625	-2.209701	7.973706	0.413330	-0.042399	0.272163	0.294547	-1.227870	-0.460512	-1.019775	0.240723	-0.197266	0.057264	-0.022347	0.080057	-0.304079	-0.272430	0.201485	-0.890349	-14.071986	-37.419856	147.074193
14249		6.103642	-2.196033	7.672866	0.210070	0.198995	0.230444	0.289021	-1.287071	-0.495692	-1.017334	0.250000	-0.185547	0.060486	-0.022222	0.077087	-0.304556	-0.279074	0.201507	-0.888121	-13.836846	-38.202561	146.956425
14250		5.988748	-1.958007	8.085423	0.421762	-0.289754	0.424950	0.339831	-1.337217	-0.516709	-1.025391	0.245605	-0.161377	0.059294	-0.019872	0.081218	-0.304989	-0.286023	0.201340	-0.885796	-13.563904	-39.015331	146.826761
14251		5.913119	-2.967051	7.817245	1.175443	0.510193	0.347706	0.311082	-1.425952	-0.566012	-1.018066	0.246582	-0.157715	0.058488	-0.029959	0.078545	-0.305575	-0.293356	0.201353	-0.883189	-13.288793	-39.883890	146.670117
14252		6.063794	-1.983467	8.067308	0.685860	-0.333831	0.444062	0.352758	-1.513133	-0.603505	-1.013672	0.237793	-0.146484	0.059965	-0.020159	0.081093	-0.306157	-0.301154	0.201247	-0.880383	-12.974757	-40.805070	146.493104
14253		6.244930	-2.120316	7.928051	0.772947	-0.140713	0.469762	0.353053	-1.632791	-0.662831	-1.009033	0.228271	-0.120117	0.061728	-0.021549	0.079749	-0.306857	-0.309518	0.201219	-0.877239	-12.636167	-41.800104	146.282553
14254		6.049749	-2.228403	8.303647	1.304460	-0.410393	0.610476	0.360012	-1.752513	-0.710348	-1.018311	0.219971	-0.102783	0.059687	-0.022647	0.083521	-0.307607	-0.318437	0.201254	-0.873769	-12.272234	-42.866754	146.044478
14255		6.222912	-2.236588	8.187635	1.350344	-0.340945	0.619027	0.353973	-1.893935	-0.784084	-1.011963	0.199951	-0.084961	0.061362	-0.022753	0.082420	-0.308516	-0.328009	0.201394	-0.869867	-11.875574	-44.020505	145.758700
14256		6.415709	-2.133275	8.124518	1.351099	-0.381933	0.663183	0.345035	-2.055874	-0.890784	-1.010010	0.192383	-0.071045	0.063221	-0.021757	0.081861	-0.309705	-0.338339	0.201625	-0.865423	-11.426605	-45.275698	145.397353
14257		6.707057	-2.306070	7.909144	1.434366	-0.104127	0.712664	0.414987	-2.245371	-1.014183	-1.009033	0.180420	-0.041260	0.066059	-0.023562	0.079788	-0.311074	-0.349675	0.201609	-0.860415	-10.864102	-46.648946	144.941947
14258		6.276042	-2.700619	8.179191	2.330119	-0.226090	0.584124	0.527098	-2.407534	-1.122844	-0.999268	0.196777	-0.017578	0.061617	-0.027571	0.082466	-0.312498	-0.361931	0.201139	-0.854923	-10.156053	-48.121137	144.386624
14259		5.998231	-2.853134	8.069140	2.803586	-0.246550	0.252185	0.583246	-2.568859	-1.206999	-1.000977	0.181885	-0.002686	0.058765	-0.029125	0.081367	-0.313957	-0.374980	0.200489	-0.848896	-9.334377	-49.687575	143.736253
14260		6.442038	-2.631253	7.800845	2.572628	-0.169997	0.317491	0.645956	-2.725006	-1.310781	-0.990967	0.166992	0.021729	0.063175	-0.026983	0.078788	-0.315513	-0.388809	0.199579	-0.842287	-8.363706	-51.344564	142.954767
14261		6.774181	-2.267620	7.544255	2.333214	-0.248935	0.308162	0.674517	-2.908711	-1.464098	-0.985352	0.155029	0.044434	0.066466	-0.023422	0.076337	-0.317394	-0.403510	0.198489	-0.834891	-7.205085	-53.108304	141.974637
14262		7.024941	-2.437446	7.777302	2.797383	-0.267771	0.573278	0.686880	-3.071136	-1.601804	-0.978271	0.138672	0.082520	0.068845	-0.025199	0.078752	-0.319570	-0.418926	0.197269	-0.826717	-5.839853	-54.959785	140.771000
14263		7.081651	-2.393836	7.687030	3.054051	-0.323693	0.459853	0.792833	-3.227623	-1.765779	-0.982178	0.114746	0.112305	0.069348	-0.024862	0.077900	-0.321942	-0.435181	0.195453	-0.817783	-4.143534	-56.889276	139.268485
14264		7.878087	-1.036130	8.439889	2.623783	-1.561949	1.368902	0.951458	-3.389975	-1.896854	-0.964844	0.106201	0.139160	0.077230	-0.011504	0.085664	-0.324225	-0.452320	0.192890	-0.808132	-2.046751	-58.886865	137.433824
14265		7.510503	-0.308552	7.998579	2.408700	-2.052681	0.696767	0.753794	-3.550171	-1.864948	-0.947998	0.096924	0.167480	0.073635	-0.004081	0.081287	-0.326539	-0.469570	0.191380	-0.797653	0.159980	-60.937902	135.379904
14266		8.509891	-1.926108	7.782598	3.494415	-0.556283	1.329819	0.644120	-3.756659	-2.021692	-0.939697	0.095947	0.203369	0.083416	-0.020364	0.079339	-0.329396	-0.487409	0.190192	-0.785976	2.799486	-63.059781	132.805991
14267		9.830810	-2.877760	8.149941	4.479581	0.177255	2.484563	0.633241	-3.816318	-2.060101	-0.927490	0.089355	0.231689	0.096425	-0.030039	0.083258	-0.332217	-0.505269	0.188962	-0.773711	5.916054	-65.150781	129.742591
14268		11.866917	-2.788197	7.994906	4.319818	0.697628	4.091798	0.629578	-3.799674	-2.100752	-0.913086	0.071045	0.259033	0.116820	-0.029372	0.082089	-0.335061	-0.522856	0.187525	-0.761045	9.626757	-67.146217	126.077683
14269		11.897254	-2.508907	7.525113	4.372946	0.630154	3.785689	0.488665	-3.703394	-2.057869	-0.880127	0.050781	0.287109	0.117285	-0.026489	0.077370	-0.338044	-0.539555	0.186488	-0.748217	13.829964	-68.985671	121.846215
14270		11.394393	-1.997900	6.505953	3.940786	0.606064	2.845482	0.254533	-3.523001	-2.132640	-0.873047	0.027344	0.307617	0.112553	-0.021269	0.067024	-0.341959	-0.555018	0.185737	-0.735201	18.681550	-70.583860	116.829602
14271		12.442658	-2.999964	5.851400	4.542204	1.892598	3.371413	0.025169	-3.164067	-2.189960	-0.861572	0.018066	0.328613	0.123142	-0.031360	0.060465	-0.346917	-0.568601	0.184985	-0.722580	24.052959	-71.817630	111.168623
14272		10.310844	-2.743472	4.402130	4.027058	1.933968	0.829128	-0.097582	-2.753286	-2.097280	-0.845703	-0.003662	0.338135	0.102194	-0.028488	0.045446	-0.352155	-0.580214	0.184163	-0.710931	29.555767	-72.686697	105.329944
14273		4.262566	0.774150	7.113562	4.122068	-4.105284	-3.852513	-0.225329	-2.317800	-2.071585	-0.832520	-0.010742	0.358398	0.041875	0.007386	0.071615	-0.357977	-0.589870	0.183056	-0.700283	34.987975	-73.178666	99.509995
14274		16.624771	-1.626819	19.955421	14.258153	-7.705177	10.548638	-1.209062	-0.028658	-1.552600	-0.843262	-0.010254	0.337402	0.166092	-0.016351	0.199677	-0.366919	-0.589179	0.182794	-0.696294	36.657963	-72.673785	97.035570
14275		8.900318	-9.785813	15.957406	17.634098	-1.855713	0.920390	-1.944438	2.437582	-0.837359	-0.859619	-0.021240	0.308105	0.090540	-0.096685	0.159421	-0.377723	-0.577789	0.182644	-0.700090	34.237181	-71.260037	98.406641
14276		2.479421	-12.455304	8.320103	14.669074	3.062989	-7.376202	-1.470371	3.219857	-0.356053	-0.864014	-0.036621	0.263428	0.025918	-0.123984	0.083703	-0.386081	-0.563955	0.180693	-0.707281	31.062238	-69.598609	100.878907
14277		1.901776	-10.525631	5.660931	11.472420	3.460265	-8.122250	-0.738107	3.519394	0.237100	-0.881592	-0.038086	0.235107	0.020139	-0.105024	0.056649	-0.390420	-0.549751	0.177191	-0.716903	27.768722	-67.909948	103.955193
14278		1.773409	-8.330506	5.414349	9.605934	2.267565	-7.706645	-0.309804	3.568564	0.914957	-0.900635	-0.034668	0.192139	0.019078	-0.083136	0.053940	-0.391068	-0.535430	0.173860	-0.728116	24.334445	-66.304333	107.486971
14279		1.844900	-6.946134	5.425024	8.466895	1.527309	-7.156667	-0.170464	3.526163	1.575036	-0.922607	-0.023682	0.160889	0.019948	-0.069262	0.053966	-0.388759	-0.520761	0.171814	-0.740374	20.684782	-64.783508	111.385035
14280		1.583315	-5.959063	5.315591	7.582502	0.992457	-7.022532	-0.197772	3.515126	2.139565	-0.949219	-0.004395	0.118652	0.017401	-0.059358	0.052918	-0.384271	-0.505396	0.171286	-0.753373	16.844642	-63.271109	115.526836
14281		1.290682	-5.136828	5.344043	6.918796	0.447316	-6.891536	-0.251214	3.482623	2.569392	-0.960205	0.033936	0.084229	0.014493	-0.051122	0.053262	-0.378094	-0.489444	0.172038	-0.766741	12.965260	-61.720528	119.733821
14282		1.514145	-4.253280	5.356077	6.077416	0.069049	-6.330932	-0.293208	3.434222	2.866826	-0.980957	0.057861	0.037598	0.016665	-0.042223	0.053345	-0.370659	-0.473116	0.173680	-0.780134	9.206503	-60.104929	123.838881
14283		2.203155	-3.277269	5.602921	5.143809	-0.341160	-5.295605	-0.322849	3.379108	3.047853	-1.003906	0.081787	-0.012207	0.023469	-0.032332	0.055693	-0.362344	-0.456535	0.175884	-0.793314	5.672914	-58.409348	127.730312
14284		3.226548	-2.491989	6.040081	4.282873	-0.617309	-3.950047	-0.352568	3.338842	3.130096	-1.010498	0.101074	-0.036377	0.033652	-0.024295	0.059890	-0.353550	-0.439760	0.178369	-0.806100	2.436741	-56.626984	131.323165
14285		4.194971	-1.798196	6.511525	3.431225	-0.888803	-2.695231	-0.402391	3.331280	3.147470	-1.020264	0.127686	-0.081543	0.043301	-0.017177	0.064437	-0.344596	-0.422665	0.181018	-0.818437	-0.496963	-54.746511	134.591041
14286		5.262453	-1.722051	6.879546	2.827527	-0.640708	-1.471861	-0.444624	3.329906	3.141005	-1.024414	0.162842	-0.132324	0.054021	-0.016228	0.067941	-0.335580	-0.405299	0.183726	-0.830279	-3.133950	-52.781301	137.540470
14287		5.800034	-1.607136	7.304522	2.368914	-0.674626	-0.674928	-0.445265	3.305304	3.149790	-1.037598	0.196777	-0.166016	0.059439	-0.014982	0.072105	-0.326322	-0.387795	0.186405	-0.841654	-5.504328	-50.753854	140.228368
14288		6.599671	-1.107707	7.824144	1.503031	-0.940055	0.328388	-0.447603	3.257737	3.183010	-1.038574	0.226807	-0.214844	0.067423	-0.009838	0.077174	-0.316719	-0.370269	0.189131	-0.852537	-7.655383	-48.689105	142.707608
14289		7.585302	-0.921995	8.231286	0.618213	-0.857600	1.367857	-0.465532	3.229737	3.208609	-1.037598	0.260010	-0.249268	0.077302	-0.007798	0.081092	-0.306840	-0.352597	0.191932	-0.862952	-9.620848	-46.579929	145.001578
14290		8.458881	-0.840047	8.620875	-0.229168	-0.748571	2.268001	-0.446783	3.230734	3.226480	-1.037842	0.298584	-0.284180	0.086085	-0.006829	0.084843	-0.296697	-0.334764	0.194575	-0.872951	-11.391101	-44.421055	147.120288
14291		9.208690	-0.560485	8.963827	-1.226051	-0.821577	2.964701	-0.395147	3.246225	3.217541	-1.033691	0.326904	-0.329834	0.093598	-0.003932	0.088136	-0.286359	-0.316755	0.196857	-0.882560	-12.956087	-42.210305	149.066129
14292		9.879381	-0.085894	9.180484	-2.401510	-1.017548	3.418407	-0.355580	3.279930	3.160879	-1.027344	0.372559	-0.374023	0.100277	0.000879	0.090168	-0.276097	-0.298560	0.198717	-0.891708	-14.315155	-39.955134	150.819678
14293		10.435297	0.446121	9.232146	-3.630513	-1.228035	3.589220	-0.375741	3.296794	3.011318	-1.023926	0.398926	-0.404297	0.105771	0.006218	0.090575	-0.266400	-0.280240	0.200324	-0.900204	-15.489174	-37.681990	152.343441
14294		10.495342	0.372402	8.891094	-4.301147	-0.958910	3.221809	-0.373608	3.233997	2.797051	-0.995361	0.439209	-0.454590	0.106305	0.005368	0.087190	-0.257480	-0.262301	0.201603	-0.907887	-16.474074	-35.457401	153.632389
14295		10.929244	0.072178	8.763827	-5.003173	-0.482445	3.262866	-0.344295	3.112944	2.537307	-0.993408	0.478516	-0.489258	0.110616	0.002268	0.085920	-0.249460	-0.245081	0.202480	-0.914717	-17.276284	-33.324533	154.697424
14296		11.331630	-0.203716	8.742273	-5.645804	-0.083660	3.339146	-0.315989	2.955309	2.273276	-0.971436	0.497314	-0.521973	0.114604	-0.000603	0.085737	-0.242364	-0.228808	0.203020	-0.920700	-17.924605	-31.314597	155.566210
14297		11.757036	-0.569554	8.702765	-6.249524	0.407630	3.417870	-0.309704	2.774856	2.039896	-0.955078	0.529297	-0.548584	0.118812	-0.004355	0.085392	-0.236068	-0.213519	0.203420	-0.925906	-18.468184	-29.435227	156.283864
14298		12.425628	-1.007969	8.730518	-6.980282	1.012338	3.673066	-0.323872	2.637705	1.848112	-0.932861	0.552490	-0.581543	0.125479	-0.008784	0.085671	-0.230475	-0.199000	0.203783	-0.930459	-18.941007	-27.662024	156.879215
14299		12.831180	-1.349932	8.506079	-7.616134	1.568346	3.541386	-0.349470	2.545476	1.680761	-0.906982	0.575439	-0.607666	0.129487	-0.012268	0.083440	-0.225528	-0.184986	0.204156	-0.934472	-19.364970	-25.964444	157.368147
14300		13.037561	-1.459462	7.948035	-8.264833	2.021211	2.949356	-0.384226	2.472425	1.534627	-0.893066	0.599121	-0.624023	0.131451	-0.013438	0.077886	-0.221177	-0.171395	0.204589	-0.938002	-19.756317	-24.333005	157.764608
14301		12.779940	-1.262235	7.106411	-8.685549	2.186945	1.814269	-0.438283	2.338242	1.381647	-0.871094	0.612305	-0.650879	0.128701	-0.011582	0.069589	-0.217402	-0.158484	0.205255	-0.941005	-20.138020	-22.799870	158.083333
14302		12.392563	-0.959425	6.219101	-8.975236	2.229918	0.562078	-0.504711	2.138667	1.223511	-0.843994	0.620850	-0.666016	0.124636	-0.008678	0.060883	-0.214185	-0.146586	0.206286	-0.943442	-20.525822	-21.405004	158.338253
14303		12.096744	-0.719043	5.774641	-9.154716	2.141618	-0.231880	-0.582076	1.877468	1.075556	-0.831543	0.643066	-0.673584	0.121538	-0.006372	0.056627	-0.211420	-0.135959	0.207827	-0.945317	-20.938585	-20.177285	158.552706
14304		12.060046	-0.551789	5.523192	-9.441173	2.102806	-0.719195	-0.671912	1.611231	0.948333	-0.814209	0.652344	-0.688232	0.121064	-0.004761	0.054275	-0.209020	-0.126623	0.209961	-0.946675	-21.389803	-19.117876	158.741689
14305		12.003204	-0.508140	5.316100	-9.610304	2.127060	-1.111568	-0.742626	1.352358	0.842147	-0.797852	0.673340	-0.705811	0.120407	-0.004379	0.052365	-0.206874	-0.118530	0.212617	-0.947601	-21.875067	-18.216431	158.918720
14306		11.887346	-0.503194	4.990160	-9.694005	2.207842	-1.590000	-0.765203	1.116979	0.742956	-0.786621	0.680664	-0.701416	0.119167	-0.004400	0.049254	-0.204950	-0.111634	0.215548	-0.948194	-22.366999	-17.460849	159.084586
14307		11.603074	-0.430769	4.707995	-9.619541	2.150867	-2.078455	-0.735259	0.873300	0.642372	-0.774902	0.695557	-0.700195	0.116248	-0.003763	0.046587	-0.203211	-0.106021	0.218521	-0.948532	-22.838337	-16.854391	159.243872
14308		11.380911	-0.377822	4.607818	-9.541753	2.047565	-2.352049	-0.657161	0.654976	0.509661	-0.774170	0.700439	-0.700195	0.113968	-0.003337	0.045717	-0.201816	-0.101670	0.221266	-0.948670	-23.255256	-16.392266	159.375674
14309		11.318109	-0.344610	4.845098	-9.541496	1.862901	-2.250804	-0.563041	0.490762	0.366801	-0.763916	0.706299	-0.713379	0.113305	-0.003102	0.048182	-0.200863	-0.098345	0.223654	-0.948663	-23.605814	-16.047867	159.464870
14310		10.991392	-0.156906	4.977511	-9.364629	1.519406	-2.355764	-0.479446	0.398942	0.206398	-0.761963	0.712891	-0.704346	0.110014	-0.001337	0.049559	-0.200526	-0.095721	0.225654	-0.948529	-23.889095	-15.788480	159.486359
14311		10.159566	0.349028	5.025080	-8.860637	0.795694	-2.780913	-0.438806	0.310142	0.049080	-0.754395	0.716064	-0.696289	0.101673	0.003625	0.050085	-0.200813	-0.093735	0.227475	-0.948232	-24.131686	-15.612139	159.442644
14312		9.445369	0.379013	4.989445	-8.254791	0.545295	-3.044066	-0.433442	0.178508	-0.087304	-0.752197	0.718994	-0.710205	0.094500	0.003857	0.049802	-0.201593	-0.092533	0.229335	-0.947736	-24.359536	-15.536845	159.356312
14313		8.972676	0.011810	4.963579	-7.684475	0.695086	-3.059032	-0.390318	0.030001	-0.185358	-0.761230	0.722412	-0.703369	0.089734	0.000132	0.049622	-0.202647	-0.092192	0.231095	-0.947116	-24.558471	-15.562824	159.253205
14314		8.508698	-0.408405	5.039338	-7.077910	0.838517	-2.945394	-0.296038	-0.132101	-0.239116	-0.756836	0.721924	-0.703125	0.085049	-0.004111	0.050456	-0.203724	-0.092774	0.232546	-0.946473	-24.706006	-15.686117	159.161246
14315		8.114080	-0.765419	5.171224	-6.543644	0.920916	-2.777187	-0.190326	-0.298215	-0.236646	-0.764648	0.719971	-0.705078	0.081054	-0.007701	0.051840	-0.204547	-0.094251	0.233668	-0.945873	-24.804600	-15.895920	159.112209
14316		7.889695	-1.225737	5.346124	-6.102688	1.116068	-2.474965	-0.072823	-0.466665	-0.188022	-0.771973	0.722900	-0.692383	0.078760	-0.012312	0.053650	-0.204886	-0.096583	0.234425	-0.945377	-24.854451	-16.181196	159.131904
14317		7.620374	-1.670915	5.495653	-5.619984	1.288177	-2.208718	0.051049	-0.595446	-0.103203	-0.779541	0.718018	-0.689453	0.076031	-0.016762	0.055179	-0.204613	-0.099556	0.234771	-0.945042	-24.855660	-16.513674	159.229964
14318		7.247624	-1.936090	5.602762	-5.119409	1.296128	-2.081012	0.170066	-0.707231	-0.014137	-0.781982	0.719971	-0.686523	0.072276	-0.019414	0.056267	-0.203725	-0.103068	0.234708	-0.944873	-24.811075	-16.882196	159.404578
14319		6.783355	-2.076981	5.758132	-4.580343	1.147383	-1.990448	0.260824	-0.813204	0.083961	-0.788086	0.713867	-0.673096	0.067607	-0.020817	0.057829	-0.202202	-0.107064	0.234373	-0.944839	-24.739239	-17.283329	159.659061
14320		5.637334	-3.135360	6.082755	-3.011666	1.434168	-1.597907	0.330766	-0.899091	0.193015	-0.791748	0.716064	-0.675049	0.056130	-0.031400	0.061028	-0.200018	-0.111398	0.233846	-0.944933	-24.653302	-17.702535	159.994714
14321		-1.293297	-9.756052	12.966666	6.937845	1.240676	4.860806	0.968803	-1.010441	0.297447	-0.806396	0.719238	-0.676758	-0.013441	-0.098207	0.129125	-0.196851	-0.116779	0.230468	-0.945779	-24.230191	-18.157478	160.414104
14322		-6.711270	-9.562849	15.337404	12.122196	-1.627987	5.091118	0.945228	-0.461369	0.423651	-0.793945	0.710205	-0.676270	-0.067262	-0.096494	0.152764	-0.193722	-0.119382	0.226722	-0.947004	-23.801212	-18.297588	160.765500
14323		-7.950725	-2.912358	5.777961	9.179885	-2.800830	-6.212066	1.144267	-0.796814	-0.077107	-0.812988	0.710205	-0.667236	-0.079747	-0.029422	0.057294	-0.192460	-0.124334	0.222054	-0.947730	-23.197430	-18.732057	160.919436
14324		-1.067215	3.251403	8.481146	0.939262	-6.982529	-3.981693	1.144367	-1.756819	-0.747685	-0.826172	0.699951	-0.666748	-0.011297	0.032070	0.084898	-0.193290	-0.134564	0.217870	-0.947135	-22.544776	-19.823525	160.920509
14325		9.266604	2.853053	15.401448	-6.659057	-6.674459	5.753703	0.710812	-1.713144	-0.913685	-0.836670	0.684570	-0.657715	0.091469	0.027561	0.154901	-0.195226	-0.144337	0.215563	-0.945826	-22.100628	-20.928421	160.806426
14326		10.946664	-0.461231	13.211208	-6.859224	-2.376731	5.739679	0.395764	-1.035240	-0.793527	-0.851074	0.676514	-0.651367	0.108761	-0.005307	0.132666	-0.197534	-0.150452	0.214152	-0.944713	-21.800409	-21.646126	160.596689
14327		5.792194	-2.116502	9.020251	-2.293160	-0.639170	0.851540	0.258933	-0.850807	-0.645289	-0.857910	0.669922	-0.645508	0.057469	-0.021468	0.090420	-0.199438	-0.155402	0.213309	-0.943702	-21.590703	-22.234020	160.425399
14328		4.693776	-3.992387	8.852747	-0.422017	0.642242	0.946028	0.171659	-1.050428	-0.448267	-0.869873	0.660400	-0.639893	0.046382	-0.040104	0.088738	-0.200259	-0.160987	0.213222	-0.942611	-21.489481	-22.885771	160.410926
14329		6.291188	-3.618224	8.950498	-1.833705	0.750756	1.538725	0.161405	-1.059057	-0.307695	-0.883545	0.656006	-0.643066	0.062381	-0.036351	0.089807	-0.200411	-0.166453	0.213300	-0.941611	-21.426364	-23.513336	160.478747
14330		6.679049	-1.710699	9.746664	-2.730119	-1.116335	1.755927	0.117731	-0.895107	-0.282232	-0.885986	0.649170	-0.623291	0.066329	-0.017258	0.097754	-0.200648	-0.171065	0.213434	-0.940704	-21.379735	-24.047481	160.523737
14331		5.944347	-1.428213	10.066235	-2.058237	-1.752283	1.650155	-0.009306	-0.642608	-0.318983	-0.884033	0.652344	-0.616699	0.059097	-0.014372	0.100853	-0.201434	-0.174406	0.213877	-0.939821	-21.373468	-24.455370	160.489113
14332		5.371469	-2.564106	8.933189	-1.260598	-0.476072	0.836873	-0.109809	-0.486181	-0.319879	-0.903809	0.644531	-0.616943	0.053456	-0.025678	0.089476	-0.202476	-0.176902	0.214631	-0.938958	-21.409525	-24.779235	160.418188
14333		6.253560	-4.938250	8.320840	-1.027659	2.021781	1.482698	-0.055838	-0.437561	-0.272808	-0.903564	0.634033	-0.612549	0.062286	-0.049444	0.083359	-0.203301	-0.179180	0.215123	-0.938235	-21.421049	-25.068155	160.363507
14334		6.431445	-5.151788	7.708408	-1.190525	2.532326	1.118637	0.083041	-0.265099	-0.122699	-0.904785	0.645996	-0.606934	0.064181	-0.051589	0.077148	-0.203480	-0.180621	0.214922	-0.937966	-21.373586	-25.232870	160.357463
14335		4.720413	-3.349844	8.004541	-0.457845	0.384027	0.047296	0.120126	-0.212655	-0.097853	-0.906982	0.629150	-0.614990	0.047103	-0.033570	0.080075	-0.203568	-0.181834	0.214516	-0.937806	-21.305749	-25.365283	160.353618
14336		4.793248	-2.916740	8.456998	-0.582422	-0.164668	0.318307	0.077738	-0.145170	-0.103020	-0.906982	0.629150	-0.609375	0.047856	-0.029225	0.084593	-0.203788	-0.182686	0.214234	-0.937657	-21.254277	-25.461865	160.331209
14337		4.745098	-2.990980	8.412255	-0.501913	-0.095597	0.285177	0.046818	-0.114858	-0.085585	-0.912598	0.630127	-0.612549	0.047390	-0.029950	0.084143	-0.203989	-0.183353	0.214083	-0.937517	-21.221757	-25.539516	160.311865
14338		4.673416	-3.041825	8.403715	-0.407227	-0.071535	0.264265	0.022725	-0.085470	-0.072396	-0.918213	0.629883	-0.604736	0.046687	-0.030445	0.084054	-0.204179	-0.183835	0.214026	-0.937394	-21.203588	-25.597838	160.293714
14339		4.455931	-3.385840	8.631262	0.004020	0.036310	0.474031	-0.002102	-0.062954	-0.061587	-0.907715	0.613037	-0.598145	0.044522	-0.033871	0.086327	-0.204369	-0.184183	0.214073	-0.937274	-21.200009	-25.642796	160.276580
14340		4.452901	-3.198795	8.316301	-0.154073	0.029336	0.147075	-0.006328	-0.048143	-0.065337	-0.920898	0.613525	-0.609619	0.044499	-0.032000	0.083175	-0.204592	-0.184453	0.214121	-0.937161	-21.196543	-25.679712	160.254004
14341		4.398448	-3.372002	8.208931	-0.050243	0.205163	0.089770	-0.019738	-0.023215	-0.067364	-0.924072	0.618164	-0.600586	0.043964	-0.033727	0.082098	-0.204867	-0.184603	0.214205	-0.937053	-21.197597	-25.704641	160.224294
14342		4.762691	-2.928893	8.154650	-0.573971	-0.023475	0.057975	-0.006180	-0.015602	-0.089934	-0.923584	0.604492	-0.593994	0.047607	-0.029308	0.081551	-0.205241	-0.184747	0.214196	-0.936944	-21.184445	-25.729265	160.179636
14343		4.676901	-3.151743	8.037194	-0.425311	0.191483	-0.005251	-0.013300	0.028427	-0.086983	-0.932129	0.597412	-0.595459	0.046767	-0.031532	0.080367	-0.205657	-0.184682	0.214178	-0.936870	-21.171580	-25.730668	160.126405
14344		4.141691	-3.292723	8.137619	0.119562	0.098792	-0.107410	-0.001891	0.054736	-0.090693	-0.931885	0.593262	-0.590820	0.041424	-0.032945	0.081365	-0.206106	-0.184503	0.214076	-0.936830	-21.148753	-25.717844	160.065131
14345		4.053886	-3.192168	8.085385	0.133378	0.018779	-0.222106	0.013101	0.062363	-0.108275	-0.935059	0.600342	-0.598389	0.040547	-0.031949	0.080839	-0.206634	-0.184329	0.213880	-0.936793	-21.111926	-25.705477	159.991498
14346		4.314125	-3.129571	8.265659	-0.069488	-0.033047	0.022001	0.010363	0.045395	-0.102744	-0.932373	0.586670	-0.582275	0.043144	-0.031322	0.082645	-0.207118	-0.184218	0.213719	-0.936745	-21.079938	-25.700069	159.925240
14347		4.393203	-2.875285	8.262796	-0.253625	-0.211638	-0.028405	0.016666	0.018912	-0.110961	-0.940430	0.581543	-0.581299	0.043924	-0.028784	0.082621	-0.207608	-0.184254	0.213548	-0.936668	-21.044697	-25.711409	159.859964
14348		4.366288	-2.943287	8.300894	-0.184902	-0.178618	0.014120	0.009410	-0.011568	-0.106181	-0.939697	0.585938	-0.579834	0.043642	-0.029460	0.083010	-0.208048	-0.184413	0.213448	-0.936562	-21.017987	-25.737104	159.804662
14349		4.125608	-3.213814	8.023822	0.080835	0.102546	-0.235950	0.003050	-0.038021	-0.109753	-0.944336	0.567627	-0.576904	0.041223	-0.032162	0.080246	-0.208484	-0.184700	0.213401	-0.936419	-20.996419	-25.778598	159.753041
14350		5.108379	-3.201573	8.087182	-0.729396	0.369966	0.241129	0.024215	-0.062953	-0.122769	-0.942871	0.566650	-0.579102	0.051039	-0.032057	0.080884	-0.208933	-0.185132	0.213269	-0.936263	-20.961933	-25.835141	159.699526
14351		4.448409	-3.370535	8.227427	-0.045782	0.238697	0.126142	0.037362	-0.044822	-0.122029	-0.949951	0.571289	-0.572021	0.044445	-0.033748	0.082278	-0.209388	-0.185500	0.213057	-0.936137	-20.918075	-25.882747	159.642055
14352		4.225543	-3.985463	8.117856	0.414870	0.731181	0.133767	0.064070	-0.044936	-0.144051	-0.945557	0.564209	-0.573975	0.042208	-0.039911	0.081175	-0.209919	-0.185913	0.212700	-0.936018	-20.853281	-25.933914	159.571634
14353		4.795416	-3.583993	8.128299	-0.238470	0.583793	0.262656	0.102072	-0.040379	-0.173864	-0.940186	0.560791	-0.566162	0.047907	-0.035923	0.081274	-0.210560	-0.186383	0.212132	-0.935909	-20.758239	-25.989571	159.482115
14354		4.949559	-3.392010	7.984802	-0.481656	0.554361	0.148316	0.110246	-0.035506	-0.177628	-0.949463	0.549561	-0.562988	0.049451	-0.034008	0.079838	-0.211215	-0.186834	0.211518	-0.935811	-20.657048	-26.042289	159.389303
14355		5.211168	-2.813679	8.124537	-0.924595	0.108571	0.198030	0.123607	-0.036633	-0.184161	-0.953369	0.540771	-0.555664	0.052071	-0.028235	0.081237	-0.211888	-0.187320	0.210835	-0.935715	-20.546325	-26.097746	159.292499
14356		4.457543	-2.932490	8.347956	-0.161819	-0.126944	0.092626	0.106867	-0.048351	-0.171384	-0.952881	0.545654	-0.549316	0.044530	-0.029408	0.083475	-0.212502	-0.187822	0.210255	-0.935606	-20.449683	-26.155800	159.205987
14357		4.195138	-2.886144	8.500316	0.091547	-0.311727	0.090786	0.092960	-0.077377	-0.156557	-0.954590	0.530762	-0.548584	0.041896	-0.028934	0.085006	-0.213032	-0.188436	0.209785	-0.935467	-20.367485	-26.227348	159.134462
14358		4.795974	-2.570441	8.320654	-0.593343	-0.287902	0.107335	0.074405	-0.110533	-0.156494	-0.955078	0.530518	-0.539551	0.047894	-0.025773	0.083223	-0.213542	-0.189178	0.209437	-0.935280	-20.299177	-26.315622	159.070386
14359		4.667769	-2.762859	8.282811	-0.385719	-0.150311	0.079482	0.046167	-0.133132	-0.140784	-0.954834	0.521484	-0.544434	0.046603	-0.027681	0.082853	-0.213983	-0.189987	0.209259	-0.935054	-20.253138	-26.413860	159.020381
14360		4.229498	-3.084626	8.422445	0.191151	-0.092979	0.101743	0.034389	-0.153499	-0.145201	-0.957520	0.525879	-0.536621	0.042208	-0.030891	0.084252	-0.214432	-0.190874	0.209154	-0.934794	-20.214697	-26.522895	158.972317
14361		4.566617	-3.137992	8.249004	-0.090576	0.139967	0.123067	0.036714	-0.158163	-0.158505	-0.958984	0.522217	-0.527832	0.045576	-0.031431	0.082520	-0.214939	-0.191808	0.209030	-0.934514	-20.171495	-26.638036	158.916937
14362		4.899310	-3.098352	8.139282	-0.395742	0.266164	0.168467	0.040015	-0.147200	-0.167789	-0.958252	0.511719	-0.525879	0.048907	-0.031041	0.081423	-0.215494	-0.192696	0.208870	-0.934240	-20.122802	-26.748075	158.853603
14363		4.860558	-3.241626	7.981088	-0.316519	0.447725	0.063053	0.054003	-0.122605	-0.178774	-0.960693	0.499512	-0.517578	0.048528	-0.032481	0.079832	-0.216115	-0.193503	0.208607	-0.933988	-20.060315	-26.847997	158.777830
14364		4.620102	-3.208307	8.080588	-0.086308	0.299634	0.027902	0.068664	-0.107312	-0.183922	-0.954102	0.486328	-0.509521	0.046128	-0.032153	0.080820	-0.216760	-0.194251	0.208254	-0.933762	-19.986464	-26.939606	158.695605
14365		4.775128	-2.928386	8.100419	-0.326607	0.117124	0.029754	0.087114	-0.096815	-0.185452	-0.962646	0.494873	-0.512695	0.047685	-0.029363	0.081015	-0.217406	-0.194980	0.207802	-0.933561	-19.900211	-27.026781	158.609731
14366		4.702257	-2.992632	8.039168	-0.233273	0.182043	-0.034768	0.085575	-0.094068	-0.179678	-0.958496	0.488037	-0.502441	0.046958	-0.030003	0.080401	-0.218028	-0.195680	0.207359	-0.933368	-19.816106	-27.110215	158.526755
14367		4.812636	-2.659413	8.129623	-0.444782	-0.090599	-0.008676	0.092310	-0.090769	-0.161880	-0.953125	0.479492	-0.497070	0.048068	-0.026671	0.081306	-0.218565	-0.196362	0.206898	-0.933201	-19.732380	-27.189347	158.453432
14368		4.659266	-2.638589	8.226279	-0.285263	-0.197399	-0.003395	0.076181	-0.093445	-0.129636	-0.957764	0.477295	-0.498535	0.046537	-0.026447	0.082274	-0.218962	-0.196997	0.206547	-0.933052	-19.667109	-27.262576	158.400302
14369		4.601472	-2.649499	8.333474	-0.187686	-0.254515	0.063554	0.054043	-0.096722	-0.108946	-0.959229	0.473389	-0.496338	0.045960	-0.026543	0.083350	-0.219284	-0.197610	0.206324	-0.932896	-19.620323	-27.334587	158.360107
14370		4.851856	-2.553874	8.307530	-0.435261	-0.236997	0.128751	0.042202	-0.095002	-0.091667	-0.955811	0.487305	-0.484375	0.048467	-0.025578	0.083093	-0.219536	-0.198175	0.206170	-0.932751	-19.585072	-27.401278	158.330183
14371		4.897541	-2.714132	8.147181	-0.426804	-0.014134	0.063881	0.040995	-0.080951	-0.087507	-0.952881	0.475586	-0.480469	0.048931	-0.027179	0.081486	-0.219786	-0.198678	0.206011	-0.932620	-19.550029	-27.460622	158.299457
14372		4.645961	-2.789954	8.253121	-0.141639	-0.083450	0.059282	0.026220	-0.069458	-0.096809	-0.960693	0.472168	-0.479004	0.046417	-0.027933	0.082544	-0.220104	-0.199112	0.205898	-0.932478	-19.519832	-27.514473	158.260765
14373		4.514675	-2.946710	8.121095	0.016997	0.065490	-0.065227	0.036979	-0.060654	-0.100365	-0.957764	0.459961	-0.476318	0.045107	-0.029505	0.081219	-0.220439	-0.199529	0.205723	-0.932348	-19.481336	-27.565293	158.217717
14374		4.995913	-2.840587	8.026440	-0.447180	0.185268	0.047207	0.059765	-0.058532	-0.122974	-0.963379	0.461914	-0.472412	0.049918	-0.028461	0.080271	-0.220857	-0.199975	0.205416	-0.932221	-19.423322	-27.618185	158.160599
14375		4.658162	-2.839278	8.096458	-0.138598	0.045237	-0.050959	0.059456	-0.046150	-0.134646	-0.958008	0.471680	-0.456787	0.046544	-0.028448	0.080967	-0.221344	-0.200385	0.205085	-0.932091	-19.360661	-27.667625	158.093373
14376		4.142067	-3.192274	8.289314	0.526250	0.078762	-0.026120	0.072584	-0.045469	-0.141955	-0.962646	0.455322	-0.450439	0.041379	-0.031982	0.082891	-0.221850	-0.200804	0.204684	-0.931968	-19.288442	-27.716940	158.021682
14377		4.362381	-3.025698	8.234711	0.260136	0.048232	-0.018522	0.075036	-0.048523	-0.164144	-0.957764	0.449219	-0.450439	0.043579	-0.030324	0.082346	-0.222457	-0.201271	0.204253	-0.931817	-19.208500	-27.773081	157.936736
14378		4.826209	-2.705075	8.111035	-0.300685	0.006183	0.000984	0.080926	-0.058814	-0.171219	-0.957520	0.452637	-0.447266	0.048215	-0.027125	0.081114	-0.223077	-0.201791	0.203799	-0.931656	-19.124243	-27.834948	157.849751
14379		4.768818	-2.734283	8.270739	-0.178680	-0.056522	0.116457	0.072499	-0.063763	-0.171037	-0.955322	0.451172	-0.446045	0.047638	-0.027414	0.082713	-0.223702	-0.202334	0.203390	-0.931478	-19.045000	-27.900419	157.763537
14380		4.286436	-2.966277	8.290989	0.352235	-0.031268	-0.025565	0.061963	-0.063783	-0.177783	-0.960205	0.451660	-0.440430	0.042812	-0.029727	0.082914	-0.224367	-0.202862	0.203022	-0.931283	-18.969902	-27.965989	157.673280
14381		4.949277	-2.885016	8.093123	-0.270641	0.225369	0.096562	0.085295	-0.059406	-0.211874	-0.952637	0.445557	-0.437744	0.049438	-0.028937	0.080934	-0.225173	-0.203440	0.202507	-0.931075	-18.870798	-28.036464	157.560764
14382		5.159299	-2.735023	8.014840	-0.522470	0.221412	0.087532	0.093359	-0.042910	-0.241368	-0.960449	0.436768	-0.424316	0.051543	-0.027450	0.080147	-0.226122	-0.203970	0.201905	-0.930859	-18.756904	-28.102192	157.426689
14383		4.565002	-3.109504	8.144851	0.204802	0.277168	0.022355	0.088858	-0.026745	-0.254102	-0.960938	0.436768	-0.434570	0.045600	-0.031189	0.081441	-0.227154	-0.204442	0.201292	-0.930637	-18.639858	-28.162331	157.280937
14384		4.512596	-3.107627	8.223605	0.286344	0.234187	0.062112	0.097806	-0.013849	-0.290491	-0.959717	0.439941	-0.418213	0.045075	-0.031182	0.082224	-0.228356	-0.204891	0.200585	-0.930397	-18.505801	-28.220743	157.110109
14385		4.851416	-2.782822	8.168480	-0.150157	0.126746	0.085077	0.115655	-0.027804	-0.317847	-0.962158	0.428711	-0.416016	0.048458	-0.027952	0.081675	-0.229654	-0.205461	0.199783	-0.930124	-18.354383	-28.292398	156.924759
14386		4.676949	-2.707286	8.255282	-0.000585	-0.019360	0.054049	0.116970	-0.052655	-0.326511	-0.972656	0.423584	-0.409424	0.046703	-0.027197	0.082549	-0.230964	-0.206148	0.198994	-0.929817	-18.201891	-28.377619	156.739020
14387		4.469479	-2.814965	8.454292	0.304778	-0.081303	0.151034	0.140734	-0.091611	-0.317474	-0.965576	0.411865	-0.408691	0.044611	-0.028280	0.084543	-0.232170	-0.207042	0.198148	-0.929499	-18.041519	-28.483077	156.566095
14388		4.512583	-2.658583	8.542125	0.244838	-0.219488	0.201859	0.186294	-0.159551	-0.300882	-0.972168	0.424316	-0.401611	0.045018	-0.026733	0.085432	-0.233181	-0.208279	0.197186	-0.929174	-17.866120	-28.621110	156.416825
14389		4.826655	-2.081679	8.816613	-0.189184	-0.695327	0.426613	0.124014	-0.240572	-0.296188	-0.975830	0.429688	-0.390137	0.048130	-0.020943	0.088211	-0.234157	-0.209823	0.196611	-0.928703	-17.734684	-28.803237	156.285759
14390		4.553622	-2.645549	8.713689	0.331402	-0.282586	0.359477	0.106545	-0.325387	-0.295996	-0.974365	0.412109	-0.389160	0.045355	-0.026569	0.087197	-0.235064	-0.211731	0.196216	-0.928124	-17.620938	-29.030317	156.171219
14391		4.575181	-2.648355	8.571618	0.319657	-0.210210	0.250718	0.083704	-0.406801	-0.301674	-0.984619	0.401123	-0.379395	0.045537	-0.026588	0.085798	-0.235943	-0.214003	0.196016	-0.927422	-17.525361	-29.303722	156.068245
14392		4.877031	-2.416930	8.521893	-0.004464	-0.275866	0.295392	0.086546	-0.470508	-0.305584	-0.977295	0.406006	-0.370850	0.048533	-0.024280	0.085323	-0.236769	-0.216567	0.195872	-0.926646	-17.432532	-29.611412	155.974860
14393		5.005274	-2.405126	8.419524	-0.085734	-0.203136	0.270806	0.084821	-0.539234	-0.315759	-0.981934	0.412354	-0.355957	0.049787	-0.024166	0.084319	-0.237578	-0.219464	0.195805	-0.925771	-17.343092	-29.959340	155.887489
14394		5.092846	-2.521032	8.345309	-0.053284	-0.057473	0.283367	0.087232	-0.602463	-0.321359	-0.983398	0.398438	-0.341797	0.050636	-0.025328	0.083595	-0.238344	-0.222651	0.195794	-0.924815	-17.256051	-30.341646	155.808361
14395		4.708710	-2.823003	8.353965	0.480666	0.030202	0.172182	0.089457	-0.662691	-0.328228	-0.995361	0.390137	-0.338623	0.046764	-0.028344	0.083682	-0.239079	-0.226132	0.195833	-0.923772	-17.170295	-30.759023	155.735458
14396		5.402191	-2.558265	8.183764	-0.181665	0.121805	0.319141	0.105005	-0.742255	-0.368843	-0.995605	0.392822	-0.323975	0.053670	-0.025725	0.082024	-0.239900	-0.230027	0.195848	-0.922594	-17.069540	-31.225668	155.651416
14397		4.802953	-2.816987	8.227265	0.521562	0.078030	0.107639	0.107938	-0.805531	-0.398742	-1.003174	0.393311	-0.306152	0.047641	-0.028310	0.082450	-0.240791	-0.234250	0.195886	-0.921290	-16.961945	-31.732905	155.558899
14398		4.786650	-2.922392	8.428159	0.749927	0.039066	0.282931	0.126641	-0.884040	-0.433832	-1.001709	0.385254	-0.294189	0.047430	-0.029381	0.084473	-0.241738	-0.238879	0.195887	-0.919852	-16.838404	-32.287823	155.457661
14399		4.946619	-2.943809	8.334114	0.707484	0.132843	0.290447	0.153415	-0.957440	-0.479359	-1.021240	0.362793	-0.290771	0.048996	-0.029620	0.083554	-0.242786	-0.243923	0.195795	-0.918271	-16.688989	-32.891347	155.338683
14400		4.985563	-2.863510	8.324694	0.741551	0.060369	0.276978	0.160349	-1.045635	-0.523191	-1.005859	0.360107	-0.267578	0.049344	-0.028832	0.083483	-0.243930	-0.249408	0.195718	-0.916509	-16.526925	-33.549179	155.205672
14401		5.042736	-2.720169	8.405044	0.769878	-0.102112	0.329735	0.179414	-1.136480	-0.559861	-1.011963	0.372559	-0.252441	0.049872	-0.027417	0.084310	-0.245123	-0.255367	0.195611	-0.914570	-16.346802	-34.263539	155.062428
14402		4.890293	-2.770174	8.434395	1.052417	-0.161225	0.266630	0.184618	-1.240813	-0.578848	-1.015625	0.357422	-0.233643	0.048298	-0.027920	0.084619	-0.246281	-0.261809	0.195575	-0.912443	-16.164480	-35.036959	154.923087
14403		5.813701	-2.217752	8.183962	0.110027	-0.198630	0.465502	0.209015	-1.374450	-0.618620	-1.007813	0.347656	-0.214355	0.057504	-0.022442	0.082213	-0.247447	-0.268924	0.195531	-0.910065	-15.963150	-35.890833	154.778030
14404		5.690580	-2.256358	8.423077	0.472894	-0.368945	0.582499	0.193988	-1.488776	-0.662177	-1.021240	0.336670	-0.194092	0.056202	-0.022832	0.084629	-0.248702	-0.276558	0.195625	-0.907411	-15.761191	-36.813161	154.620306
14405		5.480462	-2.487679	8.642442	1.013511	-0.413123	0.661808	0.180255	-1.615007	-0.699690	-1.012207	0.349854	-0.174316	0.054017	-0.025145	0.086840	-0.250007	-0.284772	0.195873	-0.904453	-15.560144	-37.811420	154.454754
14406		5.520117	-2.632399	8.346668	1.125885	-0.190471	0.471327	0.230465	-1.743213	-0.736527	-1.026123	0.337158	-0.154297	0.054373	-0.026622	0.083912	-0.251258	-0.293633	0.195985	-0.901243	-15.323148	-38.884652	154.281289
14407		5.891438	-2.003131	8.781194	0.896447	-0.843196	0.878998	0.237889	-1.930370	-0.784484	-1.015625	0.312500	-0.132568	0.057984	-0.020365	0.088351	-0.252508	-0.303371	0.196209	-0.897612	-15.074769	-40.068881	154.100935
14408		5.372083	-3.404534	8.820115	2.295435	0.011142	0.816065	0.251909	-2.083573	-0.846567	-1.023682	0.305908	-0.105469	0.052653	-0.034381	0.088710	-0.253833	-0.313833	0.196445	-0.893581	-14.798765	-41.345546	153.894954
14409		5.079486	-3.437957	9.026135	2.845514	-0.235750	0.719804	0.303033	-2.256615	-0.898799	-1.019287	0.305176	-0.085205	0.049617	-0.034742	0.090773	-0.255108	-0.325147	0.196564	-0.889136	-14.477246	-42.725702	153.670221
14410		6.415542	-2.614565	8.380063	1.442064	-0.197792	0.962034	0.337331	-2.506574	-1.002082	-1.017090	0.302490	-0.054199	0.062966	-0.026605	0.084550	-0.256496	-0.337656	0.196649	-0.884040	-14.099631	-44.257376	153.398525
14411		5.616169	-3.225199	8.028927	2.421330	0.126693	0.213287	0.332875	-2.752453	-1.101801	-1.006836	0.273926	-0.029785	0.054871	-0.032691	0.080996	-0.258041	-0.351282	0.196860	-0.878215	-13.681124	-45.938867	153.073289
14412		5.347674	-3.266745	8.975488	3.405965	-0.519086	0.577106	0.340154	-3.032202	-1.215058	-1.004150	0.263916	0.005371	0.051908	-0.033139	0.090494	-0.259729	-0.366165	0.197153	-0.871547	-13.202412	-47.788745	152.680752
14413		6.252570	-2.863997	8.217856	2.563377	-0.257542	0.588293	0.417460	-3.337507	-1.384305	-1.004150	0.265625	0.036377	0.060943	-0.029238	0.083144	-0.261636	-0.382540	0.197137	-0.863914	-12.575122	-49.828741	152.161604
14414		6.409177	-2.729301	8.636185	3.009623	-0.654553	0.846020	0.447473	-3.609060	-1.544568	-0.997559	0.251709	0.068359	0.062306	-0.027974	0.087435	-0.263815	-0.400143	0.196968	-0.855272	-11.799483	-52.035245	151.489517
14415		5.738195	-4.106931	8.506488	4.544979	0.182671	0.259337	0.527690	-3.853437	-1.710908	-0.983887	0.228271	0.105713	0.055375	-0.041775	0.086035	-0.266194	-0.418897	0.196364	-0.845640	-10.798990	-54.391446	150.614696
14416		6.958373	-2.965541	7.649785	3.143258	0.002186	0.474791	0.619581	-4.110385	-1.952320	-0.982422	0.207520	0.136230	0.067698	-0.030562	0.077808	-0.269018	-0.438887	0.195112	-0.834829	-9.448180	-56.905186	149.405637
14417		7.421822	-3.715762	8.485140	4.403983	0.125430	1.207743	0.548492	-4.273563	-2.161005	-0.964355	0.205078	0.187744	0.071975	-0.038179	0.086302	-0.272562	-0.459426	0.193811	-0.822846	-7.760080	-59.510776	147.786637
14418		8.983502	-2.819260	9.376539	4.318401	-0.792579	2.727516	0.531431	-4.435093	-2.389700	-0.948486	0.190430	0.221680	0.087381	-0.029499	0.095644	-0.276762	-0.480545	0.192156	-0.809664	-5.556491	-62.192847	145.609827
14419		7.672049	-2.367339	8.824014	4.742729	-1.316470	1.053314	0.302626	-4.542948	-2.495733	-0.922852	0.167725	0.257568	0.074386	-0.024747	0.089911	-0.281656	-0.501572	0.191196	-0.795324	-2.915915	-64.894341	142.851922
14420		9.816569	-1.755826	8.680776	4.119744	-1.320287	2.679149	0.101757	-4.785599	-2.709783	-0.911621	0.135498	0.303711	0.095802	-0.018912	0.089110	-0.287472	-0.523125	0.190702	-0.779315	0.532719	-67.668727	139.147177
14421		10.793013	-1.654734	9.680155	5.142900	-1.963913	3.699373	-0.284045	-4.803057	-2.740664	-0.874756	0.124756	0.335449	0.105325	-0.017863	0.099377	-0.294181	-0.543825	0.191512	-0.762257	4.776050	-70.346947	134.426559
14422		9.274054	-2.597640	8.548065	5.939024	-1.172489	1.551108	-0.669407	-4.914757	-2.863183	-0.857666	0.100098	0.359863	0.090220	-0.026989	0.087808	-0.302066	-0.564069	0.193469	-0.743742	10.397236	-72.925617	128.098938
14423		13.594744	-7.022535	9.458087	9.472231	2.232955	5.313223	-0.726224	-4.804908	-2.885943	-0.828369	0.069336	0.388672	0.132591	-0.071803	0.098052	-0.310057	-0.583384	0.195252	-0.724848	17.941588	-75.196506	119.819982
14424		14.478150	-5.326508	8.119334	8.057304	1.735277	5.546594	-0.562822	-4.456211	-3.001656	-0.811768	0.052246	0.423828	0.142104	-0.055177	0.084533	-0.318095	-0.601358	0.195415	-0.706397	27.991484	-76.884989	109.132079
14425		11.957461	-4.338285	8.475627	8.514081	0.004766	2.880034	-0.746555	-3.776735	-2.932024	-0.791504	0.033691	0.444336	0.117294	-0.044791	0.087151	-0.326893	-0.616175	0.195230	-0.689459	39.103111	-77.767061	97.303977
14426		4.501346	-0.747972	6.087318	4.868578	-2.659276	-4.607254	-1.088894	-3.012924	-3.043235	-0.766846	0.011475	0.452393	0.043972	-0.007820	0.061583	-0.337702	-0.627582	0.194527	-0.673986	49.801814	-77.781509	85.717564
14427		16.090150	4.883740	18.636101	10.232592	-12.811746	9.192527	-2.081394	-1.403658	-3.021718	-0.759033	-0.032471	0.444580	0.160324	0.048356	0.186983	-0.352968	-0.631591	0.194437	-0.662344	56.090734	-76.886387	78.047309
14428		15.194968	-6.231762	20.331942	19.244800	-6.780240	6.520183	-3.453089	1.848076	-2.493876	-0.770264	-0.058105	0.406738	0.153063	-0.060715	0.202966	-0.373817	-0.621612	0.194725	-0.660258	53.904533	-75.112542	78.258442
14429		5.017444	-14.336607	10.748828	18.079365	2.560851	-6.232822	-3.271414	3.186867	-1.988552	-0.781494	-0.081299	0.384033	0.050486	-0.142092	0.109017	-0.393519	-0.606692	0.193371	-0.663080	49.459178	-73.089653	80.927948
14430		2.545031	-15.499155	6.255473	15.961396	5.567794	-9.568094	-2.129703	3.704260	-1.254380	-0.800781	-0.088623	0.320801	0.025653	-0.154478	0.063728	-0.407607	-0.591263	0.189331	-0.669641	44.914063	-71.122581	84.418243
14431		1.034398	-14.116100	5.112067	14.174218	4.959189	-10.793640	-1.023723	3.780660	-0.247351	-0.828369	-0.109619	0.291748	0.011142	-0.140911	0.051637	-0.414942	-0.576605	0.184333	-0.679244	40.497364	-69.436690	88.482914
14432		1.225875	-11.393179	4.981910	11.981760	3.543637	-9.801259	-0.255579	3.627501	0.882439	-0.860840	-0.094482	0.255615	0.013664	-0.113810	0.049725	-0.415936	-0.562820	0.180226	-0.691194	35.999504	-68.119164	93.147357
14433		1.497864	-8.917664	5.186070	10.128800	2.172230	-8.654439	0.106522	3.513125	1.948880	-0.885254	-0.082031	0.212646	0.016754	-0.089047	0.051529	-0.411960	-0.548993	0.178048	-0.705120	31.083451	-67.059432	98.526505
14434		1.147872	-6.893791	5.481780	8.687807	0.789031	-8.145646	0.193675	3.441112	2.770834	-0.907227	-0.060547	0.183594	0.013373	-0.068814	0.054532	-0.404605	-0.534639	0.177879	-0.720288	25.789845	-66.082443	104.412770
14435		1.301585	-5.461518	5.775557	7.655621	-0.059298	-7.311669	0.105688	3.444223	3.276789	-0.933105	-0.033936	0.146484	0.014900	-0.054412	0.057481	-0.395444	-0.519344	0.179288	-0.736045	20.328989	-65.001283	110.473262
14436		1.768279	-4.257903	5.928925	6.629421	-0.575796	-6.331803	-0.026439	3.530936	3.510364	-0.963867	0.002197	0.100098	0.019469	-0.042240	0.058962	-0.385617	-0.502970	0.181502	-0.751916	15.029320	-63.683996	116.331510
14437		2.452712	-3.063946	6.415368	5.708112	-1.250503	-5.079505	-0.194405	3.649366	3.545416	-0.985107	0.041260	0.051025	0.026230	-0.030122	0.063715	-0.375935	-0.485452	0.184102	-0.767539	10.134920	-62.083073	121.699593
14438		3.572442	-2.390996	6.858352	4.949294	-1.406819	-3.565410	-0.430374	3.791654	3.471686	-0.995117	0.060303	0.011719	0.037423	-0.023123	0.067935	-0.367000	-0.466716	0.187029	-0.782628	5.754327	-60.205122	126.415280
14439		3.964794	-2.100996	6.848803	4.306500	-1.323235	-2.976817	-0.621179	3.919098	3.367000	-1.012695	0.086914	-0.041748	0.041324	-0.020112	0.067753	-0.358783	-0.446889	0.190110	-0.797134	1.906606	-58.089773	130.476952
14440		4.491372	-2.265468	6.861075	3.910086	-0.902725	-2.312025	-0.760027	3.968105	3.284407	-1.035645	0.129150	-0.095215	0.046625	-0.021640	0.067780	-0.351017	-0.426418	0.193331	-0.810912	-1.447339	-55.822341	133.954261
14441		5.174448	-2.516891	7.108949	3.575002	-0.505234	-1.410724	-0.811751	3.908081	3.286507	-1.031250	0.156494	-0.132080	0.053522	-0.024013	0.070154	-0.343049	-0.405781	0.196752	-0.823983	-4.417860	-53.485356	137.020047
14442		5.758218	-2.532162	7.840813	3.282904	-0.602165	-0.331852	-0.800230	3.770802	3.405227	-1.038574	0.197754	-0.181641	0.059464	-0.024009	0.077397	-0.334214	-0.385371	0.200460	-0.836425	-7.117874	-51.138054	139.848249
14443		8.001644	-2.584459	8.897911	2.248948	-0.199957	2.218477	-0.806268	3.678256	3.620865	-1.050049	0.229980	-0.235596	0.082082	-0.024016	0.087581	-0.324160	-0.364831	0.204638	-0.848494	-9.668112	-48.745187	142.570507
14444		8.872318	-3.254639	9.336265	1.832613	0.440355	3.335868	-0.674602	3.661981	3.871499	-1.049561	0.279297	-0.279297	0.091017	-0.030488	0.091815	-0.312568	-0.344090	0.208587	-0.860462	-12.010649	-46.265282	145.218713
14445		9.661928	-3.034344	9.776410	0.728600	0.407039	4.237100	-0.456325	3.655419	4.110507	-1.043213	0.323730	-0.322998	0.098978	-0.028105	0.096035	-0.299323	-0.323182	0.211873	-0.872393	-14.103076	-43.687142	147.802578
14446		10.194838	-1.236082	10.319610	-1.277772	-0.968888	4.655932	-0.309696	3.616683	4.286823	-1.038818	0.374023	-0.375000	0.104023	-0.009988	0.101344	-0.284809	-0.302256	0.214687	-0.883988	-15.961463	-41.046468	150.292095
14447		10.792519	0.347526	10.916214	-3.152251	-2.257992	5.042705	-0.325497	3.596792	4.272743	-1.031738	0.428955	-0.421631	0.109755	0.005983	0.107191	-0.270124	-0.281139	0.217418	-0.894831	-17.609539	-38.360273	152.573069
14448		11.017087	0.999740	11.087607	-4.346055	-2.790944	4.972068	-0.406948	3.623693	4.002725	-1.000977	0.473145	-0.461670	0.111922	0.012449	0.108835	-0.256596	-0.259905	0.219923	-0.904567	-18.999221	-35.666432	154.488992
14449		11.108383	0.898588	11.068482	-5.045761	-2.686039	4.816008	-0.439307	3.639436	3.548571	-0.976807	0.522705	-0.498291	0.112887	0.011218	0.108618	-0.244993	-0.238843	0.221818	-0.913088	-20.091296	-33.014937	155.971599
14450		11.580985	0.366857	11.024058	-5.787620	-2.068010	4.951122	-0.425137	3.623091	3.009857	-0.954834	0.562256	-0.549072	0.117706	0.005662	0.108109	-0.235675	-0.218359	0.222884	-0.920380	-20.890309	-30.464363	157.021950
14451		12.535528	-0.201307	10.752954	-6.964353	-1.103008	5.122068	-0.399917	3.589409	2.515752	-0.925049	0.593262	-0.571045	0.127268	-0.000208	0.105258	-0.228433	-0.198463	0.223222	-0.926608	-21.462722	-28.019876	157.717203
14452		13.366386	-0.660402	10.230531	-8.156157	-0.109268	4.924573	-0.420286	3.512873	2.096764	-0.896484	0.616455	-0.606689	0.135491	-0.004978	0.099948	-0.222973	-0.179307	0.223220	-0.931829	-21.897414	-25.703330	158.140202
14453		14.269850	-1.158530	9.172730	-9.474164	1.220530	4.252330	-0.489669	3.391821	1.769182	-0.869141	0.639893	-0.636230	0.144321	-0.010093	0.089315	-0.218867	-0.160903	0.223296	-0.936134	-22.279375	-23.515576	158.375346
14454		14.860050	-1.696103	7.824624	-10.484843	2.613843	3.153739	-0.551344	3.179971	1.531170	-0.830078	0.659180	-0.649170	0.149943	-0.015605	0.075913	-0.215622	-0.143662	0.223621	-0.939607	-22.647336	-21.494187	158.504243
14455		15.351270	-1.924203	6.295582	-11.478693	3.789725	1.713446	-0.605559	2.882355	1.372911	-0.809814	0.679688	-0.681885	0.154526	-0.017997	0.060789	-0.212755	-0.127869	0.224346	-0.942366	-23.031171	-19.661423	158.599381
14456		15.820580	-2.178707	5.175553	-12.269183	4.750636	0.613405	-0.619670	2.510783	1.300739	-0.776123	0.693115	-0.693115	0.158976	-0.020598	0.049828	-0.209779	-0.113889	0.225430	-0.944565	-23.430554	-18.043026	158.728198
14457		16.516077	-2.580769	4.325054	-13.087648	5.745937	-0.126161	-0.568596	2.179122	1.310055	-0.751953	0.706787	-0.705811	0.165783	-0.024603	0.041518	-0.206308	-0.101475	0.226586	-0.946466	-23.819759	-16.593382	158.929654
14458		16.247581	-2.278032	3.784586	-13.275035	5.654420	-1.136038	-0.466247	1.885500	1.393818	-0.745361	0.730957	-0.718018	0.162976	-0.021560	0.036362	-0.202031	-0.090465	0.227564	-0.948269	-24.173747	-15.279104	159.236112
14459		15.591098	-1.869940	2.992017	-13.126061	5.423795	-2.477164	-0.311766	1.574383	1.509388	-0.716309	0.741699	-0.721191	0.156275	-0.017476	0.028719	-0.196750	-0.080928	0.228151	-0.950098	-24.466334	-14.096604	159.671768
14460		14.811278	-1.259957	2.174076	-12.888832	4.961247	-3.901299	-0.115541	1.213789	1.594370	-0.702393	0.745605	-0.735596	0.148335	-0.011405	0.020848	-0.190558	-0.073207	0.228165	-0.951982	-24.667236	-13.081703	160.233600
14461		14.426478	-0.303467	1.692704	-13.072078	4.153928	-5.023052	0.064714	0.811396	1.613398	-0.681641	0.775391	-0.728027	0.144350	-0.001876	0.016341	-0.183729	-0.067534	0.227695	-0.953854	-24.779852	-12.269073	160.899798
14462		14.374479	0.817717	1.692550	-13.548682	3.063144	-5.664795	0.135498	0.441146	1.550123	-0.676025	0.771729	-0.734619	0.143713	0.009280	0.016615	-0.176747	-0.063768	0.227184	-0.955553	-24.854216	-11.664247	161.619915
14463		14.371242	1.405144	1.896458	-13.821842	2.317041	-5.851859	0.111314	0.140324	1.413626	-0.675049	0.775879	-0.742432	0.143622	0.015056	0.018872	-0.170070	-0.061566	0.227004	-0.956951	-24.936872	-11.247265	162.339716
14464		14.159610	1.631944	2.036329	-13.746809	1.839048	-5.946797	0.080950	-0.074612	1.214125	-0.657959	0.782715	-0.742188	0.141486	0.017170	0.020423	-0.164108	-0.060594	0.227074	-0.958037	-25.021518	-10.989615	163.005247
14465		13.274632	1.067046	1.880358	-12.761885	1.990369	-6.062823	0.091495	-0.280330	0.949609	-0.657959	0.788086	-0.746826	0.132667	0.011292	0.018995	-0.159170	-0.060915	0.227181	-0.958824	-25.081834	-10.902290	163.581156
14466		12.260069	1.089225	-5.382667	-12.194690	4.855878	-12.671877	0.927281	-1.341785	0.446252	-0.663330	0.783203	-0.733154	0.122933	0.011413	-0.052951	-0.155179	-0.067558	0.223956	-0.959791	-24.664012	-11.489598	164.151754
14467		14.507428	8.556439	-4.288291	-16.786668	-1.600627	-14.018697	1.351542	-2.695788	0.098425	-0.687256	0.777588	-0.716064	0.145587	0.085914	-0.040343	-0.151175	-0.081414	0.219601	-0.960361	-24.042539	-12.871717	164.860486
14468		9.142678	3.945530	9.735160	-8.842123	-5.472085	-0.550640	0.898415	-3.105653	-0.048657	-0.705322	0.772217	-0.717285	0.089908	0.038991	0.098931	-0.147573	-0.097030	0.217611	-0.959923	-23.700728	-14.507653	165.579978
14469		3.213143	-2.077989	20.432294	0.399851	-6.554837	9.909780	0.718379	-2.186997	-0.337530	-0.718506	0.770752	-0.702393	0.029859	-0.021566	0.204581	-0.146418	-0.108410	0.215630	-0.959329	-23.380747	-15.732519	165.919333
14470		-4.386808	1.758827	12.210944	5.391997	-7.971564	-0.934581	0.938966	-1.935802	-1.293106	-0.739258	0.767334	-0.689697	-0.044935	0.017304	0.121760	-0.149974	-0.119751	0.211852	-0.958273	-22.774152	-17.040817	165.666725
14471		1.661003	5.988774	10.739349	-1.685290	-9.529957	-2.047744	0.571930	-2.591736	-2.002255	-0.773926	0.755127	-0.680420	0.015811	0.059419	0.107772	-0.156422	-0.134694	0.209856	-0.955694	-22.291771	-18.850754	165.155745
14472		13.448899	-3.088615	14.402292	-8.173406	-0.482875	8.374435	0.063601	-2.560974	-1.699020	-0.791992	0.744873	-0.662842	0.132361	-0.032063	0.145717	-0.161754	-0.148730	0.210414	-0.952597	-22.135487	-20.574796	164.792532
14473		12.150641	-7.880283	11.134963	-5.473577	4.738631	6.959219	0.182479	-1.838950	-1.120208	-0.817871	0.728027	-0.656982	0.120032	-0.079580	0.112385	-0.164975	-0.158800	0.210214	-0.950461	-21.957840	-21.791237	164.583325
14474		7.459580	-5.673434	8.214147	-2.499584	2.978992	2.027025	0.301302	-1.702117	-0.749557	-0.827393	0.728271	-0.640869	0.073680	-0.057136	0.082685	-0.166464	-0.167900	0.209610	-0.948769	-21.775246	-22.853874	164.550040
14475		7.616919	-3.634777	9.664879	-2.846173	0.582547	2.685093	0.296661	-1.663975	-0.601960	-0.839111	0.720215	-0.630371	0.075252	-0.036719	0.097223	-0.167286	-0.176660	0.209104	-0.947144	-21.623644	-23.866425	164.589701
14476		8.292404	-1.992456	10.691241	-3.601747	-1.155111	3.329837	0.261505	-1.378478	-0.621886	-0.857422	0.708008	-0.621826	0.082122	-0.020321	0.107454	-0.168517	-0.184034	0.208492	-0.945656	-21.459855	-24.729532	164.549259
14477		12.222548	-4.899004	10.547393	-5.743693	2.350342	5.875566	0.334377	-0.887337	-0.614497	-0.869629	0.695801	-0.614502	0.121605	-0.049541	0.105932	-0.170154	-0.189146	0.207120	-0.944655	-21.206124	-25.330580	164.396220
14478		8.620584	-1.689278	8.780852	-4.280884	-0.448206	1.838247	0.297065	-0.360549	-0.266883	-0.867920	0.700195	-0.612305	0.086025	-0.017138	0.087938	-0.170723	-0.191360	0.205800	-0.944395	-21.008295	-25.576035	164.325696
14479		5.067358	-2.094692	9.398874	-0.810068	-1.232964	0.968232	0.084258	-0.156036	-0.231310	-0.874268	0.695068	-0.612549	0.050576	-0.021045	0.094019	-0.171542	-0.192406	0.205344	-0.944133	-20.920632	-25.706627	164.228687
14480		5.057041	-3.422364	8.204475	-0.592168	0.454109	0.387446	0.089129	-0.090555	-0.244936	-0.882568	0.677246	-0.608154	0.050491	-0.034322	0.082052	-0.172482	-0.193143	0.204795	-0.943930	-20.820122	-25.802792	164.108715
14481		6.010150	-2.943879	8.457093	-1.520104	0.176175	0.862937	0.068384	-0.021086	-0.165040	-0.887939	0.676758	-0.611572	0.060068	-0.029517	0.084567	-0.173142	-0.193470	0.204361	-0.943837	-20.744872	-25.847381	164.020041
14482		4.978416	-3.059930	8.256232	-0.632900	0.120998	0.281764	0.033432	0.050192	-0.130695	-0.887695	0.684570	-0.605957	0.049785	-0.030646	0.082545	-0.173741	-0.193378	0.204064	-0.943810	-20.691775	-25.844675	163.936020
14483		4.960765	-3.220761	8.015034	-0.620846	0.372752	0.122043	0.041923	0.057929	-0.132269	-0.894043	0.678711	-0.604004	0.049610	-0.032257	0.080129	-0.174352	-0.193276	0.203717	-0.943793	-20.632368	-25.840176	163.848992
14484		4.299486	-3.487844	8.001214	0.056026	0.452992	-0.093546	0.058594	0.099772	-0.131354	-0.901611	0.668457	-0.607178	0.043012	-0.034930	0.079980	-0.174980	-0.192973	0.203257	-0.943838	-20.559882	-25.810850	163.753498
14485		3.924482	-3.224061	8.146410	0.316620	0.079853	-0.218237	0.080223	0.067676	-0.186457	-0.886475	0.658447	-0.602051	0.039242	-0.032310	0.081438	-0.175819	-0.192913	0.202669	-0.943821	-20.463590	-25.811821	163.632040
14486		4.818935	-3.281295	8.283455	-0.387133	0.309473	0.304574	0.095799	0.064590	-0.212293	-0.899658	0.656250	-0.601074	0.048181	-0.032904	0.082803	-0.176758	-0.192890	0.201985	-0.943797	-20.352230	-25.817277	163.496188
14487		3.948424	-3.248731	8.593825	0.448138	-0.065090	0.176960	0.083468	0.050605	-0.194832	-0.909912	0.643066	-0.606934	0.039474	-0.032562	0.085915	-0.177616	-0.192922	0.201389	-0.943757	-20.253517	-25.828700	163.373494
14488		4.847829	-2.881094	8.344572	-0.543651	-0.022356	0.244049	0.103386	-0.010841	-0.188025	-0.904053	0.645752	-0.601807	0.048447	-0.028900	0.083433	-0.178355	-0.193237	0.200759	-0.943687	-20.151262	-25.869476	163.268666
14489		4.735527	-2.858097	8.241543	-0.476094	-0.012638	0.101450	0.080294	-0.006492	-0.153353	-0.915527	0.634766	-0.606934	0.047331	-0.028650	0.082405	-0.178963	-0.193493	0.200268	-0.943624	-20.070478	-25.903086	163.183175
14490		4.697669	-3.166241	8.350202	-0.274128	0.202737	0.272093	0.083051	-0.029488	-0.132202	-0.926514	0.629150	-0.602539	0.046943	-0.031728	0.083496	-0.179440	-0.193821	0.199804	-0.943564	-19.996051	-25.942664	163.115629
14491		4.467585	-3.309127	8.109302	-0.076058	0.381877	0.011710	0.094107	-0.046545	-0.138001	-0.922607	0.614746	-0.595459	0.044634	-0.033160	0.081088	-0.179922	-0.194264	0.199298	-0.943488	-19.915008	-25.994663	163.047886
14492		4.618135	-3.293714	8.359245	-0.125321	0.305491	0.284028	0.091715	-0.071171	-0.126551	-0.924561	0.612305	-0.591797	0.046131	-0.033005	0.083594	-0.180322	-0.194791	0.198837	-0.943401	-19.840882	-26.055435	162.992587
14493		4.875114	-3.114331	8.250789	-0.436959	0.275292	0.250839	0.094408	-0.112393	-0.135096	-0.930420	0.613281	-0.591309	0.048684	-0.031215	0.082521	-0.180724	-0.195541	0.198391	-0.943262	-19.766472	-26.142223	162.940604
14494		4.830038	-3.032260	8.261556	-0.410941	0.194588	0.215793	0.076412	-0.126476	-0.154064	-0.937012	0.606445	-0.578857	0.048225	-0.030391	0.082634	-0.181214	-0.196342	0.198024	-0.943079	-19.698825	-26.238018	162.880442
14495		4.718426	-3.169149	8.279494	-0.232541	0.279736	0.223482	0.061817	-0.118105	-0.188268	-0.929199	0.596680	-0.577637	0.047105	-0.031761	0.082813	-0.181892	-0.197142	0.197685	-0.942853	-19.629167	-26.338059	162.797372
14496		4.840855	-3.122957	8.066326	-0.399570	0.373941	0.084424	0.065259	-0.121469	-0.239831	-0.950439	0.593506	-0.565918	0.048322	-0.031314	0.080682	-0.182801	-0.197994	0.197281	-0.942583	-19.544100	-26.447487	162.684075
14497		4.029519	-3.271393	8.260937	0.438321	0.205457	-0.068575	0.063965	-0.116608	-0.271671	-0.949219	0.576172	-0.554688	0.040203	-0.032795	0.082622	-0.183872	-0.198871	0.196848	-0.942281	-19.450115	-26.562481	162.549873
14498		4.563775	-3.455419	8.160128	0.054520	0.559716	0.139163	0.082349	-0.115395	-0.303572	-0.948975	0.570313	-0.560303	0.045538	-0.034657	0.081613	-0.185070	-0.199771	0.196294	-0.941971	-19.336718	-26.680411	162.396112
14499		4.452100	-2.680985	8.354168	-0.095997	-0.207455	0.023403	0.091198	-0.126732	-0.314425	-0.954590	0.555176	-0.544922	0.044426	-0.026918	0.083558	-0.186303	-0.200762	0.195698	-0.941641	-19.215611	-26.808502	162.237400
14500		4.195011	-3.110941	8.469093	0.369061	0.049210	0.130295	0.099138	-0.150249	-0.292209	-0.959229	0.554199	-0.539551	0.041841	-0.031213	0.084707	-0.187396	-0.201830	0.195108	-0.941318	-19.098022	-26.942591	162.096991
14501		4.557594	-2.949801	8.331553	-0.021103	0.082031	0.131180	0.117368	-0.170635	-0.284925	-0.957031	0.547363	-0.536133	0.045463	-0.029612	0.083337	-0.188420	-0.203022	0.194458	-0.940992	-18.973124	-27.088350	161.964446
14502		4.885620	-2.800128	8.116808	-0.399474	0.151860	0.056955	0.148536	-0.177634	-0.291388	-0.961670	0.540039	-0.524902	0.048743	-0.028133	0.081191	-0.189431	-0.204263	0.193661	-0.940685	-18.828972	-27.236571	161.829219
14503		4.343978	-3.267095	8.139279	0.300471	0.404045	-0.038319	0.167352	-0.176140	-0.297292	-0.962402	0.528076	-0.516113	0.043319	-0.032804	0.081404	-0.190456	-0.205539	0.192767	-0.940383	-18.671345	-27.387025	161.689102
14504		4.826097	-2.737608	8.392345	-0.225476	-0.007939	0.245450	0.200903	-0.170257	-0.317950	-0.962646	0.519287	-0.510742	0.048146	-0.027537	0.083937	-0.191544	-0.206820	0.191688	-0.940102	-18.487766	-27.535411	161.534800
14505		4.163155	-3.090353	8.358830	0.511032	0.139539	0.009299	0.201662	-0.188977	-0.313066	-0.965576	0.503174	-0.492920	0.041504	-0.031053	0.083596	-0.192593	-0.208202	0.190628	-0.939798	-18.305894	-27.694934	161.386208
14506		3.977123	-3.125922	8.674148	0.818031	-0.003884	0.195330	0.195346	-0.185195	-0.334820	-0.969971	0.506836	-0.490479	0.039638	-0.031410	0.086748	-0.193750	-0.209562	0.189570	-0.939472	-18.120621	-27.853594	161.223041
14507		4.392330	-2.752171	8.465940	0.274834	-0.096103	0.109723	0.201834	-0.205605	-0.347396	-0.971680	0.490479	-0.483887	0.043788	-0.027683	0.084677	-0.194944	-0.211054	0.188487	-0.939109	-17.928802	-28.027376	161.055020
14508		4.144277	-2.989122	8.427773	0.612270	0.068726	0.023851	0.191774	-0.199476	-0.349273	-0.970459	0.498535	-0.479004	0.041306	-0.030044	0.084290	-0.196157	-0.212489	0.187443	-0.938742	-17.741057	-28.195405	160.884064
14509		5.124076	-2.409763	8.158875	-0.513149	-0.008173	0.105317	0.185822	-0.204165	-0.362929	-0.964111	0.474609	-0.472900	0.051114	-0.024266	0.081618	-0.197439	-0.213970	0.186416	-0.938341	-17.551962	-28.370098	160.704308
14510		4.966905	-2.390124	8.129967	-0.363798	-0.040469	0.002865	0.182079	-0.204630	-0.351630	-0.968994	0.471191	-0.456543	0.049544	-0.024062	0.081329	-0.198667	-0.215420	0.185418	-0.937948	-17.367792	-28.540358	160.531093
14511		4.662888	-2.562666	8.246689	0.041589	-0.016798	0.001360	0.182000	-0.210558	-0.333980	-0.964844	0.471436	-0.450684	0.046499	-0.025779	0.082492	-0.199810	-0.216899	0.184444	-0.937556	-17.188267	-28.712630	160.368759
14512		5.088695	-2.291662	8.266316	-0.388983	-0.115900	0.152935	0.173230	-0.243272	-0.331053	-0.968262	0.458008	-0.447266	0.050748	-0.023072	0.082705	-0.200913	-0.218500	0.183546	-0.937125	-17.017151	-28.899631	160.214047
14513		4.507658	-2.417400	8.632101	0.309911	-0.325776	0.210967	0.183513	-0.261338	-0.302122	-0.971924	0.461914	-0.430420	0.044927	-0.024321	0.086358	-0.201857	-0.220187	0.182650	-0.936702	-16.849349	-29.093574	160.079609
14514		4.528155	-2.529992	8.423385	0.314207	-0.122966	0.073893	0.156127	-0.280033	-0.305325	-0.964111	0.455811	-0.430664	0.045125	-0.025435	0.084277	-0.202823	-0.221917	0.181895	-0.936232	-16.697513	-29.295706	159.946217
14515		4.494222	-2.713158	8.481683	0.488696	0.005583	0.150203	0.134785	-0.309764	-0.323510	-0.967773	0.441895	-0.420410	0.044767	-0.027261	0.084868	-0.203874	-0.223799	0.181250	-0.935680	-16.553782	-29.519090	159.805685
14516		4.715989	-2.317169	8.544947	0.191378	-0.285712	0.212655	0.143073	-0.343971	-0.325628	-0.977051	0.436035	-0.413818	0.046975	-0.023309	0.085514	-0.204889	-0.225832	0.180598	-0.935096	-16.407215	-29.759053	159.669644
14517		4.828735	-2.308060	8.242340	0.038104	-0.123631	0.013963	0.141840	-0.371358	-0.336790	-0.975342	0.449707	-0.406494	0.048095	-0.023220	0.082496	-0.205937	-0.228018	0.179965	-0.934457	-16.258928	-30.017799	159.530157
14518		5.077692	-2.383293	8.328423	-0.047675	-0.015933	0.228373	0.145450	-0.392106	-0.357054	-0.976318	0.444824	-0.396973	0.050571	-0.023984	0.083366	-0.207050	-0.230303	0.179313	-0.933776	-16.103279	-30.288646	159.380854
14519		5.171915	-2.422349	8.190729	-0.099852	0.110251	0.171407	0.150051	-0.422909	-0.368428	-0.980225	0.433350	-0.387207	0.051501	-0.024380	0.081998	-0.208186	-0.232764	0.178656	-0.933039	-15.942467	-30.580130	159.228221
14520		4.552963	-2.710423	8.167698	0.582180	0.179880	-0.095919	0.153274	-0.447281	-0.371833	-0.979248	0.428223	-0.379639	0.045296	-0.027251	0.081758	-0.209306	-0.235324	0.178005	-0.932270	-15.779978	-30.882976	159.076848
14521		4.729877	-2.571127	8.479033	0.547667	-0.014208	0.216069	0.178659	-0.475686	-0.395496	-0.990723	0.421143	-0.368408	0.047046	-0.025880	0.084879	-0.210484	-0.238081	0.177235	-0.931451	-15.595798	-31.206986	158.913390
14522		4.801116	-2.917556	8.132153	0.591401	0.456345	0.043092	0.198675	-0.494224	-0.406008	-0.991699	0.419922	-0.358398	0.047751	-0.029354	0.081411	-0.211664	-0.240933	0.176377	-0.930613	-15.397012	-31.540147	158.745053
14523		5.092478	-2.789012	8.308191	0.431256	0.367825	0.307405	0.202584	-0.509637	-0.433463	-0.987793	0.423096	-0.347168	0.050652	-0.028084	0.083183	-0.212955	-0.243901	0.175482	-0.929714	-15.185725	-31.887659	158.559184
14524		4.922230	-2.401774	8.321734	0.454685	-0.013054	0.139236	0.200499	-0.550638	-0.458905	-0.994873	0.414063	-0.346680	0.048938	-0.024214	0.083328	-0.214324	-0.247058	0.174607	-0.928730	-14.968872	-32.258854	158.362087
14525		5.046228	-2.306309	8.494683	0.452946	-0.124751	0.322492	0.207566	-0.601469	-0.487627	-0.996338	0.405518	-0.322510	0.050150	-0.023274	0.085074	-0.215775	-0.250498	0.173716	-0.927639	-14.739691	-32.663947	158.152013
14526		5.133976	-2.588515	8.436918	0.584428	0.169984	0.378904	0.229875	-0.710927	-0.525885	-1.001221	0.406006	-0.317383	0.050971	-0.026117	0.084521	-0.217271	-0.254481	0.172789	-0.926378	-14.491665	-33.132335	157.932918
14527		4.819190	-2.494659	8.802552	1.025164	-0.165498	0.475829	0.242033	-0.817732	-0.559773	-1.011963	0.390381	-0.309082	0.047761	-0.025187	0.088191	-0.218816	-0.259012	0.171874	-0.924928	-14.230191	-33.666154	157.705301
14528		5.032917	-2.313152	8.757196	0.862814	-0.235650	0.510503	0.243509	-0.958078	-0.603854	-1.011475	0.392822	-0.285156	0.049839	-0.023389	0.087783	-0.220432	-0.264207	0.171043	-0.923227	-13.960575	-34.281076	157.467694
14529		4.773576	-2.203520	9.082920	1.266179	-0.561219	0.590306	0.242905	-1.114647	-0.636286	-1.018311	0.380615	-0.267090	0.047158	-0.022296	0.091066	-0.222060	-0.270159	0.170339	-0.921243	-13.687870	-34.988704	157.228360
14530		5.318378	-2.275804	8.945261	0.975893	-0.285219	0.791386	0.227436	-1.282990	-0.694403	-1.020752	0.367432	-0.249268	0.052529	-0.023043	0.089765	-0.223818	-0.276888	0.169806	-0.918915	-13.411245	-35.794857	156.971105
14531		4.870231	-2.347665	9.287629	1.657013	-0.542112	0.791491	0.212259	-1.453867	-0.754786	-1.021240	0.361816	-0.239990	0.047936	-0.023757	0.093202	-0.225720	-0.284437	0.169440	-0.916208	-13.126969	-36.705228	156.691819
14532		5.149160	-2.292163	9.040418	1.493367	-0.427272	0.726814	0.177036	-1.657978	-0.834513	-1.026123	0.365479	-0.214355	0.050643	-0.023214	0.090806	-0.227843	-0.292909	0.169339	-0.913026	-12.840110	-37.736667	156.380856
14533		5.426355	-2.589474	9.576984	1.901569	-0.376561	1.327632	0.150839	-1.930316	-0.932713	-1.031738	0.357178	-0.187988	0.053214	-0.026217	0.096267	-0.230203	-0.302665	0.169507	-0.909213	-12.539584	-38.933331	156.031682
14534		4.632471	-3.383991	10.055438	3.351860	-0.242787	1.265325	0.150567	-2.233481	-1.024879	-1.033447	0.325195	-0.165771	0.045024	-0.034149	0.101036	-0.232691	-0.313820	0.169864	-0.904720	-12.212244	-40.307543	155.649474
14535		4.925148	-3.970050	10.555578	3.997397	0.032443	1.825515	0.296546	-2.643147	-1.155654	-1.037109	0.331299	-0.126465	0.047620	-0.040136	0.106133	-0.235154	-0.327067	0.169800	-0.899387	-11.757914	-41.926642	155.213192
14536		4.570322	-4.072515	11.242633	4.997952	-0.401869	1.964975	0.339815	-3.106411	-1.302605	-1.035156	0.319580	-0.105225	0.043683	-0.041206	0.113046	-0.237754	-0.342477	0.169805	-0.892944	-11.220535	-43.817967	154.705675
14537		4.908957	-4.610388	11.693552	5.733200	-0.183288	2.400656	0.278621	-3.622555	-1.564636	-1.028564	0.297363	-0.061768	0.046598	-0.046639	0.117730	-0.241111	-0.360237	0.170190	-0.884946	-10.581564	-46.025674	154.023374
14538		3.421394	-4.935721	11.784450	7.363560	-0.564967	1.158577	0.197608	-4.186660	-1.869931	-1.030762	0.276367	-0.016846	0.031274	-0.049776	0.118471	-0.245372	-0.380478	0.170986	-0.875096	-9.793257	-48.574786	153.101398
14539		4.531147	-5.731223	11.747388	7.669609	0.255598	1.695816	0.309641	-4.863839	-2.193060	-1.017334	0.263916	0.032471	0.041806	-0.057966	0.118430	-0.250104	-0.403867	0.171403	-0.863111	-8.677163	-51.527024	151.873963
14540		3.926141	-4.277528	11.510766	7.621943	-1.180011	0.515596	0.490594	-5.421612	-2.518981	-1.002197	0.244141	0.080322	0.035580	-0.043523	0.115999	-0.255197	-0.429834	0.170939	-0.849057	-7.064203	-54.800842	150.207334
14541		4.346574	-4.618437	11.802106	8.419118	-1.127025	0.545710	0.497291	-5.896492	-2.831405	-0.991699	0.210205	0.134277	0.039302	-0.047056	0.119105	-0.260943	-0.457673	0.170214	-0.832749	-4.877227	-58.329960	147.926131
14542		7.244135	-3.243887	10.854250	6.397397	-1.146363	1.955996	0.433309	-6.198612	-3.175231	-0.973633	0.202393	0.184814	0.068504	-0.033786	0.110634	-0.267711	-0.486448	0.169167	-0.814298	-1.835857	-61.982432	144.704855
14543		9.037215	-0.898602	11.952720	5.898595	-3.370605	3.570356	0.094167	-6.300041	-3.308430	-0.947021	0.161377	0.245117	0.086383	-0.010494	0.122286	-0.275428	-0.514694	0.169104	-0.794125	2.072208	-65.590291	140.408387
14544		9.802440	-0.746120	11.879917	6.381498	-3.561976	3.761924	-0.429706	-6.573237	-3.391568	-0.926514	0.130371	0.285889	0.093908	-0.008817	0.121949	-0.284229	-0.542693	0.171058	-0.771646	7.196960	-69.191457	134.590884
14545		9.658705	-1.433117	11.345304	7.279746	-3.133057	2.882204	-1.003411	-6.478344	-3.433279	-0.890869	0.116699	0.333008	0.092586	-0.015364	0.116571	-0.294439	-0.568802	0.174744	-0.747820	14.153589	-72.482599	126.619015
14546		10.588688	-7.231126	10.766837	11.214731	1.427685	2.532212	-1.049740	-6.486793	-3.489043	-0.860596	0.083008	0.385498	0.101038	-0.073524	0.111382	-0.304577	-0.594142	0.178216	-0.722818	24.347181	-75.346942	115.387295
14547		14.945880	-5.759885	10.486238	10.541290	1.014237	6.131542	-0.809312	-6.084179	-3.500425	-0.817627	0.034424	0.415527	0.145140	-0.059728	0.109561	-0.314000	-0.617619	0.179940	-0.698264	38.396015	-77.297394	100.454948
14548		12.577064	-3.686109	11.664303	11.034297	-2.200696	3.646117	-1.043075	-5.065348	-3.320122	-0.796631	0.027344	0.448242	0.122132	-0.038289	0.119965	-0.324090	-0.636341	0.181239	-0.676157	53.367861	-77.961708	84.517424
14549		4.566770	-0.115098	6.587605	5.136286	-3.367710	-4.661524	-1.639471	-3.724404	-3.306728	-0.778809	0.001221	0.452393	0.044409	-0.001348	0.066721	-0.336980	-0.649025	0.182280	-0.657256	65.275822	-77.421948	71.367486
14550		25.145822	7.660705	25.848004	15.448351	-17.731687	18.578392	-3.049508	-1.124569	-3.271443	-0.759521	-0.042236	0.447266	0.251255	0.076440	0.258727	-0.356498	-0.650372	0.183575	-0.645156	69.097933	-75.946759	65.642062
14551		16.263206	-8.264541	21.191172	22.204343	-5.708851	6.193455	-4.512245	3.167151	-2.740164	-0.788574	-0.080811	0.405029	0.164871	-0.080124	0.211139	-0.382730	-0.634288	0.183532	-0.646152	62.734636	-73.776525	69.551431
14552		-1.162493	-16.488085	8.173464	17.535730	3.975094	-13.894528	-3.866591	4.312222	-2.268981	-0.798340	-0.112549	0.342041	-0.011671	-0.163124	0.085151	-0.406079	-0.614715	0.180530	-0.651640	55.847856	-71.399236	74.442563
14553		-2.511704	-15.448202	3.923171	14.060342	5.464551	-15.537296	-2.463489	3.999564	-1.484013	-0.813965	-0.126709	0.308594	-0.025443	-0.153791	0.041636	-0.421954	-0.597793	0.175868	-0.658535	50.687418	-69.349981	78.417850
14554		0.091117	-14.690982	3.469917	13.523799	5.954460	-12.898301	-1.365125	3.527805	-0.356681	-0.853271	-0.132568	0.261475	0.001273	-0.146671	0.035681	-0.430220	-0.583483	0.171862	-0.667025	46.371645	-67.861009	82.209507
14555		2.907337	-13.104256	4.688198	13.232480	5.178795	-9.335486	-0.642596	3.354659	0.990078	-0.857422	-0.124512	0.222900	0.030507	-0.130743	0.046799	-0.431585	-0.569922	0.169703	-0.678325	41.793026	-66.877428	86.766200
14556		3.989166	-11.235266	5.927771	12.479825	3.791596	-7.140462	-0.191581	3.531183	2.276762	-0.893066	-0.111328	0.187500	0.042206	-0.111825	0.058653	-0.427293	-0.555454	0.169223	-0.693004	36.404088	-66.131900	92.518785
14557		1.989844	-8.911190	6.156963	10.709283	1.701668	-7.897141	0.088108	3.723933	3.245838	-0.925293	-0.083252	0.151855	0.022482	-0.088788	0.061128	-0.418795	-0.539770	0.169980	-0.710187	30.370238	-65.374277	99.185479
14558		0.811464	-6.140379	6.214336	8.564426	-0.239150	-7.927079	0.172026	3.826296	3.783374	-0.939941	-0.047119	0.102295	0.010461	-0.061274	0.061905	-0.407980	-0.523114	0.171544	-0.728339	24.194120	-64.419709	106.109949
14559		1.051005	-3.060355	6.544748	6.257669	-2.052229	-6.662790	-0.012320	3.925754	3.959155	-0.958984	-0.018066	0.063721	0.012395	-0.030367	0.065218	-0.396772	-0.505136	0.173926	-0.746431	18.211233	-63.140391	112.764024
14560		2.172634	-1.747525	6.705913	4.994071	-2.368593	-5.102990	-0.351831	4.064103	3.908704	-0.994141	0.021240	0.015869	0.023417	-0.016911	0.066625	-0.386429	-0.485651	0.177017	-0.763859	12.697078	-61.491551	118.758489
14561		2.753210	-1.067550	6.833332	4.185613	-2.524878	-4.199475	-0.718882	4.185274	3.734828	-1.016602	0.062744	-0.032959	0.029144	-0.009897	0.067771	-0.377426	-0.464715	0.180729	-0.780337	7.784649	-59.507249	123.922088
14562		4.412192	-1.459277	6.972517	3.771420	-1.552011	-2.493982	-1.032194	4.292340	3.536298	-1.022705	0.104492	-0.090820	0.045850	-0.013435	0.068825	-0.369732	-0.442621	0.184838	-0.795751	3.512077	-57.257825	128.240177
14563		4.534981	-2.238427	6.910126	3.886466	-0.838165	-2.229772	-1.105272	4.324162	3.437584	-1.037598	0.120361	-0.137939	0.047202	-0.021205	0.068213	-0.362313	-0.419954	0.188829	-0.810377	-0.172579	-54.832645	131.911437
14564		5.657589	-2.532565	7.500015	3.550234	-0.405055	-0.763910	-1.056534	4.256154	3.440374	-1.041260	0.166260	-0.191650	0.058576	-0.023937	0.073897	-0.354445	-0.397366	0.192585	-0.824245	-3.357419	-52.332966	135.112324
14565		8.141286	-2.443437	8.491717	2.355748	0.135638	1.966726	-1.012781	4.266701	3.617814	-1.049072	0.206299	-0.249512	0.083620	-0.022510	0.083266	-0.345472	-0.374273	0.196359	-0.837862	-6.254586	-49.716205	138.084776
14566		8.769481	-3.118820	8.758888	1.990862	0.838782	2.782412	-0.882420	4.281521	3.905445	-1.054932	0.252441	-0.306152	0.090126	-0.029063	0.085808	-0.334791	-0.350799	0.199918	-0.851403	-8.899723	-46.987528	140.943185
14567		9.315399	-3.399217	8.961605	1.245519	1.271010	3.432071	-0.686039	4.210837	4.233359	-1.050781	0.297119	-0.357178	0.095701	-0.031681	0.087730	-0.321987	-0.327264	0.203174	-0.864837	-11.312169	-44.178712	143.761890
14568		10.872371	-2.902199	9.526681	-0.572254	1.348645	4.856326	-0.506721	4.075296	4.564231	-1.040039	0.360352	-0.405029	0.111256	-0.026264	0.093086	-0.307040	-0.304018	0.206210	-0.877939	-13.507934	-41.333989	146.563359
14569		11.485991	-1.287559	10.327823	-2.568390	0.021712	5.470943	-0.359299	3.916113	4.783397	-1.021973	0.419189	-0.452148	0.117114	-0.009909	0.101019	-0.290433	-0.281125	0.208994	-0.890471	-15.475149	-38.467089	149.300022
14570		12.530089	0.429799	11.372299	-4.827325	-1.428179	6.346101	-0.377561	3.853773	4.736072	-0.990479	0.469482	-0.489014	0.127308	0.007509	0.111270	-0.273738	-0.258321	0.211670	-0.901961	-17.193999	-35.582512	151.789628
14571		12.849794	1.681737	11.602130	-6.570795	-2.448589	6.103294	-0.507005	3.849221	4.425992	-0.967773	0.519775	-0.537842	0.130280	0.019977	0.113477	-0.258340	-0.235399	0.214356	-0.912085	-18.669833	-32.694629	153.892290
14572		12.636811	2.033229	10.935079	-7.586312	-2.536041	4.998145	-0.603903	3.725222	3.914995	-0.933838	0.562012	-0.570313	0.127940	0.023152	0.106910	-0.245061	-0.213330	0.216857	-0.920548	-19.881192	-29.937007	155.551307
14573		13.695734	1.446838	10.315693	-8.965132	-1.445272	4.801287	-0.590170	3.485237	3.268660	-0.909668	0.604004	-0.599609	0.138462	0.017023	0.100705	-0.234304	-0.192889	0.218765	-0.927382	-20.807793	-27.405050	156.768278
14574		14.948480	2.085125	10.327579	-10.928503	-1.558114	4.766781	-0.629367	3.163965	2.586759	-0.872070	0.645264	-0.630127	0.150804	0.023116	0.100827	-0.226291	-0.174591	0.220453	-0.932583	-21.532804	-25.176955	157.584656
14575		17.425022	2.279625	10.353610	-13.656544	-0.893410	5.309471	-0.900459	2.940143	2.064001	-0.846924	0.660156	-0.647705	0.175495	0.025061	0.100853	-0.220605	-0.157492	0.223124	-0.936347	-22.265801	-23.164836	158.104815
14576		19.421152	0.035370	9.146827	-15.056300	2.176021	5.332349	-1.123540	2.859405	1.734490	-0.812988	0.687500	-0.661621	0.195477	0.002549	0.088669	-0.216488	-0.140887	0.226588	-0.939117	-23.031068	-21.267725	158.418914
14577		20.117131	-2.997893	6.621083	-15.154064	6.102272	3.993136	-0.969710	2.834173	1.564542	-0.780273	0.693604	-0.681641	0.202309	-0.028087	0.063488	-0.212955	-0.124678	0.229175	-0.941586	-23.658965	-19.414396	158.616017
14578		18.753316	-4.350130	4.039342	-14.097772	8.015596	1.318367	-0.487354	2.688815	1.494135	-0.758545	0.714600	-0.703857	0.188372	-0.042002	0.037968	-0.209241	-0.109754	0.229536	-0.944185	-23.996303	-17.656741	158.790252
14579		16.969674	-3.291496	2.202050	-13.486542	7.455759	-1.678890	-0.087038	2.302366	1.518308	-0.725830	0.724609	-0.714600	0.170179	-0.031615	0.020077	-0.204695	-0.096991	0.228382	-0.946855	-24.129376	-16.091419	159.063582
14580		17.028594	-1.436243	1.756996	-14.598325	6.153108	-3.169139	-0.058445	1.804059	1.598403	-0.701904	0.732422	-0.723633	0.170543	-0.012995	0.016036	-0.199163	-0.086539	0.227596	-0.949234	-24.280373	-14.770575	159.495085
14581		17.795625	-0.674053	1.421105	-15.816681	5.854514	-3.921797	-0.255807	1.403850	1.678327	-0.686035	0.743164	-0.737549	0.178098	-0.005229	0.012969	-0.192847	-0.077666	0.228158	-0.951169	-24.569593	-13.635561	160.060282
14582		17.987831	-0.062984	0.949087	-16.423224	5.493461	-4.857378	-0.384398	1.106503	1.701777	-0.676758	0.754639	-0.738037	0.179924	0.000918	0.008495	-0.186115	-0.070068	0.229593	-0.952753	-24.938329	-12.648933	160.701486
14583		17.368397	0.490064	0.298520	-16.224143	4.975742	-6.070851	-0.332306	0.839589	1.602515	-0.658447	0.768311	-0.728760	0.173648	0.006296	0.002246	-0.179509	-0.063886	0.230980	-0.954119	-25.269768	-11.819923	161.348324
14584		16.433852	1.661173	-0.160150	-15.897492	3.762929	-7.371029	-0.151329	0.511054	1.396284	-0.650146	0.770264	-0.741211	0.164212	0.017757	-0.002034	-0.173441	-0.059679	0.231708	-0.955337	-25.481752	-11.209843	161.962416
14585		15.785645	2.575420	-0.097065	-15.669634	2.622966	-7.966408	0.024456	0.142067	1.115003	-0.635010	0.775635	-0.736084	0.157709	0.026634	-0.001079	-0.168228	-0.057709	0.231831	-0.956359	-25.578125	-10.858385	162.518743
14586		15.562899	2.896832	0.491974	-15.581787	1.877639	-7.687035	0.141036	-0.197546	0.815435	-0.639648	0.787842	-0.737793	0.155504	0.029599	0.005094	-0.164017	-0.057808	0.231580	-0.957145	-25.590614	-10.756031	163.001979
14587		15.095363	2.803788	1.329900	-15.093543	1.316507	-6.992997	0.196442	-0.440556	0.526997	-0.635010	0.790527	-0.739258	0.150849	0.028422	0.013659	-0.160888	-0.059457	0.231187	-0.957670	-25.555446	-10.851860	163.394794
14588		13.963863	2.729012	1.964469	-13.975017	0.677295	-6.566856	0.171274	-0.635914	0.263407	-0.649658	0.789307	-0.732666	0.139539	0.027457	0.020112	-0.158800	-0.062316	0.230980	-0.957887	-25.517760	-11.112881	163.697981
14589		12.668042	2.444534	2.461042	-12.618938	0.263122	-6.178969	0.103633	-0.831371	0.022023	-0.654053	0.794922	-0.736572	0.126574	0.024446	0.025149	-0.157665	-0.066353	0.231182	-0.957755	-25.506186	-11.536891	163.923330
14590		6.409920	-7.261833	3.249591	-3.415435	6.360664	-2.583746	0.884052	-1.258134	-0.062593	-0.658936	0.788818	-0.722656	0.063872	-0.072782	0.032577	-0.156172	-0.073127	0.227938	-0.958283	-25.061160	-12.201352	164.209294
14591		-6.150646	0.356583	16.924736	7.007901	-9.625781	3.701187	1.522125	-1.703498	-0.045064	-0.680420	0.780029	-0.723877	-0.062945	0.002294	0.168736	-0.153845	-0.082529	0.221980	-0.959294	-24.279860	-13.099338	164.607332
14592		-9.532861	-2.036520	14.543904	11.056345	-7.236697	1.673286	0.792168	-1.599303	-0.130073	-0.690430	0.786377	-0.717529	-0.096501	-0.020877	0.144588	-0.152321	-0.090932	0.219373	-0.959377	-23.903378	-13.963708	164.926658
14593		-7.347239	1.861051	7.118303	7.099883	-6.627183	-6.100139	0.852977	-2.560423	-0.878466	-0.714600	0.770020	-0.714600	-0.074294	0.018635	0.070315	-0.153287	-0.104817	0.216843	-0.958382	-23.452776	-15.508861	165.063842
14594		5.720363	3.573955	12.853509	-4.603277	-7.424010	1.779819	0.654726	-3.142164	-1.380964	-0.742920	0.772949	-0.700195	0.055417	0.034930	0.129530	-0.156092	-0.121838	0.215383	-0.956243	-23.076949	-17.472820	165.052049
14595		14.034925	0.257081	15.640218	-10.172420	-3.829476	8.173120	0.344898	-2.574592	-1.382990	-0.762451	0.755859	-0.678711	0.138333	0.001338	0.158195	-0.159670	-0.135890	0.214907	-0.953863	-22.832485	-19.139515	164.894118
14596		11.120805	-2.450310	11.124185	-6.969587	-0.212770	4.497879	0.256528	-1.941955	-1.252085	-0.793701	0.746582	-0.668213	0.109964	-0.025338	0.112281	-0.163331	-0.146675	0.214396	-0.951758	-22.606329	-20.440453	164.652363
14597		6.270843	-3.844409	9.788084	-2.054163	0.364651	2.251779	0.236336	-1.826424	-1.071497	-0.808105	0.740723	-0.651123	0.061604	-0.038892	0.098401	-0.166257	-0.156702	0.213993	-0.949742	-22.410952	-21.642203	164.478480
14598		6.969318	-3.468648	9.117687	-2.730280	0.490733	1.850708	0.191376	-1.871717	-0.842580	-0.825684	0.741455	-0.649170	0.068689	-0.035065	0.091789	-0.168059	-0.166625	0.213997	-0.947733	-22.290027	-22.815205	164.441583
14599		10.272377	-2.484160	10.810646	-5.388295	-0.362855	4.307901	0.129871	-1.706399	-0.696018	-0.841309	0.730957	-0.630615	0.101709	-0.025267	0.108961	-0.169384	-0.175562	0.214256	-0.945823	-22.220428	-23.871298	164.447504
14600		11.717831	-4.227432	12.411418	-5.320630	0.685281	6.933621	0.097762	-1.164205	-0.611659	-0.851318	0.717529	-0.626465	0.116323	-0.042692	0.124772	-0.170903	-0.181784	0.214267	-0.944371	-22.136393	-24.618865	164.372725
14601		9.984936	-5.286337	8.855968	-4.186360	2.806750	3.628603	0.168608	-0.517867	-0.360530	-0.856934	0.712891	-0.622559	0.099524	-0.053118	0.088773	-0.171866	-0.184766	0.213613	-0.943765	-22.007172	-24.972088	164.289259
14602		4.792598	-4.387890	8.570437	-0.026913	0.903269	0.904500	0.132821	-0.456174	-0.149389	-0.862061	0.711914	-0.616943	0.047698	-0.043972	0.085784	-0.171924	-0.187174	0.213269	-0.943358	-21.944528	-25.244098	164.314638
14603		4.466919	-2.928637	8.482100	-0.310970	-0.377065	0.199169	0.117391	-0.358273	-0.191321	-0.875244	0.707764	-0.609619	0.044489	-0.029379	0.084884	-0.172305	-0.189177	0.212874	-0.942978	-21.869835	-25.476304	164.291489
14604		5.995090	-3.609144	7.930668	-1.482021	0.835333	0.626099	0.084937	-0.219194	-0.230279	-0.873291	0.700439	-0.612549	0.059822	-0.036194	0.079357	-0.173040	-0.190511	0.212474	-0.942665	-21.789796	-25.639562	164.212538
14605		5.159733	-3.863404	7.524361	-0.742118	1.045992	0.011764	0.141397	-0.094178	-0.217257	-0.880127	0.693848	-0.606445	0.051520	-0.038743	0.075241	-0.173799	-0.191317	0.211712	-0.942534	-21.667261	-25.736723	164.111042
14606		4.074580	-3.663837	7.959809	0.259936	0.425532	-0.162001	0.210070	0.018208	-0.265986	-0.886475	0.690918	-0.615967	0.040704	-0.036776	0.079556	-0.174834	-0.191677	0.210481	-0.942545	-21.481554	-25.780694	163.954492
14607		4.116095	-4.000619	8.186905	0.443102	0.645767	0.155218	0.251458	0.088430	-0.328277	-0.887207	0.686035	-0.608887	0.041131	-0.040177	0.081800	-0.176203	-0.191836	0.208934	-0.942602	-21.248458	-25.803055	163.744137
14608		4.004756	-3.863098	8.158693	0.488675	0.549660	0.035398	0.296668	0.120554	-0.353155	-0.889404	0.683350	-0.607422	0.040028	-0.038823	0.081505	-0.177672	-0.191880	0.207120	-0.942717	-20.980077	-25.809180	163.511922
14609		3.808603	-3.801853	8.322267	0.694192	0.411633	0.064973	0.311076	0.128774	-0.367076	-0.889648	0.665283	-0.617188	0.038070	-0.038218	0.083139	-0.179207	-0.191939	0.205217	-0.942831	-20.698663	-25.816095	163.269149
14610		4.456451	-3.138667	8.489889	-0.077894	-0.021418	0.276054	0.306199	0.095465	-0.343517	-0.894775	0.656250	-0.614502	0.044551	-0.031593	0.084829	-0.180593	-0.192097	0.203388	-0.942931	-20.429663	-25.831732	163.048197
14611		4.694243	-2.559913	8.566404	-0.488738	-0.448964	0.263611	0.275638	0.080954	-0.286419	-0.896240	0.652832	-0.609863	0.046940	-0.025784	0.085610	-0.181731	-0.192265	0.201771	-0.943025	-20.194009	-25.846277	162.864065
14612		5.174954	-2.421380	8.377293	-1.003085	-0.322689	0.272543	0.214606	0.041443	-0.234310	-0.909424	0.651123	-0.610107	0.051738	-0.024364	0.083736	-0.182634	-0.192484	0.200525	-0.943072	-20.010921	-25.867872	162.720037
14613		5.030730	-2.389659	8.711590	-0.784477	-0.514950	0.484394	0.156440	0.015269	-0.158275	-0.906250	0.639404	-0.609131	0.050295	-0.024005	0.087093	-0.183215	-0.192724	0.199652	-0.943095	-19.883021	-25.891749	162.626710
14614		5.629775	-2.215879	8.783055	-1.342971	-0.520171	0.754828	0.066438	-0.014664	-0.114723	-0.907471	0.636475	-0.605713	0.056279	-0.022220	0.087827	-0.183641	-0.192951	0.199271	-0.943047	-19.821250	-25.919746	162.566301
14615		4.393922	-2.735109	8.550614	-0.122765	-0.302604	0.176994	-0.000019	-0.051505	-0.056070	-0.911621	0.632324	-0.610840	0.043910	-0.027363	0.085517	-0.183824	-0.193261	0.199295	-0.942943	-19.815887	-25.959654	162.548521
14616		4.095434	-3.387169	8.571594	0.422895	0.160032	0.262692	-0.044010	-0.082428	-0.064752	-0.916504	0.621338	-0.608398	0.040908	-0.033866	0.085740	-0.184053	-0.193656	0.199545	-0.942764	-19.836845	-26.014440	162.532670
14617		4.256865	-3.146700	8.485419	0.168296	0.030898	0.187096	-0.038495	-0.113787	-0.098003	-0.923584	0.621582	-0.600098	0.042505	-0.031471	0.084884	-0.184409	-0.194266	0.199766	-0.942522	-19.848363	-26.096069	162.503215
14618		3.406044	-3.956992	8.250009	1.187012	0.592515	-0.139970	-0.010574	-0.121067	-0.148625	-0.926270	0.615234	-0.589844	0.033981	-0.039591	0.082523	-0.184962	-0.194958	0.199813	-0.942261	-19.831624	-26.187994	162.445373
14619		4.473899	-3.708211	8.159964	0.160743	0.712181	0.178235	0.086587	-0.121732	-0.214893	-0.926270	0.600830	-0.593018	0.044649	-0.037165	0.081611	-0.185738	-0.195837	0.199338	-0.942026	-19.741061	-26.296511	162.347263
14620		4.640762	-3.616789	7.906766	-0.072936	0.803928	0.009893	0.132962	-0.097208	-0.247404	-0.942139	0.597656	-0.587158	0.046324	-0.036278	0.079066	-0.186640	-0.196647	0.198590	-0.941837	-19.613052	-26.394473	162.224424
14621		4.626646	-3.261838	7.825376	-0.214808	0.551407	-0.172580	0.200565	-0.062353	-0.255357	-0.937744	0.584473	-0.582520	0.046200	-0.032756	0.078235	-0.187553	-0.197392	0.197483	-0.941733	-19.440113	-26.478298	162.088540
14622		4.945919	-3.034936	8.186444	-0.455711	0.306940	0.206736	0.206418	-0.051219	-0.258784	-0.944336	0.583496	-0.586426	0.049399	-0.030498	0.081846	-0.188480	-0.198065	0.196334	-0.941647	-19.261907	-26.552931	161.948265
14623		4.264948	-3.029344	8.298067	0.175264	0.085591	-0.005216	0.200879	-0.047630	-0.236235	-0.945313	0.571777	-0.563477	0.042594	-0.030427	0.082960	-0.189317	-0.198722	0.195229	-0.941570	-19.091942	-26.624492	161.820131
14624		4.814869	-2.688671	8.279909	-0.426081	-0.022631	0.126462	0.195351	-0.053744	-0.217020	-0.947998	0.571533	-0.568115	0.048097	-0.027020	0.082786	-0.190055	-0.199354	0.194175	-0.941506	-18.931059	-26.691953	161.705031
14625		4.168701	-2.539796	8.704024	0.202753	-0.500243	0.152115	0.147879	-0.044666	-0.185910	-0.954346	0.551758	-0.563965	0.041644	-0.025501	0.087031	-0.190709	-0.199897	0.193367	-0.941425	-18.804386	-26.751981	161.606261
14626		4.393408	-2.817965	8.453189	0.073450	-0.074743	0.121514	0.140842	-0.060581	-0.174970	-0.957520	0.547852	-0.555664	0.043884	-0.028278	0.084525	-0.191297	-0.200468	0.192617	-0.941338	-18.686447	-26.814930	161.517652
14627		4.230199	-2.690522	8.366941	0.147045	-0.178280	-0.061496	0.139350	-0.074765	-0.191178	-0.958008	0.543213	-0.546875	0.042245	-0.027004	0.083666	-0.191955	-0.201149	0.191871	-0.941211	-18.565592	-26.891879	161.421454
14628		4.516084	-2.786856	8.380633	-0.029986	-0.007532	0.106767	0.137689	-0.081576	-0.200777	-0.956299	0.534668	-0.540527	0.045099	-0.027972	0.083805	-0.192647	-0.201840	0.191130	-0.941072	-18.443886	-26.970597	161.320988
14629		4.462562	-2.952086	8.183962	0.048687	0.217801	-0.037380	0.148005	-0.100812	-0.230887	-0.964600	0.523682	-0.533203	0.044550	-0.029633	0.081840	-0.193457	-0.202689	0.190328	-0.940886	-18.308964	-27.068504	161.205326
14630		4.091417	-2.715105	8.371593	0.335851	-0.158755	-0.114388	0.136895	-0.085068	-0.239094	-0.957520	0.514648	-0.521973	0.040846	-0.027257	0.083715	-0.194326	-0.203432	0.189554	-0.940703	-18.176818	-27.155584	161.081574
14631		4.279144	-2.915806	8.485752	0.323971	0.030142	0.122858	0.127413	-0.097747	-0.258497	-0.958984	0.512451	-0.517822	0.042712	-0.029267	0.084860	-0.195289	-0.204272	0.188818	-0.940470	-18.045029	-27.256253	160.947705
14632		3.996149	-2.695459	8.526757	0.499130	-0.244637	-0.033564	0.126555	-0.102581	-0.267585	-0.957764	0.503418	-0.503662	0.039882	-0.027062	0.085271	-0.196285	-0.205113	0.188079	-0.940227	-17.911710	-27.357406	160.809296
14633		4.187986	-2.972395	8.531283	0.486078	0.057750	0.133040	0.110000	-0.090315	-0.268211	-0.954102	0.501709	-0.501953	0.041801	-0.029827	0.085315	-0.197317	-0.205909	0.187406	-0.939971	-17.785701	-27.455149	160.667243
14634		4.364891	-2.503189	8.527401	0.148638	-0.276297	0.083590	0.103356	-0.100930	-0.278397	-0.960938	0.487305	-0.493408	0.043571	-0.025137	0.085283	-0.198388	-0.206729	0.186764	-0.939694	-17.661675	-27.556740	160.521102
14635		4.949900	-2.291134	8.350307	-0.466994	-0.195689	0.148336	0.118706	-0.138782	-0.251260	-0.960205	0.481934	-0.478760	0.049412	-0.023023	0.083524	-0.199286	-0.207744	0.186115	-0.939409	-17.539094	-27.677442	160.398234
