// General information: 
//  MT Manager version: 2019.2.0 
//  XDA version: 2019.2.0 build 3853 rev 94535 built on 2019-09-09
// Device information: 
//  DeviceId: 00B4778F
//  ProductCode: MTW2-3A7G6
//  Firmware Version: 4.6.0
//  Hardware Version: 2.0.0
// Device settings: 
//  Filter Profile: human(46.1)
//  Option Flags: Orientation Smoother Disabled, AHS Disabled, ICC Disabled
// Coordinate system: ENU
PacketCounter	SampleTimeFine	Acc_X	Acc_Y	Acc_Z	FreeAcc_E	FreeAcc_N	FreeAcc_U	Gyr_X	Gyr_Y	Gyr_Z	Mag_X	Mag_Y	Mag_Z	VelInc_X	VelInc_Y	VelInc_Z	Quat_q0	Quat_q1	Quat_q2	Quat_q3	Roll	Pitch	Yaw
63229		9.193939	-0.025593	3.468565	0.005607	-0.021294	0.013789	-0.007425	-0.009233	0.002286	-0.807129	-0.260254	-0.732910	0.091938	-0.000254	0.034690	0.795691	0.143358	-0.550685	0.207532	-0.070177	-69.366546	29.284969
63230		9.201446	-0.021769	3.527237	-0.042682	-0.043775	0.041487	-0.006094	-0.002304	0.001072	-0.802979	-0.252441	-0.735107	0.092014	-0.000216	0.035273	0.795682	0.143346	-0.550711	0.207506	-0.070793	-69.369540	29.282243
63231		9.193941	-0.010307	3.507006	-0.034484	-0.026075	0.027327	-0.002518	-0.001996	0.001162	-0.793701	-0.254639	-0.739258	0.091939	-0.000102	0.035071	0.795673	0.143344	-0.550732	0.207486	-0.069645	-69.372326	29.279042
63232		9.194011	-0.010382	3.506821	-0.034584	-0.026409	0.027325	-0.000639	-0.002008	-0.000738	-0.802246	-0.253906	-0.735840	0.091940	-0.000104	0.035069	0.795667	0.143351	-0.550750	0.207461	-0.064861	-69.374936	29.272601
63233		9.166882	-0.007118	3.459489	-0.006137	-0.006907	-0.014741	-0.005455	-0.000296	0.001810	-0.806152	-0.257813	-0.735840	0.091669	-0.000069	0.034595	0.795664	0.143334	-0.550768	0.207437	-0.066378	-69.376747	29.270449
63234		9.146998	0.000252	3.471531	-0.025866	-0.009488	-0.029112	-0.002937	0.001700	0.000648	-0.804688	-0.262695	-0.738281	0.091470	0.000003	0.034715	0.795666	0.143326	-0.550774	0.207416	-0.064945	-69.377380	29.266668
63235		9.139388	0.011890	3.451577	-0.017664	0.008216	-0.043268	0.000000	0.000000	0.000000	-0.801758	-0.253906	-0.736816	0.091394	0.000119	0.034516	0.795666	0.143326	-0.550774	0.207416	-0.064945	-69.377380	29.266668
63236		9.154876	-0.027532	3.452318	0.005570	-0.023878	-0.028495	-0.001752	-0.003232	0.000700	-0.798828	-0.249756	-0.736816	0.091548	-0.000275	0.034525	0.795653	0.143330	-0.550798	0.207397	-0.062707	-69.380778	29.262915
63237		9.147158	-0.000220	3.471109	-0.026086	-0.010208	-0.029114	-0.004743	-0.004445	0.004038	-0.803467	-0.259033	-0.741211	0.091471	0.000000	0.034713	0.795636	0.143314	-0.550834	0.207380	-0.067217	-69.384964	29.264396
63238		9.179201	0.011545	3.465831	-0.018506	0.007951	-0.000988	-0.005856	-0.005669	0.005476	-0.803711	-0.256348	-0.742432	0.091791	0.000119	0.034661	0.795616	0.143287	-0.550876	0.207363	-0.074877	-69.389679	29.268106
63239		9.167419	-0.009253	3.458061	-0.006694	-0.008680	-0.014743	-0.012243	-0.007521	0.004832	-0.800293	-0.255859	-0.738037	0.091673	-0.000088	0.034584	0.795595	0.143241	-0.550932	0.207327	-0.084903	-69.395627	29.270890
63240		9.187172	-0.001947	3.484833	-0.027037	-0.010827	0.013164	-0.017771	-0.001660	0.005152	-0.802246	-0.264893	-0.743164	0.091871	-0.000014	0.034849	0.795595	0.143165	-0.550969	0.207279	-0.098763	-69.398031	29.274086
63241		9.199082	0.017055	3.492276	-0.039083	0.005070	0.026919	-0.023538	0.007566	0.001067	-0.799072	-0.255859	-0.734863	0.091992	0.000175	0.034919	0.795628	0.143069	-0.550974	0.207208	-0.109489	-69.395338	29.270703
63242		9.214231	-0.023233	3.493862	-0.015950	-0.027403	0.041686	-0.018264	0.008193	0.003148	-0.803467	-0.251465	-0.739990	0.092144	-0.000228	0.034935	0.795657	0.142990	-0.550971	0.207161	-0.120156	-69.392098	29.270778
63243		9.182069	-0.036365	3.499431	-0.023749	-0.046259	0.013555	-0.012809	0.008490	0.001339	-0.803467	-0.255859	-0.735840	0.091822	-0.000361	0.034990	0.795684	0.142935	-0.550961	0.207121	-0.125144	-69.388876	29.267833
63244		9.178618	0.006681	3.467387	-0.019147	0.005808	-0.000988	-0.009525	0.009250	-0.000284	-0.797852	-0.257080	-0.735840	0.091788	0.000068	0.034670	0.795713	0.142895	-0.550944	0.207082	-0.126142	-69.385128	29.262310
63245		9.134689	-0.041888	3.426652	0.024843	-0.025276	-0.056408	-0.009525	0.009250	-0.000285	-0.810791	-0.257813	-0.732666	0.091348	-0.000417	0.034262	0.795741	0.142857	-0.550927	0.207045	-0.126774	-69.381473	29.256721
63246		9.161738	-0.061494	3.435709	0.036008	-0.041490	-0.027888	-0.002499	0.013109	0.001102	-0.799072	-0.253418	-0.737793	0.091620	-0.000614	0.034351	0.795773	0.142841	-0.550887	0.207038	-0.125544	-69.375618	29.253849
63247		9.126008	-0.014755	3.448025	-0.006931	-0.011963	-0.057026	-0.006076	0.012801	0.001008	-0.800049	-0.260742	-0.732910	0.091262	-0.000146	0.034474	0.795807	0.142809	-0.550853	0.207018	-0.126159	-69.369926	29.250353
63248		9.125252	0.000959	3.488455	-0.046893	-0.016350	-0.043497	-0.001386	0.014334	-0.000336	-0.806885	-0.250000	-0.740234	0.091255	0.000010	0.034878	0.795844	0.142800	-0.550806	0.207008	-0.122036	-69.363256	29.244871
63249		9.140192	-0.038613	3.490563	-0.023798	-0.048832	-0.028737	-0.008249	0.013265	0.001191	-0.801025	-0.255371	-0.737305	0.091404	-0.000384	0.034900	0.795881	0.142759	-0.550773	0.206983	-0.124175	-69.357298	29.241673
63250		9.164125	-0.014963	3.466761	-0.007912	-0.012612	-0.014748	-0.012812	0.008489	0.001332	-0.805908	-0.252686	-0.735840	0.091643	-0.000147	0.034664	0.795909	0.142701	-0.550763	0.206941	-0.129609	-69.353995	29.238783
63251		9.139865	-0.055651	3.452993	0.015826	-0.045502	-0.042269	-0.012868	0.005575	0.004020	-0.801025	-0.255615	-0.736816	0.091400	-0.000552	0.034527	0.795925	0.142642	-0.550767	0.206910	-0.138722	-69.352439	29.240209
63252		9.171583	-0.044073	3.448633	0.023384	-0.027371	-0.014134	-0.009638	0.003422	0.005088	-0.807861	-0.263428	-0.735107	0.091716	-0.000437	0.034485	0.795932	0.142594	-0.550777	0.206890	-0.147918	-69.352087	29.243641
63253		9.183138	-0.008941	3.495439	-0.028522	-0.015507	0.013153	-0.003250	0.005272	0.005739	-0.802002	-0.256836	-0.731689	0.091832	-0.000086	0.034952	0.795939	0.142568	-0.550774	0.206891	-0.154133	-69.350702	29.247859
63254		9.238097	-0.063866	3.472837	0.033778	-0.043580	0.056662	0.000219	0.005704	0.000228	-0.808105	-0.254883	-0.740967	0.092382	-0.000639	0.034726	0.795948	0.142576	-0.550760	0.206886	-0.149815	-69.349145	29.243841
63255		9.230184	-0.052130	3.453773	0.041986	-0.025874	0.042521	0.003888	0.014959	0.001752	-0.796387	-0.263672	-0.738770	0.092304	-0.000521	0.034531	0.795981	0.142580	-0.550708	0.206897	-0.145841	-69.342217	29.241541
63256		9.209558	-0.028669	3.506124	-0.017577	-0.032481	0.041668	0.010348	0.010651	0.003889	-0.812988	-0.260254	-0.743896	0.092097	-0.000287	0.035056	0.795995	0.142610	-0.550666	0.206935	-0.141307	-69.337618	29.242913
63257		9.182063	-0.025126	3.459892	0.010888	-0.012955	-0.000375	0.007884	0.011569	0.002358	-0.797119	-0.248535	-0.737549	0.091823	-0.000252	0.034594	0.796015	0.142631	-0.550623	0.206957	-0.135981	-69.332630	29.241615
63258		9.146715	0.005908	3.432825	0.007824	0.020647	-0.043029	0.008466	0.010662	0.005786	-0.805908	-0.257080	-0.739502	0.091469	0.000060	0.034323	0.796028	0.142645	-0.550586	0.206994	-0.135872	-69.328069	29.245984
63259		9.106937	0.004917	3.418485	0.008356	0.019889	-0.085308	0.005180	0.009902	0.007405	-0.800781	-0.261230	-0.744629	0.091071	0.000052	0.034180	0.796040	0.142644	-0.550556	0.207028	-0.139766	-69.324030	29.252884
63260		9.098745	0.031926	3.438526	-0.023268	0.033583	-0.085921	-0.001975	0.009288	0.007214	-0.801514	-0.257813	-0.738525	0.090989	0.000323	0.034381	0.796056	0.142616	-0.550535	0.207043	-0.147401	-69.320191	29.259585
63261		9.106327	0.003723	3.420113	0.008149	0.019171	-0.085306	-0.000732	0.007270	0.004577	-0.799805	-0.256348	-0.743652	0.091065	0.000039	0.034198	0.796068	0.142602	-0.550520	0.207048	-0.150396	-69.317663	29.261903
63262		9.058946	0.029877	3.424250	-0.022824	0.032486	-0.128199	-0.008349	-0.001633	0.010740	-0.801270	-0.256592	-0.739258	0.090589	0.000305	0.034243	0.796055	0.142549	-0.550551	0.207050	-0.167180	-69.320049	29.274253
63263		9.114519	-0.041627	3.361726	0.079338	0.008438	-0.098212	-0.006630	-0.004434	0.005927	-0.795654	-0.258057	-0.750000	0.091144	-0.000412	0.033619	0.796037	0.142519	-0.550590	0.207036	-0.175655	-69.324225	29.278817
63264		9.149973	-0.089326	3.350103	0.122075	-0.021829	-0.069084	-0.005097	-0.006906	0.005004	-0.798828	-0.257813	-0.735352	0.091499	-0.000890	0.033504	0.796014	0.142499	-0.550635	0.207019	-0.181829	-69.329515	29.281589
63265		9.241293	-0.084048	3.348308	0.148593	-0.001145	0.015723	0.008397	-0.001406	-0.002446	-0.808350	-0.256592	-0.743896	0.092413	-0.000843	0.033484	0.796003	0.142550	-0.550640	0.207015	-0.168966	-69.331970	29.272549
63266		9.288185	-0.094333	3.383827	0.139500	-0.019203	0.072136	0.020939	0.005659	-0.005547	-0.800537	-0.261475	-0.737305	0.092883	-0.000949	0.033836	0.796005	0.142652	-0.550601	0.207039	-0.144245	-69.330301	29.258665
63267		9.284496	-0.033384	3.391043	0.104258	0.028815	0.071160	0.033479	0.012724	-0.008651	-0.800537	-0.257324	-0.740479	0.092847	-0.000344	0.033904	0.796021	0.142804	-0.550519	0.207089	-0.107538	-69.324666	29.239500
63268		9.308149	0.008656	3.406468	0.080311	0.060961	0.098699	0.035776	0.009016	-0.010038	-0.793945	-0.257813	-0.744141	0.093083	0.000076	0.034060	0.796027	0.142975	-0.550447	0.207140	-0.067301	-69.321028	29.218304
63269		9.339831	0.022987	3.402270	0.087874	0.079047	0.126852	0.033964	0.002871	-0.006653	-0.801270	-0.256592	-0.740479	0.093399	0.000221	0.034021	0.796013	0.143135	-0.550406	0.207193	-0.033388	-69.321028	29.202421
63270		9.356183	0.076141	3.396943	0.072279	0.129291	0.140264	0.019819	0.004435	-0.004119	-0.791016	-0.261230	-0.734619	0.093563	0.000756	0.033967	0.796013	0.143227	-0.550373	0.207216	-0.011480	-69.319871	29.190409
63271		9.375246	0.100991	3.463715	0.012038	0.123064	0.181684	0.005328	0.003539	-0.000606	-0.793701	-0.266602	-0.740479	0.093753	0.001009	0.034636	0.796015	0.143255	-0.550363	0.207214	-0.003153	-69.319483	29.184338
63272		9.362734	0.096957	3.496144	-0.015965	0.102399	0.181435	0.001914	0.006024	0.002213	-0.793213	-0.259033	-0.734131	0.093628	0.000970	0.034959	0.796025	0.143263	-0.550346	0.207219	-0.000485	-69.317418	29.182872
63273		9.270482	0.122786	3.576908	-0.122443	0.072950	0.123654	-0.011849	0.016085	0.007883	-0.796631	-0.257080	-0.740234	0.092708	0.001234	0.035762	0.796065	0.143186	-0.550310	0.207213	-0.014878	-69.309842	29.190567
63274		9.213240	0.101304	3.647302	-0.186094	0.013579	0.094989	-0.010678	0.020221	0.003752	-0.797119	-0.257324	-0.740234	0.092136	0.001017	0.036464	0.796121	0.143121	-0.550251	0.207197	-0.022280	-69.299715	29.191537
63275		9.108680	0.106874	3.721487	-0.280649	-0.032110	0.023427	-0.004409	0.016246	0.009784	-0.799561	-0.263184	-0.744141	0.091090	0.001074	0.037207	0.796155	0.143069	-0.550208	0.207219	-0.035280	-69.292045	29.202299
63276		8.982423	0.060691	3.892391	-0.435799	-0.170763	-0.034179	0.003671	0.018414	0.012426	-0.795410	-0.259033	-0.737793	0.089828	0.000612	0.038916	0.796187	0.143039	-0.550148	0.207276	-0.047495	-69.282914	29.217265
63277		8.929413	0.070715	3.950211	-0.503070	-0.195791	-0.063217	0.008205	0.026311	0.019082	-0.795898	-0.250732	-0.733643	0.089299	0.000714	0.039490	0.796230	0.143001	-0.550058	0.207377	-0.067312	-69.269469	29.243045
63278		8.723597	0.161699	4.202667	-0.815239	-0.264483	-0.166179	0.029821	0.040099	0.033473	-0.791748	-0.263916	-0.736328	0.087244	0.001625	0.042009	0.796280	0.142993	-0.549901	0.207604	-0.096647	-69.247995	29.292106
63279		8.638035	0.420565	4.449724	-1.166925	-0.162596	-0.158444	0.033450	0.052477	0.041768	-0.786377	-0.261475	-0.745850	0.086391	0.004216	0.044475	0.796353	0.142966	-0.549697	0.207883	-0.136108	-69.219522	29.354372
63280		8.635411	0.572930	4.604303	-1.365138	-0.096305	-0.105715	0.029065	0.056535	0.048909	-0.797607	-0.255615	-0.740967	0.086366	0.005744	0.046019	0.796434	0.142899	-0.549483	0.208183	-0.188135	-69.188325	29.427751
63281		8.681233	0.633706	4.599429	-1.373083	-0.027609	-0.064148	0.011548	0.072581	0.047330	-0.797363	-0.255859	-0.741699	0.086828	0.006355	0.045963	0.796572	0.142748	-0.549226	0.208439	-0.248070	-69.148283	29.498524
63282		8.755898	0.678782	4.753489	-1.494096	-0.039284	0.060928	-0.008475	0.059339	0.044399	-0.799561	-0.264893	-0.740723	0.087572	0.006809	0.047509	0.796692	0.142538	-0.549039	0.208617	-0.315065	-69.115623	29.564395
63283		8.741679	0.670054	4.789289	-1.522158	-0.059903	0.060643	-0.052553	0.024183	0.029737	-0.789063	-0.254639	-0.744141	0.087422	0.006726	0.047881	0.796760	0.142231	-0.549029	0.208592	-0.385316	-69.103313	29.606926
63284		8.587079	0.603844	4.722626	-1.484479	-0.110061	-0.107536	-0.060015	-0.000234	0.017013	-0.785889	-0.253662	-0.754883	0.085870	0.006060	0.047225	0.796782	0.141955	-0.549112	0.208480	-0.440643	-69.104766	29.629217
63285		8.200320	0.614845	4.666470	-1.566071	-0.140051	-0.489221	-0.065759	-0.009226	0.006183	-0.791504	-0.252930	-0.745361	0.082001	0.006166	0.046666	0.796792	0.141695	-0.549231	0.208301	-0.483445	-69.111677	29.634269
63286		7.831433	0.522911	4.453097	-1.464926	-0.186002	-0.910202	-0.106898	-0.040028	-0.005078	-0.794678	-0.253906	-0.744385	0.078306	0.005251	0.044544	0.796763	0.141328	-0.549506	0.207937	-0.533298	-69.135746	29.620783
63287		7.700772	0.401680	4.251712	-1.288076	-0.221851	-1.104535	-0.145611	-0.071748	-0.014864	-0.794678	-0.249023	-0.744385	0.076993	0.004042	0.042542	0.796680	0.140872	-0.549942	0.207411	-0.591145	-69.178593	29.592976
63288		7.638977	0.336529	4.027158	-1.099403	-0.186447	-1.242870	-0.190912	-0.071720	-0.029919	-0.797607	-0.247314	-0.748047	0.076376	0.003392	0.040296	0.796646	0.140275	-0.550413	0.206697	-0.652365	-69.221207	29.540635
63289		7.628119	0.291533	3.825677	-0.923348	-0.134479	-1.325147	-0.232686	-0.062252	-0.034008	-0.802490	-0.251465	-0.746826	0.076270	0.002947	0.038277	0.796668	0.139514	-0.550887	0.205861	-0.731138	-69.258768	29.481867
63290		7.737674	0.204242	3.703634	-0.754005	-0.133873	-1.266123	-0.270425	-0.047273	-0.051186	-0.791992	-0.249268	-0.747559	0.077369	0.002073	0.037052	0.796777	0.138633	-0.551325	0.204861	-0.805373	-69.287596	29.394724
63291		8.089433	0.228156	3.616281	-0.591064	-0.010147	-0.968537	-0.288611	-0.048652	-0.072687	-0.793457	-0.252930	-0.753174	0.080886	0.002304	0.036179	0.796912	0.137742	-0.551774	0.203725	-0.857300	-69.317737	29.273029
63292		8.556742	0.226295	3.737580	-0.550833	0.015763	-0.488799	-0.304623	-0.047533	-0.112196	-0.793457	-0.241211	-0.749756	0.085560	0.002272	0.037393	0.797103	0.136893	-0.552202	0.202387	-0.857851	-69.347091	29.086478
63293		8.963488	0.143812	3.860839	-0.490956	-0.043654	-0.064460	-0.324354	-0.034465	-0.164294	-0.790527	-0.235107	-0.748535	0.089629	0.001427	0.038622	0.797390	0.136098	-0.552564	0.200796	-0.790282	-69.369854	28.815250
63294		9.387853	0.043209	3.783178	-0.247178	-0.032347	0.305807	-0.305425	-0.004652	-0.221457	-0.788330	-0.252686	-0.746094	0.093878	0.000386	0.037833	0.797806	0.135498	-0.552746	0.199043	-0.624329	-69.375282	28.449428
63295		9.657071	0.118007	3.749687	-0.162670	0.082541	0.545874	-0.242191	0.048126	-0.275502	-0.795898	-0.238525	-0.751709	0.096581	0.001092	0.037472	0.798371	0.135254	-0.552617	0.197291	-0.339029	-69.350689	27.995852
63296		9.775782	0.112916	3.483923	0.115566	0.198097	0.563426	-0.176461	0.133096	-0.324768	-0.794922	-0.245605	-0.744873	0.097783	0.001001	0.034773	0.799175	0.135324	-0.552047	0.195580	0.057722	-69.276140	27.463186
63297		9.791532	0.060240	3.137947	0.458778	0.284477	0.455367	-0.075157	0.161669	-0.355840	-0.782959	-0.242188	-0.749268	0.097942	0.000440	0.031300	0.800014	0.135856	-0.551242	0.194043	0.555275	-69.184049	26.884561
63298		9.908056	0.099733	2.959177	0.657253	0.391979	0.499949	0.000178	0.174329	-0.377934	-0.792480	-0.250000	-0.749268	0.099108	0.000810	0.029505	0.800857	0.136736	-0.550295	0.192632	1.123824	-69.082344	26.275550
63299		10.036583	0.255384	2.936793	0.680713	0.533958	0.612010	0.049189	0.198433	-0.393862	-0.782715	-0.255859	-0.752441	0.100400	0.002349	0.029269	0.801742	0.137833	-0.549193	0.191309	1.737412	-68.964643	25.648161
63300		9.816490	0.268972	3.266276	0.370921	0.344324	0.524045	0.058291	0.269757	-0.395654	-0.785889	-0.257324	-0.764160	0.098214	0.002486	0.032531	0.802815	0.138904	-0.547790	0.190052	2.347649	-68.803458	25.029445
63301		9.717262	0.364586	3.662042	0.012074	0.220340	0.575756	0.075829	0.292127	-0.389682	-0.774414	-0.266602	-0.764160	0.097233	0.003443	0.036480	0.803926	0.140006	-0.546282	0.188882	2.948153	-68.627497	24.431174
63302		9.824161	0.393747	3.998347	-0.198903	0.096002	0.798956	0.059232	0.275630	-0.354768	-0.785400	-0.269043	-0.752441	0.098303	0.003751	0.039849	0.804969	0.140959	-0.544876	0.187792	3.480460	-68.459547	23.895047
63303		9.844442	0.288292	3.959049	-0.069383	0.004976	0.801700	0.034702	0.286018	-0.303707	-0.775146	-0.264404	-0.755127	0.098505	0.002727	0.039450	0.806003	0.141666	-0.543487	0.186848	3.916050	-68.286306	23.447422
63304		9.818475	0.187963	3.886018	0.069157	-0.068284	0.748057	0.039823	0.315417	-0.256654	-0.778320	-0.277832	-0.760010	0.098248	0.001746	0.038706	0.807065	0.142239	-0.542005	0.186131	4.277571	-68.097026	23.082551
63305		9.644500	0.159145	4.127072	-0.133668	-0.229255	0.675585	0.031992	0.346891	-0.206946	-0.771240	-0.267090	-0.766602	0.096518	0.001485	0.041104	0.808169	0.142614	-0.540437	0.185613	4.554889	-67.891226	22.802774
63306		9.575872	-0.014629	4.274781	-0.159937	-0.458105	0.662795	-0.002132	0.330832	-0.158192	-0.774170	-0.274658	-0.772949	0.095829	-0.000222	0.042589	0.809206	0.142735	-0.538998	0.185188	4.741702	-67.696325	22.599486
63307		9.564312	-0.216672	4.325563	-0.079207	-0.658339	0.665564	-0.003977	0.294885	-0.107021	-0.755615	-0.269287	-0.772217	0.095706	-0.002217	0.043115	0.810097	0.142743	-0.537741	0.184938	4.857705	-67.524312	22.471121
63308		9.595392	-0.360267	4.305323	0.041978	-0.767438	0.682376	0.009527	0.244429	-0.051433	-0.761475	-0.283936	-0.779541	0.096006	-0.003629	0.042936	0.810792	0.142700	-0.536713	0.184912	4.909282	-67.383479	22.420521
63309		9.448736	-0.574631	4.099632	0.277737	-0.884194	0.461397	0.036910	0.210800	-0.000705	-0.757080	-0.279053	-0.783691	0.094530	-0.005754	0.040896	0.811327	0.142665	-0.535834	0.185142	4.910865	-67.264586	22.441284
63310		9.233798	-0.622702	3.926559	0.381032	-0.876248	0.195091	0.077228	0.154813	0.045693	-0.754150	-0.275391	-0.781250	0.092370	-0.006221	0.039192	0.811641	0.142721	-0.535174	0.185629	4.879441	-67.179534	22.523143
63311		9.012809	-0.523424	3.749910	0.410529	-0.737114	-0.073353	0.074879	0.082446	0.075943	-0.760498	-0.277100	-0.787598	0.090146	-0.005214	0.037460	0.811734	0.142754	-0.534834	0.186180	4.814109	-67.137621	22.640147
63312		8.930890	-0.398586	3.532713	0.502341	-0.538382	-0.228455	0.063750	-0.011349	0.101953	-0.761230	-0.279541	-0.781494	0.089309	-0.003952	0.035331	0.811561	0.142757	-0.534901	0.186738	4.717871	-67.150075	22.783542
63313		9.024078	-0.078945	3.242939	0.618280	-0.110274	-0.243862	0.043578	-0.088463	0.118772	-0.766357	-0.275391	-0.778809	0.090227	-0.000743	0.032469	0.811177	0.142707	-0.535314	0.187257	4.595599	-67.207605	22.942847
63314		9.115927	0.205365	2.959185	0.737824	0.283508	-0.258930	-0.009604	-0.135990	0.136647	-0.761963	-0.280029	-0.781006	0.091138	0.002117	0.029654	0.810688	0.142438	-0.535980	0.187672	4.422673	-67.292741	23.124068
63315		9.119295	0.448781	2.742022	0.786076	0.599942	-0.330929	-0.068095	-0.155018	0.145935	-0.757813	-0.275146	-0.767334	0.091168	0.004564	0.027489	0.810180	0.141924	-0.536786	0.187954	4.204120	-67.389095	23.318183
63316		9.103161	0.634900	2.469216	0.898082	0.887918	-0.443980	-0.136379	-0.153162	0.143765	-0.770508	-0.274170	-0.783447	0.091008	0.006431	0.024757	0.809726	0.141139	-0.537644	0.188047	3.947573	-67.483780	23.511273
63317		9.202732	0.673285	2.336341	1.005574	1.003237	-0.400760	-0.186799	-0.122991	0.133292	-0.766357	-0.268311	-0.775879	0.092008	0.006816	0.023414	0.809397	0.140149	-0.538422	0.187981	3.671883	-67.560682	23.693363
63318		9.254141	0.708513	2.282448	1.037582	1.075894	-0.372531	-0.198565	-0.058152	0.113433	-0.773438	-0.266357	-0.780029	0.092531	0.007160	0.022844	0.809269	0.139102	-0.538931	0.187848	3.409994	-67.599274	23.853128
63319		9.351515	0.706283	2.342982	1.015854	1.074277	-0.260034	-0.186578	0.017519	0.080855	-0.762451	-0.262695	-0.777832	0.093514	0.007122	0.023415	0.809366	0.138121	-0.539102	0.187668	3.193677	-67.593452	23.971037
63320		9.407653	0.629271	2.437463	0.993582	0.985588	-0.175129	-0.169918	0.092088	0.044191	-0.767822	-0.262695	-0.777588	0.094086	0.006334	0.024326	0.809686	0.137235	-0.538928	0.187435	3.032182	-67.543502	24.039832
63321		9.390538	0.526114	2.635301	0.879715	0.817714	-0.119327	-0.128479	0.146407	0.007887	-0.765625	-0.261475	-0.772705	0.093924	0.005282	0.026281	0.810157	0.136564	-0.538471	0.187205	2.941254	-67.461508	24.058134
63322		9.424928	0.404064	2.892972	0.748454	0.613945	0.006920	-0.092662	0.174301	-0.028938	-0.774170	-0.257080	-0.779541	0.094275	0.004040	0.028846	0.810712	0.136112	-0.537841	0.186941	2.919784	-67.362398	24.023535
63323		9.385679	0.224253	3.111100	0.653598	0.361145	0.049490	-0.063877	0.192568	-0.067613	-0.758789	-0.258057	-0.790039	0.093887	0.002221	0.031020	0.811332	0.135863	-0.537084	0.186610	2.966245	-67.251764	23.933065
63324		9.353000	0.112982	3.306992	0.551632	0.177047	0.091448	-0.037605	0.205844	-0.102496	-0.763184	-0.261475	-0.785400	0.093565	0.001088	0.032973	0.812002	0.135800	-0.536224	0.186215	3.073232	-67.132329	23.792867
63325		9.350038	0.048971	3.429567	0.502011	0.067782	0.133713	-0.016031	0.217509	-0.136191	-0.765625	-0.263672	-0.792236	0.093538	0.000429	0.034194	0.812718	0.135905	-0.535273	0.185750	3.236051	-67.005136	23.605662
63326		9.259432	0.012048	3.538515	0.422239	-0.027967	0.090806	-0.005844	0.220166	-0.165896	-0.762939	-0.253174	-0.795166	0.092633	0.000045	0.035283	0.813460	0.136129	-0.534280	0.185193	3.442325	-66.875113	23.377337
63327		9.206392	0.008504	3.593286	0.386460	-0.066974	0.062308	0.000611	0.225042	-0.177607	-0.755859	-0.267334	-0.793701	0.092104	0.000003	0.035829	0.814220	0.136405	-0.533253	0.184608	3.665105	-66.741637	23.134911
63328		9.129526	0.027445	3.699171	0.291212	-0.112116	0.032891	-0.000982	0.230819	-0.200697	-0.746338	-0.262451	-0.794922	0.091338	0.000183	0.036886	0.815018	0.136729	-0.532186	0.183927	3.914092	-66.603483	22.862287
63329		9.062106	0.097361	3.742904	0.228729	-0.084577	-0.010594	-0.003537	0.246091	-0.204906	-0.749023	-0.262939	-0.792236	0.090668	0.000881	0.037317	0.815858	0.137041	-0.531056	0.183234	4.162905	-66.456072	22.588380
63330		8.979538	0.114561	3.790310	0.181728	-0.107595	-0.067587	-0.007845	0.249417	-0.206014	-0.750732	-0.274902	-0.804199	0.089844	0.001055	0.037791	0.816710	0.137333	-0.529914	0.182525	4.406957	-66.306115	22.316309
63331		8.914209	0.169589	3.794630	0.159126	-0.076034	-0.124554	-0.001722	0.245705	-0.205694	-0.743896	-0.273438	-0.800781	0.089190	0.001605	0.037837	0.817545	0.137655	-0.528780	0.181832	4.651464	-66.157959	22.047622
63332		8.883527	0.146847	3.799043	0.182846	-0.108857	-0.152150	0.006889	0.234978	-0.192528	-0.745850	-0.261230	-0.792969	0.088881	0.001382	0.037886	0.818332	0.137987	-0.527689	0.181209	4.882124	-66.015972	21.799236
63333		8.798062	0.159669	3.783376	0.184077	-0.109765	-0.236711	0.016588	0.205459	-0.178626	-0.737793	-0.279053	-0.801758	0.088021	0.001515	0.037743	0.819019	0.138347	-0.526720	0.180646	5.101100	-65.891269	21.569413
63334		8.766514	0.132004	3.722481	0.256019	-0.120463	-0.291870	0.026608	0.155180	-0.155057	-0.735352	-0.276611	-0.805176	0.087695	0.001247	0.037157	0.819545	0.138732	-0.525963	0.180172	5.299406	-65.796121	21.368216
63335		8.786213	0.107853	3.584010	0.403491	-0.088534	-0.331990	0.029273	0.101627	-0.130855	-0.738525	-0.274414	-0.804688	0.087881	0.001016	0.035796	0.819906	0.139112	-0.525440	0.179766	5.473758	-65.732574	21.194959
63336		8.794037	0.046186	3.543210	0.478312	-0.133299	-0.344583	0.040271	0.050154	-0.107492	-0.737549	-0.283203	-0.807861	0.087949	0.000407	0.035410	0.820102	0.139521	-0.525133	0.179449	5.630368	-65.699366	21.047885
63337		8.863301	-0.038092	3.406087	0.660161	-0.149540	-0.341532	0.038361	0.009509	-0.090004	-0.741455	-0.274902	-0.803467	0.088634	-0.000427	0.034057	0.820177	0.139914	-0.525007	0.179170	5.768682	-65.690275	20.919790
63338		8.891989	-0.064976	3.315078	0.759392	-0.139727	-0.354081	0.041713	-0.033356	-0.067393	-0.734863	-0.273926	-0.807861	0.088914	-0.000687	0.033165	0.820116	0.140300	-0.525069	0.178963	5.885800	-65.706772	20.817038
63339		9.019868	-0.112241	3.145888	0.964977	-0.101122	-0.308698	0.045349	-0.070772	-0.048520	-0.734863	-0.284912	-0.803955	0.090187	-0.001151	0.031491	0.819938	0.140684	-0.525294	0.178817	5.986331	-65.745672	20.734815
63340		9.137790	-0.087692	3.020808	1.095637	-0.018083	-0.250709	0.050354	-0.101670	-0.029115	-0.736328	-0.288574	-0.802979	0.091362	-0.000898	0.030254	0.819658	0.141065	-0.525655	0.178741	6.069477	-65.803200	20.674663
63341		9.235575	-0.135236	2.947503	1.205407	-0.023994	-0.192484	0.053681	-0.121486	-0.011413	-0.733643	-0.284180	-0.809082	0.092338	-0.001366	0.029531	0.819306	0.141431	-0.526107	0.178733	6.135187	-65.873154	20.635908
63342		9.375644	-0.179125	2.949551	1.266253	-0.051754	-0.064428	0.063058	-0.138803	0.005413	-0.737793	-0.282959	-0.799072	0.093736	-0.001798	0.029560	0.818888	0.141808	-0.526632	0.178806	6.187546	-65.953889	20.617761
63343		9.522989	-0.236075	2.970746	1.318706	-0.097636	0.077704	0.062477	-0.135518	0.016204	-0.739258	-0.283203	-0.799072	0.095210	-0.002362	0.029771	0.818468	0.142150	-0.527153	0.178924	6.225471	-66.033517	20.614987
63344		9.608898	-0.393888	3.310888	1.133507	-0.375749	0.287907	0.071265	-0.120606	0.033487	-0.742432	-0.286377	-0.802734	0.096070	-0.003935	0.033165	0.818065	0.142469	-0.527616	0.179147	6.244130	-66.105732	20.638766
63345		9.781887	-0.404171	3.679616	0.892874	-0.519982	0.595032	0.055016	-0.111289	0.046222	-0.745850	-0.286621	-0.794189	0.097799	-0.004029	0.036849	0.817686	0.142679	-0.528065	0.179385	6.235837	-66.173430	20.681858
63346		9.967845	-0.305560	3.903077	0.726200	-0.500730	0.860044	-0.000556	-0.092465	0.065607	-0.740723	-0.286865	-0.795654	0.099661	-0.003023	0.039077	0.817379	0.142595	-0.528501	0.179570	6.167700	-66.231630	20.755626
63347		9.898129	-0.089745	3.579651	0.855799	-0.176793	0.676891	-0.079515	-0.056050	0.083434	-0.756104	-0.284668	-0.792725	0.098972	-0.000842	0.035825	0.817208	0.142108	-0.528871	0.179644	6.025912	-66.270078	20.860315
63348		9.673350	0.113458	3.190107	0.988159	0.146124	0.324646	-0.138681	-0.031688	0.097108	-0.742188	-0.275879	-0.799561	0.096728	0.001204	0.031916	0.817130	0.141321	-0.529204	0.179637	5.828667	-66.295426	20.988710
63349		9.335171	0.284074	3.091912	0.856910	0.303140	-0.016778	-0.187463	-0.019586	0.100539	-0.744385	-0.280518	-0.797607	0.093347	0.002917	0.030926	0.817116	0.140315	-0.529533	0.179521	5.597240	-66.313776	21.123703
63350		9.016421	0.156777	3.195072	0.700173	0.111137	-0.271917	-0.177417	-0.051668	0.096210	-0.751953	-0.279053	-0.793945	0.090155	0.001639	0.031973	0.817013	0.139388	-0.529981	0.179390	5.380634	-66.349990	21.248587
63351		8.954129	0.022586	3.347083	0.598768	-0.073199	-0.272457	-0.167751	-0.114545	0.085972	-0.747314	-0.272949	-0.789307	0.089522	0.000292	0.033522	0.816744	0.138586	-0.530670	0.179201	5.190188	-66.421342	21.351096
63352		9.074372	-0.001434	3.078434	0.857430	0.039901	-0.268884	-0.160268	-0.136639	0.066019	-0.753906	-0.267822	-0.795654	0.090723	0.000040	0.030846	0.816428	0.137887	-0.531428	0.178935	5.031719	-66.504302	21.423474
63353		9.166588	-0.034494	2.872077	1.060177	0.112512	-0.265976	-0.138831	-0.107817	0.048404	-0.752686	-0.271973	-0.793701	0.091650	-0.000303	0.028770	0.816189	0.137296	-0.532035	0.178673	4.904891	-66.569722	21.474577
63354		9.194578	0.000100	2.940551	0.987935	0.122519	-0.210809	-0.129941	-0.069288	0.043935	-0.742676	-0.265381	-0.803711	0.091936	0.000040	0.029437	0.816049	0.136717	-0.532475	0.178442	4.783975	-66.613013	21.524663
63355		9.103344	-0.033597	3.042747	0.876608	0.040967	-0.254435	-0.134042	-0.045903	0.041150	-0.750488	-0.262451	-0.798340	0.091027	-0.000297	0.030449	0.815978	0.136110	-0.532820	0.178205	4.661864	-66.642649	21.573581
63356		8.938884	-0.069389	3.171372	0.718394	-0.063162	-0.355099	-0.152577	-0.044158	0.039396	-0.748535	-0.263428	-0.787354	0.089382	-0.000652	0.031734	0.815925	0.135427	-0.533174	0.177910	4.530646	-66.671165	21.620345
63357		8.889363	-0.116879	3.250946	0.646251	-0.140449	-0.369928	-0.183938	-0.072407	0.043137	-0.758301	-0.260742	-0.792725	0.088882	-0.001120	0.032543	0.815813	0.134634	-0.533672	0.177530	4.379588	-66.715939	21.669630
63358		8.982507	-0.164067	3.216843	0.716078	-0.150411	-0.298224	-0.212953	-0.115678	0.044895	-0.749512	-0.254883	-0.787598	0.089807	-0.001586	0.032222	0.815602	0.133755	-0.534375	0.177051	4.213119	-66.785637	21.717469
63359		9.081300	-0.210778	3.238229	0.737672	-0.182503	-0.198996	-0.221784	-0.154938	0.056266	-0.747803	-0.253906	-0.787598	0.090788	-0.002046	0.032455	0.815281	0.132845	-0.535250	0.176567	4.029875	-66.878002	21.778126
63360		9.136999	-0.232613	3.319066	0.680152	-0.222827	-0.115123	-0.234763	-0.176252	0.058973	-0.754395	-0.264648	-0.786621	0.091341	-0.002260	0.033274	0.814908	0.131892	-0.536226	0.176045	3.836102	-66.982718	21.841794
63361		9.138289	-0.220880	3.591400	0.427455	-0.317750	-0.005979	-0.235265	-0.193385	0.067396	-0.759766	-0.257568	-0.795898	0.091349	-0.002136	0.036005	0.814480	0.130930	-0.537275	0.175544	3.631461	-67.097315	21.917206
63362		9.120685	-0.282776	3.916041	0.153808	-0.501592	0.103306	-0.253997	-0.194575	0.068081	-0.750732	-0.257080	-0.786133	0.091170	-0.002747	0.039253	0.814057	0.129893	-0.538345	0.174997	3.413725	-67.212643	21.995319
63363		9.113797	-0.323447	4.039096	0.041050	-0.582635	0.144170	-0.266706	-0.196006	0.064919	-0.770508	-0.246582	-0.786377	0.091099	-0.003151	0.040484	0.813640	0.128812	-0.539428	0.174399	3.191817	-67.328434	22.069793
63364		9.114033	-0.327067	4.000978	0.049244	-0.564870	0.130091	-0.258089	-0.191659	0.058750	-0.756104	-0.248291	-0.780762	0.091103	-0.003192	0.040101	0.813231	0.127778	-0.540481	0.173803	2.981246	-67.441612	22.137322
63365		9.063913	-0.272293	3.896798	0.071417	-0.476772	0.045368	-0.218200	-0.190599	0.050121	-0.760742	-0.244873	-0.783203	0.090603	-0.002658	0.039057	0.812807	0.126929	-0.541488	0.173278	2.804424	-67.553672	22.192954
63366		8.985990	-0.187106	4.035390	-0.130327	-0.463224	0.027831	-0.148040	-0.194433	0.046103	-0.771484	-0.232422	-0.772705	0.089821	-0.001820	0.040443	0.812328	0.126379	-0.542446	0.172926	2.672302	-67.667895	22.243715
63367		8.984367	-0.188892	4.147621	-0.246619	-0.509911	0.068427	-0.114443	-0.215637	0.034272	-0.765381	-0.241211	-0.783203	0.089799	-0.001850	0.041574	0.811781	0.126015	-0.543452	0.172602	2.576806	-67.793769	22.275613
63368		9.001700	-0.267975	4.076988	-0.171912	-0.554702	0.055795	-0.080636	-0.234758	0.036770	-0.764648	-0.243896	-0.773682	0.089970	-0.002647	0.040877	0.811156	0.125797	-0.544510	0.172368	2.497054	-67.930863	22.311172
63369		9.121617	-0.395397	4.056102	-0.083831	-0.649411	0.156434	-0.055379	-0.235441	0.046497	-0.775146	-0.237793	-0.771484	0.091169	-0.003922	0.040669	0.810504	0.125656	-0.545552	0.172241	2.417974	-68.068338	22.361802
63370		9.148312	-0.518841	4.074313	-0.062256	-0.768798	0.185605	-0.029267	-0.220051	0.060824	-0.770508	-0.236328	-0.772705	0.091440	-0.005155	0.040845	0.809863	0.125570	-0.546518	0.172255	2.331307	-68.197525	22.436828
63371		9.159116	-0.558434	4.124663	-0.107172	-0.825614	0.213325	0.005924	-0.209964	0.088641	-0.770508	-0.246338	-0.777100	0.091550	-0.005545	0.041343	0.809204	0.125540	-0.547429	0.172481	2.223689	-68.321314	22.555903
63372		9.215614	-0.532802	4.170808	-0.159862	-0.813500	0.282840	0.031910	-0.203416	0.114807	-0.776855	-0.236572	-0.762939	0.092117	-0.005282	0.041801	0.808523	0.125539	-0.548307	0.172891	2.091102	-68.441913	22.717834
63373		9.254991	-0.469969	4.219221	-0.235645	-0.769168	0.337700	0.065340	-0.190753	0.147412	-0.788818	-0.241699	-0.765869	0.092513	-0.004645	0.042279	0.807826	0.125572	-0.549124	0.173529	1.928296	-68.555675	22.932618
63374		9.277583	-0.370256	4.269574	-0.334593	-0.692593	0.377907	0.103706	-0.191655	0.187995	-0.779541	-0.246338	-0.755859	0.092738	-0.003638	0.042783	0.807064	0.125650	-0.549937	0.174440	1.725589	-68.670715	23.213972
63375		9.296225	-0.364120	4.260885	-0.346665	-0.676725	0.391691	0.129877	-0.191337	0.215247	-0.792725	-0.237549	-0.764648	0.092925	-0.003569	0.042695	0.806263	0.125757	-0.550741	0.175528	1.495591	-68.785353	23.540204
63376		9.323628	-0.313311	4.341106	-0.450470	-0.652625	0.446187	0.154833	-0.189415	0.250725	-0.784424	-0.230469	-0.758545	0.093199	-0.003050	0.043497	0.805416	0.125867	-0.551537	0.176834	1.223896	-68.899101	23.926749
63377		9.277914	-0.324375	4.380390	-0.517793	-0.677424	0.416959	0.156773	-0.178327	0.264473	-0.789307	-0.228516	-0.760742	0.092744	-0.003155	0.043884	0.804585	0.125935	-0.552292	0.178203	0.929344	-69.005708	24.338167
63378		9.210999	-0.402810	4.323687	-0.481560	-0.726644	0.333201	0.154198	-0.169072	0.275467	-0.791504	-0.238037	-0.757813	0.092079	-0.003935	0.043312	0.803769	0.125951	-0.553019	0.179614	0.612260	-69.106457	24.771632
63379		9.269769	-0.428181	4.252688	-0.414556	-0.702574	0.362370	0.155349	-0.168285	0.275385	-0.785400	-0.232666	-0.746582	0.092668	-0.004187	0.042602	0.802953	0.125973	-0.553739	0.181028	0.293215	-69.205745	25.207826
63380		9.199573	-0.323628	4.195894	-0.455374	-0.586185	0.276484	0.164769	-0.138476	0.264130	-0.790283	-0.234619	-0.756836	0.091971	-0.003149	0.042020	0.802219	0.126038	-0.554322	0.182444	-0.007342	-69.287245	25.630089
63381		9.073272	-0.270118	4.129835	-0.480014	-0.520585	0.134740	0.171164	-0.088946	0.251255	-0.790771	-0.235107	-0.754395	0.090718	-0.002623	0.041336	0.801630	0.126118	-0.554690	0.183854	-0.286521	-69.339481	26.032902
63382		8.876731	-0.154305	4.164422	-0.634821	-0.451130	-0.037410	0.190420	-0.068367	0.240279	-0.787598	-0.234131	-0.757568	0.088755	-0.001476	0.041673	0.801093	0.126286	-0.554951	0.185288	-0.539746	-69.379333	26.419864
63383		8.835977	-0.030867	4.111372	-0.667906	-0.316398	-0.095043	0.194933	-0.057544	0.225248	-0.792480	-0.237061	-0.745117	0.088348	-0.000249	0.041139	0.800596	0.126503	-0.555152	0.186678	-0.767992	-69.412486	26.782594
63384		8.731085	0.081413	4.107232	-0.756245	-0.222297	-0.195697	0.194233	-0.038731	0.224834	-0.790039	-0.231689	-0.747314	0.087302	0.000872	0.041090	0.800150	0.126702	-0.555277	0.188079	-0.996747	-69.434361	27.145720
63385		8.614357	0.160736	4.056832	-0.792766	-0.140429	-0.323607	0.185731	-0.007423	0.214075	-0.799316	-0.233154	-0.758789	0.086140	0.001662	0.040573	0.799805	0.126866	-0.555278	0.189430	-1.213138	-69.437920	27.490062
63386		8.595389	0.142495	4.028593	-0.772606	-0.138843	-0.351484	0.171686	-0.000502	0.212642	-0.786865	-0.237793	-0.746094	0.085952	0.001482	0.040287	0.799487	0.126971	-0.555261	0.190743	-1.435715	-69.437054	27.832544
63387		8.576015	0.243533	4.078054	-0.870748	-0.062450	-0.353525	0.169985	0.001948	0.213362	-0.792480	-0.237061	-0.744141	0.085758	0.002492	0.040782	0.799176	0.127065	-0.555237	0.192052	-1.659709	-69.434322	28.175371
63388		8.614120	0.289073	4.252586	-1.031175	-0.078564	-0.257500	0.174082	0.004252	0.214069	-0.800537	-0.233887	-0.748535	0.086139	0.002946	0.042527	0.798866	0.127173	-0.555197	0.193382	-1.882375	-69.429781	28.519892
63389		8.601517	0.286887	4.324520	-1.099186	-0.103112	-0.244458	0.174367	0.015653	0.214515	-0.797119	-0.231689	-0.745117	0.086015	0.002923	0.043241	0.798586	0.127268	-0.555112	0.194716	-2.104626	-69.418242	28.863564
63390		8.620954	0.283050	4.352961	-1.119642	-0.105335	-0.216619	0.190719	0.016417	0.224183	-0.795410	-0.234619	-0.753662	0.086210	0.002886	0.043525	0.798285	0.127401	-0.555013	0.196138	-2.332306	-69.405617	29.223437
63391		8.584038	0.212953	4.331059	-1.084045	-0.154341	-0.258099	0.210013	0.042723	0.236215	-0.799561	-0.231689	-0.748535	0.085847	0.002185	0.043295	0.798033	0.127550	-0.554797	0.197674	-2.564592	-69.377092	29.599726
63392		8.602857	0.194298	4.321491	-1.064586	-0.152564	-0.243698	0.222637	0.028073	0.245439	-0.799072	-0.233643	-0.746582	0.086032	0.002000	0.043205	0.797720	0.127739	-0.554630	0.199276	-2.804288	-69.356080	29.991992
63393		8.746127	0.162365	4.226096	-0.931113	-0.103903	-0.142982	0.224219	0.012816	0.258099	-0.799561	-0.234375	-0.745117	0.087462	0.001689	0.042257	0.797350	0.127913	-0.554530	0.200918	-3.062555	-69.342906	30.404848
63394		8.820561	0.072075	4.150730	-0.809491	-0.126223	-0.098532	0.235116	0.015997	0.272251	-0.797119	-0.229736	-0.741211	0.088208	0.000792	0.041501	0.796964	0.128090	-0.554412	0.202653	-3.335588	-69.326769	30.840683
63395		8.886424	0.037731	4.175263	-0.799154	-0.142415	-0.027809	0.258026	0.021188	0.275893	-0.798096	-0.227295	-0.741699	0.088868	0.000446	0.041744	0.796572	0.128340	-0.554252	0.204465	-3.599663	-69.306833	31.280539
63396		9.168783	0.008580	4.304123	-0.812746	-0.159559	0.282168	0.263876	0.005126	0.273131	-0.794434	-0.237549	-0.739746	0.091689	0.000154	0.043039	0.796131	0.128638	-0.554146	0.206274	-3.857682	-69.295456	31.717825
63397		9.315509	-0.115969	4.273294	-0.689061	-0.215892	0.411391	0.256654	0.034989	0.267063	-0.798828	-0.231934	-0.754395	0.093164	-0.001090	0.042715	0.795782	0.128892	-0.553923	0.208054	-4.106482	-69.266589	32.140614
63398		9.374800	-0.046244	4.278298	-0.708824	-0.131147	0.467060	0.283778	0.091746	0.260098	-0.802734	-0.235352	-0.741699	0.093768	-0.000401	0.042739	0.795577	0.129216	-0.553438	0.209921	-4.321783	-69.204821	32.544782
63399		9.647996	-0.003802	4.162457	-0.548157	0.025029	0.680584	0.283305	0.116734	0.257749	-0.795166	-0.237793	-0.745605	0.096504	0.000027	0.041568	0.795441	0.129516	-0.552852	0.211789	-4.528863	-69.128513	32.939591
63400		9.760731	-0.079552	4.065054	-0.390861	0.041169	0.753691	0.294266	0.163160	0.246570	-0.793213	-0.238037	-0.742432	0.097641	-0.000735	0.040570	0.795433	0.129843	-0.552059	0.213677	-4.704994	-69.025655	33.308897
63401		9.644309	0.019068	3.980471	-0.390942	0.161410	0.612200	0.303925	0.233476	0.229147	-0.800293	-0.236572	-0.739014	0.096489	0.000241	0.039692	0.795630	0.130179	-0.550963	0.215562	-4.838078	-68.883207	33.637640
63402		9.514995	0.068613	3.812854	-0.299309	0.273430	0.430031	0.298833	0.250819	0.214336	-0.799316	-0.234619	-0.751465	0.095197	0.000731	0.038010	0.795888	0.130519	-0.549790	0.217390	-4.946990	-68.731296	33.938426
63403		9.661527	0.097986	3.715824	-0.172849	0.390691	0.530401	0.308561	0.231332	0.191793	-0.801270	-0.235596	-0.745850	0.096657	0.001015	0.037048	0.796108	0.130977	-0.548668	0.219135	-5.017150	-68.591497	34.203119
63404		9.604569	0.219866	3.564701	-0.109262	0.569701	0.417983	0.304001	0.241827	0.170772	-0.785645	-0.233398	-0.752441	0.096087	0.002227	0.035534	0.796379	0.131464	-0.547493	0.220795	-5.056237	-68.446622	34.432321
63405		9.485645	0.205654	3.559264	-0.115601	0.550670	0.305192	0.301067	0.240265	0.154749	-0.792236	-0.238525	-0.749756	0.094898	0.002076	0.035482	0.796662	0.131982	-0.546314	0.222376	-5.072127	-68.303461	34.634536
63406		9.549095	0.158522	3.737785	-0.198341	0.455850	0.431052	0.305311	0.239390	0.127928	-0.786377	-0.235107	-0.748291	0.095535	0.001589	0.037266	0.796967	0.132592	-0.545113	0.223864	-5.046228	-68.161989	34.794861
63407		9.563868	0.230781	3.854224	-0.302071	0.479917	0.485577	0.297833	0.264541	0.091664	-0.792969	-0.242432	-0.747070	0.095688	0.002294	0.038419	0.797382	0.133241	-0.543795	0.225199	-4.969058	-68.008201	34.895180
63408		9.509043	0.188716	3.837329	-0.258063	0.449024	0.430081	0.292786	0.282732	0.047366	-0.796875	-0.248047	-0.766113	0.095144	0.001854	0.038242	0.797896	0.133972	-0.542378	0.226360	-4.830418	-67.846241	34.926648
63409		9.399859	0.250895	3.809259	-0.271404	0.498708	0.316888	0.302164	0.298447	0.007921	-0.782959	-0.243652	-0.758545	0.094055	0.002455	0.037956	0.798489	0.134827	-0.540860	0.227394	-4.630223	-67.677232	34.896965
63410		9.245749	0.242833	3.810790	-0.285395	0.461426	0.175832	0.293673	0.291243	-0.028619	-0.778320	-0.249756	-0.764160	0.092513	0.002359	0.037977	0.799105	0.135756	-0.539352	0.228257	-4.386953	-67.513792	34.815775
63411		9.073089	0.272482	3.748965	-0.274181	0.478532	-0.007297	0.287201	0.274440	-0.060971	-0.779053	-0.252930	-0.759277	0.090783	0.002643	0.037369	0.799715	0.136763	-0.537895	0.228957	-4.106912	-67.361334	34.690278
63412		8.907832	0.206800	3.772590	-0.281151	0.372573	-0.147971	0.289004	0.253036	-0.087294	-0.773438	-0.250488	-0.758789	0.089127	0.001975	0.037616	0.800292	0.137874	-0.536500	0.229545	-3.794586	-67.221724	34.531195
63413		8.763537	0.177055	3.748749	-0.263654	0.321169	-0.288439	0.290772	0.225395	-0.106400	-0.778564	-0.264404	-0.768066	0.087678	0.001670	0.037391	0.800814	0.139073	-0.535200	0.230037	-3.460530	-67.098446	34.349052
63414		8.677815	0.113514	3.801119	-0.272088	0.215548	-0.344567	0.295984	0.201176	-0.118657	-0.778809	-0.267822	-0.766846	0.086817	0.001027	0.037925	0.801277	0.140354	-0.533979	0.230481	-3.111490	-66.988866	34.154186
63415		8.619257	0.073560	3.827282	-0.264457	0.146344	-0.386465	0.306770	0.179895	-0.124226	-0.771240	-0.260010	-0.760010	0.086227	0.000623	0.038196	0.801681	0.141716	-0.532827	0.230912	-2.752752	-66.891296	33.954883
63416		8.583161	0.050135	3.768319	-0.192427	0.135701	-0.441567	0.302218	0.165351	-0.116594	-0.773682	-0.270752	-0.767090	0.085863	0.000394	0.037613	0.802036	0.143058	-0.531741	0.231353	-2.409979	-66.801299	33.770485
63417		8.651222	-0.037086	3.787642	-0.115597	0.056821	-0.369457	0.290414	0.163012	-0.114220	-0.774902	-0.280029	-0.762695	0.086543	-0.000475	0.037805	0.802389	0.144347	-0.530678	0.231767	-2.079188	-66.712242	33.591126
63418		8.725601	-0.094019	3.794094	-0.042258	0.012279	-0.297535	0.287255	0.167586	-0.100157	-0.775146	-0.274170	-0.768066	0.087287	-0.001038	0.037866	0.802737	0.145583	-0.529609	0.232237	-1.770400	-66.619842	33.434405
63419		8.822052	-0.136443	3.717768	0.095460	0.026281	-0.238808	0.277990	0.169996	-0.085032	-0.770020	-0.281006	-0.765381	0.088251	-0.001454	0.037101	0.803079	0.146735	-0.528551	0.232739	-1.488709	-66.525554	33.300550
63420		8.912703	-0.169636	3.621343	0.241593	0.058423	-0.194094	0.276589	0.171671	-0.070031	-0.761230	-0.277344	-0.763916	0.089157	-0.001778	0.036134	0.803406	0.147842	-0.527497	0.233301	-1.229185	-66.429791	33.190421
63421		9.017692	-0.202422	3.494716	0.415715	0.110750	-0.148959	0.285382	0.183945	-0.051469	-0.770508	-0.285889	-0.770752	0.090208	-0.002097	0.034861	0.803735	0.148918	-0.526396	0.233966	-0.989962	-66.326661	33.107343
63422		9.049829	-0.230767	3.393847	0.543004	0.140666	-0.160943	0.282577	0.191025	-0.038480	-0.766113	-0.291504	-0.768799	0.090530	-0.002373	0.033849	0.804068	0.149941	-0.525277	0.234684	-0.770585	-66.219125	33.044532
63423		9.070056	-0.280678	3.286807	0.682194	0.154345	-0.186757	0.292839	0.191841	-0.027345	-0.755127	-0.288330	-0.772461	0.090732	-0.002867	0.032777	0.804380	0.150973	-0.524151	0.235470	-0.560832	-66.111056	32.998206
63424		9.094784	-0.283284	3.204064	0.778007	0.198397	-0.199328	0.299599	0.189171	-0.011834	-0.762207	-0.297363	-0.770264	0.090978	-0.002886	0.031950	0.804658	0.151997	-0.523036	0.236337	-0.368314	-66.004234	32.975425
63425		9.098777	-0.193011	3.232147	0.731017	0.262730	-0.186249	0.308458	0.201490	-0.004525	-0.760498	-0.295898	-0.775635	0.091020	-0.001982	0.032227	0.804952	0.153020	-0.521866	0.237262	-0.180931	-65.890449	32.963319
63426		9.090039	-0.123251	3.254353	0.695947	0.310868	-0.187003	0.315812	0.219218	0.006242	-0.761230	-0.309326	-0.782227	0.090936	-0.001281	0.032442	0.805269	0.154026	-0.520622	0.238266	-0.003923	-65.766390	32.967749
63427		9.055384	-0.008424	3.363814	0.561482	0.348940	-0.175352	0.315068	0.238111	0.015339	-0.750244	-0.306641	-0.777588	0.090594	-0.000130	0.033530	0.805623	0.154979	-0.519308	0.239314	0.160299	-65.631610	32.985187
63428		9.052778	0.158198	3.435116	0.439635	0.457789	-0.149617	0.306128	0.258228	0.028321	-0.753418	-0.306152	-0.770752	0.090572	0.001542	0.034237	0.806018	0.155841	-0.517931	0.240410	0.302390	-65.485198	33.021981
63429		9.008176	0.315056	3.429555	0.366821	0.588625	-0.193579	0.292527	0.267893	0.036131	-0.743896	-0.302246	-0.778076	0.090127	0.003117	0.034179	0.806435	0.156613	-0.516537	0.241505	0.426170	-65.333467	33.069732
63430		8.932684	0.399548	3.425555	0.321320	0.652716	-0.265041	0.267237	0.284635	0.045893	-0.746582	-0.305664	-0.775391	0.089375	0.003970	0.034134	0.806900	0.157238	-0.515110	0.242589	0.522662	-65.172163	33.132027
63431		8.875864	0.505947	3.316371	0.348644	0.793478	-0.363664	0.234871	0.279917	0.045370	-0.747803	-0.309082	-0.774902	0.088804	0.005041	0.033045	0.807377	0.157737	-0.513741	0.243580	0.601361	-65.013665	33.193182
63432		8.833680	0.598705	3.307772	0.310820	0.875850	-0.406842	0.214296	0.267835	0.050244	-0.749756	-0.313965	-0.785400	0.088379	0.005974	0.032966	0.807830	0.158157	-0.512447	0.244531	0.662264	-64.862137	33.261479
63433		8.762211	0.688003	3.359095	0.217018	0.917810	-0.450866	0.186213	0.240941	0.052498	-0.739258	-0.302734	-0.779785	0.087661	0.006872	0.033492	0.808232	0.158489	-0.511297	0.245394	0.705008	-64.726073	33.331708
63434		8.697615	0.738394	3.332602	0.203019	0.967778	-0.521717	0.153661	0.218638	0.048759	-0.734131	-0.312012	-0.785156	0.087011	0.007380	0.033237	0.808605	0.158726	-0.510272	0.246143	0.733955	-64.602738	33.396905
63435		8.659933	0.768356	3.315800	0.200199	1.001653	-0.564123	0.119184	0.190369	0.048828	-0.743652	-0.317871	-0.789551	0.086629	0.007685	0.033080	0.808933	0.158858	-0.509404	0.246778	0.743921	-64.495649	33.461045
63436		8.611146	0.777048	3.290277	0.209287	1.019331	-0.620370	0.084766	0.168194	0.047066	-0.729980	-0.320801	-0.787842	0.086137	0.007777	0.032834	0.809232	0.158883	-0.508665	0.247304	0.736851	-64.401189	33.522640
63437		8.630404	0.815632	3.316604	0.185409	1.051404	-0.592647	0.057439	0.149439	0.048316	-0.741699	-0.321289	-0.789551	0.086327	0.008168	0.033104	0.809504	0.158816	-0.508038	0.247748	0.713214	-64.317538	33.584914
63438		8.678358	0.880773	3.568777	-0.012171	0.997000	-0.440832	0.046373	0.137546	0.040880	-0.743652	-0.314209	-0.788818	0.086806	0.008817	0.035630	0.809761	0.158741	-0.507465	0.248127	0.692603	-64.240609	33.637395
63439		8.724422	0.905470	3.856558	-0.214682	0.890101	-0.274864	0.027492	0.123241	0.038114	-0.733887	-0.316895	-0.787842	0.087266	0.009066	0.038513	0.810002	0.158611	-0.506972	0.248432	0.664792	-64.171877	33.685328
63440		8.800746	0.755915	3.805976	-0.058070	0.819115	-0.229595	-0.017185	0.108952	0.038480	-0.739746	-0.310791	-0.788818	0.088027	0.007579	0.038011	0.810240	0.158319	-0.506592	0.248617	0.611301	-64.111348	33.733795
63441		8.806792	0.593655	3.739047	0.091617	0.729740	-0.254886	-0.028316	0.115175	0.038149	-0.730469	-0.311035	-0.789307	0.088088	0.005959	0.037339	0.810504	0.157973	-0.506201	0.248774	0.552053	-64.047202	33.781182
63442		8.762863	0.548209	3.767313	0.087343	0.676780	-0.282982	-0.032582	0.125459	0.031782	-0.738770	-0.311035	-0.796631	0.087651	0.005502	0.037617	0.810804	0.157615	-0.505768	0.248905	0.497912	-63.977132	33.820474
63443		8.693056	0.523075	3.783224	0.071914	0.639911	-0.339518	-0.015814	0.119243	0.024824	-0.729980	-0.318359	-0.792969	0.086952	0.005245	0.037780	0.811084	0.157348	-0.505333	0.249043	0.461887	-63.910555	33.850037
63444		8.715953	0.510734	3.864793	0.034671	0.601332	-0.283653	0.010737	0.112128	0.016030	-0.730957	-0.313721	-0.788330	0.087181	0.005112	0.038599	0.811335	0.157222	-0.504887	0.249209	0.451583	-63.848020	33.868292
63445		8.691941	0.551116	3.787316	0.068271	0.673559	-0.339621	0.030001	0.095631	0.011728	-0.733398	-0.314453	-0.798828	0.086937	0.005511	0.037832	0.811536	0.157203	-0.504481	0.249391	0.457494	-63.794905	33.880407
63446		8.707317	0.555551	3.571450	0.237681	0.794153	-0.421517	0.038862	0.071918	0.010623	-0.732910	-0.310791	-0.792725	0.087086	0.005553	0.035684	0.811669	0.157255	-0.504159	0.249574	0.470042	-63.755408	33.891196
63447		8.783156	0.629651	3.483176	0.294319	0.921147	-0.392620	0.050139	0.059484	0.007325	-0.725830	-0.314209	-0.793945	0.087842	0.006291	0.034807	0.811768	0.157374	-0.503871	0.249760	0.492945	-63.722985	33.897239
63448		8.808849	0.582324	3.404682	0.393633	0.930817	-0.404956	0.023987	0.072199	0.010275	-0.728760	-0.309326	-0.791260	0.088100	0.005824	0.034016	0.811915	0.157366	-0.503566	0.249905	0.497350	-63.683335	33.907537
63449		8.838078	0.583850	3.348870	0.449568	0.970851	-0.404033	0.004964	0.058293	0.005785	-0.725342	-0.317871	-0.791504	0.088390	0.005840	0.033463	0.812047	0.157307	-0.503337	0.249970	0.496164	-63.651587	33.911580
63450		8.966488	0.711474	3.713220	0.158738	0.924834	-0.127049	0.026686	0.022514	0.003467	-0.737793	-0.314941	-0.794922	0.089669	0.007111	0.037123	0.812075	0.157389	-0.503225	0.250055	0.510560	-63.640396	33.912531
63451		9.204611	0.783097	4.049748	-0.042606	0.870899	0.236108	0.011205	-0.030436	-0.004729	-0.722900	-0.316895	-0.792969	0.092040	0.007827	0.040512	0.811993	0.157493	-0.503341	0.250023	0.526018	-63.659430	33.901992
63452		9.575990	0.814997	4.002734	0.108199	1.008575	0.548623	0.017216	-0.054764	-0.022551	-0.724365	-0.313721	-0.801025	0.095750	0.008136	0.040054	0.811866	0.157700	-0.503534	0.249917	0.565999	-63.692387	33.868393
63453		9.708566	0.793614	3.928510	0.222124	1.054807	0.635150	0.005483	-0.040138	-0.053586	-0.732422	-0.313232	-0.794434	0.097080	0.007909	0.039305	0.811824	0.157915	-0.503658	0.249665	0.635023	-63.716680	33.794454
63454		9.722774	0.714298	3.715917	0.430004	1.092497	0.554190	-0.001606	-0.036039	-0.089357	-0.727783	-0.312012	-0.791016	0.097224	0.007100	0.037177	0.811843	0.158189	-0.503745	0.249254	0.741692	-63.738370	33.674219
63455		9.619396	0.760824	3.697311	0.380358	1.104034	0.454647	-0.014616	-0.071372	-0.109027	-0.729492	-0.315918	-0.801025	0.096185	0.007559	0.037007	0.811808	0.158502	-0.503977	0.248701	0.864475	-63.779996	33.527540
63456		9.587526	0.888323	3.751262	0.254341	1.160278	0.452340	-0.033630	-0.127765	-0.112867	-0.732422	-0.313721	-0.792236	0.095856	0.008835	0.037572	0.811649	0.158818	-0.504458	0.248041	0.982539	-63.853831	33.374251
63457		9.579037	1.083670	3.911171	0.016287	1.222823	0.518525	-0.071146	-0.162879	-0.114780	-0.721436	-0.308350	-0.787598	0.095765	0.010796	0.039186	0.811434	0.159029	-0.505126	0.247250	1.082753	-63.947559	33.216815
63458		9.536089	1.178836	3.893996	-0.049494	1.285009	0.474981	-0.129133	-0.173702	-0.110216	-0.736816	-0.303711	-0.787109	0.095334	0.011761	0.039015	0.811230	0.159008	-0.505913	0.246322	1.145620	-64.047544	33.064214
63459		9.452096	1.152799	3.776077	0.012170	1.290388	0.349230	-0.178860	-0.161453	-0.117203	-0.728027	-0.313477	-0.786865	0.094497	0.011506	0.037827	0.811105	0.158786	-0.506704	0.245249	1.188609	-64.140263	32.902044
63460		9.305312	1.121527	3.784085	-0.038210	1.215002	0.221666	-0.218035	-0.136265	-0.127554	-0.730713	-0.309082	-0.796631	0.093034	0.011197	0.037892	0.811085	0.158402	-0.507433	0.244054	1.221559	-64.218542	32.726307
63461		9.091143	1.063282	3.992459	-0.245458	1.002414	0.119789	-0.241819	-0.111899	-0.147013	-0.733154	-0.309326	-0.786133	0.090897	0.010614	0.039963	0.811168	0.157939	-0.508075	0.242738	1.263874	-64.282411	32.525049
63462		8.914724	1.004815	4.221494	-0.453468	0.789904	0.060173	-0.267047	-0.106570	-0.161064	-0.731445	-0.308350	-0.786377	0.089133	0.010033	0.042249	0.811299	0.157404	-0.508714	0.241305	1.309148	-64.343078	32.304621
63463		8.915150	0.889831	4.573743	-0.658285	0.509145	0.212194	-0.243027	-0.114889	-0.189175	-0.732178	-0.304443	-0.786865	0.089134	0.008870	0.045778	0.811422	0.157046	-0.509334	0.239812	1.402485	-64.407917	32.046220
63464		8.981754	0.725963	5.050339	-0.906020	0.137679	0.476385	-0.193123	-0.120418	-0.210361	-0.726563	-0.299805	-0.790527	0.089795	0.007214	0.050550	0.811515	0.156952	-0.509899	0.238355	1.551185	-64.475508	31.758398
63465		9.054051	0.450199	5.077971	-0.752433	-0.107142	0.550065	-0.137190	-0.126247	-0.242623	-0.728027	-0.307129	-0.791260	0.090514	0.004427	0.050834	0.811586	0.157173	-0.510393	0.236904	1.771900	-64.545366	31.426353
63466		9.197248	0.048997	4.938684	-0.377002	-0.364305	0.613600	-0.086760	-0.123178	-0.272389	-0.726563	-0.308350	-0.787842	0.091943	0.000386	0.049443	0.811659	0.157670	-0.510791	0.235462	2.059027	-64.612279	31.052763
63467		9.343076	-0.373700	4.702313	0.086662	-0.595354	0.636353	-0.069887	-0.102001	-0.295590	-0.729736	-0.313965	-0.783447	0.093401	-0.003859	0.047072	0.811797	0.158269	-0.511064	0.233986	2.384311	-64.665680	30.648025
63468		9.454198	-0.678033	4.532143	0.424402	-0.769779	0.656752	-0.082053	-0.100407	-0.301238	-0.734375	-0.314941	-0.789551	0.094509	-0.006904	0.045372	0.811954	0.158833	-0.511338	0.232457	2.711262	-64.717099	30.234080
63469		9.463963	-0.714272	4.519724	0.459231	-0.818691	0.657436	-0.110095	-0.103799	-0.286427	-0.728760	-0.306641	-0.784180	0.094606	-0.007253	0.045250	0.812104	0.159248	-0.511670	0.230913	3.005468	-64.769860	29.838582
63470		9.319380	-0.584779	4.520610	0.335445	-0.762641	0.528229	-0.175788	-0.086548	-0.239927	-0.735352	-0.311279	-0.790527	0.093167	-0.005920	0.045252	0.812296	0.159256	-0.512043	0.229402	3.205837	-64.813548	29.505341
63471		9.189014	-0.344853	4.578015	0.113010	-0.629620	0.439431	-0.226891	-0.060368	-0.181003	-0.729980	-0.298828	-0.784180	0.091873	-0.003480	0.045812	0.812525	0.158876	-0.512413	0.228021	3.303944	-64.843726	29.252854
63472		8.963185	-0.044009	4.502513	-0.077667	-0.389755	0.210052	-0.304668	-0.036357	-0.121316	-0.729004	-0.310791	-0.782959	0.089623	-0.000426	0.045042	0.812808	0.157997	-0.512822	0.226700	3.283302	-64.862151	29.082041
63473		8.724271	0.104041	4.530147	-0.271309	-0.323580	0.009107	-0.350456	-0.012680	-0.074192	-0.739014	-0.306641	-0.786865	0.087240	0.001087	0.045305	0.813132	0.156786	-0.513222	0.225472	3.177451	-64.868543	28.976717
63474		8.474910	0.233379	4.613146	-0.501404	-0.295739	-0.178332	-0.387920	0.010148	-0.049583	-0.732422	-0.295654	-0.786133	0.084752	0.002402	0.046123	0.813513	0.155333	-0.513589	0.224266	3.018773	-64.862880	28.906161
63475		8.204976	0.216634	4.717182	-0.677708	-0.401277	-0.378704	-0.433327	0.046147	-0.047211	-0.726807	-0.291260	-0.784668	0.082061	0.002249	0.047148	0.814016	0.153648	-0.513859	0.222980	2.828754	-64.836639	28.841352
63476		7.809364	0.190978	4.628061	-0.746638	-0.444550	-0.774630	-0.473105	0.070947	-0.068939	-0.736328	-0.288574	-0.795898	0.078111	0.001992	0.046248	0.814633	0.151827	-0.514054	0.221519	2.640902	-64.795809	28.748589
63477		7.498163	0.056531	4.629608	-0.795519	-0.606862	-1.057246	-0.481719	0.103099	-0.104518	-0.717773	-0.286621	-0.786377	0.075006	0.000638	0.046256	0.815373	0.150027	-0.514097	0.219915	2.489781	-64.735672	28.610082
63478		7.072278	0.035266	4.663862	-0.968810	-0.712561	-1.426770	-0.469100	0.122972	-0.152886	-0.724121	-0.285400	-0.797607	0.070752	0.000408	0.046594	0.816204	0.148379	-0.514006	0.218159	2.403221	-64.663147	28.407710
63479		6.936561	-0.112980	4.690395	-0.961234	-0.868588	-1.539234	-0.429720	0.107234	-0.212042	-0.717773	-0.282959	-0.796875	0.069390	-0.001103	0.046869	0.817023	0.147061	-0.513889	0.216251	2.411080	-64.598219	28.126075
63480		6.782431	-0.156841	4.716039	-1.011640	-0.943734	-1.666956	-0.362335	0.103529	-0.264526	-0.722900	-0.290283	-0.803711	0.067847	-0.001573	0.047128	0.817837	0.146155	-0.513672	0.214296	2.520052	-64.533954	27.774747
63481		6.565271	-0.290691	4.621278	-0.945767	-1.059560	-1.905327	-0.298439	0.093486	-0.309728	-0.720703	-0.279785	-0.798340	0.065670	-0.002940	0.046186	0.818622	0.145637	-0.513392	0.212314	2.719172	-64.473889	27.364253
63482		6.736825	-0.396168	4.600197	-0.802678	-1.114364	-1.761758	-0.207816	0.044511	-0.344303	-0.721680	-0.280273	-0.798340	0.067372	-0.004030	0.045991	0.819248	0.145631	-0.513189	0.210385	3.013332	-64.440089	26.905701
63483		7.071855	-0.355734	4.749585	-0.801195	-1.096005	-1.395261	-0.124044	0.008722	-0.363401	-0.713379	-0.285645	-0.803223	0.070714	-0.003656	0.047495	0.819738	0.146054	-0.513028	0.208568	3.379745	-64.425025	26.420278
63484		7.663978	-0.388827	4.896030	-0.661502	-1.097764	-0.800688	-0.079302	-0.034592	-0.361748	-0.719971	-0.287109	-0.802246	0.076624	-0.004007	0.048975	0.820080	0.146700	-0.512998	0.206838	3.772770	-64.433377	25.933538
63485		8.427392	-0.427820	4.985055	-0.408580	-1.053091	-0.077250	-0.040863	-0.071893	-0.339384	-0.721436	-0.288574	-0.802246	0.084249	-0.004411	0.049882	0.820271	0.147485	-0.513095	0.205272	4.164654	-64.462521	25.472771
63486		9.103141	-0.465370	5.124320	-0.230526	-1.050883	0.588507	-0.006892	-0.077213	-0.291243	-0.717041	-0.298584	-0.805420	0.091005	-0.004784	0.051278	0.820373	0.148290	-0.513214	0.203984	4.519847	-64.495490	25.074216
63487		9.648117	-0.565083	5.152043	0.013509	-1.077282	1.086316	0.021664	-0.071505	-0.235659	-0.723389	-0.281006	-0.798828	0.096456	-0.005770	0.051554	0.820410	0.149065	-0.513320	0.203003	4.825171	-64.526810	24.749271
63488		10.101646	-0.535837	5.191603	0.149280	-1.010714	1.511589	0.041935	-0.056449	-0.167584	-0.715088	-0.296631	-0.799561	0.100997	-0.005454	0.051943	0.820400	0.149731	-0.513394	0.202363	5.059542	-64.552205	24.515620
63489		10.175876	-0.575030	5.080578	0.287684	-0.997139	1.528138	0.026396	-0.015625	-0.099359	-0.714600	-0.296875	-0.801758	0.101752	-0.005808	0.050813	0.820437	0.150118	-0.513367	0.201995	5.199179	-64.557502	24.377282
63490		10.192493	-0.589943	4.890605	0.452196	-0.929132	1.460520	0.014810	-0.012311	-0.035979	-0.719971	-0.289551	-0.802734	0.101921	-0.005921	0.048912	0.820427	0.150292	-0.513385	0.201859	5.255906	-64.564026	24.323363
63491		10.038048	-0.558478	4.722052	0.508446	-0.855057	1.249972	0.027565	-0.002175	0.015228	-0.715576	-0.278809	-0.800781	0.100380	-0.005584	0.047221	0.820382	0.150376	-0.513388	0.201973	5.257341	-64.567533	24.338813
63492		9.650265	-0.548164	4.613525	0.436094	-0.863782	0.853916	0.036475	0.011448	0.054206	-0.718018	-0.295166	-0.800049	0.096507	-0.005464	0.046129	0.820327	0.150379	-0.513355	0.202278	5.215302	-64.565247	24.407419
63493		9.419059	-0.452330	4.592344	0.313883	-0.807613	0.640165	0.049995	-0.004622	0.083312	-0.721191	-0.296387	-0.804688	0.094191	-0.004496	0.045924	0.820189	0.150383	-0.513396	0.202728	5.148138	-64.573665	24.513058
63494		9.097627	-0.179693	4.607222	0.040089	-0.628002	0.367176	0.024889	-0.005061	0.108968	-0.704590	-0.293457	-0.801758	0.090976	-0.001753	0.046074	0.820044	0.150218	-0.513483	0.203217	5.035745	-64.583506	24.652767
63495		8.961484	-0.028063	4.674633	-0.147343	-0.543306	0.279105	-0.003915	-0.051956	0.135968	-0.721924	-0.287842	-0.800781	0.089603	-0.000219	0.046770	0.819771	0.149914	-0.513813	0.203709	4.879111	-64.621372	24.823226
63496		8.907445	0.004791	4.395972	0.020283	-0.388441	0.112828	-0.068514	-0.081496	0.154459	-0.723633	-0.295410	-0.799805	0.089056	0.000132	0.043996	0.819453	0.149326	-0.514342	0.204086	4.665489	-64.676654	25.015461
63497		8.766095	0.017651	4.360900	-0.028590	-0.376704	-0.029057	-0.047695	-0.081907	0.162371	-0.727051	-0.284912	-0.801758	0.087643	0.000258	0.043645	0.819108	0.148804	-0.514857	0.204551	4.453487	-64.732320	25.219273
63498		8.691965	0.131305	4.275448	-0.060543	-0.241691	-0.128430	-0.067018	-0.069770	0.162002	-0.717529	-0.281006	-0.800781	0.086904	0.001398	0.042784	0.818809	0.148191	-0.515342	0.204973	4.228783	-64.780659	25.424713
63499		8.699869	0.146838	4.256873	-0.064111	-0.207682	-0.128526	-0.056599	-0.061983	0.147784	-0.724854	-0.288086	-0.799561	0.086984	0.001545	0.042595	0.818536	0.147651	-0.515773	0.205369	4.025947	-64.823679	25.612593
63500		8.771201	0.189164	4.234782	-0.052307	-0.137280	-0.071972	-0.075116	-0.047636	0.136866	-0.722168	-0.279785	-0.798340	0.087701	0.001968	0.042368	0.818325	0.147046	-0.516156	0.205682	3.823873	-64.857708	25.787630
63501		8.811775	0.197521	4.117943	0.040094	-0.058980	-0.084443	-0.086402	-0.032507	0.120764	-0.720215	-0.282715	-0.801514	0.088110	0.002046	0.041193	0.818176	0.146422	-0.516476	0.205913	3.633396	-64.882311	25.942893
63502		8.847869	0.223517	4.041109	0.092590	0.015359	-0.083531	-0.084345	-0.020483	0.105913	-0.723389	-0.278076	-0.801025	0.088473	0.002299	0.040419	0.818073	0.145831	-0.516734	0.206095	3.460919	-64.899220	26.079322
63503		8.912331	0.237165	4.036142	0.107834	0.051382	-0.026879	-0.085566	0.005524	0.088155	-0.725586	-0.275635	-0.802734	0.089123	0.002428	0.040358	0.818055	0.145256	-0.516874	0.206222	3.307487	-64.900571	26.194169
63504		8.952328	0.163565	3.991719	0.190237	0.024647	-0.011262	-0.076788	0.033248	0.078858	-0.732178	-0.276611	-0.800049	0.089529	0.001686	0.039902	0.818113	0.144710	-0.516884	0.206352	3.168430	-64.885562	26.298406
63505		8.976812	0.044377	4.014730	0.239594	-0.074783	0.017886	-0.073348	0.075498	0.061106	-0.714111	-0.276367	-0.802246	0.089783	0.000486	0.040113	0.818294	0.144183	-0.516706	0.206450	3.050495	-64.845805	26.381807
63506		8.900500	-0.073483	3.954754	0.319292	-0.154105	-0.079308	-0.061396	0.115767	0.054281	-0.717041	-0.276367	-0.802490	0.089028	-0.000699	0.039496	0.818578	0.143679	-0.516344	0.206579	2.945401	-64.782666	26.458424
63507		8.820793	-0.169077	3.996353	0.310689	-0.259535	-0.135813	-0.047597	0.153126	0.048406	-0.717285	-0.268799	-0.795410	0.088239	-0.001660	0.039896	0.818954	0.143209	-0.515811	0.206748	2.853591	-64.697991	26.529337
63508		8.728109	-0.240372	3.998430	0.318993	-0.328618	-0.220225	-0.025651	0.166285	0.040266	-0.724121	-0.275879	-0.791016	0.087315	-0.002381	0.039912	0.819356	0.142835	-0.515196	0.206948	2.783805	-64.605451	26.589619
63509		8.630541	-0.250809	4.006089	0.292386	-0.349154	-0.305297	0.004624	0.163214	0.040164	-0.723633	-0.267578	-0.806152	0.086339	-0.002492	0.039990	0.819728	0.142589	-0.514561	0.207224	2.732207	-64.514701	26.649243
63510		8.520251	-0.284661	3.945680	0.326047	-0.363727	-0.431564	0.037780	0.161797	0.035083	-0.716309	-0.274658	-0.812012	0.085235	-0.002839	0.039387	0.820077	0.142494	-0.513894	0.207563	2.705990	-64.424576	26.701733
63511		8.458985	-0.252239	3.877602	0.352062	-0.309582	-0.515696	0.065750	0.142134	0.029372	-0.715088	-0.276123	-0.809326	0.084618	-0.002523	0.038715	0.820361	0.142548	-0.513274	0.207937	2.704081	-64.345575	26.745177
63512		8.398182	-0.174832	3.774476	0.383107	-0.202898	-0.613843	0.107027	0.128359	0.020487	-0.713623	-0.267334	-0.809570	0.084006	-0.001760	0.037690	0.820590	0.142808	-0.512660	0.208369	2.737143	-64.274141	26.775872
63513		8.330161	-0.105888	3.781063	0.329289	-0.156674	-0.671230	0.133046	0.114938	0.009296	-0.712891	-0.271973	-0.815674	0.083323	-0.001080	0.037762	0.820776	0.143218	-0.512067	0.208814	2.799232	-64.210169	26.791122
63514		8.293606	-0.027151	3.724127	0.331537	-0.070122	-0.727594	0.156778	0.084919	-0.007501	-0.716309	-0.278320	-0.805420	0.082952	-0.000304	0.037206	0.820886	0.143798	-0.511559	0.209226	2.896215	-64.162838	26.782262
63515		8.433157	0.029907	3.632373	0.438561	0.044524	-0.641055	0.178110	0.055781	-0.025954	-0.709961	-0.276611	-0.809814	0.084342	0.000256	0.036300	0.820924	0.144545	-0.511135	0.209598	3.028975	-64.131694	26.747685
63516		8.501293	0.053968	3.653299	0.445358	0.062374	-0.570434	0.205588	0.034675	-0.045291	-0.713379	-0.275635	-0.814941	0.085019	0.000483	0.036519	0.820908	0.145475	-0.510755	0.209945	3.201285	-64.111941	26.686461
63517		8.637705	0.041396	3.604068	0.550795	0.090122	-0.469805	0.229417	0.007517	-0.064893	-0.713867	-0.272461	-0.804932	0.086379	0.000345	0.036038	0.820824	0.146583	-0.510446	0.210253	3.412179	-64.107027	26.597698
63518		8.733027	0.046515	3.572194	0.617085	0.113906	-0.398086	0.254591	-0.018868	-0.084222	-0.716064	-0.286621	-0.803711	0.087327	0.000383	0.035731	0.820675	0.147868	-0.510204	0.210524	3.661944	-64.116325	26.481297
63519		8.693879	0.007937	3.465836	0.709489	0.105296	-0.480961	0.274855	-0.032685	-0.088320	-0.711182	-0.291504	-0.808350	0.086933	-0.000007	0.034673	0.820477	0.149263	-0.509993	0.210822	3.929594	-64.133176	26.358402
63520		8.696300	0.073931	3.487207	0.666027	0.135350	-0.467648	0.284646	-0.056475	-0.094169	-0.705078	-0.290527	-0.802490	0.086953	0.000649	0.034898	0.820215	0.150738	-0.509864	0.211102	4.211895	-64.163105	26.225373
63521		8.633098	0.095424	3.642570	0.513865	0.050445	-0.456343	0.286602	-0.080177	-0.092697	-0.710449	-0.293457	-0.801758	0.086317	0.000862	0.036462	0.819888	0.152242	-0.509830	0.211375	4.496343	-64.206375	26.091355
63522		8.620735	0.152220	3.630053	0.490755	0.082488	-0.470854	0.273190	-0.118332	-0.083149	-0.716553	-0.285156	-0.807373	0.086186	0.001437	0.036354	0.819462	0.153705	-0.509973	0.211622	4.766024	-64.271570	25.965026
63523		8.715160	0.217667	3.591431	0.522159	0.154804	-0.399764	0.242420	-0.126801	-0.071956	-0.720215	-0.297119	-0.798340	0.087130	0.002102	0.035972	0.819025	0.155024	-0.510190	0.211831	5.006766	-64.341924	25.851555
63524		8.740512	0.314796	3.560575	0.503305	0.239367	-0.385986	0.217841	-0.118661	-0.058917	-0.717773	-0.303955	-0.801025	0.087385	0.003083	0.035661	0.818612	0.156198	-0.510410	0.212034	5.217689	-64.408106	25.755153
63525		8.836705	0.431186	3.606450	0.442976	0.319938	-0.274283	0.173125	-0.099545	-0.050306	-0.717773	-0.306641	-0.800781	0.088350	0.004258	0.036112	0.818272	0.157148	-0.510604	0.212175	5.391552	-64.463697	25.671930
63526		8.920561	0.567406	3.611039	0.399573	0.436854	-0.190450	0.135849	-0.088709	-0.047840	-0.715088	-0.300293	-0.798584	0.089191	0.005628	0.036154	0.817986	0.157927	-0.510795	0.212239	5.540235	-64.513138	25.592816
63527		8.958483	0.613253	3.527345	0.452123	0.511146	-0.189436	0.083219	-0.080060	-0.052003	-0.714355	-0.297363	-0.789063	0.089572	0.006095	0.035312	0.817768	0.158493	-0.511003	0.212158	5.663270	-64.557336	25.508904
63528		9.085314	0.567634	3.401309	0.617842	0.544767	-0.129944	0.039979	-0.085860	-0.056751	-0.719971	-0.303711	-0.789795	0.090840	0.005644	0.034053	0.817574	0.158899	-0.511278	0.211941	5.768051	-64.604515	25.417395
63529		9.178285	0.501900	3.218082	0.824275	0.582340	-0.126082	0.000030	-0.087638	-0.073294	-0.714355	-0.302490	-0.793701	0.091771	0.004985	0.032221	0.817424	0.159187	-0.511588	0.211555	5.870611	-64.651658	25.303456
63530		9.148509	0.325402	3.041595	1.034852	0.498715	-0.234966	-0.027084	-0.083109	-0.089416	-0.716309	-0.310791	-0.789795	0.091474	0.003217	0.030454	0.817324	0.159400	-0.511895	0.211036	5.976705	-64.695216	25.168163
63531		9.161055	0.165974	3.000860	1.147869	0.370807	-0.246993	-0.021730	-0.122739	-0.107756	-0.725098	-0.309814	-0.794678	0.091593	0.001614	0.030065	0.817137	0.159724	-0.512344	0.210425	6.113732	-64.760086	25.002416
63532		9.263690	0.071189	3.217684	1.062306	0.188698	-0.065361	-0.014210	-0.151388	-0.120701	-0.716064	-0.305908	-0.782227	0.092613	0.000658	0.032247	0.816884	0.160142	-0.512891	0.209757	6.275230	-64.840348	24.814360
63533		9.259170	0.032778	3.519560	0.838962	-0.007220	0.057301	-0.019281	-0.178222	-0.129592	-0.720947	-0.311035	-0.791016	0.092560	0.000271	0.035278	0.816574	0.160591	-0.513545	0.209019	6.449560	-64.935033	24.609182
63534		9.567611	0.021183	3.853640	0.694212	-0.142870	0.477491	-0.027843	-0.222958	-0.136855	-0.731201	-0.307617	-0.785400	0.095633	0.000152	0.038643	0.816163	0.161068	-0.514385	0.208191	6.635490	-65.054511	24.385766
63535		9.919389	0.138868	3.755526	0.830428	0.044163	0.762090	-0.068745	-0.241594	-0.132501	-0.728271	-0.309814	-0.786865	0.099149	0.001336	0.037675	0.815730	0.161388	-0.515345	0.207262	6.797437	-65.184522	24.163385
63536		10.167975	0.334803	3.498822	1.007122	0.356450	0.892458	-0.103382	-0.261589	-0.111500	-0.719971	-0.308105	-0.785156	0.101636	0.003309	0.035119	0.815251	0.161531	-0.516439	0.206312	6.918334	-65.327219	23.964360
63537		10.273129	0.496067	3.379321	1.036751	0.549905	0.949550	-0.113981	-0.289668	-0.081474	-0.727539	-0.301758	-0.780518	0.102684	0.004938	0.033939	0.814674	0.161584	-0.517681	0.205434	7.002138	-65.487714	23.799928
63538		10.211652	0.530942	3.528913	0.853077	0.479215	0.960217	-0.127033	-0.325476	-0.055984	-0.727783	-0.304443	-0.780273	0.102060	0.005303	0.035452	0.813987	0.161551	-0.519103	0.204594	7.053441	-65.670372	23.662759
63539		10.145146	0.525360	3.629852	0.721233	0.396300	0.943634	-0.132287	-0.358480	-0.046604	-0.729492	-0.305908	-0.775146	0.101387	0.005254	0.036477	0.813206	0.161508	-0.520668	0.203755	7.096749	-65.872317	23.531707
63540		10.107684	0.477079	3.642154	0.688788	0.323262	0.914806	-0.138812	-0.360440	-0.047813	-0.733643	-0.311035	-0.778076	0.101012	0.004772	0.036600	0.812423	0.161441	-0.522247	0.202888	7.139439	-66.075366	23.397073
63541		10.110459	0.362888	3.780180	0.605530	0.141174	0.969526	-0.157796	-0.349263	-0.039056	-0.730957	-0.314697	-0.769287	0.101039	0.003639	0.037975	0.811673	0.161264	-0.523803	0.202019	7.159801	-66.272540	23.275538
63542		10.029417	0.176471	4.081042	0.397327	-0.192132	1.007679	-0.163702	-0.361128	-0.020876	-0.737061	-0.302734	-0.761475	0.100220	0.001788	0.040990	0.810874	0.161027	-0.525427	0.201196	7.156138	-66.477864	23.176651
63543		10.052246	0.157124	4.235260	0.255408	-0.293274	1.089531	-0.169823	-0.390207	0.008454	-0.742920	-0.301025	-0.762695	0.100440	0.001612	0.042547	0.809972	0.160717	-0.527195	0.200453	7.116066	-66.701708	23.113846
63544		10.096573	0.293854	4.147747	0.229711	-0.140060	1.103281	-0.176830	-0.423830	0.043671	-0.749268	-0.303955	-0.756836	0.100877	0.002997	0.041689	0.808946	0.160317	-0.529134	0.199805	7.030591	-66.947354	23.095946
63545		10.148227	0.441507	4.005738	0.240576	0.051460	1.103660	-0.170524	-0.440154	0.086631	-0.751465	-0.291504	-0.759033	0.101392	0.004493	0.040277	0.807826	0.159845	-0.531162	0.199334	6.892941	-67.205109	23.138876
63546		10.080497	0.574045	4.244991	-0.089325	0.035715	1.139774	-0.165341	-0.443071	0.132237	-0.750244	-0.292236	-0.748535	0.100707	0.005842	0.042668	0.806643	0.159274	-0.533232	0.199056	6.694012	-67.467744	23.251093
63547		9.967219	0.523439	4.407038	-0.284970	-0.105562	1.093680	-0.155070	-0.418673	0.168387	-0.756836	-0.293213	-0.750000	0.099575	0.005353	0.044275	0.805476	0.158625	-0.535217	0.198971	6.443635	-67.718510	23.425373
63548		9.580882	0.446520	4.569488	-0.560037	-0.306956	0.792258	-0.121641	-0.368399	0.194752	-0.751953	-0.290039	-0.748535	0.095720	0.004586	0.045868	0.804386	0.157987	-0.536986	0.199119	6.162794	-67.942153	23.652696
63549		9.309181	0.181264	4.596418	-0.587642	-0.587831	0.537663	-0.112147	-0.301343	0.204517	-0.758545	-0.292725	-0.745605	0.093020	0.001934	0.046103	0.803457	0.157295	-0.538480	0.199386	5.858873	-68.127572	23.910681
63550		8.932405	-0.127689	4.585164	-0.589922	-0.900948	0.170704	-0.077009	-0.206172	0.218701	-0.768311	-0.284912	-0.753174	0.089278	-0.001162	0.045944	0.802739	0.156609	-0.539567	0.199877	5.536691	-68.259116	24.209531
63551		8.582508	-0.355818	4.643719	-0.667764	-1.169455	-0.141255	0.000048	-0.114140	0.231856	-0.773193	-0.287354	-0.744629	0.085803	-0.003459	0.046486	0.802195	0.156106	-0.540216	0.200701	5.224272	-68.338144	24.545375
63552		8.197136	-0.281623	4.826504	-0.996389	-1.237242	-0.429516	0.071212	-0.051139	0.251818	-0.770264	-0.280762	-0.749512	0.081962	-0.002730	0.048285	0.801743	0.155770	-0.540557	0.201846	4.913521	-68.381663	24.922899
63553		7.749386	-0.107910	5.002043	-1.382016	-1.223957	-0.775155	0.119915	0.020523	0.291818	-0.764893	-0.278809	-0.746338	0.077500	-0.000996	0.050012	0.801406	0.155449	-0.540590	0.203339	4.563727	-68.385240	25.372621
63554		7.381149	0.037242	5.135790	-1.689386	-1.202816	-1.062929	0.146531	0.049735	0.331835	-0.769043	-0.278076	-0.745850	0.073824	0.000457	0.051340	0.801084	0.155095	-0.540510	0.205084	4.167976	-68.372858	25.887819
63555		7.166568	0.149291	5.197638	-1.871631	-1.151859	-1.235531	0.150638	0.043019	0.379842	-0.763428	-0.274902	-0.757324	0.071674	0.001590	0.051962	0.800688	0.154636	-0.540486	0.207029	3.706899	-68.364723	26.476236
63556		7.002050	0.133676	5.114590	-1.860100	-1.133708	-1.418624	0.129836	0.027925	0.428568	-0.756592	-0.272705	-0.748535	0.070025	0.001454	0.051137	0.800214	0.153974	-0.540580	0.209098	3.164890	-68.364997	27.138463
63557		7.263082	-0.067418	5.014859	-1.607510	-1.195597	-1.216635	0.131158	-0.049567	0.464739	-0.763916	-0.265869	-0.742188	0.072620	-0.000538	0.050166	0.799487	0.153302	-0.541007	0.211257	2.576717	-68.408244	27.851510
63558		7.801964	-0.309041	5.056714	-1.365604	-1.310430	-0.704762	0.131211	-0.137494	0.485911	-0.771240	-0.259766	-0.737549	0.077992	-0.002934	0.050619	0.798496	0.152663	-0.541799	0.213429	1.959147	-68.499516	28.595414
63559		8.386181	-0.398767	5.163072	-1.246015	-1.315983	-0.124556	0.131971	-0.190862	0.468452	-0.786621	-0.256592	-0.739990	0.083822	-0.003825	0.051708	0.797371	0.152133	-0.542786	0.215494	1.363963	-68.618196	29.315649
63560		9.007734	-0.406451	5.211414	-1.117086	-1.216532	0.470082	0.120482	-0.224610	0.442911	-0.767578	-0.263428	-0.738770	0.090027	-0.003897	0.052213	0.796187	0.151658	-0.543897	0.217397	0.792744	-68.753209	30.002045
63561		9.607259	-0.490868	5.165419	-0.884517	-1.141629	1.010257	0.107596	-0.207527	0.392169	-0.766357	-0.260986	-0.734131	0.096028	-0.004748	0.051751	0.795109	0.151254	-0.544912	0.219076	0.281820	-68.875837	30.615682
63562		9.872762	-0.487271	5.110583	-0.788333	-1.045640	1.237744	0.090732	-0.082876	0.330401	-0.778809	-0.261475	-0.742188	0.098714	-0.004733	0.051145	0.794449	0.150812	-0.545401	0.220556	-0.152810	-68.925081	31.136523
63563		10.060088	-0.290784	4.904722	-0.682081	-0.723233	1.338899	0.089323	0.032211	0.269245	-0.782471	-0.261719	-0.734375	0.100613	-0.002794	0.049030	0.794167	0.150406	-0.545387	0.221877	-0.497254	-68.907399	31.560095
63564		10.035829	-0.128683	4.584502	-0.520001	-0.412696	1.201454	0.058062	0.132521	0.214355	-0.776855	-0.250488	-0.733398	0.100390	-0.001193	0.045778	0.794244	0.149911	-0.544967	0.222969	-0.775794	-68.831666	31.893728
63565		9.796226	-0.021499	4.310170	-0.423583	-0.212812	0.879334	0.066924	0.178958	0.159460	-0.778320	-0.262451	-0.726563	0.098001	-0.000151	0.043014	0.794499	0.149552	-0.544310	0.223902	-0.964570	-68.729420	32.136931
63566		9.703616	0.406717	4.160932	-0.544509	0.225893	0.736786	0.087255	0.181927	0.126849	-0.770752	-0.251953	-0.737305	0.097071	0.004111	0.041523	0.794783	0.149357	-0.543594	0.224763	-1.092246	-68.625459	32.327080
63567		9.301466	0.525848	3.915567	-0.521329	0.383856	0.272266	0.113911	0.223722	0.111164	-0.769287	-0.257813	-0.742920	0.093055	0.005288	0.039055	0.795177	0.149265	-0.542669	0.225665	-1.178599	-68.497711	32.489534
63568		9.011072	0.771141	3.989544	-0.780076	0.514064	0.027928	0.195417	0.251349	0.081324	-0.777588	-0.259033	-0.739746	0.090158	0.007709	0.039790	0.795617	0.149544	-0.541519	0.226688	-1.173318	-68.354320	32.603488
63569		8.763792	0.867979	3.994166	-0.890069	0.554873	-0.199642	0.224183	0.264880	0.048499	-0.766846	-0.259277	-0.739258	0.087689	0.008656	0.039835	0.796107	0.150012	-0.540256	0.227669	-1.103025	-68.203706	32.665649
63570		8.468378	0.788055	4.002344	-0.922777	0.429887	-0.468340	0.279729	0.286176	0.018254	-0.775391	-0.267822	-0.741455	0.084740	0.007832	0.039913	0.796645	0.150758	-0.538821	0.228695	-0.957782	-68.041125	32.681251
63571		8.328835	0.898394	4.144950	-1.111648	0.428259	-0.542412	0.314672	0.264643	-0.004127	-0.765381	-0.265869	-0.750977	0.083343	0.008917	0.041353	0.797120	0.151728	-0.537412	0.229709	-0.762054	-67.891213	32.664163
63572		8.378566	0.885751	4.130029	-1.053027	0.433751	-0.498987	0.302062	0.226796	-0.018963	-0.762939	-0.269531	-0.737061	0.083833	0.008787	0.041219	0.797518	0.152730	-0.536155	0.230601	-0.554966	-67.762922	32.626883
63573		8.459438	0.776410	4.080689	-0.908568	0.378296	-0.439946	0.281813	0.180270	-0.038343	-0.765625	-0.271484	-0.750000	0.084633	0.007690	0.040741	0.797825	0.153757	-0.535091	0.231324	-0.334003	-67.661460	32.562145
63574		8.623222	0.735070	4.124476	-0.848969	0.349166	-0.269685	0.261920	0.139417	-0.057550	-0.764160	-0.273438	-0.746338	0.086263	0.007272	0.041194	0.798060	0.154803	-0.534196	0.231886	-0.099393	-67.583207	32.470201
63575		8.745277	0.604039	4.160931	-0.750357	0.237117	-0.141142	0.230511	0.111662	-0.081651	-0.767090	-0.275635	-0.742920	0.087478	0.005957	0.041567	0.798270	0.155820	-0.533430	0.232245	0.149787	-67.520846	32.343053
63576		8.841490	0.535373	4.150492	-0.657708	0.193885	-0.054872	0.221873	0.089075	-0.096549	-0.770020	-0.269043	-0.746826	0.088436	0.005265	0.041471	0.798444	0.156867	-0.532750	0.232504	0.413578	-67.471018	32.194603
63577		9.012251	0.442966	4.076431	-0.478323	0.176513	0.075396	0.219943	0.095194	-0.107732	-0.763672	-0.276855	-0.755371	0.090144	0.004336	0.040726	0.798646	0.157930	-0.532039	0.232718	0.690889	-67.417504	32.030338
63578		9.074800	0.279085	3.972422	-0.270164	0.092627	0.093291	0.222362	0.121598	-0.110606	-0.758057	-0.289551	-0.748291	0.090774	0.002697	0.039672	0.798919	0.158977	-0.531216	0.232945	0.971696	-67.348365	31.863363
63579		9.071292	0.175308	3.808405	-0.067186	0.077603	0.026644	0.227900	0.145841	-0.112379	-0.764160	-0.278809	-0.756836	0.090742	0.001659	0.038020	0.799252	0.160025	-0.530288	0.233201	1.256299	-67.265171	31.695972
63580		8.956740	0.035222	3.690549	0.084698	-0.011801	-0.125726	0.228441	0.163015	-0.107214	-0.750732	-0.288330	-0.752930	0.089598	0.000262	0.036833	0.799624	0.161039	-0.529292	0.233491	1.531806	-67.171719	31.538467
63581		8.962055	-0.013351	3.612854	0.195923	-0.018535	-0.151810	0.225428	0.173828	-0.100396	-0.754395	-0.287598	-0.748779	0.089652	-0.000219	0.036050	0.800015	0.162011	-0.528263	0.233809	1.794340	-67.072080	31.393266
63582		8.968711	0.045821	3.562478	0.229018	0.053784	-0.165111	0.206049	0.208539	-0.095386	-0.757568	-0.287598	-0.757080	0.089724	0.000379	0.035532	0.800508	0.162851	-0.527119	0.234123	2.035528	-66.952239	31.258837
63583		8.927297	0.131640	3.514970	0.231461	0.140426	-0.221253	0.197855	0.255154	-0.083053	-0.753174	-0.302734	-0.754150	0.089318	0.001245	0.035037	0.801112	0.163571	-0.525807	0.234502	2.251396	-66.805938	31.146937
63584		8.827170	0.245714	3.390529	0.260220	0.281760	-0.361348	0.173827	0.312507	-0.076815	-0.755615	-0.300537	-0.751953	0.088325	0.002394	0.033769	0.801878	0.164110	-0.524297	0.234890	2.439910	-66.626638	31.049528
63585		8.702897	0.431941	3.452137	0.101156	0.387220	-0.448716	0.163474	0.356346	-0.065653	-0.752441	-0.300049	-0.758057	0.087092	0.004263	0.034370	0.802750	0.164528	-0.522631	0.235330	2.603311	-66.422566	30.973055
63586		8.525399	0.526715	3.430663	0.038057	0.450156	-0.618934	0.132950	0.375621	-0.056683	-0.741211	-0.304688	-0.762451	0.085320	0.005220	0.034150	0.803684	0.164775	-0.520928	0.235742	2.734315	-66.207502	30.912720
63587		8.432904	0.592318	3.428092	0.004775	0.498632	-0.704023	0.099911	0.380788	-0.042853	-0.739502	-0.300293	-0.771729	0.084395	0.005888	0.034123	0.804640	0.164848	-0.519254	0.236127	2.826836	-65.989941	30.873692
63588		8.387529	0.668086	3.390352	0.007268	0.585332	-0.760135	0.065727	0.378710	-0.025717	-0.741699	-0.304199	-0.768799	0.083940	0.006659	0.033747	0.805596	0.164739	-0.517639	0.236487	2.876915	-65.773853	30.859379
63589		8.433861	0.732205	3.489958	-0.057308	0.613295	-0.676690	0.027542	0.368133	-0.013042	-0.729736	-0.303711	-0.768311	0.084403	0.007312	0.034745	0.806537	0.164456	-0.516122	0.236792	2.889479	-65.564365	30.862463
63590		8.489381	0.749823	3.343494	0.091447	0.731698	-0.687615	-0.026011	0.361664	-0.008564	-0.727051	-0.302002	-0.779053	0.084954	0.007499	0.033280	0.807498	0.163952	-0.514695	0.236970	2.866132	-65.358558	30.871128
63591		8.420401	0.740826	3.135437	0.254497	0.834234	-0.839274	-0.085512	0.346617	0.006133	-0.732178	-0.300781	-0.778809	0.084258	0.007424	0.031205	0.808449	0.163189	-0.513411	0.237042	2.791910	-65.161923	30.898457
63592		8.317941	0.736848	2.966564	0.369951	0.914775	-1.005995	-0.145866	0.327021	0.015663	-0.730957	-0.302246	-0.776855	0.083227	0.007397	0.029524	0.809386	0.162178	-0.512283	0.236978	2.673337	-64.976576	30.936231
63593		8.148617	0.686095	2.874616	0.424948	0.902655	-1.202306	-0.188366	0.287242	0.030463	-0.726807	-0.304688	-0.779297	0.081526	0.006900	0.028623	0.810234	0.161005	-0.511378	0.236835	2.515876	-64.814512	30.990486
63594		8.146594	0.735121	2.978623	0.333138	0.910636	-1.161715	-0.209474	0.215649	0.047246	-0.723877	-0.303467	-0.775146	0.081496	0.007402	0.029691	0.810895	0.159789	-0.510799	0.236647	2.330960	-64.693684	31.061753
63595		8.376051	0.941911	3.430815	-0.026952	0.926656	-0.759706	-0.183806	0.173255	0.062614	-0.731201	-0.296387	-0.783447	0.083787	0.009477	0.034227	0.811406	0.158687	-0.510374	0.236553	2.145330	-64.597459	31.150181
63596		8.669479	1.021796	4.139467	-0.489056	0.724345	-0.191085	-0.171334	0.164680	0.067525	-0.720215	-0.299072	-0.788818	0.086725	0.010283	0.041314	0.811879	0.157633	-0.509971	0.236504	1.962318	-64.506080	31.243746
63597		8.833028	0.778784	4.363682	-0.458520	0.466600	0.048479	-0.210626	0.168259	0.067465	-0.721680	-0.286621	-0.793945	0.088364	0.007864	0.043554	0.812390	0.156416	-0.509600	0.236356	1.757701	-64.412558	31.336324
63598		8.829093	0.348682	3.953184	0.089387	0.329422	-0.138724	-0.216215	0.161993	0.070758	-0.723877	-0.293701	-0.798096	0.088322	0.003561	0.039456	0.812886	0.155172	-0.509261	0.236200	1.547205	-64.322396	31.431625
63599		8.891843	0.274145	4.115932	0.037467	0.219782	-0.013137	-0.106546	0.173455	0.060272	-0.712646	-0.293457	-0.788086	0.088953	0.002790	0.041081	0.813336	0.154389	-0.508739	0.236291	1.412591	-64.225529	31.512836
63600		8.717722	0.229375	4.432155	-0.231397	0.002263	-0.033030	-0.024646	0.170065	0.048467	-0.716064	-0.289795	-0.790283	0.087214	0.002320	0.044247	0.813728	0.153973	-0.508123	0.236539	1.339754	-64.130254	31.577519
63601		8.596113	0.030935	4.181315	0.029213	-0.059016	-0.253756	0.033218	0.109301	0.042946	-0.716064	-0.283203	-0.798584	0.085984	0.000321	0.041766	0.813926	0.153878	-0.507682	0.236866	1.308513	-64.069810	31.632954
63602		8.533073	-0.231898	3.600581	0.590760	-0.003936	-0.567025	0.045612	0.044251	0.038611	-0.708252	-0.284912	-0.794434	0.085339	-0.002311	0.035986	0.813956	0.153920	-0.507487	0.237154	1.291331	-64.046447	31.680356
63603		8.576901	-0.430479	2.993732	1.171998	0.139702	-0.795044	0.032310	-0.012354	0.039784	-0.721924	-0.282471	-0.798096	0.085768	-0.004293	0.029942	0.813849	0.153974	-0.507540	0.237372	1.266696	-64.055630	31.727889
63604		8.581364	-0.461363	2.642679	1.450732	0.288279	-0.944278	-0.001995	-0.050083	0.045987	-0.713135	-0.285645	-0.798584	0.085808	-0.004594	0.026448	0.813667	0.153914	-0.507791	0.237496	1.215903	-64.086376	31.782169
63605		8.702866	-0.400453	2.584842	1.498417	0.396584	-0.858409	-0.045738	-0.084885	0.060166	-0.717529	-0.287109	-0.787109	0.087019	-0.003972	0.025886	0.813412	0.153684	-0.508247	0.237542	1.124089	-64.137306	31.854643
63606		8.912296	-0.132671	3.218372	0.941935	0.358490	-0.389908	-0.009306	-0.111611	0.069814	-0.722656	-0.279053	-0.789307	0.089105	-0.001294	0.032234	0.813051	0.153609	-0.508776	0.237698	1.041971	-64.203535	31.939227
63607		9.391713	0.365977	4.093788	0.175039	0.455454	0.427392	0.022816	-0.121583	0.063993	-0.718262	-0.287109	-0.794189	0.093891	0.003685	0.040995	0.812645	0.153692	-0.509302	0.237906	0.985004	-64.275440	32.016544
63608		9.904510	0.688803	4.066439	0.196949	0.855620	0.880245	0.015383	-0.087894	0.053512	-0.724365	-0.285645	-0.791016	0.099025	0.006911	0.040708	0.812343	0.153729	-0.509692	0.238076	0.935158	-64.327878	32.080840
63609		10.010816	0.602818	3.355408	0.812399	1.158619	0.667589	-0.017441	-0.009482	0.039154	-0.724121	-0.287354	-0.785400	0.100105	0.006051	0.033558	0.812283	0.153578	-0.509791	0.238167	0.882053	-64.335275	32.128220
63610		9.859973	0.628835	2.933249	1.059631	1.356313	0.348811	-0.030751	0.010089	0.020642	-0.724854	-0.285645	-0.792480	0.098601	0.006303	0.029327	0.812305	0.153397	-0.509813	0.238162	0.843050	-64.331297	32.151389
63611		9.656837	0.554834	3.056389	0.928380	1.187148	0.218894	-0.037193	-0.069716	0.014980	-0.712891	-0.279541	-0.788330	0.096557	0.005561	0.030597	0.812134	0.153299	-0.510162	0.238058	0.808448	-64.372972	32.165683
63612		9.521559	0.673070	3.444340	0.509163	1.058948	0.266794	-0.019648	-0.192127	0.015565	-0.721680	-0.278320	-0.789551	0.095182	0.006741	0.034534	0.811638	0.153415	-0.510988	0.237905	0.785153	-64.484760	32.178207
63613		9.770283	0.762187	3.853082	0.218585	0.977527	0.669782	-0.032210	-0.317238	0.025367	-0.728271	-0.278564	-0.787354	0.097641	0.007640	0.038684	0.810818	0.153605	-0.512342	0.237665	0.744645	-64.668315	32.202174
63614		10.244505	0.618782	3.940826	0.366648	0.904203	1.137687	-0.051316	-0.407419	0.028615	-0.728271	-0.282715	-0.785400	0.102364	0.006213	0.039615	0.809776	0.153814	-0.514087	0.237316	0.690021	-64.903565	32.229089
63615		10.489450	0.374139	4.112098	0.415764	0.647969	1.433867	-0.035204	-0.428129	0.025857	-0.729736	-0.273682	-0.782715	0.104806	0.003762	0.041345	0.808667	0.154121	-0.515891	0.236983	0.647681	-65.150638	32.253097
63616		10.610449	0.223701	4.667986	0.077135	0.249656	1.778400	0.039090	-0.389072	0.003768	-0.731689	-0.276611	-0.780029	0.106013	0.002230	0.046887	0.807625	0.154736	-0.517430	0.236779	0.674499	-65.375187	32.247253
63617		10.629572	0.084430	5.314599	-0.364485	-0.210672	2.064287	0.128798	-0.301876	-0.036517	-0.728271	-0.279785	-0.775146	0.106215	0.000791	0.053307	0.806784	0.155717	-0.518478	0.236714	0.802578	-65.549479	32.187134
63618		10.506231	-0.147370	5.648905	-0.554654	-0.628651	2.087304	0.197207	-0.222010	-0.083167	-0.742432	-0.277832	-0.778809	0.104999	-0.001573	0.056604	0.806150	0.156996	-0.519085	0.236696	1.028783	-65.677480	32.061805
63619		10.443691	-0.467749	5.368586	-0.193873	-0.801678	1.910403	0.197694	-0.139731	-0.133925	-0.742188	-0.278320	-0.765381	0.104396	-0.004801	0.053754	0.805787	0.158315	-0.519318	0.236542	1.319385	-65.757551	31.866816
63620		10.217565	-0.750241	4.740977	0.365816	-0.798671	1.441939	0.153095	-0.014191	-0.168397	-0.744141	-0.287354	-0.777100	0.102166	-0.007625	0.047411	0.805825	0.159391	-0.519072	0.236230	1.625320	-65.764837	31.626443
63621		9.422847	-0.761046	4.580053	0.232434	-0.914799	0.649396	0.091488	0.096021	-0.174551	-0.739746	-0.290039	-0.769043	0.094244	-0.007714	0.045752	0.806204	0.160108	-0.518447	0.235823	1.899444	-65.708353	31.382810
63622		8.664202	-0.513221	4.624726	-0.186295	-0.902824	-0.021361	0.005193	0.079907	-0.173331	-0.733643	-0.295410	-0.770752	0.086656	-0.005209	0.046213	0.806609	0.160491	-0.517991	0.235182	2.122204	-65.660704	31.140799
63623		8.229345	-0.173136	4.767490	-0.621653	-0.788945	-0.353715	-0.095015	0.068104	-0.159890	-0.732666	-0.293945	-0.772705	0.082308	-0.001775	0.047648	0.807046	0.160450	-0.517709	0.234329	2.270339	-65.619769	30.917981
63624		7.856908	0.032186	4.914559	-0.968695	-0.770586	-0.628312	-0.192848	0.079409	-0.145003	-0.737793	-0.288086	-0.772461	0.078589	0.000312	0.049114	0.807573	0.159962	-0.517508	0.233290	2.342557	-65.572503	30.716661
63625		7.389361	0.218650	4.998016	-1.293700	-0.749831	-1.015261	-0.284260	0.083311	-0.141700	-0.736572	-0.288574	-0.774414	0.073916	0.002205	0.049946	0.808177	0.159092	-0.517399	0.232032	2.357465	-65.523043	30.520920
63626		7.041481	0.339923	4.964023	-1.452872	-0.695618	-1.342458	-0.351189	0.092925	-0.162430	-0.739746	-0.289063	-0.775391	0.070441	0.003429	0.049601	0.808881	0.157991	-0.517311	0.230521	2.359033	-65.467577	30.297222
63627		6.765546	0.480446	5.006017	-1.653629	-0.645634	-1.571795	-0.373516	0.114642	-0.199292	-0.725586	-0.284912	-0.777588	0.067689	0.004830	0.050012	0.809697	0.156872	-0.517129	0.228822	2.392306	-65.398776	30.024880
63628		6.708084	0.414054	5.026429	-1.646200	-0.714452	-1.614249	-0.372518	0.137950	-0.248367	-0.727539	-0.277100	-0.776367	0.067121	0.004151	0.050210	0.810625	0.155855	-0.516810	0.226942	2.485092	-65.315262	29.687194
63629		6.647541	0.235672	4.961443	-1.512234	-0.840250	-1.696754	-0.329874	0.159955	-0.293381	-0.733643	-0.280273	-0.781006	0.066519	0.002341	0.049557	0.811623	0.155103	-0.516316	0.225008	2.655350	-65.217724	29.291199
63630		6.660183	0.208401	4.865983	-1.404365	-0.812573	-1.722773	-0.255027	0.177823	-0.325936	-0.723633	-0.280518	-0.783447	0.066648	0.002037	0.048598	0.812642	0.154714	-0.515638	0.223144	2.905025	-65.108392	28.854091
63631		7.051728	0.276854	4.825075	-1.245948	-0.659356	-1.380742	-0.158106	0.133574	-0.347614	-0.718262	-0.288086	-0.782227	0.070554	0.002684	0.048201	0.813492	0.154827	-0.515012	0.221410	3.237040	-65.022837	28.387600
63632		7.882321	0.394365	4.880472	-1.023419	-0.431464	-0.600092	-0.081515	0.049748	-0.337333	-0.720459	-0.287109	-0.784180	0.078842	0.003831	0.048784	0.814053	0.155315	-0.514647	0.219847	3.604137	-64.984244	27.930226
63633		8.968524	0.545024	4.957929	-0.741195	-0.146327	0.421651	0.024300	-0.039233	-0.305488	-0.719971	-0.284424	-0.790527	0.089684	0.005307	0.049598	0.814265	0.156252	-0.514552	0.218619	3.999289	-64.996583	27.509104
63634		9.874472	0.590766	5.219761	-0.615760	-0.084457	1.354842	0.099887	-0.062787	-0.262910	-0.723877	-0.288574	-0.791748	0.098736	0.005752	0.052232	0.814310	0.157409	-0.514502	0.217736	4.388095	-65.022786	27.142322
63635		10.348244	0.503634	5.221119	-0.382792	-0.097813	1.782299	0.158415	-0.033155	-0.209448	-0.721191	-0.293945	-0.788330	0.103479	0.004887	0.052232	0.814324	0.158637	-0.514309	0.217248	4.742689	-65.033659	26.850837
63636		10.859811	0.416391	5.242507	-0.150635	-0.111362	2.252038	0.183642	-0.027905	-0.145666	-0.728027	-0.295410	-0.788330	0.108594	0.004037	0.052444	0.814263	0.159795	-0.514117	0.217084	5.033133	-65.043783	26.645524
63637		10.766173	0.217629	5.100849	0.035926	-0.249394	2.100036	0.156734	0.021044	-0.082160	-0.726563	-0.297852	-0.787109	0.107668	0.002092	0.050999	0.814277	0.160629	-0.513805	0.217152	5.225082	-65.029036	26.532401
63638		10.314873	-0.092938	4.900519	0.191524	-0.511005	1.594438	0.113651	0.078105	-0.029485	-0.717285	-0.307617	-0.782227	0.103168	-0.000972	0.048964	0.814416	0.161089	-0.513350	0.217367	5.321131	-64.984257	26.497375
63639		9.602432	-0.476913	4.631938	0.339209	-0.842116	0.820504	0.039399	0.120263	-0.004582	-0.715332	-0.304932	-0.794678	0.096052	-0.004780	0.046261	0.814695	0.161138	-0.512823	0.217530	5.339347	-64.916869	26.501737
63640		9.041026	-0.519028	4.467564	0.286050	-0.898295	0.241162	-0.010858	0.145897	0.002427	-0.720703	-0.298340	-0.784180	0.090443	-0.005187	0.044610	0.815073	0.160936	-0.512251	0.217611	5.317421	-64.835029	26.518400
63641		8.495979	-0.479988	4.451988	0.080761	-0.952072	-0.256576	-0.064251	0.138168	0.013850	-0.720947	-0.295410	-0.788086	0.084991	-0.004780	0.044463	0.815460	0.160497	-0.511779	0.217597	5.252039	-64.758397	26.549526
63642		8.065847	-0.512703	4.368412	0.004706	-1.010759	-0.681308	-0.096147	0.122675	0.040097	-0.716064	-0.290283	-0.789795	0.080686	-0.005090	0.043637	0.815805	0.159874	-0.511425	0.217593	5.138540	-64.691822	26.613222
63643		8.052572	-0.401945	4.381554	-0.064933	-0.913770	-0.682283	-0.096258	0.072174	0.063548	-0.720703	-0.299072	-0.793213	0.080543	-0.003973	0.043788	0.815994	0.159249	-0.511296	0.217647	5.002710	-64.655321	26.702029
63644		7.871185	-0.442062	4.335884	-0.077932	-0.949547	-0.866004	-0.081114	0.080043	0.081283	-0.720215	-0.300781	-0.787354	0.078731	-0.004371	0.043329	0.816173	0.158628	-0.511132	0.217815	4.853516	-64.614943	26.814724
63645		7.922316	-0.192699	4.428627	-0.258698	-0.759514	-0.770057	-0.067043	0.057323	0.098781	-0.710205	-0.297852	-0.798340	0.079237	-0.001873	0.044264	0.816261	0.158048	-0.511059	0.218075	4.694206	-64.588405	26.948106
63646		7.943002	-0.278951	4.361097	-0.155993	-0.784497	-0.782268	-0.065366	0.059779	0.118255	-0.718750	-0.302002	-0.798096	0.079445	-0.002728	0.043588	0.816334	0.157420	-0.510989	0.218420	4.512447	-64.560998	27.107181
63647		8.048941	-0.348886	4.278863	-0.018360	-0.771614	-0.723127	-0.040435	0.049797	0.123167	-0.720215	-0.302734	-0.791504	0.080502	-0.003431	0.042769	0.816356	0.156894	-0.510937	0.218842	4.340428	-64.539492	27.271577
63648		8.126288	-0.332837	4.246659	0.025031	-0.715829	-0.665645	-0.010716	0.035190	0.128640	-0.716309	-0.283936	-0.788818	0.081272	-0.003274	0.042452	0.816310	0.156491	-0.510914	0.219350	4.180376	-64.526179	27.441588
63649		8.223461	-0.247351	4.074656	0.146837	-0.530940	-0.648308	0.004959	0.031505	0.118484	-0.713379	-0.295410	-0.790527	0.082242	-0.002426	0.040734	0.816254	0.156183	-0.510883	0.219854	4.042009	-64.514546	27.597558
63650		8.343087	-0.045948	4.038600	0.113220	-0.309293	-0.549264	0.028179	0.021896	0.106687	-0.715820	-0.293701	-0.794922	0.083436	-0.000421	0.040377	0.816168	0.156007	-0.510855	0.220360	3.931766	-64.507617	27.736756
63651		8.412803	0.169411	3.881429	0.145980	-0.028941	-0.547306	0.024941	0.021553	0.095242	-0.710938	-0.287598	-0.797119	0.084131	0.001729	0.038805	0.816095	0.155850	-0.510824	0.220813	3.833719	-64.500503	27.860763
63652		8.525934	0.292515	3.834740	0.159004	0.127877	-0.461714	0.009432	0.026025	0.079383	-0.718018	-0.285889	-0.783936	0.085263	0.002957	0.038336	0.816065	0.155662	-0.510778	0.221162	3.745294	-64.489927	27.963831
63653		8.605041	0.355167	3.766622	0.207594	0.236193	-0.417932	-0.008447	0.031380	0.061876	-0.717041	-0.285889	-0.792236	0.086055	0.003580	0.037653	0.816080	0.155443	-0.510718	0.221400	3.667473	-64.475794	28.044249
63654		8.731488	0.432918	3.666253	0.291990	0.382601	-0.345055	-0.035806	0.042728	0.047853	-0.711670	-0.287598	-0.797119	0.087322	0.004357	0.036643	0.816162	0.155133	-0.510630	0.221519	3.589732	-64.454476	28.106860
63655		8.813682	0.436468	3.597355	0.375335	0.442235	-0.300800	-0.065560	0.057828	0.034919	-0.721436	-0.286865	-0.791016	0.088146	0.004392	0.035947	0.816318	0.154721	-0.510503	0.221522	3.509680	-64.424167	28.153506
63656		8.867382	0.452632	3.459159	0.496167	0.540365	-0.312006	-0.073370	0.076795	0.018178	-0.708496	-0.284668	-0.799561	0.088687	0.004547	0.034556	0.816549	0.154296	-0.510294	0.221450	3.443700	-64.382235	28.179218
63657		8.872143	0.329988	3.460136	0.565565	0.442670	-0.311081	-0.078232	0.079361	0.000123	-0.718018	-0.281738	-0.806152	0.088735	0.003313	0.034565	0.816808	0.153897	-0.510067	0.221295	3.396609	-64.338376	28.181282
63658		8.832204	0.211699	3.361383	0.692848	0.385532	-0.393406	-0.062206	0.078480	-0.018401	-0.710938	-0.287598	-0.804199	0.088335	0.002119	0.033579	0.817075	0.153607	-0.509811	0.221101	3.380600	-64.294187	28.158351
63659		8.759278	0.157382	3.386112	0.680682	0.314809	-0.450367	-0.033912	0.070317	-0.042562	-0.711182	-0.284424	-0.802734	0.087605	0.001561	0.033830	0.817324	0.153507	-0.509538	0.220878	3.410256	-64.254052	28.103412
63660		8.762199	0.108893	3.447673	0.666858	0.243687	-0.422781	0.013619	0.052235	-0.061756	-0.715576	-0.283691	-0.800537	0.087631	0.001060	0.034454	0.817514	0.153668	-0.509272	0.220680	3.490842	-64.223388	28.021613
63661		8.728259	0.104210	3.453857	0.659062	0.225335	-0.451205	0.054561	0.041696	-0.082530	-0.708984	-0.290283	-0.795654	0.087290	0.000997	0.034521	0.817666	0.154063	-0.508988	0.220497	3.620224	-64.198134	27.912186
63662		8.720612	0.041664	3.506112	0.657082	0.138056	-0.437571	0.096004	0.038913	-0.097153	-0.714355	-0.295898	-0.800049	0.087213	0.000357	0.035044	0.817795	0.154666	-0.508658	0.220355	3.790413	-64.173682	27.783415
63663		8.641292	0.118963	3.533179	0.575432	0.164697	-0.495437	0.140840	0.028289	-0.121648	-0.714600	-0.283691	-0.799561	0.086419	0.001112	0.035320	0.817889	0.155528	-0.508303	0.220221	4.015967	-64.154277	27.622017
63664		8.493832	0.069528	3.454947	0.613443	0.116559	-0.664094	0.163073	0.005645	-0.135642	-0.708496	-0.296631	-0.799072	0.084940	0.000610	0.034548	0.817923	0.156539	-0.508004	0.220066	4.272232	-64.146834	27.440236
63665		8.345098	0.007016	3.255809	0.748440	0.112645	-0.886988	0.175219	-0.027356	-0.155042	-0.708984	-0.298584	-0.805908	0.083447	-0.000023	0.032570	0.817883	0.157688	-0.507811	0.219839	4.561487	-64.157113	27.229926
63666		8.187514	-0.109603	3.141473	0.841596	0.017906	-1.082990	0.188798	-0.062830	-0.169582	-0.716064	-0.302246	-0.794922	0.081864	-0.001195	0.031439	0.817759	0.158965	-0.507736	0.219556	4.879246	-64.186338	26.996230
63667		8.155291	-0.117757	3.269262	0.740126	-0.079015	-1.057310	0.198966	-0.116567	-0.180539	-0.716797	-0.301514	-0.797119	0.081533	-0.001284	0.032739	0.817499	0.160373	-0.507860	0.219213	5.222309	-64.245232	26.741387
63668		8.315447	-0.272746	3.438436	0.755717	-0.286648	-0.846609	0.174998	-0.149110	-0.191457	-0.718750	-0.306396	-0.799072	0.083126	-0.002837	0.034444	0.817186	0.161744	-0.508134	0.218737	5.569414	-64.321379	26.466685
63669		8.532216	-0.240693	3.570963	0.722457	-0.308385	-0.593614	0.149672	-0.150249	-0.203921	-0.717041	-0.308105	-0.792725	0.085293	-0.002521	0.035772	0.816902	0.163046	-0.508429	0.218145	5.918969	-64.396788	26.173619
63670		8.725495	-0.124434	3.583300	0.728591	-0.204682	-0.409656	0.114469	-0.115697	-0.213044	-0.725586	-0.312500	-0.787598	0.087233	-0.001358	0.035883	0.816744	0.164187	-0.508612	0.217453	6.256274	-64.451136	25.871568
63671		8.864904	-0.004757	3.417771	0.849659	-0.020122	-0.349848	0.091665	-0.083059	-0.220554	-0.712646	-0.310791	-0.788330	0.088635	-0.000161	0.034214	0.816693	0.165221	-0.508680	0.216700	6.586550	-64.485719	25.563302
63672		8.956269	0.148439	3.311333	0.891657	0.156876	-0.305742	0.053824	-0.059469	-0.217977	-0.723877	-0.321533	-0.787842	0.089554	0.001378	0.033140	0.816730	0.166066	-0.508695	0.215880	6.889211	-64.506313	25.261440
63673		9.184285	0.141565	3.203251	1.071956	0.225372	-0.146663	0.008255	-0.056126	-0.208592	-0.715576	-0.308838	-0.790283	0.091835	0.001319	0.032058	0.816802	0.166699	-0.508751	0.214986	7.154804	-64.525024	24.972009
63674		9.269885	0.226600	2.956824	1.254240	0.416110	-0.170145	-0.035430	-0.032474	-0.200365	-0.713867	-0.310791	-0.778320	0.092696	0.002178	0.029583	0.816961	0.167105	-0.508765	0.214032	7.381953	-64.530354	24.697141
63675		9.365494	0.142721	2.935555	1.358553	0.356162	-0.097864	-0.033905	-0.012017	-0.190390	-0.715088	-0.311523	-0.792236	0.093654	0.001343	0.029361	0.817158	0.167471	-0.508701	0.213141	7.595219	-64.524352	24.438942
63676		9.657059	0.201133	3.294259	1.178058	0.267536	0.321017	-0.035777	0.004854	-0.175917	-0.712402	-0.324219	-0.791260	0.096573	0.001932	0.032940	0.817385	0.167772	-0.508583	0.212315	7.786882	-64.509513	24.202886
63677		9.928105	0.224693	3.699185	0.972770	0.124459	0.739087	-0.060842	0.008183	-0.160378	-0.708984	-0.328369	-0.782471	0.099284	0.002179	0.036987	0.817624	0.167930	-0.508489	0.211495	7.945321	-64.493668	23.988276
63678		10.364934	0.308069	3.919962	0.939627	0.153758	1.232054	-0.094865	-0.012747	-0.128029	-0.708252	-0.322021	-0.785156	0.103649	0.003033	0.039205	0.817803	0.167889	-0.508543	0.210703	8.049015	-64.492062	23.812677
63679		10.536135	0.498914	3.959845	0.879628	0.320329	1.415093	-0.113181	-0.035363	-0.069534	-0.710938	-0.317139	-0.785889	0.105356	0.004975	0.039614	0.817878	0.167648	-0.508758	0.210084	8.076627	-64.507904	23.709786
63680		10.556478	0.894301	4.112825	0.561479	0.583754	1.523022	-0.134596	-0.104935	-0.018195	-0.708008	-0.318359	-0.778320	0.105544	0.008961	0.041178	0.817739	0.167261	-0.509324	0.209560	8.042406	-64.567373	23.661492
63681		10.471662	1.026132	4.167141	0.405169	0.655197	1.478028	-0.212415	-0.131116	0.017323	-0.709473	-0.326904	-0.787109	0.104688	0.010315	0.041729	0.817561	0.166493	-0.510107	0.208963	7.925793	-64.644519	23.655404
63682		10.171716	0.885138	4.570009	0.031748	0.289786	1.369764	-0.236898	-0.178032	0.037710	-0.716797	-0.312744	-0.785400	0.101675	0.008925	0.045780	0.817260	0.165622	-0.511123	0.208348	7.777948	-64.749934	23.668296
63683		10.098668	0.734454	4.899260	-0.201244	-0.010744	1.433848	-0.253633	-0.285495	0.038873	-0.715820	-0.318359	-0.783936	0.100915	0.007426	0.049127	0.816695	0.164791	-0.512595	0.207605	7.636188	-64.916401	23.663912
63684		10.323394	0.468563	5.023009	-0.111987	-0.263615	1.673847	-0.260617	-0.333107	0.043801	-0.721436	-0.312256	-0.781982	0.103149	0.004774	0.050396	0.816005	0.163967	-0.514271	0.206823	7.491018	-65.110338	23.658626
63685		10.455779	0.412221	5.502601	-0.444343	-0.522654	1.989901	-0.257895	-0.320875	0.064173	-0.718262	-0.322754	-0.777588	0.104468	0.004227	0.055188	0.815320	0.163089	-0.515908	0.206141	7.319524	-65.298783	23.684318
63686		10.516805	0.584942	5.583192	-0.618393	-0.401414	2.085783	-0.308280	-0.384250	0.112006	-0.716309	-0.302490	-0.779541	0.105057	0.005995	0.056025	0.814458	0.161948	-0.517892	0.205473	7.067871	-65.526680	23.766485
63687		10.582060	0.688387	5.172975	-0.384770	-0.101461	1.979465	-0.346842	-0.446232	0.178921	-0.727295	-0.302734	-0.775146	0.105699	0.007068	0.051954	0.813392	0.160538	-0.520218	0.204924	6.715947	-65.794215	23.934180
63688		10.337258	0.675442	4.967449	-0.373690	-0.047496	1.669839	-0.326660	-0.456558	0.250109	-0.735107	-0.294922	-0.772217	0.103250	0.006965	0.049899	0.812204	0.159031	-0.522618	0.204705	6.279983	-66.071739	24.205822
63689		9.866828	0.590647	5.055002	-0.638670	-0.227788	1.268651	-0.278054	-0.437651	0.310552	-0.735107	-0.301514	-0.770752	0.098548	0.006130	0.050757	0.810956	0.157546	-0.524934	0.204874	5.783141	-66.341243	24.574257
63690		9.252477	0.334427	5.276089	-0.969783	-0.639478	0.780120	-0.220007	-0.377400	0.360527	-0.739990	-0.290283	-0.772705	0.092419	0.003569	0.052932	0.809762	0.156101	-0.526982	0.205443	5.236665	-66.577798	25.032302
63691		8.573509	0.129144	5.466536	-1.314337	-1.000101	0.221098	-0.166916	-0.285279	0.395034	-0.739258	-0.286377	-0.767578	0.085654	0.001506	0.054786	0.808729	0.154685	-0.528625	0.206363	4.654934	-66.761633	25.561236
63692		8.027446	-0.088203	5.500484	-1.468239	-1.273234	-0.277175	-0.106133	-0.184007	0.421708	-0.750488	-0.283203	-0.767578	0.080225	-0.000684	0.055079	0.807884	0.153338	-0.529813	0.207627	4.053893	-66.886521	26.148172
63693		7.535349	-0.215056	5.540706	-1.641443	-1.461726	-0.718950	-0.035011	-0.119413	0.447518	-0.747070	-0.279541	-0.754639	0.075325	-0.001972	0.055452	0.807124	0.152143	-0.530683	0.209233	3.447668	-66.973084	26.784847
63694		7.314320	-0.358839	5.457853	-1.607009	-1.561744	-0.958616	0.027942	-0.110286	0.476942	-0.757324	-0.279541	-0.769775	0.073121	-0.003422	0.054618	0.806305	0.151113	-0.531471	0.211131	2.832440	-67.052710	27.470121
63695		7.370650	-0.251533	5.221945	-1.478915	-1.324123	-0.996913	0.077465	-0.109958	0.512458	-0.757080	-0.274170	-0.763184	0.073684	-0.002347	0.052259	0.805407	0.150188	-0.532227	0.213303	2.193232	-67.130082	28.211802
63696		7.494635	-0.275393	5.153281	-1.396416	-1.264827	-0.910339	0.074158	-0.132906	0.535547	-0.754395	-0.265869	-0.750977	0.074919	-0.002572	0.051582	0.804419	0.149210	-0.533093	0.215540	1.516702	-67.217637	28.991458
63697		7.892497	-0.506077	5.030291	-1.078810	-1.305418	-0.594047	0.055893	-0.191995	0.549857	-0.761963	-0.270508	-0.757080	0.078890	-0.004858	0.050377	0.803266	0.148184	-0.534223	0.217740	0.805879	-67.335607	29.796372
63698		8.549245	-0.759805	5.013616	-0.755362	-1.364051	0.004228	0.013422	-0.244536	0.523129	-0.765137	-0.256104	-0.753662	0.085451	-0.007378	0.050240	0.802026	0.147115	-0.535586	0.219680	0.099634	-67.479701	30.569371
63699		9.362126	-0.923964	4.878403	-0.339633	-1.258272	0.704114	-0.006669	-0.266155	0.462540	-0.753906	-0.250000	-0.748047	0.093577	-0.009022	0.048909	0.800804	0.146150	-0.537009	0.221304	-0.543278	-67.632816	31.260395
63700		9.854001	-0.819044	4.873451	-0.269497	-1.045781	1.158013	0.001308	-0.180526	0.377457	-0.768799	-0.254150	-0.749756	0.098511	-0.008005	0.048823	0.799896	0.145347	-0.538015	0.222669	-1.069639	-67.734740	31.829379
63701		9.903053	-0.584428	4.793255	-0.335937	-0.775119	1.172465	0.011206	-0.032817	0.276685	-0.768311	-0.245117	-0.758301	0.099031	-0.005710	0.047948	0.799487	0.144693	-0.538344	0.223765	-1.447611	-67.751732	32.244275
63702		9.838633	-0.253155	4.836961	-0.571500	-0.502985	1.127117	0.005708	0.075671	0.214726	-0.766846	-0.238281	-0.757080	0.098407	-0.002427	0.048332	0.799443	0.144059	-0.538200	0.224676	-1.738429	-67.706494	32.561283
63703		9.540676	-0.133910	4.638429	-0.569356	-0.345484	0.775697	-0.017031	0.154187	0.172165	-0.764160	-0.250488	-0.757568	0.095444	-0.001253	0.046311	0.799672	0.143363	-0.537736	0.225413	-1.977319	-67.616693	32.808565
63704		9.192959	0.120180	4.416839	-0.627149	-0.071971	0.367433	-0.012241	0.211303	0.148646	-0.758545	-0.246338	-0.763428	0.091975	0.001273	0.044071	0.800079	0.142680	-0.537020	0.226108	-2.176605	-67.494050	33.015598
63705		8.912928	0.323686	4.147131	-0.594876	0.192576	0.003256	0.022058	0.234791	0.123477	-0.761963	-0.244141	-0.755615	0.089176	0.003287	0.041367	0.800550	0.142180	-0.536154	0.226812	-2.317574	-67.358560	33.181509
63706		8.673329	0.486219	4.100408	-0.702424	0.321850	-0.237754	0.095097	0.264527	0.104710	-0.764893	-0.247803	-0.760254	0.086785	0.004888	0.040892	0.801070	0.141986	-0.535069	0.227656	-2.388070	-67.206072	33.316205
63707		8.580649	0.580614	3.998468	-0.681689	0.445484	-0.363391	0.149211	0.251903	0.078934	-0.760742	-0.242920	-0.769287	0.085854	0.005810	0.039881	0.801544	0.142094	-0.533956	0.228534	-2.391771	-67.061692	33.412563
63708		8.306570	0.574568	3.919192	-0.684299	0.428937	-0.645517	0.227764	0.269510	0.050698	-0.759766	-0.248047	-0.760986	0.083117	0.005722	0.039086	0.802040	0.142569	-0.532660	0.229519	-2.311435	-66.907683	33.466297
63709		8.033134	0.654545	4.112798	-0.943847	0.352607	-0.820494	0.287566	0.296531	0.026985	-0.756348	-0.249756	-0.767822	0.080391	0.006497	0.041018	0.802589	0.143319	-0.531169	0.230587	-2.163632	-66.739014	33.484302
63710		7.989631	0.696469	4.102453	-0.946346	0.386979	-0.862603	0.298108	0.272809	0.011536	-0.760498	-0.257324	-0.769531	0.079952	0.006908	0.040926	0.803082	0.144177	-0.529747	0.231604	-1.991695	-66.584065	33.482449
63711		8.039343	0.556519	3.851668	-0.636133	0.399218	-0.912575	0.295066	0.231766	-0.004147	-0.757324	-0.257568	-0.764160	0.080438	0.005507	0.038432	0.803483	0.145112	-0.528481	0.232519	-1.803449	-66.453120	33.461086
63712		8.170918	0.523960	3.832480	-0.539314	0.407617	-0.797739	0.297718	0.175323	-0.024520	-0.753662	-0.257813	-0.762451	0.081743	0.005173	0.038261	0.803755	0.146178	-0.527420	0.233319	-1.590440	-66.354677	33.414466
63713		8.295369	0.597603	3.696902	-0.414813	0.557639	-0.737760	0.255003	0.101875	-0.030720	-0.751953	-0.268555	-0.771484	0.082973	0.005916	0.036934	0.803869	0.147174	-0.526701	0.233926	-1.397142	-66.298468	33.362492
63714		8.453459	0.597058	3.622370	-0.293150	0.620409	-0.622031	0.225150	0.031865	-0.040878	-0.746826	-0.274414	-0.764160	0.084542	0.005913	0.036217	0.803832	0.148158	-0.526287	0.234362	-1.210290	-66.282241	33.299020
63715		8.712740	0.568637	3.530563	-0.113718	0.688243	-0.420486	0.188650	-0.011703	-0.048147	-0.748779	-0.267578	-0.775391	0.087127	0.005632	0.035316	0.803714	0.149065	-0.526087	0.234640	-1.036104	-66.291157	33.226382
63716		8.842312	0.411075	3.349478	0.158135	0.661607	-0.372787	0.157072	-0.017532	-0.048820	-0.751953	-0.262695	-0.773926	0.088421	0.004063	0.033506	0.803605	0.149855	-0.525944	0.234828	-0.878942	-66.303037	33.152781
63717		8.919839	0.377056	3.248175	0.284789	0.690539	-0.341764	0.141364	0.002413	-0.048411	-0.758545	-0.269531	-0.769531	0.089200	0.003726	0.032483	0.803559	0.150556	-0.525742	0.234991	-0.731081	-66.303705	33.079313
63718		8.912859	0.269374	3.162129	0.411191	0.633121	-0.381846	0.135341	0.008896	-0.033631	-0.751465	-0.274170	-0.769775	0.089130	0.002657	0.031619	0.803518	0.151184	-0.525531	0.235200	-0.606145	-66.300272	33.026808
63719		8.888241	0.192664	3.014551	0.563275	0.630357	-0.463311	0.126321	0.035909	-0.025357	-0.743408	-0.272705	-0.765381	0.088888	0.001896	0.030131	0.803543	0.151725	-0.525229	0.235441	-0.496593	-66.281491	32.985760
63720		8.793749	0.170707	2.918259	0.625346	0.636589	-0.588855	0.121590	0.092539	-0.015135	-0.748047	-0.274902	-0.764893	0.087951	0.001683	0.029143	0.803710	0.152152	-0.524711	0.235753	-0.402569	-66.229936	32.958699
63721		8.690246	0.304197	2.908925	0.538093	0.732487	-0.688617	0.127398	0.165723	-0.019933	-0.755615	-0.282715	-0.765381	0.086927	0.003015	0.029019	0.804067	0.152530	-0.523889	0.236117	-0.298748	-66.136703	32.924556
63722		8.638494	0.465759	2.989254	0.389606	0.822125	-0.705084	0.137110	0.238339	-0.021316	-0.747070	-0.286377	-0.768799	0.086421	0.004628	0.029793	0.804608	0.152866	-0.522761	0.236557	-0.187606	-66.001736	32.888794
63723		8.610188	0.608063	3.086167	0.252088	0.895322	-0.693242	0.131907	0.305095	-0.026815	-0.749756	-0.284668	-0.767822	0.086150	0.006049	0.030734	0.805332	0.153114	-0.521366	0.237010	-0.073167	-65.828605	32.845780
63724		8.557599	0.691823	3.135988	0.178254	0.940118	-0.722591	0.088019	0.353276	-0.029748	-0.744141	-0.287109	-0.775879	0.085632	0.006892	0.031212	0.806216	0.153139	-0.519824	0.237376	0.019179	-65.627741	32.799905
63725		8.438622	0.725874	3.096645	0.177509	0.975071	-0.849201	0.017068	0.357453	-0.026613	-0.731445	-0.281738	-0.776123	0.084442	0.007245	0.030816	0.807159	0.152861	-0.518351	0.237570	0.065664	-65.424559	32.759129
63726		8.376979	0.687626	2.811413	0.421044	1.085613	-1.026633	-0.093273	0.334966	-0.014167	-0.736816	-0.279297	-0.785889	0.083817	0.006883	0.027971	0.808112	0.152133	-0.517107	0.237511	0.033298	-65.234059	32.735687
63727		8.285280	0.762486	2.589623	0.538963	1.253568	-1.206212	-0.185354	0.270315	-0.008779	-0.739014	-0.282471	-0.788086	0.082888	0.007645	0.025777	0.808958	0.151094	-0.516237	0.237185	-0.058495	-65.080818	32.719361
63728		8.164240	1.018513	2.490404	0.448119	1.505567	-1.361254	-0.257613	0.172537	0.005304	-0.731201	-0.282227	-0.780518	0.081664	0.010219	0.024820	0.809589	0.149841	-0.515857	0.236654	-0.208609	-64.983404	32.721592
63729		8.037163	1.133101	2.371796	0.438446	1.643985	-1.529549	-0.336891	0.062357	0.009663	-0.729248	-0.274658	-0.783447	0.080378	0.011375	0.023674	0.809986	0.148387	-0.516020	0.235854	-0.409658	-64.949293	32.729998
63730		7.978967	1.359138	2.653340	0.081576	1.696046	-1.465943	-0.310755	0.003581	0.012305	-0.735840	-0.278564	-0.790039	0.079789	0.013637	0.026511	0.810208	0.147102	-0.516389	0.235088	-0.599069	-64.948725	32.742308
63731		8.099859	1.589541	4.099929	-1.111378	1.231352	-0.746686	-0.196272	-0.020976	0.011604	-0.732666	-0.276367	-0.792236	0.080993	0.015940	0.040992	0.810281	0.146311	-0.516723	0.234596	-0.722656	-64.962323	32.754145
63732		8.213359	1.255869	4.383263	-1.119755	0.847477	-0.524126	-0.303025	-0.092293	0.021100	-0.733398	-0.260986	-0.791260	0.082112	0.012634	0.043851	0.810236	0.145147	-0.517476	0.233815	-0.919999	-65.016539	32.780102
63733		8.671557	0.665109	3.484379	0.037137	0.887687	-0.485855	-0.226420	-0.066903	0.029305	-0.730957	-0.266357	-0.789795	0.086703	0.006703	0.034865	0.810189	0.144240	-0.518043	0.233283	-1.083843	-65.056240	32.817284
63734		8.880410	0.788129	3.924211	-0.296488	0.836170	-0.112421	-0.005146	0.059019	0.025745	-0.734863	-0.272705	-0.789063	0.088815	0.007894	0.039216	0.810314	0.144090	-0.517838	0.233397	-1.113643	-65.023641	32.846085
63735		9.121200	0.810233	4.360998	-0.553123	0.705081	0.290182	0.129662	0.099601	0.009422	-0.739014	-0.265381	-0.782715	0.091233	0.008078	0.043570	0.810464	0.144484	-0.517299	0.233826	-1.045245	-64.968152	32.852137
63736		9.066467	0.219000	3.957976	0.062772	0.383002	0.074866	0.155378	0.131054	-0.005896	-0.734863	-0.263672	-0.792236	0.090691	0.002157	0.039522	0.810694	0.144985	-0.516592	0.234282	-0.942526	-64.894780	32.836799
63737		8.724310	-0.660857	3.025364	1.135120	0.003077	-0.624944	0.121540	0.055489	-0.001042	-0.728271	-0.264648	-0.783936	0.087251	-0.006627	0.030225	0.810747	0.145424	-0.516234	0.234616	-0.867179	-64.864665	32.830043
63738		9.123674	-0.925201	2.027093	2.185282	0.345687	-0.685170	0.039822	-0.093749	0.010913	-0.734619	-0.271973	-0.792480	0.091228	-0.009251	0.020312	0.810461	0.145675	-0.516585	0.234676	-0.856026	-64.919855	32.842165
63739		9.603955	-1.124189	1.428063	2.911005	0.569283	-0.499199	-0.121121	-0.161224	0.027327	-0.742432	-0.266846	-0.788330	0.096030	-0.011220	0.014365	0.810097	0.145311	-0.517410	0.234340	-0.958697	-65.013634	32.878439
63740		9.818795	-1.133311	1.550286	2.877549	0.546879	-0.246230	-0.248318	-0.223750	0.046157	-0.738525	-0.263428	-0.786133	0.098173	-0.011291	0.015627	0.809640	0.144456	-0.518650	0.233704	-1.159451	-65.142979	32.942412
63741		10.036912	-0.767851	3.080039	1.552929	0.172885	0.597610	-0.202473	-0.251253	0.051522	-0.740967	-0.261230	-0.791016	0.100332	-0.007621	0.030934	0.809070	0.143805	-0.519950	0.233189	-1.342782	-65.287932	33.016116
63742		10.434600	0.030604	4.682018	-0.001543	0.174829	1.622890	-0.181462	-0.298391	0.048013	-0.735352	-0.253418	-0.778320	0.104276	0.000374	0.046975	0.808365	0.143301	-0.521413	0.232678	-1.512640	-65.459827	33.087834
63743		11.266907	0.304819	3.801071	0.791919	1.010459	2.012539	-0.334968	-0.267674	0.043595	-0.744141	-0.252686	-0.783691	0.112617	0.003137	0.038156	0.807851	0.142153	-0.522925	0.231772	-1.765652	-65.614102	33.154501
63744		11.482579	0.217932	2.497927	1.904470	1.603227	1.673801	-0.373202	-0.041143	0.020224	-0.747070	-0.248535	-0.782959	0.114820	0.002238	0.024999	0.807982	0.140646	-0.523548	0.230828	-2.003489	-65.638976	33.179874
63745		10.488468	0.607486	2.921147	1.026453	1.523896	0.935997	-0.341506	0.106505	-0.005644	-0.740479	-0.253906	-0.788818	0.104900	0.006122	0.029145	0.808503	0.139166	-0.523517	0.229969	-2.183697	-65.579813	33.162451
63746		9.497505	0.852154	3.953938	-0.249429	1.041174	0.454548	-0.358038	0.011906	-0.024216	-0.738037	-0.254883	-0.786133	0.094978	0.008581	0.039518	0.808807	0.137775	-0.523874	0.228923	-2.354306	-65.575276	33.123688
63747		9.000566	0.834875	4.535244	-0.879115	0.652896	0.240993	-0.330038	-0.160555	-0.022473	-0.733887	-0.247559	-0.785889	0.089970	0.008414	0.045411	0.808635	0.136692	-0.524895	0.227840	-2.520252	-65.669442	33.097822
63748		9.103161	0.690932	5.334435	-1.424524	0.182026	0.662933	-0.234193	-0.328465	-0.028552	-0.746094	-0.245850	-0.782227	0.090945	0.006959	0.053486	0.807961	0.136202	-0.526479	0.226867	-2.633111	-65.859833	33.073880
63749		9.228762	0.526938	6.161483	-1.987157	-0.325321	1.112366	-0.161532	-0.419208	-0.075309	-0.744385	-0.244385	-0.782471	0.092160	0.005285	0.061804	0.807047	0.136232	-0.528313	0.225835	-2.650330	-66.103472	32.990960
63750		9.337238	0.267406	6.670177	-2.260526	-0.786991	1.413051	-0.082270	-0.469016	-0.182896	-0.743896	-0.241699	-0.767090	0.093218	0.002616	0.066919	0.806065	0.136920	-0.530182	0.224540	-2.483254	-66.378315	32.756235
63751		9.659629	-0.295292	6.648998	-1.883634	-1.238965	1.699105	0.008958	-0.456961	-0.342333	-0.756836	-0.239502	-0.771484	0.096439	-0.003121	0.066710	0.805225	0.138385	-0.531787	0.222854	-2.047321	-66.649391	32.286079
63752		9.768224	-0.990372	6.519923	-1.409407	-1.818962	1.746421	0.091305	-0.322805	-0.526521	-0.756348	-0.246582	-0.773438	0.097550	-0.010190	0.065352	0.804884	0.140518	-0.532629	0.220733	-1.302226	-66.844802	31.531181
63753		9.314413	-1.402873	6.142289	-1.044268	-2.162630	1.173039	0.056028	-0.110131	-0.702376	-0.762207	-0.263428	-0.775879	0.093060	-0.014373	0.061470	0.805317	0.142743	-0.532524	0.217960	-0.325983	-66.915277	30.504151
63754		8.117739	-1.468533	5.734265	-1.061245	-2.329926	-0.097704	-0.027940	0.114278	-0.829411	-0.753662	-0.253906	-0.767578	0.081148	-0.015014	0.057298	0.806536	0.144721	-0.531507	0.214607	0.774481	-66.849485	29.289461
63755		7.047151	-1.197615	5.376448	-1.241029	-2.183975	-1.228245	-0.144800	0.218320	-0.892255	-0.755127	-0.262451	-0.775146	0.070476	-0.012252	0.053696	0.808166	0.146281	-0.530141	0.210763	1.880069	-66.714175	27.995730
63756		6.692781	-0.808304	4.960473	-1.190604	-1.760106	-1.717180	-0.223609	0.195674	-0.909902	-0.756592	-0.266357	-0.777832	0.066939	-0.008332	0.049548	0.809794	0.147585	-0.528925	0.206615	2.950749	-66.581749	26.688796
63757		6.857160	-0.302060	4.681247	-1.124621	-1.199526	-1.668848	-0.260729	0.162040	-0.885488	-0.747070	-0.276611	-0.777832	0.068595	-0.003263	0.046761	0.811317	0.148710	-0.527889	0.202440	3.958316	-66.460023	25.426970
63758		6.931528	0.143309	4.454005	-1.098941	-0.729056	-1.678476	-0.277291	0.172170	-0.830315	-0.734375	-0.275391	-0.779053	0.069359	0.001207	0.044479	0.812807	0.149606	-0.526860	0.198447	4.870807	-66.326604	24.256773
63759		7.806963	0.573017	4.804272	-1.230965	-0.401252	-0.719746	-0.237077	0.079135	-0.748540	-0.752197	-0.280762	-0.773682	0.078109	0.005495	0.048005	0.813925	0.150543	-0.526220	0.194822	5.701656	-66.243402	23.200490
63760		9.630421	1.117028	5.138488	-1.054940	0.175400	1.107613	-0.211087	-0.062309	-0.614853	-0.746826	-0.284424	-0.780518	0.096322	0.010928	0.051403	0.814510	0.151366	-0.526225	0.191698	6.388573	-66.243397	22.316899
63761		11.669472	1.312219	5.108669	-0.347365	0.628474	2.973288	-0.185488	-0.124368	-0.454594	-0.733887	-0.279297	-0.784424	0.116692	0.012904	0.051147	0.814753	0.151933	-0.526574	0.189247	6.893497	-66.285472	21.648777
63762		12.205786	1.022332	4.686715	0.338920	0.604222	3.283558	-0.113322	-0.024775	-0.304462	-0.741211	-0.288574	-0.781250	0.122067	0.010064	0.046877	0.815058	0.152299	-0.526561	0.187669	7.229858	-66.279491	21.209175
63763		11.715270	0.518600	4.465551	0.582928	0.162369	2.720924	0.052710	0.055405	-0.193206	-0.735596	-0.290527	-0.786865	0.117170	0.005061	0.044624	0.815340	0.152978	-0.526148	0.187046	7.504515	-66.235205	20.941671
63764		10.997957	0.183218	4.481816	0.476917	-0.259761	2.052401	0.198275	0.135629	-0.108985	-0.734863	-0.298340	-0.782715	0.110011	0.001728	0.044745	0.815644	0.153951	-0.525336	0.187207	7.738805	-66.151174	20.808805
63765		10.430398	-0.153720	4.746432	0.233470	-0.765801	1.619917	0.271053	0.182111	-0.043910	-0.731201	-0.296631	-0.777588	0.104347	-0.001624	0.047367	0.815949	0.155009	-0.524315	0.187863	7.922377	-66.045754	20.777436
63766		9.788104	-0.509866	4.771656	0.165658	-1.184738	1.022649	0.242143	0.261386	0.001950	-0.727295	-0.293457	-0.778809	0.097943	-0.005155	0.047582	0.816440	0.155754	-0.523031	0.188691	8.016203	-65.898879	20.826089
63767		9.070329	-0.748246	4.804936	0.009913	-1.507497	0.367951	0.197102	0.319601	0.022781	-0.733154	-0.293457	-0.779053	0.090781	-0.007519	0.047897	0.817096	0.156205	-0.521567	0.189531	8.047464	-65.720750	20.915174
63768		8.355998	-0.740027	4.626599	-0.094212	-1.512711	-0.353380	0.130891	0.357963	0.043774	-0.727783	-0.303711	-0.792480	0.083644	-0.007412	0.046111	0.817881	0.156291	-0.520025	0.190312	8.007900	-65.522572	21.039981
63769		7.705053	-0.613320	4.491614	-0.269321	-1.421140	-0.990764	0.065016	0.366852	0.073550	-0.721680	-0.294189	-0.781250	0.077135	-0.006119	0.044773	0.818708	0.156024	-0.518529	0.191051	7.894303	-65.321602	21.205410
63770		7.465734	-0.484997	4.313420	-0.259894	-1.245184	-1.271031	-0.013740	0.291688	0.112405	-0.718262	-0.297607	-0.791748	0.074723	-0.004805	0.043026	0.819364	0.155403	-0.517445	0.191685	7.702495	-65.166032	21.407184
63771		7.405905	-0.498044	4.173605	-0.153383	-1.182642	-1.381066	-0.067875	0.211149	0.148170	-0.719238	-0.303955	-0.794678	0.074107	-0.004911	0.041660	0.819817	0.154547	-0.516770	0.192263	7.451715	-65.058688	21.640316
63772		7.288478	-0.514930	3.960230	-0.016917	-1.099333	-1.574870	-0.109296	0.155407	0.158409	-0.713867	-0.299561	-0.797607	0.072920	-0.005070	0.039548	0.820147	0.153547	-0.516368	0.192732	7.175282	-64.983081	21.875583
63773		7.376354	-0.520761	3.745249	0.191795	-0.975837	-1.583495	-0.087756	0.103211	0.146812	-0.722900	-0.299561	-0.793701	0.073787	-0.005137	0.037417	0.820335	0.152717	-0.516152	0.193170	6.934595	-64.936127	22.085292
63774		7.833207	-0.214153	3.959487	0.055584	-0.715167	-1.062375	-0.066084	0.044762	0.142690	-0.715332	-0.295166	-0.796631	0.078342	-0.002073	0.039578	0.820360	0.152042	-0.516150	0.193602	6.720510	-64.921582	22.279431
63775		8.042991	-0.345815	3.834025	0.294125	-0.728602	-0.930590	-0.074262	-0.008327	0.126244	-0.720215	-0.297119	-0.800293	0.080430	-0.003393	0.038345	0.820269	0.151427	-0.516361	0.193905	6.529361	-64.936084	22.443037
63776		8.252896	-0.383503	3.697434	0.494840	-0.658900	-0.798845	-0.001355	-0.045171	0.091089	-0.718018	-0.292236	-0.805420	0.082522	-0.003797	0.036993	0.820063	0.151238	-0.516625	0.194224	6.427581	-64.968848	22.554011
63777		8.627040	-0.197015	3.745637	0.507237	-0.452596	-0.430135	0.021019	-0.055328	0.074951	-0.729736	-0.292725	-0.792725	0.086261	-0.001942	0.037480	0.819827	0.151192	-0.516898	0.194527	6.359527	-65.006560	22.641947
63778		8.703838	-0.085050	3.639746	0.561414	-0.291957	-0.399326	0.034432	-0.032072	0.066115	-0.721680	-0.293701	-0.803223	0.087033	-0.000828	0.036411	0.819651	0.151199	-0.517055	0.194846	6.306266	-65.030268	22.721810
63779		8.698668	-0.056011	3.486416	0.663824	-0.195466	-0.466769	0.048202	0.016387	0.062055	-0.724121	-0.288818	-0.800049	0.086990	-0.000542	0.034857	0.819593	0.151228	-0.516998	0.195220	6.259598	-65.026255	22.803307
63780		8.672066	0.124375	3.425150	0.617072	-0.009123	-0.508334	0.047358	0.060833	0.063790	-0.716064	-0.297119	-0.795654	0.086731	0.001263	0.034225	0.819649	0.151203	-0.516760	0.195632	6.204042	-64.996752	22.893693
