// General information: 
//  MT Manager version: 2021.4.0 
//  XDA version: 2021.4.0 build 6323 rev 112641 built on 2021-09-28
// Device information: 
//  DeviceId: 00B47793
//  ProductCode: MTW2-3A7G6
//  Firmware Version: 4.6.0
//  Hardware Version: 2.0.0
// Device settings: 
//  Filter Profile: human(46.1)
//  Option Flags: Orientation Smoother Disabled, Position/Velocity Smoother Disabled, Continuous Zero Rotation Update Disabled, AHS Disabled, ICC Disabled
// Coordinate system: ENU
PacketCounter	SampleTimeFine	Acc_X	Acc_Y	Acc_Z	FreeAcc_E	FreeAcc_N	FreeAcc_U	Gyr_X	Gyr_Y	Gyr_Z	Mag_X	Mag_Y	Mag_Z	VelInc_X	VelInc_Y	VelInc_Z	Quat_q0	Quat_q1	Quat_q2	Quat_q3	Roll	Pitch	Yaw
30889		5.016380	-2.781282	8.028502	-0.022654	-0.010192	0.054218	0.003024	-0.000628	-0.009699	-0.838623	0.599121	-0.706055	0.050162	-0.027816	0.080285	0.324513	-0.300185	0.048357	-0.895680	-19.049695	-30.421231	-134.944092
30890		4.994862	-2.794591	8.005786	-0.029878	0.010944	0.028551	0.003528	-0.002077	-0.008127	-0.837402	0.606689	-0.702637	0.049947	-0.027949	0.080058	0.324510	-0.300185	0.048357	-0.895681	-19.049535	-30.421325	-134.944424
30891		4.971338	-2.752676	8.055937	0.035989	-0.002059	0.045723	0.004369	-0.000201	-0.012943	-0.843262	0.600830	-0.703613	0.049712	-0.027532	0.080559	0.324492	-0.300175	0.048348	-0.895691	-19.047197	-30.421068	-134.947573
30892		4.983754	-2.772311	8.030913	0.003242	0.003297	0.037138	0.005937	-0.004538	-0.006631	-0.831299	0.599854	-0.706543	0.049835	-0.027727	0.080309	0.324501	-0.300182	0.048334	-0.895686	-19.046403	-30.422214	-134.946432
30893		4.979556	-2.805021	8.056148	0.002057	0.034496	0.064785	0.005377	-0.003100	-0.009798	-0.833984	0.601318	-0.694336	0.049793	-0.028055	0.080562	0.324497	-0.300182	0.048321	-0.895688	-19.044675	-30.422931	-134.947330
30894		4.964548	-2.784264	8.032550	0.009093	0.024992	0.032109	0.004481	-0.000180	-0.009753	-0.828369	0.608398	-0.702881	0.049644	-0.027847	0.080325	0.324488	-0.300172	0.048316	-0.895695	-19.043243	-30.422301	-134.949094
30895		4.985007	-2.769834	8.030990	0.003600	0.000947	0.037138	0.003585	-0.002066	-0.006532	-0.840088	0.600342	-0.700684	0.049848	-0.027701	0.080310	0.324507	-0.300171	0.048317	-0.895689	-19.043908	-30.421778	-134.946619
30896		4.985433	-2.769265	8.030921	0.003733	0.000194	0.037138	0.000556	-0.002985	-0.009617	-0.835693	0.595703	-0.706787	0.049852	-0.027695	0.080310	0.324494	-0.300181	0.048326	-0.895690	-19.045077	-30.422641	-134.947690
30897		4.999492	-2.788917	8.030188	-0.016061	0.006864	0.049188	0.003137	-0.000607	-0.006510	-0.836670	0.597900	-0.699707	0.049994	-0.027892	0.080302	0.324496	-0.300173	0.048332	-0.895691	-19.045343	-30.421494	-134.947659
30898		4.954145	-2.761276	8.057481	0.042468	0.015807	0.040695	0.002966	-0.005445	-0.008121	-0.832275	0.593994	-0.695801	0.049538	-0.027616	0.080576	0.324493	-0.300189	0.048328	-0.895687	-19.045877	-30.423409	-134.947257
30899		4.984984	-2.767794	8.006399	-0.008901	-0.003383	0.016508	0.003080	-0.000618	-0.008106	-0.833984	0.595459	-0.708740	0.049848	-0.027681	0.080064	0.324487	-0.300182	0.048333	-0.895691	-19.045789	-30.422653	-134.948244
30900		5.000802	-2.786968	8.030049	-0.015673	0.004599	0.049190	0.003976	-0.003537	-0.008151	-0.833252	0.601563	-0.701416	0.050005	-0.027873	0.080301	0.324486	-0.300188	0.048328	-0.895690	-19.045525	-30.423541	-134.948274
30901		4.969153	-2.779435	8.056679	0.022906	0.020942	0.052751	0.003528	-0.002077	-0.008129	-0.833984	0.593262	-0.698486	0.049690	-0.027798	0.080567	0.324488	-0.300186	0.048326	-0.895690	-19.045221	-30.423310	-134.948197
30902		4.966117	-2.779544	8.007911	-0.002941	0.017564	0.011492	0.000613	-0.002974	-0.008023	-0.829834	0.603516	-0.697021	0.049659	-0.027798	0.080080	0.324482	-0.300195	0.048337	-0.895689	-19.046863	-30.423869	-134.948268
30903		5.002056	-2.785040	8.029937	-0.015339	0.002284	0.049192	0.004481	-0.000180	-0.009755	-0.832275	0.600342	-0.701172	0.050019	-0.027855	0.080299	0.324477	-0.300184	0.048333	-0.895694	-19.045525	-30.423075	-134.949584
30904		4.990407	-2.763778	8.055032	0.017678	-0.004570	0.057766	0.001566	-0.001078	-0.009649	-0.836182	0.603027	-0.700928	0.049902	-0.027641	0.080550	0.324464	-0.300184	0.048340	-0.895699	-19.045896	-30.422911	-134.951088
30905		4.992572	-2.762769	8.079344	0.030787	-0.004052	0.078395	0.003976	-0.003537	-0.008152	-0.839844	0.593994	-0.694580	0.049923	-0.027631	0.080794	0.324469	-0.300188	0.048335	-0.895695	-19.045751	-30.423578	-134.950342
30906		4.923821	-2.805100	7.962466	-0.017195	0.058328	-0.039778	0.001287	0.000415	-0.004840	-0.836182	0.602783	-0.705566	0.049238	-0.028053	0.079624	0.324478	-0.300180	0.048353	-0.895694	-19.047647	-30.421706	-134.949149
30907		4.961139	-2.754966	8.105938	0.069546	0.011566	0.081958	0.001005	-0.004446	-0.009641	-0.830811	0.606689	-0.702393	0.049608	-0.027552	0.081060	0.324462	-0.300195	0.048358	-0.895694	-19.048701	-30.423338	-134.950294
30908		5.017757	-2.802198	8.029054	-0.034589	0.005877	0.061252	0.003977	-0.003536	-0.008152	-0.841309	0.603027	-0.696777	0.050175	-0.028026	0.080291	0.324461	-0.300201	0.048353	-0.895693	-19.048437	-30.424226	-134.950325
30909		4.956952	-2.754647	8.032724	0.030849	0.006094	0.020070	0.003528	-0.002077	-0.008130	-0.835205	0.615967	-0.702148	0.049568	-0.027550	0.080327	0.324466	-0.300201	0.048353	-0.895691	-19.048562	-30.424160	-134.949618
30910		4.988359	-2.793608	8.079974	0.017174	0.022754	0.085450	0.004425	-0.004996	-0.008175	-0.837158	0.601074	-0.698730	0.049880	-0.027940	0.080800	0.324466	-0.300213	0.048343	-0.895688	-19.048194	-30.425842	-134.949346
30911		4.987089	-2.793301	8.055561	0.004329	0.020626	0.064823	0.003642	-0.002054	-0.004939	-0.830811	0.605469	-0.701416	0.049869	-0.027936	0.080556	0.324490	-0.300212	0.048346	-0.895679	-19.049385	-30.425103	-134.946016
30912		5.005753	-2.779519	8.029546	-0.014136	-0.004661	0.049193	0.000278	-0.001493	-0.004809	-0.833740	0.598877	-0.698486	0.050056	-0.027797	0.080296	0.324498	-0.300214	0.048366	-0.895675	-19.052079	-30.424260	-134.944390
30913		4.985932	-2.792809	8.031143	-0.008412	0.017769	0.044197	0.003585	-0.002066	-0.006535	-0.840820	0.593018	-0.703369	0.049858	-0.027931	0.080311	0.324510	-0.300213	0.048367	-0.895671	-19.052549	-30.423799	-134.942733
30914		4.987994	-2.791986	8.055456	0.004712	0.018316	0.064827	0.000221	-0.001505	-0.006405	-0.836426	0.600342	-0.692627	0.049878	-0.027922	0.080555	0.324511	-0.300215	0.048385	-0.895669	-19.054769	-30.423259	-134.942107
30915		5.006782	-2.778071	8.029406	-0.013746	-0.006955	0.049192	0.003977	-0.003536	-0.008153	-0.832031	0.601563	-0.702148	0.050065	-0.027784	0.080294	0.324502	-0.300221	0.048381	-0.895670	-19.054459	-30.424223	-134.943031
30916		4.973354	-2.770890	8.031728	0.011885	0.008134	0.032135	0.005042	-0.001616	-0.006588	-0.831543	0.597168	-0.694336	0.049732	-0.027713	0.080317	0.324509	-0.300216	0.048377	-0.895670	-19.053872	-30.423779	-134.942496
30917		4.972011	-2.770456	8.007403	-0.000988	0.006054	0.011506	0.003414	-0.002100	-0.011322	-0.834229	0.594482	-0.703369	0.049718	-0.027709	0.080074	0.324496	-0.300217	0.048372	-0.895674	-19.052853	-30.424300	-134.944323
30918		4.954072	-2.783079	8.033381	0.017737	0.029834	0.027148	0.003528	-0.002077	-0.008131	-0.837646	0.603271	-0.697754	0.049539	-0.027834	0.080334	0.324494	-0.300217	0.048371	-0.895675	-19.052693	-30.424393	-134.944656
30919		4.986511	-2.789108	8.006761	-0.020635	0.011926	0.023576	0.004479	-0.000180	-0.009758	-0.831543	0.596680	-0.690674	0.049864	-0.027895	0.080067	0.324485	-0.300206	0.048367	-0.895682	-19.051245	-30.423656	-134.946509
30920		5.008753	-2.774071	8.029559	-0.013108	-0.010767	0.049189	0.006834	-0.002649	-0.009857	-0.834961	0.595703	-0.690430	0.050085	-0.027746	0.080295	0.324480	-0.300204	0.048348	-0.895686	-19.048704	-30.424381	-134.947802
30921		4.988964	-2.786883	8.031318	-0.007344	0.011709	0.044207	0.006050	0.000293	-0.006620	-0.836182	0.595947	-0.699219	0.049889	-0.027873	0.080312	0.324483	-0.300190	0.048344	-0.895689	-19.047505	-30.423021	-134.948078
30922		4.995509	-2.752152	8.030543	0.007089	-0.019660	0.037117	0.004029	0.001279	-0.009736	-0.833740	0.606934	-0.702393	0.049954	-0.027526	0.080305	0.324474	-0.300175	0.048345	-0.895698	-19.046179	-30.421597	-134.950148
30923		4.991086	-2.785078	8.055932	0.005903	0.011463	0.064837	0.001679	-0.001056	-0.006459	-0.831543	0.602783	-0.705078	0.049910	-0.027853	0.080559	0.324480	-0.300172	0.048356	-0.895696	-19.047585	-30.420648	-134.949137
30924		4.979246	-2.764028	8.081051	0.038927	0.004622	0.073393	0.002180	0.002300	-0.008064	-0.839844	0.604492	-0.697998	0.049792	-0.027643	0.080810	0.324475	-0.300155	0.048369	-0.895703	-19.047738	-30.418358	-134.950377
30925		4.989703	-2.784481	8.031692	-0.006835	0.008626	0.044210	0.000728	-0.002954	-0.004832	-0.843262	0.601807	-0.694580	0.049895	-0.027846	0.080318	0.324490	-0.300162	0.048384	-0.895694	-19.050476	-30.418114	-134.947659
30926		4.991763	-2.783743	8.055975	0.006293	0.009161	0.064839	0.001679	-0.001056	-0.006460	-0.835205	0.608154	-0.697998	0.049916	-0.027840	0.080560	0.324492	-0.300160	0.048396	-0.895694	-19.051795	-30.417342	-134.947164
30927		4.990244	-2.783724	8.031618	-0.006530	0.007090	0.044212	-0.000228	-0.000047	-0.006383	-0.835205	0.599854	-0.698242	0.049902	-0.027839	0.080316	0.324493	-0.300158	0.048419	-0.895692	-19.054456	-30.416050	-134.946400
30928		4.990485	-2.783405	8.031579	-0.006397	0.006337	0.044212	0.000222	-0.001506	-0.006406	-0.832275	0.602783	-0.696045	0.049903	-0.027836	0.080316	0.324494	-0.300161	0.048437	-0.895690	-19.056677	-30.415512	-134.945774
30929		4.992532	-2.782609	8.055890	0.006736	0.006836	0.064841	0.001622	-0.001068	-0.008056	-0.835449	0.600586	-0.695068	0.049924	-0.027829	0.080559	0.324492	-0.300159	0.048447	-0.895691	-19.057697	-30.414937	-134.945784
30930		4.991111	-2.782595	8.031471	-0.006127	0.004799	0.044213	-0.001235	-0.001956	-0.006352	-0.830078	0.596436	-0.706299	0.049909	-0.027827	0.080315	0.324491	-0.300166	0.048470	-0.895688	-19.060819	-30.414633	-134.945026
30931		4.971483	-2.796058	8.032921	-0.000436	0.027268	0.039249	-0.000393	-0.004886	-0.007993	-0.830078	0.594238	-0.701172	0.049712	-0.027962	0.080330	0.324485	-0.300184	0.048483	-0.895683	-19.063214	-30.416025	-134.944490
30932		4.979947	-2.761423	8.056209	0.027004	-0.002808	0.052762	-0.000735	0.001400	-0.007957	-0.835205	0.596191	-0.695801	0.049799	-0.027616	0.080562	0.324477	-0.300175	0.048507	-0.895688	-19.065170	-30.414203	-134.945468
30933		4.972087	-2.795389	8.032779	-0.000197	0.025762	0.039253	0.000729	-0.002954	-0.004833	-0.826172	0.591553	-0.701172	0.049719	-0.027955	0.080328	0.324482	-0.300181	0.048523	-0.895683	-19.067646	-30.414052	-134.943967
30934		4.977113	-2.761453	8.007343	0.001252	-0.006871	0.011506	0.000614	-0.002977	-0.008025	-0.833252	0.601074	-0.707520	0.049769	-0.027617	0.080074	0.324476	-0.300190	0.048534	-0.895682	-19.069288	-30.414613	-134.944038
30935		4.985026	-2.815070	8.007459	-0.032896	0.030316	0.030712	0.003085	-0.005421	-0.004932	-0.837891	0.600342	-0.700684	0.049847	-0.028153	0.080076	0.324491	-0.300202	0.048533	-0.895672	-19.070540	-30.415562	-134.941401
30936		4.958022	-2.774312	8.008675	0.007033	0.014853	0.006549	0.000671	-0.002965	-0.006429	-0.834229	0.606201	-0.701416	0.049578	-0.027745	0.080087	0.324493	-0.300210	0.048547	-0.895668	-19.072656	-30.415817	-134.940472
30937		4.987788	-2.813802	8.031494	-0.019642	0.030053	0.051344	0.003028	-0.005433	-0.006528	-0.838135	0.599121	-0.701660	0.049875	-0.028141	0.080316	0.324502	-0.300225	0.048545	-0.895660	-19.073786	-30.417275	-134.938515
30938		5.001018	-2.745442	8.029411	0.009127	-0.031896	0.037083	0.000614	-0.002977	-0.008025	-0.836914	0.606689	-0.703125	0.050008	-0.027457	0.080295	0.324496	-0.300234	0.048556	-0.895659	-19.075428	-30.417836	-134.938586
30939		4.975100	-2.792665	8.031861	0.000510	0.021172	0.039264	0.001064	-0.004436	-0.008048	-0.839355	0.601807	-0.701172	0.049748	-0.027929	0.080320	0.324493	-0.300248	0.048563	-0.895654	-19.077026	-30.419052	-134.938041
30940		4.995805	-2.778176	8.030083	-0.004937	-0.002828	0.044215	0.005828	-0.004555	-0.009829	-0.830566	0.604736	-0.702881	0.049955	-0.027787	0.080301	0.324487	-0.300256	0.048545	-0.895655	-19.075281	-30.420805	-134.938901
30941		4.979731	-2.790389	8.080396	0.026754	0.022174	0.080521	0.003528	-0.002076	-0.008134	-0.829346	0.601563	-0.699463	0.049795	-0.027907	0.080804	0.324490	-0.300255	0.048544	-0.895654	-19.075214	-30.420687	-134.938548
30942		4.974987	-2.790763	8.007286	-0.012109	0.017608	0.018642	0.004428	-0.004994	-0.008179	-0.836914	0.609375	-0.695068	0.049747	-0.027911	0.080073	0.324490	-0.300267	0.048535	-0.895651	-19.074844	-30.422369	-134.938277
30943		4.977192	-2.789689	8.031599	0.001035	0.018072	0.039270	0.003077	-0.000618	-0.008111	-0.839355	0.603760	-0.700195	0.049771	-0.027900	0.080316	0.324495	-0.300261	0.048538	-0.895651	-19.075114	-30.421503	-134.937708
30944		4.993065	-2.808766	8.055286	-0.005734	0.025928	0.071988	0.003470	-0.002088	-0.009730	-0.830811	0.600586	-0.697998	0.049928	-0.028091	0.080553	0.324486	-0.300262	0.048536	-0.895654	-19.074480	-30.421901	-134.939042
30945		4.982535	-2.754698	8.006298	0.002626	-0.015317	0.011496	0.003528	-0.002076	-0.008134	-0.832520	0.597656	-0.703369	0.049823	-0.027550	0.080063	0.324487	-0.300262	0.048535	-0.895654	-19.074447	-30.421880	-134.938975
30946		4.992126	-2.807720	8.030928	-0.018470	0.023123	0.051365	0.003528	-0.002076	-0.008134	-0.836426	0.600830	-0.700684	0.049919	-0.028081	0.080309	0.324484	-0.300262	0.048534	-0.895655	-19.074287	-30.421973	-134.939310
30947		4.978875	-2.786846	8.031543	0.001533	0.015020	0.039275	0.002407	-0.004011	-0.011295	-0.837402	0.592285	-0.693604	0.049786	-0.027872	0.080316	0.324467	-0.300272	0.048531	-0.895658	-19.073904	-30.423531	-134.941198
30948		4.965545	-2.765834	8.032254	0.021566	0.006934	0.027184	0.007955	-0.000711	-0.006701	-0.836182	0.604736	-0.702148	0.049654	-0.027663	0.080322	0.324477	-0.300258	0.048515	-0.895659	-19.071512	-30.422616	-134.940929
30949		4.999727	-2.771174	8.030061	-0.003769	-0.009738	0.044211	0.006326	-0.001199	-0.011436	-0.834717	0.604248	-0.704346	0.049995	-0.027717	0.080300	0.324461	-0.300251	0.048499	-0.895669	-19.068615	-30.422866	-134.943984
30950		5.027658	-2.810622	8.028750	-0.043437	0.004169	0.068399	0.001563	-0.001081	-0.009654	-0.839111	0.599854	-0.702881	0.050275	-0.028109	0.080288	0.324448	-0.300250	0.048507	-0.895673	-19.068987	-30.422704	-134.945490
30951		4.974118	-2.817359	8.032751	-0.012292	0.042571	0.046445	0.005493	-0.003072	-0.006615	-0.833740	0.602539	-0.697754	0.049739	-0.028177	0.080327	0.324458	-0.300249	0.048498	-0.895670	-19.068286	-30.422875	-134.944401
30952		4.980840	-2.782600	8.031797	0.002174	0.011236	0.039280	0.004927	-0.001638	-0.009786	-0.839111	0.601074	-0.698242	0.049806	-0.027830	0.080318	0.324450	-0.300246	0.048489	-0.895675	-19.066750	-30.423040	-134.945868
30953		4.982919	-2.781392	8.056232	0.015318	0.011721	0.059907	0.004533	-0.000167	-0.008167	-0.837646	0.601318	-0.696289	0.049828	-0.027818	0.080562	0.324450	-0.300236	0.048488	-0.895678	-19.065943	-30.422066	-134.946456
30954		4.969438	-2.760460	8.056998	0.035352	0.003644	0.047810	0.004984	-0.001625	-0.008190	-0.842773	0.598877	-0.697998	0.049693	-0.027609	0.080570	0.324449	-0.300232	0.048481	-0.895680	-19.064880	-30.421925	-134.946924
30955		4.981931	-2.780336	8.031905	0.002606	0.008962	0.039282	0.001066	-0.004439	-0.008049	-0.835449	0.598389	-0.697266	0.049816	-0.027806	0.080320	0.324439	-0.300247	0.048490	-0.895678	-19.066507	-30.423399	-134.947291
30956		4.966817	-2.760011	8.008167	0.009638	-0.000366	0.006558	0.003076	-0.000618	-0.008113	-0.840576	0.599854	-0.701904	0.049667	-0.027603	0.080081	0.324436	-0.300241	0.048493	-0.895681	-19.066451	-30.422699	-134.947929
30957		4.996478	-2.799235	8.031183	-0.017034	0.014776	0.051384	0.003528	-0.002077	-0.008136	-0.840332	0.599854	-0.695801	0.049963	-0.027996	0.080312	0.324430	-0.300241	0.048494	-0.895683	-19.066278	-30.422784	-134.948705
30958		5.003221	-2.764494	8.030187	-0.002561	-0.016553	0.044202	0.005378	-0.003096	-0.009809	-0.831787	0.593262	-0.701904	0.050030	-0.027650	0.080302	0.324423	-0.300243	0.048480	-0.895686	-19.064636	-30.423743	-134.949871
30959		4.983584	-2.777525	8.031852	0.003121	0.005959	0.039285	0.003585	-0.002064	-0.006540	-0.825684	0.602783	-0.703613	0.049834	-0.027778	0.080319	0.324423	-0.300242	0.048483	-0.895686	-19.064865	-30.423513	-134.949841
30960		4.985732	-2.776546	8.056163	0.016256	0.006457	0.059911	0.002071	-0.002529	-0.008081	-0.838867	0.603271	-0.696777	0.049855	-0.027768	0.080562	0.324419	-0.300247	0.048488	-0.895686	-19.065605	-30.423841	-134.950045
30961		4.966087	-2.789876	8.057736	0.021933	0.028917	0.054998	0.000672	-0.002968	-0.006430	-0.835693	0.600830	-0.700195	0.049659	-0.027901	0.080578	0.324428	-0.300254	0.048501	-0.895679	-19.067876	-30.423851	-134.948115
30962		5.002209	-2.795387	8.079574	0.009609	0.013462	0.092641	0.001066	-0.004439	-0.008049	-0.833252	0.600830	-0.693359	0.050019	-0.027956	0.080797	0.324423	-0.300269	0.048507	-0.895676	-19.069412	-30.425207	-134.947883
30963		4.999236	-2.795559	8.030747	-0.016257	0.010187	0.051391	0.001956	-0.002554	-0.011275	-0.829102	0.597168	-0.698730	0.049990	-0.027959	0.080308	0.324406	-0.300274	0.048509	-0.895680	-19.069358	-30.426086	-134.949829
30964		4.987690	-2.774551	8.055638	0.016781	0.003372	0.059911	-0.000784	-0.003420	-0.006376	-0.836914	0.592773	-0.701904	0.049875	-0.027747	0.080557	0.324405	-0.300287	0.048528	-0.895675	-19.072375	-30.426577	-134.948768
30965		4.986338	-2.774663	8.031132	0.003875	0.001376	0.039286	0.000730	-0.002955	-0.004834	-0.830566	0.603027	-0.701660	0.049862	-0.027748	0.080312	0.324410	-0.300293	0.048544	-0.895670	-19.074777	-30.426394	-134.947354
30966		4.983190	-2.774949	7.982371	-0.022001	-0.001864	-0.001964	0.003527	-0.002076	-0.008137	-0.838867	0.599365	-0.697754	0.049830	-0.027753	0.079824	0.324408	-0.300293	0.048543	-0.895671	-19.074616	-30.426487	-134.947691
30967		5.002778	-2.793220	8.054666	-0.002768	0.008391	0.072020	0.002465	-0.004000	-0.009701	-0.832520	0.596436	-0.695313	0.050025	-0.027936	0.080547	0.324400	-0.300303	0.048542	-0.895671	-19.074855	-30.427777	-134.948249
30968		5.003301	-2.792750	8.054504	-0.002635	0.007635	0.072020	-0.000784	-0.003420	-0.006376	-0.834473	0.597900	-0.704102	0.050031	-0.027929	0.080546	0.324400	-0.300316	0.048561	-0.895666	-19.077871	-30.428269	-134.947188
30969		5.000203	-2.793217	8.005649	-0.028536	0.004392	0.030771	0.000673	-0.002968	-0.006431	-0.832031	0.601318	-0.704834	0.050000	-0.027934	0.080057	0.324400	-0.300323	0.048574	-0.895663	-19.079903	-30.428397	-134.946468
30970		4.968530	-2.786044	8.032254	0.010053	0.020847	0.034388	0.002071	-0.002529	-0.008083	-0.838135	0.597656	-0.704346	0.049683	-0.027863	0.080323	0.324395	-0.300328	0.048580	-0.895662	-19.080643	-30.428726	-134.946672
30971		4.980920	-2.805951	8.007222	-0.022767	0.026136	0.025876	0.003075	-0.000618	-0.008116	-0.837646	0.607910	-0.713867	0.049808	-0.028063	0.080072	0.324394	-0.300320	0.048583	-0.895665	-19.080446	-30.427786	-134.947234
30972		4.989302	-2.771164	8.030499	0.004725	-0.003938	0.039285	-0.000784	-0.003421	-0.006376	-0.836182	0.604492	-0.694336	0.049891	-0.027713	0.080306	0.324393	-0.300332	0.048602	-0.895660	-19.083462	-30.428277	-134.946173
30973		4.969615	-2.784434	8.032141	0.010389	0.018531	0.034392	0.004473	-0.000178	-0.009768	-0.837402	0.600342	-0.705566	0.049695	-0.027849	0.080321	0.324392	-0.300322	0.048597	-0.895664	-19.082175	-30.427402	-134.946933
30974		4.991813	-2.769570	8.054799	0.017981	-0.004253	0.059909	0.000615	-0.002981	-0.008028	-0.838867	0.598633	-0.699951	0.049916	-0.027698	0.080549	0.324386	-0.300331	0.048608	-0.895663	-19.083816	-30.427965	-134.947005
30975		5.004341	-2.789596	8.029641	-0.014817	0.001047	0.051399	0.000557	-0.002994	-0.009625	-0.840332	0.603027	-0.698486	0.050041	-0.027899	0.080297	0.324370	-0.300339	0.048617	-0.895666	-19.084883	-30.428746	-134.948459
30976		4.992729	-2.768516	8.054593	0.018225	-0.005761	0.059908	0.001561	-0.001083	-0.009658	-0.832764	0.602539	-0.692871	0.049926	-0.027688	0.080546	0.324358	-0.300338	0.048625	-0.895670	-19.085255	-30.428586	-134.949966
30977		4.985099	-2.802207	8.031243	-0.008982	0.022782	0.046514	0.003527	-0.002076	-0.008139	-0.838379	0.605957	-0.702393	0.049849	-0.028026	0.080312	0.324357	-0.300339	0.048625	-0.895670	-19.085349	-30.428695	-134.950007
30978		4.989916	-2.767951	8.005915	-0.007494	-0.009755	0.018657	0.003017	-0.000630	-0.009713	-0.840332	0.603516	-0.699707	0.049898	-0.027683	0.080059	0.324346	-0.300334	0.048627	-0.895675	-19.084819	-30.428300	-134.951648
30979		4.971977	-2.780719	8.031966	0.011194	0.013969	0.034399	0.001561	-0.001083	-0.009658	-0.835693	0.596680	-0.701904	0.049718	-0.027810	0.080320	0.324337	-0.300333	0.048635	-0.895679	-19.085350	-30.428071	-134.952785
30980		4.972263	-2.780326	8.031925	0.011326	0.013216	0.034400	-0.001688	-0.000505	-0.006332	-0.832031	0.596191	-0.697021	0.049722	-0.027804	0.080320	0.324334	-0.300334	0.048663	-0.895678	-19.088578	-30.426976	-134.952329
30981		4.992613	-2.766058	8.030202	0.005895	-0.010807	0.039279	0.003527	-0.002075	-0.008139	-0.841553	0.604736	-0.704834	0.049924	-0.027664	0.080302	0.324329	-0.300333	0.048662	-0.895680	-19.088299	-30.426971	-134.953099
30982		4.986805	-2.799274	8.031207	-0.008340	0.018988	0.046522	0.005494	-0.003067	-0.006620	-0.833984	0.595703	-0.691895	0.049866	-0.027997	0.080312	0.324336	-0.300334	0.048654	-0.895677	-19.087603	-30.427316	-134.952267
30983		4.985363	-2.799000	8.006890	-0.021208	0.017004	0.025900	0.003133	-0.000604	-0.006520	-0.834473	0.599854	-0.700928	0.049852	-0.027993	0.080069	0.324338	-0.300328	0.048661	-0.895679	-19.088078	-30.426320	-134.952191
30984		4.981585	-2.743546	8.055274	0.039212	-0.019119	0.047778	0.003585	-0.002062	-0.006543	-0.830566	0.597168	-0.693604	0.049814	-0.027439	0.080553	0.324343	-0.300328	0.048662	-0.895677	-19.088389	-30.426107	-134.951530
30985		4.987821	-2.797315	8.031259	-0.007946	0.016705	0.046527	0.003469	-0.002089	-0.009737	-0.827881	0.602051	-0.697754	0.049876	-0.027977	0.080313	0.324334	-0.300328	0.048660	-0.895680	-19.087797	-30.426401	-134.952780
30986		5.008277	-2.782746	8.029563	-0.013348	-0.007324	0.051398	0.003527	-0.002076	-0.008140	-0.837402	0.600830	-0.697266	0.050081	-0.027831	0.080296	0.324331	-0.300328	0.048659	-0.895681	-19.087634	-30.426495	-134.953118
30987		4.974822	-2.775756	8.031921	0.012222	0.007896	0.034405	0.003469	-0.002089	-0.009737	-0.828613	0.600586	-0.699951	0.049746	-0.027761	0.080319	0.324326	-0.300328	0.048656	-0.895683	-19.087158	-30.426751	-134.953850
30988		4.978747	-2.774197	8.080640	0.038371	0.009584	0.075652	0.005041	-0.001609	-0.006598	-0.843750	0.596191	-0.701660	0.049786	-0.027746	0.080806	0.324333	-0.300323	0.048652	-0.895682	-19.086567	-30.426303	-134.953321
30989		4.989268	-2.794438	8.031362	-0.007439	0.013654	0.046532	0.002621	0.000840	-0.008096	-0.837402	0.598145	-0.693359	0.049892	-0.027947	0.080313	0.324326	-0.300311	0.048661	-0.895689	-19.086529	-30.424724	-134.954631
30990		4.987916	-2.793921	8.007074	-0.020317	0.011683	0.025910	0.009197	-0.005103	-0.009970	-0.836426	0.601318	-0.702637	0.049876	-0.027945	0.080071	0.324325	-0.300316	0.048627	-0.895689	-19.082870	-30.426799	-134.955460
30991		4.996331	-2.758599	8.030455	0.007207	-0.018397	0.039267	0.002563	0.000827	-0.009693	-0.826416	0.599121	-0.697266	0.049962	-0.027589	0.080304	0.324311	-0.300305	0.048634	-0.895698	-19.082503	-30.425613	-134.957666
30992		4.976631	-2.771780	8.032174	0.012868	0.004128	0.034406	0.004039	-0.003520	-0.006565	-0.841797	0.609863	-0.700928	0.049764	-0.027721	0.080322	0.324317	-0.300310	0.048631	-0.895694	-19.082707	-30.426194	-134.956701
30993		4.992621	-2.790816	8.055845	0.006107	0.011802	0.067159	0.003074	-0.000618	-0.008119	-0.843506	0.606689	-0.707520	0.049925	-0.027911	0.080558	0.324321	-0.300304	0.048635	-0.895694	-19.082889	-30.425315	-134.956326
30994		5.009374	-2.777133	8.005511	-0.025307	-0.014660	0.030770	0.003074	-0.000618	-0.008119	-0.831055	0.601807	-0.697998	0.050092	-0.027775	0.080055	0.324318	-0.300298	0.048638	-0.895697	-19.082833	-30.424615	-134.956968
30995		4.993232	-2.789491	8.055924	0.006360	0.010261	0.067161	0.003528	-0.002076	-0.008141	-0.842529	0.599609	-0.705078	0.049930	-0.027898	0.080559	0.324320	-0.300298	0.048637	-0.895696	-19.082768	-30.424534	-134.956713
30996		4.959810	-2.782544	8.058257	0.031923	0.025535	0.050177	0.003981	-0.003534	-0.008163	-0.829590	0.595459	-0.694336	0.049596	-0.027829	0.080583	0.324319	-0.300304	0.048632	-0.895695	-19.082499	-30.425422	-134.956748
30997		5.004432	-2.808997	8.006494	-0.039318	0.013585	0.038049	0.003527	-0.002076	-0.008141	-0.841553	0.604736	-0.701660	0.050042	-0.028093	0.080065	0.324313	-0.300303	0.048632	-0.895698	-19.082247	-30.425472	-134.957624
30998		4.992602	-2.787715	8.031626	-0.006269	0.006791	0.046540	0.005532	0.001748	-0.008209	-0.833740	0.599365	-0.696289	0.049926	-0.027881	0.080315	0.324312	-0.300283	0.048629	-0.895705	-19.080494	-30.423507	-134.958836
30999		4.959064	-2.780718	8.034049	0.019301	0.022056	0.029558	0.002467	-0.004002	-0.009705	-0.836914	0.602051	-0.701416	0.049588	-0.027811	0.080341	0.324302	-0.300294	0.048628	-0.895705	-19.080776	-30.424909	-134.959661
31000		4.977806	-2.766492	8.007965	0.000901	-0.003185	0.013783	0.004925	-0.001636	-0.009794	-0.840820	0.594482	-0.699463	0.049776	-0.027669	0.080079	0.324294	-0.300290	0.048619	-0.895710	-19.079238	-30.425074	-134.961134
31001		4.995641	-2.784918	8.056013	0.007141	0.005731	0.067164	0.003469	-0.002090	-0.009739	-0.836182	0.599365	-0.697754	0.049954	-0.027853	0.080560	0.324279	-0.300290	0.048618	-0.895715	-19.078513	-30.425490	-134.963218
31002		4.982123	-2.764060	8.056734	0.027181	-0.002266	0.055027	0.004529	-0.000164	-0.008176	-0.834229	0.600342	-0.705078	0.049820	-0.027644	0.080567	0.324277	-0.300280	0.048616	-0.895719	-19.077555	-30.424555	-134.963994
31003		4.994519	-2.783839	8.031779	-0.005628	0.003002	0.046542	0.003528	-0.002076	-0.008142	-0.836914	0.602539	-0.695313	0.049943	-0.027842	0.080318	0.324276	-0.300279	0.048615	-0.895720	-19.077361	-30.424496	-134.964247
31004		4.994872	-2.783127	8.031806	-0.005496	0.002248	0.046542	0.005042	-0.001608	-0.006600	-0.838379	0.595703	-0.697510	0.049947	-0.027835	0.080318	0.324282	-0.300274	0.048611	-0.895720	-19.076770	-30.424047	-134.963720
31005		4.995126	-2.782411	8.031896	-0.005345	0.001496	0.046543	0.004587	-0.000150	-0.006579	-0.829346	0.602539	-0.692871	0.049950	-0.027828	0.080318	0.324284	-0.300264	0.048612	-0.895722	-19.076369	-30.422885	-134.963975
31006		4.991068	-2.815208	8.057346	-0.006593	0.032464	0.074470	0.005496	-0.003066	-0.006622	-0.833496	0.598633	-0.705322	0.049909	-0.028156	0.080573	0.324291	-0.300265	0.048603	-0.895720	-19.075670	-30.423230	-134.963146
31007		4.973995	-2.795266	8.009346	-0.012597	0.022040	0.021087	0.003073	-0.000619	-0.008121	-0.834473	0.606201	-0.697021	0.049739	-0.027956	0.080093	0.324294	-0.300258	0.048607	-0.895721	-19.075707	-30.422313	-134.963087
31008		4.980440	-2.760620	8.008353	0.001929	-0.009232	0.013779	0.003015	-0.000633	-0.009718	-0.842529	0.602295	-0.691406	0.049803	-0.027610	0.080083	0.324283	-0.300253	0.048608	-0.895726	-19.075178	-30.421921	-134.964729
31009		4.998328	-2.779139	8.056342	0.008233	-0.000383	0.067165	0.002468	-0.004003	-0.009706	-0.836914	0.601563	-0.700928	0.049980	-0.027795	0.080564	0.324274	-0.300266	0.048609	-0.895725	-19.075704	-30.423459	-134.965341
31010		4.976951	-2.792721	8.033701	0.000862	0.020955	0.041714	0.004529	-0.000164	-0.008177	-0.837891	0.601563	-0.704834	0.049768	-0.027931	0.080336	0.324272	-0.300256	0.048606	-0.895730	-19.074746	-30.422524	-134.966118
31011		4.985193	-2.757502	8.057082	0.028386	-0.009136	0.055020	0.004925	-0.001636	-0.009796	-0.833740	0.598145	-0.699463	0.049850	-0.027579	0.080571	0.324266	-0.300251	0.048598	-0.895734	-19.073191	-30.422544	-134.967471
31012		4.977633	-2.791085	8.033846	0.001106	0.019432	0.041718	0.005042	-0.001607	-0.006601	-0.837158	0.592529	-0.695068	0.049775	-0.027915	0.080338	0.324272	-0.300246	0.048593	-0.895733	-19.072599	-30.422096	-134.966944
31013		4.977770	-2.790408	8.033997	0.001231	0.018693	0.041719	0.003678	0.002766	-0.006537	-0.838379	0.593750	-0.704590	0.049778	-0.027907	0.080339	0.324270	-0.300224	0.048604	-0.895741	-19.072231	-30.419297	-134.968186
31014		4.996216	-2.776227	8.008054	-0.017160	-0.006542	0.025920	0.003411	-0.002105	-0.011338	-0.837891	0.595703	-0.695313	0.049960	-0.027766	0.080081	0.324253	-0.300225	0.048598	-0.895747	-19.071122	-30.420005	-134.970526
31015		4.980139	-2.788438	8.058511	0.014492	0.018406	0.062343	0.004529	-0.000164	-0.008178	-0.828369	0.608154	-0.705811	0.049800	-0.027888	0.080585	0.324242	-0.300214	0.048598	-0.895755	-19.069948	-30.419119	-134.972575
31016		4.978755	-2.788088	8.034192	0.001609	0.016463	0.041723	0.003925	-0.003549	-0.009762	-0.826416	0.598633	-0.702393	0.049785	-0.027885	0.080342	0.324233	-0.300220	0.048590	-0.895756	-19.069204	-30.420314	-134.973613
31017		4.982640	-2.786481	8.082938	0.027715	0.018013	0.082967	0.004132	0.001308	-0.006559	-0.835449	0.596436	-0.696777	0.049826	-0.027868	0.080828	0.324254	-0.300201	0.048592	-0.895755	-19.068914	-30.417748	-134.971759
31018		4.963645	-2.766956	8.010676	0.008709	0.006481	0.008954	0.004925	-0.001636	-0.009797	-0.836426	0.604736	-0.703369	0.049634	-0.027674	0.080106	0.324246	-0.300197	0.048584	-0.895760	-19.067375	-30.417913	-134.973233
31019		4.981398	-2.785356	8.058799	0.014957	0.015300	0.062348	0.004587	-0.000149	-0.006581	-0.835938	0.595947	-0.703857	0.049813	-0.027857	0.080587	0.324252	-0.300186	0.048584	-0.895761	-19.066942	-30.416580	-134.972909
31020		4.984240	-2.751484	8.009133	0.003466	-0.018331	0.013766	0.004925	-0.001636	-0.009798	-0.836914	0.599121	-0.698486	0.049840	-0.027519	0.080091	0.324244	-0.300182	0.048575	-0.895766	-19.065403	-30.416745	-134.974383
31021		4.978346	-2.784818	8.010283	-0.010831	0.011428	0.021107	0.000766	0.001855	-0.006426	-0.840332	0.603271	-0.701904	0.049783	-0.027850	0.080102	0.324241	-0.300168	0.048597	-0.895771	-19.066821	-30.414321	-134.975005
31022		4.968398	-2.763216	8.059616	0.035242	0.005833	0.050197	0.004322	-0.005021	-0.011382	-0.835449	0.599121	-0.703369	0.049680	-0.027637	0.080597	0.324226	-0.300181	0.048583	-0.895773	-19.065496	-30.416616	-134.976740
31023		4.979120	-2.783385	8.010300	-0.010582	0.009911	0.021109	0.004132	0.001308	-0.006560	-0.833252	0.597900	-0.703857	0.049791	-0.027837	0.080102	0.324231	-0.300164	0.048588	-0.895776	-19.065112	-30.414474	-134.976815
31024		4.999274	-2.768768	8.008728	-0.015948	-0.014137	0.025914	0.004528	-0.000164	-0.008179	-0.843994	0.590332	-0.702637	0.049992	-0.027692	0.080087	0.324230	-0.300153	0.048585	-0.895780	-19.064153	-30.413539	-134.977593
31025		4.983130	-2.780927	8.059258	0.015679	0.010800	0.062353	0.006439	-0.001166	-0.008257	-0.829834	0.595703	-0.704346	0.049830	-0.027814	0.080592	0.324221	-0.300143	0.048574	-0.895788	-19.061852	-30.413151	-134.979596
31026		4.981609	-2.780566	8.035029	0.002794	0.008868	0.041732	0.002559	0.000823	-0.009700	-0.840332	0.601074	-0.700439	0.049815	-0.027809	0.080350	0.324209	-0.300132	0.048580	-0.895795	-19.061430	-30.411966	-134.981543
31027		4.947962	-2.773647	8.037514	0.028302	0.024204	0.024776	0.004470	-0.000179	-0.009777	-0.829102	0.600342	-0.701660	0.049478	-0.027741	0.080375	0.324200	-0.300121	0.048576	-0.895802	-19.059906	-30.411182	-134.983406
31028		4.997940	-2.798619	8.058865	-0.003864	0.015728	0.074512	0.003984	-0.003534	-0.008166	-0.843994	0.593750	-0.696533	0.049977	-0.027990	0.080589	0.324199	-0.300127	0.048571	-0.895801	-19.059633	-30.412070	-134.983445
31029		4.968702	-2.758242	8.035842	0.023066	-0.000591	0.029575	0.004587	-0.000149	-0.006582	-0.832764	0.602295	-0.696777	0.049686	-0.027586	0.080358	0.324200	-0.300116	0.048572	-0.895804	-19.059098	-30.410835	-134.983829
31030		4.962794	-2.791558	8.037038	0.008780	0.029154	0.036941	0.002618	0.000838	-0.008102	-0.828125	0.596680	-0.696533	0.049627	-0.027919	0.080370	0.324196	-0.300105	0.048580	-0.895809	-19.059148	-30.409343	-134.984776
31031		4.983093	-2.777012	8.035338	0.003418	0.005064	0.041735	0.004043	-0.003520	-0.006568	-0.832031	0.589844	-0.694580	0.049829	-0.027773	0.080354	0.324206	-0.300110	0.048577	-0.895804	-19.059514	-30.409769	-134.983141
31032		4.997413	-2.796336	8.034691	-0.016361	0.011503	0.053897	0.004984	-0.001621	-0.008202	-0.835205	0.600586	-0.695557	0.049972	-0.027967	0.080347	0.324206	-0.300105	0.048570	-0.895806	-19.058448	-30.409627	-134.983617
31033		4.982035	-2.776008	8.011047	-0.009330	0.002393	0.021115	0.003073	-0.000620	-0.008124	-0.837402	0.595459	-0.705566	0.049819	-0.027763	0.080110	0.324197	-0.300100	0.048576	-0.895811	-19.058402	-30.408980	-134.984882
31034		4.984079	-2.774839	8.035478	0.003821	0.002811	0.041736	0.004528	-0.000164	-0.008181	-0.837646	0.604736	-0.703125	0.049840	-0.027752	0.080354	0.324196	-0.300090	0.048573	-0.895815	-19.057443	-30.408045	-134.985661
31035		4.994659	-2.795037	7.986264	-0.042024	0.006899	0.012660	0.004528	-0.000164	-0.008181	-0.825928	0.595215	-0.697754	0.049945	-0.027954	0.079862	0.324194	-0.300078	0.048571	-0.895819	-19.056399	-30.406959	-134.986496
31036		4.986382	-2.772854	8.060028	0.017076	0.002463	0.062356	0.005043	-0.001606	-0.006604	-0.835449	0.596191	-0.694092	0.049862	-0.027732	0.080600	0.324201	-0.300073	0.048567	-0.895819	-19.055805	-30.406510	-134.985973
31037		4.977080	-2.806876	8.012523	-0.023262	0.029853	0.028500	0.008409	-0.002151	-0.006739	-0.832275	0.602051	-0.700439	0.049769	-0.028074	0.080125	0.324212	-0.300065	0.048547	-0.895819	-19.053327	-30.406308	-134.985489
31038		4.988864	-2.770705	8.084522	0.030354	0.002109	0.082975	0.001560	-0.001092	-0.009666	-0.834961	0.595947	-0.692139	0.049887	-0.027710	0.080845	0.324199	-0.300064	0.048554	-0.895823	-19.053699	-30.406153	-134.987000
31039		4.983894	-2.771407	8.011484	-0.008561	-0.002157	0.021116	0.005499	-0.003063	-0.006625	-0.831787	0.599854	-0.701660	0.049837	-0.027718	0.080115	0.324208	-0.300066	0.048546	-0.895820	-19.053145	-30.406469	-134.986046
31040		4.998230	-2.790626	8.010872	-0.028340	0.004269	0.033284	0.004925	-0.001637	-0.009801	-0.831055	0.601563	-0.696289	0.049980	-0.027911	0.080108	0.324200	-0.300062	0.048538	-0.895825	-19.051605	-30.406635	-134.987522
31041		4.982150	-2.802890	8.061352	0.003305	0.029106	0.069749	0.003132	-0.000605	-0.006527	-0.839111	0.594971	-0.704346	0.049820	-0.028032	0.080613	0.324210	-0.300055	0.048543	-0.895823	-19.052169	-30.405429	-134.986344
31042		4.990362	-2.767795	8.084594	0.030888	-0.000970	0.082974	0.003986	-0.003535	-0.008167	-0.840576	0.593018	-0.697266	0.049901	-0.027682	0.080846	0.324209	-0.300061	0.048538	-0.895822	-19.051896	-30.406317	-134.986383
31043		4.951524	-2.762418	8.013902	0.017337	0.010969	0.004173	0.003588	-0.002063	-0.006548	-0.839844	0.604980	-0.695801	0.049514	-0.027627	0.080139	0.324201	-0.300060	0.048541	-0.895825	-19.051956	-30.406216	-134.987335
31044		4.987523	-2.767426	8.035897	0.005098	-0.004758	0.041734	0.003073	-0.000621	-0.008125	-0.831299	0.600342	-0.708008	0.049874	-0.027678	0.080359	0.324198	-0.300054	0.048545	-0.895827	-19.051899	-30.405518	-134.987980
31045		4.989712	-2.766167	8.060265	0.018244	-0.004387	0.062353	0.005382	-0.003094	-0.009822	-0.827637	0.599121	-0.697510	0.049895	-0.027666	0.080603	0.324196	-0.300055	0.048532	-0.895828	-19.050375	-30.406302	-134.988485
31046		4.980411	-2.800360	8.012732	-0.022102	0.023024	0.028521	0.000646	0.001821	-0.009625	-0.833008	0.600098	-0.704590	0.049803	-0.028006	0.080127	0.324182	-0.300043	0.048548	-0.895837	-19.050964	-30.404562	-134.990602
31047		4.968560	-2.779355	8.037705	0.010933	0.016221	0.036968	0.002649	-0.003961	-0.004914	-0.834717	0.597900	-0.702393	0.049683	-0.027796	0.080378	0.324200	-0.300051	0.048552	-0.895827	-19.052581	-30.404789	-134.987669
31048		4.969007	-2.778745	8.037639	0.011064	0.015468	0.036969	0.003471	-0.002093	-0.009745	-0.838135	0.598633	-0.703125	0.049688	-0.027791	0.080376	0.324190	-0.300051	0.048549	-0.895831	-19.051943	-30.405191	-134.989012
31049		5.003342	-2.784174	8.035224	-0.014215	-0.001435	0.053907	0.002075	-0.002535	-0.008090	-0.835449	0.597412	-0.695313	0.050031	-0.027845	0.080353	0.324184	-0.300055	0.048555	-0.895832	-19.052579	-30.405414	-134.989500
31050		4.971608	-2.776956	8.061937	0.024325	0.015113	0.057590	0.003014	-0.000636	-0.009724	-0.832764	0.604492	-0.694336	0.049714	-0.027773	0.080619	0.324174	-0.300049	0.048556	-0.895837	-19.052049	-30.405023	-134.991145
31051		5.002376	-2.783390	8.010802	-0.026942	-0.004123	0.033288	0.001077	-0.004449	-0.008054	-0.830078	0.596436	-0.700684	0.050021	-0.027836	0.080109	0.324171	-0.300065	0.048564	-0.895832	-19.053862	-30.406397	-134.990527
31052		4.978494	-2.741639	8.060755	0.039061	-0.016892	0.050170	0.007952	-0.000691	-0.006721	-0.834473	0.600830	-0.696533	0.049784	-0.027421	0.080607	0.324181	-0.300051	0.048548	-0.895834	-19.051463	-30.405474	-134.990274
31053		4.971159	-2.775152	8.037550	0.011719	0.011654	0.036974	0.004326	-0.005023	-0.011386	-0.828613	0.594727	-0.696289	0.049708	-0.027756	0.080376	0.324168	-0.300064	0.048534	-0.895835	-19.050200	-30.407636	-134.991713
31054		5.005563	-2.780702	8.035043	-0.013532	-0.005258	0.053906	0.000855	-0.002930	-0.001640	-0.833008	0.602783	-0.697266	0.050054	-0.027808	0.080351	0.324191	-0.300070	0.048554	-0.895824	-19.053728	-30.406976	-134.987784
31055		4.990200	-2.760753	8.011237	-0.006512	-0.014342	0.021107	0.002016	-0.002551	-0.009689	-0.838867	0.596924	-0.696777	0.049900	-0.027611	0.080113	0.324184	-0.300075	0.048557	-0.895825	-19.054128	-30.407485	-134.988499
31056		4.972524	-2.773635	8.037229	0.012112	0.009367	0.036976	0.002591	-0.003976	-0.006513	-0.843994	0.596680	-0.702393	0.049723	-0.027739	0.080373	0.324188	-0.300085	0.048560	-0.895820	-19.055228	-30.408303	-134.987404
31057		4.986918	-2.793053	8.036530	-0.007660	0.015795	0.049158	0.003529	-0.002078	-0.008148	-0.834229	0.600830	-0.698730	0.049867	-0.027934	0.080365	0.324174	-0.300085	0.048561	-0.895825	-19.054963	-30.408566	-134.989108
31058		4.977567	-2.738934	8.011668	0.013808	-0.023714	0.008921	0.002133	-0.002520	-0.006492	-0.834229	0.604980	-0.697021	0.049774	-0.027392	0.080117	0.324177	-0.300089	0.048569	-0.895822	-19.056172	-30.408591	-134.988316
31059		4.967835	-2.805925	8.038117	-0.001917	0.037564	0.044417	0.001077	-0.004450	-0.008054	-0.828613	0.606201	-0.698975	0.049675	-0.028062	0.080382	0.324178	-0.300104	0.048575	-0.895816	-19.057966	-30.409849	-134.987273
31060		4.986567	-2.791608	8.011958	-0.020275	0.012352	0.028544	0.008748	-0.003635	-0.009961	-0.835205	0.597656	-0.701416	0.049863	-0.027922	0.080119	0.324176	-0.300103	0.048546	-0.895819	-19.054405	-30.411126	-134.988417
31061		4.954942	-2.784115	8.038716	0.018244	0.028870	0.032237	0.003529	-0.002078	-0.008149	-0.838135	0.603271	-0.700195	0.049547	-0.027845	0.080387	0.324181	-0.300102	0.048545	-0.895817	-19.054393	-30.410981	-134.987748
31062		4.989225	-2.789530	8.036321	-0.007001	0.011940	0.049164	0.001558	-0.001095	-0.009669	-0.837402	0.603027	-0.686523	0.049890	-0.027898	0.080363	0.324169	-0.300102	0.048552	-0.895822	-19.054766	-30.410829	-134.989259
31063		5.000044	-2.809975	7.986907	-0.052774	0.016024	0.020117	0.003108	-0.005417	-0.004936	-0.834961	0.603027	-0.695801	0.049998	-0.028102	0.079870	0.324181	-0.300119	0.048555	-0.895811	-19.056628	-30.412278	-134.986624
31064		4.976156	-2.768384	8.036791	0.013236	0.003271	0.036978	0.003071	-0.000621	-0.008128	-0.835205	0.593994	-0.699463	0.049760	-0.027687	0.080368	0.324178	-0.300113	0.048558	-0.895814	-19.056571	-30.411581	-134.987271
31065		4.970485	-2.801639	8.037974	-0.001083	0.032966	0.044433	0.004983	-0.001620	-0.008207	-0.834229	0.598145	-0.704590	0.049703	-0.028020	0.080379	0.324176	-0.300109	0.048553	-0.895817	-19.055563	-30.411423	-134.987918
31066		5.024681	-2.792955	8.033882	-0.031782	-0.007296	0.066089	0.003012	-0.000637	-0.009727	-0.842285	0.596436	-0.699463	0.050245	-0.027933	0.080339	0.324165	-0.300104	0.048554	-0.895822	-19.055034	-30.411034	-134.989565
31067		4.972899	-2.799576	8.062485	0.012186	0.032606	0.065055	0.003949	0.001261	-0.011363	-0.830078	0.599121	-0.699951	0.049728	-0.028000	0.080624	0.324143	-0.300088	0.048553	-0.895836	-19.053087	-30.409897	-134.993410
31068		4.979279	-2.764701	8.061414	0.026776	0.001399	0.057595	0.007930	-0.005500	-0.005130	-0.829834	0.601807	-0.694336	0.049790	-0.027651	0.080614	0.324161	-0.300096	0.048532	-0.895827	-19.051736	-30.411281	-134.991116
31069		4.972016	-2.798356	8.038170	-0.000583	0.029920	0.044443	0.001439	-0.001128	-0.012867	-0.840088	0.598389	-0.698486	0.049718	-0.027987	0.080382	0.324142	-0.300095	0.048534	-0.895834	-19.051361	-30.411542	-134.993655
31070		4.992391	-2.783465	8.036458	-0.005906	0.005844	0.049170	0.006319	-0.001194	-0.011463	-0.831055	0.593506	-0.702637	0.049922	-0.027840	0.080364	0.324128	-0.300088	0.048518	-0.895843	-19.048446	-30.411779	-134.996271
31071		4.992872	-2.782519	8.036487	-0.005796	0.005099	0.049171	0.005959	-0.004517	-0.006650	-0.840576	0.595215	-0.699951	0.049926	-0.027829	0.080365	0.324132	-0.300093	0.048505	-0.895840	-19.047488	-30.412859	-134.995783
31072		4.993461	-2.781731	8.036394	-0.005664	0.004345	0.049171	0.004445	-0.004992	-0.008191	-0.831299	0.603027	-0.701904	0.049931	-0.027821	0.080365	0.324132	-0.300105	0.048495	-0.895837	-19.047104	-30.414541	-134.995521
31073		4.992184	-2.781461	8.011989	-0.018573	0.002453	0.028555	0.005500	-0.003060	-0.006630	-0.836426	0.600098	-0.704102	0.049920	-0.027818	0.080120	0.324139	-0.300105	0.048487	-0.895835	-19.046389	-30.414787	-134.994749
31074		4.994402	-2.780229	8.036328	-0.005413	0.002826	0.049172	0.003529	-0.002079	-0.008150	-0.833740	0.603027	-0.695557	0.049942	-0.027806	0.080363	0.324137	-0.300105	0.048486	-0.895835	-19.046223	-30.414884	-134.995094
31075		5.006867	-2.800045	8.011419	-0.038225	0.008036	0.040752	0.004584	-0.000147	-0.006589	-0.829834	0.595459	-0.698730	0.050068	-0.028004	0.080114	0.324146	-0.300095	0.048486	-0.895836	-19.045880	-30.413518	-134.994351
31076		4.996694	-2.778431	8.060817	0.007880	0.002412	0.069789	0.003189	-0.000589	-0.004933	-0.832764	0.602051	-0.702393	0.049966	-0.027787	0.080608	0.324158	-0.300088	0.048494	-0.895833	-19.046768	-30.412205	-134.992998
31077		5.016898	-2.763891	8.059071	0.002537	-0.021700	0.074502	0.001557	-0.001097	-0.009671	-0.840088	0.604492	-0.698730	0.050167	-0.027642	0.080591	0.324150	-0.300085	0.048501	-0.895837	-19.047150	-30.411817	-134.993964
31078		4.961583	-2.771592	8.038947	0.020449	0.015966	0.032262	0.006437	-0.001161	-0.008267	-0.832031	0.600586	-0.700195	0.049614	-0.027721	0.080389	0.324151	-0.300077	0.048489	-0.895840	-19.045180	-30.411438	-134.994580
31079		4.974116	-2.791294	8.014041	-0.012355	0.021175	0.023847	0.003529	-0.002079	-0.008151	-0.838867	0.596680	-0.696045	0.049739	-0.027916	0.080140	0.324152	-0.300077	0.048489	-0.895839	-19.045208	-30.411450	-134.994385
31080		4.996132	-2.776046	8.036700	-0.004638	-0.001787	0.049172	0.006038	0.000312	-0.006648	-0.841309	0.600098	-0.698242	0.049961	-0.027765	0.080366	0.324160	-0.300062	0.048483	-0.895842	-19.043820	-30.409970	-134.994304
31081		4.994582	-2.775741	8.012478	-0.017508	-0.003643	0.028556	0.004983	-0.001620	-0.008209	-0.834229	0.600098	-0.700928	0.049944	-0.027761	0.080124	0.324151	-0.300059	0.048478	-0.895846	-19.042811	-30.410011	-134.995709
31082		4.996690	-2.774440	8.036907	-0.004346	-0.003279	0.049172	0.004524	-0.000164	-0.008189	-0.836914	0.599365	-0.703613	0.049966	-0.027748	0.080368	0.324150	-0.300049	0.048476	-0.895850	-19.041853	-30.409077	-134.996493
31083		4.964610	-2.767087	8.063913	0.034153	0.013294	0.052882	0.006056	0.005123	-0.008245	-0.833984	0.595947	-0.696777	0.049647	-0.027675	0.080637	0.324150	-0.300011	0.048476	-0.895863	-19.039395	-30.405137	-134.998316
31084		4.990883	-2.806900	8.038514	-0.018578	0.025632	0.056675	0.002135	-0.002521	-0.006494	-0.836426	0.601807	-0.701172	0.049907	-0.028071	0.080385	0.324153	-0.300015	0.048483	-0.895860	-19.040604	-30.405164	-134.997524
31085		4.963154	-2.766189	8.039839	0.021386	0.010663	0.032268	0.007492	0.000771	-0.006707	-0.836670	0.596436	-0.699951	0.049631	-0.027667	0.080397	0.324162	-0.299996	0.048472	-0.895864	-19.038366	-30.403399	-134.997634
31086		5.013239	-2.791013	8.061171	-0.010723	0.001891	0.081992	0.001658	-0.005876	-0.004878	-0.840332	0.603516	-0.703369	0.050129	-0.027912	0.080613	0.324173	-0.300015	0.048478	-0.895853	-19.040730	-30.404940	-134.995100
31087		5.019587	-2.756642	8.059879	0.003884	-0.029299	0.074482	-0.000297	-0.000085	-0.007995	-0.830322	0.602295	-0.696045	0.050195	-0.027568	0.080599	0.324162	-0.300012	0.048499	-0.895857	-19.042583	-30.403899	-134.996058
31088		4.985945	-2.750446	8.062170	0.029371	-0.013817	0.057578	-0.002627	-0.002425	-0.004700	-0.841553	0.597900	-0.698242	0.049858	-0.027505	0.080623	0.324166	-0.300023	0.048531	-0.895850	-19.047079	-30.403538	-134.994161
31089		4.930643	-2.758911	8.041808	0.047280	0.023879	0.015369	-0.002686	-0.002442	-0.006299	-0.834473	0.603516	-0.698975	0.049305	-0.027590	0.080419	0.324163	-0.300035	0.048561	-0.895846	-19.051265	-30.403505	-134.993248
31090		4.957123	-2.799275	8.016096	-0.005454	0.036207	0.019173	-0.001691	-0.000527	-0.006338	-0.839355	0.601807	-0.703369	0.049570	-0.027994	0.080161	0.324160	-0.300036	0.048589	-0.895845	-19.054496	-30.402422	-134.992790
31091		4.983111	-2.750959	8.013178	0.003726	-0.018333	0.016343	0.000698	0.001831	-0.008033	-0.838867	0.602539	-0.701416	0.049831	-0.027512	0.080131	0.324156	-0.300023	0.048608	-0.895849	-19.055693	-30.400271	-134.993464
31092		4.957467	-2.798568	8.016131	-0.005193	0.034677	0.019178	-0.001810	-0.000561	-0.009536	-0.840088	0.597168	-0.698242	0.049573	-0.027987	0.080162	0.324139	-0.300025	0.048631	-0.895854	-19.057980	-30.399805	-134.995007
31093		4.977603	-2.783930	8.014438	-0.010484	0.010595	0.023866	0.007491	0.000773	-0.006708	-0.832764	0.595459	-0.697510	0.049775	-0.027844	0.080143	0.324144	-0.300006	0.048621	-0.895859	-19.055717	-30.398153	-134.995622
31094		4.977791	-2.783082	8.014616	-0.010352	0.009843	0.023867	0.002492	0.000800	-0.011310	-0.830078	0.601563	-0.698486	0.049777	-0.027835	0.080146	0.324125	-0.299996	0.048625	-0.895869	-19.054825	-30.397281	-134.998575
31095		4.993641	-2.801822	8.038573	-0.017116	0.017252	0.056696	0.002627	0.005645	-0.009709	-0.834961	0.601318	-0.696045	0.049937	-0.028022	0.080384	0.324115	-0.299962	0.048638	-0.895883	-19.053906	-30.393340	-135.001193
31096		4.999498	-2.767150	8.037674	-0.002496	-0.013923	0.049164	0.002092	0.002273	-0.009691	-0.830078	0.599609	-0.706787	0.049995	-0.027675	0.080376	0.324103	-0.299946	0.048649	-0.895892	-19.053597	-30.391367	-135.003448
31097		4.987362	-2.745934	8.062832	0.030564	-0.020690	0.057563	0.003546	0.002733	-0.009750	-0.835449	0.600586	-0.701660	0.049873	-0.027463	0.080627	0.324098	-0.299923	0.048653	-0.895902	-19.052433	-30.388921	-135.005166
31098		5.017190	-2.784882	8.086120	0.003894	-0.006185	0.102606	-0.001156	0.002844	-0.006356	-0.828125	0.601563	-0.701416	0.050172	-0.027850	0.080861	0.324095	-0.299909	0.048684	-0.895906	-19.054981	-30.386015	-135.005451
31099		4.985638	-2.745656	8.038712	0.017771	-0.023335	0.036944	-0.000296	-0.000085	-0.007996	-0.838379	0.605469	-0.698730	0.049855	-0.027458	0.080387	0.324094	-0.299904	0.048703	-0.895906	-19.056914	-30.384735	-135.005234
31100		4.999828	-2.765637	8.037990	-0.002014	-0.017012	0.049159	-0.008425	0.000545	-0.006065	-0.837402	0.599854	-0.699463	0.049998	-0.027655	0.080381	0.324083	-0.299912	0.048763	-0.895905	-19.063972	-30.383020	-135.004838
31101		4.940253	-2.807731	8.043212	0.014412	0.052239	0.035144	0.001795	-0.001030	-0.003277	-0.841064	0.596191	-0.696045	0.049402	-0.028079	0.080432	0.324100	-0.299909	0.048780	-0.895898	-19.066430	-30.381651	-135.002172
31102		4.978336	-2.780100	8.015312	-0.009339	0.003708	0.023872	-0.004005	0.001941	-0.004641	-0.835693	0.591797	-0.709229	0.049783	-0.027801	0.080153	0.324101	-0.299903	0.048825	-0.895898	-19.071254	-30.378914	-135.001184
31103		4.964442	-2.759942	8.015912	0.010678	-0.004072	0.011653	-0.000355	-0.000102	-0.009595	-0.832031	0.598877	-0.699219	0.049643	-0.027602	0.080159	0.324074	-0.299899	0.048844	-0.895908	-19.072280	-30.378249	-135.004507
31104		4.998589	-2.765619	8.013479	-0.014531	-0.021097	0.028539	-0.001631	-0.000511	-0.004740	-0.836182	0.600830	-0.697998	0.049985	-0.027657	0.080135	0.324079	-0.299900	0.048874	-0.895904	-19.075982	-30.376858	-135.003051
31105		4.974761	-2.812963	8.040716	-0.010440	0.032979	0.052044	-0.000178	-0.000051	-0.004798	-0.833984	0.603027	-0.699707	0.049747	-0.028131	0.080407	0.324086	-0.299896	0.048899	-0.895902	-19.078873	-30.375162	-135.001585
31106		4.993039	-2.799252	8.014559	-0.028764	0.007790	0.036095	-0.001691	-0.000528	-0.006339	-0.835693	0.601807	-0.705078	0.049929	-0.027993	0.080146	0.324084	-0.299897	0.048927	-0.895901	-19.082102	-30.374079	-135.001129
31107		4.994848	-2.798589	8.038950	-0.015614	0.008095	0.056710	-0.001558	0.004317	-0.004737	-0.828857	0.604492	-0.696777	0.049950	-0.027986	0.080389	0.324092	-0.299875	0.048964	-0.895903	-19.085306	-30.369878	-135.000100
31108		4.980826	-2.778468	8.039615	0.004437	0.000278	0.044487	-0.001690	-0.000528	-0.006339	-0.836670	0.601807	-0.701416	0.049807	-0.027786	0.080397	0.324090	-0.299876	0.048992	-0.895902	-19.088535	-30.368795	-134.999644
31109		4.996998	-2.797610	8.063238	-0.002311	0.007628	0.077325	0.000624	-0.002997	-0.008037	-0.833252	0.603271	-0.693604	0.049968	-0.027978	0.080633	0.324091	-0.299885	0.049002	-0.895898	-19.090403	-30.369199	-134.998732
31110		4.993583	-2.798148	8.014605	-0.028252	0.004698	0.036099	0.001691	0.003748	-0.008073	-0.835938	0.598145	-0.698486	0.049936	-0.027984	0.080145	0.324085	-0.299862	0.049019	-0.895907	-19.090676	-30.366126	-135.000292
31111		4.995461	-2.797170	8.039062	-0.015059	0.005013	0.056713	0.001736	-0.001047	-0.004876	-0.832520	0.606445	-0.703125	0.049954	-0.027974	0.080391	0.324094	-0.299860	0.049035	-0.895903	-19.092667	-30.365088	-134.998720
31112		4.939821	-2.805279	8.019064	0.002782	0.042814	0.014569	0.004716	0.004702	-0.004991	-0.831787	0.602051	-0.702637	0.049399	-0.028056	0.080189	0.324106	-0.299827	0.049044	-0.895909	-19.092080	-30.360920	-134.998553
31113		4.939770	-2.804505	8.019366	0.002886	0.042008	0.014573	0.005459	0.001739	-0.009829	-0.842773	0.600830	-0.697021	0.049397	-0.028050	0.080192	0.324109	-0.299806	0.049037	-0.895916	-19.090005	-30.358937	-134.999416
31114		4.953922	-2.823491	8.019025	-0.016905	0.048308	0.026804	0.006913	0.002200	-0.009887	-0.835693	0.598633	-0.704102	0.049539	-0.028240	0.080189	0.324103	-0.299782	0.049026	-0.895927	-19.086881	-30.357042	-135.001778
31115		4.991618	-2.827309	8.065599	-0.016022	0.033433	0.084910	0.007373	0.000744	-0.009908	-0.832031	0.604980	-0.698486	0.049915	-0.028279	0.080655	0.324091	-0.299764	0.049011	-0.895938	-19.083617	-30.356028	-135.004644
31116		4.962085	-2.786678	8.042690	0.010911	0.017500	0.039840	0.009689	-0.001725	-0.011606	-0.830078	0.596436	-0.693604	0.049619	-0.027874	0.080426	0.324082	-0.299753	0.048978	-0.895946	-19.078788	-30.356580	-135.007232
31117		4.962488	-2.785342	8.042904	0.011056	0.016712	0.039841	0.009228	-0.000269	-0.011586	-0.838135	0.597656	-0.704346	0.049623	-0.027860	0.080428	0.324077	-0.299737	0.048950	-0.895955	-19.074309	-30.356255	-135.009475
31118		5.028830	-2.796507	8.014038	-0.052506	-0.017733	0.052976	0.007373	0.000744	-0.009909	-0.836182	0.604004	-0.707275	0.050287	-0.027971	0.080139	0.324072	-0.299719	0.048934	-0.895964	-19.071075	-30.355152	-135.011534
31119		4.963143	-2.782939	8.043331	0.011281	0.015199	0.039843	0.010209	-0.003163	-0.010027	-0.835449	0.616699	-0.703125	0.049629	-0.027836	0.080433	0.324071	-0.299712	0.048899	-0.895968	-19.066471	-30.356006	-135.012887
31120		4.983568	-2.767576	8.041672	0.006007	-0.008905	0.044483	0.008176	-0.002203	-0.013148	-0.834717	0.600830	-0.694580	0.049833	-0.027682	0.080416	0.324054	-0.299706	0.048870	-0.895978	-19.062072	-30.357104	-135.016340
31121		4.992380	-2.820110	8.042377	-0.028259	0.027697	0.064313	0.012064	-0.004176	-0.011705	-0.833008	0.604492	-0.696289	0.049920	-0.028209	0.080423	0.324062	-0.299704	0.048822	-0.895979	-19.056664	-30.358864	-135.016596
31122		4.984688	-2.764665	8.041979	0.006311	-0.010485	0.044481	0.011201	-0.001246	-0.010067	-0.837158	0.599854	-0.695801	0.049845	-0.027654	0.080419	0.324062	-0.299689	0.048785	-0.895986	-19.051404	-30.358867	-135.018322
31123		4.957437	-2.811812	8.020956	-0.015675	0.041405	0.026837	0.011673	0.002108	-0.011686	-0.840088	0.596680	-0.704346	0.049574	-0.028126	0.080207	0.324057	-0.299659	0.048751	-0.895999	-19.045309	-30.357408	-135.021398
31124		4.959465	-2.809633	8.045731	-0.002506	0.041724	0.047453	0.013529	0.001096	-0.013365	-0.831787	0.597412	-0.701172	0.049593	-0.028105	0.080455	0.324046	-0.299630	0.048703	-0.896016	-19.037413	-30.356759	-135.025701
31125		4.979618	-2.793766	8.044401	-0.007803	0.017627	0.052086	0.012949	0.002516	-0.016545	-0.840088	0.596924	-0.698486	0.049795	-0.027947	0.080442	0.324014	-0.299595	0.048655	-0.896042	-19.028500	-30.355864	-135.032996
31126		4.960002	-2.805963	8.046681	-0.002273	0.040228	0.047459	0.012949	0.002515	-0.016546	-0.838135	0.601563	-0.695801	0.049599	-0.028069	0.080464	0.323987	-0.299561	0.048607	-0.896065	-19.019772	-30.355039	-135.039604
31127		5.001827	-2.775365	8.067930	0.000142	-0.006158	0.077327	0.016956	0.000582	-0.011904	-0.832275	0.602783	-0.695068	0.050017	-0.027763	0.080677	0.323980	-0.299530	0.048547	-0.896081	-19.010574	-30.354608	-135.043658
31128		4.968111	-2.767645	8.070801	0.025593	0.009417	0.060462	0.013067	0.002551	-0.013348	-0.839111	0.598389	-0.698730	0.049680	-0.027685	0.080706	0.323967	-0.299495	0.048503	-0.896100	-19.002789	-30.353166	-135.048265
31129		5.020298	-2.758352	8.042748	-0.017996	-0.032111	0.061336	0.013647	0.001133	-0.010168	-0.839355	0.599854	-0.703857	0.050202	-0.027592	0.080425	0.323970	-0.299467	0.048461	-0.896111	-18.996094	-30.351966	-135.050436
31130		4.966636	-2.765024	8.047353	0.012850	0.006826	0.039851	0.011732	0.002127	-0.010090	-0.835449	0.599365	-0.705078	0.049666	-0.027657	0.080471	0.323971	-0.299435	0.048427	-0.896123	-18.990155	-30.350145	-135.052906
31131		4.965055	-2.764311	8.023318	-0.000081	0.005004	0.019240	0.007835	-0.000714	-0.009932	-0.838135	0.608643	-0.696289	0.049649	-0.027649	0.080232	0.323965	-0.299421	0.048407	-0.896131	-18.986739	-30.349725	-135.054815
31132		4.985065	-2.748912	8.021883	-0.005343	-0.019106	0.023857	0.012723	0.004044	-0.010131	-0.839355	0.599365	-0.697021	0.049851	-0.027497	0.080216	0.323966	-0.299380	0.048372	-0.896146	-18.980010	-30.346872	-135.057724
31133		4.948853	-2.774720	8.074627	0.031724	0.028957	0.055847	0.006567	0.003690	-0.006677	-0.833252	0.595947	-0.706787	0.049489	-0.027752	0.080744	0.323976	-0.299351	0.048371	-0.896152	-18.978395	-30.343722	-135.057959
31134		4.968670	-2.759665	8.073190	0.026463	0.004844	0.060463	0.008423	0.002677	-0.008355	-0.822998	0.598145	-0.700195	0.049687	-0.027602	0.080730	0.323978	-0.299322	0.048356	-0.896162	-18.974843	-30.341279	-135.059457
31135		4.997329	-2.766169	7.998107	-0.037903	-0.015473	0.015487	0.009406	-0.000215	-0.006792	-0.831299	0.595703	-0.703369	0.049972	-0.027667	0.079980	0.323998	-0.299301	0.048332	-0.896163	-18.971441	-30.339716	-135.058532
31136		4.972848	-2.724178	8.048189	0.028159	-0.028132	0.032216	0.005055	0.003208	-0.008218	-0.839111	0.596680	-0.697510	0.049729	-0.027246	0.080480	0.323996	-0.299275	0.048333	-0.896172	-18.969805	-30.336960	-135.060058
31137		4.967090	-2.757458	8.049669	0.013752	0.001498	0.039852	0.004123	0.001310	-0.006578	-0.836426	0.599609	-0.699951	0.049671	-0.027578	0.080496	0.323996	-0.299258	0.048339	-0.896178	-18.969367	-30.334939	-135.060777
31138		4.987085	-2.742697	8.048013	0.008496	-0.022617	0.044459	0.004585	-0.000146	-0.006596	-0.834229	0.591064	-0.703125	0.049870	-0.027430	0.080480	0.324002	-0.299248	0.048339	-0.896179	-18.968880	-30.333697	-135.060562
31139		4.953278	-2.736174	8.050522	0.033922	-0.007000	0.027603	0.002090	0.002264	-0.009700	-0.828125	0.592773	-0.713867	0.049532	-0.027365	0.080504	0.323983	-0.299230	0.048350	-0.896191	-18.968429	-30.331723	-135.063632
31140		4.961702	-2.789438	8.051377	-0.000405	0.029626	0.047497	0.002031	0.002245	-0.011301	-0.840332	0.589111	-0.698975	0.049616	-0.027898	0.080513	0.323963	-0.299214	0.048359	-0.896203	-18.967654	-30.330062	-135.066886
31141		4.989286	-2.740032	8.072810	0.021845	-0.023768	0.065064	0.004585	-0.000145	-0.006596	-0.831055	0.597900	-0.695801	0.049892	-0.027404	0.080728	0.323959	-0.299200	0.048359	-0.896209	-18.966619	-30.328667	-135.068143
31142		4.945976	-2.768887	8.027914	0.006659	0.020103	0.014640	-0.000170	0.004751	-0.006405	-0.833496	0.598145	-0.693359	0.049461	-0.027690	0.080278	0.323957	-0.299175	0.048388	-0.896217	-18.968383	-30.324737	-135.068864
31143		4.933627	-2.748047	8.052954	0.039797	0.013382	0.023000	0.001276	0.000405	-0.004860	-0.833740	0.600342	-0.694336	0.049336	-0.027482	0.080529	0.323966	-0.299169	0.048408	-0.896215	-18.970573	-30.322959	-135.067534
31144		4.947850	-2.767497	8.052482	0.020005	0.019633	0.035253	0.002611	0.000828	-0.008119	-0.836914	0.600830	-0.696289	0.049478	-0.027678	0.080524	0.323961	-0.299157	0.048416	-0.896220	-18.970627	-30.321474	-135.068485
31145		4.967856	-2.752889	8.050760	0.014811	-0.004506	0.039849	0.001217	0.000385	-0.006460	-0.832520	0.610107	-0.699951	0.049678	-0.027531	0.080507	0.323962	-0.299152	0.048434	-0.896220	-18.972426	-30.320063	-135.068119
31146		4.962211	-2.786370	8.052125	0.000400	0.025105	0.047510	0.004123	0.001310	-0.006578	-0.835938	0.599121	-0.700684	0.049622	-0.027867	0.080520	0.323967	-0.299135	0.048439	-0.896224	-18.972050	-30.318030	-135.068207
31147		4.926574	-2.780341	8.030353	0.012812	0.039621	0.010055	0.005458	0.001734	-0.009838	-0.841309	0.601563	-0.705078	0.049265	-0.027808	0.080302	0.323969	-0.299116	0.048433	-0.896230	-18.970224	-30.316240	-135.069075
31148		4.966462	-2.751401	8.026884	0.002185	-0.007864	0.019238	0.001100	0.000346	-0.009661	-0.832275	0.602295	-0.707031	0.049663	-0.027517	0.080269	0.323955	-0.299110	0.048445	-0.896236	-18.970709	-30.315303	-135.070889
31149		4.930658	-2.777429	8.079326	0.039142	0.040186	0.051280	0.011205	-0.001243	-0.010071	-0.837402	0.599365	-0.702393	0.049305	-0.027781	0.080792	0.323960	-0.299093	0.048408	-0.896242	-18.965468	-30.315115	-135.072164
31150		4.968658	-2.748774	8.051671	0.015473	-0.008347	0.039846	0.002616	0.005637	-0.009725	-0.837402	0.605469	-0.698242	0.049688	-0.027491	0.080515	0.323947	-0.299061	0.048422	-0.896257	-18.964487	-30.311323	-135.075159
31151		4.981056	-2.768539	8.026985	-0.017333	-0.003178	0.031494	0.004990	-0.001620	-0.008215	-0.838623	0.599854	-0.703369	0.049809	-0.027689	0.080270	0.323948	-0.299057	0.048416	-0.896258	-18.963678	-30.311213	-135.075317
31152		4.970813	-2.746675	8.076299	0.028815	-0.008833	0.060454	0.002553	0.000808	-0.009721	-0.827881	0.595703	-0.704102	0.049707	-0.027470	0.080762	0.323936	-0.299047	0.048422	-0.896265	-18.963262	-30.310037	-135.077268
31153		4.990849	-2.732073	8.074541	0.023543	-0.032970	0.065034	-0.000235	-0.000079	-0.006401	-0.840332	0.600830	-0.707520	0.049908	-0.027322	0.080745	0.323937	-0.299042	0.048444	-0.896266	-18.965507	-30.308540	-135.076872
31154		4.958746	-2.725502	8.101258	0.062019	-0.016295	0.068800	-0.002555	0.002388	-0.004706	-0.838867	0.602295	-0.705811	0.049588	-0.027255	0.081012	0.323939	-0.299031	0.048483	-0.896266	-18.969434	-30.305574	-135.076016
31155		4.955229	-2.726791	8.052504	0.036043	-0.019130	0.027579	-0.004476	-0.001429	-0.003023	-0.834473	0.604492	-0.705322	0.049551	-0.027267	0.080526	0.323947	-0.299039	0.048527	-0.896258	-18.975374	-30.304278	-135.073387
31156		5.005374	-2.752324	8.073621	0.004003	-0.028257	0.077287	-0.008312	-0.004254	-0.001263	-0.834229	0.596436	-0.705322	0.050052	-0.027520	0.080738	0.323959	-0.299066	0.048586	-0.896242	-18.984412	-30.304269	-135.068938
31157		4.969837	-2.747932	8.051230	0.016353	-0.013677	0.039839	-0.010514	-0.001748	0.003634	-0.837158	0.595215	-0.704102	0.049698	-0.027474	0.080514	0.323992	-0.299083	0.048666	-0.896220	-18.995964	-30.301764	-135.061515
31158		4.928357	-2.777497	8.030243	0.014174	0.031283	0.010083	-0.006796	0.001038	-0.001327	-0.840332	0.597412	-0.707764	0.049284	-0.027773	0.080303	0.324004	-0.299085	0.048727	-0.896212	-19.003536	-30.298898	-135.058250
31159		4.998186	-2.788940	8.049637	-0.023267	-0.001201	0.064365	-0.005406	-0.003327	-0.001382	-0.831055	0.600586	-0.698486	0.049980	-0.027888	0.080498	0.324009	-0.299102	0.048775	-0.896202	-19.010459	-30.298400	-135.055355
31160		4.978656	-2.803319	8.051155	-0.017768	0.021418	0.059796	-0.004013	-0.002883	-0.003041	-0.835693	0.603271	-0.703125	0.049785	-0.028032	0.080513	0.324019	-0.299116	0.048814	-0.896191	-19.016321	-30.297978	-135.052319
31161		4.955520	-2.818816	8.004022	-0.038363	0.041940	0.014013	-0.003954	-0.002864	-0.001441	-0.833740	0.595947	-0.700439	0.049554	-0.028187	0.080041	0.324040	-0.299130	0.048856	-0.896176	-19.022847	-30.297127	-135.047593
31162		4.966904	-2.783273	8.075548	0.015472	0.013935	0.068142	-0.003954	-0.002864	-0.001441	-0.833008	0.605225	-0.708984	0.049668	-0.027831	0.080757	0.324057	-0.299144	0.048898	-0.896163	-19.029179	-30.296395	-135.043557
31163		4.959739	-2.817979	8.052197	-0.012040	0.042471	0.055238	-0.002156	-0.003894	-0.004720	-0.831787	0.607666	-0.705811	0.049595	-0.028180	0.080523	0.324066	-0.299159	0.048924	-0.896154	-19.033519	-30.296601	-135.040928
31164		4.932089	-2.778109	8.052982	0.027941	0.027786	0.030704	-0.000648	-0.008221	-0.001574	-0.839600	0.602051	-0.690918	0.049317	-0.027781	0.080532	0.324088	-0.299192	0.048942	-0.896134	-19.038500	-30.298795	-135.035816
31165		4.939365	-2.832402	8.028981	-0.019425	0.063273	0.030076	-0.000417	-0.004944	-0.009599	-0.841309	0.592529	-0.697510	0.049390	-0.028326	0.080291	0.324079	-0.299213	0.048953	-0.896129	-19.040845	-30.300731	-135.035664
31166		4.965756	-2.783503	8.025683	-0.010092	0.008803	0.026928	0.007247	-0.008911	-0.009910	-0.843262	0.595947	-0.704346	0.049653	-0.027840	0.080258	0.324076	-0.299239	0.048922	-0.896124	-19.038740	-30.304856	-135.035631
31167		4.972306	-2.748519	8.024252	0.004613	-0.022216	0.019215	0.004404	-0.005009	-0.009796	-0.831299	0.596436	-0.703857	0.049720	-0.027489	0.080243	0.324048	-0.299251	0.048913	-0.896130	-19.037574	-30.307178	-135.038952
31168		4.987151	-2.767666	8.023501	-0.015181	-0.016008	0.031485	0.003474	-0.006908	-0.008154	-0.833252	0.595703	-0.702881	0.049868	-0.027680	0.080236	0.324047	-0.299273	0.048905	-0.896124	-19.037967	-30.309891	-135.038251
31169		5.005592	-2.785566	8.071461	-0.008921	-0.007756	0.084972	0.005856	-0.004546	-0.009856	-0.844238	0.595947	-0.696777	0.050053	-0.027860	0.080715	0.324039	-0.299279	0.048887	-0.896126	-19.035971	-30.311458	-135.039496
31170		4.990293	-2.765584	8.047524	-0.001914	-0.016490	0.052091	-0.000358	-0.004926	-0.007998	-0.835449	0.587402	-0.700928	0.049900	-0.027658	0.080477	0.324032	-0.299298	0.048899	-0.896121	-19.038393	-30.313068	-135.039127
31171		4.978483	-2.744908	8.072175	0.031199	-0.023104	0.060423	-0.002096	-0.003876	-0.003119	-0.839355	0.597900	-0.699707	0.049783	-0.027449	0.080723	0.324023	-0.299314	0.048932	-0.896117	-19.042914	-30.313523	-135.038593
31172		4.977201	-2.745382	8.047551	0.018280	-0.024876	0.039813	-0.001811	-0.005389	-0.007939	-0.838623	0.607178	-0.705566	0.049769	-0.027455	0.080477	0.324015	-0.299338	0.048950	-0.896111	-19.046238	-30.315373	-135.038087
31173		4.943900	-2.739605	8.049530	0.043703	-0.009208	0.022988	-0.004014	-0.007694	-0.001436	-0.837158	0.606934	-0.704590	0.049436	-0.027395	0.080498	0.324032	-0.299374	0.048985	-0.896091	-19.053231	-30.317253	-135.033063
31174		4.966298	-2.725144	8.071498	0.051531	-0.032323	0.048140	-0.005062	-0.009632	-0.002996	-0.831299	0.596924	-0.703613	0.049659	-0.027250	0.080718	0.324041	-0.299421	0.049018	-0.896070	-19.060448	-30.320475	-135.028536
31175		5.007581	-2.785977	8.044823	-0.021192	-0.013276	0.064361	-0.010752	-0.006639	-0.001160	-0.833740	0.599609	-0.702637	0.050073	-0.027856	0.080451	0.324055	-0.299461	0.049084	-0.896048	-19.071199	-30.321499	-135.022877
31176		4.977972	-2.747658	8.021034	0.005740	-0.028939	0.019197	-0.011096	-0.005146	0.002059	-0.838623	0.598389	-0.697754	0.049778	-0.027472	0.080213	0.324077	-0.299496	0.049159	-0.896024	-19.082984	-30.321345	-135.016150
31177		4.952798	-2.796908	8.023496	-0.003350	0.024026	0.022393	-0.014525	-0.004638	0.000597	-0.834229	0.597900	-0.696777	0.049526	-0.027963	0.080238	0.324084	-0.299535	0.049249	-0.896004	-19.096192	-30.321204	-135.010948
31178		4.960685	-2.763550	8.045938	0.024407	-0.006040	0.035261	-0.013942	-0.006055	0.003779	-0.833008	0.605469	-0.691162	0.049605	-0.027629	0.080463	0.324109	-0.299578	0.049338	-0.895975	-19.110251	-30.321216	-135.002946
31179		4.959325	-2.765475	8.020851	0.011530	-0.007827	0.014653	-0.014930	-0.007973	0.003819	-0.837402	0.600342	-0.697510	0.049591	-0.027648	0.080213	0.324135	-0.299633	0.049430	-0.895942	-19.125425	-30.322346	-134.994251
31180		5.003152	-2.737662	8.065029	0.027068	-0.053327	0.064936	-0.017716	-0.008863	0.007138	-0.832275	0.603271	-0.704590	0.050029	-0.027368	0.080655	0.324171	-0.299694	0.049536	-0.895903	-19.143019	-30.323244	-134.983530
31181		4.922302	-2.796644	8.047112	0.035531	0.038437	0.026192	-0.018987	-0.004461	0.010397	-0.835693	0.602051	-0.695313	0.049223	-0.027956	0.080475	0.324220	-0.299736	0.049660	-0.895865	-19.161913	-30.321033	-134.971568
31182		4.999992	-2.742717	8.014711	0.001218	-0.056867	0.023713	-0.018060	-0.007371	0.010357	-0.833984	0.600342	-0.704834	0.049998	-0.027417	0.080151	0.324269	-0.299791	0.049776	-0.895822	-19.180558	-30.320512	-134.959155
31183		4.954917	-2.807054	8.018644	-0.002547	0.019469	0.022404	-0.021488	-0.006862	0.008894	-0.834717	0.604004	-0.701904	0.049548	-0.028060	0.080191	0.324306	-0.299848	0.049905	-0.895782	-19.200635	-30.319922	-134.947910
31184		4.933390	-2.823652	7.995356	-0.010126	0.041099	-0.002730	-0.016665	-0.002116	0.007095	-0.844971	0.607666	-0.696533	0.049334	-0.028228	0.079956	0.324342	-0.299877	0.050018	-0.895754	-19.216869	-30.317165	-134.938689
31185		4.955180	-2.810652	8.017220	-0.002258	0.017958	0.022406	-0.017251	-0.005508	0.005514	-0.835693	0.602295	-0.701904	0.049550	-0.028098	0.080176	0.324368	-0.299924	0.050126	-0.895722	-19.233489	-30.316630	-134.929885
31186		4.935642	-2.826233	8.018331	0.003215	0.040594	0.017883	-0.014466	-0.004617	0.002194	-0.825439	0.604980	-0.698242	0.049355	-0.028256	0.080186	0.324386	-0.299962	0.050218	-0.895698	-19.247188	-30.316147	-134.923191
31187		4.997325	-2.784625	8.036587	0.000345	-0.029359	0.052061	-0.013942	-0.006054	0.003773	-0.831543	0.597168	-0.702148	0.049971	-0.027840	0.080369	0.324418	-0.300004	0.050306	-0.895667	-19.261298	-30.315881	-134.914363
31188		4.967562	-2.779338	8.086824	0.051855	-0.011646	0.076462	-0.016670	-0.011739	0.010291	-0.835693	0.607666	-0.701416	0.049672	-0.027784	0.080873	0.324471	-0.300075	0.050408	-0.895619	-19.279608	-30.317716	-134.901036
31189		5.021953	-2.772899	8.081567	0.021343	-0.052266	0.097788	-0.017133	-0.010284	0.010311	-0.837158	0.599365	-0.699951	0.050217	-0.027719	0.080821	0.324523	-0.300139	0.050513	-0.895572	-19.297906	-30.318576	-134.888022
31190		4.980877	-2.804104	8.059720	0.019100	-0.007241	0.068143	-0.026534	-0.010084	0.017108	-0.833252	0.610596	-0.693604	0.049807	-0.028026	0.080603	0.324590	-0.300218	0.050672	-0.895513	-19.323840	-30.318216	-134.870786
31191		4.939648	-2.835715	8.037803	0.016868	0.037776	0.038504	-0.023628	-0.009158	0.016988	-0.833496	0.607422	-0.699707	0.049395	-0.028343	0.080384	0.324661	-0.300288	0.050820	-0.895455	-19.348098	-30.317384	-134.853839
31192		5.002104	-2.883931	8.032966	-0.048124	0.034387	0.079894	-0.022357	-0.008746	0.012127	-0.841797	0.614502	-0.699219	0.050019	-0.028827	0.080335	0.324712	-0.300354	0.050955	-0.895407	-19.369916	-30.317235	-134.840017
31193		4.941228	-2.928788	8.012985	-0.045022	0.102774	0.045755	-0.015279	-0.011293	0.008625	-0.834717	0.602539	-0.710938	0.049409	-0.029280	0.080135	0.324764	-0.300423	0.051049	-0.895360	-19.387113	-30.319057	-134.827113
31194		4.993888	-2.922191	7.983512	-0.088551	0.061152	0.046471	-0.007795	-0.010500	0.001906	-0.830322	0.605713	-0.702393	0.049935	-0.029218	0.079839	0.324791	-0.300476	0.051101	-0.895329	-19.397553	-30.321793	-134.819304
31195		4.907050	-2.925191	7.989484	-0.032650	0.116735	0.008364	-0.006061	-0.011542	-0.002975	-0.833252	0.610352	-0.702148	0.049065	-0.029250	0.079899	0.324803	-0.300529	0.051133	-0.895305	-19.405224	-30.325615	-134.814118
31196		4.963861	-2.916166	8.008918	-0.050063	0.077098	0.050286	0.005837	-0.014155	-0.006677	-0.839111	0.607178	-0.694336	0.049632	-0.029166	0.080092	0.324814	-0.300579	0.051105	-0.895286	-19.405548	-30.331958	-134.810875
31197		4.986221	-2.812222	8.053585	0.019975	-0.012612	0.068135	0.004202	-0.014668	-0.011419	-0.831299	0.605469	-0.691162	0.049855	-0.028127	0.080539	0.324804	-0.300636	0.051076	-0.895272	-19.405522	-30.339426	-134.810159
31198		4.978215	-2.846432	8.005447	-0.020605	0.014954	0.034715	0.004324	-0.014635	-0.008219	-0.843750	0.605957	-0.697754	0.049775	-0.028468	0.080058	0.324805	-0.300691	0.051052	-0.895254	-19.406281	-30.346322	-134.807775
31199		4.967246	-2.825331	8.029899	0.012542	0.008288	0.043026	0.001421	-0.010750	-0.009695	-0.835449	0.599609	-0.693848	0.049667	-0.028256	0.080301	0.324790	-0.300735	0.051046	-0.895246	-19.407927	-30.351547	-134.807745
31200		4.978778	-2.845531	7.980100	-0.033371	0.012462	0.014113	0.004789	-0.011278	-0.009836	-0.837646	0.600342	-0.698975	0.049782	-0.028460	0.079803	0.324784	-0.300774	0.051022	-0.895236	-19.407533	-30.356937	-134.807114
31201		4.981816	-2.843991	8.004075	-0.020195	0.012733	0.034719	0.007633	-0.010368	-0.011556	-0.838135	0.597168	-0.702637	0.049812	-0.028446	0.080042	0.324763	-0.300805	0.050986	-0.895235	-19.404636	-30.362271	-134.809257
31202		4.905422	-2.866269	7.961358	-0.010267	0.073296	-0.032278	0.007696	-0.005540	-0.011551	-0.831787	0.608887	-0.697998	0.049050	-0.028669	0.079614	0.324753	-0.300815	0.050956	-0.895237	-19.401393	-30.364886	-134.810967
31203		4.934584	-2.904697	7.959954	-0.050034	0.086352	-0.007674	0.011930	-0.008995	-0.013337	-0.831299	0.604248	-0.693848	0.049340	-0.029055	0.079600	0.324739	-0.300832	0.050899	-0.895240	-19.395349	-30.369574	-134.813456
31204		4.964856	-2.853531	8.005744	-0.014515	0.033872	0.030229	0.016042	-0.002861	-0.021515	-0.834229	0.601074	-0.699219	0.049644	-0.028547	0.080056	0.324696	-0.300819	0.050821	-0.895264	-19.383870	-30.372636	-134.821999
31205		4.949795	-2.831696	7.982361	-0.007532	0.025231	-0.002674	0.020461	-0.006264	-0.018500	-0.835938	0.604980	-0.703857	0.049493	-0.028330	0.079822	0.324673	-0.300812	0.050722	-0.895281	-19.371147	-30.376869	-134.828056
31206		4.873565	-2.852697	7.940063	0.002384	0.085819	-0.069652	0.019410	-0.008200	-0.020063	-0.837891	0.604492	-0.697266	0.048730	-0.028540	0.079400	0.324642	-0.300816	0.050622	-0.895296	-19.358790	-30.382539	-134.834516
31207		4.997486	-2.796619	8.052036	0.021234	-0.020134	0.068120	0.021265	-0.009209	-0.021747	-0.839844	0.603516	-0.693115	0.049968	-0.027980	0.080520	0.324606	-0.300822	0.050511	-0.895313	-19.344868	-30.388963	-134.841997
31208		4.899907	-2.831961	7.987172	0.023410	0.062881	-0.023944	0.023583	-0.011673	-0.023453	-0.834229	0.601807	-0.702148	0.048991	-0.028335	0.079871	0.324568	-0.300836	0.050381	-0.895329	-19.329428	-30.397150	-134.849822
31209		5.010059	-2.900524	7.955962	-0.099817	0.048811	0.025946	0.025902	-0.014136	-0.025159	-0.841064	0.599609	-0.699951	0.050091	-0.029022	0.079559	0.324522	-0.300858	0.050236	-0.895347	-19.312341	-30.406996	-134.858737
31210		5.014664	-2.807420	8.027344	-0.011364	-0.016484	0.059815	0.027754	-0.010334	-0.028443	-0.834717	0.601807	-0.702393	0.050138	-0.028092	0.080272	0.324467	-0.300861	0.050083	-0.895375	-19.292774	-30.415401	-134.869991
31211		4.974689	-2.832628	8.007063	-0.013684	0.028604	0.030247	0.028804	-0.008397	-0.026885	-0.831787	0.609619	-0.698486	0.049740	-0.028344	0.080069	0.324415	-0.300851	0.049932	-0.895405	-19.272647	-30.422388	-134.881499
31212		4.982011	-2.794771	8.006137	0.001056	-0.002438	0.022423	0.032052	-0.013770	-0.028633	-0.838623	0.600098	-0.703857	0.049811	-0.027968	0.080060	0.324366	-0.300863	0.049753	-0.895429	-19.250930	-30.432680	-134.892129
31213		4.987527	-2.789679	8.055102	0.027281	-0.001276	0.063631	0.030658	-0.009406	-0.028574	-0.835693	0.599365	-0.694824	0.049867	-0.027916	0.080549	0.324321	-0.300855	0.049588	-0.895457	-19.229577	-30.440353	-134.902993
31214		5.021161	-2.792239	8.028577	-0.010895	-0.019525	0.059810	0.025774	-0.009367	-0.029972	-0.833984	0.610840	-0.699219	0.050204	-0.027940	0.080285	0.324256	-0.300857	0.049443	-0.895488	-19.210535	-30.448509	-134.915437
31215		5.022693	-2.788834	8.028803	-0.010754	-0.020323	0.059809	0.026551	-0.010725	-0.021990	-0.835449	0.601807	-0.700928	0.050220	-0.027905	0.080287	0.324235	-0.300862	0.049304	-0.895501	-19.193971	-30.455754	-134.921706
31216		4.992195	-2.779253	8.055815	0.027685	-0.003581	0.063629	0.024912	-0.011250	-0.026733	-0.840332	0.600586	-0.695313	0.049914	-0.027809	0.080557	0.324184	-0.300873	0.049165	-0.895524	-19.176655	-30.464312	-134.931713
31217		5.015561	-2.761343	8.078282	0.035563	-0.026776	0.088703	0.020620	-0.012627	-0.024947	-0.839355	0.601563	-0.698975	0.050147	-0.027628	0.080783	0.324132	-0.300897	0.049046	-0.895541	-19.162538	-30.473253	-134.940534
31218		5.063406	-2.784668	8.050785	-0.022539	-0.038157	0.097188	0.020279	-0.011133	-0.021726	-0.835205	0.605225	-0.701172	0.050627	-0.027860	0.080508	0.324097	-0.300914	0.048935	-0.895554	-19.149453	-30.480802	-134.947428
31219		5.070230	-2.748102	8.049578	-0.007796	-0.069225	0.089340	0.017089	-0.005742	-0.018382	-0.839355	0.593750	-0.704102	0.050697	-0.027493	0.080495	0.324074	-0.300910	0.048853	-0.895568	-19.138757	-30.484646	-134.952866
31220		5.041994	-2.795509	8.004249	-0.043092	-0.018230	0.051510	0.012331	-0.005666	-0.016573	-0.839111	0.599365	-0.697510	0.050415	-0.027964	0.080042	0.324048	-0.300914	0.048794	-0.895580	-19.131261	-30.488266	-134.957719
31221		5.040905	-2.794209	7.980071	-0.056051	-0.019927	0.030906	0.014767	-0.003279	-0.016680	-0.836670	0.606689	-0.697998	0.050405	-0.027952	0.079799	0.324017	-0.300902	0.048729	-0.895598	-19.121812	-30.490589	-134.964219
31222		4.995153	-2.766288	8.007840	0.002314	-0.010047	0.022418	0.012105	0.000679	-0.011754	-0.835938	0.605957	-0.701904	0.049950	-0.027671	0.080077	0.324010	-0.300877	0.048689	-0.895611	-19.115279	-30.489868	-134.967428
31223		4.977625	-2.778032	8.034518	0.020819	0.013514	0.038560	0.014757	0.001529	-0.018286	-0.837891	0.601074	-0.703857	0.049774	-0.027791	0.080343	0.323990	-0.300845	0.048628	-0.895633	-19.105342	-30.489674	-134.973452
31224		4.992326	-2.795842	8.034315	0.001020	0.019626	0.050876	0.014301	-0.001825	-0.016662	-0.840332	0.598145	-0.694580	0.049920	-0.027968	0.080342	0.323965	-0.300828	0.048566	-0.895651	-19.096263	-30.491228	-134.979199
31225		4.992933	-2.793959	8.034593	0.001148	0.018870	0.050878	0.012913	-0.002271	-0.014998	-0.837158	0.606201	-0.699463	0.049926	-0.027949	0.080345	0.323944	-0.300815	0.048514	-0.895666	-19.088545	-30.492692	-134.984138
31226		5.003810	-2.813138	7.985711	-0.044778	0.023057	0.021991	0.016800	0.000583	-0.015169	-0.836426	0.599854	-0.695557	0.050036	-0.028142	0.079855	0.323929	-0.300784	0.048447	-0.895685	-19.078244	-30.492661	-134.989472
31227		5.011797	-2.776420	8.009080	-0.016943	-0.007047	0.034731	0.014831	-0.003259	-0.015082	-0.839355	0.597656	-0.691406	0.050115	-0.027774	0.080090	0.323919	-0.300773	0.048384	-0.895696	-19.069771	-30.494596	-134.993143
31228		5.008581	-2.807735	8.035223	-0.018375	0.023427	0.063201	0.019298	0.002992	-0.013677	-0.840332	0.602539	-0.693848	0.050085	-0.028089	0.080349	0.323914	-0.300726	0.048313	-0.895717	-19.058249	-30.492980	-134.998061
31229		4.972910	-2.800523	8.014061	-0.006018	0.038268	0.025831	0.015677	0.003426	-0.019938	-0.835693	0.594482	-0.699219	0.049728	-0.028016	0.080138	0.323871	-0.300687	0.048251	-0.895749	-19.047034	-30.492515	-135.007410
31230		4.961143	-2.777469	8.039527	0.027108	0.031616	0.034115	0.022305	-0.002463	-0.021827	-0.834473	0.594727	-0.700439	0.049607	-0.027789	0.080393	0.323836	-0.300662	0.048145	-0.895776	-19.031791	-30.495375	-135.016267
31231		5.003229	-2.745615	8.060503	0.029666	-0.015003	0.063613	0.019981	-0.000001	-0.020125	-0.834717	0.602051	-0.702881	0.050030	-0.027469	0.080602	0.323801	-0.300627	0.048056	-0.895805	-19.017955	-30.496452	-135.025054
31232		4.996341	-2.777664	8.038124	0.002103	0.013554	0.050887	0.021432	0.000466	-0.020190	-0.835938	0.597168	-0.708984	0.049961	-0.027790	0.080378	0.323771	-0.300590	0.047961	-0.895834	-19.003410	-30.497417	-135.033518
31233		4.962950	-2.769222	8.041256	0.027404	0.029331	0.034122	0.023288	-0.000543	-0.021876	-0.835205	0.593018	-0.701904	0.049626	-0.027707	0.080409	0.323744	-0.300551	0.047852	-0.895862	-18.987247	-30.498847	-135.042014
31234		5.006128	-2.793641	7.965813	-0.056822	0.016005	0.001406	0.025207	-0.001529	-0.021960	-0.837402	0.596191	-0.693604	0.050058	-0.027952	0.079655	0.323712	-0.300517	0.047734	-0.895891	-18.970193	-30.501218	-135.051161
31235		4.902876	-2.895486	7.977605	-0.044847	0.162595	-0.012904	0.028794	-0.003591	-0.028535	-0.839844	0.598145	-0.696289	0.049023	-0.028973	0.079773	0.323653	-0.300487	0.047588	-0.895931	-18.949154	-30.505912	-135.064501
31236		4.986518	-2.922108	7.972725	-0.115110	0.135544	0.032961	0.037482	-0.007225	-0.040147	-0.834961	0.592041	-0.703613	0.049856	-0.029246	0.079724	0.323559	-0.300463	0.047379	-0.895984	-18.919879	-30.514745	-135.083863
31237		5.035698	-2.764200	8.038820	-0.022547	-0.006822	0.067653	0.040601	-0.007835	-0.046708	-0.839600	0.593506	-0.693115	0.050347	-0.027670	0.080385	0.323439	-0.300437	0.047146	-0.896048	-18.886722	-30.525050	-135.107545
31238		4.973576	-2.746069	8.093164	0.054171	0.027468	0.075334	0.039556	-0.009782	-0.048270	-0.836670	0.598389	-0.699219	0.049725	-0.027489	0.080929	0.323313	-0.300423	0.046911	-0.896111	-18.853928	-30.536755	-135.131485
31239		4.984448	-2.762471	8.020099	-0.004802	0.030703	0.025858	0.040046	-0.016042	-0.046679	-0.838379	0.589600	-0.698975	0.049832	-0.027652	0.080199	0.323195	-0.300437	0.046667	-0.896161	-18.822220	-30.551600	-135.153131
31240		5.084033	-2.718007	8.060561	-0.019640	-0.054994	0.097115	0.039856	-0.016115	-0.051493	-0.841309	0.595947	-0.695557	0.050827	-0.027209	0.080604	0.323056	-0.300451	0.046416	-0.896220	-18.788891	-30.567312	-135.177766
31241		4.964690	-2.799452	8.024174	-0.013872	0.082877	0.029334	0.039920	-0.016091	-0.049898	-0.841064	0.601807	-0.700439	0.049633	-0.028023	0.080240	0.322919	-0.300465	0.046169	-0.896277	-18.756066	-30.582792	-135.202021
31242		5.014180	-2.730304	8.043241	0.003385	0.005976	0.050894	0.038813	-0.018065	-0.053062	-0.840332	0.598145	-0.703857	0.050127	-0.027332	0.080432	0.322772	-0.300491	0.045916	-0.896334	-18.723017	-30.599827	-135.227255
31243		5.056307	-2.695785	8.039478	-0.007051	-0.041671	0.059745	0.040708	-0.014245	-0.054771	-0.840088	0.591553	-0.700928	0.050550	-0.026988	0.080393	0.322629	-0.300496	0.045659	-0.896397	-18.688209	-30.614906	-135.253120
31244		5.073231	-2.709739	8.039287	-0.026849	-0.035596	0.072074	0.035951	-0.014180	-0.052959	-0.843506	0.593262	-0.701416	0.050719	-0.027125	0.080392	0.322477	-0.300508	0.045426	-0.896460	-18.656383	-30.629788	-135.279150
31245		5.054261	-2.719262	8.017221	-0.034497	-0.013878	0.047048	0.036423	-0.015633	-0.052983	-0.828125	0.601318	-0.694824	0.050529	-0.027221	0.080171	0.322325	-0.300526	0.045190	-0.896520	-18.624446	-30.645409	-135.305052
31246		5.090600	-2.719382	8.015006	-0.059582	-0.031227	0.063802	0.030820	-0.007809	-0.049551	-0.836426	0.596191	-0.693604	0.050896	-0.027219	0.080148	0.322180	-0.300517	0.044995	-0.896585	-18.595942	-30.656184	-135.330310
31247		5.103647	-2.677749	8.086923	-0.005552	-0.059531	0.117686	0.035768	-0.007794	-0.046568	-0.837158	0.592041	-0.703857	0.051027	-0.026804	0.080866	0.322076	-0.300500	0.044782	-0.896639	-18.566277	-30.666110	-135.350761
31248		5.035427	-2.662879	8.068207	0.031951	-0.028026	0.063577	0.030667	-0.006226	-0.041528	-0.839111	0.591309	-0.700439	0.050346	-0.026652	0.080680	0.321966	-0.300483	0.044603	-0.896693	-18.540257	-30.674540	-135.371306
31249		5.054679	-2.644958	8.042297	0.013714	-0.053179	0.047389	0.027359	-0.005691	-0.039778	-0.835938	0.596924	-0.692139	0.050539	-0.026471	0.080421	0.321866	-0.300466	0.044441	-0.896743	-18.516731	-30.682096	-135.389933
31250		5.065401	-2.694694	8.043757	-0.020736	-0.016870	0.067645	0.024998	-0.008062	-0.038058	-0.837891	0.585693	-0.697510	0.050646	-0.026967	0.080436	0.321763	-0.300466	0.044289	-0.896787	-18.495266	-30.690878	-135.407909
31251		5.066975	-2.690753	8.044085	-0.020568	-0.017676	0.067644	0.026038	-0.006110	-0.036510	-0.842285	0.591309	-0.704590	0.050662	-0.026927	0.080439	0.321676	-0.300455	0.044139	-0.896830	-18.473888	-30.698248	-135.424222
31252		5.036212	-2.680945	8.071337	0.017850	-0.000889	0.071495	0.020398	-0.003118	-0.033055	-0.837402	0.590088	-0.697266	0.050356	-0.026826	0.080711	0.321587	-0.300438	0.044024	-0.896873	-18.456132	-30.703424	-135.440089
31253		5.039439	-2.676601	8.096019	0.031051	-0.000751	0.092095	0.024718	-0.006528	-0.033240	-0.838379	0.590088	-0.701660	0.050387	-0.026784	0.080959	0.321511	-0.300429	0.043883	-0.896910	-18.436379	-30.710310	-135.454507
31254		5.072737	-2.679446	8.069491	-0.007096	-0.019052	0.088240	0.019141	-0.003508	-0.028180	-0.837402	0.597900	-0.705322	0.050722	-0.026809	0.080693	0.321443	-0.300415	0.043780	-0.896944	-18.420953	-30.714807	-135.467214
31255		5.037860	-2.672120	8.047982	0.005163	-0.004199	0.050894	0.016179	-0.004485	-0.029648	-0.843994	0.593506	-0.702393	0.050373	-0.026735	0.080479	0.321380	-0.300409	0.043684	-0.896973	-18.407157	-30.719704	-135.478530
31256		5.080182	-2.639703	8.068304	0.007819	-0.050879	0.080298	0.016782	-0.005880	-0.026457	-0.835938	0.581787	-0.705322	0.050796	-0.026411	0.080682	0.321316	-0.300408	0.043591	-0.897001	-18.393890	-30.725173	-135.489653
31257		5.045371	-2.632798	8.046609	0.020061	-0.035967	0.042951	0.011961	-0.005851	-0.026237	-0.835449	0.589111	-0.703125	0.050448	-0.026339	0.080466	0.321251	-0.300414	0.043518	-0.897026	-18.383431	-30.730337	-135.500126
31258		5.062695	-2.649451	8.070597	0.013332	-0.028989	0.075891	0.012717	-0.002358	-0.019861	-0.841797	0.595703	-0.691895	0.050623	-0.026505	0.080705	0.321210	-0.300403	0.043458	-0.897047	-18.374245	-30.732696	-135.507820
31259		5.048908	-2.627951	8.071233	0.033435	-0.036613	0.063544	0.009474	-0.001797	-0.016501	-0.841064	0.587402	-0.701416	0.050486	-0.026288	0.080712	0.321192	-0.300395	0.043418	-0.897058	-18.368424	-30.733990	-135.511748
31260		5.088916	-2.687125	8.021411	-0.052378	-0.018817	0.059377	0.009409	-0.001826	-0.018106	-0.843994	0.589111	-0.700439	0.050886	-0.026880	0.080213	0.321153	-0.300387	0.043377	-0.897077	-18.361643	-30.735741	-135.518443
31261		5.060398	-2.646302	8.022559	-0.012366	-0.033191	0.034685	0.008241	0.002645	-0.011645	-0.848389	0.592041	-0.701172	0.050604	-0.026469	0.080224	0.321144	-0.300359	0.043358	-0.897091	-18.357271	-30.733827	-135.521649
31262		5.040837	-2.659439	8.025068	-0.006964	-0.010512	0.030290	0.007161	0.005489	-0.014825	-0.833252	0.589111	-0.700928	0.050409	-0.026601	0.080248	0.321115	-0.300321	0.043343	-0.897114	-18.352053	-30.731007	-135.527804
31263		5.076810	-2.662494	8.047285	-0.018952	-0.027029	0.067626	0.007701	0.004067	-0.013235	-0.840576	0.593750	-0.702393	0.050768	-0.026631	0.080471	0.321103	-0.300288	0.043325	-0.897130	-18.347460	-30.728508	-135.531505
31264		5.042447	-2.656072	8.050421	0.006385	-0.011144	0.050888	0.006899	0.011858	-0.010024	-0.842285	0.592285	-0.703125	0.050428	-0.026566	0.080500	0.321095	-0.300220	0.043329	-0.897156	-18.343264	-30.721358	-135.535958
31265		5.008108	-2.739378	8.007957	-0.043700	0.070080	0.021228	0.007311	0.010377	-0.011643	-0.837891	0.586670	-0.697266	0.050084	-0.027400	0.080076	0.321092	-0.300159	0.043325	-0.897178	-18.338803	-30.715081	-135.539501
31266		5.002278	-2.682508	8.056053	0.017187	0.034155	0.042116	0.009647	0.007920	-0.013346	-0.834717	0.595703	-0.688965	0.050024	-0.026832	0.080557	0.321073	-0.300106	0.043305	-0.897203	-18.332382	-30.710671	-135.545227
31267		5.060769	-2.637777	8.050382	0.001594	-0.036970	0.055267	0.008135	0.007415	-0.014882	-0.834717	0.585938	-0.713379	0.050609	-0.026385	0.080501	0.321058	-0.300059	0.043289	-0.897225	-18.327005	-30.706766	-135.550028
31268		5.016056	-2.699523	8.056932	-0.002427	0.039365	0.054473	0.006898	0.011858	-0.010026	-0.843994	0.594482	-0.698486	0.050164	-0.027001	0.080565	0.321049	-0.299992	0.043293	-0.897250	-18.322813	-30.699614	-135.554478
31269		4.909671	-2.684346	8.016537	0.047112	0.086688	-0.036915	0.010059	0.006439	-0.014966	-0.845459	0.585938	-0.702148	0.049097	-0.026851	0.080162	0.321034	-0.299943	0.043265	-0.897273	-18.315896	-30.695955	-135.559622
31270		4.963605	-2.673315	8.012326	0.016789	0.045852	-0.015801	0.012662	-0.002388	-0.021468	-0.838623	0.587402	-0.699463	0.049632	-0.026744	0.080122	0.320986	-0.299932	0.043203	-0.897297	-18.306230	-30.698611	-135.568324
31271		5.007862	-2.730054	8.011294	-0.042881	0.065428	0.021263	0.016511	-0.004339	-0.021635	-0.833008	0.585449	-0.700439	0.050074	-0.027313	0.080112	0.320943	-0.299925	0.043121	-0.897319	-18.294614	-30.702345	-135.576688
31272		5.006291	-2.638883	8.032975	0.019624	-0.001616	0.013551	0.015017	-0.000016	-0.023200	-0.842773	0.592773	-0.700195	0.050060	-0.026401	0.080328	0.320890	-0.299901	0.043049	-0.897349	-18.282784	-30.704020	-135.586984
31273		4.953343	-2.645695	8.037995	0.050210	0.037683	-0.007549	0.016942	-0.000991	-0.023284	-0.827393	0.590576	-0.706299	0.049530	-0.026470	0.080378	0.320849	-0.299877	0.042967	-0.897376	-18.270214	-30.706050	-135.595866
31274		5.002808	-2.667847	8.035373	0.005213	0.027043	0.021536	0.018181	-0.005436	-0.028141	-0.840820	0.595703	-0.706055	0.050022	-0.026693	0.080353	0.320779	-0.299873	0.042865	-0.897407	-18.255551	-30.711556	-135.608158
31275		5.027474	-2.648683	8.082075	0.026207	0.004571	0.067102	0.014617	-0.005029	-0.032805	-0.837158	0.580322	-0.700684	0.050268	-0.026501	0.080820	0.320706	-0.299872	0.042770	-0.897438	-18.241702	-30.717107	-135.620693
31276		4.991065	-2.642623	8.035915	0.025379	0.018672	0.009182	0.015747	-0.012669	-0.027989	-0.841064	0.584717	-0.700684	0.049902	-0.026440	0.080360	0.320635	-0.299904	0.042668	-0.897458	-18.229249	-30.726517	-135.631386
31277		5.055286	-2.594880	8.077938	0.035904	-0.050589	0.063474	0.008395	-0.010285	-0.030882	-0.838135	0.585449	-0.702148	0.050545	-0.025960	0.080781	0.320538	-0.299937	0.042599	-0.897484	-18.219799	-30.735075	-135.644608
31278		5.042951	-2.662739	8.032446	-0.019490	0.007256	0.038267	0.012503	-0.012109	-0.024630	-0.847900	0.588623	-0.705811	0.050421	-0.026639	0.080326	0.320477	-0.299972	0.042517	-0.897498	-18.210226	-30.743576	-135.653295
31279		5.079869	-2.575227	8.099546	0.044001	-0.074654	0.088424	0.006790	-0.009158	-0.022776	-0.841064	0.586914	-0.701660	0.050792	-0.025761	0.080997	0.320419	-0.300001	0.042468	-0.897512	-18.204303	-30.750021	-135.661006
31280		5.097165	-2.650834	8.003001	-0.062735	-0.035299	0.038752	0.005549	-0.004713	-0.017921	-0.844727	0.587158	-0.704346	0.050967	-0.026515	0.080030	0.320376	-0.300012	0.042440	-0.897525	-18.200097	-30.753293	-135.666989
31281		5.051319	-2.623837	8.030194	-0.004399	-0.025254	0.030265	0.005135	-0.003231	-0.016303	-0.841553	0.575684	-0.696289	0.050510	-0.026245	0.080302	0.320344	-0.300016	0.042418	-0.897536	-18.196626	-30.755370	-135.671758
31282		5.102333	-2.646395	8.051673	-0.036309	-0.035031	0.079942	0.007202	0.000688	-0.013207	-0.844727	0.587402	-0.696289	0.051022	-0.026470	0.080516	0.320324	-0.299999	0.042398	-0.897550	-18.192424	-30.754859	-135.675879
31283		5.010840	-2.651414	8.010585	-0.006688	0.019240	0.000955	0.005352	0.006521	-0.011549	-0.838623	0.584473	-0.706299	0.050109	-0.026519	0.080104	0.320301	-0.299959	0.042399	-0.897571	-18.189291	-30.751052	-135.680854
31284		5.087533	-2.624523	8.052985	-0.016068	-0.043287	0.067573	0.005714	0.009838	-0.014804	-0.846191	0.576172	-0.700195	0.050877	-0.026251	0.080527	0.320269	-0.299904	0.042398	-0.897601	-18.184451	-30.745846	-135.687891
31285		5.077934	-2.659620	8.006836	-0.056806	-0.015630	0.034390	0.004663	0.014377	-0.005133	-0.841553	0.579102	-0.700684	0.050784	-0.026599	0.080064	0.320273	-0.299827	0.042424	-0.897624	-18.182701	-30.736391	-135.690450
31286		5.046921	-2.651659	8.058841	-0.005337	0.002104	0.058868	0.008259	0.012306	-0.011722	-0.833496	0.585449	-0.706055	0.050473	-0.026523	0.080584	0.320259	-0.299755	0.042419	-0.897653	-18.177140	-30.729289	-135.696046
31287		5.026629	-2.665162	8.061781	0.000007	0.024773	0.054520	0.005078	0.012895	-0.006753	-0.844482	0.587646	-0.709473	0.050271	-0.026655	0.080614	0.320265	-0.299684	0.042437	-0.897674	-18.174916	-30.720761	-135.698302
31288		4.977342	-2.639479	8.065432	0.045257	0.033970	0.025442	0.009345	0.009468	-0.008537	-0.844238	0.592041	-0.696533	0.049776	-0.026401	0.080651	0.320267	-0.299623	0.042429	-0.897694	-18.170067	-30.714633	-135.701290
31289		5.080897	-2.652946	8.082852	-0.017041	-0.016022	0.096177	0.003140	0.009038	-0.006639	-0.838379	0.580322	-0.697510	0.050812	-0.026532	0.080826	0.320275	-0.299574	0.042450	-0.897707	-18.169717	-30.708348	-135.702113
31290		5.006452	-2.644991	8.015451	-0.005790	0.013946	0.000965	0.005130	0.008097	-0.005116	-0.843018	0.581787	-0.702148	0.050067	-0.026453	0.080152	0.320286	-0.299525	0.042463	-0.897718	-18.168535	-30.702355	-135.702648
31291		5.036260	-2.593027	8.084991	0.043051	-0.037761	0.059066	0.000852	0.006695	-0.003301	-0.847656	0.581055	-0.700928	0.050365	-0.025931	0.080848	0.320296	-0.299489	0.042496	-0.897725	-18.170553	-30.696835	-135.702176
31292		5.036680	-2.682545	8.039731	-0.032319	0.026824	0.046304	0.002352	0.002375	-0.001733	-0.843506	0.582520	-0.697754	0.050368	-0.026827	0.080396	0.320320	-0.299470	0.042518	-0.897722	-18.172664	-30.693354	-135.699381
31293		4.934514	-2.666808	8.047377	0.043363	0.076217	-0.003820	0.002577	0.000798	-0.008168	-0.849365	0.588623	-0.691406	0.049344	-0.026671	0.080473	0.320308	-0.299460	0.042528	-0.897729	-18.172765	-30.692076	-135.701241
31294		5.038134	-2.590743	8.109767	0.056564	-0.039108	0.079651	0.001545	-0.001162	-0.009716	-0.847412	0.586670	-0.689453	0.050380	-0.025911	0.081098	0.320295	-0.299459	0.042535	-0.897734	-18.173134	-30.691947	-135.702765
31295		4.971837	-2.759594	8.023677	-0.043872	0.124231	0.020753	0.002215	-0.002518	-0.004912	-0.848633	0.571045	-0.693604	0.049717	-0.027598	0.080237	0.320301	-0.299468	0.042548	-0.897728	-18.175329	-30.692154	-135.701225
31296		5.038834	-2.589561	8.109711	0.056944	-0.040614	0.079642	0.004919	-0.001656	-0.009869	-0.853760	0.582764	-0.688232	0.050386	-0.025900	0.081097	0.320293	-0.299464	0.042539	-0.897733	-18.173767	-30.692321	-135.702743
31297		4.941013	-2.629973	8.045586	0.058777	0.043113	-0.011845	0.006357	-0.006007	-0.009906	-0.854980	0.579102	-0.682861	0.049406	-0.026305	0.080457	0.320267	-0.299481	0.042521	-0.897737	-18.171852	-30.695458	-135.705786
31298		4.952392	-2.650335	7.996532	0.012807	0.047331	-0.040657	0.008645	-0.003664	-0.013245	-0.855225	0.582275	-0.684814	0.049521	-0.026510	0.079965	0.320250	-0.299481	0.042487	-0.897745	-18.167277	-30.697321	-135.709026
31299		4.998748	-2.706687	8.019740	-0.033700	0.067701	0.017070	0.008933	-0.005210	-0.018075	-0.857178	0.579834	-0.694336	0.049983	-0.027075	0.080197	0.320198	-0.299493	0.042446	-0.897761	-18.161401	-30.701455	-135.716543
31300		4.958014	-2.645397	8.045073	0.039329	0.047643	0.000539	0.008572	-0.008525	-0.014819	-0.856201	0.584717	-0.686768	0.049575	-0.026461	0.080452	0.320174	-0.299516	0.042403	-0.897764	-18.156874	-30.706246	-135.719770
31301		5.039306	-2.584669	8.060556	0.031651	-0.046027	0.038433	0.009756	-0.013004	-0.021280	-0.864502	0.582275	-0.685059	0.050385	-0.025856	0.080608	0.320120	-0.299559	0.042338	-0.897772	-18.150131	-30.714750	-135.726669
31302		5.064976	-2.534661	8.056316	0.041270	-0.100409	0.034695	0.001344	-0.006090	-0.014502	-0.866455	0.581543	-0.682861	0.050645	-0.025351	0.080565	0.320087	-0.299582	0.042331	-0.897777	-18.149589	-30.718158	-135.730202
31303		5.107412	-2.593524	8.030726	-0.031487	-0.081869	0.051231	0.003343	-0.002200	-0.013013	-0.861328	0.578857	-0.680176	0.051072	-0.025940	0.080307	0.320061	-0.299584	0.042325	-0.897786	-18.148022	-30.719187	-135.733763
31304		5.232266	-2.343086	7.790186	-0.106885	-0.382124	-0.148515	0.014425	-0.006576	-0.013498	-0.862549	0.580566	-0.681152	0.052319	-0.023440	0.077902	0.320052	-0.299588	0.042260	-0.897791	-18.140361	-30.722680	-135.736560
31305		5.272965	-2.497227	7.940534	-0.132205	-0.266929	0.036356	0.005859	0.006778	0.001289	-0.865967	0.578125	-0.684814	0.052733	-0.024974	0.079403	0.320093	-0.299542	0.042278	-0.897790	-18.141008	-30.716215	-135.732758
31306		5.751177	-2.354549	7.970341	-0.331645	-0.663668	0.266788	0.008605	-0.006816	-0.001962	-0.867432	0.578125	-0.682861	0.057509	-0.023549	0.079704	0.320127	-0.299554	0.042256	-0.897775	-18.140439	-30.717781	-135.728198
31307		5.317758	-2.495652	8.084747	-0.078581	-0.279943	0.176578	0.001512	0.026336	0.012617	-0.864014	0.579346	-0.683838	0.053190	-0.024954	0.080840	0.320209	-0.299425	0.042341	-0.897785	-18.145160	-30.698659	-135.721281
31308		4.830428	-2.704679	8.108912	0.117846	0.177415	0.003493	0.002396	0.039568	0.022135	-0.867432	0.575439	-0.682373	0.048323	-0.027042	0.081079	0.320332	-0.299234	0.042457	-0.897800	-18.151018	-30.670670	-135.711093
31309		4.982815	-2.711108	8.098603	0.012105	0.086238	0.074594	0.003638	0.030291	0.017314	-0.863770	0.581299	-0.679688	0.049843	-0.027108	0.080978	0.320437	-0.299083	0.042547	-0.897808	-18.155607	-30.648555	-135.702031
31310		4.931889	-2.655242	8.052809	0.045887	0.063605	-0.003742	-0.000851	0.040125	0.025492	-0.866699	0.566162	-0.682373	0.049338	-0.026546	0.080518	0.320570	-0.298893	0.042683	-0.897817	-18.164336	-30.619662	-135.689847
31311		5.204039	-2.541935	8.003957	-0.089521	-0.199377	0.064509	0.004024	0.035313	0.026908	-0.860596	0.575928	-0.676025	0.052058	-0.025414	0.080030	0.320718	-0.298717	0.042793	-0.897818	-18.171251	-30.593095	-135.675770
31312		5.094594	-2.561329	8.039621	-0.015541	-0.118850	0.043094	-0.001903	0.049499	0.035114	-0.868652	0.584961	-0.680176	0.050970	-0.025604	0.080384	0.320891	-0.298485	0.042964	-0.897825	-18.182667	-30.557376	-135.659465
31313		5.095620	-2.560303	8.114900	0.023850	-0.117006	0.104865	-0.003485	0.044127	0.032003	-0.861816	0.582031	-0.686035	0.050978	-0.025593	0.081138	0.321048	-0.298280	0.043129	-0.897829	-18.194564	-30.525100	-135.644019
31314		5.116450	-2.603768	8.067702	-0.042062	-0.106083	0.088446	-0.010109	0.045180	0.035507	-0.863281	0.576416	-0.684082	0.051187	-0.026025	0.080667	0.321211	-0.298080	0.043331	-0.897827	-18.211232	-30.491655	-135.626599
31315		5.121913	-2.538326	8.066177	-0.012476	-0.167172	0.072260	-0.012943	0.044256	0.037244	-0.859863	0.575928	-0.686035	0.051242	-0.025368	0.080652	0.321378	-0.297889	0.043546	-0.897821	-18.230178	-30.458366	-135.607903
31316		4.992535	-2.573908	8.103270	0.066703	-0.063165	0.046570	-0.019998	0.041965	0.042395	-0.865479	0.584717	-0.680664	0.049948	-0.025720	0.081025	0.321558	-0.297718	0.043797	-0.897801	-18.255016	-30.425424	-135.585505
31317		4.976426	-2.647098	8.083729	0.024297	-0.004460	0.042159	-0.025264	0.033808	0.044292	-0.863037	0.579346	-0.675049	0.049784	-0.026450	0.080832	0.321740	-0.297592	0.044062	-0.897765	-18.284329	-30.396541	-135.560233
31318		4.986020	-2.703022	8.134618	0.015934	0.033373	0.103832	-0.024505	0.025982	0.039486	-0.866455	0.583008	-0.670654	0.049876	-0.027010	0.081343	0.321903	-0.297500	0.044303	-0.897724	-18.312463	-30.372799	-135.536387
31319		4.918921	-2.753228	8.068234	-0.007560	0.100415	0.029178	-0.026089	0.020613	0.036374	-0.859375	0.572021	-0.677246	0.049203	-0.027513	0.080681	0.322052	-0.297436	0.044538	-0.897681	-18.341078	-30.352497	-135.513397
31320		5.091300	-2.658794	8.100507	-0.042884	-0.079618	0.117094	-0.021109	0.014154	0.028159	-0.871094	0.576904	-0.680420	0.050922	-0.026572	0.081004	0.322172	-0.297395	0.044728	-0.897642	-18.364877	-30.337210	-135.494252
31321		4.912837	-2.760471	8.044350	-0.020392	0.098050	0.008601	-0.015376	0.016027	0.026285	-0.868652	0.580566	-0.675049	0.049138	-0.027592	0.080442	0.322292	-0.297337	0.044893	-0.897610	-18.384603	-30.321208	-135.476686
31322		4.873665	-2.790855	8.073017	0.003241	0.145086	0.020625	-0.016587	0.013976	0.019919	-0.873291	0.582275	-0.677490	0.048745	-0.027897	0.080729	0.322382	-0.297291	0.045050	-0.897585	-18.403193	-30.307496	-135.462712
31323		4.879053	-2.757856	8.095874	0.031187	0.115034	0.033119	-0.012917	0.011933	0.014949	-0.866455	0.585693	-0.674805	0.048797	-0.027570	0.080958	0.322456	-0.297249	0.045180	-0.897566	-18.418329	-30.295759	-135.451440
31324		4.963162	-2.666443	8.110661	0.038310	-0.008870	0.062745	-0.006845	0.007464	0.009892	-0.866699	0.580322	-0.683350	0.049636	-0.026659	0.081106	0.322517	-0.297219	0.045268	-0.897549	-18.428831	-30.287397	-135.442424
31325		5.159046	-2.613008	8.044832	-0.089205	-0.178996	0.093013	-0.014226	0.000196	0.007048	-0.862061	0.585205	-0.680420	0.051591	-0.026123	0.080450	0.322556	-0.297234	0.045374	-0.897525	-18.443445	-30.283465	-135.433671
31326		4.903112	-2.681094	8.041749	0.029660	0.027307	-0.019992	-0.009265	0.005061	0.010014	-0.864258	0.575684	-0.680176	0.049034	-0.026805	0.080417	0.322614	-0.297218	0.045469	-0.897504	-18.455623	-30.276383	-135.424079
31327		4.922272	-2.667974	8.039559	0.024585	0.003091	-0.015711	-0.012242	-0.000749	0.008574	-0.866211	0.582520	-0.677246	0.049224	-0.026673	0.080397	0.322663	-0.297234	0.045566	-0.897477	-18.469680	-30.272687	-135.414171
31328		4.886523	-2.696499	8.091864	0.061299	0.050981	0.016917	-0.014166	0.000226	0.008651	-0.872803	0.584717	-0.680664	0.048866	-0.026957	0.080920	0.322709	-0.297248	0.045674	-0.897450	-18.484742	-30.268476	-135.404425
31329		5.005835	-2.578764	8.028928	0.018778	-0.122421	-0.006732	-0.009207	-0.011058	0.000472	-0.873535	0.588867	-0.680908	0.050054	-0.025784	0.080293	0.322728	-0.297307	0.045729	-0.897421	-18.495582	-30.271849	-135.397447
31330		5.102024	-2.661821	8.073147	-0.059817	-0.111546	0.100718	-0.011905	-0.007090	0.005386	-0.870850	0.590576	-0.681152	0.051018	-0.026612	0.080735	0.322765	-0.297352	0.045809	-0.897389	-18.509088	-30.272203	-135.388217
31331		4.909961	-2.773971	8.066586	-0.006030	0.091379	0.029267	-0.009247	-0.006260	-0.001165	-0.861328	0.586182	-0.682861	0.049097	-0.027736	0.080669	0.322776	-0.297389	0.045870	-0.897369	-18.518921	-30.273266	-135.383280
31332		5.015706	-2.756871	8.033221	-0.079670	0.009256	0.050570	-0.005537	0.001356	-0.006198	-0.874512	0.590576	-0.685059	0.050157	-0.027568	0.080333	0.322768	-0.297388	0.045918	-0.897370	-18.524209	-30.271137	-135.383117
31333		4.895736	-2.755000	8.066549	0.014168	0.083200	0.016878	-0.007878	0.003813	-0.004505	-0.869385	0.582764	-0.681396	0.048958	-0.027548	0.080666	0.322763	-0.297379	0.045984	-0.897371	-18.531130	-30.267335	-135.382402
31334		4.956255	-2.711104	8.084789	0.011795	0.012888	0.050276	-0.004941	-0.000035	-0.003000	-0.867920	0.583984	-0.678955	0.049562	-0.027110	0.080849	0.322771	-0.297383	0.046032	-0.897365	-18.537237	-30.265380	-135.379935
31335		5.045854	-2.674949	8.027455	-0.054982	-0.076769	0.038562	-0.004128	-0.007826	-0.006201	-0.868408	0.591553	-0.679199	0.050455	-0.026749	0.080277	0.322767	-0.297420	0.046060	-0.897352	-18.542710	-30.268208	-135.377833
31336		5.033885	-2.654439	8.051691	-0.021815	-0.083347	0.046742	-0.005081	-0.004923	-0.006178	-0.879639	0.584717	-0.678467	0.050336	-0.026544	0.080519	0.322762	-0.297447	0.046096	-0.897344	-18.548409	-30.269487	-135.376334
31337		5.025649	-2.690428	8.004333	-0.062611	-0.055651	0.013699	-0.003572	-0.004418	-0.004640	-0.870361	0.588379	-0.677490	0.050254	-0.026904	0.080045	0.322765	-0.297468	0.046129	-0.897334	-18.553695	-30.270182	-135.373969
31338		4.956366	-2.712447	8.059126	-0.000773	0.009031	0.029689	-0.004942	-0.000035	-0.003000	-0.865723	0.582764	-0.676270	0.049563	-0.027123	0.080592	0.322773	-0.297471	0.046177	-0.897327	-18.559802	-30.268226	-135.371502
31339		4.931912	-2.760979	8.062640	-0.010201	0.061882	0.033580	-0.001272	-0.002075	-0.007970	-0.871338	0.589600	-0.683105	0.049317	-0.027611	0.080627	0.322764	-0.297479	0.046198	-0.897327	-18.562466	-30.268257	-135.371726
31340		5.123187	-2.650177	8.044032	-0.076736	-0.143464	0.084305	0.002082	-0.007404	-0.008083	-0.879150	0.586426	-0.681152	0.051228	-0.026505	0.080442	0.322761	-0.297505	0.046196	-0.897319	-18.563722	-30.271229	-135.370899
31341		4.933241	-2.759883	8.062202	-0.009944	0.060376	0.033590	0.004502	-0.005001	-0.008203	-0.873291	0.589844	-0.677734	0.049329	-0.027603	0.080623	0.322760	-0.297517	0.046186	-0.897316	-18.563314	-30.272894	-135.370652
31342		4.948221	-2.778659	8.061839	-0.029757	0.066282	0.046004	0.004341	-0.000262	-0.013049	-0.874512	0.588623	-0.675781	0.049480	-0.027792	0.080618	0.322737	-0.297508	0.046177	-0.897328	-18.560941	-30.272893	-135.374457
31343		4.866106	-2.747448	8.067029	0.040577	0.092506	0.000274	0.008191	-0.002212	-0.013205	-0.874512	0.586914	-0.672363	0.048658	-0.027481	0.080670	0.322718	-0.297503	0.046148	-0.897338	-18.556539	-30.273954	-135.377944
31344		4.915320	-2.770918	8.064372	-0.004369	0.081592	0.029354	0.009084	-0.005144	-0.014833	-0.880371	0.591064	-0.677246	0.049149	-0.027716	0.080644	0.322695	-0.297509	0.046108	-0.897346	-18.551402	-30.276930	-135.381841
31345		5.067812	-2.687696	8.049875	-0.060490	-0.076840	0.071510	0.011842	-0.009081	-0.018145	-0.871338	0.579346	-0.676270	0.050672	-0.026886	0.080499	0.322662	-0.297529	0.046044	-0.897355	-18.544073	-30.282620	-135.386985
31346		5.125911	-2.643508	8.019296	-0.089004	-0.148856	0.063654	0.009006	-0.010003	-0.016408	-0.878418	0.577881	-0.671143	0.051253	-0.026443	0.080194	0.322632	-0.297558	0.045993	-0.897358	-18.538997	-30.288522	-135.390849
31347		5.053841	-2.665479	8.025580	-0.053370	-0.085837	0.038496	0.012276	-0.005733	-0.019795	-0.872559	0.589111	-0.671143	0.050533	-0.026665	0.080256	0.322591	-0.297563	0.045930	-0.897375	-18.530536	-30.292697	-135.397740
31348		4.991227	-2.741291	8.033172	-0.052444	0.013966	0.033933	0.007559	-0.010480	-0.016343	-0.870850	0.587402	-0.683594	0.049906	-0.027420	0.080333	0.322560	-0.297596	0.045886	-0.897377	-18.526359	-30.298845	-135.401464
31349		5.062576	-2.748786	8.052532	-0.089472	-0.019627	0.087837	0.017558	-0.012034	-0.019988	-0.881104	0.590820	-0.680420	0.050618	-0.027500	0.080526	0.322528	-0.297621	0.045789	-0.897386	-18.515479	-30.306478	-135.407150
31350		4.986144	-2.835795	8.135245	-0.044092	0.106133	0.140823	0.012752	-0.007184	-0.019810	-0.872803	0.584717	-0.681152	0.049856	-0.028368	0.081352	0.322488	-0.297632	0.045721	-0.897400	-18.506873	-30.311466	-135.413753
31351		4.985607	-2.834478	8.110902	-0.057057	0.104540	0.120242	0.019067	-0.011526	-0.018452	-0.868896	0.585449	-0.675537	0.049849	-0.028357	0.081109	0.322465	-0.297651	0.045620	-0.897407	-18.495562	-30.318543	-135.418583
31352		5.148142	-2.650652	8.018120	-0.108121	-0.146769	0.076010	0.017915	-0.013546	-0.023214	-0.871826	0.584229	-0.681396	0.051473	-0.026520	0.080182	0.322419	-0.297683	0.045514	-0.897418	-18.483588	-30.327604	-135.425992
31353		5.251767	-2.663460	8.010896	-0.183350	-0.198056	0.125959	0.017451	-0.007267	-0.023238	-0.876953	0.591797	-0.677246	0.052512	-0.026648	0.080109	0.322370	-0.297688	0.045420	-0.897439	-18.471227	-30.333236	-135.434734
31354		5.149471	-2.677824	8.068442	-0.096420	-0.116525	0.125354	0.016664	-0.009102	-0.018367	-0.870361	0.588867	-0.681152	0.051489	-0.026790	0.080685	0.322343	-0.297700	0.045334	-0.897449	-18.461036	-30.338999	-135.440032
31355		5.091883	-2.719114	8.074667	-0.080751	-0.046849	0.112654	0.015290	-0.004719	-0.016729	-0.871582	0.581543	-0.682617	0.050915	-0.027202	0.080746	0.322320	-0.297695	0.045264	-0.897462	-18.451710	-30.342069	-135.445214
31356		5.039294	-2.726442	8.079167	-0.050320	-0.007279	0.091772	0.015339	-0.009517	-0.015090	-0.874268	0.584229	-0.675293	0.050387	-0.027274	0.080792	0.322306	-0.297711	0.045188	-0.897466	-18.443363	-30.347462	-135.448363
31357		4.884038	-2.840857	8.095532	-0.008786	0.179815	0.057952	0.006247	-0.006072	-0.013102	-0.879639	0.590576	-0.677246	0.048836	-0.028414	0.080956	0.322286	-0.297726	0.045161	-0.897469	-18.440514	-30.350611	-135.450978
31358		4.902784	-2.825625	8.069095	-0.026930	0.154760	0.041604	0.014616	-0.008192	-0.021503	-0.867676	0.586914	-0.671631	0.049021	-0.028267	0.080691	0.322242	-0.297739	0.045081	-0.897485	-18.430398	-30.356445	-135.458446
31359		5.083165	-2.781594	8.028927	-0.135943	0.008689	0.087866	0.012951	-0.023252	-0.026148	-0.878662	0.588135	-0.683350	0.050819	-0.027828	0.080293	0.322178	-0.297823	0.044978	-0.897486	-18.421380	-30.371292	-135.465673
31360		5.011335	-2.804057	8.010012	-0.113446	0.070936	0.042189	0.007679	-0.033117	-0.037105	-0.884033	0.589600	-0.677734	0.050095	-0.028053	0.080107	0.322058	-0.297962	0.044865	-0.897488	-18.412906	-30.393498	-135.477747
31361		4.644637	-2.987174	8.093048	0.060621	0.451160	-0.025652	0.008278	-0.057200	-0.057879	-0.880615	0.583740	-0.677979	0.046415	-0.029889	0.080943	0.321852	-0.298213	0.044681	-0.897488	-18.400039	-30.432540	-135.497864
31362		4.213087	-2.857566	8.265577	0.500527	0.637775	-0.139102	0.007881	-0.120399	-0.102484	-0.880859	0.585449	-0.676514	0.042066	-0.028600	0.082680	0.321459	-0.298758	0.044329	-0.897465	-18.379788	-30.514014	-135.532900
31363		3.170733	-4.006331	8.267594	0.521466	2.191985	-0.358559	0.043611	-0.233220	-0.209640	-0.875000	0.586426	-0.673584	0.031569	-0.040114	0.082704	0.320663	-0.299775	0.043477	-0.897452	-18.316556	-30.676119	-135.612097
31364		2.782665	-4.168147	8.744176	0.960349	2.642530	-0.134268	0.085805	-0.381491	-0.396076	-0.883301	0.577393	-0.669922	0.027577	-0.041774	0.087477	0.319125	-0.301429	0.041917	-0.897520	-18.183953	-30.952269	-135.778952
31365		3.135245	-3.267597	8.206937	0.959846	1.712370	-0.647170	0.237429	-0.664934	-0.489480	-0.885254	0.569336	-0.668945	0.030999	-0.032850	0.082134	0.317451	-0.304128	0.039084	-0.897331	-17.962510	-31.398874	-135.947990
31366		3.324041	-1.801056	9.364342	2.349769	0.656792	-0.013189	0.173585	-0.947208	-0.603571	-0.894775	0.567139	-0.655762	0.032742	-0.018191	0.093784	0.315215	-0.308210	0.035914	-0.896859	-17.766926	-32.019028	-136.134741
31367		3.069309	-2.897359	8.859425	1.686435	1.715190	-0.298630	0.143876	-1.184907	-0.761383	-0.903809	0.565430	-0.648682	0.030057	-0.029153	0.088753	0.312256	-0.313420	0.032259	-0.896227	-17.555879	-32.795672	-136.378616
31368		3.032654	-3.890464	8.651011	1.137211	2.626315	-0.274374	0.230064	-1.476882	-0.891020	-0.914551	0.553467	-0.638916	0.029513	-0.039137	0.086685	0.308879	-0.319806	0.027556	-0.895298	-17.275121	-33.753424	-136.653773
31369		3.194628	-2.959851	8.958950	1.821956	1.977022	-0.221155	0.300185	-1.783224	-1.027658	-0.912842	0.546631	-0.626221	0.030993	-0.029894	0.089824	0.305016	-0.327443	0.021846	-0.894019	-16.928734	-34.900469	-136.966747
31370		3.496684	-2.584865	8.771970	1.847299	1.644987	-0.339941	0.318160	-2.047314	-1.146069	-0.938965	0.537354	-0.608887	0.033917	-0.026185	0.088029	0.300645	-0.336206	0.015455	-0.892378	-16.543167	-36.210498	-137.319780
31371		4.911434	-4.236471	8.456103	0.089605	2.372112	0.576440	0.348963	-2.301617	-1.265982	-0.945801	0.514893	-0.593750	0.047867	-0.042818	0.085042	0.295763	-0.346013	0.008343	-0.890354	-16.103474	-37.677272	-137.722150
31372		8.368622	-6.219287	8.209718	-2.968519	2.392686	2.898153	0.889895	-2.274964	-1.315324	-0.959961	0.507813	-0.577393	0.082334	-0.063105	0.082759	0.291541	-0.354842	-0.001227	-0.888307	-15.303198	-39.133726	-138.192806
31373		7.412388	-2.734420	7.176891	-1.123670	0.088859	0.800929	1.186425	-2.494676	-1.425962	-0.971436	0.483643	-0.550781	0.073023	-0.028296	0.072518	0.287291	-0.364135	-0.012628	-0.885839	-14.273078	-40.721690	-138.741953
31374		6.943787	-2.491226	8.651863	0.335473	0.784952	1.524733	1.280099	-2.554582	-1.540314	-0.987793	0.462891	-0.530518	0.068129	-0.025997	0.087230	0.282628	-0.373462	-0.024737	-0.883197	-13.092179	-42.350395	-139.419667
31375		6.583724	-2.613106	9.325248	1.035216	1.582853	1.743462	1.271130	-2.528660	-1.666188	-1.002441	0.439453	-0.502930	0.064429	-0.027267	0.093902	0.277321	-0.382570	-0.036996	-0.880548	-11.788308	-43.968469	-140.264153
31376		8.033581	-1.453887	9.961586	1.384700	0.483194	2.982644	1.021060	-2.509119	-1.722788	-1.016602	0.422852	-0.489014	0.078946	-0.015735	0.100534	0.271217	-0.391831	-0.048227	-0.877829	-10.524526	-45.567932	-141.230685
31377		7.493526	-1.373703	8.343407	0.795688	0.514783	1.445404	0.705863	-2.427693	-1.725252	-1.026611	0.399902	-0.463623	0.073792	-0.014673	0.084284	0.264438	-0.401062	-0.057956	-0.875136	-9.358036	-47.106454	-142.287006
31378		7.007384	-1.137506	8.718485	1.575514	0.922348	1.280924	0.377256	-2.333173	-1.685643	-1.024414	0.380371	-0.434082	0.068951	-0.012125	0.087971	0.257142	-0.410240	-0.066032	-0.872480	-8.321303	-48.574004	-143.396605
31379		7.943774	-0.097315	7.811910	1.134883	-0.380237	1.264293	-0.011941	-2.281022	-1.688486	-1.031738	0.364990	-0.423584	0.078528	-0.001634	0.079018	0.249001	-0.419603	-0.072333	-0.869885	-7.429758	-49.999086	-144.584644
31380		7.073392	-1.396199	7.079905	0.597259	1.047655	0.219624	-0.271933	-2.225382	-1.687958	-1.040527	0.348389	-0.397705	0.069820	-0.014457	0.071599	0.240286	-0.428967	-0.077421	-0.867327	-6.610638	-51.381130	-145.847204
31381		6.211998	-3.909633	8.943223	1.321624	4.368705	0.818235	-0.454616	-1.972589	-1.562167	-1.043945	0.335205	-0.382324	0.060927	-0.039371	0.090126	0.231781	-0.437423	-0.081126	-0.865076	-5.897963	-52.600140	-147.085034
31382		7.174733	-7.437539	9.107075	-0.503238	7.379671	1.806795	-0.547724	-1.771423	-1.125062	-1.044434	0.333984	-0.354980	0.070517	-0.074523	0.091903	0.225011	-0.445236	-0.083231	-0.862675	-5.498393	-53.672481	-147.979212
31383		10.523057	-8.562294	12.003334	-0.333509	8.453485	6.204409	-0.709525	-1.440422	-0.466564	-1.049805	0.326904	-0.341309	0.104162	-0.085438	0.121089	0.220839	-0.452033	-0.082789	-0.860257	-5.656737	-54.517776	-148.288466
31384		9.181219	-10.115452	11.172861	-0.755993	10.003422	4.706500	-0.731060	-0.845013	0.203806	-1.045166	0.323730	-0.337646	0.091441	-0.100651	0.112484	0.219735	-0.456550	-0.080080	-0.858409	-6.319409	-54.985463	-147.992420
31385		7.335346	-9.793822	9.487434	-0.843370	9.661720	2.256958	-0.428771	-0.283390	0.718282	-1.042725	0.332031	-0.321289	0.073569	-0.097470	0.095188	0.221751	-0.458516	-0.076870	-0.857135	-7.186012	-55.096023	-147.237796
31386		5.032426	-8.538849	7.828235	-0.395071	8.624460	-0.594220	-0.018336	0.093884	1.023714	-1.031494	0.343994	-0.324463	0.050797	-0.085122	0.078266	0.226155	-0.458519	-0.074304	-0.856209	-8.025560	-54.963302	-146.228580
31387		3.529512	-6.129289	7.012122	0.766704	6.624663	-2.415347	0.285310	0.288028	1.210378	-1.028076	0.346924	-0.325439	0.035766	-0.061177	0.069983	0.232121	-0.457398	-0.072380	-0.855376	-8.810689	-54.695950	-145.071361
31388		2.766796	-3.984215	6.895652	1.982092	4.892238	-3.238810	0.352440	0.382031	1.358919	-1.031738	0.363525	-0.334473	0.028070	-0.039774	0.068833	0.238896	-0.455833	-0.070299	-0.854519	-9.645742	-54.353133	-143.800507
31389		2.467352	-2.400380	7.066143	2.957298	3.618005	-3.492557	0.212785	0.417587	1.469875	-1.014160	0.374756	-0.333984	0.024997	-0.023896	0.070584	0.245830	-0.454291	-0.067313	-0.853613	-10.622545	-53.966549	-142.448510
31390		2.485610	-1.541080	7.339294	3.542017	2.901488	-3.374251	-0.058189	0.462720	1.551502	-1.013672	0.389160	-0.335693	0.025144	-0.015195	0.073339	0.252492	-0.452893	-0.062934	-0.852745	-11.782467	-53.531729	-141.054077
31391		2.568971	-1.393985	7.497609	3.683813	2.723580	-3.196955	-0.321889	0.529379	1.579159	-1.008789	0.404053	-0.339111	0.025996	-0.013615	0.074930	0.258682	-0.451516	-0.057270	-0.852019	-13.072988	-53.037595	-139.677645
31392		2.887345	-1.591045	7.643941	3.548219	2.723080	-2.791866	-0.528059	0.631799	1.565136	-1.004639	0.412842	-0.341553	0.029237	-0.015481	0.076389	0.264354	-0.449936	-0.050633	-0.851535	-14.415400	-52.470676	-138.373969
31393		3.337027	-1.878054	7.789173	3.308854	2.716311	-2.262478	-0.642068	0.784899	1.522863	-0.988281	0.429443	-0.348633	0.033816	-0.018274	0.077819	0.269609	-0.447801	-0.043389	-0.851412	-15.725001	-51.806012	-137.184573
31394		3.738875	-2.204980	7.929658	3.061594	2.732364	-1.757913	-0.681535	0.975719	1.475993	-0.989990	0.439209	-0.353271	0.037935	-0.021501	0.079186	0.274591	-0.444863	-0.035830	-0.851712	-16.942568	-51.029292	-136.129193
31395		4.071428	-2.361975	8.004779	2.868875	2.588862	-1.368945	-0.661130	1.185076	1.429821	-0.978027	0.448242	-0.363770	0.041354	-0.023061	0.079881	0.279437	-0.440949	-0.028160	-0.852459	-18.031568	-50.131649	-135.213334
31396		4.294299	-2.391167	8.044107	2.746266	2.356787	-1.108266	-0.631509	1.404998	1.392398	-0.968262	0.471436	-0.387207	0.043671	-0.023356	0.080210	0.284187	-0.436012	-0.020400	-0.853648	-18.988947	-49.112474	-134.434274
31397		4.462060	-2.259745	7.975034	2.632019	1.970248	-0.991983	-0.594311	1.607943	1.361080	-0.955566	0.480957	-0.392090	0.045412	-0.022054	0.079453	0.288877	-0.430095	-0.012564	-0.855226	-19.822935	-47.980327	-133.779426
31398		4.624335	-2.252969	7.905004	2.440429	1.679950	-0.859045	-0.583634	1.795342	1.311023	-0.933838	0.489990	-0.401611	0.047096	-0.021993	0.078695	0.293347	-0.423311	-0.004621	-0.857166	-20.543706	-46.753029	-133.257065
31399		4.823905	-2.305375	7.838582	2.188926	1.409066	-0.688707	-0.592223	1.958811	1.279704	-0.922607	0.496826	-0.427246	0.049149	-0.022510	0.077975	0.297631	-0.415771	0.003545	-0.859382	-21.186322	-45.438888	-132.839790
31400		4.910466	-2.504139	7.623717	1.798567	1.269552	-0.666476	-0.625377	2.092418	1.255593	-0.911133	0.511230	-0.439209	0.050054	-0.024492	0.075794	0.301690	-0.407652	0.011989	-0.861777	-21.778651	-44.057134	-132.510319
31401		5.131177	-3.052607	7.332517	1.103338	1.320710	-0.515025	-0.652419	2.180889	1.253814	-0.889648	0.522217	-0.459229	0.052297	-0.029962	0.072857	0.305636	-0.399115	0.020690	-0.864214	-22.344121	-42.624825	-132.234908
31402		5.579058	-3.814053	6.809533	0.016663	1.364656	-0.316648	-0.636562	2.235725	1.280977	-0.871094	0.534912	-0.465332	0.056790	-0.037563	0.067584	0.309668	-0.390256	0.029445	-0.866567	-22.880049	-41.157339	-131.981602
31403		5.921803	-4.710569	6.233460	-1.131573	1.559383	-0.200425	-0.553203	2.245072	1.353833	-0.847656	0.545166	-0.483154	0.060230	-0.046529	0.061792	0.314126	-0.381136	0.038002	-0.868686	-23.379992	-39.665178	-131.703428
31404		6.354746	-5.376838	5.753856	-2.148784	1.529929	-0.043539	-0.413954	2.211883	1.456081	-0.831543	0.549316	-0.493408	0.064568	-0.053182	0.056939	0.319239	-0.371863	0.046078	-0.870449	-23.829565	-38.166985	-131.368607
31405		6.709018	-5.656489	5.295713	-2.916094	1.236476	-0.065228	-0.240316	2.104342	1.590167	-0.801270	0.554199	-0.506836	0.068089	-0.055963	0.052312	0.325230	-0.362674	0.053480	-0.871684	-24.233859	-36.690166	-130.934392
31406		7.185418	-5.105668	5.298491	-2.996954	0.279559	0.021242	-0.102807	1.921434	1.776788	-0.797363	0.561035	-0.516113	0.072809	-0.050386	0.052314	0.332272	-0.353955	0.060303	-0.872167	-24.639547	-35.263829	-130.347599
31407		8.189769	-3.971731	6.057782	-2.524852	-1.372912	0.736121	-0.089585	1.674592	1.991075	-0.777100	0.568848	-0.519287	0.082791	-0.038869	0.059905	0.340293	-0.346156	0.067038	-0.871713	-25.131304	-33.908759	-129.576571
31408		9.531350	-3.251809	6.553720	-2.589955	-2.994873	1.531347	-0.180922	1.456780	2.201902	-0.752441	0.580566	-0.526611	0.096137	-0.031404	0.064868	0.349084	-0.339341	0.074143	-0.870340	-25.751309	-32.610072	-128.638872
31409		10.612382	-2.993726	6.583455	-3.027583	-4.197834	1.940169	-0.242733	1.269399	2.354601	-0.729736	0.586670	-0.532227	0.106881	-0.028603	0.065193	0.358446	-0.333322	0.081446	-0.868205	-26.452071	-31.358743	-127.583650
31410		11.698870	-2.690843	6.534105	-3.447967	-5.476743	2.224972	-0.234924	1.109451	2.422131	-0.716553	0.589355	-0.530029	0.117663	-0.025410	0.064720	0.368111	-0.327905	0.088516	-0.865527	-27.157370	-30.162476	-126.471894
31411		12.639367	-2.248692	6.379788	-3.737325	-6.778920	2.252965	-0.164547	0.979496	2.408533	-0.700195	0.598633	-0.529297	0.126962	-0.020908	0.063195	0.377829	-0.322861	0.095014	-0.862542	-27.804467	-29.023217	-125.357871
31412		13.466619	-2.060917	5.996458	-4.230995	-7.837350	2.112879	-0.036747	0.897375	2.306948	-0.697266	0.611328	-0.525879	0.135159	-0.019041	0.059362	0.387289	-0.317934	0.100616	-0.859536	-28.330945	-27.944463	-124.302423
31413		14.002358	-1.645720	5.500294	-4.501288	-8.828237	1.624951	0.174146	0.898033	2.103122	-0.680908	0.608887	-0.537109	0.140432	-0.015029	0.054359	0.396155	-0.312645	0.104984	-0.856909	-28.657688	-26.912993	-123.382090
31414		13.770943	-0.996106	5.052605	-4.225317	-9.352935	0.714571	0.377092	0.915958	1.790312	-0.681885	0.610352	-0.536865	0.138021	-0.008821	0.049877	0.403939	-0.307012	0.108007	-0.854933	-28.767210	-25.956758	-122.655336
31415		13.096974	0.259050	4.762839	-3.272356	-9.852753	-0.512477	0.481253	0.929313	1.408938	-0.668945	0.611816	-0.542725	0.131167	0.003400	0.047027	0.410211	-0.301284	0.110024	-0.853727	-28.711283	-25.097632	-122.151017
31416		12.037519	1.910547	4.639505	-1.785301	-10.219876	-1.910654	0.386754	0.878498	1.022066	-0.662598	0.610107	-0.547852	0.120478	0.019632	0.045904	0.414689	-0.296165	0.111743	-0.853131	-28.618703	-24.371927	-121.847541
31417		11.176165	3.052023	4.420989	-0.774622	-10.360087	-3.042589	0.104154	0.748156	0.675645	-0.656250	0.611084	-0.544922	0.111822	0.030875	0.043808	0.417329	-0.292367	0.113885	-0.852871	-28.622986	-23.806398	-121.696641
31418		10.488740	3.347199	4.036151	-0.493248	-10.079538	-3.840507	-0.265019	0.570469	0.358332	-0.666992	0.608643	-0.550049	0.104942	0.033713	0.040018	0.418168	-0.290275	0.116759	-0.852785	-28.788379	-23.417953	-121.667899
31419		10.085679	2.739713	3.407235	-1.080910	-9.448633	-4.299896	-0.573859	0.371066	0.064682	-0.649414	0.611572	-0.546143	0.100911	0.027527	0.033806	0.417419	-0.289845	0.120109	-0.852834	-29.090431	-23.210395	-121.741072
31420		9.045068	-1.429300	0.997925	-4.702956	-6.134927	-4.803012	-0.576470	0.064872	-0.287651	-0.660156	0.606689	-0.542969	0.090433	-0.014394	0.009991	0.415342	-0.290937	0.122315	-0.853162	-29.354607	-23.255240	-121.913842
31421		8.733685	-0.356387	-1.364685	-5.299025	-6.613667	-7.273788	0.540219	-0.270092	-0.804919	-0.671875	0.599609	-0.537842	0.087340	-0.003879	-0.013539	0.412880	-0.291449	0.118310	-0.854746	-28.906689	-23.611584	-122.267266
31422		8.516533	-0.619721	2.055136	-3.357171	-6.088428	-4.446274	1.107034	-0.434077	-0.976261	-0.667725	0.592773	-0.548828	0.085089	-0.006727	0.020700	0.410592	-0.291582	0.111287	-0.856744	-28.111031	-24.093974	-122.671338
31423		8.252758	0.232199	7.002983	0.200715	-6.088563	-0.863335	0.967509	-0.578333	-0.839907	-0.674072	0.590820	-0.543701	0.082332	0.001636	0.070277	0.408742	-0.292528	0.104759	-0.858127	-27.437525	-24.608370	-122.965552
31424		7.013263	-2.839431	6.778206	-1.301973	-3.062922	-0.215057	0.612734	-0.802318	-0.623925	-0.677246	0.574951	-0.541016	0.069771	-0.028820	0.067975	0.407401	-0.295034	0.099607	-0.858521	-27.040177	-25.177641	-123.080322
31425		4.978399	-4.491512	6.275902	-1.646052	-0.375713	-0.785312	0.655019	-0.888783	-0.531602	-0.686523	0.573975	-0.549561	0.049385	-0.045252	0.062831	0.406547	-0.297770	0.094229	-0.858588	-26.648660	-25.766679	-123.122886
31426		3.304439	-4.910333	7.166567	-0.570380	1.341847	-0.633183	0.827992	-0.911805	-0.516962	-0.679932	0.573486	-0.545410	0.032590	-0.049485	0.071611	0.406007	-0.300233	0.088080	-0.858639	-26.161813	-26.363306	-123.155825
31427		2.404192	-4.892250	8.176205	0.464311	2.221171	-0.251625	0.831468	-0.963056	-0.519856	-0.681641	0.564209	-0.539551	0.023521	-0.049324	0.081672	0.405464	-0.302898	0.081804	-0.858580	-25.675845	-26.986984	-123.181865
31428		1.698944	-5.225846	8.133237	0.555419	3.092795	-0.513769	0.863909	-1.032522	-0.562053	-0.697510	0.549561	-0.532471	0.016422	-0.052656	0.081191	0.404798	-0.305797	0.075180	-0.858473	-25.165595	-27.656574	-123.219548
