// General information: 
//  MT Manager version: 2019.2.0 
//  XDA version: 2019.2.0 build 3853 rev 94535 built on 2019-09-09
// Device information: 
//  DeviceId: 00B47793
//  ProductCode: MTW2-3A7G6
//  Firmware Version: 4.6.0
//  Hardware Version: 2.0.0
// Device settings: 
//  Filter Profile: human(46.1)
//  Option Flags: Orientation Smoother Disabled, AHS Disabled, ICC Disabled
// Coordinate system: ENU
PacketCounter	SampleTimeFine	Acc_X	Acc_Y	Acc_Z	FreeAcc_E	FreeAcc_N	FreeAcc_U	Gyr_X	Gyr_Y	Gyr_Z	Mag_X	Mag_Y	Mag_Z	VelInc_X	VelInc_Y	VelInc_Z	Quat_q0	Quat_q1	Quat_q2	Quat_q3	Roll	Pitch	Yaw
62923		4.883527	-3.661496	7.740368	-0.015741	-0.006628	0.044716	0.000143	0.000690	-0.004305	-0.715820	0.523926	-0.505371	0.048835	-0.036616	0.077403	0.508231	-0.325956	0.024625	-0.796773	-25.233484	-29.629945	-108.159357
62924		4.827542	-3.640865	7.745483	0.018796	0.030616	0.013414	0.001144	0.003204	-0.005452	-0.717041	0.516846	-0.502441	0.048276	-0.036410	0.077454	0.508241	-0.325944	0.024651	-0.796770	-25.235299	-29.626813	-108.158389
62925		4.827580	-3.640671	7.745550	0.019296	0.029997	0.013415	-0.002620	0.000685	-0.004943	-0.724121	0.525391	-0.496338	0.048275	-0.036407	0.077456	0.508244	-0.325954	0.024686	-0.796764	-25.239737	-29.625144	-108.156847
62926		4.830070	-3.663869	7.751334	0.003346	0.040245	0.027793	0.007670	0.005729	-0.005322	-0.715332	0.516113	-0.503662	0.048302	-0.036643	0.077511	0.508263	-0.325916	0.024694	-0.796767	-25.237507	-29.620711	-108.156871
62927		4.808591	-3.624687	7.711339	0.018459	0.026957	-0.028793	-0.000982	-0.000682	-0.004605	-0.724365	0.526123	-0.500244	0.048085	-0.036248	0.077114	0.508270	-0.325926	0.024719	-0.796758	-25.241296	-29.619667	-108.154743
62928		4.834685	-3.643951	7.723114	0.002731	0.017877	0.000504	0.004808	-0.001124	-0.006184	-0.720459	0.529541	-0.501221	0.048345	-0.036443	0.077231	0.508281	-0.325922	0.024720	-0.796752	-25.241378	-29.618976	-108.153326
62929		4.804685	-3.642610	7.740058	0.021047	0.046765	-0.001496	0.004171	0.002756	-0.007670	-0.718994	0.517334	-0.493164	0.048047	-0.036430	0.077399	0.508284	-0.325907	0.024729	-0.796757	-25.240834	-29.616900	-108.153991
62930		4.835075	-3.642679	7.723470	0.003728	0.016596	0.000506	0.002045	-0.001130	-0.006822	-0.723877	0.522217	-0.496582	0.048349	-0.036429	0.077235	0.508290	-0.325911	0.024738	-0.796751	-25.242376	-29.616383	-108.152666
62931		4.805279	-3.641364	7.740275	0.022041	0.045486	-0.001493	0.005073	-0.001578	-0.009040	-0.715820	0.523926	-0.504395	0.048051	-0.036418	0.077402	0.508289	-0.325910	0.024730	-0.796752	-25.241514	-29.616888	-108.152930
62932		4.815284	-3.668874	7.722896	-0.011957	0.045542	-0.000017	0.004072	-0.004092	-0.007892	-0.720947	0.516357	-0.505371	0.048150	-0.036692	0.077229	0.508295	-0.325920	0.024723	-0.796744	-25.241954	-29.618150	-108.151489
62933		4.845897	-3.668784	7.706241	-0.029269	0.015412	0.001983	0.004559	0.001159	-0.009078	-0.712158	0.523682	-0.501465	0.048458	-0.036692	0.077061	0.508292	-0.325910	0.024724	-0.796750	-25.240995	-29.617246	-108.152546
62934		4.836706	-3.639668	7.723868	0.005701	0.014030	0.000509	0.006196	-0.000207	-0.008739	-0.728027	0.522217	-0.498047	0.048365	-0.036401	0.077238	0.508297	-0.325899	0.024716	-0.796752	-25.239372	-29.616675	-108.152836
62935		4.832749	-3.657806	7.752527	0.007807	0.034485	0.027812	0.005071	-0.001579	-0.009039	-0.721436	0.522461	-0.494385	0.048325	-0.036582	0.077525	0.508296	-0.325898	0.024708	-0.796753	-25.238511	-29.617180	-108.153100
62936		4.833425	-3.657030	7.752472	0.008309	0.033829	0.027814	0.003336	-0.007061	-0.009599	-0.723633	0.520264	-0.508057	0.048330	-0.036574	0.077526	0.508290	-0.325923	0.024695	-0.796747	-25.239325	-29.620470	-108.152277
62937		4.838339	-3.637271	7.723975	0.007203	0.012140	0.000511	0.004557	0.001158	-0.009077	-0.720215	0.524658	-0.494141	0.048382	-0.036377	0.077239	0.508288	-0.325913	0.024696	-0.796752	-25.238368	-29.619565	-108.153332
62938		4.836906	-3.679213	7.758140	-0.007138	0.043435	0.042213	0.003681	-0.002498	-0.006482	-0.714355	0.514160	-0.490479	0.048367	-0.036795	0.077581	0.508296	-0.325918	0.024696	-0.796745	-25.239216	-29.619673	-108.151725
62939		4.815882	-3.639863	7.717919	0.007948	0.030198	-0.014391	0.003821	-0.001811	-0.010784	-0.720947	0.518311	-0.494385	0.048156	-0.036403	0.077179	0.508287	-0.325921	0.024690	-0.796750	-25.238589	-29.620724	-108.152964
62940		4.806938	-3.610809	7.735346	0.042933	0.028840	-0.015877	0.003945	-0.002953	-0.009337	-0.714600	0.512939	-0.500488	0.048067	-0.036112	0.077353	0.508281	-0.325928	0.024685	-0.796751	-25.238539	-29.621819	-108.153316
62941		4.842811	-3.657954	7.729730	-0.007247	0.020473	0.014912	0.005193	-0.002723	-0.007589	-0.718018	0.519043	-0.501465	0.048426	-0.036583	0.077297	0.508287	-0.325931	0.024676	-0.796746	-25.238194	-29.622562	-108.152394
62942		4.840710	-3.633405	7.724309	0.009674	0.008931	0.000512	0.006457	-0.000664	-0.011592	-0.726318	0.524414	-0.507324	0.048405	-0.036339	0.077242	0.508277	-0.325922	0.024663	-0.796757	-25.235630	-29.622957	-108.154691
62943		4.843804	-3.656246	7.729916	-0.006264	0.019193	0.014915	0.002556	-0.003872	-0.006780	-0.724365	0.518066	-0.503174	0.048435	-0.036565	0.077300	0.508281	-0.325937	0.024663	-0.796748	-25.237195	-29.624098	-108.152963
62944		4.821208	-3.659476	7.723658	-0.006032	0.037876	0.000021	0.005846	-0.004775	-0.011851	-0.722656	0.510498	-0.502197	0.048208	-0.036600	0.077237	0.508270	-0.325945	0.024641	-0.796752	-25.235486	-29.626703	-108.154323
62945		4.868377	-3.650533	7.736107	-0.005024	-0.001428	0.029813	0.005067	-0.001582	-0.009035	-0.725098	0.522705	-0.500732	0.048682	-0.036509	0.077361	0.508269	-0.325945	0.024633	-0.796753	-25.234629	-29.627209	-108.154583
62946		4.868888	-3.649738	7.736161	-0.004535	-0.002081	0.029813	0.003943	-0.002955	-0.009334	-0.716797	0.521240	-0.499756	0.048686	-0.036501	0.077362	0.508261	-0.325951	0.024629	-0.796756	-25.234499	-29.628294	-108.155372
62947		4.815856	-3.652380	7.746797	0.013501	0.046166	0.012938	0.004677	0.000014	-0.007627	-0.710693	0.525635	-0.503662	0.048157	-0.036527	0.077467	0.508265	-0.325945	0.024629	-0.796756	-25.234059	-29.627629	-108.155241
62948		4.839480	-3.647701	7.753089	0.014246	0.026147	0.027831	0.003678	-0.002500	-0.006479	-0.717041	0.517822	-0.503418	0.048393	-0.036480	0.077531	0.508279	-0.325949	0.024628	-0.796745	-25.234910	-29.627657	-108.152793
62949		4.870065	-3.647603	7.736427	-0.003042	-0.003998	0.029813	0.006314	-0.001352	-0.007287	-0.713623	0.516357	-0.503174	0.048699	-0.036480	0.077363	0.508287	-0.325944	0.024618	-0.796742	-25.233822	-29.627616	-108.152076
62950		4.825767	-3.612463	7.689891	0.011737	0.002115	-0.041700	-0.001331	-0.005254	-0.007715	-0.718262	0.520020	-0.509277	0.048254	-0.036126	0.076900	0.508283	-0.325972	0.024630	-0.796733	-25.237490	-29.629416	-108.150544
62951		4.824624	-3.654535	7.723864	-0.002587	0.033412	0.000038	0.005065	-0.001584	-0.009033	-0.713623	0.515625	-0.499512	0.048244	-0.036549	0.077238	0.508282	-0.325972	0.024622	-0.796734	-25.236635	-29.629921	-108.150803
62952		4.845730	-3.625964	7.724658	0.014593	0.002534	0.000510	0.007826	-0.001576	-0.008395	-0.724121	0.520020	-0.495850	0.048455	-0.036265	0.077246	0.508289	-0.325962	0.024606	-0.796734	-25.234342	-29.629976	-108.150673
62953		4.971176	-3.567299	7.698567	0.013201	-0.136919	0.020279	-0.001595	-0.004799	-0.004860	-0.714111	0.521973	-0.501709	0.049709	-0.035674	0.076987	0.508295	-0.325991	0.024623	-0.796719	-25.238980	-29.631129	-108.147540
62954		5.503606	-3.224278	6.541867	-0.488206	-1.077968	-0.752814	0.012975	-0.032846	-0.041472	-0.717041	0.515137	-0.497803	0.055019	-0.032258	0.065426	0.508183	-0.326097	0.024452	-0.796751	-25.228416	-29.655518	-108.158175
62955		6.564884	-3.440760	6.278394	-1.091700	-1.919403	-0.353362	0.048968	-0.087794	-0.070963	-0.723389	0.512939	-0.494873	0.065609	-0.034446	0.062804	0.508018	-0.326336	0.023950	-0.796774	-25.196100	-29.715828	-108.171167
62956		5.892311	-3.645036	6.763046	-0.810477	-1.111894	-0.228783	0.082352	-0.090719	-0.082120	-0.722656	0.520264	-0.499512	0.058877	-0.036502	0.067642	0.507858	-0.326502	0.023291	-0.796828	-25.141735	-29.780247	-108.190703
62957		5.613425	-3.611742	7.737015	-0.185129	-0.599877	0.386454	0.101613	-0.035218	-0.089121	-0.724854	0.521484	-0.485840	0.056105	-0.036182	0.077362	0.507700	-0.326399	0.022682	-0.796988	-25.066447	-29.817671	-108.229426
62958		5.263363	-3.664854	8.061203	0.035504	-0.181375	0.486971	0.077851	-0.016598	-0.079542	-0.727783	0.510010	-0.492188	0.052612	-0.036701	0.080602	0.507540	-0.326282	0.022231	-0.797150	-25.005131	-29.842978	-108.267360
62959		5.023039	-3.512157	7.725978	0.034586	-0.149894	0.048004	0.052147	-0.031254	-0.048163	-0.726318	0.519775	-0.500732	0.050210	-0.035154	0.077258	0.507464	-0.326284	0.021897	-0.797207	-24.969755	-29.868362	-108.282772
62960		5.118943	-3.381295	7.779971	0.138335	-0.270364	0.090466	0.052650	-0.035821	-0.042349	-0.725098	0.516357	-0.503418	0.051168	-0.033844	0.077800	0.507409	-0.326303	0.021560	-0.797244	-24.936508	-29.894645	-108.293884
62961		5.189431	-3.297825	7.862022	0.227000	-0.339580	0.159795	0.037863	-0.019184	-0.035180	-0.722412	0.515869	-0.495605	0.051881	-0.033002	0.078619	0.507359	-0.326292	0.021334	-0.797286	-24.911489	-29.910608	-108.304917
62962		5.113580	-3.427734	7.762774	0.088171	-0.240740	0.091503	0.026880	-0.008005	-0.027288	-0.721924	0.506836	-0.493896	0.051128	-0.034295	0.077625	0.507323	-0.326263	0.021194	-0.797325	-24.893599	-29.918735	-108.314183
62963		5.056120	-3.423369	7.693226	0.068166	-0.214483	0.006624	0.013708	-0.007568	-0.018734	-0.727051	0.523682	-0.496826	0.050555	-0.034244	0.076932	0.507298	-0.326265	0.021120	-0.797341	-24.885718	-29.924689	-108.318599
62964		5.088824	-3.529681	7.647308	-0.051206	-0.202263	0.025634	0.017320	-0.003907	-0.020700	-0.725342	0.519287	-0.494873	0.050883	-0.035309	0.076471	0.507272	-0.326244	0.021039	-0.797369	-24.874738	-29.929138	-108.325129
62965		5.118625	-3.612363	7.595885	-0.154152	-0.200884	0.030221	0.014174	-0.002319	-0.019936	-0.726318	0.521973	-0.498779	0.051182	-0.036134	0.075957	0.507242	-0.326224	0.020976	-0.797397	-24.865500	-29.932651	-108.331728
62966		5.147014	-3.628823	7.504590	-0.225841	-0.242244	-0.021401	0.021446	-0.002989	-0.022611	-0.721924	0.526367	-0.495850	0.051465	-0.036302	0.075043	0.507219	-0.326189	0.020876	-0.797429	-24.851493	-29.937058	-108.339047
62967		5.302375	-3.700732	7.749012	-0.195223	-0.261486	0.274497	0.026272	0.007105	-0.018348	-0.721680	0.516113	-0.499756	0.053023	-0.037022	0.077483	0.507215	-0.326101	0.020790	-0.797470	-24.834491	-29.935287	-108.347312
62968		5.635187	-3.644156	7.709490	-0.264725	-0.575624	0.388784	0.012080	0.032270	-0.000744	-0.724609	0.519043	-0.488525	0.056364	-0.036446	0.077084	0.507263	-0.325947	0.020852	-0.797501	-24.827512	-29.916061	-108.350871
62969		5.478000	-3.592606	7.578436	-0.254668	-0.514603	0.188229	0.016503	0.065005	0.008341	-0.713867	0.514160	-0.497314	0.054806	-0.035930	0.075764	0.507343	-0.325650	0.020996	-0.797568	-24.816086	-29.877759	-108.359188
62970		5.558835	-3.594993	7.739854	-0.195227	-0.539530	0.355929	0.006139	0.093338	0.021150	-0.724609	0.521484	-0.497070	0.055628	-0.035946	0.077371	0.507459	-0.325265	0.021273	-0.797644	-24.810642	-29.821582	-108.366967
62971		5.264857	-3.557905	7.729778	-0.094490	-0.329107	0.187794	-0.006352	0.115963	0.040584	-0.721924	0.521240	-0.499268	0.052701	-0.035566	0.077268	0.507625	-0.324819	0.021689	-0.797708	-24.814919	-29.749024	-108.370064
62972		5.058813	-3.548469	7.882083	0.048700	-0.132119	0.201833	-0.016151	0.125539	0.055995	-0.722168	0.523193	-0.499023	0.050648	-0.035464	0.078792	0.507841	-0.324359	0.022193	-0.797745	-24.828184	-29.667735	-108.365812
62973		4.885755	-3.431495	7.735767	0.107966	-0.103511	-0.042044	-0.029336	0.134571	0.059040	-0.717285	0.523438	-0.494629	0.048920	-0.034289	0.077330	0.508040	-0.323895	0.022779	-0.797790	-24.848530	-29.581061	-108.363053
62974		4.808309	-3.429900	7.693928	0.105958	-0.067029	-0.113984	-0.024825	0.127643	0.051306	-0.722900	0.531250	-0.494873	0.048141	-0.034277	0.076913	0.508224	-0.323448	0.023315	-0.797839	-24.865084	-29.499810	-108.362035
62975		4.950731	-3.586968	7.517088	-0.155338	-0.173396	-0.126177	-0.025354	0.111131	0.042101	-0.719482	0.536377	-0.495605	0.049557	-0.035850	0.075148	0.508364	-0.323069	0.023797	-0.797888	-24.881328	-29.429402	-108.362966
62976		4.758528	-3.646853	7.476902	-0.173679	-0.008235	-0.230571	-0.013183	0.095124	0.030067	-0.724121	0.536865	-0.499512	0.047626	-0.036456	0.074749	0.508490	-0.322726	0.024168	-0.797936	-24.889486	-29.370176	-108.364881
62977		4.852373	-3.726953	7.632248	-0.181581	-0.010877	-0.032410	-0.000208	0.074136	0.020955	-0.714355	0.533691	-0.495117	0.048556	-0.037264	0.076305	0.508592	-0.322433	0.024422	-0.797982	-24.890149	-29.324094	-108.368209
62978		4.738766	-3.668622	7.616059	-0.114955	0.043693	-0.122284	0.004446	0.059300	0.014390	-0.711182	0.533447	-0.495850	0.047413	-0.036685	0.076146	0.508684	-0.322188	0.024607	-0.798016	-24.888410	-29.287264	-108.370088
62979		4.995114	-3.670563	7.699760	-0.143899	-0.148401	0.070013	0.008123	0.041968	0.008961	-0.721436	0.538086	-0.497559	0.049969	-0.036707	0.076986	0.508755	-0.322004	0.024727	-0.798042	-24.885160	-29.260793	-108.371665
62980		4.986327	-3.622908	7.690862	-0.110520	-0.170673	0.041091	0.013771	0.042650	0.005975	-0.711426	0.533203	-0.499268	0.049881	-0.036233	0.076895	0.508826	-0.321803	0.024820	-0.798075	-24.877797	-29.234658	-108.374693
62981		5.130471	-3.583945	7.784055	-0.071697	-0.286572	0.170831	0.014986	0.055878	0.012470	-0.715332	0.539551	-0.491211	0.051329	-0.035842	0.077824	0.508920	-0.321545	0.024954	-0.798114	-24.869765	-29.200111	-108.378013
62982		5.189674	-3.524574	7.795074	-0.037365	-0.366966	0.186436	0.003451	0.061791	0.021531	-0.714600	0.541260	-0.498047	0.051925	-0.035241	0.077934	0.509031	-0.321292	0.025163	-0.798139	-24.870219	-29.160294	-108.377438
62983		5.007799	-3.394653	7.794264	0.113993	-0.285665	0.049243	-0.003736	0.061321	0.025631	-0.708252	0.543701	-0.497803	0.050106	-0.033939	0.077928	0.509146	-0.321059	0.025406	-0.798151	-24.876002	-29.119746	-108.374424
62984		5.314337	-3.414040	7.793576	0.013259	-0.537923	0.204704	-0.020327	0.057655	0.033200	-0.708252	0.546631	-0.494873	0.053172	-0.034124	0.077924	0.509266	-0.320881	0.025718	-0.798137	-24.893986	-29.079278	-108.365872
62985		5.345409	-3.513804	7.906286	-0.013538	-0.492726	0.345393	-0.034205	0.081767	0.045178	-0.704590	0.539551	-0.498047	0.053494	-0.035112	0.079047	0.509408	-0.320641	0.026166	-0.798128	-24.920110	-29.023387	-108.356912
62986		5.152349	-3.534588	7.933096	0.038912	-0.327156	0.280155	-0.056161	0.101760	0.063851	-0.713623	0.544434	-0.498291	0.051575	-0.035307	0.079315	0.509586	-0.320374	0.026782	-0.798101	-24.961493	-28.952614	-108.342421
62987		4.825892	-3.586316	7.897860	0.071335	-0.055466	0.112982	-0.067010	0.102622	0.075894	-0.705566	0.537598	-0.495850	0.048313	-0.035818	0.078966	0.509795	-0.320130	0.027464	-0.798043	-25.012370	-28.878447	-108.321104
62988		4.532980	-3.728630	7.890636	0.038334	0.240088	0.018569	-0.067325	0.090052	0.074042	-0.698242	0.546875	-0.489502	0.045379	-0.037243	0.078898	0.509997	-0.319937	0.028111	-0.797968	-25.064513	-28.811267	-108.297497
62989		4.675727	-3.733792	7.625927	-0.144037	0.037565	-0.120617	-0.058416	0.064988	0.055055	-0.709961	0.548584	-0.504395	0.046792	-0.037303	0.076255	0.510141	-0.319824	0.028629	-0.797903	-25.109421	-28.761658	-108.278262
62990		4.514935	-3.507389	7.398521	-0.039017	-0.007867	-0.462664	-0.042721	0.026997	0.015393	-0.700439	0.550293	-0.500977	0.045162	-0.035055	0.073987	0.510157	-0.319827	0.028924	-0.797881	-25.139097	-28.741418	-108.271991
62991		4.970674	-3.393457	7.258192	-0.147797	-0.483000	-0.397308	-0.031104	0.016040	-0.060720	-0.698242	0.547607	-0.497314	0.049702	-0.033938	0.072583	0.509889	-0.319856	0.029022	-0.798037	-25.141913	-28.745364	-108.307717
62992		5.481931	-2.528286	7.476344	0.517330	-1.258742	-0.300198	-0.072138	0.002205	-0.158203	-0.704102	0.553711	-0.503906	0.054800	-0.025299	0.074772	0.509169	-0.320059	0.029093	-0.798413	-25.142330	-28.780251	-108.397281
62993		5.593488	-2.150203	6.675057	0.354876	-1.753262	-1.022522	-0.306384	0.073675	-0.365211	-0.697998	0.552734	-0.499268	0.055920	-0.021502	0.066763	0.507235	-0.320602	0.029950	-0.799393	-25.208289	-28.828543	-108.629238
62994		5.198198	-2.830769	6.966648	0.088229	-1.009976	-0.727488	-0.446769	0.148269	-0.626178	-0.705078	0.547852	-0.501221	0.051945	-0.028315	0.069691	0.503947	-0.321236	0.031166	-0.801170	-25.269794	-28.902246	-109.046523
62995		5.542393	-3.002103	7.340188	0.059525	-1.099639	-0.200386	-0.527211	0.250005	-0.853095	-0.694580	0.547852	-0.492676	0.055388	-0.030064	0.073412	0.499664	-0.321696	0.032569	-0.803608	-25.298074	-28.978965	-109.616814
62996		4.946483	-3.382838	7.184080	-0.148145	-0.448717	-0.469295	-0.634653	0.294062	-1.004943	-0.700439	0.550781	-0.506592	0.049400	-0.033849	0.071876	0.494505	-0.322260	0.034294	-0.806497	-25.337296	-29.070490	-110.299816
62997		4.183322	-4.224183	7.141098	-0.582051	0.611736	-0.559250	-0.672769	0.323746	-1.124539	-0.703369	0.537354	-0.498047	0.041711	-0.042236	0.071485	0.488847	-0.322807	0.036026	-0.809646	-25.358557	-29.176167	-111.052617
62998		3.694540	-4.796716	7.514778	-0.640644	1.430453	-0.290437	-0.602874	0.316377	-1.202739	-0.706299	0.540527	-0.503418	0.036776	-0.047962	0.075234	0.482892	-0.323210	0.037356	-0.812991	-25.316293	-29.304840	-111.860651
62999		3.412646	-5.139544	8.018649	-0.508537	2.000789	0.091750	-0.453538	0.319144	-1.237865	-0.708008	0.540039	-0.499756	0.033936	-0.051424	0.080249	0.477084	-0.323236	0.038000	-0.816373	-25.175664	-29.439426	-112.681602
63000		3.200730	-4.991289	8.529193	-0.025616	2.250599	0.328260	-0.339020	0.329590	-1.207008	-0.706787	0.528564	-0.496826	0.031846	-0.049961	0.085324	0.471493	-0.322922	0.038278	-0.819726	-24.974738	-29.559034	-113.498552
63001		3.548215	-4.068885	8.226410	0.372681	1.419763	-0.083104	-0.256687	0.325079	-1.158403	-0.704102	0.526367	-0.504150	0.035380	-0.040788	0.082259	0.466287	-0.322414	0.038256	-0.822898	-24.739512	-29.666538	-114.276615
63002		3.507477	-3.685213	7.558483	0.283701	1.105159	-0.773223	-0.184470	0.281918	-1.122819	-0.713379	0.517578	-0.510742	0.034974	-0.036979	0.075570	0.461264	-0.321894	0.037922	-0.825943	-24.477381	-29.785095	-115.032869
63003		4.559028	-3.883822	7.520342	-0.290200	0.416996	-0.212372	-0.093248	0.250211	-1.069021	-0.711182	0.515869	-0.504395	0.045476	-0.039046	0.075165	0.456673	-0.321277	0.037194	-0.828763	-24.181242	-29.904351	-115.739668
63004		5.524690	-4.420282	7.423558	-1.134263	-0.006106	0.379634	0.020623	0.256406	-0.939942	-0.709229	0.511475	-0.507324	0.055133	-0.044470	0.074160	0.452714	-0.320338	0.036243	-0.831336	-23.856195	-29.986906	-116.381607
63005		5.307690	-5.197215	6.876121	-1.966417	0.535251	0.102456	0.200081	0.211752	-0.685240	-0.712402	0.512695	-0.508301	0.052971	-0.052222	0.068653	0.450173	-0.319130	0.034824	-0.833239	-23.510313	-30.031094	-116.848315
63006		4.980679	-4.616452	6.891034	-1.447855	0.482639	-0.258856	0.444650	0.037377	-0.303423	-0.708984	0.504395	-0.511719	0.049749	-0.046393	0.068798	0.449566	-0.318026	0.032631	-0.834077	-23.162980	-30.077904	-117.047702
63007		6.293339	-2.166701	8.433881	0.654499	-1.598744	0.791397	0.357678	-0.089096	-0.041374	-0.708740	0.512695	-0.512451	0.062891	-0.021831	0.084328	0.450004	-0.317603	0.030905	-0.834068	-22.961583	-30.131794	-117.044986
63008		7.077905	-0.429663	9.271943	2.068039	-3.021955	1.270690	0.196015	-0.006251	0.097833	-0.706299	0.507324	-0.523438	0.070778	-0.004353	0.092717	0.450680	-0.317174	0.030288	-0.833889	-22.884762	-30.110925	-116.988825
63009		6.332148	0.169789	9.029361	2.658056	-2.861693	0.502337	0.050790	0.114619	0.103410	-0.696777	0.515381	-0.509766	0.063372	0.001708	0.090258	0.451202	-0.316569	0.030530	-0.833827	-22.877072	-30.025031	-116.950435
63010		5.156362	-1.569127	8.640469	1.623441	-1.031136	0.187768	-0.052898	0.146280	0.014459	-0.704102	0.507568	-0.518555	0.051628	-0.015665	0.086371	0.451185	-0.316080	0.031134	-0.834000	-22.897523	-29.942323	-116.974452
63011		5.116437	-4.019221	7.897057	-0.572095	0.259782	0.400088	-0.075732	0.130538	0.006740	-0.697510	0.512939	-0.509033	0.051217	-0.040161	0.078952	0.451101	-0.315709	0.031786	-0.834161	-22.930784	-29.869574	-116.999133
63012		4.679296	-4.814633	7.417142	-1.248664	0.946341	0.068395	-0.044160	0.040503	0.026362	-0.697754	0.516357	-0.510498	0.046814	-0.048124	0.074173	0.451163	-0.315639	0.032133	-0.834141	-22.963378	-29.840042	-116.988743
63013		4.348368	-4.139774	7.469179	-0.593058	0.811980	-0.282544	-0.000697	-0.026581	0.022708	-0.703369	0.521729	-0.531006	0.043478	-0.041393	0.074698	0.451289	-0.315751	0.032143	-0.834030	-22.978626	-29.846627	-116.963275
63014		4.149965	-3.012395	7.931655	0.570123	0.408861	-0.393787	0.015255	-0.063714	-0.008443	-0.704346	0.527100	-0.522461	0.041473	-0.030132	0.079327	0.451317	-0.315987	0.031953	-0.833933	-22.980071	-29.879835	-116.947175
63015		4.032189	-2.532303	8.030453	1.027534	0.245781	-0.536748	-0.013117	-0.108431	-0.035014	-0.708252	0.525879	-0.518066	0.040274	-0.025325	0.080328	0.451196	-0.316478	0.031739	-0.833820	-22.995492	-29.942503	-116.935684
63016		4.355234	-2.509218	7.796106	0.796010	-0.061468	-0.571147	-0.034858	-0.172483	-0.058715	-0.704346	0.519043	-0.520996	0.043478	-0.025091	0.078003	0.450951	-0.317288	0.031433	-0.833656	-23.024435	-30.044296	-116.922034
63017		4.706716	-2.864360	7.668396	0.337467	-0.137152	-0.377154	-0.006093	-0.197977	-0.101122	-0.702148	0.518799	-0.511475	0.046977	-0.028665	0.076731	0.450580	-0.318146	0.030883	-0.833551	-23.027324	-30.168991	-116.927570
63018		5.531426	-3.326151	7.832017	-0.222330	-0.441977	0.324158	0.013330	-0.202846	-0.087243	-0.703857	0.524170	-0.513916	0.055220	-0.033291	0.078374	0.450297	-0.318978	0.030262	-0.833409	-23.023912	-30.293178	-116.923398
63019		6.857764	-3.650075	8.450695	-0.623413	-1.107696	1.595668	0.007150	-0.133708	-0.051414	-0.699707	0.529053	-0.515137	0.068512	-0.036521	0.084551	0.450142	-0.319530	0.029880	-0.833294	-23.026097	-30.372843	-116.915267
63020		5.554403	-3.066459	7.576941	-0.169151	-0.653867	0.046747	-0.074235	-0.010614	0.017221	-0.705078	0.524902	-0.520264	0.055543	-0.030632	0.075784	0.450125	-0.319743	0.030224	-0.833210	-23.079904	-30.372281	-116.897176
63021		5.122024	-3.669617	7.409594	-0.526969	-0.005728	-0.100552	-0.082219	-0.037556	0.003742	-0.696777	0.535400	-0.515869	0.051207	-0.036665	0.074121	0.450043	-0.320087	0.030519	-0.833111	-23.137734	-30.388862	-116.880276
63022		5.584403	-3.875063	7.650935	-0.713767	-0.184795	0.394901	-0.078114	-0.012340	0.016285	-0.699951	0.525879	-0.518799	0.055842	-0.038716	0.076528	0.450016	-0.320315	0.030873	-0.833025	-23.193715	-30.389408	-116.862302
63023		5.104187	-3.703256	7.319551	-0.581063	0.001294	-0.168776	-0.052439	-0.004289	0.003250	-0.693848	0.529541	-0.515137	0.051041	-0.037013	0.073206	0.449975	-0.320454	0.031118	-0.832985	-23.229946	-30.388557	-116.854376
63024		5.295701	-3.671406	7.515442	-0.519532	-0.121260	0.072702	-0.027571	0.021879	-0.005823	-0.695068	0.534424	-0.521484	0.052964	-0.036705	0.075154	0.449931	-0.320430	0.031304	-0.833011	-23.245632	-30.376081	-116.858853
63025		5.122024	-3.520075	7.330736	-0.446243	-0.123521	-0.213138	0.005864	0.044259	-0.022966	-0.698730	0.545166	-0.517090	0.051232	-0.035209	0.073295	0.449866	-0.320239	0.031373	-0.833117	-23.233936	-30.355594	-116.879646
63026		5.219397	-3.500406	7.421573	-0.424283	-0.190212	-0.098857	0.040994	0.067177	-0.052116	-0.699707	0.541260	-0.521729	0.052210	-0.035033	0.074191	0.449732	-0.319879	0.031301	-0.833330	-23.190105	-30.329730	-116.924209
63027		5.106207	-3.564517	7.579394	-0.347606	-0.029285	-0.009390	0.057448	0.097189	-0.059925	-0.699707	0.539307	-0.524170	0.051088	-0.035682	0.075759	0.449587	-0.319357	0.031215	-0.833611	-23.130540	-30.289664	-116.981325
63028		5.192852	-3.444368	7.528844	-0.334344	-0.181135	-0.047019	0.075270	0.111512	-0.065832	-0.697754	0.543701	-0.527588	0.051959	-0.034489	0.075247	0.449444	-0.318738	0.031078	-0.833931	-23.057150	-30.243448	-117.045693
63029		5.113996	-3.324745	7.654392	-0.159831	-0.163943	-0.027793	0.086394	0.118719	-0.072369	-0.694336	0.549561	-0.524902	0.051173	-0.033299	0.076499	0.449290	-0.318063	0.030900	-0.834278	-22.974531	-30.194692	-117.115816
63030		5.036214	-3.383658	7.777508	-0.118943	-0.042723	0.050691	0.093819	0.137424	-0.066373	-0.699219	0.539307	-0.525391	0.050404	-0.033890	0.077725	0.449169	-0.317293	0.030743	-0.834642	-22.887201	-30.134776	-117.186983
63031		5.257269	-3.135122	7.685948	-0.092104	-0.384599	0.004911	0.104584	0.123850	-0.062111	-0.695068	0.550293	-0.529541	0.052611	-0.031408	0.076810	0.449085	-0.316554	0.030517	-0.834976	-22.796883	-30.080845	-117.251913
63032		5.474748	-2.970485	7.682755	-0.076612	-0.652977	0.055905	0.109875	0.135059	-0.059919	-0.695801	0.548584	-0.539307	0.054790	-0.029763	0.076774	0.449016	-0.315757	0.030297	-0.835323	-22.702902	-30.020564	-117.318234
63033		5.390887	-3.013245	7.645873	-0.112110	-0.575344	-0.001619	0.099186	0.145068	-0.046246	-0.690430	0.547852	-0.535645	0.053957	-0.030183	0.076405	0.448985	-0.314939	0.030167	-0.835653	-22.618073	-29.951735	-117.378611
63034		4.853497	-2.984931	7.848113	0.218869	-0.136455	-0.117710	0.091974	0.132613	-0.032165	-0.690430	0.548584	-0.540527	0.048582	-0.029893	0.078435	0.449004	-0.314187	0.030060	-0.835930	-22.543376	-29.886495	-117.427080
63035		4.649660	-3.090207	7.902074	0.239429	0.091174	-0.140778	0.074570	0.112618	-0.034869	-0.693848	0.555664	-0.543457	0.046536	-0.030940	0.078983	0.448987	-0.313558	0.029977	-0.836178	-22.480450	-29.832211	-117.472021
63036		4.628989	-3.155960	7.939389	0.208346	0.152374	-0.099043	0.075935	0.084307	-0.050513	-0.699707	0.548340	-0.540771	0.046315	-0.031601	0.079362	0.448910	-0.313047	0.029800	-0.836417	-22.415610	-29.796464	-117.519286
63037		4.358026	-3.094826	8.125480	0.454215	0.367162	-0.104307	0.063159	0.058240	-0.051305	-0.694336	0.553223	-0.542725	0.043596	-0.030985	0.081232	0.448814	-0.312672	0.029617	-0.836615	-22.361165	-29.774490	-117.560418
63038		4.331395	-3.115386	8.148957	0.455923	0.406873	-0.091643	0.043539	0.016441	-0.056315	-0.694336	0.557861	-0.552246	0.043312	-0.031184	0.081479	0.448673	-0.312518	0.029414	-0.836756	-22.321651	-29.775880	-117.594103
63039		4.893382	-3.094731	8.073583	0.199366	-0.051110	0.120234	0.044752	-0.012439	-0.061019	-0.692871	0.558838	-0.543701	0.048919	-0.030980	0.080732	0.448518	-0.312482	0.029135	-0.836862	-22.283621	-29.793432	-117.623423
63040		5.300094	-2.852248	8.012736	0.178090	-0.517617	0.193841	0.014085	-0.028726	-0.041763	-0.694580	0.564941	-0.544922	0.052983	-0.028539	0.080133	0.448398	-0.312581	0.028976	-0.836895	-22.270992	-29.815562	-117.636924
63041		5.427861	-2.807119	7.842358	0.067855	-0.679273	0.105889	-0.020854	-0.030768	-0.016878	-0.700195	0.562500	-0.552002	0.054264	-0.028068	0.078435	0.448327	-0.312763	0.028999	-0.836864	-22.286222	-29.833232	-117.634700
63042		5.184639	-3.077390	7.939356	0.024974	-0.308593	0.151666	-0.042867	-0.011337	-0.001140	-0.695068	0.565430	-0.544189	0.051842	-0.030757	0.079403	0.448286	-0.312910	0.029181	-0.836825	-22.316384	-29.837335	-117.627735
63043		5.396438	-3.301010	7.758011	-0.319933	-0.382619	0.185122	-0.046144	0.014641	0.002885	-0.691650	0.565918	-0.557129	0.053971	-0.032991	0.077584	0.448252	-0.312955	0.029443	-0.836817	-22.346452	-29.826636	-117.624813
63044		5.471672	-3.266161	7.730850	-0.338086	-0.472630	0.189080	-0.044623	0.060302	-0.002860	-0.693604	0.568359	-0.552490	0.054740	-0.032645	0.077299	0.448190	-0.312808	0.029790	-0.836893	-22.368150	-29.793161	-117.636890
63045		5.106711	-3.557672	7.632883	-0.459389	-0.048312	0.025151	-0.036256	0.090801	0.001493	-0.688477	0.578125	-0.551270	0.051102	-0.035563	0.076312	0.448154	-0.312512	0.030178	-0.837009	-22.382621	-29.742412	-117.653966
63046		5.144160	-3.481111	7.591896	-0.445136	-0.140339	-0.014751	-0.002060	0.108715	-0.009840	-0.698975	0.576660	-0.554688	0.051481	-0.034813	0.075891	0.448121	-0.312068	0.030445	-0.837182	-22.371822	-29.684829	-117.682459
63047		5.210249	-3.389954	7.457343	-0.486803	-0.283719	-0.120785	0.027558	0.122422	-0.021152	-0.687988	0.579834	-0.563965	0.052145	-0.033915	0.074537	0.448086	-0.311500	0.030602	-0.837407	-22.339025	-29.622254	-117.721231
63048		5.052711	-3.464879	7.733798	-0.336190	-0.061335	0.047846	0.044490	0.124427	-0.028028	-0.686279	0.583984	-0.566406	0.050570	-0.034673	0.077299	0.448047	-0.310888	0.030681	-0.837652	-22.294258	-29.560291	-117.764633
63049		4.774977	-3.626348	7.738703	-0.351833	0.244637	-0.032367	0.081171	0.134960	-0.050287	-0.698486	0.580811	-0.564453	0.047793	-0.036307	0.077340	0.447970	-0.310152	0.030596	-0.837969	-22.220608	-29.497332	-117.824117
63050		4.631386	-3.586716	7.797695	-0.247863	0.340916	-0.068939	0.106922	0.140113	-0.049235	-0.687256	0.588623	-0.571533	0.046360	-0.035920	0.077925	0.447936	-0.309337	0.030415	-0.838295	-22.132009	-29.431543	-117.884104
63051		4.915079	-3.434236	7.772981	-0.283928	0.024000	0.000059	0.152960	0.133269	-0.073294	-0.696533	0.584229	-0.562744	0.049190	-0.034420	0.077671	0.447874	-0.308450	0.029990	-0.838670	-22.010814	-29.374268	-117.956884
63052		5.148677	-3.169946	7.715650	-0.238331	-0.327051	-0.018562	0.165653	0.147755	-0.068936	-0.694336	0.581299	-0.575684	0.051533	-0.031781	0.077092	0.447846	-0.307475	0.029550	-0.839059	-21.882071	-29.308425	-118.030378
63053		5.196288	-3.028308	7.761155	-0.152627	-0.438229	-0.004925	0.188508	0.149048	-0.079726	-0.689941	0.581543	-0.578613	0.052009	-0.030377	0.077544	0.447808	-0.306442	0.029001	-0.839476	-21.737038	-29.243837	-118.110540
63054		5.580110	-2.760776	7.659304	-0.193705	-0.916382	0.013152	0.186710	0.158709	-0.076384	-0.696045	0.583496	-0.580322	0.055851	-0.027701	0.076523	0.447779	-0.305373	0.028486	-0.839899	-21.593093	-29.173439	-118.190765
63055		5.025104	-2.913208	8.062460	0.115704	-0.309565	0.118699	0.169092	0.180015	-0.051102	-0.702881	0.584961	-0.583496	0.050316	-0.029213	0.080555	0.447825	-0.304249	0.028131	-0.840294	-21.464469	-29.085985	-118.260438
63056		4.638721	-3.026536	8.023745	0.147566	0.042155	-0.064122	0.160976	0.186179	-0.044067	-0.701660	0.588867	-0.591064	0.046455	-0.030340	0.080170	0.447887	-0.303117	0.027834	-0.840680	-21.342087	-28.993879	-118.327018
63057		4.546756	-2.963910	8.210902	0.309019	0.111996	0.024415	0.142087	0.186255	-0.045690	-0.697754	0.591309	-0.592773	0.045537	-0.029708	0.082046	0.447913	-0.302026	0.027616	-0.841066	-21.230275	-28.901711	-118.394325
63058		4.569130	-2.770668	8.185164	0.407385	-0.032082	-0.046243	0.127677	0.165493	-0.039639	-0.701172	0.591064	-0.590820	0.045753	-0.027768	0.081796	0.447944	-0.301054	0.027419	-0.841404	-21.131064	-28.819506	-118.452791
63059		4.829683	-2.669286	8.187447	0.356348	-0.297995	0.049838	0.105526	0.141961	-0.033025	-0.699951	0.592529	-0.600586	0.048351	-0.026744	0.081826	0.447974	-0.300228	0.027274	-0.841688	-21.049330	-28.748205	-118.501488
63060		4.347254	-2.792033	8.341211	0.534020	0.175307	-0.017079	0.077310	0.135893	-0.004520	-0.695801	0.592285	-0.594971	0.043529	-0.027954	0.083372	0.448081	-0.299489	0.027275	-0.841895	-20.992878	-28.674467	-118.531261
63061		5.019392	-2.921768	8.169988	0.053571	-0.309509	0.206347	0.075549	0.102338	0.000739	-0.699951	0.599854	-0.595215	0.050236	-0.029248	0.081663	0.448212	-0.298892	0.027218	-0.842039	-20.942841	-28.617352	-118.549880
63062		5.267626	-2.732424	7.829826	-0.101347	-0.694260	-0.013304	0.068772	0.096314	-0.001375	-0.706543	0.594971	-0.599365	0.052714	-0.027352	0.078263	0.448228	-0.298335	0.027203	-0.842228	-20.896572	-28.564407	-118.581381
63063		5.577737	-2.672147	7.959831	-0.127983	-0.945887	0.222219	0.048788	0.089040	0.012410	-0.690430	0.602051	-0.607910	0.055814	-0.026737	0.079567	0.448370	-0.297853	0.027246	-0.842322	-20.866829	-28.512002	-118.589680
63064		5.048383	-2.647987	8.252907	0.259015	-0.494005	0.202169	0.025356	0.098415	0.023872	-0.700684	0.595947	-0.615723	0.050528	-0.026484	0.082501	0.448430	-0.297381	0.027455	-0.842449	-20.852598	-28.452788	-118.605876
63065		4.861605	-3.130830	8.362290	0.032212	-0.047374	0.354018	-0.007924	0.112812	0.029106	-0.699707	0.603760	-0.607910	0.048668	-0.031298	0.083597	0.448554	-0.296923	0.027815	-0.842533	-20.857595	-28.384246	-118.609487
63066		4.957699	-3.104466	8.274576	-0.040189	-0.167726	0.319210	-0.010051	0.120097	0.026444	-0.697998	0.603271	-0.615479	0.049631	-0.031034	0.082718	0.448569	-0.296439	0.028225	-0.842682	-20.862002	-28.312907	-118.629150
63067		4.815697	-3.194925	8.051300	-0.170024	-0.064237	0.096342	-0.006856	0.123806	0.024848	-0.705322	0.619873	-0.619141	0.048211	-0.031941	0.080484	0.448675	-0.295933	0.028599	-0.842791	-20.863960	-28.239348	-118.637904
63068		5.189316	-3.102458	7.749924	-0.423529	-0.483242	-0.004392	0.012160	0.100037	0.015362	-0.702393	0.612549	-0.618652	0.051934	-0.031025	0.077471	0.448683	-0.295485	0.028852	-0.842935	-20.854688	-28.180997	-118.658991
63069		4.960510	-2.942908	7.985923	-0.090801	-0.358012	0.031392	0.010017	0.088010	0.015255	-0.700439	0.616943	-0.621094	0.049642	-0.029429	0.079836	0.448779	-0.295093	0.029060	-0.843015	-20.848165	-28.128560	-118.665264
63070		4.660534	-3.239372	8.016394	-0.171198	0.050713	0.007944	0.001297	0.059861	0.014902	-0.704102	0.613525	-0.615967	0.046632	-0.032391	0.080150	0.448863	-0.294840	0.029240	-0.843052	-20.849540	-28.091545	-118.665257
63071		4.761357	-3.273880	7.987835	-0.256618	-0.017338	0.042675	0.006040	0.030925	0.008224	-0.710449	0.618652	-0.621338	0.047627	-0.032739	0.079870	0.448932	-0.294698	0.029326	-0.843062	-20.849508	-28.071108	-118.662597
63072		5.306612	-2.881128	8.002249	-0.190598	-0.672365	0.187743	0.009110	0.011818	0.004680	-0.704102	0.622314	-0.632568	0.053072	-0.028814	0.080018	0.448992	-0.294632	0.029350	-0.843052	-20.848721	-28.061905	-118.657688
63073		4.830877	-3.063186	7.829082	-0.215584	-0.234115	-0.121778	0.013441	0.012410	0.000306	-0.710938	0.616943	-0.628662	0.048314	-0.030637	0.078286	0.449040	-0.294553	0.029352	-0.843054	-20.844200	-28.052995	-118.655553
63074		4.499466	-3.237896	8.064406	-0.082854	0.175334	-0.028711	0.007866	0.024643	0.009563	-0.719238	0.632813	-0.636475	0.045006	-0.032380	0.080637	0.449117	-0.294435	0.029417	-0.843052	-20.844123	-28.035948	-118.650645
63075		4.661920	-3.277320	7.954307	-0.240211	0.047259	-0.030796	0.017614	0.022671	-0.001929	-0.716553	0.624756	-0.631104	0.046628	-0.032781	0.079535	0.449161	-0.294304	0.029421	-0.843074	-20.835459	-28.022000	-118.652235
63076		4.772013	-3.225526	8.049746	-0.201113	-0.049891	0.083352	0.020563	0.026953	-0.000818	-0.720215	0.626953	-0.631592	0.047731	-0.032264	0.080488	0.449212	-0.294149	0.029422	-0.843101	-20.824908	-28.005830	-118.654151
63077		5.262764	-2.895704	7.757251	-0.320447	-0.690891	-0.031240	0.019270	0.031647	-0.003526	-0.725586	0.635742	-0.626465	0.052639	-0.028965	0.077561	0.449250	-0.293976	0.029437	-0.843140	-20.813872	-27.987399	-118.658774
63078		5.075005	-2.853467	7.996442	-0.087768	-0.522167	0.064593	0.007858	0.049524	0.001933	-0.727051	0.630859	-0.641602	0.050770	-0.028537	0.079951	0.449291	-0.293755	0.029547	-0.843192	-20.808949	-27.958596	-118.664216
63079		4.774075	-3.013294	8.057163	-0.049389	-0.185622	0.023608	-0.006443	0.052442	0.012339	-0.725586	0.637695	-0.636475	0.047764	-0.030127	0.080560	0.449355	-0.293550	0.029740	-0.843222	-20.814914	-27.925798	-118.664007
63080		4.514537	-3.116455	8.100274	0.004504	0.080536	-0.029985	-0.003315	0.060759	0.013842	-0.729004	0.634033	-0.635498	0.045172	-0.031160	0.080990	0.449428	-0.293304	0.029939	-0.843262	-20.818559	-27.888566	-118.664823
63081		4.536181	-3.083802	8.002667	-0.034680	0.017977	-0.110733	0.010069	0.065020	0.006589	-0.734863	0.644287	-0.643311	0.045389	-0.030841	0.080010	0.449490	-0.293010	0.030083	-0.843326	-20.812080	-27.850203	-118.670997
63082		4.368546	-2.980254	8.055075	0.136438	0.092537	-0.178210	0.011583	0.064857	0.005599	-0.726318	0.640137	-0.638672	0.043712	-0.029806	0.080535	0.449550	-0.292715	0.030217	-0.843392	-20.804424	-27.812451	-118.677740
63083		4.167995	-3.093151	8.098133	0.156618	0.320280	-0.200590	0.014779	0.046766	-0.006133	-0.739502	0.642334	-0.643799	0.041698	-0.030939	0.080969	0.449568	-0.292489	0.030281	-0.843459	-20.793626	-27.786451	-118.687403
63084		4.644645	-2.884755	7.953527	0.029576	-0.205870	-0.163342	0.029068	0.030130	-0.019032	-0.732910	0.646484	-0.642090	0.046456	-0.028864	0.079524	0.449554	-0.292304	0.030227	-0.843532	-20.772735	-27.772295	-118.701057
63085		4.724668	-2.878185	8.097483	0.071722	-0.241992	-0.009016	0.026312	0.024307	-0.014688	-0.738770	0.648926	-0.650879	0.047254	-0.028796	0.080965	0.449556	-0.292148	0.030179	-0.843586	-20.755332	-27.760060	-118.710724
63086		4.546442	-2.945627	8.194261	0.145340	-0.043563	0.009214	0.010379	0.016221	-0.019483	-0.743652	0.645264	-0.648682	0.045468	-0.029465	0.081937	0.449515	-0.292064	0.030172	-0.843637	-20.746512	-27.753446	-118.721450
63087		4.473869	-3.000073	8.145423	0.109538	0.034242	-0.047920	0.000046	0.006077	-0.009167	-0.738770	0.654297	-0.650635	0.044740	-0.030003	0.081453	0.449505	-0.292043	0.030202	-0.843649	-20.747666	-27.749856	-118.723587
63088		4.743231	-2.972299	8.204116	0.045778	-0.179539	0.117368	0.002006	0.008929	-0.008421	-0.744629	0.644531	-0.646973	0.047435	-0.029726	0.082039	0.449500	-0.292008	0.030230	-0.843663	-20.747537	-27.744899	-118.725945
63089		4.665192	-3.055326	8.049738	-0.063263	-0.103325	-0.020719	0.002383	0.011433	-0.002581	-0.749512	0.646240	-0.642578	0.046656	-0.030555	0.080494	0.449520	-0.291958	0.030272	-0.843668	-20.748637	-27.737103	-118.725323
63090		4.943252	-3.030945	8.086770	-0.145072	-0.327279	0.131661	0.005506	0.019752	-0.001079	-0.754883	0.647949	-0.653809	0.049440	-0.030312	0.080862	0.449549	-0.291867	0.030320	-0.843682	-20.747414	-27.724860	-118.725718
63091		4.908965	-3.042523	7.968519	-0.201940	-0.320711	0.021363	0.008444	0.024030	0.000042	-0.752686	0.647949	-0.651367	0.049099	-0.030429	0.079678	0.449587	-0.291750	0.030369	-0.843701	-20.744437	-27.709782	-118.726397
63092		5.148995	-2.799750	7.984219	-0.117682	-0.650037	0.069727	0.007892	0.025604	0.001416	-0.753906	0.651611	-0.648926	0.051500	-0.028000	0.079834	0.449629	-0.291630	0.030423	-0.843718	-20.741926	-27.693911	-118.726622
63093		4.963045	-2.902748	8.056170	-0.079043	-0.431645	0.075036	0.006607	0.024715	0.003778	-0.758301	0.658447	-0.642578	0.049641	-0.029029	0.080555	0.449680	-0.291513	0.030487	-0.843729	-20.740978	-27.677707	-118.725195
63094		4.480572	-3.058292	8.303362	0.138221	0.084320	0.104382	-0.005513	0.035034	0.011178	-0.755859	0.646729	-0.650391	0.044822	-0.030578	0.083027	0.449743	-0.291381	0.030633	-0.843736	-20.747879	-27.654822	-118.721678
63095		4.566614	-3.075720	8.157385	0.012430	-0.006766	0.028895	-0.009731	0.024292	0.017490	-0.770996	0.650879	-0.653809	0.045679	-0.030749	0.081570	0.449828	-0.291301	0.030785	-0.843712	-20.760183	-27.636061	-118.711865
63096		4.663386	-2.889705	8.092246	0.075524	-0.209809	-0.038626	-0.012794	0.024590	0.019489	-0.767334	0.660645	-0.647217	0.046647	-0.028887	0.080919	0.449916	-0.291229	0.030950	-0.843684	-20.774687	-27.617076	-118.700939
63097		5.138340	-2.748698	8.008711	-0.064132	-0.683891	0.067875	-0.025709	0.010135	0.021841	-0.764160	0.651123	-0.653564	0.051390	-0.027471	0.080088	0.449999	-0.291244	0.031144	-0.843628	-20.798858	-27.605009	-118.685263
63098		4.664228	-2.868731	8.197678	0.149637	-0.209470	0.042276	-0.048127	0.024498	0.037985	-0.770264	0.657959	-0.655029	0.046658	-0.028659	0.081978	0.450114	-0.291248	0.031485	-0.843553	-20.838768	-27.582312	-118.663165
63099		4.916716	-2.923326	8.073198	-0.058772	-0.405801	0.073077	-0.055366	0.014546	0.042202	-0.764893	0.660400	-0.656494	0.049179	-0.029201	0.080736	0.450238	-0.291308	0.031843	-0.843452	-20.885134	-27.563710	-118.636230
63100		4.913525	-2.879946	8.171896	0.031333	-0.415483	0.139352	-0.072540	0.022288	0.050876	-0.771729	0.655273	-0.650635	0.049152	-0.028757	0.081724	0.450372	-0.291375	0.032301	-0.843340	-20.942819	-27.539535	-118.605893
63101		4.848501	-2.940014	8.232120	0.052357	-0.325452	0.177847	-0.090651	0.023515	0.060158	-0.762939	0.665283	-0.651367	0.048504	-0.029348	0.082329	0.450519	-0.291473	0.032854	-0.843206	-21.013405	-27.512404	-118.570254
63102		4.481745	-3.131506	8.261228	0.088962	0.069734	0.093243	-0.100998	0.027511	0.068946	-0.768555	0.656738	-0.652832	0.044840	-0.031258	0.082622	0.450686	-0.291578	0.033470	-0.843056	-21.091793	-27.481661	-118.530321
63103		4.943902	-3.112379	7.946053	-0.248431	-0.376909	0.039472	-0.109398	0.012570	0.068311	-0.771240	0.656982	-0.656738	0.049455	-0.031063	0.079474	0.450842	-0.291764	0.034090	-0.842884	-21.176483	-27.458609	-118.487324
63104		5.077866	-2.805807	7.955782	-0.063606	-0.670045	0.010689	-0.111593	0.011230	0.062143	-0.773438	0.662598	-0.653076	0.050792	-0.027998	0.079571	0.450967	-0.291963	0.034704	-0.842723	-21.260724	-27.437876	-118.447800
63105		4.688269	-2.955030	8.288843	0.175486	-0.220594	0.154133	-0.140201	0.026574	0.078329	-0.778809	0.662354	-0.633301	0.046905	-0.029474	0.082903	0.451117	-0.292156	0.035499	-0.842543	-21.364246	-27.405143	-118.402164
63106		4.644426	-3.115640	8.154898	0.017604	-0.131822	0.074807	-0.164399	0.018652	0.089516	-0.770996	0.672852	-0.645508	0.046466	-0.031069	0.081570	0.451279	-0.292438	0.036392	-0.842320	-21.485407	-27.374610	-118.348056
63107		4.612508	-3.117706	8.136608	0.033937	-0.123623	0.045469	-0.174909	0.027618	0.097453	-0.784912	0.677734	-0.652100	0.046151	-0.031083	0.081387	0.451458	-0.292701	0.037364	-0.842090	-21.613844	-27.337129	-118.291373
63108		4.893491	-2.939276	8.147404	0.068068	-0.461270	0.124534	-0.183323	0.016110	0.101353	-0.774658	0.678223	-0.649902	0.048956	-0.029293	0.081497	0.451641	-0.293033	0.038348	-0.841832	-21.749234	-27.305230	-118.229756
63109		4.666989	-3.093806	8.118894	0.050851	-0.214770	0.047338	-0.213522	0.026881	0.115576	-0.772217	0.671875	-0.645752	0.046699	-0.030824	0.081216	0.451838	-0.293383	0.039507	-0.841551	-21.904675	-27.264038	-118.162292
63110		4.653437	-3.161061	7.821139	-0.133696	-0.240002	-0.182450	-0.198685	0.017251	0.104824	-0.773926	0.684570	-0.653076	0.046558	-0.031508	0.078239	0.452013	-0.293744	0.040564	-0.841281	-22.049507	-27.230515	-118.099106
63111		4.558453	-3.364508	7.775493	-0.252521	-0.069995	-0.195567	-0.182668	0.026214	0.101607	-0.784180	0.681396	-0.642090	0.045612	-0.033551	0.077780	0.452195	-0.294028	0.041571	-0.841034	-22.183327	-27.192388	-118.040097
63112		4.190710	-3.405917	8.018627	0.014558	0.276475	-0.149146	-0.170851	0.016931	0.092797	-0.776855	0.683105	-0.642578	0.041930	-0.033971	0.080212	0.452359	-0.294329	0.042491	-0.840795	-22.308809	-27.161388	-117.984220
63113		4.062100	-3.573703	8.033812	-0.033647	0.466257	-0.138205	-0.155341	0.016574	0.074593	-0.776123	0.685303	-0.643311	0.040641	-0.035659	0.080362	0.452469	-0.294598	0.043322	-0.840599	-22.420551	-27.134030	-117.939155
63114		4.258168	-3.660076	7.856988	-0.261444	0.318178	-0.164329	-0.129736	0.002113	0.056188	-0.780518	0.690186	-0.645752	0.042593	-0.036538	0.078593	0.452542	-0.294875	0.043983	-0.840429	-22.514100	-27.118685	-117.901572
63115		4.716969	-3.387304	7.638994	-0.358800	-0.251589	-0.226978	-0.091995	-0.017966	0.033315	-0.791260	0.692383	-0.644775	0.047168	-0.033830	0.076410	0.452579	-0.295154	0.044408	-0.840288	-22.582177	-27.118546	-117.872631
63116		4.680337	-3.278563	7.845572	-0.144959	-0.251338	-0.110969	-0.074702	-0.006882	0.026281	-0.787109	0.689697	-0.642822	0.046805	-0.032750	0.078470	0.452609	-0.295352	0.044773	-0.840183	-22.637094	-27.114466	-117.850637
63117		4.636304	-3.392920	7.972007	-0.136498	-0.128694	0.012023	-0.050671	-0.016589	0.011976	-0.785400	0.693604	-0.650391	0.046358	-0.033906	0.079733	0.452617	-0.295536	0.044996	-0.840102	-22.675560	-27.118260	-117.834715
63118		4.414196	-3.484692	7.911726	-0.139179	0.086523	-0.107186	-0.040799	-0.008201	-0.001415	-0.783936	0.687988	-0.645264	0.044138	-0.034831	0.079126	0.452581	-0.295668	0.045175	-0.840066	-22.703703	-27.120979	-117.828848
63119		4.403566	-3.448453	7.979831	-0.067647	0.086148	-0.068513	-0.027774	-0.026077	-0.008187	-0.787842	0.697754	-0.642334	0.044024	-0.034475	0.079809	0.452540	-0.295845	0.045251	-0.840021	-22.724670	-27.134233	-117.822536
63120		4.505593	-3.274189	7.864130	-0.041073	-0.117485	-0.176830	-0.018631	-0.025244	-0.019713	-0.782959	0.698975	-0.647949	0.045043	-0.032739	0.078650	0.452464	-0.296003	0.045271	-0.840006	-22.737098	-27.150003	-117.823291
63121		4.802414	-3.237334	7.850415	-0.142187	-0.372802	-0.065209	-0.004000	-0.037594	-0.032514	-0.780029	0.693359	-0.647461	0.048004	-0.032380	0.078514	0.452359	-0.296180	0.045185	-0.840004	-22.739164	-27.174728	-117.828552
63122		4.492420	-3.318859	8.018327	0.019626	-0.045564	-0.040904	-0.011225	-0.033404	-0.029753	-0.790527	0.696289	-0.639648	0.044906	-0.033191	0.080193	0.452253	-0.296358	0.045140	-0.840001	-22.745553	-27.197042	-117.833236
63123		4.460613	-3.342373	8.057590	0.039334	0.004176	-0.015151	-0.003988	-0.042697	-0.031594	-0.793213	0.688477	-0.645508	0.044584	-0.033429	0.080586	0.452153	-0.296556	0.045044	-0.839990	-22.748440	-27.224261	-117.836677
63124		4.538480	-3.379560	8.038667	-0.028225	-0.034491	0.017745	0.005526	-0.044552	-0.036318	-0.780029	0.701172	-0.642822	0.045361	-0.033806	0.080396	0.452047	-0.296744	0.044894	-0.839989	-22.744711	-27.253918	-117.842486
63125		4.446881	-3.352922	8.125900	0.078038	0.043947	0.038154	0.015300	-0.052560	-0.038781	-0.792480	0.696045	-0.651855	0.044441	-0.033544	0.081268	0.451947	-0.296941	0.044684	-0.839984	-22.735710	-27.287940	-117.847747
63126		4.749968	-3.437220	7.781215	-0.293909	-0.204863	-0.076383	0.018123	-0.059767	-0.049876	-0.795410	0.697510	-0.649414	0.047468	-0.034391	0.077823	0.451806	-0.297168	0.044426	-0.839993	-22.722790	-27.328635	-117.857843
63127		5.024459	-3.182380	7.941907	-0.133500	-0.531468	0.094195	0.032729	-0.064145	-0.054935	-0.792969	0.701172	-0.648438	0.050210	-0.031851	0.079430	0.451667	-0.297378	0.044093	-0.840011	-22.700695	-27.372352	-117.869855
63128		4.576976	-3.298833	8.082140	0.043356	-0.076974	0.043488	0.023215	-0.054325	-0.042456	-0.792969	0.700439	-0.646973	0.045741	-0.033007	0.080830	0.451563	-0.297569	0.043837	-0.840013	-22.686238	-27.408539	-117.876924
63129		4.605957	-3.424084	8.053652	-0.074846	-0.025385	0.076410	0.020313	-0.050043	-0.039978	-0.796875	0.698975	-0.649902	0.046033	-0.034258	0.080545	0.451466	-0.297744	0.043610	-0.840015	-22.673712	-27.441490	-117.883573
63130		4.760213	-3.389772	7.924667	-0.182695	-0.185616	0.030214	0.027472	-0.049159	-0.043639	-0.796875	0.697021	-0.643555	0.047575	-0.033919	0.079254	0.451362	-0.297904	0.043347	-0.840028	-22.655880	-27.475204	-117.892656
63131		4.803857	-3.348175	7.935150	-0.164903	-0.235924	0.044851	0.036067	-0.043876	-0.045133	-0.803711	0.705566	-0.650635	0.048014	-0.033507	0.079356	0.451264	-0.298019	0.043059	-0.840054	-22.632183	-27.506028	-117.903938
63132		4.869752	-3.199737	7.941616	-0.080542	-0.367585	0.030099	0.030870	-0.041942	-0.040676	-0.802246	0.705078	-0.653076	0.048674	-0.032020	0.079421	0.451177	-0.298140	0.042802	-0.840072	-22.612369	-27.535274	-117.913081
63133		4.878379	-3.175412	7.912934	-0.081836	-0.388986	0.002522	0.022351	-0.038682	-0.035543	-0.810303	0.706543	-0.654053	0.048763	-0.031772	0.079135	0.451098	-0.298262	0.042599	-0.840081	-22.598556	-27.561232	-117.919962
63134		4.681595	-3.257569	8.077818	0.029262	-0.149435	0.074529	0.011988	-0.034790	-0.026650	-0.808350	0.711914	-0.652588	0.046798	-0.032587	0.080784	0.451039	-0.298392	0.042458	-0.840073	-22.592592	-27.583616	-117.922532
63135		4.592805	-3.260536	8.037211	0.044025	-0.082607	0.001228	-0.004063	-0.045595	-0.017780	-0.806152	0.722900	-0.648926	0.045907	-0.032608	0.080383	0.450997	-0.298600	0.042376	-0.840026	-22.599612	-27.609319	-117.917101
63136		4.906288	-3.097016	7.877369	-0.048977	-0.452268	-0.039808	-0.011729	-0.057502	-0.023575	-0.817383	0.712402	-0.649170	0.049037	-0.030971	0.078790	0.450921	-0.298878	0.042288	-0.839973	-22.610701	-27.643041	-117.912187
63137		4.846002	-3.169389	7.962207	-0.026353	-0.341567	0.026425	-0.023982	-0.061003	-0.018612	-0.816650	0.713623	-0.652832	0.048433	-0.031689	0.079641	0.450849	-0.299195	0.042254	-0.839900	-22.630695	-27.677074	-117.903403
63138		4.345205	-3.212680	8.176195	0.271782	0.121848	-0.016587	-0.043670	-0.070013	-0.006286	-0.816895	0.720947	-0.655762	0.043422	-0.032110	0.081784	0.450800	-0.299595	0.042298	-0.839782	-22.666347	-27.713606	-117.885017
63139		4.596936	-3.352900	7.998535	-0.022589	-0.024433	0.003076	-0.055717	-0.087713	-0.006731	-0.811768	0.722656	-0.654785	0.045933	-0.033508	0.080015	0.450735	-0.300093	0.042355	-0.839636	-22.710964	-27.759124	-117.862417
63140		4.697619	-3.252970	8.018611	0.029555	-0.154401	0.032252	-0.056810	-0.089734	-0.002983	-0.823975	0.713379	-0.652344	0.046940	-0.032508	0.080216	0.450684	-0.300603	0.042414	-0.839477	-22.757422	-27.805315	-117.837048
63141		4.550063	-3.414154	8.047082	-0.001282	0.064944	0.041795	-0.071720	-0.090033	0.005841	-0.822510	0.724854	-0.651611	0.045465	-0.034111	0.080504	0.450649	-0.301144	0.042552	-0.839295	-22.815067	-27.849234	-117.806249
63142		4.874360	-3.358482	7.872264	-0.178336	-0.253023	0.031880	-0.059377	-0.101314	-0.000440	-0.829346	0.732422	-0.653076	0.048704	-0.033562	0.078757	0.450607	-0.301709	0.042600	-0.839113	-22.865158	-27.900932	-117.776331
63143		5.023040	-3.524309	7.916784	-0.324998	-0.257326	0.195074	-0.057422	-0.121845	-0.004581	-0.839111	0.734375	-0.649902	0.050181	-0.035222	0.079209	0.450556	-0.302353	0.042590	-0.838909	-22.915560	-27.963916	-117.743614
63144		4.618651	-3.730221	8.239927	-0.120306	0.252463	0.339389	-0.054687	-0.139337	-0.013781	-0.831543	0.726563	-0.651367	0.046127	-0.037283	0.082442	0.450473	-0.303069	0.042512	-0.838699	-22.963864	-28.038621	-117.711914
63145		4.592361	-4.033729	7.719830	-0.602733	0.357399	0.008996	-0.038200	-0.171134	-0.038953	-0.834473	0.728027	-0.647217	0.045850	-0.040331	0.077245	0.450317	-0.303884	0.042259	-0.838501	-22.999614	-28.135248	-117.687089
63146		4.996527	-3.856835	7.397495	-0.805348	-0.113384	-0.122387	0.013136	-0.186073	-0.080421	-0.838379	0.726074	-0.649658	0.049881	-0.038593	0.074019	0.450066	-0.304657	0.041690	-0.838383	-22.996008	-28.249485	-117.683249
63147		4.725727	-3.660805	7.858688	-0.291534	0.094731	0.056404	0.045993	-0.186938	-0.098722	-0.847168	0.739258	-0.653809	0.047166	-0.036649	0.078623	0.449790	-0.305360	0.040957	-0.838312	-22.968551	-28.367818	-117.690165
63148		4.468429	-3.593198	8.182393	0.046630	0.342995	0.172783	0.051103	-0.203257	-0.108468	-0.848633	0.729980	-0.637207	0.044582	-0.035977	0.081860	0.449482	-0.306125	0.040148	-0.838237	-22.937251	-28.497400	-117.698873
63149		4.491035	-3.599753	8.335434	0.123887	0.385214	0.308739	0.049474	-0.239853	-0.125724	-0.863037	0.730957	-0.646240	0.044788	-0.036046	0.083399	0.449108	-0.307047	0.039240	-0.838144	-22.906366	-28.649677	-117.708729
63150		4.588305	-3.461250	8.018870	0.021849	0.188984	0.051327	0.023739	-0.302983	-0.144000	-0.864746	0.726074	-0.648438	0.045737	-0.034655	0.080254	0.448627	-0.308297	0.038268	-0.837987	-22.892536	-28.839792	-117.713631
63151		5.031286	-2.905036	8.180421	0.351389	-0.419171	0.205949	0.006585	-0.360236	-0.138735	-0.871094	0.729248	-0.639404	0.050145	-0.029088	0.081894	0.448153	-0.309821	0.037249	-0.837725	-22.897156	-29.058505	-117.700787
63152		5.232170	-2.732983	8.152739	0.401832	-0.649150	0.223693	-0.038237	-0.410828	-0.111554	-0.873291	0.723389	-0.641113	0.052139	-0.027343	0.081640	0.447729	-0.311653	0.036344	-0.837311	-22.941819	-29.298293	-117.658465
63153		4.496923	-3.016638	8.283007	0.593857	0.151333	0.064299	-0.066122	-0.469226	-0.093214	-0.880859	0.729736	-0.629150	0.044761	-0.030160	0.082945	0.447349	-0.313785	0.035456	-0.836756	-23.015703	-29.564299	-117.589631
63154		3.518816	-3.317503	8.767203	1.074376	1.232527	0.065472	-0.103942	-0.588815	-0.118962	-0.883057	0.730225	-0.630127	0.034910	-0.033150	0.087792	0.446818	-0.316506	0.034415	-0.836058	-23.119403	-29.899476	-117.504855
63155		3.035612	-3.388678	8.829803	1.295793	1.713095	-0.114791	-0.102057	-0.795915	-0.132078	-0.887939	0.726074	-0.609619	0.029982	-0.033862	0.088435	0.446266	-0.320084	0.032886	-0.835052	-23.246264	-30.346098	-117.372924
63156		2.887145	-2.013146	9.960096	3.055028	1.333962	0.211183	-0.302247	-1.103274	-0.227086	-0.899902	0.730957	-0.602051	0.028299	-0.020013	0.099788	0.445036	-0.325402	0.031351	-0.833711	-23.501847	-30.975953	-117.215430
63157		3.275975	-3.746339	9.149264	1.288819	1.983653	0.330190	-0.437896	-1.462083	-0.345010	-0.902588	0.732178	-0.593262	0.032025	-0.037318	0.091810	0.443129	-0.332519	0.029392	-0.831988	-23.852283	-31.820125	-117.028559
63158		2.768097	-3.638694	9.664448	1.990057	2.555265	0.376059	-0.513214	-1.870590	-0.435846	-0.930420	0.724609	-0.559814	0.026696	-0.036197	0.096990	0.440743	-0.341489	0.026686	-0.829710	-24.283456	-32.898393	-116.776224
63159		3.149562	-3.306530	9.524294	2.154483	2.191622	0.292491	-0.555249	-2.263475	-0.643783	-0.939941	0.720215	-0.543213	0.030308	-0.032899	0.095682	0.437422	-0.352167	0.022932	-0.827112	-24.740822	-34.228954	-116.528364
63160		3.675434	-4.330070	9.460759	1.375322	2.622511	0.816853	-0.517300	-2.633178	-0.882210	-0.951416	0.716309	-0.524902	0.035313	-0.043213	0.095191	0.433148	-0.364257	0.017787	-0.824247	-25.166965	-35.807716	-116.305843
63161		3.784130	-5.085284	9.696792	1.146403	3.343251	1.219299	-0.370294	-2.957917	-1.108594	-0.964355	0.711670	-0.492432	0.036119	-0.050876	0.097605	0.428141	-0.377305	0.010919	-0.821107	-25.496964	-37.608760	-116.112400
63162		4.839349	-5.122498	10.691608	1.592699	3.252559	2.468855	-0.278802	-3.292960	-1.416377	-0.997314	0.692627	-0.462646	0.046260	-0.051408	0.107761	0.421938	-0.391441	0.002373	-0.817764	-25.728967	-39.658379	-115.999980
63163		4.904621	-6.538103	9.944119	0.335443	4.267940	2.325694	-0.086650	-3.370233	-1.697385	-1.016846	0.687256	-0.426025	0.046804	-0.065741	0.100271	0.414820	-0.405357	-0.007671	-0.814586	-25.752065	-41.817578	-116.043996
63164		5.521889	-5.645839	9.681264	0.783994	3.608703	2.121851	-0.026411	-3.749757	-1.920700	-1.026123	0.655273	-0.394531	0.052846	-0.056961	0.097826	0.406735	-0.420523	-0.019197	-0.810776	-25.718460	-44.228092	-116.118464
63165		8.053699	-7.604423	10.901238	-0.274578	4.269064	5.126768	-0.037847	-3.875829	-2.089620	-1.053955	0.644287	-0.347900	0.077604	-0.076844	0.110550	0.397740	-0.436013	-0.031279	-0.806670	-25.627422	-46.745702	-116.279557
63166		9.662894	-9.753613	11.167341	-1.736861	5.478519	6.924616	0.078124	-3.709856	-2.091251	-1.055420	0.620605	-0.322510	0.093509	-0.098569	0.113389	0.388833	-0.450398	-0.043486	-0.802534	-25.405469	-49.177316	-116.520954
63167		7.274956	-8.816168	8.245951	-2.190537	5.593110	2.936190	0.353204	-3.882927	-2.205061	-1.072998	0.597168	-0.283447	0.070154	-0.089092	0.083682	0.379864	-0.464704	-0.057371	-0.797786	-24.972281	-51.725717	-116.822996
63168		11.914951	-9.701673	11.490672	-1.600115	5.744246	8.422177	0.772834	-3.823877	-2.153300	-1.085938	0.572998	-0.238525	0.115872	-0.098725	0.116764	0.371906	-0.477759	-0.072665	-0.792560	-24.260029	-54.228537	-117.163170
63169		10.780559	-7.220246	10.988580	0.152545	5.032947	6.426415	1.035523	-3.379825	-2.068860	-1.090332	0.542480	-0.216064	0.105174	-0.073873	0.111298	0.364900	-0.488381	-0.087943	-0.787780	-23.233116	-56.476019	-117.692688
63170		9.411767	-5.878072	10.249294	0.961125	4.959446	4.422276	1.193686	-3.094266	-1.911227	-1.082031	0.524658	-0.183105	0.091949	-0.060282	0.103570	0.358886	-0.497466	-0.102898	-0.783033	-22.042899	-58.530903	-118.295580
63171		6.342024	-4.549398	13.591256	5.010393	7.619147	2.933472	1.005033	-2.622134	-1.467271	-1.085938	0.512451	-0.158691	0.061294	-0.046634	0.136493	0.354271	-0.505118	-0.115138	-0.778518	-21.088306	-60.234863	-118.738115
63172		-1.522098	-6.322562	17.570207	8.527466	14.748639	-2.018213	0.396761	-1.672734	-0.653903	-1.087402	0.502197	-0.151855	-0.016896	-0.063520	0.175440	0.351777	-0.510533	-0.121248	-0.775182	-20.859205	-61.260816	-118.742861
63173		-6.811252	-9.050094	16.459761	7.148629	18.430804	-6.910624	-0.240635	-0.979565	0.297119	-1.075439	0.502441	-0.137695	-0.068784	-0.090405	0.164371	0.351738	-0.514934	-0.121241	-0.772285	-21.673905	-61.719878	-117.975119
63174		-2.791251	-12.043796	14.937850	3.227251	18.070695	-3.566301	-0.728325	-0.716388	1.110465	-1.069580	0.516113	-0.120361	-0.027781	-0.120048	0.149716	0.353735	-0.519640	-0.116779	-0.768901	-23.490593	-61.850659	-116.389776
63175		-8.551362	-12.459193	13.201689	2.944549	19.838762	-9.187499	-0.588709	-0.051064	1.674649	-1.065186	0.521973	-0.126221	-0.084502	-0.124913	0.132363	0.358623	-0.521843	-0.110213	-0.766109	-25.479558	-61.477102	-114.515800
63176		-8.317342	-9.310420	11.782361	3.900658	16.715975	-10.018162	-0.223704	0.199627	1.905323	-1.059082	0.547607	-0.135010	-0.082165	-0.093758	0.118011	0.365462	-0.522502	-0.103969	-0.763296	-27.303115	-60.884421	-112.583662
63177		-5.607918	-6.302886	13.179281	6.323618	14.125124	-7.498176	-0.157331	0.589772	2.006766	-1.040039	0.566650	-0.144287	-0.055055	-0.063481	0.132006	0.373018	-0.521560	-0.097005	-0.761198	-28.911419	-60.041854	-110.841313
63178		-3.312620	-5.121058	13.770046	7.081162	12.499608	-5.293467	-0.206171	1.222265	2.005504	-1.030518	0.583252	-0.157715	-0.031769	-0.051392	0.137950	0.380713	-0.518222	-0.088649	-0.760687	-30.148124	-58.860342	-109.545402
63179		-2.061904	-4.644697	13.396888	6.883039	11.253039	-4.219494	-0.231835	1.942958	1.899755	-1.020020	0.606201	-0.183594	-0.018875	-0.046476	0.134212	0.388186	-0.512075	-0.079100	-0.762125	-30.887650	-57.345676	-108.833441
63180		-1.266332	-4.411830	12.402259	6.151409	10.005962	-3.737213	-0.184216	2.611188	1.692469	-1.007568	0.602051	-0.206299	-0.010669	-0.044100	0.124211	0.395184	-0.503078	-0.068931	-0.765500	-31.093258	-55.557458	-108.716261
63181		-0.498205	-4.108262	11.376342	5.431602	8.667159	-3.338838	-0.090211	3.164108	1.392185	-0.989502	0.618164	-0.241699	-0.002896	-0.041056	0.113839	0.401339	-0.491558	-0.058784	-0.770612	-30.803505	-53.589523	-109.137892
63182		0.751285	-3.514243	10.893528	5.169293	7.087241	-2.422346	-0.073749	3.607776	1.088097	-0.969971	0.622314	-0.273193	0.009667	-0.035054	0.108787	0.406375	-0.478023	-0.048518	-0.777174	-30.185147	-51.485177	-109.972988
63183		2.013802	-3.574853	10.606764	4.545537	5.956409	-1.258161	-0.156199	4.001938	0.843365	-0.961426	0.626953	-0.310547	0.022405	-0.035575	0.105662	0.410188	-0.462901	-0.037718	-0.784886	-29.411802	-49.252349	-111.095933
63184		2.813952	-4.028379	9.975788	3.466396	5.145846	-0.585107	-0.275257	4.309193	0.687426	-0.943359	0.625000	-0.348145	0.030419	-0.040045	0.099174	0.413001	-0.446556	-0.026142	-0.793306	-28.625999	-46.895190	-112.367044
63185		3.003922	-4.038893	9.075822	2.635745	4.302093	-0.744339	-0.451819	4.437165	0.620618	-0.918213	0.632568	-0.379883	0.032169	-0.040087	0.090151	0.414953	-0.429864	-0.013760	-0.801774	-27.976941	-44.485330	-113.638656
63186		3.646106	-4.473802	8.526442	1.631603	3.594269	-0.304120	-0.679070	4.380250	0.651022	-0.895508	0.636475	-0.416748	0.038463	-0.044327	0.084588	0.416340	-0.413630	-0.000489	-0.809674	-27.581433	-42.083879	-114.786465
63187		4.284764	-5.663486	7.885771	0.051722	3.354468	0.254614	-0.799624	4.226898	0.729141	-0.874512	0.636475	-0.450195	0.044710	-0.056161	0.078151	0.417575	-0.398091	0.013089	-0.816691	-27.397577	-39.739902	-115.769992
63188		5.388049	-6.970210	8.134814	-1.185881	3.142429	1.697898	-0.797588	4.000161	0.827025	-0.847900	0.649170	-0.478516	0.055783	-0.069152	0.080522	0.419051	-0.383259	0.026399	-0.822686	-27.354935	-37.479595	-116.574848
63189		6.986153	-7.490288	8.542893	-2.014385	2.051063	3.210706	-0.737413	3.826089	0.958638	-0.821289	0.645752	-0.498291	0.071839	-0.074249	0.084342	0.421019	-0.368866	0.039313	-0.827729	-27.399233	-35.277665	-117.216148
63190		7.343696	-7.355694	8.227806	-2.459029	1.204676	3.157163	-0.631919	3.677274	1.086332	-0.781738	0.653320	-0.519043	0.075333	-0.072894	0.081136	0.423586	-0.354671	0.051724	-0.831930	-27.482609	-33.113779	-117.717064
63191		6.867859	-7.220474	7.676884	-2.725886	0.958928	2.429572	-0.466465	3.416665	1.142680	-0.747070	0.648682	-0.543213	0.070389	-0.071628	0.075744	0.426586	-0.341095	0.062951	-0.835294	-27.551482	-31.072459	-118.094564
63192		7.169521	-7.234155	7.895504	-2.905315	0.417937	2.735037	-0.312053	3.070230	1.159485	-0.722656	0.646240	-0.554688	0.073314	-0.071797	0.077950	0.429911	-0.328502	0.072830	-0.837829	-27.604814	-29.198502	-118.350468
63193		8.222627	-7.226866	8.667735	-3.048525	-0.622381	3.798874	-0.173143	2.722289	1.179727	-0.699707	0.644043	-0.555908	0.083820	-0.071703	0.085606	0.433558	-0.317006	0.081368	-0.839591	-27.641269	-27.500442	-118.487197
63194		9.959470	-6.938363	9.836750	-3.070601	-2.351813	5.323991	-0.089051	2.415278	1.270861	-0.675537	0.627197	-0.557373	0.101211	-0.068700	0.097182	0.437768	-0.306489	0.089043	-0.840533	-27.698681	-25.929633	-118.479987
63195		12.641153	-6.706823	11.476958	-3.267679	-4.818622	7.582251	-0.124924	2.196133	1.521527	-0.660889	0.620361	-0.569824	0.128167	-0.066026	0.113410	0.442982	-0.296828	0.096729	-0.840418	-27.861153	-24.407352	-118.271402
63196		15.718937	-6.997746	12.627206	-4.269890	-7.501911	9.705419	-0.268064	2.162697	1.981862	-0.645752	0.618896	-0.575684	0.159225	-0.068239	0.124650	0.449857	-0.287319	0.105633	-0.838998	-28.203117	-22.773001	-117.808671
63197		17.728869	-7.395958	12.408462	-5.631446	-9.562550	10.181719	-0.388471	2.266954	2.561600	-0.637207	0.619385	-0.573975	0.179607	-0.071430	0.122198	0.458809	-0.277288	0.116056	-0.836144	-28.698823	-20.929014	-117.080848
63198		18.614923	-8.390963	10.772083	-7.684081	-10.596088	9.202311	-0.322511	2.413921	3.117168	-0.619385	0.625732	-0.585938	0.188708	-0.080810	0.105585	0.469939	-0.266051	0.127294	-0.831968	-29.211319	-18.847520	-116.126841
63199		18.112709	-9.085189	8.223058	-9.425296	-10.689021	6.772409	0.003315	2.539423	3.445645	-0.606934	0.637451	-0.597168	0.183681	-0.087703	0.079908	0.482580	-0.253226	0.137830	-0.827040	-29.534723	-16.608369	-115.065891
63200		16.489227	-7.683461	5.565715	-9.222088	-10.725729	2.905909	0.425529	2.532192	3.504393	-0.587158	0.647949	-0.614258	0.166892	-0.074037	0.053393	0.495785	-0.239235	0.146635	-0.821865	-29.580545	-14.349654	-113.992287
63201		15.038028	-4.667591	3.931222	-7.252486	-11.371941	-0.789005	0.626307	2.348140	3.371617	-0.562988	0.643311	-0.619629	0.151586	-0.044246	0.037396	0.508588	-0.225509	0.153910	-0.816575	-29.465171	-12.224144	-112.942370
63202		14.158544	-1.942156	2.961053	-5.251644	-12.106305	-3.580711	0.486354	2.021096	3.171923	-0.544189	0.651855	-0.630371	0.142160	-0.017240	0.028132	0.520472	-0.213524	0.160660	-0.810990	-29.392390	-10.316935	-111.904715
63203		13.724601	-1.015922	1.960915	-4.728715	-12.293671	-5.370970	0.205021	1.601080	2.971021	-0.538086	0.665283	-0.643555	0.137528	-0.008137	0.018500	0.531406	-0.204080	0.167170	-0.804993	-29.450428	-8.678828	-110.854379
63204		13.282171	-0.836479	0.876309	-4.786875	-12.078087	-6.800040	0.058505	1.122640	2.781845	-0.522949	0.676270	-0.641357	0.132967	-0.006518	0.008015	0.541695	-0.197045	0.172780	-0.798678	-29.570901	-7.328759	-109.769849
63205		14.700081	0.121982	-0.003750	-4.705074	-13.825394	-8.134890	0.073578	0.630987	2.615415	-0.518311	0.685303	-0.648682	0.146967	0.003142	-0.000500	0.551646	-0.192048	0.176783	-0.792182	-29.665420	-6.271009	-108.633960
63206		15.542429	0.154597	-1.649817	-5.491906	-14.633265	-9.726220	0.240692	0.251760	2.394727	-0.497803	0.691406	-0.659912	0.155370	0.003427	-0.016690	0.561129	-0.188246	0.178850	-0.785946	-29.645959	-5.462129	-107.503351
63207		15.007386	0.736103	-3.354114	-5.423974	-14.281629	-11.715561	0.538296	-0.130718	1.964146	-0.500488	0.701172	-0.655762	0.150013	0.008925	-0.033420	0.569469	-0.185483	0.178232	-0.780727	-29.432810	-4.969620	-106.479227
63208		14.388225	2.028030	-3.602454	-4.057851	-14.117592	-12.699612	0.724531	-0.526295	1.340763	-0.495605	0.695068	-0.662598	0.143835	0.021374	-0.035570	0.575854	-0.184269	0.175179	-0.777013	-29.091108	-4.853192	-105.654889
63209		14.800891	3.236763	-2.237643	-2.300621	-14.975839	-12.043976	0.597354	-0.821331	0.700850	-0.499512	0.701904	-0.656982	0.147984	0.032952	-0.021671	0.579863	-0.185122	0.171161	-0.774721	-28.801629	-5.067860	-105.069648
63210		15.364133	2.968837	-0.170148	-1.534312	-15.573014	-9.969962	0.210663	-0.936095	0.170980	-0.503174	0.695313	-0.661621	0.153622	0.029821	-0.000951	0.581542	-0.187988	0.167820	-0.773502	-28.715837	-5.487539	-104.720435
63211		15.261734	1.431611	1.443793	-1.940087	-15.128801	-7.713053	-0.204449	-0.886029	-0.216484	-0.507813	0.697998	-0.660156	0.152567	0.014166	0.015099	0.581278	-0.192189	0.165854	-0.773092	-28.849188	-5.989427	-104.580109
63212		13.790776	-0.386588	2.141683	-2.721174	-13.224406	-6.258733	-0.425918	-0.821052	-0.514810	-0.519531	0.702148	-0.655762	0.137808	-0.004174	0.021991	0.579578	-0.197028	0.164646	-0.773409	-29.093012	-6.541077	-104.606611
63213		11.836766	-1.758692	2.514368	-3.183873	-10.937137	-5.366970	-0.444005	-0.858617	-0.777112	-0.527832	0.696045	-0.646729	0.118189	-0.017990	0.025691	0.576859	-0.202271	0.163132	-0.774408	-29.332180	-7.184964	-104.752294
63214		3.117080	-8.687733	1.760015	-7.082395	-0.525768	-3.660238	-0.086775	-1.042933	-1.023881	-0.534180	0.700928	-0.647949	0.030633	-0.087027	0.017799	0.573667	-0.207396	0.159447	-0.776189	-29.355961	-7.991032	-104.968854
63215		-4.431019	-11.032997	8.832420	-3.569769	7.527548	2.432735	1.738161	-1.821632	-1.363652	-0.557861	0.678467	-0.648438	-0.045861	-0.110780	0.086950	0.571599	-0.210546	0.146072	-0.779492	-28.335334	-9.279403	-105.147802
63216		-5.388439	-4.645847	20.436319	7.538317	7.075986	9.196190	1.861944	-1.976802	-1.251108	-0.577881	0.669922	-0.646240	-0.056195	-0.048008	0.203373	0.570088	-0.213827	0.131862	-0.782234	-27.253484	-10.613321	-105.251387
63217		-1.241552	-0.084645	17.691246	8.786150	2.064850	5.453458	1.146546	-1.990296	-0.690707	-0.586914	0.666016	-0.633789	-0.014180	-0.001813	0.176769	0.569912	-0.218785	0.120983	-0.782749	-26.631991	-11.806564	-105.080230
63218		-2.627144	0.407895	6.763898	4.256584	2.832125	-4.647725	0.512000	-2.303890	-0.444837	-0.611572	0.664063	-0.620361	-0.027039	0.003966	0.067341	0.570110	-0.226601	0.111948	-0.781725	-26.421987	-13.099006	-104.705893
63219		2.355248	-0.412908	4.243426	1.129449	-1.664377	-5.376828	0.510636	-2.797495	-0.739684	-0.631348	0.653076	-0.605225	0.022940	-0.004324	0.042747	0.569330	-0.236472	0.101155	-0.780841	-26.214488	-14.721010	-104.361015
63220		6.613060	0.416595	6.221406	1.804792	-5.531193	-2.830273	0.557046	-2.897656	-0.965703	-0.638184	0.649170	-0.597168	0.065238	0.003674	0.063174	0.567642	-0.246664	0.089607	-0.780327	-25.964027	-16.452930	-104.114711
63221		7.989359	0.837602	9.947895	3.711166	-6.154784	0.762090	0.452523	-2.831359	-1.059325	-0.668457	0.640869	-0.579834	0.078517	0.007731	0.100615	0.565297	-0.256876	0.078517	-0.779929	-25.758501	-18.174894	-103.941371
63222		9.669805	0.337489	12.627298	4.298974	-6.726895	3.946710	0.115211	-2.526505	-1.033215	-0.681641	0.637451	-0.569092	0.095108	0.002808	0.127483	0.562381	-0.266790	0.069620	-0.779553	-25.729058	-19.733665	-103.836054
63223		9.136246	-0.575974	12.415511	3.643926	-5.612323	4.085579	-0.164665	-2.104015	-1.014446	-0.698242	0.640625	-0.557617	0.090019	-0.006116	0.125112	0.558929	-0.275793	0.063017	-0.779465	-25.827415	-21.069418	-103.830808
63224		8.823735	-1.061114	12.172468	3.286190	-4.922806	4.047821	-0.414610	-1.770314	-0.958461	-0.714355	0.631836	-0.547852	0.087104	-0.010777	0.122521	0.555176	-0.284146	0.058386	-0.779508	-26.048806	-22.219687	-103.880426
63225		8.581932	-1.890070	11.651004	2.507123	-4.292137	3.907922	-0.811797	-1.467786	-0.736607	-0.720947	0.632568	-0.528809	0.084892	-0.018740	0.117212	0.551583	-0.292328	0.056456	-0.779175	-26.515277	-23.158007	-103.882610
63226		8.014692	-5.103496	10.489265	-0.475669	-2.649737	4.081701	-0.947375	-1.256151	-0.556406	-0.716553	0.625488	-0.512695	0.079344	-0.050757	0.105634	0.548392	-0.299989	0.055892	-0.778556	-27.079194	-23.942176	-103.834717
63227		8.828769	-7.869208	9.781392	-3.150673	-2.309226	5.029300	-0.719978	-1.014087	-0.457119	-0.728516	0.637939	-0.507324	0.087610	-0.078539	0.098542	0.545830	-0.306036	0.055257	-0.778048	-27.510870	-24.575946	-103.793397
63228		8.331375	-10.113597	8.284728	-5.566986	-1.213548	4.604915	-0.411522	-0.851155	-0.409160	-0.731445	0.632324	-0.502441	0.082753	-0.101134	0.083408	0.543861	-0.310587	0.053933	-0.777716	-27.759074	-25.114803	-103.768627
63229		7.615224	-9.329566	8.033171	-4.864737	-0.849182	3.795274	0.101823	-0.628518	-0.409011	-0.729492	0.629639	-0.495850	0.075708	-0.093492	0.080523	0.542621	-0.312867	0.051223	-0.777852	-27.685888	-25.539897	-103.808420
63230		6.144648	-6.638779	7.119107	-2.858865	-0.800606	1.309236	0.254066	-0.555695	-0.374182	-0.728027	0.625000	-0.492920	0.061124	-0.066593	0.071277	0.541726	-0.314443	0.048167	-0.778035	-27.523997	-25.919559	-103.851086
63231		5.833859	-4.223350	7.598166	-0.588101	-1.314084	0.556958	0.384395	-0.457058	-0.455701	-0.734863	0.629395	-0.477051	0.058068	-0.042512	0.076033	0.540690	-0.315292	0.044747	-0.778616	-27.253335	-26.269515	-103.970663
63232		6.086462	-3.375296	7.995333	0.226752	-1.707750	0.646504	0.420949	-0.283138	-0.520247	-0.726074	0.627441	-0.479004	0.060663	-0.034079	0.079968	0.539412	-0.315382	0.041548	-0.779643	-26.921310	-26.547947	-104.179962
63233		5.511381	-4.324589	7.790328	-0.579047	-0.815524	0.616395	0.463820	-0.102052	-0.550612	-0.718506	0.620850	-0.476563	0.054954	-0.043578	0.077831	0.538041	-0.314646	0.038627	-0.781037	-26.531569	-26.739422	-104.461312
63234		5.199351	-5.458001	6.839063	-1.999851	-0.286596	0.162969	0.561019	-0.042366	-0.566748	-0.726074	0.619141	-0.488037	0.051824	-0.054919	0.068248	0.536738	-0.313420	0.035456	-0.782575	-26.072686	-26.903446	-104.770874
63235		4.230520	-5.122505	6.862735	-1.557577	0.464818	-0.400368	0.687833	-0.079370	-0.602967	-0.726807	0.621826	-0.485596	0.042123	-0.051588	0.068467	0.535491	-0.311993	0.031637	-0.784161	-25.534447	-27.092204	-105.093186
63236		4.746241	-4.633151	7.914513	-0.800951	0.168600	0.481076	0.783862	-0.074745	-0.615526	-0.724854	0.618896	-0.484131	0.047289	-0.046787	0.078980	0.534330	-0.310293	0.027429	-0.785784	-24.935280	-27.279765	-105.426624
63237		3.907139	-3.359775	8.136457	0.477566	0.462606	-0.204728	0.815222	-0.054174	-0.620277	-0.718994	0.607178	-0.489990	0.038944	-0.034050	0.081237	0.533185	-0.308415	0.023149	-0.787438	-24.311955	-27.453578	-105.771236
63238		4.526725	-3.431948	7.862966	0.046491	-0.060983	-0.112739	0.839760	-0.072344	-0.629800	-0.719482	0.608887	-0.489258	0.045130	-0.034792	0.078501	0.532026	-0.306542	0.018704	-0.789070	-23.672138	-27.636719	-106.119304
63239		5.803869	-4.438854	8.609076	-0.819275	-0.430574	1.441053	0.916824	-0.067403	-0.572176	-0.715088	0.608398	-0.500244	0.057882	-0.044948	0.085905	0.531199	-0.304424	0.014060	-0.790542	-23.001074	-27.799656	-106.437366
63240		5.785168	-2.739379	9.086862	0.738877	-0.955389	1.236468	0.816005	-0.004269	-0.436745	-0.713379	0.598145	-0.488037	0.057789	-0.027890	0.090757	0.530734	-0.302314	0.010185	-0.791722	-22.416627	-27.897170	-106.692555
63241		5.859610	-2.020524	8.628534	1.014370	-1.428786	0.665775	0.694544	-0.021590	-0.383071	-0.718750	0.606689	-0.497803	0.058548	-0.020617	0.086221	0.530291	-0.300579	0.006829	-0.792715	-21.917745	-27.989137	-106.912604
63242		6.156632	-1.768711	8.866995	1.200758	-1.684125	0.928711	0.506238	0.027021	-0.259257	-0.711670	0.596924	-0.497070	0.061555	-0.017991	0.088616	0.530046	-0.299150	0.004529	-0.793435	-21.555766	-28.028530	-107.070536
63243		5.377807	-1.938428	8.690005	1.129953	-0.985859	0.480302	0.359879	-0.003294	-0.181707	-0.708252	0.598145	-0.501465	0.053759	-0.019589	0.086866	0.529890	-0.298219	0.002851	-0.793898	-21.302736	-28.066076	-107.174773
63244		5.580862	-2.079320	8.651435	0.911393	-1.091901	0.593752	0.230064	-0.011122	-0.099165	-0.703125	0.606201	-0.507080	0.055793	-0.020920	0.086493	0.529864	-0.297668	0.001785	-0.794125	-21.148353	-28.091424	-107.227335
63245		5.726193	-2.103802	8.632992	0.828264	-1.200180	0.657143	0.117041	-0.019989	-0.038594	-0.693115	0.609863	-0.514404	0.057249	-0.021100	0.086323	0.529913	-0.297444	0.001240	-0.794178	-21.076923	-28.107848	-107.241236
63246		5.294293	-2.648058	8.445950	0.390683	-0.653010	0.473068	0.009025	-0.011321	0.021522	-0.697754	0.612793	-0.518066	0.052941	-0.026479	0.084461	0.530036	-0.297478	0.001230	-0.794082	-21.083551	-28.108346	-107.220703
63247		4.991367	-2.993781	8.290928	0.108370	-0.296076	0.312358	-0.025804	-0.010263	0.035122	-0.697021	0.616211	-0.526367	0.049915	-0.029918	0.082916	0.530165	-0.297593	0.001387	-0.793953	-21.113936	-28.104364	-107.192210
63248		5.428831	-3.139153	7.804833	-0.352796	-0.754937	0.164662	-0.047592	-0.023046	0.032160	-0.690430	0.624512	-0.521729	0.054284	-0.031364	0.078062	0.530247	-0.297824	0.001587	-0.793812	-21.157314	-28.108927	-107.162491
63249		5.027045	-3.188537	8.192037	-0.097945	-0.275715	0.309654	-0.074821	-0.020450	0.049338	-0.691895	0.628662	-0.527344	0.050270	-0.031842	0.081937	0.530359	-0.298109	0.001933	-0.793629	-21.220965	-28.107404	-107.123004
63250		5.097395	-2.981949	7.958936	-0.042824	-0.500503	0.085180	-0.090593	-0.043476	0.045289	-0.690918	0.630371	-0.528564	0.050963	-0.029772	0.079614	0.530428	-0.298535	0.002268	-0.793421	-21.295006	-28.120115	-107.080512
63251		5.293893	-3.317524	7.845786	-0.416986	-0.556091	0.192536	-0.111638	-0.054354	0.045492	-0.688477	0.644531	-0.540771	0.052925	-0.033119	0.078491	0.530470	-0.299052	0.002665	-0.793198	-21.382446	-28.137397	-107.035334
63252		5.040942	-3.220637	7.857617	-0.250088	-0.381088	0.052298	-0.116691	-0.083896	0.040148	-0.685547	0.645508	-0.542480	0.050383	-0.032150	0.078616	0.530480	-0.299707	0.002989	-0.792942	-21.474559	-28.172653	-106.986298
63253		4.418110	-3.351108	8.084289	-0.075199	0.273773	-0.013466	-0.124760	-0.091761	0.039579	-0.697998	0.654053	-0.541260	0.044151	-0.033452	0.080884	0.530479	-0.300407	0.003329	-0.792677	-21.572130	-28.210988	-106.935685
63254		4.673194	-3.395649	7.737596	-0.327637	-0.027077	-0.162223	-0.136784	-0.118295	0.026524	-0.692383	0.658203	-0.546387	0.046691	-0.033897	0.077427	0.530405	-0.301252	0.003621	-0.792405	-21.675912	-28.267298	-106.886468
63255		4.374965	-3.480124	8.077535	-0.141581	0.373300	0.002542	-0.119056	-0.131081	0.017072	-0.684570	0.655762	-0.547852	0.043700	-0.034749	0.080825	0.530322	-0.302093	0.003801	-0.792139	-21.768432	-28.331179	-106.839789
63256		4.184957	-3.159721	8.200529	0.251772	0.438166	-0.092041	-0.133103	-0.129837	0.019219	-0.695801	0.671143	-0.546875	0.041799	-0.031539	0.082053	0.530224	-0.302973	0.004037	-0.791867	-21.869572	-28.395031	-106.791921
63257		4.727566	-3.477985	7.941321	-0.260853	0.045293	0.058519	-0.123609	-0.135089	0.010346	-0.689453	0.676270	-0.550293	0.047224	-0.034728	0.079467	0.530107	-0.303841	0.004214	-0.791612	-21.963467	-28.462341	-106.748030
63258		4.968351	-3.145449	7.876863	-0.058225	-0.316267	0.011766	-0.120293	-0.130609	0.006968	-0.696289	0.684814	-0.548584	0.049633	-0.031405	0.078820	0.529979	-0.304690	0.004378	-0.791370	-22.054069	-28.529083	-106.707080
63259		4.655803	-3.381872	7.992080	-0.105122	0.092674	0.034508	-0.117902	-0.107448	0.007491	-0.699463	0.686768	-0.544434	0.046516	-0.033770	0.079966	0.529859	-0.305434	0.004602	-0.791163	-22.140854	-28.582213	-106.671402
63260		5.069265	-3.350922	7.566716	-0.376770	-0.397697	-0.123457	-0.103862	-0.106712	-0.004669	-0.705078	0.691895	-0.554443	0.050651	-0.033471	0.075712	0.529708	-0.306144	0.004747	-0.790988	-22.216057	-28.638689	-106.643106
63261		5.094457	-3.473091	7.676195	-0.419327	-0.325320	0.018800	-0.085871	-0.086212	-0.005846	-0.706055	0.697754	-0.562744	0.050910	-0.034699	0.076799	0.529583	-0.306719	0.004879	-0.790849	-22.278256	-28.683369	-106.620544
63262		4.685438	-3.025367	7.863205	0.159627	-0.113966	-0.174343	-0.082135	-0.084933	-0.004811	-0.711914	0.698730	-0.563232	0.046820	-0.030222	0.078664	0.529464	-0.307286	0.004996	-0.790708	-22.338513	-28.728293	-106.597560
63263		4.866680	-3.459033	7.582173	-0.376045	-0.160938	-0.170514	-0.070559	-0.064064	-0.013545	-0.708496	0.713379	-0.561035	0.048640	-0.034567	0.075850	0.529330	-0.307732	0.005115	-0.790623	-22.387140	-28.762875	-106.585038
63264		4.851901	-3.241393	7.798398	-0.075996	-0.171216	-0.074747	-0.060543	-0.075187	-0.010767	-0.709473	0.705078	-0.564453	0.048488	-0.032393	0.078012	0.529221	-0.308204	0.005162	-0.790512	-22.432204	-28.803908	-106.567975
63265		4.566883	-3.116438	8.143779	0.278428	0.127142	0.025811	-0.071379	-0.070372	-0.003443	-0.718750	0.721436	-0.562988	0.045640	-0.031136	0.081465	0.529126	-0.308677	0.005283	-0.790390	-22.485055	-28.839601	-106.547696
63266		4.790428	-3.141974	7.998199	0.138984	-0.091727	0.024165	-0.067988	-0.075370	0.000440	-0.724121	0.724609	-0.565430	0.047874	-0.031392	0.080011	0.529049	-0.309168	0.005377	-0.790249	-22.537736	-28.878243	-106.523723
63267		5.145375	-3.008446	7.820693	0.083703	-0.501034	0.007232	-0.068642	-0.081134	0.006180	-0.726318	0.727051	-0.565918	0.051423	-0.030056	0.078238	0.528996	-0.309676	0.005474	-0.790085	-22.593203	-28.917481	-106.494834
63268		4.840666	-3.023648	8.145597	0.318785	-0.131548	0.127449	-0.088088	-0.078370	0.028746	-0.733154	0.728760	-0.564209	0.048379	-0.030194	0.081488	0.528999	-0.310231	0.005683	-0.789863	-22.666112	-28.951436	-106.452897
63269		4.859112	-3.091717	8.027310	0.211697	-0.152690	0.063508	-0.100402	-0.079620	0.032899	-0.732666	0.735107	-0.563965	0.048564	-0.030869	0.080308	0.529003	-0.310816	0.005950	-0.789629	-22.747502	-28.983902	-106.408120
63270		5.096312	-3.140345	7.730407	-0.020743	-0.423010	-0.044680	-0.111270	-0.090774	0.043356	-0.739258	0.738037	-0.562988	0.050935	-0.031349	0.077345	0.529027	-0.311481	0.006241	-0.789348	-22.839595	-29.021061	-106.354080
63271		5.318357	-3.009524	7.773350	0.070396	-0.651456	0.053303	-0.123989	-0.090402	0.048899	-0.740479	0.751465	-0.576416	0.053156	-0.030034	0.077776	0.529057	-0.312170	0.006598	-0.789053	-22.940642	-29.055527	-106.296746
63272		4.976828	-3.012849	7.922420	0.243674	-0.314779	0.008327	-0.149138	-0.093457	0.068757	-0.746582	0.751709	-0.562012	0.049742	-0.030052	0.079270	0.529122	-0.312945	0.007070	-0.788699	-23.062355	-29.088262	-106.226507
63273		5.448560	-3.202041	7.597053	-0.171799	-0.731002	0.040798	-0.156536	-0.107497	0.072974	-0.743652	0.753174	-0.562744	0.054456	-0.031941	0.076025	0.529195	-0.313786	0.007548	-0.788311	-23.191413	-29.126111	-106.150049
63274		4.786520	-3.544886	7.847917	-0.148607	0.055995	0.038279	-0.158747	-0.098808	0.082684	-0.756836	0.763916	-0.567627	0.047841	-0.035367	0.078531	0.529299	-0.314606	0.008065	-0.787909	-23.323564	-29.158257	-106.069822
63275		4.897714	-3.665368	7.792083	-0.283799	-0.002621	0.089762	-0.144724	-0.091654	0.074709	-0.760986	0.760742	-0.569824	0.048955	-0.036579	0.077970	0.529396	-0.315353	0.008541	-0.787540	-23.444547	-29.187079	-105.996203
63276		4.629457	-3.575686	7.885545	-0.079311	0.213448	0.002981	-0.134159	-0.095434	0.065918	-0.758301	0.778320	-0.566406	0.046269	-0.035689	0.078901	0.529472	-0.316094	0.008944	-0.787187	-23.557442	-29.220985	-105.926748
63277		4.538774	-3.686934	7.926533	-0.110816	0.353149	0.030424	-0.137673	-0.112241	0.056598	-0.759033	0.778320	-0.562744	0.045354	-0.036802	0.079316	0.529508	-0.316904	0.009309	-0.786833	-23.671875	-29.264512	-105.858428
63278		4.625554	-3.320365	8.047623	0.252265	0.161546	0.040994	-0.139349	-0.126362	0.054999	-0.770752	0.780762	-0.566406	0.046214	-0.033135	0.080529	0.529533	-0.317781	0.009634	-0.786459	-23.788737	-29.316903	-105.787151
63279		5.429886	-3.628874	7.267243	-0.572286	-0.624382	-0.078838	-0.141163	-0.137702	0.046089	-0.771484	0.781494	-0.557129	0.054257	-0.036225	0.072735	0.529523	-0.318699	0.009928	-0.786090	-23.905630	-29.375965	-105.718111
63280		5.048806	-3.193463	7.706822	0.122496	-0.349239	-0.068626	-0.148498	-0.146629	0.056169	-0.769775	0.783691	-0.558838	0.050440	-0.031863	0.077129	0.529538	-0.319680	0.010237	-0.785678	-24.031032	-29.438445	-105.640388
63281		5.170480	-3.068400	7.871906	0.303984	-0.447637	0.077865	-0.161583	-0.162994	0.069303	-0.777588	0.791504	-0.548340	0.051651	-0.030602	0.078786	0.529586	-0.320750	0.010582	-0.785204	-24.170151	-29.505038	-105.550222
63282		5.173656	-3.124855	7.813245	0.251288	-0.438241	0.052553	-0.183172	-0.183384	0.073199	-0.777100	0.802002	-0.554199	0.051676	-0.031158	0.078208	0.529613	-0.321964	0.010957	-0.784684	-24.325734	-29.582393	-105.451887
63283		4.717564	-3.603586	7.968532	0.069895	0.211469	0.121550	-0.193742	-0.206224	0.082795	-0.777588	0.803711	-0.550781	0.047108	-0.035939	0.079769	0.529663	-0.323287	0.011335	-0.784101	-24.493584	-29.667922	-105.341298
63284		4.488196	-3.530368	8.278311	0.372368	0.480664	0.225642	-0.195808	-0.219422	0.079886	-0.778809	0.807861	-0.542236	0.044805	-0.035205	0.082867	0.529694	-0.324675	0.011675	-0.783501	-24.663881	-29.761966	-105.228391
63285		4.879796	-3.861211	7.738237	-0.241261	0.132218	0.113334	-0.193691	-0.246090	0.065031	-0.782715	0.815186	-0.543701	0.048715	-0.038521	0.077480	0.529675	-0.326153	0.011918	-0.782896	-24.832600	-29.871930	-105.116642
63286		4.738156	-3.655066	8.034549	0.145861	0.271055	0.200741	-0.204691	-0.285688	0.051615	-0.781250	0.812012	-0.541016	0.047276	-0.036456	0.080450	0.529582	-0.327824	0.012071	-0.782259	-25.009575	-30.006630	-105.001332
63287		4.765184	-3.856725	7.902890	-0.061863	0.311090	0.184125	-0.221548	-0.323058	0.034052	-0.782959	0.819092	-0.537842	0.047531	-0.038472	0.079148	0.529397	-0.329677	0.012169	-0.781603	-25.196779	-30.163455	-104.885450
63288		5.006821	-3.584692	7.834898	0.107754	-0.009794	0.151851	-0.238704	-0.399525	0.008298	-0.791992	0.827148	-0.533691	0.049913	-0.035751	0.078491	0.529082	-0.331882	0.012083	-0.780884	-25.397690	-30.367055	-104.762454
63289		4.193977	-3.935067	8.236306	0.254549	0.986319	0.180963	-0.282395	-0.494152	-0.015606	-0.790039	0.823486	-0.528564	0.041733	-0.039237	0.082522	0.528606	-0.334564	0.011883	-0.780065	-25.631128	-30.623882	-104.625579
63290		4.724783	-4.121701	8.437388	0.144484	0.736614	0.672425	-0.310762	-0.643529	-0.049147	-0.802979	0.828369	-0.527832	0.046966	-0.041097	0.084589	0.527952	-0.337909	0.011337	-0.779073	-25.894182	-30.966801	-104.463768
63291		4.357816	-3.449769	8.327479	0.770670	0.762687	0.140307	-0.359350	-0.807684	-0.069661	-0.811523	0.834961	-0.518311	0.043229	-0.034363	0.083512	0.527140	-0.342010	0.010518	-0.777844	-26.205985	-31.397506	-104.263421
63292		4.670186	-3.582526	8.578416	0.811768	0.719696	0.534108	-0.590513	-1.015724	-0.113158	-0.807373	0.841309	-0.509277	0.046245	-0.035598	0.086125	0.525758	-0.347530	0.009969	-0.776339	-26.673034	-31.945996	-104.022392
63293		4.387023	-3.360299	8.437174	1.068715	0.890559	0.176639	-0.574214	-1.247483	-0.095021	-0.818359	0.843506	-0.492920	0.043327	-0.033381	0.084739	0.524466	-0.353884	0.008785	-0.774354	-27.180511	-32.605277	-103.692253
63294		4.519583	-3.173448	8.485799	1.329115	0.819396	0.190609	-0.708444	-1.469764	-0.142498	-0.822510	0.848145	-0.482666	0.044548	-0.031465	0.085299	0.522730	-0.361439	0.007447	-0.772049	-27.796528	-33.388411	-103.310388
63295		4.045084	-4.190876	8.043717	0.473972	1.626338	-0.027229	-0.648884	-1.724215	-0.142135	-0.839355	0.850342	-0.465576	0.039725	-0.041675	0.080917	0.521076	-0.369787	0.005220	-0.769227	-28.437149	-34.295390	-102.831593
63296		4.630826	-2.798375	8.358881	1.782697	0.781920	-0.047782	-0.617909	-1.976377	-0.180313	-0.846436	0.855225	-0.440918	0.045454	-0.027766	0.084127	0.519286	-0.378994	0.002140	-0.765964	-29.112166	-35.335936	-102.273161
63297		4.388394	-3.091098	7.948685	1.487159	1.115096	-0.403375	-0.727354	-2.233177	-0.253985	-0.857910	0.866211	-0.421631	0.042953	-0.030675	0.080082	0.516947	-0.389418	-0.001321	-0.762311	-29.898775	-36.518374	-101.646581
63298		3.750148	-3.295039	8.540139	1.929233	2.140424	-0.349843	-0.874389	-2.568157	-0.391954	-0.872559	0.864990	-0.397949	0.036335	-0.032647	0.086016	0.513706	-0.401438	-0.005362	-0.758238	-30.822392	-37.899638	-100.951256
63299		3.794514	-5.314975	8.297836	0.363259	3.185035	0.247952	-0.926720	-2.903460	-0.573885	-0.890137	0.860107	-0.374023	0.036581	-0.052869	0.083761	0.509555	-0.414768	-0.010424	-0.753798	-31.826393	-39.488740	-100.198230
63300		4.221873	-5.072559	8.957132	1.086664	3.310148	0.753073	-0.933636	-3.235964	-0.771539	-0.887695	0.852051	-0.352295	0.040565	-0.050463	0.090473	0.504487	-0.429251	-0.016719	-0.748970	-32.893251	-41.289344	-99.380731
63301		3.668616	-5.799730	9.025986	0.841792	4.424181	0.592472	-1.076114	-3.487508	-0.937339	-0.916992	0.850342	-0.306641	0.034831	-0.057674	0.091189	0.498310	-0.444877	-0.023460	-0.743788	-34.110914	-43.248966	-98.490536
63302		4.496398	-5.774162	9.131666	1.058951	4.221687	1.049299	-1.061977	-3.827939	-1.143235	-0.926514	0.844238	-0.267822	0.042872	-0.057502	0.092456	0.491161	-0.461539	-0.031555	-0.738070	-35.421384	-45.421755	-97.489350
63303		5.703891	-3.719946	9.883924	3.231425	3.109498	1.319622	-1.228686	-4.207123	-1.299239	-0.947266	0.833252	-0.227539	0.054700	-0.036947	0.100234	0.482762	-0.479762	-0.040306	-0.731536	-37.002676	-47.803261	-96.285575
63304		7.152994	-5.854110	10.917256	2.528294	4.319748	3.586071	-1.486090	-4.559436	-1.525734	-0.963623	0.819580	-0.172363	0.068565	-0.058250	0.111192	0.472566	-0.499574	-0.049490	-0.724333	-38.919933	-50.397920	-94.878881
63305		9.564752	-5.679507	11.772578	3.474632	3.791897	5.543907	-1.282688	-4.740565	-1.629681	-0.967529	0.803711	-0.124268	0.092353	-0.056790	0.120305	0.462150	-0.519209	-0.060062	-0.716402	-40.964982	-53.076592	-93.213784
63306		13.565356	-5.189193	15.379149	6.678082	3.934452	9.866820	-1.980727	-4.831416	-1.551365	-0.982422	0.787842	-0.078857	0.131478	-0.051375	0.157512	0.449850	-0.540439	-0.068101	-0.707760	-43.795675	-55.717590	-91.131491
63307		13.844050	-8.790785	11.425489	1.943125	4.417971	9.580437	-2.163216	-4.489603	-1.531801	-0.979736	0.760742	-0.017090	0.135143	-0.087687	0.118263	0.436923	-0.560493	-0.074621	-0.699556	-46.905830	-58.146333	-88.902645
63308		14.633613	-9.982859	13.708593	3.440726	6.911478	11.211065	-2.610828	-4.489104	-1.483122	-0.987549	0.749756	0.015381	0.142455	-0.099066	0.141609	0.422605	-0.581144	-0.079388	-0.690923	-50.727376	-60.476213	-86.201496
63309		14.390675	-12.713522	14.120825	2.626137	9.814257	11.746435	-2.482368	-3.918861	-1.398926	-0.983398	0.721436	0.070801	0.140197	-0.126336	0.145551	0.408899	-0.599208	-0.083095	-0.683262	-54.545399	-62.472258	-83.477985
63310		4.526767	-11.538388	15.318505	4.351288	14.871078	2.358821	-2.066316	-3.229975	-1.468512	-0.985840	0.697998	0.106689	0.041932	-0.114104	0.155064	0.396283	-0.613734	-0.086982	-0.677293	-57.865614	-64.196700	-81.090004
63311		0.074120	-13.937459	17.197289	4.283994	19.816385	-0.928838	-1.464692	-2.506100	-1.336099	-0.989502	0.683350	0.130127	-0.002348	-0.138101	0.172971	0.386140	-0.624471	-0.091036	-0.672789	-60.506145	-65.585522	-79.103344
63312		-2.835538	-11.921110	21.504514	8.819109	22.372913	-3.959956	-0.499136	-1.498179	-1.114196	-0.978760	0.670898	0.136719	-0.030628	-0.118508	0.215118	0.380156	-0.629938	-0.095680	-0.670451	-61.796372	-66.553555	-78.006673
63313		-1.002364	-8.562205	21.818726	11.395192	19.583283	-3.728804	-0.388293	-0.554486	-0.828555	-0.973145	0.638916	0.146729	-0.010982	-0.085154	0.218323	0.375901	-0.632138	-0.098000	-0.670445	-62.159322	-67.117431	-77.856251
63314		-4.035762	-10.492452	21.605906	9.871177	21.932574	-5.976796	-0.478852	0.538689	-0.372623	-0.974365	0.647217	0.131104	-0.039970	-0.104332	0.216417	0.373426	-0.631039	-0.096510	-0.673074	-61.551842	-67.153876	-78.814997
63315		-7.148952	-10.492612	18.263794	7.172706	21.049079	-9.312635	-0.130982	1.493992	-0.076091	-0.972412	0.633301	0.117432	-0.070162	-0.104779	0.183234	0.373483	-0.626209	-0.093477	-0.677964	-59.828002	-66.768384	-80.772125
63316		-7.583159	-8.567074	16.466185	7.058473	18.757537	-10.408304	0.281418	2.128430	0.055489	-0.974854	0.635742	0.089111	-0.074051	-0.085924	0.165335	0.375557	-0.618447	-0.090223	-0.684354	-57.320787	-66.098114	-83.333007
63317		-7.104128	-5.902663	15.536664	8.117462	16.126243	-10.667690	0.474372	2.698151	0.143564	-0.973877	0.626709	0.064697	-0.068895	-0.059446	0.156165	0.378714	-0.608338	-0.086287	-0.692138	-54.334402	-65.157193	-86.315338
63318		-5.957819	-4.099843	14.664932	8.700559	13.842578	-9.970887	0.421383	3.263889	0.200760	-0.982910	0.622803	0.020996	-0.057134	-0.041367	0.147508	0.382083	-0.596233	-0.080885	-0.701410	-51.115727	-63.924690	-89.613900
63319		-7.295313	-1.293697	12.144034	8.661626	11.001408	-12.321490	0.106138	3.765763	0.244079	-0.973877	0.622803	-0.016357	-0.070634	-0.013089	0.122778	0.384729	-0.582824	-0.073281	-0.711990	-47.994666	-62.413974	-93.045272
63320		-8.030189	-0.079696	10.040609	8.038550	9.298626	-13.581180	-0.586310	3.778356	0.210815	-0.974365	0.621826	-0.052490	-0.078385	-0.000583	0.101901	0.385124	-0.570449	-0.063239	-0.722681	-45.565996	-60.834481	-96.188450
63321		-4.837345	-3.122424	9.819905	6.012129	9.657482	-9.423139	-1.157952	3.622138	0.231012	-0.959717	0.622070	-0.081055	-0.046547	-0.030706	0.099232	0.383751	-0.559568	-0.051371	-0.732790	-43.865651	-59.262476	-98.918813
63322		-1.877043	-7.564480	9.243475	2.750844	10.820255	-5.172905	-1.161807	3.593971	0.411202	-0.960205	0.621094	-0.117920	-0.016945	-0.075141	0.093188	0.382903	-0.548607	-0.038997	-0.742223	-42.521144	-57.590734	-101.279533
63323		1.512344	-10.400250	10.038683	1.371331	11.180917	-0.630237	-0.756595	3.640920	0.702309	-0.954590	0.625244	-0.149658	0.017316	-0.103564	0.100477	0.384096	-0.536588	-0.027247	-0.750867	-41.297452	-55.765650	-103.265123
63324		4.258032	-9.847655	10.559945	1.711082	9.177295	1.995990	-0.379888	3.863511	1.100609	-0.930176	0.628662	-0.198242	0.045152	-0.098033	0.104930	0.387701	-0.522823	-0.015378	-0.759017	-40.153811	-53.667031	-104.934294
63325		5.183422	-8.785813	9.923702	1.567063	7.199338	2.362073	-0.203544	4.018954	1.500711	-0.916016	0.630859	-0.233154	0.054472	-0.087356	0.098249	0.393105	-0.507965	-0.002851	-0.766441	-39.222487	-51.342339	-106.257590
63326		6.492057	-8.859581	9.377410	0.672094	5.753085	3.415836	-0.099293	4.042841	1.842276	-0.876465	0.636719	-0.266113	0.067611	-0.087935	0.092469	0.399920	-0.492534	0.010222	-0.772897	-38.527889	-48.866689	-107.238967
63327		8.997627	-9.759371	9.682067	-0.385510	4.323846	6.032088	0.081148	4.042493	2.100401	-0.849365	0.643311	-0.307617	0.092926	-0.096667	0.094923	0.407948	-0.476519	0.023197	-0.778440	-37.952627	-46.299211	-107.957961
63328		11.357571	-10.051618	10.115729	-1.072590	2.417761	8.223401	0.321865	4.121774	2.344750	-0.814209	0.644043	-0.329834	0.116795	-0.099319	0.098612	0.416928	-0.459380	0.036168	-0.783475	-37.391282	-43.603778	-108.542871
63329		12.249711	-9.748001	10.106704	-1.500208	0.812104	8.741094	0.564752	4.250208	2.556844	-0.791016	0.641113	-0.354980	0.125839	-0.096165	0.098144	0.427365	-0.440952	0.048712	-0.787749	-36.800709	-40.774494	-108.943453
63330		12.874202	-9.489945	9.865103	-2.109203	-0.711455	8.844514	0.749562	4.304062	2.753740	-0.756348	0.628418	-0.384766	0.132113	-0.093458	0.095480	0.438717	-0.421542	0.061078	-0.791264	-36.212595	-37.843764	-109.196678
63331		13.839091	-9.611870	9.629041	-3.064757	-2.296824	9.210238	0.909883	4.290320	2.919519	-0.743896	0.626221	-0.400635	0.141795	-0.094493	0.092840	0.450746	-0.401539	0.073055	-0.793888	-35.631478	-34.868488	-109.300983
63332		15.210200	-9.583541	9.458297	-4.003746	-4.332241	9.623301	1.073679	4.234450	3.072623	-0.718262	0.621582	-0.422119	0.155505	-0.093958	0.090807	0.463434	-0.381006	0.084544	-0.795560	-35.041836	-31.861359	-109.257884
63333		16.347316	-9.033634	9.009164	-4.713111	-6.578110	9.277057	1.221464	4.165788	3.193148	-0.696533	0.626221	-0.454102	0.166714	-0.088226	0.086098	0.476557	-0.360121	0.095422	-0.796304	-34.430174	-28.854293	-109.087449
63334		17.015952	-8.340713	8.251451	-5.343485	-8.547862	8.228313	1.324637	4.043691	3.252982	-0.689941	0.613770	-0.485352	0.173106	-0.081136	0.078492	0.489835	-0.339146	0.105668	-0.796163	-33.800825	-25.881467	-108.809520
63335		17.278566	-7.991746	7.238837	-6.180254	-9.951360	6.845657	1.415364	3.877239	3.204716	-0.648682	0.614746	-0.516602	0.175394	-0.077614	0.068450	0.502801	-0.318439	0.114959	-0.795344	-33.133005	-23.012655	-108.468645
63336		17.391798	-8.077665	6.061326	-7.312559	-10.926765	5.402859	1.523668	3.672056	3.035915	-0.641113	0.615723	-0.533691	0.176188	-0.078556	0.056788	0.515071	-0.298125	0.122987	-0.794164	-32.391865	-20.293370	-108.116292
63337		17.282147	-8.135580	4.760861	-8.371183	-11.595647	3.712108	1.674179	3.479742	2.704542	-0.616455	0.627441	-0.555420	0.174689	-0.079380	0.043910	0.526049	-0.278253	0.129327	-0.793173	-31.525465	-17.778648	-107.837936
63338		17.134272	-7.163183	3.944325	-8.299230	-12.453019	1.868161	1.741942	3.291035	2.260952	-0.590820	0.619141	-0.584961	0.172752	-0.070008	0.035994	0.535223	-0.259059	0.134244	-0.792719	-30.571408	-15.487071	-107.691007
63339		17.789950	-5.081952	3.949896	-7.084898	-14.256429	0.406214	1.544608	3.130338	1.764682	-0.574463	0.610596	-0.606934	0.178925	-0.049532	0.036318	0.542041	-0.241286	0.138787	-0.792913	-29.682855	-13.425474	-107.713598
63340		18.988391	-2.015545	3.984939	-5.184591	-16.795750	-1.357618	0.978721	3.045519	1.374094	-0.551758	0.609131	-0.629883	0.190594	-0.019033	0.036856	0.546510	-0.225541	0.144848	-0.793396	-29.087393	-11.511564	-107.884185
63341		19.289620	0.258444	3.047633	-4.094608	-18.113036	-3.765820	0.155276	2.958116	1.172037	-0.532715	0.615723	-0.636719	0.193299	0.003694	0.027622	0.549150	-0.212506	0.153645	-0.793517	-28.957305	-9.700928	-108.119367
63342		18.548829	-0.190634	0.875203	-5.444473	-17.363312	-6.110089	-0.517828	2.745078	1.110496	-0.511963	0.625732	-0.632813	0.185592	-0.000858	0.006208	0.550869	-0.202136	0.164443	-0.792870	-29.224215	-8.010914	-108.326822
63343		17.493111	-1.887629	-1.763285	-7.880618	-15.746797	-8.200257	-0.635161	2.327281	1.054749	-0.491455	0.633301	-0.649414	0.174807	-0.018014	-0.019609	0.552475	-0.193774	0.174448	-0.791701	-29.574466	-6.549726	-108.452027
63344		17.079574	-2.553877	-3.891430	-9.378831	-15.009981	-10.138954	-0.258892	1.713607	0.957207	-0.476807	0.638916	-0.656250	0.170574	-0.024774	-0.040344	0.554525	-0.186843	0.181164	-0.790425	-29.724423	-5.419719	-108.457403
63345		17.515815	-1.934158	-5.265698	-9.678614	-15.502231	-11.879657	0.270284	1.082759	0.786810	-0.467773	0.641846	-0.659180	0.174944	-0.018581	-0.053630	0.556921	-0.181097	0.183855	-0.789456	-29.579558	-4.654722	-108.368343
63346		17.617117	-0.266262	-6.041049	-8.677690	-16.049447	-13.559524	0.622378	0.480096	0.528399	-0.458252	0.640625	-0.669434	0.176031	-0.002009	-0.060840	0.559154	-0.176969	0.183246	-0.788955	-29.235650	-4.261889	-108.235504
63347		17.279310	0.863436	-6.248725	-7.673710	-16.076289	-14.398877	0.682271	-0.071876	0.234355	-0.458252	0.635986	-0.666992	0.172805	0.009050	-0.062395	0.560773	-0.175128	0.180585	-0.788830	-28.857405	-4.229906	-108.093842
63348		16.622716	0.703798	-5.908132	-7.370768	-15.474826	-14.045481	0.549669	-0.593064	-0.054719	-0.463623	0.629150	-0.666992	0.166403	0.007154	-0.058569	0.561598	-0.175969	0.176736	-0.788927	-28.555648	-4.539386	-107.953883
63349		15.981752	-0.446943	-5.047753	-7.660509	-14.637214	-12.669557	0.392260	-1.103780	-0.291092	-0.470215	0.622803	-0.668457	0.160086	-0.004604	-0.049603	0.561789	-0.179475	0.171855	-0.789080	-28.346547	-5.172130	-107.794742
63350		15.104745	-1.769173	-3.828002	-7.852276	-13.534955	-10.851194	0.324003	-1.611175	-0.412020	-0.479248	0.617432	-0.657471	0.151313	-0.017943	-0.037091	0.561846	-0.185271	0.165704	-0.789016	-28.186495	-6.094229	-107.560461
63351		14.305295	-2.862716	-2.194679	-7.662725	-12.560087	-8.729808	0.343270	-2.109795	-0.450022	-0.504883	0.607178	-0.656494	0.143209	-0.028913	-0.020486	0.562132	-0.192992	0.158021	-0.788537	-28.032559	-7.279231	-107.212043
63352		13.666575	-3.730372	-0.326336	-7.188569	-11.744242	-6.468282	0.396346	-2.567291	-0.408778	-0.514160	0.601563	-0.651367	0.136617	-0.037579	-0.001584	0.562908	-0.202314	0.148861	-0.787428	-27.876466	-8.686356	-106.720671
63353		-0.357848	-7.018289	3.464972	-4.012643	2.643937	-3.624238	0.568788	-2.973844	-0.516996	-0.534424	0.594238	-0.650391	-0.004273	-0.070270	0.034390	0.563624	-0.212783	0.137738	-0.786181	-27.642411	-10.329417	-106.177802
63354		3.183416	-8.597620	13.789289	-1.203449	0.379374	6.697406	0.726516	-3.306323	-0.536175	-0.551270	0.591309	-0.651855	0.029321	-0.086558	0.138078	0.564508	-0.224082	0.125001	-0.784533	-27.349561	-12.149993	-105.559816
63355		-4.461472	-11.156400	16.740625	0.139944	9.131142	8.658604	0.672232	-3.259001	-0.275805	-0.571533	0.585449	-0.628662	-0.047485	-0.112060	0.166272	0.566165	-0.235111	0.112866	-0.781947	-27.132565	-13.879848	-104.822715
63356		-1.935189	-6.049136	13.804655	2.267854	5.313679	4.240960	0.888727	-3.372346	-0.372834	-0.596680	0.571533	-0.631592	-0.021786	-0.061064	0.137422	0.567593	-0.245966	0.099420	-0.779393	-26.808596	-15.696934	-104.109039
63357		0.947672	1.036734	7.180947	4.227840	-0.206466	-3.844818	0.630201	-3.751374	-0.482374	-0.613525	0.560303	-0.601074	0.008152	0.010120	0.072003	0.568276	-0.258993	0.085735	-0.776295	-26.667192	-17.738229	-103.352921
63358		5.463459	1.218869	4.418475	2.069598	-4.656534	-4.824244	0.656570	-3.937132	-0.811823	-0.640625	0.559570	-0.591797	0.053799	0.011822	0.045289	0.567570	-0.272715	0.070962	-0.773599	-26.497997	-19.961702	-102.721429
63359		8.077933	0.580899	5.986821	1.866838	-6.244823	-2.135812	0.788845	-3.981021	-1.264684	-0.664551	0.536377	-0.578857	0.079600	0.005063	0.061482	0.565066	-0.286265	0.054902	-0.771841	-26.190033	-22.324724	-102.328120
63360		12.016076	1.199932	10.691521	4.064940	-8.454231	3.306033	0.663968	-3.770948	-1.641736	-0.695068	0.530762	-0.567627	0.118207	0.010664	0.109193	0.560617	-0.299343	0.039354	-0.771073	-25.858866	-24.677197	-102.211501
63361		18.951161	-1.179959	16.620925	3.804611	-11.434041	12.357487	0.364414	-3.092791	-1.757495	-0.710449	0.520020	-0.556885	0.186796	-0.013755	0.169088	0.554933	-0.310548	0.026674	-0.771296	-25.587742	-26.708117	-102.360221
63362		28.759776	-7.364225	23.602892	0.179070	-14.750862	25.126892	0.601045	-1.284817	-1.743622	-0.720703	0.509277	-0.544922	0.285414	-0.076849	0.237639	0.549301	-0.314064	0.018107	-0.774147	-24.944465	-27.799008	-103.018257
63363		18.707017	-4.141768	14.488973	-0.040529	-9.849470	12.096510	0.692511	0.473048	-1.245983	-0.718994	0.494141	-0.551514	0.187147	-0.043084	0.144300	0.545534	-0.310441	0.014799	-0.778332	-24.149885	-27.846574	-103.875198
63364		7.706530	-6.011248	6.707896	-3.391401	-2.053571	1.358775	0.552630	0.521141	-0.778360	-0.728027	0.484131	-0.553711	0.077004	-0.060597	0.066711	0.543338	-0.306977	0.012882	-0.781270	-23.559041	-27.753326	-104.467961
63365		3.560779	-5.510980	5.648828	-2.665164	0.993887	-1.635408	0.674685	0.052342	-0.606467	-0.733154	0.479004	-0.553955	0.035455	-0.055408	0.056292	0.542022	-0.304982	0.009488	-0.783012	-23.002252	-27.860728	-104.837525
63366		6.690263	-3.109413	9.185110	0.311690	-1.503670	1.867870	0.647829	-0.228971	-0.403138	-0.725586	0.490967	-0.551758	0.066734	-0.031526	0.091826	0.541461	-0.304159	0.005737	-0.783757	-22.549645	-28.070742	-105.016209
63367		4.816218	0.951565	8.412692	3.746070	-1.783316	-1.000125	0.498572	-0.181301	-0.357210	-0.738770	0.483887	-0.550537	0.048103	0.009220	0.084194	0.540848	-0.303535	0.002779	-0.784437	-22.188265	-28.242373	-105.181287
63368		4.950260	-0.442805	8.751539	2.659618	-1.170687	-0.177010	0.344508	-0.175143	-0.394646	-0.739990	0.481934	-0.544434	0.049417	-0.004676	0.087551	0.539846	-0.303315	0.000375	-0.785217	-21.902763	-28.420002	-105.371659
63369		9.540437	-4.874032	10.071597	-1.581245	-2.749827	4.545272	0.327485	0.005201	-0.275776	-0.752197	0.472656	-0.540039	0.095340	-0.049037	0.100633	0.539286	-0.302417	-0.001285	-0.785947	-21.639494	-28.473563	-105.535012
63370		3.254177	-4.028340	6.978722	-0.890860	1.219697	-1.254744	0.268461	0.172147	-0.154193	-0.748047	0.483154	-0.541016	0.032571	-0.040402	0.069705	0.539108	-0.301035	-0.002090	-0.786597	-21.426072	-28.414118	-105.664700
63371		4.396428	-4.066057	8.638119	-0.442858	0.813505	0.657293	0.277666	0.100465	-0.121561	-0.739014	0.486572	-0.546143	0.043983	-0.040807	0.086303	0.539075	-0.299897	-0.003064	-0.787052	-21.225050	-28.383583	-105.757444
63372		4.043532	-2.751805	8.348562	0.594073	0.470247	-0.166602	0.242635	0.086890	-0.105702	-0.736816	0.483643	-0.536377	0.040457	-0.027641	0.083435	0.539047	-0.298919	-0.003924	-0.787439	-21.050399	-28.358856	-105.837075
63373		4.959741	-3.074681	8.212933	0.013301	-0.210662	0.260066	0.181773	0.029497	-0.085755	-0.743652	0.485596	-0.528564	0.049596	-0.030843	0.082094	0.539008	-0.298318	-0.004659	-0.787690	-20.922691	-28.358456	-105.891261
63374		5.491840	-2.880598	7.680850	-0.212002	-0.910996	0.014761	0.121355	-0.012557	-0.072101	-0.735107	0.497803	-0.531494	0.054903	-0.028872	0.076794	0.538927	-0.298059	-0.005259	-0.787839	-20.838257	-28.379781	-105.927237
63375		4.983258	-3.546950	7.693305	-0.659693	-0.192698	-0.008182	0.045935	0.006555	-0.055788	-0.734131	0.495117	-0.527100	0.049825	-0.035501	0.076923	0.538803	-0.297915	-0.005475	-0.787977	-20.799549	-28.385426	-105.957882
63376		5.569067	-3.428229	7.835067	-0.638307	-0.686867	0.349808	0.028262	-0.030251	-0.053784	-0.736328	0.500488	-0.522217	0.055670	-0.034308	0.078354	0.538655	-0.297977	-0.005730	-0.788053	-20.775680	-28.412490	-105.978654
63377		5.213860	-3.352148	7.995629	-0.415379	-0.359992	0.289252	0.017666	-0.027026	-0.068450	-0.732422	0.507324	-0.526123	0.052116	-0.033546	0.079960	0.538438	-0.298041	-0.005944	-0.788176	-20.753160	-28.438672	-106.009275
63378		5.014506	-3.762716	7.694343	-0.859820	-0.112332	0.074390	0.037151	-0.019411	-0.083577	-0.724854	0.516602	-0.513672	0.050122	-0.037662	0.076941	0.538186	-0.298036	-0.006248	-0.788347	-20.714339	-28.465992	-106.050735
63379		5.351026	-3.304207	7.756990	-0.527930	-0.561629	0.143618	0.071480	-0.027801	-0.096969	-0.721680	0.516357	-0.519531	0.053483	-0.033096	0.077566	0.537936	-0.297957	-0.006720	-0.788544	-20.652723	-28.498323	-106.098628
63380		5.136201	-3.023889	7.922875	-0.166828	-0.434016	0.090858	0.074215	-0.052713	-0.089570	-0.713623	0.521729	-0.521729	0.051328	-0.030291	0.079231	0.537714	-0.297983	-0.007268	-0.788680	-20.594520	-28.544670	-106.136166
63381		5.973380	-3.221826	7.733625	-0.633619	-1.107190	0.397260	0.090777	-0.106315	-0.094825	-0.709229	0.524658	-0.514160	0.059677	-0.032282	0.077353	0.537499	-0.298162	-0.008024	-0.788752	-20.530950	-28.618600	-106.164879
63382		5.368549	-2.969987	8.079432	-0.117138	-0.571674	0.315432	0.107601	-0.128040	-0.086416	-0.707031	0.531494	-0.510986	0.053621	-0.029767	0.080813	0.537335	-0.298396	-0.008902	-0.788766	-20.462654	-28.704717	-106.183423
63383		5.621004	-2.965871	7.829738	-0.295921	-0.851866	0.231396	0.103765	-0.143800	-0.089711	-0.697266	0.540771	-0.519531	0.056140	-0.029725	0.078322	0.537157	-0.298687	-0.009802	-0.788767	-20.397072	-28.797692	-106.200695
63384		4.826002	-2.796199	8.518436	0.356342	-0.005014	0.363055	0.090378	-0.135262	-0.067462	-0.687988	0.551270	-0.513672	0.048193	-0.028017	0.085204	0.537041	-0.298996	-0.010604	-0.788718	-20.344874	-28.883914	-106.206212
63385		4.933260	-3.296992	8.228993	-0.233233	0.035535	0.329692	0.070138	-0.141549	-0.071276	-0.687500	0.561523	-0.518799	0.049263	-0.033016	0.082313	0.536884	-0.299369	-0.011337	-0.788673	-20.303629	-28.971983	-106.212904
63386		4.654491	-2.910597	8.493759	0.284796	0.212918	0.294406	0.073438	-0.140109	-0.063045	-0.692383	0.559570	-0.518799	0.046476	-0.029152	0.084959	0.536760	-0.299743	-0.012079	-0.788604	-20.262893	-29.059926	-106.214764
63387		4.693880	-2.981656	8.335828	0.141107	0.171796	0.205265	0.051202	-0.138754	-0.051744	-0.675781	0.572021	-0.522949	0.046873	-0.029850	0.083383	0.536651	-0.300157	-0.012700	-0.788511	-20.237947	-29.142611	-106.210216
63388		5.729156	-2.726822	7.883550	-0.100523	-0.943435	0.262478	0.042315	-0.148622	-0.055167	-0.680420	0.573975	-0.537842	0.057225	-0.027301	0.078872	0.536510	-0.300648	-0.013330	-0.788410	-20.218289	-29.233557	-106.205394
63389		5.140948	-2.670666	8.002365	0.148116	-0.418848	0.056571	0.014819	-0.140712	-0.041218	-0.673584	0.588867	-0.539795	0.051348	-0.026723	0.080058	0.536387	-0.301167	-0.013798	-0.788287	-20.217568	-29.315213	-106.193959
63390		5.349087	-2.831524	7.840285	-0.109972	-0.567650	0.074981	-0.002485	-0.126830	-0.040625	-0.673584	0.595459	-0.550293	0.053435	-0.028325	0.078437	0.536237	-0.301693	-0.014171	-0.788182	-20.225546	-29.391600	-106.185126
63391		4.674391	-3.153294	8.113145	-0.090154	0.239004	0.064107	-0.011503	-0.116658	-0.028958	-0.675781	0.610596	-0.549561	0.046692	-0.031535	0.081161	0.536124	-0.302188	-0.014452	-0.788064	-20.240983	-29.457893	-106.171554
63392		5.199787	-2.844692	7.915676	-0.039324	-0.389210	0.068352	-0.022223	-0.115057	-0.037663	-0.688232	0.610107	-0.549316	0.051947	-0.028448	0.079190	0.535955	-0.302721	-0.014712	-0.787969	-20.259899	-29.527373	-106.163517
63393		4.220455	-2.773812	8.158812	0.376817	0.492709	-0.237316	-0.036410	-0.097907	-0.027692	-0.675293	0.617432	-0.562744	0.042161	-0.027729	0.081614	0.535811	-0.303209	-0.014843	-0.787877	-20.287943	-29.583328	-106.153371
63394		5.158428	-3.002932	7.856204	-0.177443	-0.290176	0.047902	-0.059834	-0.109769	-0.026295	-0.682129	0.626709	-0.569580	0.051537	-0.030013	0.078599	0.535630	-0.303822	-0.014923	-0.787762	-20.331334	-29.647694	-106.139431
63395		5.289291	-2.703327	7.705077	-0.014331	-0.571973	-0.100560	-0.060621	-0.100356	-0.015264	-0.684326	0.640625	-0.578125	0.052852	-0.027014	0.077085	0.535498	-0.304386	-0.014946	-0.787635	-20.377402	-29.702476	-106.120937
63396		5.265968	-2.927056	7.466711	-0.299184	-0.533262	-0.237931	-0.092556	-0.111268	-0.006039	-0.686523	0.647705	-0.581299	0.052617	-0.029238	0.074710	0.535346	-0.305094	-0.014870	-0.787465	-20.446020	-29.763603	-106.093981
63397		5.028394	-2.514712	7.837132	0.293836	-0.374934	-0.179296	-0.093738	-0.106641	0.002208	-0.697021	0.648193	-0.593506	0.050242	-0.025110	0.078410	0.535231	-0.305772	-0.014753	-0.787283	-20.517265	-29.818220	-106.063068
63398		4.242416	-2.768733	8.081793	0.393349	0.480567	-0.294617	-0.104198	-0.110588	0.012648	-0.700928	0.658691	-0.599121	0.042381	-0.027643	0.080856	0.535135	-0.306509	-0.014601	-0.787064	-20.598370	-29.875190	-106.024509
63399		4.496966	-3.130236	8.097340	0.046598	0.433877	-0.045520	-0.117666	-0.118860	0.015268	-0.708496	0.667969	-0.600098	0.044924	-0.031251	0.081018	0.535033	-0.307300	-0.014403	-0.786829	-20.688931	-29.933644	-105.982457
63400		4.461936	-2.715570	8.124985	0.436817	0.301888	-0.168175	-0.125210	-0.123095	0.019331	-0.701660	0.677002	-0.609619	0.044572	-0.027101	0.081294	0.534929	-0.308143	-0.014192	-0.786573	-20.785792	-29.995828	-105.936595
63401		5.146149	-2.510459	7.969332	0.393393	-0.404470	-0.015896	-0.147274	-0.138870	0.035923	-0.713623	0.681152	-0.600830	0.051411	-0.025037	0.079747	0.534860	-0.309092	-0.013898	-0.786253	-20.902290	-30.060658	-105.876768
63402		5.286638	-2.439150	7.860596	0.390993	-0.584503	-0.056028	-0.177861	-0.145790	0.058661	-0.720703	0.693359	-0.613281	0.052816	-0.024306	0.078666	0.534827	-0.310167	-0.013480	-0.785859	-21.044449	-30.126750	-105.800871
63403		5.851948	-2.540040	7.708726	0.126024	-1.060739	0.136205	-0.208873	-0.167059	0.086303	-0.735840	0.706787	-0.612793	0.058466	-0.025295	0.077163	0.534857	-0.311395	-0.012942	-0.785362	-21.215619	-30.195980	-105.702716
63404		5.153229	-2.649786	8.002863	0.365645	-0.324671	0.055634	-0.241220	-0.155258	0.099446	-0.735840	0.703613	-0.606934	0.051483	-0.026376	0.080100	0.534883	-0.312678	-0.012237	-0.784846	-21.408313	-30.258287	-105.598809
63405		5.407455	-3.101926	7.712975	-0.185250	-0.443388	0.092943	-0.229755	-0.144781	0.095154	-0.738037	0.711182	-0.612793	0.054033	-0.030905	0.077204	0.534914	-0.313873	-0.011544	-0.784358	-21.591979	-30.313233	-105.499967
63406		4.920640	-3.897839	7.515528	-0.815446	0.233629	-0.057205	-0.185839	-0.107326	0.070618	-0.749512	0.717773	-0.611328	0.049180	-0.038891	0.075218	0.534914	-0.314817	-0.010973	-0.783988	-21.738463	-30.355582	-105.425053
63407		4.761116	-3.759863	7.783639	-0.514398	0.403019	0.034281	-0.126018	-0.063782	0.026628	-0.757324	0.721680	-0.608398	0.047591	-0.037543	0.077875	0.534843	-0.315413	-0.010577	-0.783802	-21.831561	-30.381579	-105.388030
63408		5.450385	-4.016273	7.403503	-1.060458	-0.192852	0.161642	-0.080210	-0.057648	-0.008093	-0.766357	0.720703	-0.614258	0.054481	-0.040135	0.074067	0.534703	-0.315875	-0.010412	-0.783714	-21.886981	-30.414077	-105.373704
63409		5.376632	-3.332701	7.615539	-0.356610	-0.345124	0.074942	-0.047278	-0.046041	-0.047780	-0.764648	0.722168	-0.606445	0.053741	-0.033322	0.076176	0.534465	-0.316186	-0.010395	-0.783751	-21.909578	-30.446480	-105.386872
63410		5.022290	-3.299981	7.846947	-0.130445	0.023082	0.070141	-0.055176	-0.062111	-0.053473	-0.774170	0.725098	-0.610107	0.050190	-0.032992	0.078494	0.534186	-0.316597	-0.010411	-0.783775	-21.937107	-30.491071	-105.399357
63411		4.693179	-3.121355	8.196505	0.272370	0.351443	0.124805	-0.068462	-0.101222	-0.063966	-0.776855	0.736084	-0.603271	0.046880	-0.031200	0.081999	0.533848	-0.317180	-0.010483	-0.783768	-21.973734	-30.556276	-105.408763
63412		4.437760	-3.004151	8.264518	0.473597	0.549043	0.010506	-0.094921	-0.159967	-0.065429	-0.781738	0.727783	-0.606445	0.044302	-0.030017	0.082695	0.533454	-0.318079	-0.010624	-0.783671	-22.032702	-30.655421	-105.404172
63413		4.390946	-2.903973	8.596754	0.747515	0.680010	0.217088	-0.137428	-0.252421	-0.065141	-0.791504	0.731445	-0.602783	0.043791	-0.028995	0.086043	0.532993	-0.319438	-0.010832	-0.783429	-22.127875	-30.801174	-105.376274
63414		4.937384	-3.049840	8.279816	0.371316	0.202763	0.289565	-0.199575	-0.373333	-0.071127	-0.798096	0.729736	-0.605225	0.049208	-0.030433	0.082921	0.532395	-0.321450	-0.011140	-0.783008	-22.272851	-31.014681	-105.320980
63415		4.831263	-2.757102	8.541999	0.808217	0.291928	0.344563	-0.301083	-0.488687	-0.079022	-0.794678	0.738770	-0.590820	0.048093	-0.027461	0.085579	0.531598	-0.324166	-0.011358	-0.782426	-22.489206	-31.288508	-105.240429
63416		4.505066	-2.477856	8.578750	1.191464	0.497917	0.105085	-0.476280	-0.735792	-0.040443	-0.804199	0.740967	-0.579834	0.044730	-0.024583	0.086011	0.530642	-0.328327	-0.011497	-0.781337	-22.853380	-31.686445	-105.069880
63417		4.629054	-1.864916	9.622214	2.291168	0.573108	0.766234	-0.743127	-1.037848	-0.003070	-0.807861	0.749512	-0.573242	0.045790	-0.018292	0.096529	0.529366	-0.334353	-0.011322	-0.779648	-23.428722	-32.231561	-104.791446
63418		4.085028	-3.038416	9.054502	1.265914	1.407494	0.400907	-0.847530	-1.378410	0.050268	-0.814209	0.755615	-0.566650	0.040232	-0.029989	0.090951	0.528070	-0.341983	-0.011563	-0.777211	-24.139626	-32.942506	-104.377110
63419		4.133604	-3.342003	8.692179	0.960669	1.475116	0.222620	-0.961262	-1.736951	-0.000047	-0.818848	0.763184	-0.549072	0.040578	-0.033001	0.087436	0.526326	-0.351260	-0.012382	-0.774238	-24.967895	-33.845252	-103.876910
63420		3.205251	-4.415652	8.089122	0.091060	2.605274	-0.410242	-0.865219	-2.078905	-0.115237	-0.830566	0.762939	-0.535400	0.031183	-0.043823	0.081408	0.524217	-0.361575	-0.014685	-0.770872	-25.777247	-34.949428	-103.325597
63421		3.073209	-4.490854	8.006471	0.150477	2.881965	-0.572414	-0.732075	-2.444101	-0.387229	-0.851318	0.768066	-0.513672	0.029663	-0.044672	0.080595	0.521204	-0.372863	-0.018936	-0.767438	-26.501166	-36.301739	-102.806702
63422		3.195882	-5.948300	7.804851	-1.033493	3.584904	-0.190582	-0.584587	-2.826180	-0.695035	-0.864502	0.775391	-0.494873	0.030644	-0.059362	0.078661	0.517141	-0.385143	-0.025330	-0.763930	-27.125245	-37.925943	-102.331244
63423		3.624311	-4.786472	8.684214	0.461737	3.377420	0.178858	-0.398462	-3.213456	-0.973121	-0.884277	0.763428	-0.457764	0.034608	-0.047862	0.087502	0.512201	-0.398276	-0.033954	-0.760180	-27.642513	-39.814590	-101.874351
63424		3.661083	-5.022999	8.845653	0.486607	3.866513	0.270939	-0.343006	-3.496756	-1.272129	-0.906006	0.759033	-0.430420	0.034736	-0.050302	0.089161	0.506019	-0.412178	-0.044108	-0.756379	-28.097816	-41.925539	-101.482444
63425		4.984672	-4.141508	9.122401	1.288172	2.994653	0.891154	-0.236614	-3.821791	-1.511783	-0.937988	0.757568	-0.398926	0.047777	-0.041673	0.092199	0.498888	-0.426816	-0.055954	-0.752202	-28.496909	-44.261478	-101.100015
63426		5.564468	-4.264126	9.090374	1.238786	3.077162	1.176168	-0.358979	-4.207520	-1.636877	-0.944824	0.750732	-0.359131	0.053365	-0.042920	0.092119	0.490680	-0.442986	-0.068551	-0.747193	-29.054035	-46.824826	-100.610991
63427		6.757442	-5.980444	10.743614	0.889473	4.585910	3.415752	-0.291689	-4.648967	-1.809991	-0.979492	0.737061	-0.311279	0.064508	-0.060239	0.109047	0.481549	-0.460318	-0.082818	-0.741188	-29.678528	-49.651997	-100.000990
63428		4.173088	-4.571436	9.239158	1.555704	5.205154	-0.110501	-0.242080	-4.847069	-2.031692	-0.991699	0.712158	-0.274414	0.039009	-0.046007	0.093415	0.471308	-0.477878	-0.098209	-0.734749	-30.296116	-52.637748	-99.389194
63429		6.422387	-5.428038	9.528922	1.008432	5.075673	1.792538	-0.330041	-5.697881	-2.273120	-1.023193	0.693359	-0.208984	0.060852	-0.054826	0.097145	0.459172	-0.498254	-0.115770	-0.726293	-31.262799	-56.106232	-98.435739
63430		10.859351	-8.621594	12.864967	0.466840	7.369494	7.597334	-0.261709	-6.123125	-2.531542	-1.033691	0.675049	-0.155029	0.103485	-0.087376	0.131984	0.445551	-0.519364	-0.135085	-0.716588	-32.410540	-59.850063	-97.262253
63431		18.057128	-6.720708	15.033700	3.199042	5.377667	13.807219	-0.382184	-5.584946	-2.505513	-1.042725	0.658447	-0.089600	0.175420	-0.069133	0.155415	0.431622	-0.538297	-0.152561	-0.707576	-33.637397	-63.312496	-96.119358
63432		21.176627	-12.138493	15.306540	-0.571005	8.838166	17.598628	-0.324900	-5.566444	-2.722111	-1.044189	0.626953	-0.035400	0.205719	-0.123957	0.159048	0.416684	-0.556369	-0.170639	-0.698363	-34.926670	-66.823927	-94.905991
63433		19.383102	-12.827736	17.015529	0.338049	12.627462	16.072390	0.088308	-4.434362	-2.559643	-1.042969	0.593750	0.009033	0.188333	-0.130788	0.174315	0.404092	-0.569313	-0.187211	-0.691046	-35.561190	-69.742087	-94.171104
63434		13.390704	-10.782609	17.403978	2.408908	14.858485	9.468970	0.463206	-4.047506	-2.528020	-1.053223	0.569336	0.048584	0.128972	-0.109884	0.176430	0.392792	-0.579845	-0.204090	-0.683989	-35.825395	-72.467350	-93.613873
63435		5.750446	-8.303045	17.585034	4.580254	16.503391	1.042159	0.384872	-3.902071	-2.491604	-1.036133	0.540771	0.087402	0.053019	-0.084049	0.176753	0.381319	-0.589747	-0.220198	-0.676984	-36.166120	-75.112006	-93.031778
63436		3.175770	-7.266740	23.462806	9.145054	21.339578	-1.191898	-0.172281	-3.168904	-1.976131	-1.026855	0.529785	0.120850	0.027316	-0.072750	0.235147	0.370590	-0.598533	-0.231399	-0.671473	-36.983250	-77.240508	-92.294431
63437		-4.729947	-3.008253	29.185301	16.283398	24.850296	-9.110495	-0.829546	-1.277826	-1.849842	-1.027832	0.498291	0.127197	-0.049431	-0.028422	0.291662	0.360410	-0.602191	-0.236461	-0.671980	-35.518110	-78.454584	-94.281474
63438		5.291538	-7.102246	28.468186	12.815953	24.742786	0.789854	-1.562604	0.163256	-1.658810	-1.020996	0.478271	0.132080	0.052569	-0.069233	0.285184	0.350329	-0.602460	-0.235843	-0.677266	-32.229012	-78.901285	-98.551100
63439		-7.301673	-12.129474	21.083585	5.020281	24.780386	-12.190106	-1.867383	1.695672	-1.201597	-1.022217	0.461426	0.125000	-0.071938	-0.118881	0.212566	0.342619	-0.598526	-0.230107	-0.686607	-27.923667	-78.402159	-104.035609
63440		-10.443276	-13.467823	16.051882	1.383399	22.596238	-15.777086	-1.413346	2.315368	-0.942267	-1.027588	0.445313	0.097412	-0.103187	-0.133046	0.162662	0.337819	-0.591847	-0.224023	-0.696714	-23.779900	-77.435980	-109.103487
63441		-8.610653	-11.832943	15.175316	2.298171	20.539978	-13.966871	-0.948311	2.696003	-0.607961	-1.022461	0.430420	0.072510	-0.084403	-0.117346	0.153457	0.335897	-0.583325	-0.217902	-0.706699	-20.489877	-76.133326	-113.043066
63442		-8.563762	-8.640221	14.237513	4.304590	17.746613	-13.959932	-0.856966	3.115445	-0.115347	-1.024414	0.430908	0.036621	-0.083452	-0.085739	0.144055	0.336306	-0.573567	-0.209830	-0.716862	-18.493573	-74.465761	-115.628318
63443		-7.568771	-6.182619	13.228801	5.544852	15.163310	-12.944835	-1.129717	3.502504	0.446246	-1.017822	0.428223	-0.002686	-0.073215	-0.061238	0.133932	0.338302	-0.563295	-0.198537	-0.727210	-17.866276	-72.477252	-116.959970
63444		-9.815353	-3.658690	10.337883	5.946259	12.148305	-15.611773	-1.726932	3.696321	1.021144	-1.010498	0.428467	-0.033936	-0.096032	-0.036176	0.105480	0.340806	-0.553643	-0.183018	-0.737452	-18.560692	-70.273929	-117.272486
63445		-9.494257	-3.644223	9.047513	5.295155	11.305745	-15.234466	-2.397036	3.325553	1.507333	-1.006592	0.439453	-0.062988	-0.093143	-0.036048	0.092468	0.342711	-0.546724	-0.164259	-0.746098	-20.418329	-68.187488	-116.757174
63446		-4.108065	-6.796987	10.536958	3.536233	12.672514	-8.824146	-2.604542	3.039974	1.981601	-1.001953	0.452393	-0.099121	-0.038797	-0.066977	0.106847	0.345400	-0.541323	-0.143770	-0.752993	-22.904922	-66.140626	-115.688240
63447		0.308525	-9.716604	11.597182	1.796133	13.581093	-3.386994	-2.284400	3.105804	2.523401	-0.980713	0.470703	-0.110840	0.006111	-0.095769	0.116992	0.350879	-0.535254	-0.122901	-0.758474	-25.490868	-63.922308	-114.282371
63448		3.236485	-9.803829	12.564718	2.077110	12.614243	0.236097	-1.587968	3.361740	3.014150	-0.968994	0.498535	-0.147705	0.035941	-0.096516	0.125833	0.360002	-0.526973	-0.102753	-0.762981	-27.730930	-61.416808	-112.799427
63449		4.738195	-7.139497	12.785744	3.755755	9.612560	1.604037	-1.015527	3.618450	3.422163	-0.955322	0.523926	-0.179199	0.050893	-0.069897	0.127315	0.372145	-0.516593	-0.083280	-0.766619	-29.582038	-58.654285	-111.337442
63450		6.388636	-5.317644	12.747133	4.572236	6.868093	2.972274	-0.658542	3.784747	3.656687	-0.914307	0.544189	-0.209229	0.067238	-0.051550	0.126392	0.385793	-0.504638	-0.064069	-0.769675	-31.074124	-55.715368	-110.037450
63451		8.897567	-5.172774	13.006801	4.270101	4.825738	5.468555	-0.324472	3.970821	3.750460	-0.893555	0.560059	-0.237061	0.092481	-0.049806	0.128337	0.400556	-0.491003	-0.045638	-0.772262	-32.150945	-52.648400	-108.941901
63452		11.139685	-5.486179	13.258441	3.625987	2.987234	7.732234	0.088794	4.224972	3.745362	-0.856689	0.575439	-0.270996	0.115165	-0.052787	0.130154	0.415736	-0.475164	-0.028060	-0.774980	-32.738118	-49.448119	-108.172530
63453		12.423610	-5.358918	13.485282	3.340564	1.232718	8.952775	0.535002	4.510768	3.682615	-0.827637	0.580322	-0.295166	0.128195	-0.051608	0.131851	0.431753	-0.456895	-0.011962	-0.777620	-32.850055	-46.129667	-107.610609
63454		13.298748	-4.735962	13.753380	3.411761	-0.660630	9.584741	0.881169	4.739502	3.604586	-0.807617	0.583740	-0.322266	0.137024	-0.045510	0.134115	0.447911	-0.436526	0.003176	-0.780263	-32.614603	-42.715968	-107.230799
63455		14.701852	-4.227431	14.211605	3.352992	-2.856496	10.594718	1.099489	4.922999	3.568589	-0.783203	0.589600	-0.359619	0.151185	-0.040368	0.138203	0.463962	-0.414600	0.017732	-0.782644	-32.176849	-39.235830	-106.940848
63456		16.045105	-4.115021	14.238978	2.681646	-5.056857	11.263971	1.218305	5.086883	3.548810	-0.769043	0.582764	-0.389893	0.164705	-0.039102	0.137994	0.479733	-0.391294	0.032201	-0.784671	-31.625780	-35.674410	-106.704058
63457		17.175721	-4.392262	13.920769	1.517405	-7.086229	11.527729	1.320579	5.211904	3.501253	-0.761230	0.593750	-0.442139	0.176045	-0.041763	0.134376	0.494989	-0.366921	0.046386	-0.786259	-30.982710	-32.077700	-106.503880
63458		18.140673	-5.057492	13.443540	-0.027427	-8.890466	11.545724	1.450340	5.291353	3.367281	-0.736572	0.597656	-0.481201	0.185699	-0.048422	0.129203	0.509442	-0.341505	0.060015	-0.787554	-30.223576	-28.473941	-106.366002
63459		18.949778	-5.987276	12.773451	-1.885029	-10.503490	11.259770	1.609858	5.323303	3.155100	-0.707031	0.596436	-0.525879	0.193722	-0.057837	0.122144	0.522780	-0.315329	0.072622	-0.788667	-29.332325	-24.926051	-106.300950
63460		19.555739	-6.631189	11.939254	-3.589922	-12.073868	10.438287	1.742313	5.298797	2.882070	-0.685303	0.605713	-0.567871	0.199556	-0.064462	0.113573	0.534746	-0.288624	0.084184	-0.789719	-28.329320	-21.458698	-106.317647
