// General information: 
//  MT Manager version: 2019.2.0 
//  XDA version: 2019.2.0 build 3853 rev 94535 built on 2019-09-09
// Device information: 
//  DeviceId: 00B47791
//  ProductCode: MTW2-3A7G6
//  Firmware Version: 4.6.0
//  Hardware Version: 2.0.0
// Device settings: 
//  Filter Profile: human(46.1)
//  Option Flags: Orientation Smoother Disabled, AHS Disabled, ICC Disabled
// Coordinate system: ENU
PacketCounter	SampleTimeFine	Acc_X	Acc_Y	Acc_Z	FreeAcc_E	FreeAcc_N	FreeAcc_U	Gyr_X	Gyr_Y	Gyr_Z	Mag_X	Mag_Y	Mag_Z	VelInc_X	VelInc_Y	VelInc_Z	Quat_q0	Quat_q1	Quat_q2	Quat_q3	Roll	Pitch	Yaw
62923		9.632529	1.464116	1.484077	0.055490	0.002364	0.042699	-0.003001	0.006191	-0.013880	-0.921631	-0.237305	-0.605469	0.096327	0.014635	0.014838	0.760272	0.091307	-0.643109	-0.007803	43.633365	-77.540876	-36.822961
62924		9.629827	1.475802	1.538247	0.001273	0.007297	0.050259	0.000011	0.007286	-0.009347	-0.921631	-0.238281	-0.603271	0.096300	0.014754	0.015379	0.760290	0.091282	-0.643090	-0.007812	43.618822	-77.539327	-36.811162
62925		9.599697	1.425034	1.536525	0.003518	-0.038309	0.013010	-0.003649	0.003354	-0.011512	-0.930176	-0.232666	-0.597900	0.095998	0.014245	0.015363	0.760299	0.091252	-0.643084	-0.007841	43.612613	-77.538486	-36.809752
62926		9.587518	1.446735	1.488148	0.047164	-0.009165	-0.003212	0.006910	0.013656	-0.012412	-0.918701	-0.242432	-0.602783	0.095877	0.014461	0.014875	0.760335	0.091265	-0.643040	-0.007837	43.596395	-77.533082	-36.792188
62927		9.559470	1.451568	1.509521	0.021829	-0.003564	-0.026540	0.008633	0.010960	-0.011205	-0.927246	-0.234619	-0.597656	0.095596	0.014510	0.015091	0.760361	0.091281	-0.643006	-0.007822	43.583310	-77.529312	-36.776507
62928		9.531481	1.456411	1.530468	-0.003507	0.002017	-0.049871	0.003250	0.004319	-0.013289	-0.925537	-0.231201	-0.600586	0.095316	0.014558	0.015303	0.760369	0.091281	-0.642997	-0.007837	43.583337	-77.527435	-36.777728
62929		9.531218	1.457644	1.530935	-0.003795	0.003139	-0.049872	0.006048	0.006899	-0.011083	-0.922363	-0.245361	-0.596924	0.095314	0.014571	0.015306	0.760383	0.091283	-0.642980	-0.007834	43.575554	-77.525489	-36.769584
62930		9.512012	1.445277	1.566504	-0.040446	-0.011259	-0.064900	0.007347	0.001764	-0.013242	-0.929443	-0.237549	-0.596924	0.095121	0.014446	0.015665	0.760381	0.091299	-0.642981	-0.007838	43.582400	-77.524691	-36.775385
62931		9.561622	1.453378	1.545062	-0.011953	-0.007223	-0.018610	0.004762	-0.002298	-0.013121	-0.920166	-0.236816	-0.605225	0.095617	0.014527	0.015452	0.760366	0.091309	-0.642997	-0.007845	43.594882	-77.525703	-36.787608
62932		9.558279	1.458076	1.510789	0.020385	0.001927	-0.026537	0.002608	0.002423	-0.014950	-0.926025	-0.242432	-0.608643	0.095584	0.014573	0.015107	0.760367	0.091313	-0.642994	-0.007869	43.601038	-77.523957	-36.795483
62933		9.574531	1.483683	1.529207	0.002563	0.022374	-0.003970	0.003682	0.002295	-0.012663	-0.915771	-0.233643	-0.600098	0.095746	0.014830	0.015291	0.760369	0.091315	-0.642992	-0.007879	43.603123	-77.523062	-36.798103
62934		9.579871	1.471268	1.510174	0.023583	0.011552	-0.003585	0.000242	0.003223	-0.017817	-0.930176	-0.237305	-0.598877	0.095800	0.014704	0.015100	0.760374	0.091319	-0.642984	-0.007921	43.611868	-77.519850	-36.810018
62935		9.591461	1.452122	1.559900	-0.020646	-0.015352	0.012658	0.008844	0.009483	-0.008874	-0.928223	-0.240723	-0.592773	0.095916	0.014516	0.015595	0.760396	0.091327	-0.642958	-0.007898	43.597073	-77.517636	-36.792690
62936		9.588071	1.456628	1.526120	0.011693	-0.006207	0.004732	0.003902	0.001754	-0.014364	-0.926025	-0.239990	-0.610840	0.095882	0.014559	0.015261	0.760395	0.091333	-0.642958	-0.007917	43.604062	-77.516399	-36.800659
62937		9.574485	1.430532	1.542279	-0.003654	-0.032511	-0.009895	0.004764	0.003109	-0.014403	-0.923340	-0.236084	-0.595459	0.095746	0.014298	0.015422	0.760398	0.091346	-0.642952	-0.007928	43.608963	-77.514606	-36.805389
62938		9.591763	1.397546	1.572309	-0.026589	-0.071346	0.006753	0.008642	0.001099	-0.012653	-0.917480	-0.244629	-0.591797	0.095919	0.013969	0.015723	0.760393	0.091365	-0.642956	-0.007925	43.616628	-77.514316	-36.811269
62939		9.568450	1.447117	1.561622	-0.025545	-0.018400	-0.010287	0.004116	0.000271	-0.012036	-0.923096	-0.243408	-0.594727	0.095685	0.014465	0.015616	0.760386	0.091370	-0.642963	-0.007929	43.622134	-77.514698	-36.816728
62940		9.573863	1.434517	1.542433	-0.004529	-0.029226	-0.009885	0.008210	0.003125	-0.013275	-0.916016	-0.243896	-0.600098	0.095740	0.014338	0.015423	0.760388	0.091389	-0.642959	-0.007929	43.627100	-77.513322	-36.820097
62941		9.568026	1.449703	1.561820	-0.026118	-0.016219	-0.010284	0.010577	0.002327	-0.010406	-0.920898	-0.240723	-0.603271	0.095681	0.014491	0.015618	0.760386	0.091415	-0.642958	-0.007903	43.629597	-77.513389	-36.818343
62942		9.542624	1.443834	1.528639	0.002487	-0.014542	-0.041155	0.014243	0.001802	-0.010980	-0.928711	-0.238770	-0.603760	0.095427	0.014432	0.015287	0.760380	0.091450	-0.642960	-0.007876	43.636084	-77.513468	-36.819729
62943		9.531208	1.473119	1.566763	-0.040388	0.010401	-0.041965	0.012752	-0.005915	-0.015341	-0.926025	-0.240234	-0.603027	0.095313	0.014723	0.015671	0.760351	0.091496	-0.642988	-0.007869	43.663215	-77.514997	-36.842661
62944		9.550126	1.488065	1.530414	-0.004307	0.026986	-0.026949	0.011670	-0.013072	-0.008283	-0.928467	-0.249268	-0.601563	0.095501	0.014876	0.015311	0.760298	0.091512	-0.643048	-0.007847	43.689766	-77.522307	-36.866106
62945		9.544538	1.503020	1.548414	-0.025889	0.039997	-0.027362	0.006499	-0.010394	-0.010615	-0.927979	-0.238037	-0.601563	0.095445	0.015025	0.015490	0.760257	0.091522	-0.643095	-0.007841	43.712957	-77.527553	-36.888065
62946		9.558988	1.472864	1.542905	-0.016203	0.009212	-0.018618	0.001326	-0.014062	-0.007633	-0.919434	-0.237061	-0.600098	0.095589	0.014725	0.015436	0.760207	0.091496	-0.643158	-0.007850	43.734188	-77.535526	-36.912131
62947		9.559105	1.473615	1.541466	-0.016480	0.010321	-0.018620	-0.001687	-0.016103	-0.008134	-0.914551	-0.236084	-0.606445	0.095590	0.014732	0.015422	0.760151	0.091461	-0.643228	-0.007869	43.757807	-77.544162	-36.940170
62948		9.582467	1.426056	1.550356	-0.018131	-0.040413	-0.001523	-0.003834	-0.022193	-0.007386	-0.921631	-0.239990	-0.601807	0.095823	0.014257	0.015514	0.760077	0.091415	-0.643322	-0.007896	43.790285	-77.555592	-36.978778
62949		9.610364	1.423229	1.528131	0.006646	-0.043762	0.021839	0.006719	-0.017278	-0.006999	-0.917969	-0.244873	-0.601074	0.096103	0.014228	0.015290	0.760015	0.091410	-0.643397	-0.007884	43.818581	-77.565028	-37.006571
62950		9.603791	1.496790	1.533684	-0.009837	0.028559	0.027254	0.003503	-0.022300	-0.012561	-0.921631	-0.237305	-0.607666	0.096037	0.014962	0.015348	0.759937	0.091408	-0.643489	-0.007908	43.865282	-77.574439	-37.055438
62951		9.610651	1.425384	1.524314	0.006099	-0.041569	0.021849	0.007365	-0.014439	-0.009364	-0.914307	-0.244141	-0.599854	0.096106	0.014249	0.015251	0.759883	0.091415	-0.643552	-0.007899	43.893583	-77.581733	-37.082493
62952		9.590706	1.471335	1.546477	-0.025449	0.003328	0.012658	0.020287	-0.010318	-0.006113	-0.926025	-0.240234	-0.599609	0.095907	0.014709	0.015471	0.759836	0.091457	-0.643602	-0.007839	43.916291	-77.588748	-37.096942
62953		9.587573	1.475654	1.510891	0.006912	0.012439	0.004731	0.018571	-0.012089	-0.010055	-0.914795	-0.236328	-0.603027	0.095876	0.014750	0.015116	0.759784	0.091510	-0.643656	-0.007795	43.948438	-77.594857	-37.121138
62954		9.559916	1.480129	1.530149	-0.018403	0.017977	-0.018634	0.023290	-0.003810	-0.002876	-0.918213	-0.243652	-0.598145	0.095599	0.014798	0.015305	0.759757	0.091553	-0.643684	-0.007710	43.955065	-77.600473	-37.117359
62955		9.602812	1.453494	1.592568	-0.070245	-0.021337	0.028935	0.012945	-0.004805	-0.002221	-0.922119	-0.246338	-0.597656	0.096028	0.014533	0.015929	0.759731	0.091558	-0.643713	-0.007652	43.955869	-77.606655	-37.113027
62956		9.667781	1.436909	1.654239	-0.118386	-0.053150	0.099444	0.003448	0.000019	0.001125	-0.920654	-0.236572	-0.604248	0.096678	0.014369	0.016543	0.759726	0.091513	-0.643727	-0.007614	43.936679	-77.612281	-37.094455
62957		9.730458	1.536922	1.692914	-0.156282	0.033659	0.181528	-0.011654	0.003198	0.006831	-0.922119	-0.236328	-0.594238	0.097304	0.015374	0.016927	0.759738	0.091397	-0.643730	-0.007596	43.891998	-77.618787	-37.057877
62958		9.759152	1.645688	1.684267	-0.153947	0.140939	0.224370	-0.022680	0.011821	0.022086	-0.926758	-0.247803	-0.597168	0.097591	0.016470	0.016835	0.759782	0.091185	-0.643707	-0.007557	43.796953	-77.627849	-36.976973
62959		9.753803	1.656172	1.705373	-0.175539	0.153993	0.223913	-0.030682	0.017085	0.039139	-0.922607	-0.237061	-0.607178	0.097536	0.016583	0.017043	0.759848	0.090894	-0.643672	-0.007470	43.655515	-77.641477	-36.852297
62960		9.730183	1.585064	1.686005	-0.152039	0.096319	0.187268	-0.033501	0.014274	0.059824	-0.920898	-0.237061	-0.607910	0.097298	0.015883	0.016850	0.759907	0.090520	-0.643657	-0.007322	43.477876	-77.664338	-36.693199
62961		9.670335	1.533213	1.671666	-0.142181	0.063008	0.118899	-0.033288	0.010922	0.070224	-0.919678	-0.239014	-0.601074	0.096699	0.015369	0.016709	0.759957	0.090115	-0.643657	-0.007132	43.285059	-77.692418	-36.518146
62962		9.595064	1.397742	1.650689	-0.119923	-0.049068	0.022297	-0.036306	0.012417	0.076513	-0.917725	-0.244141	-0.602295	0.095946	0.014017	0.016498	0.760011	0.089677	-0.643656	-0.006930	43.075741	-77.722368	-36.328303
62963		9.529555	1.358824	1.655899	-0.131374	-0.070504	-0.046492	-0.031346	0.021097	0.077994	-0.925781	-0.228760	-0.609131	0.095292	0.013628	0.016547	0.760092	0.089261	-0.643621	-0.006694	42.849782	-77.748947	-36.117237
62964		9.538842	1.333973	1.673825	-0.143009	-0.089340	-0.038116	-0.033484	0.032175	0.070869	-0.920654	-0.230713	-0.601807	0.095386	0.013376	0.016721	0.760208	0.088852	-0.643542	-0.006495	42.615751	-77.768071	-35.900488
62965		9.537649	1.278566	1.742571	-0.202332	-0.143587	-0.036365	-0.044032	0.032700	0.069219	-0.921143	-0.226318	-0.610107	0.095375	0.012823	0.017407	0.760332	0.088407	-0.643459	-0.006336	42.376311	-77.786074	-35.684473
62966		9.601941	1.246955	1.720969	-0.163932	-0.171261	0.018777	-0.043148	0.040412	0.063887	-0.916748	-0.222656	-0.607666	0.096019	0.012504	0.017188	0.760478	0.087985	-0.643346	-0.006192	42.134425	-77.798632	-35.465381
62967		9.581437	1.343452	1.737779	-0.190279	-0.067022	0.015230	-0.050680	0.046503	0.069525	-0.919922	-0.233887	-0.612549	0.095814	0.013472	0.017352	0.760649	0.087512	-0.643209	-0.006049	41.864438	-77.810420	-35.222411
62968		9.650237	1.486508	1.839573	-0.288331	0.063230	0.118760	-0.068779	0.059231	0.091105	-0.918701	-0.229980	-0.603760	0.096501	0.014915	0.018362	0.760867	0.086904	-0.643035	-0.005875	41.519686	-77.824842	-34.913128
62969		9.744468	1.568283	1.900564	-0.333822	0.137766	0.232007	-0.097176	0.078320	0.104027	-0.911377	-0.233398	-0.610840	0.097444	0.015743	0.018960	0.761161	0.086153	-0.642790	-0.005730	41.098082	-77.835312	-34.541070
62970		9.751932	1.655600	1.902854	-0.335182	0.237592	0.251765	-0.117361	0.097714	0.115803	-0.923584	-0.223145	-0.612305	0.097519	0.016624	0.018971	0.761524	0.085282	-0.642477	-0.005601	40.607424	-77.841355	-34.111030
62971		9.762501	1.737816	1.941444	-0.369135	0.329435	0.279429	-0.147026	0.107682	0.126753	-0.920410	-0.222900	-0.615967	0.097624	0.017454	0.019349	0.761932	0.084268	-0.642128	-0.005518	40.059320	-77.846049	-33.638869
62972		9.729177	1.739713	1.994700	-0.415722	0.346929	0.255535	-0.180309	0.115674	0.127496	-0.921387	-0.218750	-0.615234	0.097292	0.017477	0.019875	0.762378	0.083120	-0.641748	-0.005539	39.477374	-77.846752	-33.152354
62973		9.682021	1.648173	1.988121	-0.395907	0.281683	0.196033	-0.202588	0.122067	0.126544	-0.917236	-0.222656	-0.613525	0.096822	0.016563	0.019805	0.762853	0.081892	-0.641340	-0.005631	38.873052	-77.843009	-32.655721
62974		9.559567	1.544058	1.968637	-0.375957	0.213732	0.059389	-0.216094	0.111831	0.119008	-0.924561	-0.210449	-0.614258	0.095597	0.015519	0.019616	0.763298	0.080635	-0.640968	-0.005801	38.294847	-77.840283	-32.193999
62975		9.470002	1.547746	1.974430	-0.385954	0.244019	-0.026662	-0.222203	0.107834	0.100972	-0.922607	-0.205322	-0.617188	0.094703	0.015547	0.019676	0.763732	0.079414	-0.640602	-0.006058	37.757248	-77.831915	-31.776926
62976		9.408311	1.490390	1.970239	-0.376109	0.210572	-0.094992	-0.242146	0.096607	0.087717	-0.926025	-0.202148	-0.620850	0.094086	0.014969	0.019639	0.764134	0.078157	-0.640272	-0.006437	37.255525	-77.823365	-31.408690
62977		9.288247	1.321827	1.904778	-0.307330	0.079291	-0.244711	-0.243068	0.098818	0.077593	-0.914795	-0.201904	-0.619385	0.092887	0.013277	0.018986	0.764544	0.076925	-0.639928	-0.006860	36.770646	-77.809568	-31.058778
62978		9.267979	1.173699	1.884509	-0.267699	-0.049768	-0.286396	-0.227047	0.089997	0.058301	-0.913086	-0.199707	-0.623047	0.092685	0.011785	0.018790	0.764916	0.075819	-0.639611	-0.007306	36.352137	-77.792741	-30.766791
62979		9.250537	1.076938	1.798785	-0.168932	-0.123488	-0.329858	-0.203720	0.087957	0.047445	-0.920654	-0.201172	-0.625244	0.092511	0.010810	0.017936	0.765272	0.074835	-0.639295	-0.007720	35.973199	-77.772560	-30.501792
62980		9.263353	0.979507	1.813647	-0.164437	-0.213582	-0.326603	-0.165261	0.074644	0.038278	-0.915527	-0.197998	-0.621582	0.092638	0.009828	0.018094	0.765569	0.074028	-0.639030	-0.008051	35.658653	-77.755351	-30.279921
62981		9.340812	0.912584	1.703621	-0.029510	-0.269075	-0.277876	-0.112155	0.072354	0.035157	-0.919678	-0.197510	-0.617920	0.093413	0.009152	0.016997	0.765839	0.073435	-0.638772	-0.008223	35.384555	-77.737771	-30.068227
62982		9.326316	0.816423	1.647763	0.036550	-0.350803	-0.313349	-0.047362	0.058803	0.032584	-0.919434	-0.194336	-0.627930	0.093267	0.008183	0.016448	0.766041	0.073098	-0.638569	-0.008205	35.175252	-77.725648	-29.884900
62983		9.387743	0.728714	1.514847	0.189018	-0.425796	-0.287013	-0.007215	0.030283	0.029122	-0.911133	-0.196777	-0.626221	0.093879	0.007301	0.015134	0.766138	0.072923	-0.638475	-0.008082	35.038935	-77.725559	-29.752784
62984		9.460485	0.678388	1.418438	0.302605	-0.469359	-0.238708	0.034519	0.018309	0.035859	-0.913574	-0.190918	-0.623535	0.094605	0.006798	0.014177	0.766180	0.072887	-0.638431	-0.007804	34.930963	-77.733320	-29.625146
62985		9.480834	0.684221	1.297285	0.425321	-0.448801	-0.239026	0.076734	0.017632	0.051722	-0.910889	-0.199951	-0.625732	0.094808	0.006862	0.012967	0.766207	0.072961	-0.638396	-0.007331	34.812536	-77.746392	-29.462162
62986		9.545693	0.649934	1.185001	0.550266	-0.472464	-0.199110	0.096816	0.013019	0.063183	-0.921387	-0.194580	-0.625488	0.095456	0.006524	0.011847	0.766210	0.073076	-0.638385	-0.006752	34.688520	-77.765456	-29.281594
62987		9.560389	0.608378	1.092794	0.646517	-0.499286	-0.205498	0.138036	0.013513	0.072793	-0.917236	-0.201416	-0.621582	0.095602	0.006111	0.010926	0.766202	0.073320	-0.638376	-0.006001	34.565110	-77.787210	-29.077202
62988		9.648346	0.699979	0.958980	0.785523	-0.396754	-0.131483	0.175624	0.014604	0.083054	-0.909912	-0.198975	-0.614746	0.096481	0.007031	0.009589	0.766181	0.073673	-0.638367	-0.005094	34.439444	-77.811808	-28.848778
62989		9.754956	0.691954	0.899066	0.863976	-0.401247	-0.038291	0.190483	0.018798	0.092865	-0.923340	-0.202148	-0.628662	0.097547	0.006956	0.008988	0.766168	0.074056	-0.638346	-0.004095	34.293423	-77.837462	-28.590080
62990		9.780825	0.684844	0.845963	0.921337	-0.396616	-0.022742	0.222714	0.031147	0.095081	-0.913330	-0.199707	-0.623779	0.097806	0.006886	0.008452	0.766181	0.074552	-0.638278	-0.002985	34.142048	-77.857858	-28.307801
62991		9.756884	0.730331	0.803231	0.955182	-0.335842	-0.047946	0.250589	0.036787	0.097454	-0.909668	-0.201904	-0.618652	0.097567	0.007341	0.008024	0.766202	0.075150	-0.638188	-0.001770	33.991647	-77.876101	-28.009603
62992		9.752419	0.730224	0.736016	1.020193	-0.318902	-0.063733	0.270946	0.027336	0.104718	-0.920166	-0.196533	-0.626709	0.097521	0.007343	0.007357	0.766182	0.075800	-0.638137	-0.000471	33.850782	-77.901082	-27.709852
62993		9.772235	0.676781	0.712989	1.051099	-0.361615	-0.054235	0.292802	0.029020	0.106128	-0.912842	-0.199219	-0.625000	0.097720	0.006809	0.007126	0.766159	0.076530	-0.638078	0.000908	33.715184	-77.925556	-27.402317
62994		9.807693	0.767698	0.652723	1.107444	-0.258248	-0.019163	0.312608	0.039022	0.112657	-0.916504	-0.202637	-0.623047	0.098074	0.007722	0.006520	0.766157	0.077314	-0.637982	0.002375	33.561346	-77.947172	-27.064943
62995		9.830709	0.767864	0.653742	1.110872	-0.249573	0.003804	0.306881	0.041738	0.123925	-0.910889	-0.205078	-0.614746	0.098304	0.007730	0.006529	0.766164	0.078040	-0.637878	0.003872	33.373275	-77.970836	-26.695545
62996		9.823485	0.840717	0.717058	1.040537	-0.173211	0.016305	0.313813	0.052321	0.129889	-0.914551	-0.197510	-0.627930	0.098231	0.008460	0.007158	0.766199	0.078773	-0.637734	0.005414	33.159809	-77.991038	-26.296558
62997		9.858842	0.935992	0.744958	1.010293	-0.073699	0.066669	0.308532	0.053979	0.137725	-0.917236	-0.212402	-0.623291	0.098584	0.009416	0.007437	0.766240	0.079461	-0.637585	0.006973	32.921416	-78.012627	-25.874844
62998		9.853090	1.066429	0.796028	0.945151	0.061999	0.084643	0.290887	0.052680	0.147851	-0.920166	-0.205811	-0.625732	0.098525	0.010726	0.007950	0.766280	0.080048	-0.637444	0.008511	32.651232	-78.037532	-25.431370
62999		9.919539	1.032241	0.896095	0.864194	0.022667	0.163203	0.275485	0.053869	0.150381	-0.917725	-0.201904	-0.620605	0.099190	0.010385	0.008949	0.766329	0.080573	-0.637298	0.010017	32.363129	-78.062238	-24.977661
63000		9.940058	1.160337	0.891798	0.856700	0.161949	0.196621	0.266458	0.040241	0.156754	-0.916992	-0.209961	-0.613281	0.099393	0.011669	0.008914	0.766335	0.081038	-0.637206	0.011506	32.073351	-78.094979	-24.528553
63001		9.961089	1.287118	0.887526	0.849171	0.301265	0.230011	0.234086	0.063213	0.171231	-0.912354	-0.208252	-0.621094	0.099603	0.012946	0.008859	0.766424	0.081335	-0.637033	0.012962	31.696543	-78.120614	-24.008777
63002		9.859964	1.332371	0.973048	0.742705	0.359226	0.150256	0.214133	0.078656	0.180173	-0.919189	-0.209717	-0.627197	0.098591	0.013402	0.009706	0.766569	0.081522	-0.636803	0.014390	31.263703	-78.140394	-23.444202
63003		9.795304	1.294061	1.102031	0.611979	0.325714	0.104793	0.193240	0.077752	0.183135	-0.916748	-0.205811	-0.617676	0.097945	0.013020	0.010995	0.766718	0.081625	-0.636579	0.015769	30.811631	-78.160651	-22.871270
63004		9.752357	1.198301	1.155075	0.566374	0.244342	0.061425	0.203686	0.067305	0.183813	-0.915039	-0.203857	-0.621094	0.097516	0.012061	0.011530	0.766828	0.081762	-0.636392	0.017173	30.376603	-78.185293	-22.310664
63005		9.722847	1.138790	1.279110	0.449224	0.186598	0.047844	0.199660	0.065547	0.181173	-0.916748	-0.197754	-0.622314	0.097222	0.011463	0.012771	0.766931	0.081894	-0.636212	0.018558	29.946007	-78.209389	-21.756254
63006		9.683416	1.039247	1.400894	0.338287	0.089392	0.020350	0.191481	0.068735	0.171927	-0.913086	-0.202148	-0.618408	0.096830	0.010462	0.013986	0.767049	0.082021	-0.636014	0.019878	29.526489	-78.228218	-21.218727
63007		9.673505	0.932884	1.538336	0.219635	-0.020046	0.024223	0.221384	0.077024	0.174701	-0.914063	-0.200195	-0.619873	0.096733	0.009396	0.015356	0.767178	0.082254	-0.635782	0.021310	29.104551	-78.243108	-20.660936
63008		9.665117	1.007442	1.568162	0.181949	0.064290	0.028619	0.223413	0.081578	0.166740	-0.913574	-0.200439	-0.632813	0.096649	0.010138	0.015654	0.767320	0.082518	-0.635527	0.022717	28.696139	-78.252456	-20.116124
63009		9.671753	0.986915	1.676792	0.083611	0.041677	0.052387	0.192752	0.075078	0.175413	-0.906006	-0.196533	-0.617432	0.096715	0.009938	0.016741	0.767452	0.082639	-0.635302	0.024060	28.256357	-78.266718	-19.556885
63010		9.619027	0.989297	1.876341	-0.118628	0.031799	0.036676	0.202277	0.060117	0.186808	-0.917236	-0.204834	-0.624756	0.096187	0.009964	0.018745	0.767530	0.082760	-0.635138	0.025467	27.812709	-78.290646	-18.988515
63011		9.839834	0.952031	1.862441	-0.059685	-0.001598	0.246825	0.216792	-0.008000	0.194325	-0.907959	-0.200928	-0.613037	0.098388	0.009596	0.018639	0.767382	0.082925	-0.635235	0.026926	27.443564	-78.350507	-18.487192
63012		10.125801	1.005182	1.725816	0.113594	0.070949	0.507328	0.248502	-0.011542	0.208795	-0.914307	-0.200195	-0.615479	0.101246	0.010136	0.017277	0.767207	0.083163	-0.635345	0.028535	27.056698	-78.415121	-17.949966
63013		10.249224	0.944070	1.696876	0.169033	0.026980	0.617457	0.205204	0.018952	0.228709	-0.913574	-0.196045	-0.632324	0.102483	0.009540	0.016969	0.767140	0.083171	-0.635353	0.030101	26.551845	-78.468733	-17.316891
63014		10.304656	0.782167	1.633596	0.262115	-0.103268	0.646134	0.193201	0.023188	0.243208	-0.914063	-0.190674	-0.628418	0.103039	0.007931	0.016332	0.767089	0.083082	-0.635349	0.031681	25.992507	-78.522375	-16.636208
63015		10.221226	0.840503	1.609752	0.257355	-0.013966	0.565402	0.200014	0.029899	0.248112	-0.921875	-0.191895	-0.622559	0.102204	0.008516	0.016091	0.767054	0.083001	-0.635318	0.033304	25.409459	-78.572387	-15.927555
63016		10.045322	0.864127	1.554651	0.270431	0.052624	0.385165	0.164502	0.026525	0.269992	-0.918213	-0.196289	-0.622559	0.100444	0.008764	0.015540	0.767018	0.082716	-0.635314	0.034897	24.749042	-78.627965	-15.160785
63017		9.868855	0.622123	1.554517	0.272477	-0.149949	0.192365	0.152669	0.035446	0.287264	-0.918213	-0.201172	-0.617432	0.098682	0.006351	0.015532	0.767008	0.082330	-0.635285	0.036525	24.019058	-78.681362	-14.329724
63018		9.721292	0.442301	1.608791	0.218150	-0.301397	0.043725	0.157855	0.029086	0.305020	-0.916504	-0.191650	-0.618408	0.097208	0.004559	0.016077	0.766972	0.081907	-0.635283	0.038231	23.245444	-78.739797	-13.451704
63019		9.632588	0.245182	1.693024	0.148398	-0.477311	-0.042156	0.150259	0.016845	0.319831	-0.915039	-0.186279	-0.619873	0.096323	0.002593	0.016924	0.766892	0.081417	-0.635335	0.039973	22.433545	-78.805856	-12.538130
63020		9.674270	0.043227	1.751612	0.128335	-0.658796	-0.003968	0.155604	0.000927	0.324602	-0.920166	-0.192627	-0.619385	0.096742	0.000576	0.017516	0.766758	0.080928	-0.635445	0.041735	21.618195	-78.878614	-11.619284
63021		9.799800	-0.045856	1.706502	0.204996	-0.714712	0.106861	0.187947	-0.010558	0.312286	-0.917725	-0.181396	-0.617676	0.097998	-0.000322	0.017070	0.766574	0.080609	-0.635587	0.043554	20.855961	-78.952707	-10.735110
63022		9.831082	0.051357	1.675448	0.218739	-0.587318	0.140558	0.171516	-0.005186	0.297343	-0.917725	-0.190430	-0.620850	0.098309	0.000645	0.016758	0.766415	0.080269	-0.635702	0.045260	20.109427	-79.018465	-9.877535
63023		9.944647	-0.004024	1.631931	0.285512	-0.611374	0.242354	0.171566	-0.019252	0.281887	-0.914551	-0.187744	-0.615479	0.099445	0.000086	0.016329	0.766211	0.079985	-0.635864	0.046907	19.410453	-79.086927	-9.067740
63024		10.044051	0.048725	1.559746	0.359058	-0.524419	0.331974	0.194871	-0.000106	0.265515	-0.917725	-0.184326	-0.616211	0.100440	0.000605	0.015598	0.766062	0.079833	-0.635938	0.048567	18.743707	-79.139935	-8.278158
63025		10.045586	0.096982	1.599266	0.309899	-0.459897	0.344737	0.181094	0.039684	0.259484	-0.917969	-0.174805	-0.614258	0.100458	0.001086	0.015974	0.766042	0.079646	-0.635860	0.050184	18.042836	-79.168628	-7.460725
63026		10.020974	0.079126	1.691966	0.219161	-0.470238	0.337176	0.184773	0.056846	0.244347	-0.920410	-0.176758	-0.614014	0.100213	0.000898	0.016892	0.766079	0.079509	-0.635706	0.051753	17.367830	-79.183277	-6.668789
63027		10.017284	0.146232	1.754003	0.148699	-0.393690	0.349338	0.195337	0.076001	0.225142	-0.921875	-0.180176	-0.618408	0.100178	0.001558	0.017503	0.766174	0.079469	-0.635469	0.053295	16.734770	-79.182875	-5.912972
63028		9.872284	0.181320	1.876200	0.002177	-0.359071	0.231517	0.171209	0.105443	0.206089	-0.920410	-0.175293	-0.616455	0.098731	0.001899	0.018712	0.766378	0.079388	-0.635115	0.054693	16.119521	-79.161295	-5.189778
63029		9.696889	0.154474	1.981217	-0.120642	-0.383583	0.077561	0.160810	0.102613	0.191372	-0.919434	-0.170410	-0.616211	0.096978	0.001622	0.019764	0.766577	0.079319	-0.634769	0.056008	15.545229	-79.137859	-4.513473
63030		9.646478	0.138224	2.042972	-0.182399	-0.393737	0.039169	0.178885	0.055947	0.183923	-0.922119	-0.176758	-0.615234	0.096469	0.001453	0.020404	0.766623	0.079351	-0.634592	0.057326	15.041868	-79.137601	-3.899646
63031		9.632010	0.233453	1.981894	-0.143429	-0.273763	0.019021	0.209206	0.029312	0.165224	-0.913818	-0.174561	-0.619141	0.096321	0.002393	0.019807	0.766574	0.079569	-0.634501	0.058664	14.629071	-79.148831	-3.359740
63032		9.602263	0.379520	1.938978	-0.135515	-0.110034	-0.010817	0.239539	0.037422	0.142383	-0.920898	-0.174805	-0.624268	0.096024	0.003840	0.019376	0.766547	0.079971	-0.634357	0.060008	14.293920	-79.151227	-2.881826
63033		9.482949	0.420923	1.965811	-0.191697	-0.064040	-0.121090	0.261485	0.029417	0.133206	-0.915039	-0.175049	-0.618896	0.094830	0.004247	0.019650	0.766486	0.080491	-0.634233	0.061388	14.002752	-79.156361	-2.435195
63034		9.412210	0.391235	1.934322	-0.170515	-0.078162	-0.197638	0.287108	-0.001398	0.130235	-0.918701	-0.181152	-0.615967	0.094119	0.003946	0.019350	0.766317	0.081125	-0.634217	0.062821	13.757195	-79.177767	-2.020777
63035		9.521279	0.293622	1.943171	-0.141734	-0.169353	-0.093217	0.313785	0.003886	0.123005	-0.921387	-0.176025	-0.618408	0.095211	0.002964	0.019434	0.766152	0.081889	-0.634167	0.064319	13.543041	-79.195104	-1.621689
63036		9.593351	0.163909	2.040905	-0.197091	-0.311447	-0.010203	0.366663	0.015589	0.111768	-0.927490	-0.186279	-0.611328	0.095934	0.001655	0.020405	0.766006	0.082880	-0.634049	0.065940	13.383067	-79.204014	-1.248039
63037		9.554626	0.202956	2.061247	-0.232403	-0.274289	-0.042755	0.410031	0.008775	0.096656	-0.921143	-0.181641	-0.611328	0.095546	0.002033	0.020612	0.765819	0.084095	-0.633935	0.067645	13.296734	-79.214975	-0.922788
63038		9.577943	0.372620	2.112617	-0.315133	-0.118779	-0.003224	0.428186	-0.017776	0.090199	-0.921143	-0.183105	-0.620850	0.095776	0.003724	0.021143	0.765541	0.085401	-0.633910	0.069363	13.257185	-79.239424	-0.635875
63039		9.519997	0.553806	2.130043	-0.386126	0.053334	-0.049379	0.435107	-0.032166	0.077827	-0.920898	-0.186523	-0.609863	0.095194	0.005529	0.021328	0.765215	0.086783	-0.633929	0.071057	13.266933	-79.270441	-0.394091
63040		9.413321	0.574433	2.146280	-0.432427	0.067409	-0.150619	0.441446	-0.051891	0.072991	-0.922852	-0.183594	-0.606934	0.094126	0.005731	0.021500	0.764822	0.088205	-0.634016	0.072736	13.307780	-79.311658	-0.181328
63041		9.316463	0.489351	2.159773	-0.452935	-0.021673	-0.247389	0.443314	-0.082861	0.080129	-0.924316	-0.187500	-0.613525	0.093154	0.004883	0.021647	0.764321	0.089629	-0.634223	0.074442	13.349295	-79.371540	0.032865
63042		9.310792	0.508176	2.097430	-0.409284	0.007045	-0.263827	0.480073	-0.100185	0.074383	-0.924316	-0.185791	-0.602295	0.093096	0.005066	0.021033	0.763749	0.091211	-0.634474	0.076226	13.440496	-79.439933	0.216837
63043		9.256151	0.456357	2.124386	-0.443674	-0.054662	-0.315437	0.489163	-0.087146	0.070575	-0.918457	-0.195068	-0.610107	0.092551	0.004544	0.021295	0.763209	0.092838	-0.634667	0.078037	13.537460	-79.500946	0.400919
63044		9.196871	0.276815	2.242065	-0.532625	-0.262757	-0.361064	0.485803	-0.070027	0.064613	-0.922119	-0.200439	-0.601074	0.091960	0.002743	0.022460	0.762725	0.094460	-0.634789	0.079815	13.638537	-79.551342	0.578114
63045		9.110500	0.090394	2.294712	-0.559895	-0.462928	-0.445335	0.526017	-0.072557	0.061859	-0.919678	-0.197266	-0.599365	0.091096	0.000872	0.022982	0.762209	0.096255	-0.634897	0.081718	13.773735	-79.602833	0.745536
63046		9.118604	0.153585	2.267838	-0.555106	-0.402575	-0.440100	0.572870	-0.086292	0.063607	-0.930664	-0.202637	-0.594971	0.091176	0.001500	0.022722	0.761621	0.098218	-0.635036	0.083760	13.939419	-79.662290	0.907704
63047		9.148078	0.150800	2.241155	-0.530699	-0.405867	-0.416599	0.555694	-0.073410	0.069929	-0.918701	-0.204102	-0.600830	0.091472	0.001478	0.022449	0.761070	0.100097	-0.635132	0.085786	14.066607	-79.715957	1.100271
63048		9.069771	0.094988	2.274476	-0.568737	-0.475358	-0.491015	0.553260	-0.084608	0.077925	-0.918213	-0.206299	-0.597168	0.090688	0.000922	0.022786	0.760479	0.101938	-0.635270	0.087819	14.175486	-79.776614	1.308690
63049		9.059225	0.151169	2.315069	-0.632953	-0.438426	-0.492865	0.540623	-0.120910	0.092467	-0.929199	-0.212891	-0.592285	0.090578	0.001491	0.023209	0.759767	0.103706	-0.635550	0.089856	14.259945	-79.859279	1.535698
63050		9.176607	0.332881	2.182569	-0.549000	-0.232674	-0.393082	0.533620	-0.155208	0.106659	-0.920410	-0.208496	-0.596680	0.091747	0.003319	0.021906	0.758937	0.105411	-0.635970	0.091899	14.321610	-79.963308	1.780535
63051		9.264417	0.561300	2.202628	-0.630542	-0.022203	-0.294392	0.479088	-0.128025	0.119121	-0.931152	-0.214844	-0.578857	0.092627	0.005615	0.022099	0.758211	0.106863	-0.636311	0.093837	14.289146	-80.053914	2.090421
63052		9.149344	0.705889	2.259075	-0.756605	0.098993	-0.393030	0.423486	-0.067616	0.131387	-0.928223	-0.216553	-0.590332	0.091481	0.007071	0.022637	0.757696	0.108029	-0.636454	0.095669	14.133580	-80.112711	2.491596
63053		8.976917	0.795975	2.359817	-0.916586	0.157295	-0.543250	0.401843	-0.048140	0.159302	-0.923096	-0.222412	-0.588623	0.089757	0.007984	0.023636	0.757235	0.109024	-0.636546	0.097556	13.858912	-80.164634	3.002627
63054		8.850750	0.827975	2.497674	-1.085845	0.151936	-0.644398	0.365015	-0.023899	0.187441	-0.930664	-0.221436	-0.584961	0.088497	0.008317	0.025002	0.756858	0.109768	-0.636577	0.099437	13.447779	-80.205997	3.629042
63055		8.702060	0.689105	2.668784	-1.238170	-0.023762	-0.768933	0.330069	0.015523	0.227151	-0.937012	-0.222412	-0.584229	0.087015	0.006946	0.026693	0.756601	0.110248	-0.636491	0.101387	12.857238	-80.229342	4.419103
63056		8.591571	0.462530	2.690639	-1.215199	-0.235910	-0.883175	0.316832	0.022063	0.246591	-0.936523	-0.224854	-0.585693	0.085913	0.004689	0.026904	0.756361	0.110597	-0.636398	0.103363	12.184827	-80.250226	5.282518
63057		8.584801	0.555129	2.683984	-1.241511	-0.131939	-0.887892	0.336476	0.032590	0.267830	-0.933594	-0.220947	-0.583984	0.085845	0.005621	0.026835	0.756126	0.110962	-0.636264	0.105496	11.447072	-80.266006	6.225633
63058		8.645567	0.616322	2.762251	-1.327464	-0.079633	-0.813399	0.276752	0.036608	0.295876	-0.937500	-0.218018	-0.579590	0.086452	0.006253	0.027615	0.755921	0.110994	-0.636160	0.107538	10.574815	-80.280239	7.268423
63059		8.742110	0.765110	2.675309	-1.279903	0.110524	-0.728814	0.267603	0.046951	0.321832	-0.935791	-0.215820	-0.586426	0.087415	0.007756	0.026743	0.755735	0.110914	-0.636032	0.109663	9.604809	-80.288540	8.406667
63060		8.947442	0.910060	2.650551	-1.273220	0.284293	-0.527840	0.249538	0.038281	0.351247	-0.931152	-0.216064	-0.579834	0.089463	0.009225	0.026500	0.755514	0.110666	-0.635961	0.111827	8.528329	-80.300840	9.640759
63061		9.244158	1.095499	2.632179	-1.273133	0.501007	-0.236102	0.245687	0.023579	0.380670	-0.935059	-0.210205	-0.577637	0.092424	0.011099	0.026324	0.755227	0.110327	-0.635959	0.114090	7.356435	-80.319573	10.970777
63062		9.621969	1.081159	2.589013	-1.177795	0.542616	0.125746	0.204683	0.003164	0.394833	-0.938721	-0.213623	-0.580811	0.096199	0.010975	0.025900	0.754887	0.109789	-0.636064	0.116255	6.115675	-80.346315	12.345304
63063		9.924485	1.124707	2.456379	-1.032668	0.667770	0.399156	0.212340	-0.019359	0.392796	-0.927490	-0.206055	-0.577881	0.099220	0.011416	0.024585	0.754466	0.109309	-0.636244	0.118433	4.886862	-80.380870	13.713496
63064		10.179755	1.132445	2.536204	-1.084873	0.691093	0.660493	0.179539	-0.034518	0.371044	-0.936523	-0.208252	-0.584717	0.101772	0.011490	0.025390	0.754026	0.108773	-0.636487	0.120407	3.706543	-80.418273	15.011841
63065		10.407153	0.903835	2.429598	-0.892945	0.547296	0.861194	0.139418	-0.054950	0.327327	-0.936768	-0.204346	-0.576904	0.104050	0.009192	0.024331	0.753567	0.108246	-0.636800	0.122085	2.647103	-80.461339	16.165454
63066		10.397404	0.702285	2.318676	-0.742251	0.417169	0.829232	0.125781	-0.044847	0.278529	-0.936035	-0.207275	-0.578613	0.103959	0.007153	0.023215	0.753174	0.107807	-0.637060	0.123533	1.735065	-80.494648	17.160241
63067		10.401790	0.569275	2.287837	-0.684325	0.322890	0.826058	0.112297	-0.060637	0.233444	-0.939941	-0.192627	-0.579102	0.104004	0.005801	0.022913	0.752765	0.107481	-0.637359	0.124767	0.966142	-80.533770	18.003509
63068		10.414623	0.670563	2.180060	-0.630236	0.470296	0.819729	0.119437	-0.094307	0.187183	-0.937500	-0.199463	-0.573730	0.104130	0.006790	0.021854	0.752272	0.107340	-0.637757	0.125824	0.353369	-80.590403	18.690997
63069		10.386844	0.728250	2.045059	-0.540915	0.578215	0.769005	0.071598	-0.056362	0.118989	-0.937012	-0.197021	-0.575684	0.103858	0.007337	0.020482	0.751967	0.107218	-0.638003	0.126499	-0.057939	-80.623947	19.147342
63070		10.426158	0.632933	1.923226	-0.398889	0.534903	0.787263	0.048477	-0.054156	0.033235	-0.939453	-0.200928	-0.570068	0.104255	0.006342	0.019262	0.751736	0.107276	-0.638211	0.126771	-0.186321	-80.656218	19.302541
63071		10.624025	0.718842	2.085909	-0.554971	0.571052	1.008752	0.043856	-0.071650	-0.051688	-0.942383	-0.201416	-0.573975	0.106235	0.007156	0.020899	0.751506	0.107606	-0.638440	0.126708	-0.020858	-80.698395	19.158531
63072		10.622397	0.813574	2.018010	-0.527413	0.671101	0.996615	0.001489	-0.069745	-0.136977	-0.932373	-0.195313	-0.581787	0.106222	0.008063	0.020217	0.751358	0.108040	-0.638645	0.126183	0.420594	-80.739399	18.709024
63073		10.548992	0.761577	1.848719	-0.365602	0.656126	0.897812	-0.042288	-0.069835	-0.182259	-0.937500	-0.206299	-0.574463	0.105490	0.007524	0.018522	0.751263	0.108460	-0.638848	0.125354	1.000874	-80.779016	18.094492
63074		10.299623	0.745816	1.794789	-0.347123	0.626889	0.644187	-0.043014	-0.037784	-0.213796	-0.946777	-0.197021	-0.575684	0.103001	0.007352	0.017966	0.751288	0.108952	-0.638919	0.124415	1.693943	-80.799218	17.364339
63075		9.972339	0.748862	1.783215	-0.382030	0.598270	0.320638	-0.068958	0.000449	-0.228993	-0.941406	-0.206055	-0.572998	0.099732	0.007381	0.017829	0.751458	0.109378	-0.638849	0.123364	2.423395	-80.795483	16.583340
63076		9.596025	0.646972	1.770481	-0.387022	0.470692	-0.052282	-0.112951	0.013908	-0.229438	-0.943115	-0.204346	-0.571289	0.095969	0.006370	0.017695	0.751694	0.109625	-0.638758	0.122171	3.125636	-80.782751	15.803301
63077		9.221231	0.521167	1.707908	-0.337997	0.338831	-0.432357	-0.130286	0.009939	-0.224454	-0.945801	-0.202393	-0.568359	0.092219	0.005119	0.017071	0.751923	0.109800	-0.638692	0.120945	3.799581	-80.770764	15.042954
63078		9.007762	0.456049	1.644852	-0.284689	0.273356	-0.653129	-0.162926	0.003281	-0.212312	-0.941895	-0.207275	-0.577881	0.090083	0.004478	0.016443	0.752140	0.109811	-0.638679	0.119651	4.411705	-80.761910	14.325156
63079		8.878045	0.290615	1.637355	-0.238790	0.100472	-0.783959	-0.180600	0.016304	-0.201575	-0.940430	-0.204346	-0.577393	0.088785	0.002831	0.016364	0.752401	0.109718	-0.638630	0.118353	4.970573	-80.744745	13.651982
63080		8.783532	0.278830	1.648200	-0.253881	0.070255	-0.875387	-0.197497	0.017104	-0.194089	-0.941650	-0.209717	-0.573730	0.087839	0.002719	0.016472	0.752667	0.109532	-0.638593	0.117024	5.491134	-80.726695	13.006825
63081		8.792857	0.146718	1.593095	-0.153386	-0.048173	-0.876919	-0.219712	0.020374	-0.179377	-0.943115	-0.203857	-0.580078	0.087931	0.001406	0.015920	0.752947	0.109218	-0.638560	0.115687	5.944327	-80.706443	12.417971
63082		8.857799	0.172145	1.520010	-0.077561	-0.008324	-0.824108	-0.226754	0.018335	-0.160519	-0.935547	-0.208984	-0.575439	0.088581	0.001668	0.015190	0.753211	0.108814	-0.638551	0.114391	6.326416	-80.688111	11.896074
63083		9.005300	0.276893	1.486420	-0.050872	0.098707	-0.682014	-0.249914	0.011853	-0.140429	-0.942871	-0.211670	-0.577637	0.090056	0.002724	0.014855	0.753455	0.108266	-0.638587	0.113099	6.626396	-80.673931	11.444808
63084		9.156347	0.362046	1.436929	-0.002990	0.193755	-0.539231	-0.282230	0.010152	-0.119695	-0.934326	-0.203125	-0.577881	0.091566	0.003586	0.014360	0.753696	0.107526	-0.638660	0.111774	6.835854	-80.662120	11.065603
63085		9.280023	0.365511	1.396400	0.057239	0.209681	-0.423592	-0.306642	0.018089	-0.091040	-0.938721	-0.201660	-0.586182	0.092803	0.003634	0.013950	0.753959	0.106604	-0.638728	0.110490	6.928486	-80.647299	10.791608
63086		9.324630	0.311746	1.435495	0.047238	0.147096	-0.374325	-0.311617	0.024905	-0.066372	-0.939209	-0.204834	-0.584961	0.093249	0.003109	0.014338	0.754230	0.105574	-0.638787	0.109280	6.929510	-80.630571	10.606552
63087		9.375407	0.239703	1.492417	0.025843	0.064767	-0.316469	-0.312551	0.020121	-0.031640	-0.931396	-0.193115	-0.590820	0.093756	0.002406	0.014911	0.754467	0.104437	-0.638878	0.108201	6.811863	-80.618524	10.542002
63088		9.497132	-0.039204	1.383972	0.230279	-0.161560	-0.219289	-0.320210	0.005779	-0.002320	-0.936768	-0.201904	-0.584229	0.094972	-0.000371	0.013838	0.754643	0.103180	-0.639044	0.107194	6.595094	-80.617082	10.572691
63089		9.677133	-0.177868	1.241644	0.431417	-0.241513	-0.067137	-0.305434	-0.013237	0.019236	-0.936035	-0.204834	-0.579834	0.096771	-0.001750	0.012426	0.754739	0.101923	-0.639280	0.106311	6.319322	-80.627325	10.672406
63090		9.841420	-0.205396	1.300362	0.406837	-0.272784	0.104306	-0.272536	0.002872	0.043390	-0.944092	-0.198730	-0.592041	0.098415	-0.002015	0.013005	0.754853	0.100702	-0.639452	0.105628	5.973216	-80.630294	10.861866
63091		9.914987	-0.211173	1.278535	0.438503	-0.260362	0.173609	-0.264822	0.020310	0.060982	-0.940674	-0.202637	-0.586670	0.099152	-0.002065	0.012778	0.755009	0.099451	-0.639559	0.105050	5.565594	-80.623819	11.119345
63092		9.904687	-0.188335	1.279885	0.428172	-0.227573	0.164350	-0.241398	0.043565	0.080706	-0.939209	-0.194580	-0.584717	0.099050	-0.001828	0.012780	0.755215	0.098205	-0.639577	0.104627	5.095484	-80.605121	11.452581
63093		9.962813	-0.127188	1.328540	0.374836	-0.167120	0.230737	-0.212926	0.057904	0.097431	-0.938721	-0.186279	-0.579346	0.099633	-0.001209	0.013258	0.755443	0.097015	-0.639531	0.104372	4.582766	-80.578330	11.846843
63094		10.020684	-0.067524	1.379875	0.321445	-0.106635	0.297110	-0.193106	0.089524	0.110616	-0.931885	-0.197510	-0.589111	0.100213	-0.000607	0.013754	0.755754	0.095832	-0.639364	0.104238	4.029836	-80.533692	12.292144
63095		10.082864	-0.136557	1.355288	0.380475	-0.145752	0.353608	-0.173839	0.139268	0.127389	-0.946533	-0.189453	-0.595947	0.100839	-0.001290	0.013484	0.756206	0.094649	-0.639002	0.104260	3.425753	-80.460296	12.801766
63096		10.146494	-0.204558	1.369627	0.406742	-0.192619	0.417976	-0.120480	0.178612	0.132778	-0.942139	-0.176270	-0.590576	0.101478	-0.001970	0.013607	0.756753	0.093623	-0.638469	0.104484	2.835102	-80.363893	13.327710
63097		10.150006	-0.145645	1.419219	0.357584	-0.127937	0.430053	-0.090777	0.200135	0.149558	-0.933838	-0.188232	-0.596191	0.101515	-0.001374	0.014091	0.757346	0.092649	-0.637843	0.104883	2.213127	-80.254472	13.903682
63098		10.097845	-0.177427	1.409675	0.382497	-0.134779	0.376552	-0.067550	0.226219	0.160128	-0.939697	-0.179443	-0.600342	0.100996	-0.001689	0.013983	0.758003	0.091711	-0.637111	0.105401	1.580966	-80.129461	14.502874
63099		9.847237	-0.140200	1.393036	0.364239	-0.081342	0.126575	-0.047471	0.251373	0.161600	-0.930908	-0.175049	-0.605713	0.098491	-0.001319	0.013807	0.758730	0.090837	-0.636270	0.106007	0.970024	-79.988657	15.093564
63100		9.653137	-0.121839	1.373710	0.362975	-0.044071	-0.068396	-0.029524	0.236977	0.157763	-0.933838	-0.180176	-0.598389	0.096548	-0.001140	0.013623	0.759403	0.090044	-0.635474	0.106642	0.398011	-79.855335	15.654289
63101		9.651592	-0.135337	1.429874	0.329786	-0.050809	-0.060524	-0.010147	0.213647	0.149375	-0.924316	-0.171631	-0.604492	0.096532	-0.001281	0.014196	0.759996	0.089370	-0.634748	0.107302	-0.121795	-79.734157	16.174457
63102		9.649001	0.030285	1.441725	0.287655	0.124704	-0.061566	0.010855	0.204608	0.132378	-0.929199	-0.179443	-0.606445	0.096504	0.000366	0.014319	0.760558	0.088828	-0.634040	0.107954	-0.564794	-79.617731	16.627995
63103		9.702555	0.066050	1.351787	0.386432	0.204249	-0.025952	-0.001145	0.184494	0.120360	-0.928955	-0.178223	-0.611816	0.097038	0.000719	0.013428	0.761068	0.088296	-0.633405	0.108520	-0.968234	-79.512034	17.035529
63104		9.732622	0.117677	1.347521	0.394862	0.272457	0.001762	0.006038	0.174027	0.094015	-0.929199	-0.170654	-0.613037	0.097337	0.001222	0.013391	0.761555	0.087874	-0.632797	0.108997	-1.279884	-79.412460	17.352970
63105		9.820412	0.241423	1.354700	0.383185	0.407979	0.087852	0.033981	0.181548	0.080097	-0.931885	-0.177490	-0.596924	0.098215	0.002451	0.013458	0.762060	0.087604	-0.632136	0.109519	-1.526454	-79.308213	17.621653
63106		9.801130	0.303231	1.405718	0.330415	0.464782	0.076949	0.031339	0.204956	0.058410	-0.926514	-0.170166	-0.609863	0.098025	0.003059	0.013957	0.762651	0.087374	-0.631379	0.109953	-1.702756	-79.191007	17.816304
63107		9.788083	0.264158	1.531727	0.237870	0.402944	0.086987	0.018581	0.208505	0.035464	-0.934082	-0.166504	-0.619873	0.097896	0.002658	0.015215	0.763269	0.087173	-0.630604	0.110269	-1.813492	-79.072150	17.938084
63108		9.697270	0.288644	1.468565	0.293655	0.447428	-0.015209	0.029702	0.227010	0.017048	-0.922852	-0.164551	-0.615967	0.096989	0.002893	0.014576	0.763951	0.087055	-0.629745	0.110550	-1.860051	-78.942935	17.999770
63109		9.554991	0.364428	1.665510	0.082193	0.465797	-0.118317	0.042386	0.242877	0.000258	-0.917725	-0.174805	-0.616699	0.095570	0.003641	0.016540	0.764686	0.087032	-0.628808	0.110818	-1.848509	-78.804748	18.010352
63110		9.378860	0.379918	1.883439	-0.138227	0.416910	-0.249124	0.045186	0.235131	-0.010181	-0.918457	-0.164063	-0.627441	0.093811	0.003790	0.018725	0.765400	0.087054	-0.627895	0.111047	-1.805768	-78.671381	17.990088
63111		9.267199	0.318751	1.944441	-0.179721	0.339139	-0.346110	0.033793	0.194676	-0.025440	-0.928223	-0.169189	-0.618896	0.092691	0.003172	0.019355	0.766001	0.087107	-0.627134	0.111170	-1.730293	-78.561178	17.930665
63112		9.287612	0.217459	1.862984	-0.052779	0.268060	-0.341517	0.043858	0.194091	-0.035448	-0.922119	-0.175049	-0.619873	0.092895	0.002154	0.018540	0.766599	0.087226	-0.626367	0.111279	-1.622665	-78.451728	17.843392
63113		9.274086	0.077244	1.923518	-0.054203	0.118540	-0.341809	0.039466	0.208455	-0.033855	-0.917969	-0.173584	-0.622559	0.092761	0.000753	0.019139	0.767241	0.087321	-0.625546	0.111394	-1.522318	-78.334014	17.762049
63114		9.314448	0.026230	2.047952	-0.129761	0.040672	-0.276692	0.042658	0.203721	-0.034843	-0.920898	-0.169922	-0.627441	0.093165	0.000242	0.020385	0.767868	0.087428	-0.624741	0.111507	-1.419978	-78.218978	17.679404
63115		9.337272	0.017286	2.014565	-0.072685	0.045247	-0.260931	0.021609	0.192978	-0.033553	-0.927490	-0.171387	-0.634033	0.093392	0.000155	0.020056	0.768468	0.087461	-0.623988	0.111560	-1.335288	-78.109955	17.603432
63116		9.459853	0.017729	1.993628	-0.012682	0.061553	-0.145231	0.015134	0.153748	-0.028678	-0.921631	-0.172119	-0.630127	0.094614	0.000162	0.019864	0.768946	0.087471	-0.623393	0.111587	-1.271567	-78.023416	17.544076
63117		9.643281	0.067026	1.897135	0.113844	0.148703	0.013879	0.021305	0.126807	-0.026975	-0.918457	-0.171387	-0.639404	0.096445	0.000655	0.018910	0.769336	0.087519	-0.622896	0.111635	-1.211177	-77.952187	17.492635
63118		9.700955	0.119249	1.836945	0.179834	0.220553	0.057273	0.003931	0.133784	-0.032568	-0.915283	-0.177979	-0.633545	0.097022	0.001176	0.018305	0.769758	0.087508	-0.622381	0.111604	-1.146199	-77.877103	17.425397
63119		9.663270	0.142820	1.711808	0.296892	0.276363	-0.006315	-0.012619	0.145819	-0.045833	-0.918945	-0.169189	-0.636230	0.096645	0.001407	0.017048	0.770233	0.087474	-0.621821	0.111483	-1.055157	-77.795036	17.322804
63120		9.716680	0.214116	1.669985	0.341647	0.360227	0.036275	-0.000863	0.149349	-0.052384	-0.912354	-0.170166	-0.638672	0.097180	0.002116	0.016627	0.770716	0.087498	-0.621240	0.111367	-0.941893	-77.711189	17.203303
63121		9.723405	0.275097	1.665097	0.346487	0.420635	0.041033	-0.005090	0.165956	-0.061953	-0.905518	-0.180176	-0.642334	0.097249	0.002721	0.016570	0.771257	0.087530	-0.620590	0.111214	-0.807115	-77.617711	17.059980
63122		9.662945	0.296493	1.577211	0.427198	0.460816	-0.037559	-0.021515	0.159922	-0.073047	-0.915771	-0.174805	-0.635254	0.096643	0.002931	0.015695	0.771792	0.087533	-0.619970	0.110960	-0.655136	-77.527840	16.888637
63123		9.710796	0.293964	1.470054	0.553328	0.488722	-0.014627	-0.008209	0.127096	-0.078816	-0.915527	-0.183594	-0.645020	0.097118	0.002902	0.014639	0.772223	0.087630	-0.619464	0.110716	-0.482804	-77.456581	16.705372
63124		9.717938	0.355787	1.426800	0.590889	0.556825	-0.017717	0.011646	0.107502	-0.086375	-0.901367	-0.173096	-0.640625	0.097189	0.003515	0.014216	0.772588	0.087830	-0.619020	0.110490	-0.282951	-77.396573	16.504348
63125		9.673635	0.333883	1.421297	0.604436	0.530031	-0.062586	-0.003175	0.096255	-0.090903	-0.912354	-0.181885	-0.647949	0.096745	0.003295	0.014166	0.772926	0.088001	-0.618625	0.110201	-0.081051	-77.342720	16.293595
63126		9.689112	0.266065	1.226209	0.819791	0.513835	-0.090693	0.000284	0.081903	-0.094837	-0.915771	-0.181152	-0.647217	0.096897	0.002615	0.012222	0.773221	0.088198	-0.618283	0.109896	0.130262	-77.297067	16.074068
63127		9.678674	0.310618	1.267338	0.776819	0.538851	-0.092320	0.026964	0.089209	-0.100354	-0.908936	-0.178955	-0.648438	0.096794	0.003056	0.012631	0.773529	0.088519	-0.617893	0.109661	0.370121	-77.246956	15.842073
63128		9.681697	0.392051	1.238034	0.793155	0.618955	-0.096234	0.019071	0.096026	-0.103953	-0.905762	-0.183350	-0.645996	0.096825	0.003869	0.012334	0.773863	0.088809	-0.617482	0.109384	0.611543	-77.192776	15.602624
63129		9.769046	0.443006	1.193205	0.851263	0.678970	-0.021436	0.032520	0.102505	-0.104434	-0.906738	-0.182617	-0.648926	0.097699	0.004377	0.011883	0.774211	0.089155	-0.617036	0.109156	0.860394	-77.134586	15.364444
63130		9.813728	0.461808	1.100559	0.956139	0.718904	0.000707	0.021719	0.138365	-0.108791	-0.904785	-0.186035	-0.645020	0.098147	0.004564	0.010938	0.774677	0.089447	-0.616456	0.108888	1.109228	-77.055649	15.118828
63131		9.839726	0.463767	1.133580	0.947715	0.708064	0.032145	0.012977	0.175657	-0.110604	-0.904785	-0.183350	-0.652832	0.098410	0.004583	0.011250	0.775261	0.089698	-0.615734	0.108608	1.353356	-76.955121	14.873941
63132		9.785372	0.473807	1.065500	1.016987	0.728409	-0.037801	0.009172	0.197171	-0.117334	-0.902588	-0.188477	-0.654541	0.097867	0.004680	0.010559	0.775917	0.089935	-0.614928	0.108294	1.605632	-76.841904	14.617215
63133		9.801220	0.509853	1.101733	0.998833	0.749318	-0.015826	0.004626	0.215383	-0.123216	-0.903809	-0.186279	-0.656494	0.098027	0.005038	0.010912	0.776632	0.090170	-0.614050	0.107957	1.864756	-76.717886	14.351697
63134		9.695014	0.524639	1.053692	1.039705	0.765845	-0.132230	-0.029693	0.225993	-0.131206	-0.902100	-0.181396	-0.659424	0.096965	0.005184	0.010427	0.777399	0.090283	-0.613145	0.107482	2.116786	-76.587375	14.072079
63135		9.622078	0.513215	1.007022	1.093894	0.758507	-0.216340	-0.046053	0.218165	-0.135509	-0.895264	-0.173096	-0.655273	0.096235	0.005069	0.009964	0.778150	0.090355	-0.612276	0.106942	2.365874	-76.461036	13.786478
63136		9.563595	0.540200	0.922620	1.174701	0.798514	-0.294925	-0.050615	0.203322	-0.140625	-0.902344	-0.184570	-0.658447	0.095649	0.005337	0.009128	0.778859	0.090428	-0.611465	0.106356	2.620595	-76.342706	13.491466
63137		9.495534	0.687202	0.778852	1.274111	0.969065	-0.395600	-0.090406	0.189996	-0.138932	-0.897461	-0.187988	-0.661133	0.094967	0.006810	0.007695	0.779543	0.090350	-0.610727	0.105652	2.845444	-76.231987	13.204038
63138		9.483365	0.818890	0.705246	1.325009	1.108284	-0.425559	-0.105862	0.189793	-0.155881	-0.897217	-0.184326	-0.665039	0.094847	0.008119	0.006958	0.780241	0.090261	-0.609989	0.104831	3.096735	-76.120370	12.879675
63139		9.346405	1.029114	0.728906	1.234139	1.287924	-0.551814	-0.125877	0.161465	-0.186344	-0.886963	-0.184814	-0.668457	0.093479	0.010209	0.007207	0.780876	0.090207	-0.609358	0.103822	3.406662	-76.023820	12.483759
63140		9.459055	1.087900	0.516994	1.459531	1.394375	-0.493353	-0.172848	0.079535	-0.213208	-0.895508	-0.190674	-0.663086	0.094604	0.010783	0.005123	0.781296	0.090088	-0.609057	0.102523	3.757907	-75.972381	12.016577
63141		9.552591	1.043554	0.444572	1.575932	1.358962	-0.420762	-0.144883	0.083670	-0.245527	-0.889160	-0.185547	-0.670654	0.095540	0.010321	0.004398	0.781729	0.090181	-0.608710	0.101189	4.196130	-75.916749	11.476989
63142		9.842055	1.105618	0.875180	1.245012	1.299245	-0.034333	-0.068991	0.145964	-0.283761	-0.892334	-0.180176	-0.667236	0.098442	0.010920	0.008676	0.782337	0.090649	-0.608062	0.099961	4.747660	-75.822463	10.864373
63143		10.204935	0.902788	2.280704	0.106007	0.726591	0.657172	0.130465	0.315606	-0.336748	-0.894531	-0.185059	-0.669922	0.102100	0.008841	0.022652	0.783392	0.091976	-0.606626	0.099209	5.488128	-75.627279	10.174688
63144		10.739782	1.008927	4.368531	-1.685598	0.265996	1.699585	0.318558	0.457033	-0.415397	-0.878906	-0.197021	-0.673340	0.107518	0.009797	0.043455	0.784823	0.094204	-0.604500	0.098783	6.453744	-75.343999	9.362659
63145		10.745233	0.459355	5.033153	-2.089356	-0.482321	1.866572	0.156487	0.460170	-0.477345	-0.875244	-0.205322	-0.676514	0.107578	0.004298	0.050088	0.786360	0.095985	-0.602407	0.097626	7.425394	-75.051601	8.447716
63146		10.276556	-0.874502	3.633949	-0.499789	-1.451661	1.014156	0.008873	0.204893	-0.527767	-0.872070	-0.208252	-0.681396	0.102779	-0.009018	0.036234	0.787218	0.097457	-0.601358	0.095701	8.460736	-74.895668	7.377856
63147		10.341844	-1.334505	2.496354	0.721327	-1.641469	0.758562	0.276327	-0.028420	-0.583366	-0.873291	-0.204590	-0.687988	0.103375	-0.013681	0.024959	0.787262	0.100266	-0.601067	0.094250	9.826409	-74.861004	6.124909
63148		10.744761	-0.041165	3.591128	-0.517507	-0.751335	1.479565	0.397951	0.026624	-0.597371	-0.871582	-0.216309	-0.669922	0.107450	-0.000804	0.035896	0.787410	0.103563	-0.600488	0.093132	11.260277	-74.785769	4.872348
63149		10.073789	0.835029	3.778855	-1.073010	-0.034538	0.925348	0.010457	0.232245	-0.534976	-0.877930	-0.223877	-0.681885	0.100804	0.008079	0.037672	0.788338	0.105050	-0.599308	0.091204	12.239372	-74.595776	3.860444
63150		9.088943	0.562094	2.427746	0.020717	0.019754	-0.388365	-0.157589	0.120267	-0.437802	-0.872070	-0.229736	-0.686035	0.090916	0.005441	0.024218	0.788970	0.105634	-0.598691	0.089094	12.956032	-74.476414	3.020049
63151		9.211987	1.201542	2.316946	-0.002089	0.635064	-0.259194	0.067602	-0.058520	-0.349961	-0.871094	-0.230957	-0.681396	0.092134	0.011846	0.023200	0.788903	0.106926	-0.598724	0.087913	13.701945	-74.465702	2.283521
63152		9.451117	2.097763	3.299146	-1.079420	1.203199	0.286605	-0.147632	0.001768	-0.306786	-0.871338	-0.233154	-0.691650	0.094544	0.020857	0.032975	0.789112	0.107209	-0.598634	0.086287	14.206064	-74.425066	1.669298
63153		9.352793	1.810114	3.040184	-0.778530	0.979966	0.108376	-0.433723	-0.002527	-0.302563	-0.869141	-0.227783	-0.685547	0.093555	0.018025	0.030364	0.789456	0.106356	-0.598684	0.083821	14.538058	-74.386272	1.064008
63154		9.364336	2.071092	3.016681	-0.811485	1.222935	0.133491	-0.408689	-0.071371	-0.351061	-0.863770	-0.226563	-0.688721	0.093669	0.020608	0.030158	0.789595	0.105772	-0.598965	0.081199	15.013902	-74.377327	0.323645
63155		9.443497	2.517328	3.820925	-1.638088	1.424663	0.453909	-0.522097	-0.016887	-0.411701	-0.861816	-0.232178	-0.681885	0.094483	0.025078	0.038152	0.789975	0.104899	-0.599039	0.078026	15.513534	-74.327421	-0.508864
63156		9.316336	2.494542	3.868434	-1.689141	1.378345	0.347457	-0.619482	0.049607	-0.443193	-0.865234	-0.225830	-0.686523	0.093228	0.024858	0.038584	0.790608	0.103707	-0.598864	0.074471	15.976836	-74.234066	-1.362031
63157		9.082523	2.552004	3.759180	-1.637500	1.453629	0.104059	-0.646513	0.072983	-0.439752	-0.851563	-0.221924	-0.697266	0.090895	0.025441	0.037476	0.791310	0.102392	-0.598601	0.070861	16.397604	-74.126669	-2.187072
63158		9.282131	1.736651	3.689845	-1.299787	0.672483	0.219617	-0.725493	0.102020	-0.401951	-0.865234	-0.223633	-0.685547	0.092875	0.017313	0.036788	0.792115	0.100635	-0.598259	0.067176	16.674703	-74.008069	-2.910666
63159		9.328115	0.755519	3.955650	-1.288977	-0.344230	0.259637	-0.690995	0.171008	-0.314603	-0.856445	-0.222900	-0.692627	0.093327	0.007545	0.039451	0.793067	0.098730	-0.597666	0.063974	16.758518	-73.865244	-3.413015
63160		9.314144	-0.232391	3.860013	-0.971126	-1.276450	0.143947	-0.649075	0.118429	-0.220807	-0.857666	-0.217285	-0.703613	0.093162	-0.002302	0.038552	0.793799	0.096725	-0.597308	0.061242	16.714784	-73.766836	-3.757860
63161		9.787371	-0.777696	3.768076	-0.632142	-1.787398	0.531462	-0.533502	0.069792	-0.136909	-0.847900	-0.210693	-0.698975	0.097882	-0.007743	0.037667	0.794298	0.094944	-0.597140	0.059165	16.605848	-73.708852	-3.965790
63162		9.943341	-1.059376	3.777934	-0.538219	-2.055787	0.663435	-0.506388	0.092108	-0.061339	-0.863525	-0.211426	-0.706543	0.099448	-0.010529	0.037760	0.794821	0.093036	-0.596908	0.057478	16.357829	-73.651256	-4.012827
63163		9.480080	-1.479043	3.548603	-0.369436	-2.390372	0.127216	-0.513862	0.075074	-0.010710	-0.860107	-0.196777	-0.708496	0.094813	-0.014704	0.035488	0.795278	0.090951	-0.596765	0.055962	16.020345	-73.611019	-3.971230
63164		8.907237	-1.590216	3.122032	-0.112645	-2.381644	-0.542854	-0.413928	0.043991	0.011641	-0.853760	-0.206055	-0.714600	0.089080	-0.015832	0.031234	0.795586	0.089205	-0.596725	0.054819	15.716109	-73.591520	-3.904464
63165		8.543940	-1.131785	3.024695	-0.216104	-1.893926	-0.879885	-0.278660	0.032405	0.011493	-0.864990	-0.197998	-0.699463	0.085445	-0.011271	0.030249	0.795797	0.087997	-0.596690	0.054073	15.494915	-73.578038	-3.843864
63166		8.382050	-0.387500	2.997907	-0.379309	-1.147564	-0.984574	-0.189884	0.043043	0.019281	-0.852295	-0.198486	-0.713623	0.083827	-0.003838	0.029965	0.795996	0.087120	-0.596594	0.053628	15.305900	-73.560072	-3.763379
63167		8.315578	0.079729	3.199440	-0.672959	-0.720544	-0.957206	-0.178121	0.075922	0.022065	-0.855957	-0.197754	-0.714844	0.083168	0.000835	0.031962	0.796287	0.086272	-0.596364	0.053244	15.101612	-73.524282	-3.659920
63168		8.344126	0.140367	3.122188	-0.598898	-0.636862	-0.945449	-0.173851	0.067944	0.018036	-0.859131	-0.196533	-0.705811	0.083452	0.001438	0.031192	0.796552	0.085456	-0.596162	0.052853	14.912351	-73.492194	-3.569573
63169		8.403163	0.231449	3.236217	-0.702697	-0.563423	-0.850066	-0.127794	0.044727	0.013808	-0.855957	-0.200195	-0.716553	0.084039	0.002341	0.032342	0.796729	0.084843	-0.596037	0.052574	14.769307	-73.472151	-3.499638
63170		8.620992	0.294364	3.094894	-0.518856	-0.471906	-0.675149	-0.107666	-0.008652	0.001959	-0.846191	-0.197510	-0.709717	0.086209	0.002961	0.030951	0.796741	0.084358	-0.596116	0.052283	14.686313	-73.480040	-3.480566
63171		8.949101	0.236683	2.797550	-0.136857	-0.472687	-0.446442	-0.083154	-0.014806	-0.018075	-0.850342	-0.192139	-0.710693	0.089489	0.002370	0.027981	0.796730	0.084036	-0.596201	0.051986	14.658188	-73.488129	-3.503496
63172		9.177513	0.325923	2.778249	-0.068977	-0.384013	-0.226270	-0.096276	0.044070	-0.036681	-0.856445	-0.193359	-0.721191	0.091782	0.003256	0.027761	0.796904	0.083698	-0.596050	0.051597	14.628139	-73.461188	-3.532843
63173		9.473277	0.403085	3.008549	-0.210016	-0.356516	0.126408	-0.127139	0.073160	-0.039206	-0.850830	-0.194336	-0.715820	0.094745	0.004031	0.030048	0.797179	0.083239	-0.595788	0.051120	14.570923	-73.417517	-3.552054
63174		9.793808	0.618052	3.227766	-0.358000	-0.190114	0.509853	-0.138655	0.046079	-0.019131	-0.848389	-0.187988	-0.708008	0.097946	0.006194	0.032251	0.797372	0.082679	-0.595646	0.050676	14.483019	-73.392001	-3.546379
63175		10.196169	0.788605	3.240692	-0.282955	-0.025188	0.911358	-0.190773	0.017543	0.018020	-0.851563	-0.195313	-0.713379	0.101964	0.007926	0.032390	0.797491	0.081810	-0.595645	0.050215	14.310050	-73.387439	-3.482745
63176		10.371344	0.992486	3.294693	-0.319405	0.175292	1.108487	-0.245344	0.010346	0.077023	-0.858398	-0.187256	-0.717529	0.103711	0.010005	0.032929	0.797595	0.080547	-0.595711	0.049822	13.999270	-73.395237	-3.308280
63177		10.343763	0.870757	3.135361	-0.158848	0.107573	1.029143	-0.325432	-0.034548	0.138693	-0.850342	-0.185059	-0.720459	0.103426	0.008830	0.031357	0.797581	0.078796	-0.595998	0.049420	13.547815	-73.435934	-3.034404
63178		9.925725	0.536340	2.961791	-0.064041	-0.155760	0.558015	-0.356015	-0.052552	0.180903	-0.855957	-0.177490	-0.718506	0.099245	0.005506	0.029634	0.797511	0.076798	-0.596380	0.049086	13.005232	-73.491711	-2.684346
63179		9.261919	0.215966	2.841553	-0.095657	-0.411497	-0.131486	-0.390245	-0.088240	0.197907	-0.857666	-0.165771	-0.726074	0.092604	0.002307	0.028452	0.797340	0.074623	-0.596915	0.048706	12.422938	-73.568356	-2.313121
63180		8.694453	-0.159151	2.770513	-0.141563	-0.734042	-0.716773	-0.390511	-0.130655	0.194857	-0.860840	-0.176758	-0.721191	0.086928	-0.001453	0.027765	0.797039	0.072463	-0.597616	0.048294	11.858985	-73.667577	-1.961668
63181		8.144334	-0.250398	2.796914	-0.324170	-0.797911	-1.241002	-0.385744	-0.157875	0.186157	-0.861084	-0.169189	-0.721924	0.081423	-0.002374	0.028038	0.796654	0.070357	-0.598417	0.047854	11.319598	-73.779874	-1.632905
63182		7.715487	-0.363355	2.721808	-0.374952	-0.870312	-1.678137	-0.394246	-0.204481	0.166545	-0.858398	-0.164307	-0.717041	0.077130	-0.003516	0.027304	0.796131	0.068284	-0.599396	0.047291	10.825125	-73.915626	-1.356426
63183		7.484625	-0.308082	2.679501	-0.430790	-0.787125	-1.907687	-0.382240	-0.258051	0.153195	-0.865967	-0.160400	-0.719971	0.074814	-0.002972	0.026897	0.795443	0.066315	-0.600576	0.046697	10.377121	-74.079270	-1.120796
63184		7.271255	-0.426678	2.590495	-0.412580	-0.870912	-2.142285	-0.375940	-0.294991	0.133428	-0.869385	-0.154053	-0.716553	0.072677	-0.004169	0.026020	0.794641	0.064435	-0.601894	0.046026	9.978175	-74.261494	-0.933153
63185		7.234429	-0.534464	2.558244	-0.404140	-0.957534	-2.191208	-0.324448	-0.339406	0.107872	-0.864502	-0.147949	-0.707764	0.072304	-0.005264	0.025714	0.793690	0.062849	-0.603362	0.045398	9.669406	-74.465754	-0.808234
63186		7.397167	-0.446108	2.369493	-0.225524	-0.830611	-2.080241	-0.285606	-0.389414	0.088401	-0.869873	-0.143311	-0.704590	0.073927	-0.004394	0.023845	0.792575	0.061485	-0.605011	0.044791	9.434751	-74.696477	-0.737702
63187		7.612319	-0.353347	2.160628	-0.018576	-0.699628	-1.922781	-0.270991	-0.446267	0.076829	-0.878662	-0.144775	-0.703613	0.076076	-0.003475	0.021781	0.791281	0.060227	-0.606874	0.044166	9.247479	-74.958017	-0.707375
63188		8.006686	-0.244651	1.899771	0.276784	-0.548478	-1.603034	-0.241271	-0.504659	0.069798	-0.883789	-0.134766	-0.698486	0.080019	-0.002395	0.019203	0.789796	0.059119	-0.608956	0.043584	9.109216	-75.252098	-0.710476
63189		8.565523	-0.169075	1.686328	0.568436	-0.439686	-1.110742	-0.221584	-0.498657	0.067247	-0.885498	-0.141357	-0.694092	0.085613	-0.001643	0.017079	0.788319	0.058095	-0.611003	0.043055	8.982719	-75.542412	-0.713804
63190		8.984792	-0.142922	1.462897	0.838793	-0.379071	-0.755119	-0.226618	-0.476041	0.060827	-0.887451	-0.128906	-0.684814	0.089813	-0.001385	0.014844	0.786907	0.057066	-0.612956	0.042490	8.857721	-75.819498	-0.721923
63191		9.253408	-0.282480	1.258334	1.077080	-0.485433	-0.544847	-0.184224	-0.428787	0.064758	-0.887207	-0.137695	-0.691650	0.092508	-0.002783	0.012784	0.785622	0.056181	-0.614712	0.042085	8.728857	-76.070070	-0.700690
63192		9.352839	-0.467097	1.102543	1.236574	-0.643694	-0.487141	-0.123577	-0.380020	0.055021	-0.893555	-0.131592	-0.686523	0.093508	-0.004638	0.011206	0.784468	0.055553	-0.616257	0.041840	8.638140	-76.292274	-0.683295
63193		9.520161	-0.703425	1.012030	1.356977	-0.864441	-0.348877	-0.049105	-0.404307	0.040186	-0.897705	-0.125977	-0.676025	0.095182	-0.007013	0.010314	0.783219	0.055270	-0.617875	0.041763	8.632062	-76.526770	-0.708647
63194		9.669830	-0.960274	0.900922	1.495002	-1.105282	-0.232364	0.005961	-0.385388	0.015196	-0.899414	-0.134277	-0.673828	0.096681	-0.009596	0.009195	0.782014	0.055274	-0.619399	0.041759	8.711688	-76.748573	-0.790085
63195		9.553584	-1.126596	0.798055	1.552851	-1.260107	-0.369291	0.090831	-0.400165	-0.020220	-0.902588	-0.135010	-0.676270	0.095518	-0.011279	0.008167	0.780745	0.055723	-0.620950	0.041879	8.934691	-76.975567	-0.968382
63196		9.388011	-0.935304	0.653746	1.590180	-1.058698	-0.550546	0.177118	-0.466298	-0.050241	-0.907227	-0.134521	-0.676025	0.093862	-0.009383	0.006748	0.779248	0.056615	-0.622730	0.042127	9.316874	-77.237040	-1.259443
63197		9.169064	-0.596773	0.534795	1.567678	-0.718491	-0.771678	0.253506	-0.525005	-0.087464	-0.909424	-0.134766	-0.660889	0.091674	-0.006015	0.005581	0.777549	0.057933	-0.624707	0.042456	9.877118	-77.527508	-1.687331
63198		8.968944	-0.524263	0.408539	1.590673	-0.644038	-0.984410	0.263566	-0.563120	-0.126443	-0.914307	-0.137451	-0.659180	0.089674	-0.005305	0.004331	0.775729	0.059419	-0.626814	0.042649	10.587457	-77.834518	-2.262930
63199		9.076169	-0.581019	0.351759	1.629907	-0.713927	-0.886790	0.348394	-0.560880	-0.183417	-0.921387	-0.137939	-0.655518	0.090746	-0.005900	0.003762	0.773894	0.061411	-0.628870	0.042891	11.530100	-78.132283	-3.025323
63200		9.290320	-0.285952	0.369437	1.569668	-0.453291	-0.655246	0.434486	-0.525561	-0.224537	-0.923584	-0.139404	-0.651855	0.092890	-0.002972	0.003932	0.772143	0.063857	-0.630751	0.043251	12.657957	-78.402327	-3.926075
63201		9.541627	-0.158671	0.408461	1.521404	-0.366654	-0.390090	0.420032	-0.477359	-0.248705	-0.918945	-0.156250	-0.640625	0.095404	-0.001714	0.004309	0.770545	0.066311	-0.632433	0.043489	13.858049	-78.638656	-4.908076
63202		9.850605	-0.107764	0.562131	1.386121	-0.377750	-0.050629	0.438887	-0.439546	-0.254187	-0.914795	-0.159424	-0.632568	0.098492	-0.001215	0.005835	0.769053	0.068848	-0.633957	0.043775	15.103231	-78.848873	-5.924361
63203		10.189787	0.072183	0.654989	1.297954	-0.254249	0.312355	0.404037	-0.365548	-0.239916	-0.926758	-0.159668	-0.629395	0.101886	0.000586	0.006737	0.767796	0.071191	-0.635203	0.044037	16.268745	-79.016409	-6.878498
63204		10.333802	0.367101	0.959159	0.955250	-0.046679	0.527883	0.354561	-0.259824	-0.202640	-0.928223	-0.160400	-0.618652	0.103329	0.003549	0.009732	0.766879	0.073199	-0.636062	0.044316	17.238510	-79.128500	-7.662348
63205		10.462620	0.654269	1.524822	0.358346	0.111825	0.774028	0.296462	-0.288405	-0.150213	-0.930908	-0.168457	-0.620117	0.104609	0.006441	0.015409	0.765876	0.074823	-0.637061	0.044605	18.068023	-79.263271	-8.336642
63206		10.655074	1.039687	1.205200	0.609988	0.520194	0.930742	0.275161	-0.296510	-0.090047	-0.921631	-0.170654	-0.624268	0.106537	0.010332	0.012224	0.764839	0.076176	-0.638114	0.045048	18.738818	-79.411347	-8.861871
63207		10.791756	1.187503	1.255493	0.528187	0.638220	1.085110	0.219838	-0.306980	-0.043680	-0.929688	-0.167725	-0.614258	0.107901	0.011838	0.012734	0.763776	0.077173	-0.639235	0.045494	19.268211	-79.572935	-9.274799
63208		11.036291	1.031215	1.129415	0.685575	0.489410	1.297176	0.201348	-0.305139	-0.005115	-0.929199	-0.180420	-0.614990	0.110346	0.010298	0.011473	0.762715	0.077973	-0.640365	0.046023	19.685784	-79.740050	-9.585070
63209		11.262811	0.762284	0.863080	0.995873	0.259794	1.461955	0.197759	-0.267607	0.020898	-0.932861	-0.173828	-0.608154	0.112616	0.007626	0.008789	0.761766	0.078670	-0.641363	0.046659	19.992667	-79.891881	-9.784299
63210		11.146382	0.670298	0.388408	1.423157	0.255755	1.266624	0.223908	-0.215582	0.029800	-0.930908	-0.176514	-0.608887	0.111459	0.006715	0.004012	0.760971	0.079424	-0.642157	0.047429	20.237244	-80.017062	-9.905466
63211		10.823457	0.667466	0.179697	1.548067	0.300349	0.917563	0.246819	-0.163427	0.031439	-0.925537	-0.177734	-0.611328	0.108232	0.006689	0.001894	0.760331	0.080248	-0.642747	0.048303	20.434048	-80.114751	-9.964290
63212		10.641703	0.174103	0.106873	1.658364	-0.164828	0.699697	0.261172	-0.119791	0.024420	-0.929443	-0.176758	-0.602295	0.106416	0.001753	0.001135	0.759827	0.081138	-0.643163	0.049210	20.613338	-80.187296	-9.997450
63213		10.599628	-0.439369	-0.143535	1.994795	-0.718118	0.583026	0.346921	-0.052923	0.004989	-0.930176	-0.184326	-0.601807	0.105997	-0.004389	-0.001415	0.759504	0.082400	-0.643295	0.050350	20.824480	-80.220330	-10.012609
63214		10.625753	-0.823424	-0.398604	2.315742	-1.044883	0.545358	0.420516	0.007029	0.000998	-0.926758	-0.178955	-0.604980	0.106257	-0.008225	-0.004007	0.759344	0.083938	-0.643176	0.051732	21.020417	-80.220170	-9.970011
63215		10.665152	-1.027274	-0.136657	2.115371	-1.291024	0.612180	0.444333	0.104176	0.029264	-0.932861	-0.192383	-0.606201	0.106652	-0.010254	-0.001445	0.759473	0.085451	-0.642692	0.053343	21.026314	-80.174255	-9.720191
63216		10.671196	-1.209458	0.608580	1.451026	-1.608118	0.723726	0.407654	0.226247	0.063499	-0.929932	-0.186768	-0.607910	0.106723	-0.012073	0.005940	0.759999	0.086681	-0.641764	0.055014	20.765916	-80.069523	-9.221857
63217		10.822933	-1.051989	1.198780	0.900552	-1.564269	0.977199	0.474939	0.180953	0.142188	-0.922852	-0.187744	-0.600098	0.108248	-0.010471	0.011865	0.760322	0.087928	-0.641022	0.057185	20.362574	-80.004854	-8.538455
63218		11.177004	-0.505086	1.112376	0.948632	-1.001521	1.345938	0.503825	0.057673	0.230400	-0.932617	-0.184082	-0.595459	0.111779	-0.004950	0.011079	0.760208	0.089034	-0.640772	0.059724	19.849520	-80.022526	-7.727465
63219		11.417532	0.216689	0.672844	1.263070	-0.181039	1.555316	0.514277	-0.006136	0.316227	-0.932617	-0.192139	-0.594727	0.114172	0.002330	0.006738	0.759851	0.089924	-0.640798	0.062598	19.141783	-80.090173	-6.712374
63220		11.346572	0.635795	0.533922	1.282532	0.294598	1.487852	0.435973	-0.062122	0.366628	-0.921143	-0.183350	-0.594482	0.113452	0.006554	0.005389	0.759329	0.090372	-0.641075	0.065383	18.278229	-80.194466	-5.585410
63221		11.083971	0.463736	0.506218	1.282112	0.174299	1.216882	0.353734	-0.087320	0.366249	-0.933350	-0.186035	-0.597168	0.110829	0.004831	0.005119	0.758755	0.090517	-0.641473	0.067896	17.371233	-80.310063	-4.461956
63222		10.549283	0.304193	0.734345	0.984771	0.006627	0.720557	0.384990	-0.172588	0.325949	-0.930908	-0.184570	-0.591797	0.105481	0.003200	0.007441	0.757906	0.090936	-0.642157	0.070312	16.673072	-80.462324	-3.533191
63223		10.205003	0.243424	0.787833	0.861705	-0.038115	0.389172	0.409672	-0.232091	0.265272	-0.933838	-0.180176	-0.593750	0.102037	0.002553	0.008002	0.756866	0.091666	-0.643029	0.072555	16.220660	-80.636490	-2.839122
63224		10.191373	0.639128	0.774275	0.751708	0.363981	0.393901	0.460917	-0.246542	0.184432	-0.941162	-0.184082	-0.593750	0.101898	0.006467	0.007883	0.755784	0.092853	-0.643893	0.074644	16.067032	-80.804509	-2.418931
63225		10.201653	1.340864	1.064452	0.283634	0.984005	0.480802	0.375920	-0.172401	0.126969	-0.938721	-0.188965	-0.583740	0.101999	0.013453	0.010758	0.754993	0.093875	-0.644480	0.076281	15.977785	-80.923051	-2.113136
63226		10.047138	1.349183	1.400254	-0.088498	0.915971	0.379423	0.208851	-0.180944	0.098702	-0.935303	-0.193604	-0.576660	0.100452	0.013527	0.014108	0.754264	0.094360	-0.645145	0.077264	15.896255	-81.041196	-1.912483
63227		10.206170	1.541866	1.563883	-0.296173	1.063487	0.568553	0.221640	-0.305592	0.098892	-0.942139	-0.183838	-0.574219	0.102030	0.015452	0.015812	0.753121	0.094945	-0.646276	0.078237	15.942576	-81.228697	-1.833042
63228		10.524646	2.081045	1.626114	-0.476495	1.568947	0.913653	0.199717	-0.347656	0.113077	-0.944580	-0.191895	-0.573975	0.105206	0.020854	0.016465	0.751848	0.095414	-0.647575	0.079165	15.968191	-81.440955	-1.746258
63229		10.650981	2.220370	1.470438	-0.383018	1.744716	1.019891	0.059861	-0.314147	0.141670	-0.938965	-0.191650	-0.573242	0.106471	0.022275	0.014878	0.750732	0.095253	-0.648818	0.079769	15.767208	-81.639872	-1.510830
63230		10.845267	2.031967	1.407735	-0.287012	1.584517	1.193549	0.025151	-0.307132	0.156712	-0.945801	-0.192139	-0.566650	0.108415	0.020403	0.014246	0.749651	0.094908	-0.650050	0.080315	15.471105	-81.836421	-1.200113
63231		10.963370	1.796762	1.474451	-0.315142	1.349538	1.308335	0.004654	-0.305453	0.166905	-0.950684	-0.187500	-0.558105	0.109596	0.018059	0.014912	0.748575	0.094457	-0.651290	0.080838	15.106161	-82.033853	-0.830985
63232		10.744697	1.117969	1.344723	-0.090273	0.735824	1.048112	-0.012077	-0.253485	0.173512	-0.944580	-0.181885	-0.554199	0.107420	0.011274	0.013583	0.747675	0.093895	-0.652340	0.081351	14.630949	-82.202562	-0.361277
63233		10.477888	0.477577	1.658162	-0.300350	0.050835	0.801965	0.058995	-0.206949	0.176405	-0.937988	-0.185059	-0.550049	0.104757	0.004863	0.016691	0.746886	0.093574	-0.653192	0.082133	14.115525	-82.345978	0.190689
63234		10.207725	0.002696	2.234973	-0.795982	-0.540106	0.592476	0.162430	-0.135530	0.170607	-0.951172	-0.179688	-0.560791	0.102062	0.000096	0.022419	0.746287	0.093626	-0.653726	0.083258	13.591605	-82.447504	0.810099
63235		9.883579	-0.410313	2.757828	-1.248870	-1.060818	0.325068	0.285016	-0.012658	0.160184	-0.955811	-0.177979	-0.557373	0.098837	-0.004063	0.027579	0.746032	0.094121	-0.653747	0.084809	13.046298	-82.478910	1.522560
63236		9.527364	-0.661775	3.274978	-1.725026	-1.427157	0.032189	0.375556	0.096794	0.168615	-0.955322	-0.174072	-0.552490	0.095295	-0.006599	0.032691	0.746089	0.094875	-0.653320	0.086732	12.410731	-82.448713	2.377670
63237		8.747434	-1.137965	3.763666	-2.161830	-2.008774	-0.687501	0.407279	0.144099	0.198915	-0.949707	-0.181885	-0.560791	0.087513	-0.011369	0.037550	0.746265	0.095629	-0.652717	0.088899	11.629290	-82.394775	3.398742
63238		8.193011	-1.541059	3.506116	-1.864372	-2.326327	-1.274222	0.440983	0.226848	0.235924	-0.951660	-0.176514	-0.559082	0.081988	-0.015391	0.034934	0.746678	0.096350	-0.651801	0.091348	10.662292	-82.295832	4.626322
63239		7.481866	-1.682390	3.586744	-1.974078	-2.479084	-1.962175	0.478408	0.262215	0.299369	-0.947998	-0.178223	-0.562744	0.074891	-0.016797	0.035729	0.747149	0.096988	-0.650763	0.094177	9.457188	-82.180554	6.116672
63240		6.883343	-1.478814	3.583959	-2.084621	-2.278155	-2.541072	0.541336	0.162761	0.368268	-0.946777	-0.182861	-0.548096	0.068890	-0.014758	0.035744	0.747229	0.097681	-0.650091	0.097415	8.105666	-82.122814	7.791019
63241		6.801557	-0.918162	3.380293	-2.045653	-1.672775	-2.633015	0.565578	-0.028353	0.439739	-0.957764	-0.171387	-0.557617	0.068031	-0.009128	0.033787	0.746629	0.098327	-0.650150	0.100910	6.584514	-82.173551	9.651357
63242		7.314294	-0.311661	3.016481	-1.807070	-0.963409	-2.164061	0.598027	-0.149904	0.500510	-0.952881	-0.178711	-0.551270	0.073128	-0.003024	0.030210	0.745579	0.098954	-0.650665	0.104670	4.851360	-82.289502	11.743329
63243		8.036780	0.309897	2.687019	-1.596547	-0.235278	-1.487933	0.578638	-0.190871	0.536852	-0.958496	-0.180176	-0.549805	0.080334	0.003237	0.026956	0.744372	0.099411	-0.651351	0.108486	2.900160	-82.421389	14.044035
63244		9.041127	0.645871	2.477048	-1.396760	0.203516	-0.522780	0.538412	-0.226769	0.530758	-0.959717	-0.169189	-0.547363	0.090366	0.006632	0.024891	0.743061	0.099756	-0.652179	0.112123	0.885698	-82.562818	16.384019
63245		10.172342	1.031056	2.360217	-1.299214	0.672905	0.578140	0.540254	-0.270089	0.476353	-0.954590	-0.169922	-0.547119	0.101667	0.010489	0.023768	0.741626	0.100309	-0.653129	0.115547	-0.972327	-82.718833	18.567278
63246		11.371011	1.176841	2.206687	-1.101769	0.928421	1.740590	0.457795	-0.319663	0.378870	-0.961670	-0.170898	-0.541992	0.113652	0.011933	0.022276	0.740118	0.100901	-0.654253	0.118308	-2.525670	-82.896405	20.394269
63247		12.164493	1.013206	1.799258	-0.624220	0.946370	2.473620	0.363907	-0.304872	0.253438	-0.964355	-0.170898	-0.544922	0.121604	0.010253	0.018197	0.738773	0.101547	-0.655308	0.120309	-3.626827	-83.063996	21.711413
63248		12.208608	0.712104	1.647136	-0.420459	0.716279	2.499110	0.276849	-0.198220	0.124674	-0.963135	-0.168213	-0.534424	0.122065	0.007174	0.016602	0.737895	0.102227	-0.655953	0.121597	-4.177212	-83.173320	22.422523
63249		11.553324	0.549008	1.540843	-0.361012	0.565855	1.836534	0.224196	-0.076632	0.039772	-0.965332	-0.167480	-0.534912	0.115526	0.005496	0.015459	0.737493	0.102919	-0.656136	0.122467	-4.323962	-83.216214	22.697252
63250		10.803396	0.789965	1.581929	-0.559321	0.745426	1.094714	0.211775	0.069683	-0.029320	-0.964844	-0.176758	-0.533691	0.108041	0.007867	0.015790	0.737618	0.103700	-0.655751	0.123110	-4.092684	-83.178471	22.583491
63251		10.365007	0.966059	1.920658	-0.969958	0.780953	0.699441	0.143620	0.153555	-0.101708	-0.962158	-0.173828	-0.544922	0.103670	0.009594	0.019134	0.738097	0.104418	-0.655060	0.123312	-3.535304	-83.095480	22.102637
63252		10.166201	1.055439	1.964976	-1.044890	0.831731	0.509284	0.114039	0.121074	-0.184721	-0.959717	-0.174316	-0.544189	0.101684	0.010449	0.019594	0.738536	0.105316	-0.654463	0.123088	-2.624458	-83.032859	21.247855
63253		10.218025	1.155767	1.784967	-0.886648	0.966415	0.541528	0.088104	0.053085	-0.262428	-0.968994	-0.177246	-0.535889	0.102200	0.011416	0.017828	0.738813	0.106416	-0.654090	0.122461	-1.393068	-83.008628	20.055582
63254		10.176956	1.328127	1.622842	-0.779217	1.151840	0.484591	0.057025	0.059820	-0.342977	-0.965820	-0.181396	-0.541016	0.101797	0.013102	0.016202	0.739176	0.107658	-0.653668	0.121434	0.188362	-82.977649	18.492130
63255		9.994830	1.419398	1.570762	-0.763840	1.213686	0.302745	0.009430	0.037253	-0.418221	-0.956299	-0.194092	-0.539551	0.099981	0.013984	0.015690	0.739533	0.108986	-0.653316	0.119965	2.077564	-82.953061	16.591578
63256		9.775148	1.559845	1.533238	-0.782649	1.310992	0.087112	-0.021036	0.007424	-0.481507	-0.964600	-0.187256	-0.539063	0.097789	0.015365	0.015327	0.739845	0.110423	-0.653054	0.118141	4.237399	-82.935245	14.400078
63257		9.397760	1.483869	1.376395	-0.638598	1.233984	-0.300406	-0.113469	0.009730	-0.532597	-0.954346	-0.193604	-0.535400	0.094017	0.014596	0.013751	0.740240	0.111687	-0.652805	0.115831	6.562262	-82.902835	11.989531
63258		8.921955	1.302500	1.207520	-0.459944	1.060080	-0.789364	-0.178302	0.040458	-0.561081	-0.958496	-0.195801	-0.534668	0.089258	0.012785	0.012046	0.740782	0.112781	-0.652460	0.113216	8.931920	-82.838625	9.495417
63259		8.522436	1.137395	1.254834	-0.482765	0.837971	-1.177599	-0.188769	-0.003778	-0.569291	-0.954590	-0.203369	-0.531494	0.085256	0.011143	0.012539	0.741184	0.113890	-0.652274	0.110514	11.323019	-82.785847	6.973884
63260		8.349296	1.075911	1.300133	-0.513103	0.721993	-1.340735	-0.250448	-0.038497	-0.544485	-0.956787	-0.205078	-0.541992	0.083519	0.010548	0.013004	0.741488	0.114706	-0.652260	0.107678	13.568581	-82.742729	4.562608
63261		8.233111	1.018342	1.197656	-0.401779	0.660567	-1.466573	-0.290428	-0.054376	-0.500176	-0.954834	-0.211914	-0.543213	0.082353	0.009995	0.011984	0.741733	0.115239	-0.652346	0.104871	15.588336	-82.703611	2.356256
63262		8.217376	0.835308	0.956504	-0.110489	0.527113	-1.515233	-0.350256	-0.048490	-0.449832	-0.956787	-0.219971	-0.543213	0.082190	0.008185	0.009571	0.741999	0.115379	-0.652465	0.102053	17.327773	-82.660208	0.397162
63263		8.314414	0.820326	0.811598	0.053364	0.527450	-1.435338	-0.348471	-0.012503	-0.400915	-0.950439	-0.210938	-0.537598	0.083160	0.008051	0.008107	0.742352	0.115351	-0.652471	0.099447	18.789120	-82.598821	-1.279944
63264		8.583046	0.845034	0.703594	0.197103	0.558265	-1.179772	-0.365318	0.087228	-0.338759	-0.947266	-0.222656	-0.543457	0.085848	0.008318	0.006983	0.743003	0.115003	-0.652149	0.097069	19.809541	-82.490744	-2.523205
63265		8.580912	0.860084	0.909216	0.017514	0.493951	-1.155083	-0.372787	0.155731	-0.277430	-0.948486	-0.212646	-0.544189	0.085828	0.008499	0.009009	0.743848	0.114398	-0.651606	0.094938	20.444431	-82.355543	-3.381505
63266		8.677124	0.874188	0.881659	0.073345	0.503547	-1.061972	-0.404006	0.153580	-0.215548	-0.951904	-0.209961	-0.547119	0.086787	0.008666	0.008732	0.744670	0.113471	-0.651118	0.092929	20.796135	-82.233061	-3.973050
63267		8.923026	0.659976	0.376261	0.672799	0.437489	-0.893416	-0.433038	0.293900	-0.150136	-0.945313	-0.215332	-0.552246	0.089241	0.006541	0.003617	0.745930	0.112158	-0.650154	0.091151	20.656920	-82.048551	-4.085708
63268		8.679821	0.422181	0.499007	0.620999	0.177881	-1.132298	-0.329260	0.350279	-0.090827	-0.940918	-0.216797	-0.555420	0.086809	0.004190	0.004831	0.747283	0.111012	-0.648962	0.089959	20.276451	-81.845685	-3.895032
63269		8.597491	0.611300	0.849676	0.249347	0.265311	-1.159371	-0.245688	0.219990	-0.045414	-0.940430	-0.215332	-0.552979	0.085986	0.006104	0.008395	0.748144	0.110093	-0.648240	0.089140	19.965139	-81.721630	-3.725100
63270		8.804793	0.644413	0.740509	0.388144	0.331022	-0.968041	-0.329885	0.094329	-0.005374	-0.945557	-0.214111	-0.554199	0.088052	0.006454	0.007353	0.748623	0.108781	-0.648047	0.088124	19.630998	-81.673030	-3.581483
63271		8.916872	0.276909	0.121338	1.101985	0.154364	-0.960354	-0.365197	0.095052	0.025220	-0.940674	-0.205566	-0.565186	0.089169	0.002782	0.001166	0.749107	0.107242	-0.647881	0.087113	19.166992	-81.629819	-3.326231
63272		8.854073	0.026300	-0.057464	1.338390	-0.030939	-1.060183	-0.262010	0.106154	0.037778	-0.941162	-0.204346	-0.558838	0.088540	0.000279	-0.000622	0.749565	0.106038	-0.647634	0.086484	18.704887	-81.582527	-3.013922
63273		8.779659	0.155247	0.433118	0.829925	-0.032743	-1.060301	-0.160459	0.025445	0.049280	-0.937256	-0.210449	-0.557129	0.087797	0.001578	0.004319	0.749701	0.105215	-0.647650	0.086188	18.360886	-81.580896	-2.761740
63274		8.982989	0.446548	0.644196	0.580625	0.196305	-0.816420	-0.181485	-0.002993	0.059122	-0.947998	-0.200439	-0.563477	0.089828	0.004498	0.006439	0.749752	0.104291	-0.647786	0.085842	18.003204	-81.596238	-2.508335
63275		9.258242	0.495533	0.484030	0.762565	0.294299	-0.564620	-0.210938	0.085133	0.087626	-0.945313	-0.204102	-0.568115	0.092582	0.005001	0.004796	0.750089	0.103130	-0.647620	0.085558	17.419516	-81.568275	-2.042836
63276		9.485731	0.624154	0.664419	0.601955	0.384071	-0.310046	-0.143608	0.225110	0.107794	-0.938721	-0.186768	-0.569092	0.094861	0.006297	0.006533	0.750835	0.102093	-0.646908	0.085635	16.648184	-81.466079	-1.349217
63277		9.951906	0.875841	1.111303	0.203871	0.528339	0.223332	-0.123035	0.360223	0.131991	-0.933105	-0.192871	-0.570313	0.099533	0.008831	0.010928	0.751996	0.100997	-0.645691	0.085940	15.679563	-81.291912	-0.443613
63278		10.481478	0.907037	1.495926	-0.050179	0.485771	0.802542	-0.195715	0.525194	0.144543	-0.942627	-0.189209	-0.581299	0.104847	0.009161	0.014675	0.753716	0.099515	-0.643886	0.086139	14.510629	-81.025784	0.622833
63279		10.693477	0.709883	1.586365	0.004028	0.307516	1.016713	-0.236279	0.639898	0.137318	-0.934082	-0.190674	-0.582031	0.106980	0.007191	0.015513	0.755820	0.097854	-0.641657	0.086238	13.314395	-80.691614	1.694553
63280		10.648890	0.776805	1.915169	-0.269957	0.323586	1.026691	-0.268872	0.645451	0.114228	-0.927002	-0.187012	-0.588623	0.106545	0.007854	0.018797	0.757959	0.096139	-0.639402	0.086145	12.251005	-80.348052	2.613415
63281		10.467686	1.197042	2.062311	-0.484762	0.724830	0.887674	-0.321778	0.589304	0.075374	-0.929688	-0.187744	-0.587891	0.104732	0.012043	0.020295	0.759950	0.094374	-0.637356	0.085710	11.386387	-80.029032	3.301202
63282		10.082971	1.739975	1.672383	-0.260516	1.374191	0.460294	-0.389038	0.482728	0.055082	-0.924072	-0.173340	-0.599609	0.100865	0.017460	0.016446	0.761636	0.092460	-0.635727	0.084930	10.657431	-79.766025	3.812156
63283		9.644414	1.866703	1.324755	0.008144	1.602036	-0.030689	-0.450944	0.393965	0.026428	-0.922607	-0.174072	-0.605713	0.096467	0.018709	0.013015	0.763071	0.090440	-0.634445	0.083804	10.060405	-79.549285	4.153722
63284		9.637853	1.819364	1.054394	0.312653	1.638442	-0.090152	-0.427774	0.257542	-0.015929	-0.918213	-0.172607	-0.604492	0.096393	0.018208	0.010381	0.764076	0.088697	-0.633648	0.082526	9.693114	-79.404673	4.274935
63285		9.827467	1.862052	0.573179	0.824024	1.805915	0.007418	-0.484473	0.169784	-0.062001	-0.919189	-0.169189	-0.609619	0.098285	0.018604	0.005603	0.764842	0.086921	-0.633186	0.080854	9.481953	-79.305259	4.204549
63286		9.979974	1.736982	0.181697	1.282424	1.779416	0.078672	-0.528985	0.189874	-0.111350	-0.915527	-0.169189	-0.615234	0.099811	0.017319	0.001676	0.765706	0.085121	-0.632638	0.078859	9.382650	-79.189767	3.994050
63287		10.055314	1.776617	0.450403	1.062583	1.753141	0.200598	-0.471323	0.238143	-0.165008	-0.908936	-0.168701	-0.617432	0.100573	0.017694	0.004343	0.766712	0.083693	-0.631855	0.076861	9.448935	-79.042083	3.648773
63288		10.428102	1.467812	0.631621	1.068083	1.408113	0.588033	-0.462774	0.318749	-0.225781	-0.912354	-0.160889	-0.616211	0.104307	0.014575	0.006116	0.767987	0.082456	-0.630729	0.074690	9.648696	-78.842816	3.171991
63289		10.595942	0.873614	0.970628	0.957898	0.744408	0.794257	-0.409994	0.492162	-0.284655	-0.909668	-0.173828	-0.624512	0.105995	0.008605	0.009428	0.769799	0.081545	-0.628887	0.072531	9.946312	-78.539654	2.626085
63290		10.729039	0.235547	1.311785	0.850304	0.032620	0.965263	-0.405159	0.416625	-0.346803	-0.910645	-0.166504	-0.633545	0.107321	0.002196	0.012890	0.771387	0.080871	-0.627300	0.070115	10.430296	-78.271915	1.891965
63291		11.134818	-0.401054	0.798421	1.597011	-0.504642	1.231642	-0.412852	0.207514	-0.394783	-0.914551	-0.167969	-0.631104	0.111348	-0.004214	0.007877	0.772330	0.080395	-0.626498	0.067406	11.121320	-78.115407	0.941802
63292		11.598020	-0.512766	0.320235	2.196990	-0.551605	1.578024	-0.342343	0.113165	-0.428115	-0.899170	-0.164307	-0.635742	0.115971	-0.005370	0.003146	0.772955	0.080323	-0.626017	0.064750	11.970156	-78.005276	-0.129374
63293		11.925220	-0.203504	0.677754	1.885268	-0.365775	1.978130	-0.284347	0.181787	-0.427875	-0.902100	-0.168701	-0.633789	0.119254	-0.002281	0.006672	0.773763	0.080453	-0.625249	0.062303	12.793661	-77.853839	-1.140986
63294		12.090595	0.824972	1.667343	0.808253	0.403162	2.386780	-0.239505	0.311116	-0.380046	-0.896240	-0.167725	-0.641357	0.120947	0.008040	0.016476	0.774940	0.080564	-0.623979	0.060233	13.417484	-77.633498	-1.922874
63295		11.869796	1.643046	2.632629	-0.263927	0.995086	2.412784	-0.402173	0.488093	-0.245937	-0.897217	-0.171387	-0.646973	0.118782	0.016337	0.026004	0.776684	0.079574	-0.622123	0.058246	13.483551	-77.331710	-2.229549
63296		11.466413	0.878880	3.362526	-0.837254	0.114534	2.139010	-0.587031	0.561503	-0.114684	-0.891602	-0.163818	-0.648926	0.114763	0.008821	0.033277	0.778683	0.077433	-0.620077	0.056222	13.075621	-77.006170	-2.159229
63297		11.309990	0.460496	4.383091	-1.709357	-0.467685	2.195580	-0.430361	0.482774	-0.076342	-0.891113	-0.155029	-0.653809	0.113207	0.004656	0.043548	0.780354	0.075807	-0.618302	0.054801	12.720548	-76.729687	-2.050770
63298		11.595868	0.376420	5.277686	-2.433502	-0.699132	2.679266	-0.444466	0.371864	-0.126647	-0.889648	-0.154053	-0.653809	0.116059	0.003808	0.052553	0.781696	0.074309	-0.616937	0.053099	12.540718	-76.508518	-2.130793
63299		11.958322	0.016968	4.788150	-1.777492	-0.954352	2.909645	-0.496120	0.285652	-0.205130	-0.892090	-0.152100	-0.662354	0.119652	0.000165	0.047710	0.782802	0.072872	-0.615890	0.050895	12.557400	-76.326196	-2.443817
63300		11.660551	0.039023	4.370350	-1.417653	-0.852922	2.529622	-0.549957	0.260203	-0.272581	-0.872070	-0.154297	-0.675781	0.116663	0.000351	0.043551	0.783861	0.071439	-0.614923	0.048254	12.705123	-76.149170	-2.923430
63301		10.926795	0.074862	4.517159	-1.706925	-0.832837	1.857697	-0.680145	0.275243	-0.312889	-0.883057	-0.152344	-0.670898	0.109331	0.000731	0.045019	0.785012	0.069614	-0.613906	0.045058	12.853076	-75.958393	-3.480709
63302		9.847364	0.368402	4.774921	-2.230188	-0.562109	0.893216	-0.778207	0.262411	-0.306665	-0.874268	-0.145508	-0.675537	0.098542	0.003718	0.047606	0.786142	0.067388	-0.612952	0.041582	12.928600	-75.775261	-4.021501
63303		8.810223	0.657184	4.476219	-2.215084	-0.196314	-0.161612	-0.865961	0.200072	-0.271796	-0.882324	-0.148682	-0.678223	0.088156	0.006646	0.044645	0.787087	0.064722	-0.612262	0.037951	12.902365	-75.631430	-4.509656
63304		7.771820	0.711048	4.521317	-2.502662	-0.107313	-1.148152	-0.900612	0.166760	-0.244715	-0.882324	-0.141602	-0.675781	0.077765	0.007219	0.045116	0.787919	0.061841	-0.611704	0.034309	12.809865	-75.509708	-4.950082
63305		7.145765	-0.141653	4.061670	-2.095956	-0.850119	-1.909307	-0.947079	0.111028	-0.246721	-0.873779	-0.139404	-0.675049	0.071479	-0.001312	0.040583	0.788577	0.058793	-0.611359	0.030500	12.720331	-75.419158	-5.421143
63306		6.570695	-0.408138	3.826669	-1.979224	-1.052459	-2.535394	-0.767770	0.092374	-0.270449	-0.876953	-0.130615	-0.682861	0.065719	-0.004023	0.038252	0.789112	0.056525	-0.611040	0.027139	12.790075	-75.335942	-5.950967
63307		6.272483	-0.672365	3.434946	-1.647031	-1.249122	-2.933592	-0.736605	0.096840	-0.310393	-0.869141	-0.139404	-0.674072	0.062731	-0.006695	0.034344	0.789645	0.054501	-0.610678	0.023717	12.956935	-75.244850	-6.562877
63308		6.147813	-1.204459	2.963026	-1.168434	-1.718407	-3.201509	-0.576349	0.131256	-0.366503	-0.873291	-0.130371	-0.694336	0.061475	-0.012072	0.029625	0.790235	0.053275	-0.610137	0.020571	13.310834	-75.126550	-7.273645
63309		6.024077	-1.197669	2.859971	-1.096862	-1.705433	-3.348036	-0.365216	0.187152	-0.425805	-0.867432	-0.138184	-0.687500	0.060242	-0.012053	0.028565	0.790938	0.053061	-0.609330	0.017851	13.871327	-74.967550	-8.073189
63310		6.590095	-1.150354	2.555045	-0.651209	-1.665057	-2.878398	-0.197171	0.233135	-0.458301	-0.872559	-0.136719	-0.689209	0.065904	-0.011629	0.025485	0.791732	0.053603	-0.608314	0.015525	14.554792	-74.776345	-8.901342
63311		7.418543	-0.575046	2.934406	-0.830136	-1.192510	-1.947267	-0.028690	0.361253	-0.454380	-0.872559	-0.139160	-0.696289	0.074225	-0.005915	0.029211	0.792865	0.054792	-0.606774	0.013764	15.237469	-74.512087	-9.629145
63312		8.185608	-0.187034	3.354984	-1.032836	-0.914669	-1.072464	-0.005193	0.393892	-0.421451	-0.862061	-0.133301	-0.699707	0.081918	-0.002042	0.033389	0.794081	0.055969	-0.605107	0.012211	15.827286	-74.232869	-10.247825
63313		9.001853	0.167285	3.637363	-1.081768	-0.661892	-0.185474	0.061943	0.307563	-0.355382	-0.858643	-0.156494	-0.695068	0.090077	0.001502	0.036236	0.795008	0.057217	-0.603792	0.011100	16.355704	-74.009916	-10.763552
63314		9.763959	0.797995	3.752973	-1.014484	-0.114608	0.628294	0.064462	0.180509	-0.259729	-0.857910	-0.143311	-0.705566	0.097684	0.007841	0.037444	0.795542	0.058194	-0.603008	0.010339	16.763601	-73.871355	-11.152722
63315		10.108803	1.093557	3.550454	-0.733787	0.162721	0.930893	-0.019250	0.130329	-0.156904	-0.854004	-0.151123	-0.700684	0.101120	0.010860	0.035438	0.795944	0.058533	-0.602455	0.009723	16.952422	-73.776624	-11.363633
63316		10.221800	1.239605	3.667389	-0.815886	0.282859	1.083453	-0.064822	0.062626	-0.041798	-0.855713	-0.143799	-0.703857	0.102232	0.012387	0.036638	0.796148	0.058344	-0.602209	0.009406	16.936166	-73.738345	-11.388532
63317		9.926447	1.077723	3.540137	-0.756262	0.157954	0.752894	-0.139089	0.023263	0.060248	-0.853027	-0.147705	-0.703125	0.099265	0.010832	0.035382	0.796251	0.057555	-0.602151	0.009261	16.707661	-73.738367	-11.236585
63318		9.561049	0.749628	3.491434	-0.783896	-0.125701	0.362546	-0.186948	-0.043561	0.152740	-0.861572	-0.148926	-0.707764	0.095597	0.007602	0.034928	0.796160	0.056300	-0.602389	0.009320	16.314835	-73.790152	-10.942149
63319		9.178777	0.310498	3.249127	-0.629107	-0.492349	-0.103675	-0.205311	-0.106430	0.226789	-0.857666	-0.141357	-0.712646	0.091767	0.003242	0.032537	0.795881	0.054753	-0.602896	0.009602	15.802165	-73.887363	-10.533742
63320		8.845656	0.165662	3.091703	-0.570733	-0.574790	-0.475905	-0.208300	-0.127116	0.269277	-0.860352	-0.134766	-0.707764	0.088435	0.001808	0.030971	0.795535	0.053065	-0.603496	0.010037	15.211554	-74.001680	-10.046493
63321		8.550972	-0.327950	2.979735	-0.517994	-1.009297	-0.822782	-0.210790	-0.120501	0.302746	-0.853271	-0.130859	-0.703857	0.085497	-0.003119	0.029852	0.795206	0.051266	-0.604075	0.010600	14.542700	-74.115411	-9.479583
63322		8.214876	-0.665869	2.865465	-0.488148	-1.289692	-1.196610	-0.143954	-0.166752	0.287243	-0.862305	-0.126221	-0.703613	0.082134	-0.006520	0.028728	0.794717	0.049781	-0.604830	0.011291	13.957280	-74.251290	-8.959991
63323		7.944749	-0.880492	2.625083	-0.332111	-1.444041	-1.530796	-0.144371	-0.219322	0.256767	-0.869629	-0.127197	-0.698486	0.079430	-0.008684	0.026344	0.794070	0.048390	-0.605782	0.011847	13.447211	-74.410618	-8.519254
63324		7.752118	-1.202276	2.334040	-0.101906	-1.709130	-1.809128	-0.104242	-0.285355	0.219047	-0.862305	-0.122314	-0.703613	0.077501	-0.011926	0.023457	0.793210	0.047276	-0.606985	0.012358	13.058538	-74.601199	-8.181035
63325		7.723894	-1.089914	2.044776	0.132150	-1.554425	-1.901065	-0.040538	-0.371617	0.180666	-0.871826	-0.122559	-0.697998	0.077211	-0.010825	0.020593	0.792074	0.046537	-0.608512	0.012892	12.815971	-74.834243	-7.956606
63326		7.936457	-1.081176	1.604798	0.578453	-1.501284	-1.803748	-0.022298	-0.389026	0.174035	-0.866455	-0.118896	-0.689209	0.079343	-0.010741	0.016204	0.790876	0.045891	-0.610105	0.013449	12.599511	-75.076226	-7.748820
63327		8.085481	-0.853425	1.485487	0.681393	-1.257118	-1.672340	0.037948	-0.391073	0.172296	-0.869629	-0.115967	-0.697510	0.080833	-0.008467	0.015011	0.789656	0.045488	-0.611697	0.014185	12.414645	-75.318682	-7.538025
63328		8.510081	-0.439343	1.233897	0.962466	-0.823638	-1.296108	0.069148	-0.450144	0.206620	-0.873779	-0.114746	-0.686279	0.085077	-0.004310	0.012529	0.788240	0.045108	-0.613526	0.015135	12.195204	-75.598473	-7.273512
63329		8.856131	-0.276333	0.877766	1.342146	-0.623416	-1.032724	0.020670	-0.369683	0.243289	-0.884521	-0.113281	-0.682861	0.088548	-0.002657	0.008941	0.787077	0.044416	-0.615043	0.016102	11.817643	-75.836827	-6.874738
63330		8.989974	-0.179738	0.931003	1.281230	-0.515396	-0.878966	0.012742	-0.361349	0.264793	-0.877441	-0.116455	-0.682373	0.089885	-0.001679	0.009472	0.785933	0.043627	-0.616533	0.017128	11.371210	-76.072635	-6.410135
63331		9.139238	-0.213987	0.704898	1.502470	-0.510949	-0.782200	-0.000045	-0.395375	0.273863	-0.893555	-0.105469	-0.673584	0.091381	-0.002015	0.007230	0.784683	0.042764	-0.618155	0.018147	10.894908	-76.327437	-5.922527
63332		9.073255	-0.379795	0.529603	1.633153	-0.636623	-0.886543	-0.016711	-0.384399	0.260304	-0.891357	-0.100830	-0.666748	0.090727	-0.003679	0.005471	0.783466	0.041875	-0.619730	0.019060	10.419112	-76.573872	-5.446066
63333		8.683244	-0.413643	0.526538	1.510684	-0.642326	-1.259784	0.029993	-0.447734	0.222990	-0.890869	-0.094482	-0.663086	0.086825	-0.004040	0.005459	0.782041	0.041288	-0.621537	0.019960	10.067799	-76.851445	-5.070600
63334		8.330373	-0.053545	0.377289	1.502896	-0.248994	-1.613941	0.125940	-0.546544	0.187877	-0.906982	-0.102783	-0.661865	0.083293	-0.000460	0.004000	0.780288	0.041197	-0.623709	0.020998	9.887232	-77.180844	-4.814344
63335		8.180250	0.179024	0.412448	1.365998	-0.007418	-1.734792	0.127883	-0.649105	0.161411	-0.889160	-0.100586	-0.660156	0.081787	0.001853	0.004391	0.778208	0.041204	-0.626269	0.021919	9.806872	-77.565452	-4.660075
63336		8.084383	0.099121	0.159552	1.543471	-0.055400	-1.875000	0.184173	-0.691252	0.116038	-0.907471	-0.102539	-0.642090	0.080837	0.001036	0.001876	0.775981	0.041579	-0.628970	0.022830	9.892904	-77.969370	-4.643221
63337		8.167317	0.417900	0.140157	1.494892	0.265256	-1.775648	0.318883	-0.694518	0.074148	-0.909912	-0.095947	-0.636719	0.081666	0.004207	0.001692	0.773710	0.042608	-0.631650	0.024003	10.174712	-78.370893	-4.747369
63338		8.594816	0.531109	0.030051	1.619796	0.380856	-1.363738	0.305721	-0.671910	0.034956	-0.910400	-0.102539	-0.634033	0.085946	0.005325	0.000597	0.771506	0.043706	-0.634227	0.024985	10.563326	-78.755564	-4.968221
63339		9.129534	0.300707	-0.107229	1.824222	0.152964	-0.862889	0.327122	-0.567946	-0.005604	-0.918457	-0.111572	-0.628906	0.091298	0.003006	-0.000808	0.769622	0.045001	-0.636385	0.025903	11.043927	-79.077107	-5.270064
63340		9.607705	0.351951	0.037400	1.720328	0.174667	-0.355253	0.378465	-0.454211	-0.040790	-0.922607	-0.109863	-0.633301	0.096077	0.003499	0.000599	0.768086	0.046591	-0.638083	0.026872	11.615844	-79.330163	-5.634607
63341		9.990103	0.185543	0.167775	1.639742	-0.020147	0.045073	0.317389	-0.373729	-0.060583	-0.923828	-0.113525	-0.623535	0.099898	0.001822	0.001867	0.766818	0.048000	-0.639472	0.027592	12.181511	-79.535106	-6.027808
63342		10.044309	0.067887	0.551460	1.252454	-0.189827	0.166896	0.326819	-0.317190	-0.060496	-0.923096	-0.109863	-0.607178	0.100434	0.000639	0.005675	0.765725	0.049436	-0.640639	0.028352	12.733435	-79.707675	-6.401614
63343		9.980229	-0.004639	0.965739	0.811339	-0.317764	0.176221	0.306840	-0.339580	-0.057248	-0.923828	-0.112793	-0.612549	0.099786	-0.000090	0.009827	0.764559	0.050787	-0.641893	0.029059	13.294308	-79.892709	-6.795774
63344		10.043928	-0.280294	1.001581	0.781275	-0.608094	0.236289	0.312621	-0.408019	-0.043381	-0.922119	-0.116455	-0.607666	0.100418	-0.002841	0.010216	0.763166	0.052127	-0.643406	0.029816	13.887103	-80.116800	-7.218890
63345		10.360415	-0.314405	1.231602	0.572417	-0.687298	0.587009	0.338610	-0.433272	-0.036979	-0.927979	-0.114502	-0.604248	0.103577	-0.003184	0.012535	0.761679	0.053547	-0.645010	0.030677	14.516926	-80.355194	-7.664092
63346		10.763471	-0.240483	1.305950	0.514307	-0.644038	1.001015	0.350773	-0.422302	-0.032640	-0.927246	-0.116943	-0.603516	0.107606	-0.002446	0.013282	0.760217	0.054998	-0.646565	0.031594	15.158377	-80.587122	-8.113789
63347		11.281571	0.055187	1.145932	0.675661	-0.355671	1.501324	0.425890	-0.396203	-0.040044	-0.934082	-0.119873	-0.594238	0.112793	0.000505	0.011684	0.758814	0.056752	-0.648003	0.032735	15.868713	-80.802794	-8.589460
63348		11.478428	0.492521	0.953146	0.802332	0.084187	1.687505	0.450478	-0.295133	-0.054923	-0.932861	-0.129395	-0.591797	0.114771	0.004872	0.009712	0.757729	0.058633	-0.649044	0.033925	16.571899	-80.959328	-9.043295
63349		11.292314	0.479556	0.640980	1.052471	0.104633	1.458448	0.415024	-0.187801	-0.065039	-0.935059	-0.131592	-0.587158	0.112919	0.004745	0.006526	0.756998	0.060392	-0.649678	0.034996	17.192913	-81.054738	-9.434228
63350		11.014154	0.205235	0.169676	1.487994	-0.106235	1.103221	0.478176	-0.155167	-0.070961	-0.932373	-0.133545	-0.580078	0.110141	0.002009	0.001787	0.756352	0.062405	-0.650171	0.036256	17.847196	-81.130360	-9.822235
63351		10.708995	-0.047737	-0.099986	1.725183	-0.318519	0.752213	0.543929	-0.127120	-0.059028	-0.948242	-0.141602	-0.575195	0.107090	-0.000506	-0.000933	0.755768	0.064622	-0.650546	0.037788	18.472015	-81.192480	-10.141996
63352		10.560806	-0.550607	-0.670853	2.320556	-0.731188	0.500615	0.586925	-0.134087	-0.031549	-0.942139	-0.146973	-0.575684	0.105612	-0.005503	-0.006654	0.755137	0.066913	-0.650942	0.039557	19.041360	-81.262611	-10.380872
63353		10.563259	-0.842781	-0.766260	2.447694	-1.001679	0.477371	0.697021	-0.116728	0.018546	-0.939941	-0.147461	-0.579590	0.105638	-0.008391	-0.007630	0.754506	0.069454	-0.651262	0.041883	19.480021	-81.332933	-10.423239
63354		10.619658	-1.412424	-0.457020	2.236462	-1.606336	0.550655	0.681033	-0.097791	0.052341	-0.935059	-0.148682	-0.582520	0.106203	-0.014081	-0.004566	0.753928	0.071819	-0.651516	0.044287	19.769944	-81.399059	-10.324864
63355		10.925427	-1.594615	-0.040342	1.902265	-1.853807	0.904316	0.726086	-0.099200	0.073996	-0.938232	-0.146240	-0.566162	0.109260	-0.015904	-0.000407	0.753313	0.074281	-0.651767	0.046921	20.009188	-81.470605	-10.148923
63356		11.560580	-0.492254	0.582375	1.195840	-0.885710	1.677045	0.786811	-0.141235	0.091663	-0.939697	-0.155762	-0.575439	0.115604	-0.004893	0.005886	0.752525	0.076924	-0.652157	0.049800	20.277581	-81.567990	-9.967542
63357		11.954175	0.287490	0.450265	1.225577	-0.098054	2.090085	0.574668	-0.170598	0.123323	-0.938721	-0.167236	-0.557129	0.119536	0.002935	0.004613	0.751703	0.078670	-0.652717	0.052099	20.345579	-81.688047	-9.706389
63358		11.797411	0.778250	0.236309	1.287489	0.437348	1.934284	0.498575	-0.332924	0.157553	-0.937500	-0.156006	-0.558105	0.117964	0.007869	0.002579	0.750368	0.080062	-0.653911	0.054209	20.465994	-81.901654	-9.542484
63359		11.916974	0.845900	0.100248	1.363680	0.535489	2.044506	0.386283	-0.574371	0.168310	-0.939453	-0.169678	-0.556641	0.119159	0.008557	0.001361	0.748274	0.081062	-0.656042	0.055901	20.829861	-82.247552	-9.688973
63360		12.066101	0.886546	-0.385546	1.773122	0.672532	2.142589	0.395086	-0.586299	0.145325	-0.948730	-0.162109	-0.554199	0.120665	0.008960	-0.003484	0.746137	0.082173	-0.658194	0.057524	21.338044	-82.594356	-9.976316
63361		11.635089	1.278489	-0.048629	1.252036	1.004312	1.781957	0.385139	-0.360538	0.108873	-0.946533	-0.160156	-0.553955	0.116345	0.012849	-0.000252	0.744747	0.083301	-0.659487	0.059077	21.650765	-82.813397	-10.071674
63362		10.972692	1.702572	1.396773	-0.357953	1.145358	1.314291	0.281295	-0.207052	0.096165	-0.947754	-0.154541	-0.541504	0.109704	0.017059	0.014105	0.743909	0.084038	-0.660228	0.060298	21.708070	-82.947460	-9.970045
63363		10.899089	1.659590	2.679159	-1.635640	0.844087	1.382597	0.194204	-0.249239	0.103032	-0.942627	-0.162842	-0.540283	0.108949	0.016626	0.026944	0.742961	0.084439	-0.661157	0.061242	21.755196	-83.106024	-9.908408
63364		11.354417	1.873232	2.681279	-1.664167	1.043553	1.839027	0.277802	-0.305818	0.123006	-0.957275	-0.166016	-0.533936	0.113491	0.018765	0.027012	0.741785	0.085104	-0.662273	0.062509	21.864841	-83.298367	-9.861574
63365		11.809465	2.539101	2.328330	-1.450051	1.762467	2.275426	0.346291	-0.291360	0.192035	-0.956787	-0.173096	-0.532227	0.118036	0.025464	0.023499	0.740599	0.085789	-0.663342	0.064270	21.665392	-83.498207	-9.463723
63366		11.759770	2.688283	2.088626	-1.297042	1.973803	2.199932	0.333538	-0.204296	0.288202	-0.947510	-0.156494	-0.524170	0.117537	0.027017	0.021051	0.739675	0.086079	-0.664128	0.066377	20.815167	-83.670566	-8.418873
63367		11.321915	1.806457	2.242287	-1.340532	1.111983	1.739075	0.421814	-0.110977	0.378019	-0.954346	-0.162354	-0.529785	0.113172	0.018231	0.022524	0.738985	0.086367	-0.664575	0.069153	19.348630	-83.808452	-6.703044
63368		10.697953	0.581965	2.488926	-1.403479	-0.099141	1.096023	0.642436	-0.052060	0.442845	-0.955811	-0.162354	-0.522705	0.106960	0.005976	0.024936	0.738367	0.087232	-0.664746	0.072922	17.511743	-83.920155	-4.488405
63369		10.011610	-0.457072	3.057866	-1.801111	-1.207253	0.438668	0.819876	0.058236	0.460666	-0.965820	-0.171387	-0.518311	0.100135	-0.004465	0.030531	0.738015	0.088652	-0.664443	0.077397	15.450036	-83.966416	-1.945399
63370		9.251704	-1.151022	3.500211	-2.130078	-1.957560	-0.283735	0.831001	0.275189	0.503138	-0.964600	-0.159912	-0.522217	0.092594	-0.011422	0.034827	0.738347	0.089885	-0.663335	0.082156	12.880251	-83.886813	1.114662
63371		8.345580	-1.767691	3.735580	-2.267476	-2.587759	-1.158798	0.780305	0.411743	0.528948	-0.952148	-0.162109	-0.535400	0.083579	-0.017601	0.037115	0.739124	0.090789	-0.661741	0.086908	10.100869	-83.718763	4.357634
63372		7.236708	-2.168151	3.624926	-2.140536	-2.930476	-2.260131	0.766770	0.348768	0.585647	-0.954834	-0.165771	-0.524902	0.072493	-0.021608	0.036040	0.739655	0.091479	-0.660391	0.091787	7.234493	-83.573929	7.680716
63373		7.190489	-1.484652	3.644950	-2.313797	-2.250200	-2.277712	0.852899	0.088492	0.707679	-0.957764	-0.164063	-0.523193	0.071973	-0.014747	0.036355	0.739210	0.092202	-0.660002	0.097287	4.038882	-83.565316	11.385851
63374		7.783831	-0.890357	3.067183	-1.851355	-1.480560	-1.739975	0.708408	-0.092761	0.749814	-0.955566	-0.152344	-0.523926	0.077857	-0.008720	0.030677	0.738192	0.092336	-0.660353	0.102373	0.578179	-83.637308	15.273625
63375		7.820142	0.261611	2.258790	-1.404098	-0.116108	-1.791459	0.732837	-0.075675	0.699659	-0.958984	-0.158936	-0.525146	0.078183	0.002807	0.022628	0.737224	0.092716	-0.660588	0.107367	-2.677035	-83.674585	18.968950
63376		8.117837	1.421513	2.323629	-1.787251	1.019036	-1.500866	0.722455	-0.180020	0.592149	-0.963135	-0.154053	-0.519287	0.081115	0.014371	0.023361	0.735958	0.093465	-0.661147	0.111872	-5.461820	-83.754280	22.183969
63377		8.936201	1.889967	2.300882	-1.859218	1.525689	-0.705707	0.638930	-0.316698	0.444612	-0.968262	-0.150879	-0.520020	0.089283	0.019024	0.023211	0.734345	0.094471	-0.662172	0.115499	-7.693280	-83.905929	24.794346
63378		10.329926	1.850332	1.462621	-0.967363	1.802858	0.583660	0.583982	-0.377206	0.269959	-0.966797	-0.145752	-0.505615	0.103246	0.018600	0.014875	0.732648	0.095885	-0.663360	0.118266	-9.179187	-84.097427	26.621833
63379		11.755951	2.206229	1.137279	-0.685468	2.304898	1.959340	0.570312	-0.285115	0.134282	-0.971924	-0.156738	-0.510010	0.117528	0.022108	0.011603	0.731334	0.097645	-0.664144	0.120538	-9.929195	-84.245927	27.701682
63380		12.593134	2.296948	1.353076	-0.880179	2.359607	2.810755	0.403382	-0.134246	0.046921	-0.969482	-0.156250	-0.512207	0.125917	0.022972	0.013662	0.730650	0.098991	-0.664430	0.122004	-10.161968	-84.317182	28.164862
63381		12.562683	1.798085	1.523893	-0.907877	1.822306	2.806001	0.326795	-0.057200	-0.039103	-0.972656	-0.161865	-0.506104	0.125626	0.017931	0.015304	0.730309	0.100299	-0.664435	0.122944	-9.877879	-84.353448	28.065151
63382		12.176124	1.666267	1.247826	-0.642444	1.749364	2.398720	0.369000	0.027047	-0.128141	-0.970703	-0.164307	-0.503906	0.121774	0.016562	0.012492	0.730280	0.102002	-0.664061	0.123736	-8.974759	-84.350459	27.367045
63383		11.425903	1.537105	1.451880	-0.847990	1.507806	1.677710	0.380803	0.155014	-0.217696	-0.968262	-0.168701	-0.509521	0.114287	0.015219	0.014459	0.730721	0.103969	-0.663163	0.124310	-7.455869	-84.280726	26.057638
63384		10.700049	1.467598	1.756388	-1.158080	1.284368	0.991890	0.411180	0.116333	-0.312407	-0.961426	-0.166504	-0.500244	0.107033	0.014473	0.017532	0.731073	0.106381	-0.662334	0.124613	-5.441983	-84.235191	24.267341
63385		10.268177	1.125563	1.458413	-0.783976	1.002371	0.541528	0.360638	0.155933	-0.383962	-0.968750	-0.168945	-0.504883	0.102714	0.011032	0.014524	0.731623	0.108823	-0.661349	0.124511	-3.075571	-84.163178	22.094035
63386		9.738388	1.073297	1.566491	-0.889667	0.859986	0.031639	0.415936	0.220553	-0.424280	-0.974854	-0.182861	-0.500244	0.097424	0.010494	0.015579	0.732375	0.111556	-0.660067	0.124475	-0.508600	-84.045553	19.749965
63387		9.294340	1.170539	1.857884	-1.207196	0.802642	-0.373149	0.395734	0.223586	-0.428004	-0.958496	-0.187256	-0.505859	0.092989	0.011470	0.018498	0.733143	0.114228	-0.658777	0.124362	1.966338	-83.915659	17.486854
63388		8.915877	0.904496	1.712972	-0.988241	0.552020	-0.759307	0.320216	0.263758	-0.434155	-0.964111	-0.196533	-0.514893	0.089201	0.008824	0.017026	0.734085	0.116614	-0.657378	0.123996	4.313438	-83.752738	15.307605
63389		8.394090	0.578078	1.679985	-0.870468	0.207828	-1.279447	0.275439	0.221702	-0.433812	-0.958740	-0.198730	-0.511719	0.083972	0.005576	0.016715	0.734908	0.118864	-0.656154	0.123463	6.539420	-83.604480	13.224413
63390		8.265024	0.363801	1.546579	-0.662215	0.015511	-1.422456	0.258270	0.109277	-0.418623	-0.955811	-0.204590	-0.516846	0.082666	0.003445	0.015425	0.735359	0.121065	-0.655360	0.122858	8.664620	-83.512770	11.231595
63391		8.280478	0.124272	1.274001	-0.304467	-0.147697	-1.440697	0.141146	0.108340	-0.397464	-0.960938	-0.202393	-0.512207	0.082814	0.001069	0.012696	0.735860	0.122770	-0.654650	0.121949	10.560661	-83.415673	9.402113
63392		8.313355	0.115999	0.922955	0.055133	-0.061019	-1.447863	0.061845	0.259271	-0.386011	-0.966797	-0.214111	-0.508789	0.083147	0.000997	0.009122	0.736894	0.124049	-0.653437	0.120911	12.146274	-83.228949	7.838310
63393		8.016665	0.154369	0.909329	0.055049	-0.044822	-1.743459	0.030243	0.382685	-0.372360	-0.949707	-0.221436	-0.515625	0.080187	0.001393	0.008940	0.738337	0.125096	-0.651793	0.119899	13.431194	-82.970437	6.559032
63394		7.879379	0.287978	0.974547	-0.029352	0.040778	-1.868216	0.013224	0.391759	-0.349403	-0.952393	-0.220703	-0.518555	0.078818	0.002741	0.009591	0.739802	0.125995	-0.650136	0.118918	14.505891	-82.707014	5.480481
63395		7.879291	0.537056	1.008970	-0.108792	0.249102	-1.855574	-0.002959	0.370792	-0.328481	-0.951660	-0.219727	-0.531250	0.078820	0.005241	0.009944	0.741192	0.126783	-0.648574	0.117953	15.433134	-82.455854	4.541452
63396		7.998098	0.612197	0.931989	-0.011437	0.334909	-1.744196	-0.046290	0.356613	-0.295235	-0.944824	-0.221436	-0.526367	0.080006	0.006006	0.009176	0.742539	0.127305	-0.647109	0.116955	16.158641	-82.216109	3.779600
63397		8.119345	0.712205	0.938735	-0.000969	0.418425	-1.618968	-0.029646	0.351115	-0.240582	-0.947266	-0.234619	-0.538574	0.081218	0.007026	0.009244	0.743823	0.127717	-0.645685	0.116214	16.642007	-81.987027	3.271902
63398		8.061441	0.748934	0.812039	0.129119	0.490550	-1.691743	-0.034616	0.354845	-0.178339	-0.943359	-0.230957	-0.545654	0.080635	0.007419	0.007976	0.745083	0.127905	-0.644289	0.115687	16.855658	-81.765902	3.033001
63399		7.689812	0.774145	0.639706	0.256366	0.569313	-2.082756	-0.049884	0.309964	-0.111715	-0.944092	-0.229492	-0.541748	0.076912	0.007700	0.006276	0.746168	0.127851	-0.643107	0.115334	16.853270	-81.580198	3.004187
63400		7.562048	0.795525	0.527871	0.355241	0.627907	-2.224829	-0.042485	0.205698	-0.063544	-0.930420	-0.227295	-0.550049	0.075628	0.007932	0.005199	0.746882	0.127725	-0.642341	0.115114	16.794017	-81.459862	3.036431
63401		7.685042	0.900723	0.570923	0.311715	0.716336	-2.093438	-0.018876	0.154079	-0.008825	-0.935059	-0.229980	-0.541260	0.076855	0.009004	0.005649	0.747384	0.127544	-0.641787	0.115143	16.607475	-81.376709	3.211606
63402		7.966475	1.125753	0.548454	0.309327	0.943384	-1.809739	-0.049204	0.131409	0.021819	-0.933350	-0.226318	-0.550781	0.079667	0.011268	0.005429	0.747815	0.127162	-0.641357	0.115172	16.321134	-81.311027	3.469677
63403		8.280256	1.278608	0.811637	0.068534	1.009582	-1.456117	-0.135247	0.098986	0.067165	-0.939453	-0.220459	-0.547852	0.082802	0.012819	0.008067	0.748169	0.126334	-0.641124	0.115078	15.860600	-81.270041	3.854690
63404		8.535715	1.214898	0.844882	0.103002	0.953978	-1.202953	-0.216980	0.081283	0.120959	-0.935303	-0.222168	-0.548828	0.085353	0.012210	0.008401	0.748486	0.125035	-0.641039	0.114908	15.181770	-81.246601	4.412663
63405		8.699257	1.086864	0.806459	0.210859	0.866527	-1.054071	-0.252973	0.110827	0.176144	-0.925781	-0.219482	-0.554932	0.086987	0.010955	0.008003	0.748887	0.123410	-0.640896	0.114850	14.260195	-81.213575	5.195831
63406		8.884535	1.275961	0.784209	0.206665	1.078979	-0.870034	-0.264021	0.211659	0.200418	-0.929688	-0.210449	-0.556396	0.088841	0.012859	0.007731	0.749602	0.121604	-0.640395	0.114906	13.166366	-81.125691	6.146638
63407		9.062617	1.384909	0.941263	0.071125	1.163085	-0.670641	-0.355689	0.331825	0.205913	-0.931885	-0.211182	-0.558105	0.090627	0.013959	0.009238	0.750750	0.119370	-0.639496	0.114764	11.930416	-80.968178	7.188802
63408		9.393267	1.487250	1.082834	-0.013756	1.254879	-0.323599	-0.400905	0.397480	0.193351	-0.932861	-0.203369	-0.567871	0.093939	0.014985	0.010612	0.752135	0.116966	-0.638364	0.114467	10.707955	-80.769078	8.191245
63409		9.906680	1.651266	1.216639	-0.071714	1.415176	0.204351	-0.437583	0.464001	0.143618	-0.921143	-0.208252	-0.567627	0.099083	0.016610	0.011900	0.753776	0.114545	-0.636967	0.113905	9.642600	-80.524204	9.014139
63410		10.221718	1.876392	1.124185	0.042915	1.700819	0.501051	-0.451932	0.519537	0.077243	-0.928955	-0.197998	-0.575439	0.102239	0.018828	0.010934	0.755631	0.112247	-0.635324	0.113076	8.806775	-80.239733	9.596186
63411		10.541844	2.008151	0.698146	0.505175	1.995525	0.742547	-0.474013	0.427582	0.001119	-0.923340	-0.188721	-0.577881	0.105433	0.020098	0.006708	0.757240	0.110161	-0.633991	0.111838	8.286977	-79.999672	9.845584
63412		11.105641	2.068047	0.021733	1.265368	2.291695	1.176368	-0.426331	0.361453	-0.096202	-0.918945	-0.194336	-0.583496	0.111066	0.020627	-0.000027	0.758661	0.108597	-0.632822	0.110343	8.146698	-79.788981	9.736888
63413		11.579991	1.931357	-0.437600	1.872467	2.314953	1.551836	-0.426596	0.376668	-0.203051	-0.921631	-0.191406	-0.589844	0.115811	0.019186	-0.004635	0.760183	0.107363	-0.631533	0.108451	8.330128	-79.560875	9.299150
63414		11.695577	1.648795	-0.936652	2.500857	2.184118	1.560852	-0.438061	0.331894	-0.294892	-0.920898	-0.192627	-0.600586	0.116964	0.016295	-0.009596	0.761612	0.106396	-0.630365	0.106147	8.790102	-79.349872	8.572904
63415		11.487024	1.346989	-1.094102	2.755638	1.912133	1.309948	-0.418435	0.368053	-0.346960	-0.915283	-0.193115	-0.593506	0.114873	0.013247	-0.011180	0.763165	0.105650	-0.629014	0.103725	9.375001	-79.112502	7.730625
63416		11.068625	0.984936	-0.871090	2.636072	1.463078	0.918269	-0.367590	0.492280	-0.395649	-0.914063	-0.190918	-0.595703	0.110684	0.009614	-0.009001	0.765097	0.105183	-0.627130	0.101341	10.032751	-78.798573	6.842803
63417		10.975117	0.623740	0.095640	1.888171	0.811618	0.986706	-0.269329	0.630018	-0.423401	-0.905518	-0.193115	-0.606934	0.109766	0.006006	0.000602	0.767411	0.105111	-0.624648	0.099231	10.709479	-78.402461	5.992251
63418		11.349987	0.825885	1.726694	0.461120	0.526526	1.676228	-0.084034	0.697162	-0.416574	-0.897949	-0.194092	-0.617188	0.113576	0.008029	0.016868	0.769824	0.105690	-0.621807	0.097759	11.384689	-77.967120	5.250157
63419		12.039199	0.922281	3.036604	-0.561849	0.239534	2.622752	-0.081105	0.608480	-0.393406	-0.889160	-0.197510	-0.621338	0.120501	0.008998	0.029996	0.771935	0.106252	-0.619311	0.096336	12.002547	-77.582688	4.567392
63420		12.713964	0.646239	3.331606	-0.536661	-0.117807	3.334926	-0.143298	0.476501	-0.364915	-0.884033	-0.204834	-0.629639	0.127230	0.006254	0.033008	0.773650	0.106547	-0.617361	0.094760	12.547637	-77.274026	3.921701
63421		13.051027	0.014185	3.474373	-0.351462	-0.782657	3.665601	-0.073366	0.412860	-0.358430	-0.888184	-0.207275	-0.633789	0.130582	-0.000079	0.034474	0.775121	0.107124	-0.615622	0.093389	13.125800	-77.000356	3.282593
63422		13.311395	-0.222957	4.048932	-0.701793	-1.196366	4.033345	-0.011720	0.356825	-0.358360	-0.883057	-0.199707	-0.640869	0.133182	-0.002466	0.040252	0.776381	0.107962	-0.614068	0.092179	13.744722	-76.756479	2.637085
63423		13.330796	0.128317	4.977480	-1.597201	-1.149784	4.280870	0.051925	0.408107	-0.343601	-0.878174	-0.212891	-0.635986	0.133411	0.001041	0.049503	0.777753	0.108979	-0.612289	0.091247	14.313260	-76.484614	2.080096
63424		12.721473	0.093359	5.676293	-2.310473	-1.408493	3.852679	-0.041213	0.486897	-0.318546	-0.875732	-0.209473	-0.641357	0.127354	0.000742	0.056453	0.779399	0.109519	-0.610255	0.090171	14.702640	-76.171604	1.651954
63425		11.741714	-0.137921	4.923763	-1.714098	-1.440016	2.721993	-0.169141	0.425608	-0.302871	-0.882568	-0.208252	-0.649658	0.117519	-0.001516	0.048989	0.780915	0.109541	-0.608522	0.088732	15.004260	-75.894240	1.238332
63426		10.909941	0.291448	4.419482	-1.512696	-0.903349	1.829439	-0.157620	0.335071	-0.302418	-0.866211	-0.201904	-0.650391	0.109178	0.002784	0.044010	0.782144	0.109645	-0.607133	0.087279	15.350503	-75.666444	0.784869
63427		10.222442	1.371328	4.933581	-2.411487	-0.019396	1.363327	-0.326109	0.268904	-0.298719	-0.877441	-0.202881	-0.646484	0.102311	0.013641	0.049176	0.783259	0.109104	-0.606075	0.085290	15.619986	-75.475148	0.310125
63428		9.840955	1.439902	5.001830	-2.556251	0.032633	1.022462	-0.699828	0.187671	-0.298557	-0.866211	-0.213379	-0.661377	0.098478	0.014427	0.049875	0.784322	0.107135	-0.605488	0.082126	15.715566	-75.328321	-0.206111
63429		9.401732	1.513496	4.875968	-2.540668	0.154123	0.578629	-0.824562	0.191526	-0.323721	-0.875244	-0.208008	-0.658203	0.094088	0.015183	0.048607	0.785460	0.104750	-0.604913	0.078486	15.784383	-75.175224	-0.769068
63430		8.728012	1.497680	5.214458	-2.998081	0.076909	0.016722	-0.992272	0.162737	-0.355387	-0.868164	-0.199951	-0.666748	0.087349	0.015080	0.051999	0.786592	0.101810	-0.604485	0.074198	15.833023	-75.032952	-1.410824
63431		7.889968	0.662234	4.985823	-2.782521	-0.640549	-0.902257	-1.129476	0.101111	-0.390639	-0.867188	-0.191406	-0.661133	0.078938	0.006749	0.049780	0.787596	0.098458	-0.604312	0.069321	15.905860	-74.918790	-2.159454
63432		6.911630	0.467064	4.470055	-2.500248	-0.674981	-1.985599	-0.983008	0.060380	-0.456154	-0.864014	-0.192139	-0.669922	0.069141	0.004733	0.044657	0.788401	0.095890	-0.604197	0.064609	16.212512	-74.816184	-3.063701
63433		6.075295	0.088716	3.730195	-1.936690	-0.850612	-3.004080	-0.989611	0.041028	-0.507817	-0.857910	-0.195313	-0.671143	0.060763	0.000917	0.037285	0.789145	0.093455	-0.604117	0.059659	16.622778	-74.714149	-4.079922
63434		5.809534	-0.777481	2.610664	-0.769477	-1.446432	-3.608942	-0.781818	0.132281	-0.563918	-0.868164	-0.190918	-0.678711	0.058091	-0.007837	0.026099	0.790061	0.091981	-0.603573	0.055159	17.196420	-74.550672	-5.142523
63435		5.855165	-0.757447	2.741589	-0.873576	-1.469352	-3.531699	-0.516152	0.323635	-0.591915	-0.856201	-0.197021	-0.680176	0.058573	-0.007677	0.027341	0.791426	0.091587	-0.602172	0.051435	17.837792	-74.274424	-6.118490
63436		6.580910	-1.355596	3.133543	-0.909945	-2.172728	-2.783016	-0.513630	0.457899	-0.581414	-0.849854	-0.184570	-0.682617	0.065841	-0.013667	0.031220	0.793174	0.091134	-0.600235	0.047823	18.347029	-73.924713	-6.957117
63437		7.403190	-1.964705	3.348101	-0.741357	-2.857933	-1.992232	-0.373696	0.530506	-0.538218	-0.851563	-0.199463	-0.696533	0.074067	-0.019784	0.033321	0.795054	0.091087	-0.597982	0.044832	18.781416	-73.541150	-7.635952
63438		8.193893	-1.311098	3.771424	-0.998991	-2.354731	-1.063997	-0.106074	0.398334	-0.463472	-0.844971	-0.197266	-0.691650	0.081983	-0.013281	0.037558	0.796386	0.091909	-0.596224	0.042880	19.291638	-73.242008	-8.234957
63439		9.242850	-0.143542	3.573924	-0.688704	-1.241541	-0.004122	-0.038251	0.232577	-0.352016	-0.843018	-0.198242	-0.689209	0.092467	-0.001591	0.035632	0.797167	0.092704	-0.595155	0.041497	19.729466	-73.051869	-8.718462
63440		9.949276	1.210268	3.562963	-0.689833	0.034774	0.801945	-0.020831	0.157751	-0.206504	-0.849365	-0.198975	-0.691895	0.099533	0.012004	0.035550	0.797682	0.093150	-0.594449	0.040711	19.960605	-72.929984	-8.975812
63441		10.131047	1.490651	3.315541	-0.436719	0.345629	0.936395	-0.181034	0.111206	-0.025809	-0.843018	-0.202881	-0.697021	0.101331	0.014923	0.033086	0.798096	0.092429	-0.594043	0.040147	19.810878	-72.868078	-8.930956
63442		9.866324	0.957649	3.150241	-0.254782	-0.115632	0.584770	-0.289656	0.102003	0.138903	-0.849121	-0.188965	-0.701660	0.098673	0.009691	0.031438	0.798498	0.090787	-0.593773	0.039914	19.318046	-72.842932	-8.592043
63443		9.375205	0.403517	3.222891	-0.369583	-0.620935	0.082871	-0.293570	0.004680	0.258314	-0.843750	-0.192871	-0.705566	0.093747	0.004204	0.032221	0.798587	0.088793	-0.593941	0.040101	18.672085	-72.891398	-8.095455
63444		9.331704	0.154216	2.934485	-0.080206	-0.771882	-0.060083	-0.303972	-0.119401	0.347706	-0.838379	-0.188477	-0.703369	0.093297	0.001749	0.029398	0.798289	0.086518	-0.594646	0.040560	17.930319	-73.022063	-7.504939
63445		9.185842	-0.014032	2.789979	0.021919	-0.862091	-0.251307	-0.341007	-0.140993	0.409023	-0.842041	-0.184326	-0.705566	0.091839	0.000095	0.027965	0.797927	0.083917	-0.595464	0.041143	17.057935	-73.172130	-6.800567
63446		8.602861	-0.414788	2.681420	0.000697	-1.170942	-0.868418	-0.376887	-0.157895	0.434277	-0.850098	-0.177979	-0.710205	0.086016	-0.003910	0.026890	0.797516	0.081100	-0.596365	0.041713	16.114018	-73.332855	-6.043499
63447		7.945204	-0.465663	2.609702	-0.136325	-1.146238	-1.516843	-0.349951	-0.239088	0.416908	-0.844971	-0.171875	-0.695801	0.079430	-0.004445	0.026200	0.796850	0.078458	-0.597569	0.042262	15.242783	-73.531691	-5.346845
63448		7.355207	-0.571525	2.346176	-0.065762	-1.152464	-2.157781	-0.413617	-0.295939	0.370451	-0.854492	-0.164551	-0.700928	0.073528	-0.005530	0.023582	0.796039	0.075713	-0.598992	0.042411	14.432622	-73.752776	-4.752637
63449		7.063379	-0.935336	2.100852	0.109438	-1.432491	-2.524643	-0.405671	-0.391925	0.312632	-0.865723	-0.158691	-0.693848	0.070607	-0.009200	0.021166	0.794943	0.073193	-0.600764	0.042319	13.765230	-74.016541	-4.302955
63450		6.936329	-0.752739	1.933486	0.169025	-1.199996	-2.674834	-0.348029	-0.418406	0.229365	-0.853271	-0.159424	-0.690186	0.069331	-0.007414	0.019493	0.793755	0.071156	-0.602596	0.042058	13.290359	-74.283054	-4.019741
63451		6.990424	-0.594939	1.634969	0.408242	-0.981505	-2.687873	-0.331943	-0.427844	0.157998	-0.869873	-0.156982	-0.687744	0.069874	-0.005867	0.016509	0.792542	0.069400	-0.604429	0.041560	12.959753	-74.544633	-3.876926
63452		7.230624	-0.263420	1.472605	0.542314	-0.622767	-2.475261	-0.293139	-0.439665	0.108514	-0.866455	-0.148438	-0.684570	0.072275	-0.002573	0.014889	0.791282	0.067949	-0.606281	0.040977	12.751349	-74.806688	-3.838117
63453		7.615327	0.249096	1.183931	0.806882	-0.071707	-2.144531	-0.258688	-0.475690	0.086737	-0.871338	-0.150146	-0.681641	0.076124	0.002539	0.012017	0.789902	0.066707	-0.608254	0.040402	12.620578	-75.085762	-3.859087
63454		7.962110	0.414969	0.803012	1.197554	0.149697	-1.890848	-0.275977	-0.495841	0.091501	-0.879395	-0.143311	-0.676758	0.079599	0.004197	0.008222	0.788457	0.065386	-0.610310	0.039784	12.477835	-75.377058	-3.878115
63455		8.104960	0.054571	0.317394	1.712300	-0.130952	-1.885212	-0.271909	-0.435595	0.095580	-0.870605	-0.135742	-0.677734	0.081042	0.000589	0.003350	0.787189	0.064056	-0.612121	0.039217	12.296433	-75.634833	-3.854590
63456		7.778594	-0.133072	0.405830	1.539650	-0.320087	-2.182755	-0.222839	-0.390777	0.089563	-0.874756	-0.138916	-0.669678	0.077778	-0.001291	0.004212	0.786037	0.062928	-0.613743	0.038787	12.132256	-75.867082	-3.820047
63457		7.449158	-0.559425	0.393247	1.496422	-0.730715	-2.519937	-0.154902	-0.479270	0.101177	-0.886230	-0.129639	-0.674805	0.074485	-0.005553	0.004115	0.784588	0.062047	-0.615697	0.038585	12.019512	-76.149917	-3.798451
63458		7.239117	-0.816557	0.250048	1.580266	-0.957809	-2.761494	-0.043364	-0.560243	0.110537	-0.882568	-0.128174	-0.662354	0.072388	-0.008125	0.002705	0.782845	0.061592	-0.617948	0.038736	11.987882	-76.479607	-3.794575
63459		7.271553	-0.778802	0.278756	1.511547	-0.922454	-2.711712	0.091632	-0.645432	0.118382	-0.884033	-0.131348	-0.660156	0.072711	-0.007746	0.003019	0.780790	0.061653	-0.620501	0.039309	12.056730	-76.857695	-3.814747
63460		7.327677	-0.985070	0.183271	1.596566	-1.112114	-2.677369	0.153850	-0.712574	0.101544	-0.897949	-0.123779	-0.653076	0.073275	-0.009815	0.002086	0.778499	0.062025	-0.623293	0.039988	12.243448	-77.271627	-3.918978
63461		7.501894	-1.027340	0.055983	1.709964	-1.139441	-2.524726	0.327539	-0.821641	0.059893	-0.898682	-0.133789	-0.645020	0.075019	-0.010252	0.000851	0.775811	0.063220	-0.626449	0.041012	12.708369	-77.741050	-4.206284
63462		8.048484	-0.753809	0.019307	1.762475	-0.878031	-1.972464	0.457976	-0.834726	0.007587	-0.905518	-0.132813	-0.635010	0.080483	-0.007536	0.000512	0.773034	0.065090	-0.629602	0.042235	13.428935	-78.210560	-4.677807
63463		8.692223	-0.580735	0.190600	1.640138	-0.755530	-1.288188	0.474262	-0.772915	-0.052397	-0.912842	-0.135742	-0.622803	0.086913	-0.005835	0.002228	0.770443	0.067195	-0.632478	0.043300	14.329318	-78.635878	-5.322632
63464		9.366365	-1.046581	0.445794	1.534978	-1.286780	-0.592570	0.417113	-0.711896	-0.128682	-0.916260	-0.144287	-0.622803	0.093640	-0.010536	0.004769	0.768065	0.069308	-0.635095	0.043907	15.427841	-79.013993	-6.201849
63465		10.105327	-1.446887	0.805400	1.331668	-1.781626	0.182909	0.403178	-0.628633	-0.187306	-0.918701	-0.141846	-0.617920	0.101014	-0.014580	0.008342	0.765957	0.071533	-0.637364	0.044276	16.685321	-79.333398	-7.250000
63466		10.864342	-1.231435	1.121788	1.078909	-1.671676	0.997028	0.368821	-0.515720	-0.213141	-0.921875	-0.155518	-0.609375	0.108601	-0.012451	0.011475	0.764217	0.073685	-0.639191	0.044474	17.963504	-79.582186	-8.338249
63467		11.533775	-0.467957	1.447674	0.715412	-1.026640	1.753499	0.336319	-0.388748	-0.209582	-0.920654	-0.163574	-0.609131	0.115304	-0.004825	0.014693	0.762887	0.075670	-0.640535	0.044630	19.134692	-79.758311	-9.335910
63468		12.000082	0.402354	1.791810	0.285556	-0.276310	2.320589	0.259173	-0.272494	-0.200774	-0.922852	-0.157471	-0.601563	0.119980	0.003880	0.018087	0.761952	0.077309	-0.641453	0.044614	20.145520	-79.869974	-10.215117
63469		11.855148	0.945064	1.470369	0.452274	0.287172	2.158632	0.175984	-0.275277	-0.196953	-0.924805	-0.157959	-0.594727	0.118540	0.009321	0.014875	0.761037	0.078618	-0.642398	0.044349	21.118916	-79.981162	-11.104156
63470		11.885532	1.749425	1.107250	0.642146	1.110673	2.183404	0.219123	-0.303974	-0.199907	-0.922607	-0.159668	-0.596924	0.118856	0.017363	0.011272	0.760009	0.080107	-0.643440	0.044195	22.184139	-80.104247	-12.061265
63471		11.875876	2.371585	0.648361	0.942811	1.775605	2.147219	0.174300	-0.340237	-0.162746	-0.926025	-0.170410	-0.591309	0.118767	0.023613	0.006706	0.758872	0.081311	-0.644642	0.044026	23.179873	-80.251829	-12.973636
63472		11.885258	2.235467	-0.316730	1.865914	1.791999	2.005262	0.088847	-0.337794	-0.116234	-0.924072	-0.168213	-0.593994	0.118871	0.022287	-0.002957	0.757764	0.082043	-0.645870	0.043757	24.010564	-80.406177	-13.767724
63473		11.616036	1.444777	-1.132900	2.717313	1.156601	1.570701	0.108533	-0.269950	-0.086871	-0.935303	-0.167725	-0.583252	0.116182	0.014403	-0.011164	0.756858	0.082739	-0.646847	0.043693	24.687837	-80.530313	-14.394336
