// General information: 
//  MT Manager version: 2019.2.0 
//  XDA version: 2019.2.0 build 3853 rev 94535 built on 2019-09-09
// Device information: 
//  DeviceId: 00B4778E
//  ProductCode: MTW2-3A7G6
//  Firmware Version: 4.6.0
//  Hardware Version: 2.0.0
// Device settings: 
//  Filter Profile: human(46.1)
//  Option Flags: Orientation Smoother Disabled, AHS Disabled, ICC Disabled
// Coordinate system: ENU
PacketCounter	SampleTimeFine	Acc_X	Acc_Y	Acc_Z	FreeAcc_E	FreeAcc_N	FreeAcc_U	Gyr_X	Gyr_Y	Gyr_Z	Mag_X	Mag_Y	Mag_Z	VelInc_X	VelInc_Y	VelInc_Z	Quat_q0	Quat_q1	Quat_q2	Quat_q3	Roll	Pitch	Yaw
62923		4.843069	0.641101	8.420620	-0.014417	0.009928	-0.077552	0.000737	0.007707	0.000847	-0.498535	0.113281	-0.476563	0.048434	0.006411	0.084204	0.151056	-0.248460	-0.074624	-0.953877	4.446886	-29.771653	-163.185339
62924		4.829872	0.647160	8.400922	-0.010344	0.003351	-0.100744	0.001106	0.006955	-0.000563	-0.500244	0.106201	-0.475586	0.048302	0.006471	0.084008	0.151048	-0.248464	-0.074630	-0.953877	4.447873	-29.772182	-163.186488
62925		4.832290	0.660442	8.433060	0.006369	-0.002817	-0.070836	0.000731	0.010706	0.003371	-0.505371	0.114258	-0.470947	0.048327	0.006605	0.084328	0.151066	-0.248449	-0.074627	-0.953878	4.447153	-29.770565	-163.184197
62926		4.822138	0.679542	8.445155	0.026457	-0.015809	-0.064124	-0.002884	0.006684	-0.000423	-0.495117	0.104004	-0.476318	0.048224	0.006797	0.084450	0.151054	-0.248458	-0.074615	-0.953878	4.445815	-29.771255	-163.185268
62927		4.796230	0.691625	8.405477	0.033851	-0.029262	-0.110512	0.004743	0.011197	-0.000671	-0.506592	0.113770	-0.471436	0.047967	0.006914	0.084052	0.151055	-0.248437	-0.074635	-0.953882	4.448701	-29.769205	-163.185945
62928		4.817464	0.666471	8.414295	0.011859	-0.008877	-0.094031	-0.001807	0.007203	0.001771	-0.505127	0.114258	-0.474365	0.048178	0.006666	0.084141	0.151055	-0.248443	-0.074624	-0.953881	4.447250	-29.769695	-163.185545
62929		4.820089	0.627355	8.430694	0.004341	0.030797	-0.081168	0.000023	0.009435	-0.000233	-0.498779	0.104248	-0.466553	0.048205	0.006273	0.084305	0.151053	-0.248435	-0.074623	-0.953884	4.447273	-29.768707	-163.185801
62930		4.797430	0.652585	8.422681	0.027771	0.010951	-0.097654	0.000008	0.006216	0.001145	-0.507568	0.110352	-0.469971	0.047977	0.006526	0.084225	0.151052	-0.248444	-0.074622	-0.953882	4.447091	-29.769734	-163.185864
62931		4.846774	0.674044	8.427875	-0.003824	-0.020578	-0.067217	-0.000707	0.007943	0.000064	-0.499512	0.112793	-0.477783	0.048471	0.006741	0.084277	0.151041	-0.248444	-0.074616	-0.953884	4.446699	-29.769638	-163.187101
62932		4.833722	0.627694	8.392482	-0.024018	0.018684	-0.107447	-0.000707	0.007943	0.000064	-0.503174	0.103516	-0.478271	0.048341	0.006277	0.083923	0.151034	-0.248445	-0.074612	-0.953885	4.446417	-29.769630	-163.187787
62933		4.858016	0.667937	8.448703	-0.005740	-0.013201	-0.044022	-0.001784	0.007424	-0.002130	-0.495850	0.113037	-0.474121	0.048583	0.006680	0.084485	0.151019	-0.248447	-0.074606	-0.953888	4.446164	-29.769647	-163.189569
62934		4.816490	0.679390	8.448389	0.032170	-0.013733	-0.064138	0.002539	0.012719	0.005270	-0.509766	0.111084	-0.469482	0.048170	0.006794	0.084481	0.151043	-0.248424	-0.074608	-0.953889	4.445919	-29.767142	-163.186585
62935		4.821965	0.646991	8.405475	-0.002529	0.006184	-0.100740	0.001131	0.007176	-0.004464	-0.503418	0.110107	-0.467041	0.048223	0.006468	0.084053	0.151021	-0.248424	-0.074619	-0.953892	4.448040	-29.767247	-163.189855
62936		4.821377	0.647112	8.405804	-0.001809	0.006455	-0.100740	0.001085	0.006736	0.003340	-0.505371	0.110107	-0.481934	0.048216	0.006471	0.084056	0.151032	-0.248431	-0.074620	-0.953889	4.447745	-29.768075	-163.188447
62937		4.839536	0.660802	8.398520	-0.015589	-0.012612	-0.097107	0.000008	0.006217	0.001146	-0.502930	0.114258	-0.466309	0.048398	0.006608	0.083984	0.151032	-0.248438	-0.074619	-0.953887	4.447444	-29.768972	-163.188331
62938		4.820256	0.646991	8.406456	-0.000385	0.006973	-0.100740	-0.000706	0.007944	0.000065	-0.495117	0.104492	-0.464844	0.048206	0.006470	0.084063	0.151026	-0.248439	-0.074615	-0.953888	4.447162	-29.768964	-163.189017
62939		4.810134	0.666183	8.418510	0.019695	-0.006045	-0.094042	0.000370	0.008463	0.002260	-0.501709	0.107422	-0.467529	0.048105	0.006662	0.084183	0.151031	-0.248437	-0.074612	-0.953888	4.446632	-29.768658	-163.188306
62940		4.828233	0.679877	8.411264	0.005931	-0.025089	-0.090405	-0.001068	0.005699	-0.001049	-0.495361	0.103027	-0.474609	0.048285	0.006799	0.084111	0.151018	-0.248448	-0.074609	-0.953887	4.446564	-29.769883	-163.189839
62941		4.837144	0.660552	8.399917	-0.012739	-0.011568	-0.097102	0.002161	0.007256	0.005536	-0.499268	0.108398	-0.472656	0.048374	0.006606	0.083997	0.151038	-0.248451	-0.074611	-0.953883	4.446087	-29.770376	-163.187269
62942		4.817731	0.646852	8.407914	0.002465	0.008016	-0.100741	0.001126	0.010176	-0.001939	-0.506348	0.111084	-0.479492	0.048182	0.006468	0.084077	0.151025	-0.248439	-0.074617	-0.953888	4.447453	-29.769003	-163.189159
62943		4.823041	0.666515	8.380746	-0.008002	-0.017910	-0.120294	-0.002889	0.009685	0.002101	-0.504639	0.108887	-0.475098	0.048234	0.006667	0.083805	0.151029	-0.248433	-0.074599	-0.953890	4.445106	-29.767941	-163.188050
62944		4.816174	0.646399	8.408841	0.003885	0.008535	-0.100742	-0.004696	0.007674	0.000203	-0.506104	0.099609	-0.477295	0.048165	0.006466	0.084086	0.151019	-0.248438	-0.074576	-0.953892	4.442500	-29.768093	-163.188658
62945		4.815607	0.646211	8.409180	0.004588	0.008793	-0.100743	0.001455	0.005984	0.001932	-0.505371	0.112549	-0.472412	0.048159	0.006462	0.084090	0.151017	-0.248447	-0.074580	-0.953890	4.442851	-29.769167	-163.188914
62946		4.833632	0.659934	8.401987	-0.009177	-0.010248	-0.097096	-0.000343	0.010191	0.001180	-0.500488	0.108398	-0.474854	0.048341	0.006600	0.084017	0.151018	-0.248437	-0.074574	-0.953893	4.442357	-29.767924	-163.188750
62947		4.814115	0.646147	8.410039	0.006012	0.009311	-0.100744	0.000027	0.009438	-0.000231	-0.493652	0.110107	-0.477539	0.048145	0.006461	0.084098	0.151014	-0.248429	-0.074573	-0.953896	4.442432	-29.766919	-163.189244
62948		4.853987	0.634649	8.411349	-0.030433	0.010402	-0.080590	0.001103	0.009957	0.001965	-0.500244	0.105469	-0.475586	0.048544	0.006347	0.084111	0.151019	-0.248419	-0.074574	-0.953897	4.442514	-29.765846	-163.188576
62949		4.834307	0.673265	8.435095	0.009006	-0.015880	-0.067211	0.002917	0.008970	0.001340	-0.497559	0.103760	-0.472412	0.048347	0.006732	0.084349	0.151029	-0.248411	-0.074585	-0.953897	4.443790	-29.765119	-163.187784
62950		4.827451	0.646829	8.372029	-0.022410	-0.002808	-0.126975	-0.000335	0.007192	-0.001344	-0.501465	0.109131	-0.479492	0.048278	0.006468	0.083719	0.151016	-0.248414	-0.074585	-0.953898	4.444201	-29.765478	-163.189435
62951		4.820511	0.679348	8.415735	0.013729	-0.022221	-0.090406	0.001085	0.006738	0.003343	-0.496338	0.102295	-0.468994	0.048208	0.006794	0.084156	0.151028	-0.248419	-0.074586	-0.953895	4.443840	-29.766143	-163.187917
62952		4.829287	0.659877	8.404489	-0.004924	-0.008684	-0.097092	-0.002888	0.009687	0.002102	-0.510010	0.108154	-0.467285	0.048297	0.006600	0.084042	0.151029	-0.248414	-0.074568	-0.953897	4.441599	-29.765229	-163.187172
62953		4.897371	0.642645	8.386585	-0.075229	-0.013643	-0.079949	0.000372	0.008465	0.002262	-0.501709	0.113281	-0.468262	0.048977	0.006427	0.083864	0.151027	-0.248413	-0.074564	-0.953898	4.441124	-29.764948	-163.187294
62954		5.333642	0.149371	8.174891	-0.693112	0.296395	-0.079721	0.012936	-0.005769	0.016250	-0.506592	0.105957	-0.465088	0.053334	0.001493	0.081751	0.151110	-0.248474	-0.074615	-0.953865	4.443718	-29.773491	-163.178029
62955		5.900415	0.783846	7.891767	-1.084437	-0.505528	-0.000565	-0.002521	-0.000285	-0.002981	-0.510498	0.104736	-0.460938	0.059004	0.007839	0.078918	0.151080	-0.248515	-0.074611	-0.953860	4.443455	-29.777999	-163.181527
62956		6.313079	-0.005258	7.636429	-1.797949	0.079262	-0.069426	-0.012060	-0.007689	0.010967	-0.513428	0.111084	-0.465088	0.063128	-0.000045	0.076367	0.151106	-0.248603	-0.074551	-0.953837	4.433500	-29.787405	-163.175836
62957		6.230913	0.323339	7.637750	-1.620684	-0.210520	-0.086788	-0.005856	0.000278	0.008566	-0.512939	0.112793	-0.449951	0.062309	0.003238	0.076377	0.151118	-0.248649	-0.074513	-0.953826	4.427530	-29.792248	-163.172858
62958		6.046795	0.191728	7.654211	-1.502388	-0.036934	-0.172724	0.000699	0.004272	0.006132	-0.517334	0.103271	-0.452881	0.060470	0.001919	0.076541	0.151141	-0.248668	-0.074511	-0.953818	4.426163	-29.794606	-163.169738
62959		5.307939	0.414128	8.122136	-0.604885	0.041446	-0.120050	0.019992	0.007788	-0.003434	-0.514893	0.111084	-0.466064	0.053083	0.004132	0.081220	0.151126	-0.248656	-0.074605	-0.953816	4.438698	-29.794751	-163.174794
62960		4.859256	0.719975	8.433331	0.007381	-0.064865	-0.053203	0.019993	0.007789	-0.003433	-0.513184	0.110107	-0.466797	0.048596	0.007190	0.084332	0.151128	-0.248641	-0.074704	-0.953812	4.451425	-29.794676	-163.177790
62961		4.166123	1.146237	8.754993	0.866804	-0.222096	-0.090565	-0.001078	0.011701	0.004000	-0.512939	0.109131	-0.457764	0.041666	0.011464	0.087547	0.151139	-0.248627	-0.074689	-0.953815	4.449392	-29.792766	-163.175963
62962		4.686005	0.733030	8.426496	0.152529	-0.035125	-0.144321	-0.011294	0.000244	0.007915	-0.512207	0.097168	-0.456543	0.046860	0.007337	0.084264	0.151154	-0.248675	-0.074631	-0.953805	4.440673	-29.797504	-163.171876
62963		5.024288	0.515503	8.240086	-0.282487	0.043649	-0.152122	-0.005495	0.002527	0.009680	-0.519043	0.119629	-0.460693	0.050244	0.005160	0.082400	0.151181	-0.248710	-0.074594	-0.953794	4.434530	-29.801065	-163.167125
62964		4.858039	0.561476	8.387322	-0.062493	0.073728	-0.104257	-0.000701	0.007947	0.000066	-0.519531	0.114258	-0.455566	0.048584	0.005615	0.083871	0.151174	-0.248710	-0.074590	-0.953795	4.434251	-29.801055	-163.167810
62965		5.276849	0.471707	8.158876	-0.542402	0.003276	-0.099774	-0.003655	0.001758	0.005152	-0.518066	0.114502	-0.459473	0.052769	0.004720	0.081588	0.151187	-0.248745	-0.074570	-0.953786	4.430630	-29.804832	-163.165371
62966		5.226594	0.450120	8.154124	-0.509433	0.035286	-0.130287	0.005449	0.006255	0.001798	-0.512207	0.116211	-0.457520	0.052268	0.004499	0.081540	0.151196	-0.248750	-0.074594	-0.953781	4.433350	-29.805866	-163.165002
62967		4.941126	0.499795	8.405950	-0.142742	0.115654	-0.050988	0.012395	0.012714	-0.003422	-0.514404	0.109131	-0.459473	0.049417	0.004992	0.084057	0.151191	-0.248717	-0.074653	-0.953786	4.441462	-29.803015	-163.167677
62968		5.020795	0.620892	8.273363	-0.230350	-0.046707	-0.117989	0.007684	0.017173	-0.001844	-0.519531	0.110596	-0.451660	0.050215	0.006205	0.082730	0.151189	-0.248667	-0.074684	-0.953797	4.446378	-29.797650	-163.169147
62969		5.019354	0.621760	8.274172	-0.229620	-0.046449	-0.117970	0.009157	0.017158	-0.004959	-0.508301	0.108154	-0.459229	0.050201	0.006213	0.082738	0.151175	-0.248615	-0.074726	-0.953810	4.453022	-29.792199	-163.172638
62970		4.889097	0.748985	8.422455	-0.014309	-0.100833	-0.045823	0.008075	0.019641	-0.004630	-0.522705	0.111328	-0.455322	0.048899	0.007485	0.084220	0.151161	-0.248551	-0.074761	-0.953826	4.459009	-29.785300	-163.175814
62971		5.282137	0.626266	8.230144	-0.468508	-0.125748	-0.025291	-0.002159	0.014186	0.004329	-0.520508	0.109619	-0.456055	0.052827	0.006265	0.082298	0.151176	-0.248526	-0.074739	-0.953832	4.456209	-29.781965	-163.173325
62972		4.996241	0.616198	8.375304	-0.169510	-0.012938	-0.042379	0.007317	0.017931	-0.000430	-0.520020	0.112305	-0.456787	0.049970	0.006159	0.083749	0.151181	-0.248472	-0.074767	-0.953843	4.460432	-29.776230	-163.173824
62973		4.985626	0.635937	8.387582	-0.149392	-0.025951	-0.035703	0.001506	0.009426	-0.003346	-0.516846	0.109863	-0.452881	0.049860	0.006358	0.083874	0.151162	-0.248464	-0.074776	-0.953847	4.462361	-29.775285	-163.176632
62974		5.082363	0.502559	8.228156	-0.345531	0.041408	-0.134649	0.012009	0.010253	-0.000627	-0.523926	0.115234	-0.449707	0.050828	0.005020	0.082279	0.151169	-0.248444	-0.074832	-0.953847	4.469532	-29.773927	-163.177654
62975		4.908894	0.628351	8.343294	-0.109179	-0.007467	-0.112654	0.012799	0.012183	-0.008726	-0.522949	0.121826	-0.452881	0.049094	0.006276	0.083430	0.151139	-0.248412	-0.074899	-0.953855	4.479616	-29.771176	-163.183859
62976		5.112186	0.460633	8.225862	-0.386092	0.075374	-0.124722	0.011293	0.002757	-0.005380	-0.525391	0.119385	-0.453857	0.051123	0.004600	0.082258	0.151120	-0.248426	-0.074963	-0.953849	4.488122	-29.773887	-163.188395
62977		4.750901	0.704222	8.403476	0.073013	-0.023146	-0.133869	0.020111	0.011670	-0.016498	-0.519531	0.119873	-0.448730	0.047514	0.007030	0.084033	0.151062	-0.248388	-0.075075	-0.953859	4.504943	-29.771087	-163.199737
62978		5.007127	0.572182	8.322797	-0.220001	0.021600	-0.085467	0.015346	0.003466	-0.013314	-0.520020	0.117188	-0.449463	0.050073	0.005712	0.083228	0.151010	-0.248393	-0.075168	-0.953859	4.518345	-29.773033	-163.209459
62979		4.811636	0.776203	8.444720	0.063261	-0.093294	-0.063076	0.016091	0.011183	-0.012463	-0.528320	0.118652	-0.451904	0.048122	0.007752	0.084445	0.150966	-0.248362	-0.075256	-0.953867	4.531557	-29.770692	-163.218170
62980		5.193788	0.503967	8.185326	-0.460510	0.012528	-0.116464	0.010243	0.005460	-0.008952	-0.516113	0.115723	-0.448242	0.051940	0.005033	0.081852	0.150929	-0.248362	-0.075318	-0.953868	4.540558	-29.771693	-163.224919
62981		4.958020	0.569337	8.350448	-0.169440	0.047716	-0.086172	0.017567	0.011170	-0.015576	-0.524658	0.118408	-0.442627	0.049585	0.005682	0.083502	0.150873	-0.248329	-0.075417	-0.953878	4.555632	-29.769223	-163.235679
62982		5.151792	0.467046	8.169475	-0.446211	0.058050	-0.153653	0.016444	0.007212	-0.012491	-0.520508	0.117920	-0.447998	0.051521	0.004661	0.081693	0.150827	-0.248316	-0.075511	-0.953881	4.569298	-29.769060	-163.244664
62983		5.009108	0.654149	8.312445	-0.203305	-0.049104	-0.087870	0.026289	0.013213	-0.016129	-0.518066	0.117676	-0.447754	0.050097	0.006527	0.083122	0.150779	-0.248266	-0.075651	-0.953890	4.589489	-29.765404	-163.255676
62984		5.105972	0.529837	8.244193	-0.355982	0.031680	-0.107500	0.022639	0.002743	-0.017171	-0.515625	0.120850	-0.445557	0.051061	0.005285	0.082442	0.150718	-0.248267	-0.075784	-0.953889	4.608349	-29.767573	-163.267977
62985		4.922840	0.676584	8.370375	-0.100231	-0.030502	-0.079018	0.026684	0.015684	-0.018914	-0.516846	0.113770	-0.449951	0.049236	0.006750	0.083701	0.150658	-0.248204	-0.075928	-0.953903	4.629606	-29.762382	-163.280687
62986		4.866206	0.533893	8.362285	-0.104594	0.119349	-0.124157	0.027390	0.007736	-0.018970	-0.523926	0.119141	-0.452637	0.048666	0.005323	0.083622	0.150596	-0.248178	-0.076081	-0.953908	4.651644	-29.761608	-163.293906
62987		4.802176	0.678597	8.384041	0.004424	0.006880	-0.126952	0.029242	0.006968	-0.023489	-0.517334	0.112793	-0.444824	0.048025	0.006768	0.083840	0.150514	-0.248153	-0.076249	-0.953914	4.676087	-29.761175	-163.310088
62988		5.197098	0.462033	8.251840	-0.454771	0.087234	-0.060675	0.034644	0.000577	-0.020065	-0.510498	0.113281	-0.439697	0.051972	0.004601	0.082519	0.150453	-0.248154	-0.076445	-0.953908	4.702830	-29.764429	-163.324413
62989		4.816586	0.693876	8.435825	0.018806	0.007915	-0.073915	0.037596	0.009779	-0.022628	-0.520752	0.113525	-0.453125	0.048171	0.006917	0.084357	0.150387	-0.248110	-0.076649	-0.953913	4.731698	-29.762427	-163.339874
62990		4.888256	0.590085	8.418554	-0.083845	0.088348	-0.060740	0.041236	0.007812	-0.023862	-0.513672	0.115234	-0.450195	0.048887	0.005878	0.084185	0.150318	-0.248071	-0.076875	-0.953916	4.763264	-29.761357	-163.356305
62991		4.955858	0.727304	8.355882	-0.124807	-0.067503	-0.071531	0.036834	0.001854	-0.019560	-0.511475	0.112549	-0.444580	0.049560	0.007253	0.083560	0.150262	-0.248066	-0.077078	-0.953910	4.790907	-29.764012	-163.370180
62992		5.074542	0.683463	8.327283	-0.251538	-0.058222	-0.040529	0.032115	0.006310	-0.017997	-0.519775	0.117676	-0.452881	0.050749	0.006817	0.083272	0.150210	-0.248043	-0.077255	-0.953910	4.815373	-29.764067	-163.382836
62993		5.097161	0.550175	8.213915	-0.365536	0.040467	-0.137105	0.038287	0.001633	-0.018763	-0.512695	0.116211	-0.450684	0.050973	0.005481	0.082140	0.150160	-0.248038	-0.077464	-0.953902	4.843598	-29.766883	-163.396204
62994		5.011630	0.675796	8.301837	-0.214643	-0.032891	-0.094330	0.040125	-0.002354	-0.021895	-0.519043	0.112305	-0.450439	0.050116	0.006736	0.083020	0.150096	-0.248049	-0.077690	-0.953891	4.874167	-29.771685	-163.411908
62995		5.084204	0.624597	8.299483	-0.292975	0.001696	-0.064106	0.044123	-0.008293	-0.023148	-0.509766	0.110840	-0.444336	0.050839	0.006222	0.082998	0.150028	-0.248086	-0.077940	-0.953871	4.907448	-29.779953	-163.428722
62996		4.862329	0.627432	8.376957	-0.072982	0.076141	-0.107112	0.041239	-0.001605	-0.023591	-0.513672	0.116699	-0.458008	0.048623	0.006251	0.083771	0.149957	-0.248092	-0.078172	-0.953862	4.939196	-29.784227	-163.445508
62997		5.044153	0.645353	8.297304	-0.254410	0.001351	-0.084353	0.041600	-0.011800	-0.024737	-0.516602	0.107666	-0.446533	0.050437	0.006430	0.082977	0.149877	-0.248146	-0.078415	-0.953840	4.971656	-29.794408	-163.463580
62998		5.159966	0.648854	8.343072	-0.329400	-0.015377	0.013012	0.043783	0.001926	-0.021985	-0.519043	0.114746	-0.455322	0.051601	0.006465	0.083432	0.149819	-0.248134	-0.078655	-0.953833	5.004243	-29.796731	-163.479114
62999		4.806410	0.697541	8.337953	-0.022351	0.029671	-0.163427	0.045575	-0.005487	-0.019823	-0.517578	0.117920	-0.449219	0.048063	0.006952	0.083382	0.149770	-0.248158	-0.078905	-0.953814	5.037201	-29.803549	-163.493605
63000		4.794157	0.760391	8.332291	0.005855	-0.022805	-0.169625	0.041601	-0.015003	-0.023331	-0.513916	0.108154	-0.444824	0.047936	0.007581	0.083328	0.149695	-0.248227	-0.079150	-0.953787	5.069473	-29.815450	-163.511015
63001		5.036408	0.736076	8.321146	-0.207797	-0.056700	-0.060647	0.047751	-0.019875	-0.020184	-0.513672	0.110107	-0.449463	0.050357	0.007336	0.083218	0.149642	-0.248318	-0.079422	-0.953749	5.104226	-29.830445	-163.526597
63002		4.907635	0.637012	8.282288	-0.149291	0.065166	-0.165904	0.044508	-0.021669	-0.022863	-0.520508	0.110596	-0.455322	0.049068	0.006346	0.082830	0.149570	-0.248417	-0.079684	-0.953713	5.138225	-29.846157	-163.544113
63003		5.066050	0.621999	8.237040	-0.304945	0.035883	-0.127323	0.048143	-0.026842	-0.022697	-0.516113	0.112549	-0.445801	0.050650	0.006194	0.082379	0.149502	-0.248539	-0.079966	-0.953668	5.174251	-29.864988	-163.561788
63004		5.155577	0.632064	8.300600	-0.346019	0.025192	-0.027031	0.053275	-0.028815	-0.027029	-0.514160	0.109375	-0.448730	0.051545	0.006292	0.083015	0.149419	-0.248664	-0.080281	-0.953622	5.214876	-29.884542	-163.582502
63005		4.816686	0.676067	8.314494	-0.042247	0.077082	-0.180418	0.063141	-0.028999	-0.031784	-0.512451	0.117920	-0.450195	0.048156	0.006727	0.083154	0.149326	-0.248782	-0.080648	-0.953575	5.262564	-29.904119	-163.606324
63006		4.960852	0.610366	8.292597	-0.191535	0.106585	-0.132723	0.058846	-0.043777	-0.038874	-0.511230	0.111572	-0.449463	0.049592	0.006070	0.082939	0.149187	-0.248969	-0.081015	-0.953517	5.310760	-29.931554	-163.635791
63007		4.923284	0.681259	8.303923	-0.129422	0.060103	-0.136035	0.066519	-0.051651	-0.041324	-0.510010	0.117920	-0.452393	0.049213	0.006775	0.083054	0.149043	-0.249189	-0.081426	-0.953447	5.364255	-29.963512	-163.667335
63008		4.775658	0.573755	8.422040	0.014700	0.234507	-0.116727	0.081536	-0.060019	-0.051515	-0.508789	0.112793	-0.459961	0.047733	0.005691	0.084237	0.148865	-0.249431	-0.081930	-0.953368	5.430184	-29.999481	-163.706218
63009		4.811738	0.644641	8.445637	0.022060	0.176535	-0.072795	0.094080	-0.077920	-0.068279	-0.500732	0.116699	-0.446045	0.048087	0.006390	0.084478	0.148616	-0.249744	-0.082526	-0.953274	5.509268	-30.044886	-163.757279
63010		4.873163	0.534594	8.431993	-0.066051	0.276299	-0.063262	0.099687	-0.096059	-0.078674	-0.511963	0.107910	-0.453125	0.048693	0.005285	0.084346	0.148317	-0.250133	-0.083176	-0.953162	5.595850	-30.099811	-163.816516
63011		5.084730	0.527958	8.263818	-0.313738	0.208292	-0.102792	0.110068	-0.118602	-0.090575	-0.507080	0.107910	-0.443604	0.050801	0.005211	0.082671	0.147965	-0.250619	-0.083906	-0.953025	5.692989	-30.167019	-163.885144
63012		4.968345	0.675103	8.343174	-0.125740	0.134006	-0.080526	0.115406	-0.138748	-0.105902	-0.511475	0.107910	-0.444092	0.049629	0.006677	0.083470	0.147538	-0.251188	-0.084697	-0.952871	5.799306	-30.244545	-163.965469
63013		4.940007	0.709873	8.424836	-0.044206	0.146816	-0.021779	0.120760	-0.168682	-0.113080	-0.515869	0.109375	-0.461182	0.049333	0.007020	0.084294	0.147070	-0.251894	-0.085542	-0.952682	5.912128	-30.338767	-164.052737
63014		5.072591	0.722923	8.309628	-0.190305	0.096861	-0.052664	0.121055	-0.196415	-0.119770	-0.515869	0.110107	-0.454346	0.050649	0.007149	0.083150	0.146559	-0.252727	-0.086420	-0.952461	6.028816	-30.448056	-164.146713
63015		5.019010	0.645104	8.347086	-0.139663	0.213736	-0.054859	0.118075	-0.216715	-0.125510	-0.524170	0.108887	-0.450195	0.050104	0.006370	0.083529	0.146007	-0.253658	-0.087303	-0.952217	6.146594	-30.568585	-164.246213
63016		4.970560	0.744797	8.399746	-0.027501	0.166899	-0.025541	0.118830	-0.235139	-0.145527	-0.520264	0.103271	-0.452393	0.049612	0.007362	0.084060	0.145353	-0.254665	-0.088231	-0.951963	6.272843	-30.697995	-164.360792
63017		5.089600	0.855824	8.258183	-0.138025	0.024694	-0.075423	0.117054	-0.257830	-0.151468	-0.519531	0.097656	-0.442383	0.050796	0.008471	0.082652	0.144658	-0.255780	-0.089172	-0.951682	6.401216	-30.839924	-164.481403
63018		5.083737	0.825619	8.248371	-0.127716	0.076815	-0.089552	0.108443	-0.287164	-0.148145	-0.520508	0.099854	-0.444824	0.050725	0.008174	0.082561	0.143954	-0.257039	-0.090090	-0.951363	6.525425	-30.998346	-164.602637
63019		5.164173	0.778822	8.178270	-0.219010	0.110899	-0.112224	0.114178	-0.320185	-0.149700	-0.521240	0.100830	-0.441650	0.051516	0.007703	0.081870	0.143235	-0.258452	-0.091060	-0.950996	6.655173	-31.175426	-164.727996
63020		5.027434	0.951390	8.278565	0.022258	0.029309	-0.080606	0.082595	-0.365859	-0.138433	-0.527344	0.092041	-0.445313	0.050129	0.009445	0.082881	0.142507	-0.260107	-0.091899	-0.950574	6.765716	-31.378828	-164.850185
63021		4.983771	1.238285	8.409271	0.242944	-0.174740	0.036042	0.062900	-0.416267	-0.119386	-0.522461	0.099365	-0.439453	0.049670	0.012327	0.084200	0.141821	-0.262025	-0.092654	-0.950076	6.860985	-31.612214	-164.964320
63022		4.954099	0.939891	8.439773	0.223940	0.145352	0.015070	0.071012	-0.462692	-0.115597	-0.527100	0.088867	-0.439941	0.049351	0.009340	0.084515	0.141141	-0.264156	-0.093475	-0.949507	6.962595	-31.871900	-165.080536
63023		5.006607	0.779636	8.301234	0.104892	0.276573	-0.091744	0.079067	-0.499050	-0.123782	-0.525146	0.086182	-0.432373	0.049864	0.007733	0.083140	0.140414	-0.266450	-0.094370	-0.948885	7.074052	-32.151692	-165.206070
63024		5.376427	0.834875	8.060370	-0.252398	0.113129	-0.091792	0.101866	-0.539489	-0.142197	-0.532471	0.086670	-0.434082	0.053552	0.008270	0.080753	0.139611	-0.268908	-0.095426	-0.948204	7.208360	-32.452746	-165.348590
63025		5.545765	0.667378	7.925064	-0.463214	0.233827	-0.130848	0.128789	-0.570815	-0.145623	-0.532959	0.092529	-0.428711	0.055236	0.006582	0.079413	0.138811	-0.271493	-0.096635	-0.947462	7.361981	-32.771240	-165.497456
63026		5.533536	1.137196	8.016925	-0.211721	-0.146851	-0.008728	0.130078	-0.606307	-0.145596	-0.537109	0.086670	-0.427246	0.055100	0.011280	0.080344	0.137995	-0.274241	-0.097874	-0.946663	7.519828	-33.109369	-165.651079
63027		5.300940	0.949874	8.097851	0.009571	0.135701	-0.088564	0.122631	-0.637528	-0.147537	-0.542725	0.082275	-0.423096	0.052758	0.009410	0.081153	0.137142	-0.277139	-0.099100	-0.945814	7.677168	-33.464930	-165.810462
63028		5.268951	1.372113	8.193614	0.270659	-0.193145	0.019347	0.145854	-0.671491	-0.123024	-0.549072	0.082764	-0.418457	0.052422	0.013629	0.082122	0.136419	-0.280190	-0.100425	-0.944880	7.842427	-33.841089	-165.958268
63029		5.281285	1.451534	8.171377	0.332752	-0.239666	0.015932	0.105468	-0.694204	-0.111198	-0.550537	0.081787	-0.414307	0.052537	0.014443	0.081904	0.135682	-0.283379	-0.101556	-0.943914	7.982883	-34.230952	-166.101969
63030		5.579051	1.365299	7.927353	0.004211	-0.247539	-0.026419	0.114019	-0.725452	-0.088757	-0.556396	0.073486	-0.406494	0.055508	0.013583	0.079483	0.135046	-0.286716	-0.102716	-0.942871	8.123309	-34.639839	-166.235158
63031		5.838502	1.307123	7.651381	-0.298598	-0.282541	-0.108520	0.105314	-0.758042	-0.078852	-0.552734	0.081055	-0.407959	0.058100	0.013008	0.076741	0.134425	-0.290216	-0.103841	-0.941765	8.258383	-35.067976	-166.366627
63032		5.734890	1.155547	7.750113	-0.144780	-0.056347	-0.103730	0.118465	-0.797496	-0.063712	-0.561035	0.075928	-0.408447	0.057043	0.011491	0.077736	0.133871	-0.293893	-0.105031	-0.940571	8.399375	-35.519251	-166.493553
63033		5.613129	1.258324	7.867927	0.117461	-0.059964	-0.067077	0.125255	-0.837488	-0.050963	-0.561035	0.072510	-0.400146	0.055804	0.012520	0.078921	0.133365	-0.297758	-0.106259	-0.939289	8.543362	-35.994187	-166.617772
63034		5.655866	1.347965	7.824442	0.165008	-0.125746	-0.066711	0.134899	-0.885168	-0.037116	-0.563721	0.067627	-0.393799	0.056214	0.013416	0.078503	0.132910	-0.301839	-0.107542	-0.937903	8.692526	-36.496882	-166.739700
63035		5.489367	1.412495	7.911657	0.443130	-0.091374	-0.090692	0.137557	-0.931858	-0.022758	-0.573486	0.073975	-0.392578	0.054526	0.014064	0.079381	0.132497	-0.306141	-0.108844	-0.936416	8.842437	-37.027186	-166.859096
63036		5.669154	1.255801	7.857145	0.310001	0.048855	-0.047863	0.146195	-0.983561	-0.003428	-0.582764	0.066162	-0.378662	0.056304	0.012499	0.078858	0.132158	-0.310681	-0.110189	-0.934810	8.995054	-37.588043	-166.973056
63037		5.856168	1.320245	7.590188	0.129799	-0.079666	-0.136705	0.156106	-1.047757	0.013058	-0.581543	0.068604	-0.375732	0.058162	0.013147	0.076218	0.131871	-0.315517	-0.111594	-0.933063	9.153157	-38.186703	-167.085474
63038		5.929897	1.245564	7.509455	0.101304	-0.000987	-0.164073	0.184351	-1.119191	0.025740	-0.589355	0.068115	-0.376221	0.058876	0.012394	0.075436	0.131645	-0.320663	-0.113154	-0.931150	9.330003	-38.826427	-167.200211
63039		5.850216	1.117926	7.549082	0.246970	0.192050	-0.202046	0.190229	-1.194578	0.037167	-0.589844	0.065186	-0.363037	0.058048	0.011118	0.075849	0.131434	-0.326153	-0.114769	-0.929073	9.513994	-39.509735	-167.319509
63040		5.982795	1.030627	7.513426	0.209069	0.291513	-0.159832	0.212147	-1.275271	0.042993	-0.599121	0.067871	-0.351318	0.059345	0.010239	0.075525	0.131235	-0.331992	-0.116525	-0.926812	9.718164	-40.238680	-167.448712
63041		6.081553	1.081233	7.373534	0.187103	0.239384	-0.198656	0.234860	-1.349553	0.053941	-0.604248	0.066406	-0.351318	0.060313	0.010742	0.074156	0.131073	-0.338155	-0.118412	-0.924365	9.940787	-41.010537	-167.584530
63042		6.225347	1.156715	7.262188	0.163719	0.168553	-0.180686	0.248505	-1.440001	0.058368	-0.608887	0.069092	-0.333740	0.061725	0.011495	0.073082	0.130897	-0.344709	-0.120407	-0.921707	10.182336	-41.833160	-167.734741
63043		6.372316	1.215724	7.069898	0.093356	0.091154	-0.218475	0.267683	-1.554993	0.075175	-0.609375	0.063965	-0.330322	0.063166	0.012086	0.071208	0.130753	-0.351774	-0.122530	-0.918774	10.443156	-42.722104	-167.895021
63044		6.157334	1.455900	7.318955	0.625128	0.044101	-0.158443	0.285568	-1.702186	0.098402	-0.617920	0.062012	-0.314697	0.060940	0.014484	0.073731	0.130649	-0.359490	-0.124782	-0.915493	10.724146	-43.695545	-168.066757
63045		6.257371	1.389616	7.358862	0.719717	0.174474	-0.081949	0.284753	-1.877741	0.120547	-0.620850	0.067139	-0.301025	0.061871	0.013828	0.074191	0.130523	-0.367996	-0.127095	-0.911806	11.020079	-44.769726	-168.257581
63046		6.227662	1.667404	7.711377	1.239443	0.110810	0.161139	0.280432	-2.058487	0.145611	-0.639160	0.061279	-0.288330	0.061466	0.016610	0.077773	0.130377	-0.377306	-0.129447	-0.907681	11.330665	-45.947340	-168.468558
63047		6.157649	1.782754	7.943191	1.679463	0.170229	0.253850	0.247734	-2.230812	0.168070	-0.633301	0.064941	-0.277832	0.060670	0.017780	0.080134	0.130143	-0.387392	-0.131705	-0.903130	11.643231	-47.223828	-168.703954
63048		6.978793	1.813471	8.201673	1.543319	0.203783	0.996135	0.211446	-2.374154	0.208155	-0.641113	0.063721	-0.261475	0.068789	0.018119	0.082856	0.129908	-0.398120	-0.133798	-0.898177	11.944421	-48.584144	-168.946857
63049		6.428620	1.737431	7.435193	1.594381	0.162458	0.038920	0.167765	-2.512390	0.263364	-0.656982	0.060303	-0.241943	0.063322	0.017395	0.075166	0.129723	-0.409474	-0.135653	-0.892805	12.220818	-50.027712	-169.185021
63050		6.988838	1.719215	7.151406	1.291216	0.092904	0.250094	0.143204	-2.785659	0.304414	-0.651855	0.067627	-0.225098	0.068857	0.017246	0.072490	0.129461	-0.422017	-0.137468	-0.886704	12.515113	-51.628447	-169.459043
63051		6.878400	1.928164	7.162930	1.720663	-0.000492	0.155721	0.106943	-3.037172	0.345533	-0.670166	0.065918	-0.189209	0.067652	0.019361	0.072673	0.129104	-0.435636	-0.139168	-0.879878	12.823936	-53.374098	-169.771426
63052		7.136598	1.863030	6.927922	1.679463	0.033319	0.165647	0.021435	-3.269975	0.376793	-0.670898	0.061768	-0.172607	0.070185	0.018756	0.070435	0.128505	-0.450245	-0.140539	-0.872361	13.131227	-55.252623	-170.134858
63053		7.988413	1.520858	6.618111	1.185411	0.244693	0.601277	0.005080	-3.512703	0.419567	-0.675293	0.064941	-0.147705	0.078673	0.015373	0.067570	0.127846	-0.465821	-0.141857	-0.864027	13.479524	-57.270865	-170.550495
63054		8.920977	2.815343	6.941953	1.780812	-0.825648	1.669134	-0.090039	-3.722562	0.514831	-0.684570	0.071533	-0.115479	0.087824	0.028412	0.071050	0.127187	-0.482276	-0.142629	-0.854921	13.780758	-59.417506	-170.965178
63055		9.362294	2.476856	7.820308	2.570745	-0.136364	2.365090	-0.257851	-3.824601	0.602883	-0.698242	0.072021	-0.087646	0.092030	0.025150	0.079941	0.126380	-0.499159	-0.142483	-0.845320	13.972141	-61.631904	-171.354982
63056		10.003308	0.686970	7.031246	1.449545	1.278879	2.279542	-0.045334	-3.729180	0.573853	-0.694580	0.075195	-0.060547	0.098679	0.007170	0.072159	0.126001	-0.515302	-0.143197	-0.835513	14.344431	-63.788398	-171.803294
63057		9.237233	1.788918	6.067793	1.822556	0.049045	1.232863	0.082621	-3.928750	0.645814	-0.697266	0.082520	-0.029541	0.091098	0.018159	0.062483	0.126063	-0.532052	-0.144330	-0.824741	14.841922	-66.064094	-172.300472
63058		11.756666	2.985699	7.374467	2.834371	-0.608957	4.082788	-0.065064	-4.012256	0.770126	-0.701172	0.087402	0.006836	0.115940	0.030330	0.076072	0.126133	-0.549114	-0.144518	-0.813436	15.213617	-68.403023	-172.744150
63059		13.632631	0.656096	8.171722	2.563402	1.850661	5.776691	-0.238802	-3.758081	0.859062	-0.701172	0.093262	0.032227	0.134729	0.007242	0.084251	0.126221	-0.565096	-0.143537	-0.802578	15.328089	-70.613807	-173.012646
63060		11.161470	0.149741	6.030931	1.862943	1.689924	2.622247	-0.094478	-3.655906	0.932093	-0.694824	0.097656	0.070313	0.110479	0.002043	0.062335	0.127037	-0.580425	-0.142813	-0.791563	15.400277	-72.779384	-173.145910
63061		12.423312	2.493226	7.263613	3.930215	-0.003936	4.253031	0.035847	-3.537195	0.966415	-0.697754	0.104004	0.100830	0.122800	0.025515	0.074821	0.128408	-0.595022	-0.142378	-0.780506	15.444112	-74.884165	-173.170416
63062		14.850089	4.162840	8.173963	5.265505	-1.246510	6.781306	-0.301460	-3.175087	1.077254	-0.698486	0.109863	0.125000	0.146952	0.042548	0.084017	0.129426	-0.608318	-0.140022	-0.770449	14.797273	-76.805659	-172.681765
63063		13.973791	3.375986	7.308247	4.891396	-0.841484	5.530794	-0.709825	-2.646097	1.169003	-0.683350	0.118408	0.145264	0.138554	0.034835	0.074799	0.129892	-0.619748	-0.135436	-0.762035	13.100591	-78.442317	-171.361465
63064		12.062696	3.103465	6.072985	4.427608	-1.064366	3.274498	-0.960690	-2.186944	1.174483	-0.694580	0.114990	0.160645	0.119768	0.032035	0.061890	0.129887	-0.629474	-0.129552	-0.755055	10.460117	-79.810929	-169.233629
63065		10.333362	2.286472	5.655297	4.323503	-0.498413	1.369516	-1.108800	-1.717435	1.148509	-0.692383	0.127197	0.184814	0.102709	0.023772	0.057307	0.129602	-0.637403	-0.122865	-0.749550	6.878707	-80.886907	-166.245547
63066		8.285161	1.597668	5.658448	4.598760	0.109529	-0.754563	-1.280035	-1.516200	1.186717	-0.689209	0.127686	0.197266	0.082322	0.016831	0.057104	0.129020	-0.644630	-0.115267	-0.744660	2.144572	-81.811511	-162.199193
63067		3.333559	0.126562	11.451410	10.291569	3.533505	-4.928208	-1.208080	-0.832993	0.925298	-0.694092	0.145264	0.204102	0.032850	0.002111	0.114641	0.128077	-0.649043	-0.108328	-0.742027	-2.345964	-82.291756	-158.364172
63068		8.548217	-2.959717	14.863426	11.871371	7.179052	0.688933	-0.444925	0.223832	0.460558	-0.694092	0.137207	0.204590	0.085716	-0.029069	0.148603	0.128452	-0.648773	-0.105046	-0.742670	-4.471274	-82.152648	-156.476643
63069		10.659736	0.844028	13.701886	11.722975	3.042807	2.653085	0.373145	0.821971	0.152370	-0.693115	0.138184	0.197754	0.107153	0.008267	0.136595	0.130651	-0.645574	-0.105415	-0.745018	-4.604739	-81.679449	-156.125976
63070		3.179223	4.934277	11.195990	11.642700	-1.184115	-5.032745	0.392602	1.433245	0.043969	-0.703125	0.133789	0.191406	0.032583	0.049130	0.111825	0.132824	-0.640014	-0.105804	-0.749364	-4.134286	-80.863351	-156.374571
63071		1.194851	5.053883	8.657256	9.555963	-2.005517	-7.248108	-0.061910	1.758626	0.069270	-0.711914	0.133545	0.176758	0.012692	0.050570	0.086447	0.133803	-0.633494	-0.104186	-0.754935	-3.979466	-79.858178	-156.567583
63072		2.079882	3.513360	7.924072	8.164552	-0.902794	-6.350982	-0.524440	1.887954	0.156474	-0.708008	0.137207	0.156982	0.021517	0.035358	0.078947	0.133700	-0.626800	-0.100450	-0.761023	-4.336824	-78.777431	-156.509937
63073		1.385024	1.489230	6.591871	6.333240	0.565570	-7.137364	-0.695057	1.993307	0.132818	-0.717041	0.122070	0.149658	0.014496	0.015130	0.065724	0.133013	-0.619726	-0.096059	-0.767476	-4.665430	-77.635324	-156.580988
63074		0.923866	-0.158452	5.820087	5.139660	1.864668	-7.608690	-0.583621	2.077270	0.024385	-0.728516	0.133057	0.129395	0.009843	-0.001414	0.058105	0.132279	-0.612150	-0.092365	-0.774108	-4.639817	-76.452546	-156.950611
63075		1.510681	-1.036596	5.675872	4.559936	2.557924	-6.943042	-0.277496	2.187143	-0.110410	-0.727539	0.119629	0.117676	0.015721	-0.010296	0.056603	0.131997	-0.603793	-0.090185	-0.780946	-4.164797	-75.210121	-157.604348
63076		2.025698	-0.967453	5.693340	4.412508	2.420427	-6.330836	0.044538	2.290292	-0.221652	-0.731445	0.119141	0.101318	0.020896	-0.009710	0.056694	0.132281	-0.594712	-0.089517	-0.787912	-3.367290	-73.913645	-158.405406
63077		2.451237	-0.748515	5.829161	4.408190	2.194663	-5.775686	0.276799	2.374905	-0.283048	-0.737061	0.120605	0.089111	0.025191	-0.007601	0.057985	0.133036	-0.585016	-0.089880	-0.794971	-2.439337	-72.564809	-159.208696
63078		3.453520	-0.791076	5.941223	4.099580	2.152898	-4.673943	0.447620	2.467138	-0.278301	-0.735840	0.108398	0.055908	0.035253	-0.008092	0.058962	0.134328	-0.574772	-0.090832	-0.802086	-1.545070	-71.162227	-159.880004
63079		4.319471	-0.653979	5.925136	3.717019	1.913675	-3.753712	0.601632	2.580191	-0.227633	-0.734131	0.107666	0.039063	0.043946	-0.006767	0.058668	0.136297	-0.563878	-0.092165	-0.809302	-0.748028	-69.688523	-160.359884
63080		4.848725	-0.434529	5.740667	3.277382	1.577807	-3.223307	0.716794	2.657869	-0.147721	-0.735352	0.102051	0.018555	0.049241	-0.004586	0.056739	0.138923	-0.552546	-0.093669	-0.816468	-0.087468	-68.170927	-160.627839
63081		5.436116	-0.043551	5.685410	2.960630	1.104054	-2.609290	0.793853	2.689100	-0.076111	-0.733398	0.103760	-0.012939	0.055119	-0.000680	0.056114	0.142045	-0.540937	-0.095250	-0.823491	0.462218	-66.631625	-160.730388
63082		6.025511	0.331756	5.719772	2.689628	0.662617	-1.973356	0.810608	2.716058	-0.038710	-0.722900	0.095459	-0.031250	0.061025	0.003076	0.056385	0.145348	-0.529139	-0.096761	-0.830375	0.935147	-65.079869	-160.739893
63083		6.679775	0.351813	5.804736	2.284768	0.550852	-1.273978	0.816267	2.722081	-0.040890	-0.726807	0.091309	-0.056396	0.067580	0.003270	0.057145	0.148633	-0.517181	-0.098277	-0.837122	1.387843	-63.521523	-160.723063
63084		7.436235	0.189723	5.935652	1.774578	0.599253	-0.482548	0.852759	2.728481	-0.084274	-0.713379	0.092773	-0.079102	0.075164	0.001615	0.058342	0.151801	-0.505067	-0.100033	-0.843716	1.884765	-61.962051	-160.732642
63085		8.376977	0.091656	6.015960	1.116327	0.534633	0.426202	0.919419	2.747384	-0.154753	-0.710449	0.086182	-0.108398	0.084586	0.000578	0.059005	0.154821	-0.492658	-0.102214	-0.850218	2.465908	-60.387037	-160.794457
63086		9.271512	0.211674	6.205475	0.594175	0.304507	1.325508	0.999477	2.773123	-0.248037	-0.703613	0.077881	-0.130615	0.093566	0.001695	0.060770	0.157619	-0.479949	-0.104923	-0.856619	3.149105	-58.797659	-160.922823
63087		10.080382	0.833968	6.312131	0.183550	-0.406178	2.101342	1.021433	2.808303	-0.353745	-0.688721	0.079346	-0.152344	0.101691	0.007843	0.061738	0.160003	-0.466886	-0.107929	-0.862999	3.901520	-57.180499	-161.119726
63088		10.370852	1.464738	6.639132	0.176267	-0.959468	2.549182	0.939137	2.825787	-0.453983	-0.682373	0.063232	-0.166504	0.104666	0.014103	0.064984	0.161734	-0.453678	-0.110775	-0.869337	4.649367	-55.551087	-161.371857
63089		10.717442	1.538962	6.822616	-0.206376	-1.056921	2.939130	0.788117	2.826323	-0.570095	-0.673584	0.049561	-0.180908	0.108168	0.014817	0.066761	0.162582	-0.440399	-0.113203	-0.875672	5.363003	-53.910669	-161.692580
63090		11.581904	1.425666	6.834039	-1.105735	-1.140286	3.616429	0.655998	2.821755	-0.662252	-0.669434	0.044189	-0.209229	0.116814	0.013650	0.066742	0.162696	-0.427123	-0.115235	-0.881939	6.029178	-52.268743	-162.055871
63091		12.094891	1.371357	6.728119	-1.898839	-1.258206	3.907079	0.552354	2.822567	-0.735947	-0.655273	0.034668	-0.215088	0.121932	0.013083	0.065602	0.162230	-0.413766	-0.116940	-0.888146	6.649122	-50.616146	-162.443664
63092		12.259584	1.393788	6.611844	-2.472341	-1.384829	3.895423	0.466954	2.797652	-0.797316	-0.647217	0.026855	-0.229004	0.123559	0.013295	0.064426	0.161264	-0.400489	-0.118389	-0.894196	7.225357	-48.974239	-162.848065
63093		12.361796	1.448657	6.571329	-2.941810	-1.500651	3.868502	0.402872	2.748506	-0.851310	-0.643555	0.025635	-0.228516	0.124565	0.013828	0.064034	0.159865	-0.387340	-0.119673	-0.900050	7.768438	-47.350647	-163.266903
63094		12.339924	1.502382	6.720729	-3.200639	-1.521678	3.866717	0.346179	2.673708	-0.897512	-0.639893	0.006348	-0.248047	0.124349	0.014353	0.065574	0.158070	-0.374491	-0.120827	-0.905633	8.279818	-45.766387	-163.698274
63095		12.602208	1.439679	7.006923	-3.606490	-1.437604	4.147907	0.309354	2.598789	-0.972123	-0.649414	0.004883	-0.259277	0.126986	0.013674	0.068445	0.155792	-0.361868	-0.121989	-0.910988	8.788272	-44.212706	-164.166506
63096		13.189012	1.330311	7.387468	-4.212846	-1.332097	4.704785	0.276985	2.559535	-1.062405	-0.651855	0.001953	-0.264160	0.132889	0.012498	0.072196	0.152990	-0.349347	-0.123174	-0.916176	9.299073	-42.673168	-164.678811
63097		13.901815	1.333130	7.837448	-4.865700	-1.321667	5.386792	0.248957	2.589765	-1.154507	-0.648682	-0.019531	-0.281494	0.140091	0.012429	0.076581	0.149705	-0.336561	-0.124344	-0.921333	9.807228	-41.101769	-165.226040
63098		14.838811	1.601403	8.249277	-5.668564	-1.606557	6.189500	0.212254	2.724040	-1.235210	-0.656006	-0.027588	-0.304932	0.149588	0.015006	0.080477	0.146038	-0.323084	-0.125353	-0.926594	10.289570	-39.445858	-165.784328
63099		14.706950	1.997485	8.244020	-5.924732	-1.951055	5.977029	0.076982	2.903634	-1.258119	-0.653076	-0.038086	-0.324951	0.148367	0.019013	0.080300	0.142125	-0.308763	-0.125612	-0.932034	10.658864	-37.680717	-166.305827
63100		14.030340	2.059159	7.830875	-6.100108	-2.034771	5.054665	-0.114823	3.038265	-1.249083	-0.657959	-0.057861	-0.339600	0.141596	0.019754	0.076153	0.138006	-0.293897	-0.124835	-0.937547	10.876244	-35.841240	-166.779288
63101		12.994047	1.482723	7.078640	-6.325656	-1.579375	3.552285	-0.290207	3.094920	-1.216019	-0.647217	-0.059570	-0.368408	0.131102	0.014133	0.068743	0.133781	-0.278808	-0.123114	-0.942980	10.954051	-33.970238	-167.205761
63102		11.933060	0.807055	6.359697	-6.447488	-1.014725	2.056576	-0.373440	3.054148	-1.165660	-0.647705	-0.081787	-0.395020	0.120328	0.007488	0.061750	0.129616	-0.263941	-0.120924	-0.948110	10.951148	-32.129698	-167.593153
63103		11.121521	0.309970	5.762765	-6.562874	-0.615256	0.842429	-0.379994	2.952583	-1.106339	-0.642334	-0.090820	-0.422607	0.112065	0.002589	0.055972	0.125628	-0.249510	-0.118659	-0.952829	10.917141	-30.350857	-167.947409
63104		10.503451	-0.028618	5.320274	-6.642014	-0.342275	-0.097470	-0.339384	2.792860	-1.024434	-0.635742	-0.099609	-0.447021	0.105761	-0.000738	0.051730	0.121957	-0.235820	-0.116558	-0.957042	10.878318	-28.672936	-168.263780
63105		10.120381	-0.433902	5.140377	-6.767158	0.035262	-0.689612	-0.255871	2.606087	-0.922302	-0.630127	-0.109863	-0.450928	0.101841	-0.004743	0.050085	0.118739	-0.222969	-0.114825	-0.960730	10.858027	-27.109579	-168.533971
63106		9.986029	-0.459700	5.096032	-6.905852	0.052914	-0.969523	-0.156726	2.425203	-0.810493	-0.618164	-0.112305	-0.483643	0.100449	-0.004964	0.049748	0.116043	-0.210967	-0.113530	-0.963918	10.865098	-25.661812	-168.752426
63107		9.859379	-0.079311	5.132353	-6.887172	-0.295147	-1.093235	-0.101418	2.269080	-0.662984	-0.616943	-0.115967	-0.509033	0.099164	-0.001096	0.050201	0.114011	-0.199725	-0.112420	-0.966682	10.867114	-24.316394	-168.895128
63108		9.746222	0.152470	5.044324	-6.946659	-0.545861	-1.333383	-0.109092	2.117620	-0.484057	-0.596680	-0.123047	-0.526611	0.097992	0.001315	0.049407	0.112736	-0.189307	-0.111166	-0.969070	10.824389	-23.076959	-168.944894
63109		9.659450	-0.069060	4.674931	-7.218481	-0.452252	-1.884892	-0.110485	1.969896	-0.314331	-0.582275	-0.133057	-0.537842	0.097047	-0.000817	0.045795	0.112187	-0.179669	-0.109815	-0.971120	10.747233	-21.937798	-168.909265
63110		9.600638	-0.296583	4.209369	-7.515024	-0.385515	-2.508461	-0.042739	1.828225	-0.174211	-0.575928	-0.128174	-0.561035	0.096383	-0.003041	0.041214	0.112292	-0.170751	-0.108737	-0.972836	10.685175	-20.894399	-168.806974
63111		9.842050	-0.375502	3.878141	-7.979088	-0.481069	-2.873887	0.068094	1.703351	-0.066690	-0.577148	-0.134033	-0.565186	0.098745	-0.003801	0.037940	0.112938	-0.162417	-0.108168	-0.974251	10.671124	-19.931860	-168.655574
63112		9.673897	-0.110063	3.294087	-8.029631	-0.889686	-3.553398	0.181173	1.578846	-0.007232	-0.559814	-0.137207	-0.578125	0.096995	-0.001134	0.032175	0.113890	-0.154653	-0.108165	-0.975403	10.717264	-19.046580	-168.483387
63113		9.310624	0.241009	2.633250	-7.868316	-1.356270	-4.342005	0.262560	1.426075	0.042431	-0.548340	-0.138916	-0.585938	0.093290	0.002396	0.025671	0.115059	-0.147603	-0.108600	-0.976310	10.808323	-18.252347	-168.298639
63114		8.793085	0.693471	2.212559	-7.442293	-1.823937	-4.915829	0.278050	1.209750	0.082489	-0.542969	-0.138184	-0.598877	0.088060	0.006941	0.021603	0.116311	-0.141618	-0.109202	-0.976981	10.910662	-17.584913	-168.114172
63115		8.292544	1.078622	2.063570	-6.955871	-2.157434	-5.213899	0.232192	0.956408	0.123677	-0.548828	-0.140625	-0.609131	0.083016	0.010814	0.020251	0.117591	-0.136915	-0.109694	-0.977443	10.989682	-17.064638	-167.933790
63116		7.808171	1.255372	2.008466	-6.497696	-2.267090	-5.428917	0.155393	0.670083	0.155330	-0.539063	-0.142334	-0.607178	0.078139	0.012599	0.019833	0.118813	-0.133672	-0.109956	-0.977714	11.030172	-16.709154	-167.767430
63117		7.647513	1.152092	2.166895	-6.351674	-2.118461	-5.376981	0.094640	0.381474	0.177286	-0.535645	-0.141846	-0.621094	0.076506	0.011579	0.021529	0.119942	-0.131888	-0.110077	-0.977805	11.042342	-16.518645	-167.621292
63118		7.643479	1.064418	2.461715	-6.307203	-1.977666	-5.130402	0.074849	0.123072	0.172473	-0.529785	-0.145996	-0.614258	0.076441	0.010701	0.024574	0.120892	-0.131375	-0.110259	-0.977736	11.052729	-16.472754	-167.507610
63119		8.081961	1.029370	3.010535	-6.596444	-1.908861	-4.494400	0.109340	-0.080592	0.151929	-0.534424	-0.136719	-0.609131	0.080800	0.010339	0.030144	0.121652	-0.131830	-0.110746	-0.977526	11.092896	-16.539649	-167.429358
63120		8.398124	1.292191	3.604156	-6.673778	-2.077575	-3.785041	0.148887	-0.201766	0.124180	-0.529297	-0.136963	-0.609863	0.083937	0.012947	0.036136	0.122236	-0.132833	-0.111518	-0.977230	11.164267	-16.671190	-167.381361
63121		8.536060	1.487840	4.111880	-6.614964	-2.159714	-3.212434	0.148954	-0.286019	0.107593	-0.527588	-0.141113	-0.604980	0.085294	0.014894	0.041252	0.122691	-0.134244	-0.112354	-0.976884	11.241232	-16.849080	-167.353098
63122		8.312214	1.615933	4.446817	-6.271403	-2.140917	-2.916006	0.121728	-0.330420	0.082455	-0.539795	-0.139160	-0.592041	0.083042	0.016166	0.044615	0.122979	-0.135868	-0.113099	-0.976537	11.308381	-17.048355	-167.344942
63123		8.159646	1.800442	4.841641	-5.960781	-2.172155	-2.531642	0.070601	-0.372456	0.054927	-0.541504	-0.146729	-0.597168	0.081501	0.018010	0.048575	0.123074	-0.137722	-0.113640	-0.976202	11.352545	-17.269230	-167.358211
63124		7.968886	2.079475	5.237018	-5.584079	-2.282850	-2.140644	0.005156	-0.416699	0.023224	-0.532227	-0.134277	-0.586426	0.079577	0.020803	0.052537	0.122944	-0.139805	-0.113909	-0.975891	11.366399	-17.510298	-167.395412
63125		7.718360	2.524186	5.652609	-5.097267	-2.532036	-1.719288	-0.071305	-0.441181	-0.019911	-0.544189	-0.138672	-0.587646	0.077061	0.025254	0.056687	0.122535	-0.142040	-0.113852	-0.975627	11.345281	-17.761599	-167.461098
63126		7.489994	2.408403	6.014912	-4.793886	-2.271482	-1.449765	-0.156773	-0.456164	-0.086894	-0.548584	-0.137451	-0.581055	0.074773	0.024099	0.060301	0.121730	-0.144350	-0.113432	-0.975437	11.288036	-18.012484	-167.567884
63127		7.025395	2.113612	6.260877	-4.348554	-1.821489	-1.398756	-0.167214	-0.452396	-0.202023	-0.541504	-0.131104	-0.574951	0.070133	0.021118	0.062750	0.120356	-0.146595	-0.113043	-0.975318	11.246426	-18.250029	-167.742380
63128		6.280659	2.251949	6.281841	-3.586449	-1.779487	-1.569498	-0.191406	-0.490533	-0.305554	-0.544189	-0.132080	-0.563721	0.062687	0.022484	0.062951	0.118438	-0.148967	-0.112632	-0.975241	11.212252	-18.495987	-167.982586
63129		5.606841	2.515253	6.351276	-2.844391	-1.859577	-1.654675	-0.256053	-0.571554	-0.406000	-0.547363	-0.124756	-0.560547	0.055938	0.025120	0.063641	0.115935	-0.151730	-0.112030	-0.975185	11.164451	-18.778243	-168.292256
63130		5.151055	2.570985	6.365142	-2.370516	-1.804738	-1.763973	-0.354053	-0.689901	-0.484876	-0.545898	-0.130615	-0.542969	0.051353	0.025698	0.063783	0.112904	-0.155065	-0.111074	-0.975126	11.081653	-19.116887	-168.662682
63131		4.994249	2.378627	6.466751	-2.204682	-1.552515	-1.741249	-0.437623	-0.814995	-0.550886	-0.549561	-0.118652	-0.543457	0.049744	0.023791	0.064818	0.109414	-0.159032	-0.109833	-0.975025	10.971449	-19.521124	-169.087429
63132		5.021071	1.939661	6.670232	-2.228107	-1.072984	-1.606022	-0.473446	-0.932574	-0.607302	-0.546631	-0.121094	-0.532715	0.049958	0.019403	0.066890	0.105553	-0.163539	-0.108520	-0.974852	10.859519	-19.984280	-169.559538
63133		5.460658	1.727456	7.075011	-2.502633	-0.823593	-1.099667	-0.434725	-0.990710	-0.667545	-0.552490	-0.120117	-0.526123	0.054313	0.017247	0.070982	0.101393	-0.168288	-0.107475	-0.974601	10.788888	-20.476363	-170.075355
63134		5.866162	1.814522	7.397280	-2.689213	-0.863639	-0.623247	-0.403733	-0.995655	-0.712675	-0.548096	-0.115234	-0.515137	0.058357	0.018087	0.074227	0.097034	-0.172996	-0.106613	-0.974315	10.749971	-20.964876	-170.619782
63135		5.787556	1.895946	7.528819	-2.486846	-0.864718	-0.493843	-0.401012	-0.985595	-0.731747	-0.544678	-0.103760	-0.503662	0.057573	0.018900	0.075534	0.092584	-0.177655	-0.105775	-0.974001	10.721659	-21.448084	-171.176339
63136		5.057096	1.884595	7.195589	-1.857761	-0.801229	-1.048628	-0.439056	-1.004491	-0.722380	-0.552002	-0.113525	-0.492676	0.050277	0.018822	0.072168	0.088133	-0.182402	-0.104744	-0.973648	10.674770	-21.941172	-171.730607
63137		4.359096	1.730776	6.921049	-1.271535	-0.605768	-1.571691	-0.480127	-1.084924	-0.699973	-0.544922	-0.112061	-0.488525	0.043275	0.017322	0.069404	0.083707	-0.187582	-0.103529	-0.973185	10.608417	-22.484618	-172.282278
63138		4.325899	1.351943	7.063375	-1.190708	-0.188210	-1.507350	-0.486324	-1.153380	-0.702481	-0.539551	-0.108398	-0.481934	0.042898	0.013540	0.070849	0.079223	-0.193068	-0.102304	-0.972616	10.547211	-23.064738	-172.844538
63139		4.428748	1.078970	7.543334	-1.078161	0.189917	-1.067365	-0.454748	-1.154216	-0.707636	-0.537109	-0.104980	-0.476563	0.043889	0.010806	0.075663	0.074740	-0.198551	-0.101237	-0.971979	10.511983	-23.647456	-173.412338
63140		-5.583482	6.108991	12.121512	10.738924	-2.645180	-0.163738	-0.661436	-0.977778	-0.605295	-0.538086	-0.110840	-0.470947	-0.056240	0.061660	0.120738	0.070635	-0.203278	-0.098989	-0.971540	10.329426	-24.140113	-173.897811
63141		-5.005437	5.852064	18.091790	12.531573	-1.360367	5.277421	-1.634520	-0.866743	-0.562742	-0.533203	-0.091553	-0.464111	-0.050669	0.060137	0.180212	0.065798	-0.207833	-0.091931	-0.971609	9.576701	-24.579928	-174.342608
63142		-24.751718	0.796280	28.979516	33.932569	7.193343	5.995974	-1.310914	-0.178800	-0.253379	-0.530762	-0.076172	-0.463623	-0.247764	0.010175	0.289512	0.063111	-0.209050	-0.085884	-0.972080	8.899211	-24.662165	-174.519816
63143		-3.166994	2.090678	33.983364	16.685124	4.604191	19.677379	-1.159880	-0.143430	-0.332267	-0.530029	-0.072266	-0.464355	-0.031877	0.022930	0.339682	0.060211	-0.210013	-0.080645	-0.972505	8.327915	-24.720284	-174.742291
63144		-8.870247	-11.690023	5.224397	8.396345	13.108543	-10.358877	-0.567259	-0.281742	-0.629950	-0.518555	-0.079102	-0.462402	-0.089144	-0.116471	0.052449	0.056429	-0.211336	-0.078634	-0.972610	8.178839	-24.832676	-175.162637
63145		4.136574	-9.738139	1.499826	-4.508384	9.510742	-7.965519	0.099690	-1.579742	0.005945	-0.525391	-0.078369	-0.450195	0.041249	-0.097388	0.015276	0.055931	-0.219027	-0.079560	-0.970860	8.296306	-25.733735	-175.303883
63146		15.145808	-3.675877	10.011231	-9.779103	4.230588	5.339428	-0.469769	-2.282181	0.904007	-0.533203	-0.071045	-0.438965	0.150465	-0.035839	0.101918	0.058884	-0.230618	-0.076923	-0.968210	7.864070	-27.105608	-174.937917
63147		21.619104	2.483142	16.248613	-11.542760	-1.335913	14.733987	-0.248711	-1.058623	0.662008	-0.537109	-0.054932	-0.439209	0.215243	0.025748	0.163595	0.061384	-0.236110	-0.075267	-0.966860	7.569072	-27.762692	-174.607609
63148		8.950396	7.884415	7.830757	-3.139652	-7.132821	2.139694	-0.359049	-0.411459	0.193654	-0.534912	-0.056152	-0.423340	0.089266	0.079071	0.078350	0.061733	-0.238319	-0.073430	-0.966437	7.321720	-28.015298	-174.519075
63149		3.460837	5.886301	5.502813	0.370912	-5.139391	-2.716508	-0.501374	-0.714538	0.018562	-0.545654	-0.054688	-0.428223	0.034406	0.059004	0.055003	0.060953	-0.241978	-0.071208	-0.965744	7.056817	-28.428268	-174.566735
63150		6.682259	-0.825124	9.211371	-1.701563	1.781064	1.327977	-0.530169	-0.796580	-0.133632	-0.540771	-0.054199	-0.432373	0.066450	-0.008051	0.092400	0.059373	-0.245974	-0.069054	-0.964989	6.825144	-28.876555	-174.717542
63151		6.515026	-4.829371	10.008245	-1.688744	5.844859	1.541543	-0.334105	-0.537131	-0.141125	-0.542725	-0.050537	-0.427490	0.064847	-0.048172	0.100337	0.058087	-0.248662	-0.067778	-0.964468	6.699008	-29.178148	-174.852319
63152		4.492562	-3.255586	8.876609	-0.171976	4.269352	-0.256588	-0.108674	-0.381018	-0.103777	-0.540527	-0.051025	-0.433594	0.044739	-0.032531	0.088869	0.057313	-0.250533	-0.067495	-0.964050	6.684562	-29.392522	-174.950525
63153		4.953610	0.300868	9.340444	0.201696	0.814435	0.730963	0.022322	-0.351230	-0.124238	-0.542236	-0.047119	-0.428955	0.049374	0.002968	0.093492	0.056615	-0.252225	-0.067860	-0.963625	6.751017	-29.589579	-175.060183
63154		4.824591	2.219416	8.793408	0.358421	-1.139688	0.390209	-0.041427	-0.319302	-0.207356	-0.538818	-0.044434	-0.435791	0.048128	0.022162	0.088006	0.055447	-0.253742	-0.068014	-0.963283	6.807260	-29.761704	-175.222168
63155		4.607630	1.130015	7.762956	-0.073564	-0.205047	-0.717462	-0.071607	-0.400361	-0.237723	-0.540039	-0.048340	-0.424805	0.045934	0.011273	0.077718	0.054066	-0.255656	-0.068083	-0.962851	6.859981	-29.978768	-175.411015
63156		6.465942	0.292482	8.901290	-1.206296	0.685341	1.105276	-0.023945	-0.374774	-0.201673	-0.543213	-0.043701	-0.427002	0.064495	0.002870	0.089134	0.052928	-0.257436	-0.068328	-0.962422	6.928101	-30.182554	-175.574731
63157		7.091701	1.146721	8.488498	-1.801456	-0.248612	1.157942	0.026005	-0.174721	-0.105392	-0.533447	-0.040039	-0.436768	0.070849	0.011419	0.084948	0.052386	-0.258281	-0.068637	-0.962204	6.985404	-30.280147	-175.659570
63158		6.150790	2.684329	7.914678	-1.051387	-1.785158	0.355290	0.005219	-0.055933	-0.031444	-0.550781	-0.047363	-0.425537	0.061490	0.026832	0.079165	0.052214	-0.258576	-0.068719	-0.962128	7.001596	-30.314239	-175.686173
63159		5.776666	2.269573	8.349244	-0.568686	-1.282501	0.495683	-0.048260	-0.022241	-0.027857	-0.541260	-0.045410	-0.437744	0.057761	0.022708	0.083493	0.052001	-0.258734	-0.068530	-0.962110	6.984581	-30.330546	-175.707786
63160		5.831840	0.718494	8.108887	-0.942386	0.200245	0.154883	-0.068806	-0.004186	-0.003524	-0.541748	-0.044189	-0.448486	0.058317	0.007212	0.081088	0.051885	-0.258809	-0.068206	-0.962119	6.946975	-30.337160	-175.711815
63161		5.966563	0.775189	8.761321	-0.730135	0.234063	0.787956	-0.030521	0.028613	0.025197	-0.538330	-0.036377	-0.445313	0.059677	0.007773	0.087603	0.051968	-0.258736	-0.068021	-0.962148	6.920432	-30.328267	-175.694390
63162		5.109668	0.443687	8.490360	-0.174447	0.569781	0.088660	-0.021245	0.077538	0.005748	-0.550781	-0.041504	-0.448975	0.051129	0.004447	0.084883	0.051986	-0.258408	-0.067893	-0.962244	6.903693	-30.289039	-175.685775
63163		4.795931	0.181175	8.157576	-0.108059	0.795025	-0.382095	0.004351	0.050705	-0.007784	-0.552979	-0.027100	-0.450439	0.047980	0.001808	0.081564	0.051962	-0.258209	-0.067913	-0.962297	6.907193	-30.265319	-175.688317
63164		5.306300	0.228723	8.327412	-0.462001	0.744156	0.025387	0.047435	0.040697	-0.020604	-0.547607	-0.041260	-0.459473	0.053080	0.002262	0.083264	0.051930	-0.258032	-0.068158	-0.962329	6.940037	-30.245227	-175.699996
63165		5.217831	0.404243	8.126532	-0.465537	0.551440	-0.173762	0.078093	0.066661	-0.045922	-0.562012	-0.033447	-0.449951	0.052206	0.003999	0.081249	0.051823	-0.257723	-0.068577	-0.962388	6.997719	-30.209788	-175.726306
63166		4.858192	0.255404	8.216555	-0.138457	0.745435	-0.294065	0.114430	0.060817	-0.068735	-0.546631	-0.036133	-0.464844	0.048608	0.002490	0.082152	0.051652	-0.257416	-0.069202	-0.962435	7.084012	-30.174855	-175.767959
63167		4.851167	0.400393	8.374054	-0.042208	0.641979	-0.148062	0.147878	0.050518	-0.080434	-0.554199	-0.037842	-0.467529	0.048534	0.003922	0.083731	0.051464	-0.257155	-0.070006	-0.962456	7.193614	-30.146080	-175.818133
63168		4.939004	0.974756	8.264404	-0.100429	0.069056	-0.136458	0.156560	0.056027	-0.083624	-0.560059	-0.038574	-0.456055	0.049417	0.009662	0.082638	0.051274	-0.256854	-0.070854	-0.962485	7.309030	-30.112660	-175.869796
63169		4.889398	1.436026	8.160921	-0.051127	-0.383285	-0.199183	0.138093	0.032270	-0.078773	-0.558838	-0.044189	-0.469727	0.048913	0.014285	0.081611	0.051075	-0.256684	-0.071612	-0.962485	7.413112	-30.094209	-175.920256
63170		4.983686	1.601332	8.249826	-0.071348	-0.523727	-0.056580	0.109677	0.036521	-0.069924	-0.551025	-0.039063	-0.466064	0.049858	0.015951	0.082498	0.050884	-0.256493	-0.072222	-0.962500	7.497881	-30.072730	-175.964439
63171		4.928357	1.502410	8.199321	-0.064847	-0.420775	-0.138312	0.081683	0.021655	-0.047098	-0.555664	-0.037109	-0.468750	0.049296	0.014979	0.081994	0.050761	-0.256399	-0.072671	-0.962498	7.559645	-30.062561	-175.994956
63172		5.228195	1.412675	8.299452	-0.289997	-0.327253	0.087786	0.049885	0.035163	-0.013861	-0.562256	-0.038818	-0.474365	0.052298	0.014102	0.082989	0.050762	-0.256251	-0.072921	-0.962518	7.591739	-30.046008	-176.002404
63173		4.840632	1.051301	7.967174	-0.167994	0.000345	-0.432677	0.042341	0.028027	0.001418	-0.560303	-0.040283	-0.471436	0.048417	0.010496	0.079667	0.050825	-0.256154	-0.073117	-0.962526	7.614744	-30.035872	-176.000519
63174		4.944665	0.681638	8.745200	0.067207	0.491466	0.244490	0.057960	0.038101	0.001755	-0.559814	-0.036377	-0.462158	0.049463	0.006791	0.087445	0.050912	-0.255995	-0.073386	-0.962543	7.646197	-30.018832	-175.997446
63175		4.931286	0.893775	8.377783	-0.075168	0.227778	-0.053275	0.087535	0.060055	-0.004451	-0.568848	-0.038574	-0.467041	0.049338	0.008900	0.083767	0.051016	-0.255730	-0.073799	-0.962576	7.695586	-29.990062	-175.996560
63176		5.440465	1.420831	8.265693	-0.501691	-0.334135	0.166078	0.073685	0.026903	0.003956	-0.573242	-0.037598	-0.473389	0.054415	0.014179	0.082655	0.051131	-0.255622	-0.074143	-0.962573	7.735812	-29.979554	-175.993011
63177		5.190691	1.340156	8.175922	-0.342137	-0.249606	-0.045107	0.058636	0.024385	-0.000513	-0.567139	-0.036377	-0.472656	0.051917	0.013377	0.081757	0.051203	-0.255538	-0.074421	-0.962570	7.768922	-29.971353	-175.992679
63178		4.857192	1.266850	8.176928	-0.064498	-0.153657	-0.219377	0.039463	0.011651	0.020290	-0.571533	-0.033691	-0.471191	0.048575	0.012657	0.081769	0.051347	-0.255517	-0.074583	-0.962555	7.784870	-29.970773	-175.979778
63179		4.889771	1.487964	8.205463	-0.048539	-0.367980	-0.152679	0.011659	0.020320	0.053393	-0.575684	-0.022461	-0.473877	0.048902	0.014888	0.082051	0.051617	-0.255485	-0.074567	-0.962550	7.773606	-29.969068	-175.944484
63180		4.969335	1.596377	8.328464	-0.042536	-0.462932	0.005148	-0.034139	0.018656	0.083299	-0.578125	-0.035156	-0.467529	0.049694	0.015999	0.083277	0.051973	-0.255473	-0.074293	-0.962555	7.726445	-29.969374	-175.889666
63181		5.558638	1.352845	7.958365	-0.763277	-0.332184	-0.046866	-0.066172	0.021915	0.118096	-0.577637	-0.031250	-0.473633	0.055587	0.013588	0.079573	0.052456	-0.255478	-0.073820	-0.962564	7.649353	-29.971675	-175.811835
63182		5.134348	1.235538	8.380163	-0.209944	-0.131424	0.089527	-0.076693	0.071465	0.125358	-0.572021	-0.030273	-0.467773	0.051366	0.012420	0.083779	0.052979	-0.255238	-0.073273	-0.962641	7.561746	-29.945060	-175.724831
63183		4.548813	1.225404	8.363477	0.281994	-0.100924	-0.218349	-0.093894	0.102864	0.142999	-0.583008	-0.025146	-0.466797	0.045522	0.012326	0.083606	0.053576	-0.254869	-0.072613	-0.962756	7.457218	-29.903054	-175.623721
63184		4.640081	1.498840	8.371392	0.239736	-0.392147	-0.135611	-0.125023	0.102856	0.173939	-0.581787	-0.024902	-0.464844	0.046431	0.015081	0.083681	0.054283	-0.254509	-0.071764	-0.962875	7.324919	-29.861902	-175.502394
63185		4.740996	1.553751	8.293045	0.117671	-0.487733	-0.147596	-0.164173	0.107669	0.190292	-0.575439	-0.016357	-0.459961	0.047440	0.015651	0.082892	0.055019	-0.254152	-0.070703	-0.963006	7.164797	-29.820164	-175.370212
63186		4.853893	1.399403	7.976825	-0.157566	-0.421289	-0.381570	-0.202145	0.082391	0.215707	-0.577393	-0.011719	-0.458984	0.048557	0.014127	0.079734	0.055822	-0.253925	-0.069435	-0.963112	6.975850	-29.793006	-175.223538
63187		4.596998	1.283897	8.406997	0.253746	-0.248669	-0.151835	-0.237304	0.080306	0.230916	-0.583252	-0.010254	-0.454590	0.045989	0.012992	0.084036	0.056651	-0.253733	-0.067978	-0.963218	6.762016	-29.768866	-175.067305
63188		4.336915	1.080016	8.334363	0.414680	-0.072913	-0.364963	-0.274068	0.050673	0.254799	-0.585205	0.000732	-0.454102	0.043376	0.010970	0.083318	0.057539	-0.253691	-0.066323	-0.963292	6.520579	-29.761397	-174.897722
63189		5.317511	1.066849	8.249950	-0.472357	-0.184662	0.047253	-0.283423	0.027724	0.263864	-0.586182	-0.002197	-0.448486	0.053172	0.010856	0.082477	0.058451	-0.253775	-0.064617	-0.963331	6.271687	-29.768163	-174.724015
63190		5.601319	0.641231	8.200588	-0.800681	0.168996	0.105269	-0.237204	0.054438	0.238551	-0.580322	0.008545	-0.443115	0.056028	0.006576	0.081983	0.059308	-0.253697	-0.063157	-0.963396	6.056580	-29.756323	-174.564909
63191		5.515871	0.514790	8.204872	-0.743736	0.271569	0.055586	-0.184349	0.072831	0.189857	-0.577637	0.005371	-0.453857	0.055184	0.005276	0.082024	0.060003	-0.253509	-0.062009	-0.963477	5.887056	-29.731885	-174.436667
63192		5.439705	0.238655	8.280510	-0.684199	0.538250	0.059309	-0.138941	0.058707	0.146719	-0.580078	0.009521	-0.447754	0.054420	0.002484	0.082787	0.060544	-0.253352	-0.061138	-0.963540	5.758162	-29.711452	-174.337697
63193		5.340240	0.130947	8.263059	-0.624396	0.633793	-0.013612	-0.088215	0.050834	0.100271	-0.583008	0.019043	-0.440674	0.053423	0.001373	0.082616	0.060922	-0.253213	-0.060572	-0.963588	5.673711	-29.693975	-174.269874
63194		5.257159	0.057859	8.362556	-0.517943	0.717443	0.025524	-0.045795	0.044099	0.060443	-0.578613	0.010742	-0.435791	0.052590	0.000614	0.083614	0.061160	-0.253072	-0.060264	-0.963630	5.626806	-29.676746	-174.228585
63195		5.083606	0.307747	8.428075	-0.301394	0.491259	0.017777	-0.009124	0.032117	0.021466	-0.579590	0.014893	-0.443359	0.050849	0.003087	0.084272	0.061253	-0.252975	-0.060184	-0.963654	5.613888	-29.665443	-174.213726
63196		5.165744	0.544571	8.346239	-0.378840	0.238193	0.007747	0.018922	0.032954	0.001539	-0.579346	0.019287	-0.443359	0.051671	0.005438	0.083454	0.061286	-0.252850	-0.060265	-0.963680	5.623572	-29.651244	-174.211829
63197		5.086006	0.601464	8.203258	-0.372432	0.169975	-0.150645	0.027307	0.030600	-0.013829	-0.580566	0.020264	-0.431885	0.050873	0.006000	0.082026	0.061255	-0.252739	-0.060406	-0.963702	5.643014	-29.638837	-174.220216
63198		4.810920	0.710694	8.266489	-0.090625	0.097908	-0.222741	0.022012	0.033595	-0.004530	-0.579346	0.022949	-0.437744	0.048123	0.007097	0.082658	0.061263	-0.252608	-0.060510	-0.963730	5.656414	-29.623932	-174.222250
63199		4.578850	1.082220	8.402346	0.227952	-0.227443	-0.188094	-0.003010	0.038894	0.009263	-0.583496	0.025635	-0.433105	0.045804	0.010826	0.084014	0.061307	-0.252474	-0.060473	-0.963764	5.650718	-29.608105	-174.214942
63200		5.026834	1.385094	8.123313	-0.249775	-0.609344	-0.182418	-0.038362	0.021027	0.036948	-0.579590	0.030762	-0.435059	0.050274	0.013876	0.081225	0.061435	-0.252434	-0.060237	-0.963781	5.616491	-29.602699	-174.190591
63201		4.981359	1.372131	8.183352	-0.183780	-0.590379	-0.154447	-0.062418	0.028426	0.057828	-0.572754	0.020996	-0.425781	0.049821	0.013761	0.081822	0.061635	-0.252383	-0.059856	-0.963806	5.561393	-29.595544	-174.152138
63202		4.787272	0.944824	8.351835	0.000659	-0.136722	-0.140816	-0.077996	0.031306	0.073282	-0.564209	0.023193	-0.423584	0.047882	0.009498	0.083507	0.061891	-0.252316	-0.059380	-0.963836	5.492381	-29.586242	-174.103321
63203		4.666558	0.770858	8.358482	0.081642	0.036775	-0.209189	-0.066786	0.037384	0.069257	-0.573730	0.033203	-0.424072	0.046679	0.007753	0.083574	0.062143	-0.252227	-0.058961	-0.963869	5.430846	-29.574530	-174.056847
63204		5.062001	0.875892	8.275510	-0.285375	-0.122971	-0.077260	-0.056234	0.028717	0.064381	-0.568604	0.032471	-0.414795	0.050629	0.008798	0.082745	0.062382	-0.252163	-0.058602	-0.963892	5.377294	-29.566133	-174.014062
63205		5.515734	0.703650	7.865818	-0.899763	-0.061072	-0.222264	-0.044888	0.018276	0.060474	-0.569824	0.036133	-0.416748	0.055162	0.007071	0.078652	0.062614	-0.252157	-0.058305	-0.963897	5.331756	-29.564779	-173.974558
63206		4.817431	0.629678	8.345748	-0.077739	0.139319	-0.157109	-0.020551	0.032238	0.038035	-0.556152	0.036865	-0.426025	0.048187	0.006315	0.083449	0.062773	-0.252057	-0.058150	-0.963922	5.307083	-29.552919	-173.948855
63207		4.407856	1.140984	8.401243	0.380018	-0.322201	-0.269957	-0.014686	0.002257	0.036248	-0.563232	0.040771	-0.418945	0.044077	0.011424	0.084011	0.062921	-0.252111	-0.058035	-0.963905	5.287170	-29.559409	-173.926219
63208		4.578754	1.140157	8.468887	0.266932	-0.330136	-0.127299	-0.016334	-0.022754	0.042047	-0.555664	0.037598	-0.422363	0.045776	0.011418	0.084693	0.063088	-0.252277	-0.057912	-0.963858	5.265258	-29.579118	-173.901224
63209		4.799288	1.135715	8.170645	-0.062325	-0.391508	-0.277212	-0.010489	-0.043912	0.050117	-0.556152	0.048096	-0.416748	0.047972	0.011373	0.081716	0.063296	-0.252556	-0.057814	-0.963777	5.244630	-29.612646	-173.872267
63210		4.368913	1.115019	8.605665	0.520735	-0.269401	-0.115039	0.024979	-0.043669	0.041234	-0.551270	0.043701	-0.420898	0.043668	0.011148	0.086068	0.063505	-0.252809	-0.057899	-0.963692	5.247241	-29.644235	-173.849039
63211		4.275247	0.896761	8.698394	0.619445	-0.029392	-0.098811	0.052106	-0.065848	0.023103	-0.545898	0.046143	-0.422852	0.042723	0.008950	0.087000	0.063655	-0.253166	-0.058143	-0.963574	5.271892	-29.688848	-173.839135
63212		5.015070	0.469582	8.473854	-0.183350	0.296287	0.039024	0.076971	-0.114567	0.011031	-0.551270	0.048584	-0.421875	0.050102	0.004666	0.084769	0.063764	-0.253735	-0.058539	-0.963393	5.316240	-29.759306	-173.840074
63213		4.939454	0.453477	8.458500	-0.113783	0.326708	-0.013179	0.101927	-0.175893	-0.005858	-0.546875	0.047852	-0.420410	0.049320	0.004490	0.084631	0.063805	-0.254597	-0.059095	-0.963129	5.382274	-29.865149	-173.856045
63214		4.509093	0.639394	8.619474	0.384230	0.217776	-0.074054	0.075271	-0.257347	0.014684	-0.541992	0.054199	-0.426025	0.044980	0.006365	0.086255	0.063887	-0.255855	-0.059523	-0.962764	5.428970	-30.017244	-173.863633
63215		4.509065	0.783786	8.631592	0.441680	0.086636	-0.053195	0.048870	-0.342629	0.012989	-0.550537	0.043701	-0.424561	0.044942	0.007820	0.086395	0.063902	-0.257541	-0.059853	-0.962292	5.463815	-30.219179	-173.877904
63216		5.038583	-0.162134	8.555842	-0.158052	0.969361	0.069177	0.082922	-0.431703	-0.002724	-0.550293	0.053955	-0.424316	0.050201	-0.001658	0.085666	0.063858	-0.259629	-0.060395	-0.961700	5.526508	-30.469749	-173.908388
63217		5.463847	-0.257334	8.662048	-0.438798	1.059249	0.367495	0.155115	-0.512049	-0.054603	-0.549072	0.058838	-0.414307	0.054416	-0.002655	0.086758	0.063633	-0.262073	-0.061377	-0.960990	5.651043	-30.764478	-173.979069
63218		4.239919	0.600816	9.023490	0.974140	0.406043	0.119436	0.170093	-0.638759	-0.093278	-0.557861	0.059570	-0.412109	0.042113	0.005912	0.090375	0.063203	-0.265096	-0.062522	-0.960115	5.802713	-31.127805	-174.084921
63219		5.287683	0.909297	8.799212	0.088274	0.006973	0.492848	0.170184	-0.825243	-0.119597	-0.564209	0.049561	-0.408447	0.052519	0.008986	0.088217	0.062588	-0.269013	-0.063759	-0.958984	5.971649	-31.596876	-174.222861
63220		5.080304	0.490349	8.464989	0.116522	0.422570	0.062179	0.242903	-0.983645	-0.112440	-0.553467	0.054932	-0.408691	0.050389	0.004772	0.084904	0.062052	-0.273652	-0.065384	-0.957595	6.188256	-32.154967	-174.369903
63221		3.774692	0.544911	9.017920	1.611252	0.609881	-0.174283	0.300802	-1.181778	-0.137564	-0.570068	0.052734	-0.404053	0.037217	0.005288	0.090408	0.061409	-0.279216	-0.067379	-0.955891	6.458353	-32.825023	-174.552560
63222		4.837863	1.192147	8.847124	0.856938	-0.083516	0.304350	0.385958	-1.460566	-0.157445	-0.574463	0.048828	-0.398193	0.047740	0.011713	0.088844	0.060693	-0.286055	-0.069892	-0.953732	6.802077	-33.650340	-174.776595
63223		4.644724	0.183479	8.332251	0.731388	0.898891	-0.342299	0.363454	-1.707691	-0.181428	-0.583496	0.052246	-0.393799	0.045735	0.001641	0.083718	0.059740	-0.294061	-0.072402	-0.951166	7.161342	-34.614555	-175.046373
63224		4.482189	0.636637	8.353352	1.114197	0.537822	-0.392499	0.486273	-1.988632	-0.182661	-0.599365	0.043701	-0.386230	0.043994	0.006122	0.083989	0.058855	-0.303329	-0.075575	-0.948059	7.617031	-35.735508	-175.354103
63225		4.011672	0.434049	8.607877	1.799630	0.893629	-0.520975	0.564114	-2.312442	-0.196087	-0.605225	0.037354	-0.366699	0.039122	0.004058	0.086547	0.057894	-0.314076	-0.079223	-0.944314	8.156792	-37.038093	-175.719723
63226		4.398092	0.746803	8.412527	1.650668	0.617373	-0.455339	0.619920	-2.675559	-0.170585	-0.608887	0.023926	-0.346191	0.042856	0.007169	0.084726	0.056988	-0.326469	-0.083187	-0.939814	8.762650	-38.544470	-176.129073
63227		4.796954	1.225724	8.268861	1.591658	0.197230	-0.309674	0.644871	-3.087969	-0.124243	-0.627441	0.034424	-0.329102	0.046692	0.011960	0.083455	0.056157	-0.340749	-0.087290	-0.934407	9.420414	-40.285761	-176.583616
63228		4.109384	1.120768	8.635522	2.626220	0.510825	-0.563497	0.754740	-3.504393	-0.056743	-0.645508	0.018555	-0.308594	0.039575	0.010869	0.087099	0.055629	-0.356866	-0.091885	-0.927960	10.182069	-42.263216	-177.082875
63229		4.377610	2.193881	8.967123	3.168596	-0.359424	-0.106879	0.853156	-3.944766	0.020487	-0.651123	0.015869	-0.280273	0.041993	0.021558	0.090604	0.055414	-0.374911	-0.096886	-0.920317	11.054603	-44.492213	-177.641917
63230		5.035321	3.006378	8.461978	2.896133	-1.154575	-0.001469	0.828274	-4.406891	0.105164	-0.666992	0.011719	-0.250244	0.048455	0.029736	0.085825	0.055292	-0.394952	-0.101698	-0.911380	11.987557	-46.982733	-178.282032
63231		5.644849	3.960112	8.809665	3.364224	-1.888227	0.687284	0.700099	-4.916384	0.210647	-0.684082	0.015381	-0.208252	0.054217	0.039347	0.089586	0.055108	-0.417186	-0.105802	-0.900958	12.941893	-49.764447	-179.022218
63232		5.524893	3.020580	9.988549	4.678968	-0.577022	1.011377	0.472656	-5.414523	0.277057	-0.691162	0.016846	-0.170654	0.052475	0.030041	0.101402	0.054448	-0.441472	-0.108808	-0.888988	13.921426	-52.823158	-179.930276
63233		7.503081	1.298996	10.426902	4.123705	1.307860	2.350484	0.358135	-5.713656	0.396284	-0.693848	0.018555	-0.120117	0.071986	0.012945	0.106378	0.053859	-0.466840	-0.111038	-0.875688	14.963688	-56.055003	179.040927
63234		6.010222	2.450727	7.695682	3.621310	-0.393832	-0.429161	0.279451	-6.300159	0.410575	-0.713867	0.020752	-0.081055	0.057588	0.024518	0.078832	0.052774	-0.494374	-0.112947	-0.860263	16.313714	-59.599004	177.635646
63235		8.132268	1.313898	8.697409	3.834165	1.094895	1.481076	0.219785	-6.852449	0.420795	-0.723389	0.031006	-0.023682	0.078252	0.013208	0.089705	0.051217	-0.523767	-0.114596	-0.842563	18.163538	-63.425353	175.675171
63236		11.422027	2.546413	10.025319	4.686416	0.458210	4.856300	0.120771	-7.212064	0.514916	-0.725342	0.033447	0.033936	0.110441	0.025690	0.104297	0.049527	-0.554098	-0.115531	-0.822907	20.630948	-67.426111	173.039580
63237		16.904614	-2.189331	8.994910	1.838734	5.219176	8.645489	0.489226	-6.902958	0.477735	-0.718506	0.028076	0.085449	0.165862	-0.021724	0.095658	0.048821	-0.582349	-0.117862	-0.802867	24.246195	-71.192171	169.476626
63238		17.011300	2.030444	10.038747	4.978700	1.630719	9.336096	0.911567	-6.923782	0.577250	-0.716553	0.040283	0.142578	0.166442	0.020313	0.106285	0.049671	-0.609929	-0.121461	-0.781516	29.715397	-74.884926	164.307715
63239		17.873407	0.330190	11.181440	6.724455	3.856161	9.792361	1.045649	-6.261385	0.671898	-0.708252	0.042236	0.188721	0.175106	0.003290	0.117352	0.051648	-0.634259	-0.124993	-0.761200	37.232954	-78.099349	157.195648
63240		13.397231	3.301185	9.734032	7.975418	0.474115	5.060358	1.204965	-6.179955	0.755514	-0.699707	0.039795	0.247314	0.130752	0.032906	0.101613	0.054446	-0.657647	-0.128719	-0.740248	49.426239	-80.989830	145.503578
63241		15.770073	4.906916	12.399431	11.596963	0.012494	7.272495	0.914897	-5.810284	0.899495	-0.697510	0.056152	0.287598	0.153785	0.049185	0.128725	0.057011	-0.679214	-0.130675	-0.719960	68.691200	-83.174832	126.588932
63242		9.255661	4.172476	9.037839	9.413618	-0.706265	-0.035447	0.448005	-5.597431	1.147199	-0.679688	0.054199	0.334473	0.089737	0.042039	0.093010	0.058971	-0.699731	-0.129938	-0.700011	97.460183	-84.247179	97.912164
63243		9.839969	4.575815	9.698294	10.702237	-0.862330	0.009923	0.074758	-5.488995	1.266085	-0.662109	0.056885	0.375977	0.095397	0.046332	0.099646	0.060065	-0.719484	-0.127341	-0.680088	127.979657	-83.679655	67.273664
63244		11.898631	4.253040	11.767418	13.240192	0.128703	1.266997	-0.304944	-4.731381	1.272608	-0.643066	0.069824	0.414551	0.115885	0.043457	0.120375	0.060255	-0.736282	-0.123114	-0.662647	146.981742	-82.148982	47.953482
63245		8.341596	5.910888	7.470307	9.622351	-3.023623	-2.159312	-0.681866	-3.862036	1.359556	-0.620117	0.069824	0.439941	0.081550	0.059925	0.076087	0.059850	-0.749977	-0.116991	-0.648279	157.877635	-80.537093	36.538522
63246		0.696757	1.210083	8.719124	8.751185	0.934521	-10.525075	-1.233355	-3.267223	1.524342	-0.611328	0.073975	0.464355	0.005448	0.012684	0.087211	0.058234	-0.761716	-0.108240	-0.636145	165.077759	-79.031328	28.505176
63247		24.535110	-2.897236	24.685949	27.244998	10.497248	9.350755	-0.163633	-1.857487	1.205674	-0.603516	0.077881	0.473145	0.243212	-0.027299	0.249148	0.060428	-0.768291	-0.103667	-0.628753	169.482545	-78.141914	23.915897
63248		26.492432	0.134905	26.892507	30.511396	7.968348	10.938271	0.249315	1.583017	0.876331	-0.607178	0.083008	0.467529	0.267033	0.002183	0.266819	0.064950	-0.763686	-0.100608	-0.634384	171.336312	-79.115372	22.170569
63249		5.462061	1.430082	15.601564	16.159503	2.567068	-7.065651	0.658270	3.196950	0.733143	-0.626221	0.086426	0.446533	0.057054	0.013995	0.155163	0.071382	-0.753599	-0.098849	-0.645927	172.624664	-80.986780	21.245524
63250		-1.024978	2.840666	11.574511	11.688552	-0.030888	-12.352139	0.685866	3.977869	0.622000	-0.645264	0.084473	0.423584	-0.008031	0.027982	0.116016	0.077917	-0.740685	-0.097286	-0.660190	173.599769	-83.287614	20.657818
63251		-0.787872	2.406456	8.471413	8.697775	-0.263019	-11.376547	0.506124	4.294767	0.644868	-0.659424	0.094482	0.383545	-0.006134	0.023828	0.084919	0.083985	-0.726449	-0.094878	-0.675438	175.217564	-85.772471	19.324284
63252		-1.439902	1.638350	6.483389	6.606416	0.030519	-11.584638	0.436639	4.253638	0.647892	-0.672363	0.093262	0.351318	-0.013068	0.016198	0.065157	0.089748	-0.712067	-0.092197	-0.690222	-179.003409	-88.218799	13.788915
63253		-2.374410	1.195175	5.235464	5.339922	0.193567	-12.245693	0.433204	4.110744	0.597245	-0.693115	0.098389	0.327393	-0.022696	0.011769	0.052854	0.095221	-0.697805	-0.089708	-0.704240	-33.076751	-89.313347	-131.895426
63254		-1.280889	0.879233	5.185554	5.267007	0.527859	-10.943994	0.493348	4.033377	0.491322	-0.699707	0.097412	0.292480	-0.011781	0.008634	0.052121	0.100453	-0.683471	-0.087798	-0.717682	-12.647644	-87.044047	-152.048148
63255		0.851199	0.643517	5.683148	5.580511	0.862729	-8.569368	0.587754	4.088276	0.327670	-0.703125	0.089111	0.258545	0.009661	0.006284	0.056660	0.105405	-0.668500	-0.086722	-0.731079	-8.806125	-84.706308	-155.561034
63256		2.397791	0.758978	6.392313	6.069774	0.889734	-6.722983	0.663624	4.254999	0.091820	-0.719727	0.101074	0.226318	0.025327	0.007390	0.063419	0.109770	-0.652512	-0.086585	-0.744769	-6.107517	-82.286301	-157.894068
63257		3.750371	1.223842	7.006406	6.441480	0.537507	-5.031448	0.703164	4.540850	-0.155475	-0.717041	0.094238	0.190918	0.039091	0.011964	0.069231	0.113416	-0.634973	-0.087203	-0.759172	-3.729068	-79.700773	-159.893439
63258		4.539084	1.664039	7.311948	6.472956	0.135386	-3.904680	0.622379	4.851506	-0.366506	-0.729980	0.089111	0.151611	0.047177	0.016330	0.072041	0.116073	-0.615886	-0.087959	-0.774257	-1.716852	-76.938502	-161.583722
63259		4.829641	1.639077	7.249975	6.038979	0.090827	-3.325807	0.463881	5.102860	-0.544070	-0.728271	0.083252	0.109863	0.050170	0.016090	0.071273	0.117595	-0.595412	-0.088447	-0.789831	-0.066532	-74.018693	-163.013086
63260		5.507051	1.368805	6.821633	5.031533	0.128370	-2.506206	0.322588	5.276853	-0.657320	-0.729248	0.071777	0.056396	0.056889	0.013395	0.066753	0.118243	-0.573916	-0.088550	-0.805480	1.219016	-70.996080	-164.166954
63261		6.693919	1.131060	6.598274	3.964922	0.124296	-1.218096	0.253183	5.388267	-0.698495	-0.724609	0.061035	0.012695	0.068723	0.010991	0.064161	0.118492	-0.551535	-0.088363	-0.820951	2.189951	-67.896776	-165.048231
63262		8.130952	0.928262	6.553332	2.838838	0.086708	0.278198	0.245775	5.455123	-0.708173	-0.719971	0.047363	-0.029785	0.083088	0.008912	0.063294	0.118619	-0.528512	-0.088066	-0.835972	2.938338	-64.760704	-165.711564
63263		9.422966	0.403795	6.856208	1.824391	0.443261	1.693985	0.304981	5.466299	-0.716021	-0.703857	0.049316	-0.062988	0.096070	0.003594	0.065959	0.118787	-0.504956	-0.087964	-0.850395	3.574319	-61.608812	-166.227727
63264		11.124685	-0.074089	7.258509	0.557853	0.720575	3.437757	0.463953	5.480148	-0.774580	-0.686035	0.024414	-0.099854	0.113175	-0.001340	0.069499	0.119021	-0.480881	-0.088609	-0.864139	4.238595	-58.450493	-166.687679
63265		13.372424	-0.088102	7.617673	-1.096936	0.464476	5.529299	0.686365	5.542972	-0.832381	-0.681641	0.023193	-0.127197	0.135760	-0.001696	0.072428	0.119476	-0.455952	-0.090248	-0.877319	4.971533	-55.244782	-167.092725
63266		15.436982	0.858571	7.762184	-2.769036	-0.758043	7.245037	0.872280	5.600968	-0.867712	-0.677979	0.013672	-0.155762	0.156497	0.007584	0.073293	0.120127	-0.430321	-0.092675	-0.889834	5.738164	-52.007780	-167.424123
63267		16.492777	2.796849	7.576678	-3.951615	-2.894080	7.883700	0.909505	5.572968	-0.883855	-0.673584	-0.001953	-0.181641	0.167076	0.026902	0.071255	0.120677	-0.404384	-0.095243	-0.901576	6.459661	-48.777267	-167.683575
63268		16.017845	4.613658	7.212635	-4.319862	-4.754173	7.173756	0.720933	5.412964	-0.898900	-0.674561	-0.017578	-0.206543	0.162259	0.045160	0.067917	0.120605	-0.379005	-0.097013	-0.912359	7.032853	-45.641323	-167.901856
63269		15.709582	5.462816	7.126164	-4.802870	-5.641429	6.693500	0.353696	5.102661	-0.964893	-0.680908	-0.029541	-0.233398	0.159108	0.053742	0.067315	0.119299	-0.354908	-0.097352	-0.922134	7.412784	-42.669918	-168.155680
63270		16.930910	5.221091	7.283301	-6.506467	-5.652049	7.293144	-0.019784	4.823469	-1.127546	-0.689941	-0.051025	-0.269287	0.171290	0.051256	0.068712	0.116367	-0.332062	-0.096359	-0.931079	7.646518	-39.849902	-168.527516
63271		17.956458	4.311960	6.898267	-8.610304	-5.114506	7.165043	-0.238149	4.616369	-1.337735	-0.692871	-0.062500	-0.318115	0.181375	0.041989	0.064759	0.111925	-0.309962	-0.094765	-0.939370	7.832313	-37.124628	-169.044418
63272		18.274827	2.431769	6.072998	-10.624855	-3.587393	6.028331	-0.263150	4.427889	-1.561604	-0.694824	-0.088867	-0.346924	0.184215	0.022959	0.056631	0.106240	-0.288526	-0.093450	-0.946960	8.068414	-34.492686	-169.705895
63273		18.970379	0.946073	5.673689	-12.508768	-2.300977	5.390246	-0.061504	4.207995	-1.798175	-0.684326	-0.117432	-0.388184	0.190916	0.007764	0.052726	0.099566	-0.267716	-0.093501	-0.953768	8.475264	-31.957883	-170.511614
63274		20.627590	0.385062	5.068289	-15.015799	-1.993446	5.080552	0.201363	4.068570	-1.956777	-0.684814	-0.135254	-0.433350	0.207274	0.001778	0.046475	0.092372	-0.247270	-0.095034	-0.959840	9.038909	-29.487633	-171.389232
63275		21.787804	0.310202	3.760585	-17.272592	-2.174170	3.818033	0.366884	3.968001	-1.981289	-0.673584	-0.167725	-0.478271	0.218583	0.000875	0.033277	0.085170	-0.227057	-0.097395	-0.965249	9.654195	-27.060036	-172.243340
63276		22.053322	0.585362	1.787837	-18.836997	-2.704479	1.486216	0.359182	3.864679	-1.917073	-0.650146	-0.180908	-0.510010	0.220866	0.003710	0.013620	0.078178	-0.207306	-0.099639	-0.970044	10.200202	-24.693902	-173.023106
63277		21.309225	1.144907	-0.414465	-19.339782	-3.459266	-1.475398	0.152571	3.639954	-1.762347	-0.624268	-0.206055	-0.542236	0.213060	0.009577	-0.008015	0.071575	-0.188683	-0.100767	-0.974229	10.558043	-22.461663	-173.698356
63278		20.156254	1.983821	-2.448361	-19.142438	-4.442042	-4.335813	-0.215753	3.252295	-1.437863	-0.617920	-0.220215	-0.575195	0.201264	0.018362	-0.027779	0.065986	-0.172203	-0.099895	-0.977759	10.618642	-20.482964	-174.202163
63279		18.698678	1.975623	-4.262793	-18.536030	-4.570402	-7.126496	-0.618205	2.695991	-0.945949	-0.593994	-0.229736	-0.595947	0.186479	0.018736	-0.045203	0.062158	-0.158756	-0.096793	-0.980594	10.355286	-18.867656	-174.471123
63280		18.019054	0.603981	-5.826461	-18.631583	-3.429021	-9.511989	-0.770781	2.078184	-0.394660	-0.576416	-0.227783	-0.613525	0.179583	0.005456	-0.060155	0.060603	-0.148644	-0.092677	-0.982671	9.918198	-17.660140	-174.486349
63281		18.544119	-1.269093	-7.087484	-19.755148	-1.886063	-11.190191	-0.573495	1.465333	0.066505	-0.572754	-0.229004	-0.614502	0.184920	-0.012835	-0.072194	0.061171	-0.141674	-0.089369	-0.983971	9.534779	-16.842407	-174.300071
63282		19.246629	-2.144087	-7.744866	-20.705444	-1.274776	-11.973502	-0.107725	0.921291	0.350880	-0.561523	-0.216553	-0.629883	0.192144	-0.021146	-0.078323	0.063223	-0.137369	-0.088309	-0.984548	9.388258	-16.359195	-174.004032
63283		19.174306	-0.845125	-7.848443	-20.446975	-2.657879	-12.008488	0.298524	0.415731	0.451568	-0.558105	-0.219482	-0.629883	0.191598	-0.007901	-0.078895	0.065824	-0.135466	-0.089344	-0.984548	9.474284	-16.171145	-173.699095
63284		18.518185	1.801474	-7.107704	-19.200913	-5.138490	-11.080628	0.335163	-0.128606	0.481997	-0.558594	-0.222168	-0.621826	0.185183	0.018580	-0.070927	0.068357	-0.136243	-0.090710	-0.984143	9.590761	-16.293967	-173.429585
63285		15.770864	11.215277	-4.570547	-14.403732	-13.574462	-7.899920	-0.791316	-0.816172	0.492573	-0.565186	-0.208984	-0.614014	0.157618	0.112361	-0.045506	0.069860	-0.140800	-0.086767	-0.983751	9.078101	-16.806907	-173.219878
63286		1.694573	5.564919	-0.946082	-0.971329	-5.801204	-9.443950	-2.920090	-1.662306	0.619613	-0.573975	-0.190918	-0.596680	0.016856	0.055557	-0.010132	0.070112	-0.150283	-0.072538	-0.983482	7.338036	-17.804681	-172.995617
63287		3.728549	-1.268776	12.942412	0.113849	2.779038	3.426155	-2.549753	-1.745274	0.507989	-0.578369	-0.169678	-0.580811	0.036183	-0.010941	0.129890	0.070042	-0.159979	-0.060234	-0.982788	5.820765	-18.837697	-172.813418
63288		2.663403	-1.879418	20.496390	3.659357	4.260894	10.166362	-1.808221	-1.476342	-0.177518	-0.587646	-0.156738	-0.564209	0.025104	-0.016962	0.205312	0.067266	-0.167841	-0.052006	-0.982141	4.847710	-19.674958	-173.005100
63289		-4.495244	0.503987	14.798620	9.163731	1.740919	2.534173	-1.618575	-1.534131	-0.621415	-0.595459	-0.158691	-0.549805	-0.046067	0.006377	0.147588	0.062443	-0.175799	-0.045103	-0.981408	4.076532	-20.529795	-173.457396
63290		-1.802848	-6.400872	4.383856	2.360352	6.978302	-6.784608	-1.119255	-2.028734	-0.981771	-0.608398	-0.152832	-0.533691	-0.018787	-0.063672	0.044008	0.056172	-0.185907	-0.041105	-0.980099	3.682184	-21.655996	-174.144206
63291		2.711339	-7.373752	3.353618	-2.125468	7.406858	-6.126544	-0.431214	-2.726507	-1.136547	-0.626709	-0.155029	-0.508057	0.026232	-0.073815	0.034057	0.049626	-0.199185	-0.040819	-0.977853	3.746041	-23.178570	-174.957998
63292		8.295465	-8.583825	6.422508	-5.920839	8.538516	-1.108062	-0.182163	-2.987296	-0.931761	-0.626709	-0.154541	-0.481934	0.081581	-0.086161	0.065529	0.044266	-0.213659	-0.041594	-0.975018	3.930278	-24.855147	-175.667577
63293		11.360756	-12.655727	8.825177	-7.748438	12.727158	2.232336	0.158486	-2.870012	-0.494053	-0.645996	-0.158691	-0.449951	0.112013	-0.126906	0.089766	0.041416	-0.227541	-0.043530	-0.971913	4.213609	-26.481328	-176.111711
63294		10.289685	-12.492252	10.626304	-5.631634	12.942748	3.439235	0.865593	-2.468682	-0.083598	-0.651123	-0.161865	-0.433350	0.101527	-0.125427	0.106980	0.041446	-0.239359	-0.048339	-0.968841	4.791436	-27.892174	-176.291328
63295		13.817503	-4.993664	14.973306	-5.635030	5.967254	9.492320	1.261045	-2.145901	0.171878	-0.666016	-0.164551	-0.412109	0.136604	-0.050768	0.150886	0.043259	-0.249570	-0.054681	-0.965843	5.520644	-29.131925	-176.306552
63296		18.257769	8.323345	19.126776	-5.699393	-6.791027	16.452240	0.527129	-1.130426	0.304053	-0.666016	-0.162354	-0.395996	0.181366	0.083003	0.192514	0.045067	-0.255031	-0.057092	-0.964193	5.761082	-29.798100	-176.181792
63297		12.210072	9.683077	10.618070	-4.244272	-8.855571	6.285623	0.058801	-0.556590	-0.137275	-0.669189	-0.150391	-0.391846	0.121871	0.096716	0.106549	0.044314	-0.257718	-0.057674	-0.963479	5.858445	-30.114117	-176.310545
63298		5.670727	4.801306	6.351160	-1.211949	-4.204053	-1.071752	-0.066316	-0.464913	-0.408720	-0.668213	-0.150146	-0.383545	0.056657	0.047918	0.063627	0.042117	-0.259892	-0.057985	-0.962975	5.972644	-30.359438	-176.613207
63299		8.023442	-0.188357	9.150324	-2.361018	1.017575	2.083914	-0.008551	-0.612541	-0.342807	-0.673096	-0.149170	-0.379150	0.079950	-0.002017	0.091748	0.040269	-0.262801	-0.058520	-0.962232	6.105170	-30.694692	-176.884268
63300		7.646136	-1.172187	8.255988	-2.538062	1.920166	1.044098	0.063962	-0.325025	-0.204840	-0.655518	-0.152588	-0.384277	0.076315	-0.011827	0.082680	0.039264	-0.264329	-0.059163	-0.961815	6.223692	-30.871731	-177.044671
63301		7.706690	2.626355	7.484080	-2.542517	-1.923512	0.776830	0.102135	-0.260358	-0.120781	-0.661865	-0.147217	-0.369629	0.076985	0.026179	0.074954	0.038733	-0.265585	-0.059866	-0.961447	6.333634	-31.019496	-177.145328
63302		7.389630	3.289489	8.120644	-1.862409	-2.463727	1.225143	0.044317	-0.093186	-0.092464	-0.656494	-0.141357	-0.366699	0.073874	0.032843	0.081248	0.038311	-0.266035	-0.060221	-0.961317	6.394747	-31.071175	-177.215016
63303		5.665755	2.085927	8.429674	-0.355671	-1.153431	0.485583	-0.049300	0.031897	-0.052872	-0.657227	-0.137207	-0.365967	0.056677	0.020865	0.084283	0.037993	-0.265936	-0.060050	-0.961368	6.383977	-31.056842	-177.249315
63304		4.925103	1.472448	8.312250	0.151638	-0.535781	-0.055220	-0.067754	0.025711	0.018264	-0.657471	-0.129150	-0.356934	0.049260	0.014757	0.083111	0.037990	-0.265869	-0.059696	-0.961409	6.338377	-31.047850	-177.236595
63305		5.565208	0.397783	8.371244	-0.481832	0.502157	0.223406	-0.079773	0.070796	0.018209	-0.645020	-0.123291	-0.353027	0.055681	0.004016	0.083691	0.037984	-0.265611	-0.059277	-0.961506	6.284374	-31.015895	-177.220839
63306		5.122023	-0.214608	8.806661	0.046672	1.178200	0.308978	-0.047734	0.102203	0.015825	-0.645752	-0.115967	-0.356934	0.051265	-0.002121	0.088041	0.038019	-0.265171	-0.059008	-0.961643	6.248231	-30.963168	-177.204186
63307		4.857582	-0.914025	8.012303	-0.210486	1.772477	-0.569173	0.007158	0.115124	-0.000783	-0.629639	-0.119385	-0.347900	0.048622	-0.009143	0.080095	0.038050	-0.264677	-0.059024	-0.961777	6.248851	-30.904783	-177.197846
63308		5.024079	-1.046382	8.164380	-0.299576	1.915868	-0.366361	0.010300	0.095261	0.030513	-0.632080	-0.104492	-0.365967	0.050281	-0.010460	0.081619	0.038230	-0.264265	-0.059016	-0.961883	6.241264	-30.856920	-177.171991
63309		4.587501	-0.157730	8.035170	0.097014	1.034000	-0.617285	-0.019565	0.053379	0.064334	-0.623047	-0.105225	-0.357178	0.045897	-0.001555	0.080340	0.038521	-0.264092	-0.058827	-0.961931	6.206599	-30.837764	-177.126887
63310		4.882901	0.213362	8.414007	0.071250	0.699447	-0.107562	-0.024132	0.021311	0.061576	-0.619873	-0.100098	-0.354736	0.048837	0.002159	0.084135	0.038784	-0.264051	-0.058627	-0.961944	6.171499	-30.833921	-177.085811
63311		4.735489	0.329997	8.397750	0.202455	0.584132	-0.185966	-0.015190	0.001378	0.041336	-0.618652	-0.088623	-0.358643	0.047355	0.003316	0.083977	0.038955	-0.264121	-0.058499	-0.961926	6.149025	-30.842927	-177.059686
63312		5.092532	0.746784	8.285815	-0.113644	0.136761	-0.060012	-0.032497	-0.020545	0.052936	-0.608154	-0.074951	-0.359375	0.050915	0.007495	0.082862	0.039152	-0.264279	-0.058278	-0.961887	6.113591	-30.862365	-177.027325
63313		5.318895	1.821828	8.507408	-0.078320	-0.919392	0.342816	-0.128532	0.004566	0.116109	-0.593994	-0.089600	-0.355469	0.053180	0.018304	0.085061	0.039534	-0.264378	-0.057506	-0.961891	6.000542	-30.874034	-176.951303
63314		4.990953	2.866170	8.449959	0.285970	-1.967741	0.215897	-0.198244	0.057612	0.171861	-0.589355	-0.069092	-0.366943	0.049909	0.028788	0.084457	0.040107	-0.264227	-0.056315	-0.961979	5.826826	-30.855845	-176.834519
63315		5.168538	3.316367	8.064766	-0.012226	-2.500793	0.010669	-0.233042	0.071913	0.229094	-0.580322	-0.065186	-0.366211	0.051676	0.033317	0.080590	0.040913	-0.264054	-0.054878	-0.962076	5.613233	-30.835189	-176.678995
63316		5.362171	2.701646	8.148242	-0.204762	-1.926230	0.121757	-0.275007	0.126068	0.284967	-0.575439	-0.053711	-0.369873	0.053634	0.027205	0.081411	0.041947	-0.263620	-0.053154	-0.962247	5.355045	-30.783399	-176.482968
63317		5.235275	2.206472	8.183705	-0.137316	-1.465749	0.040343	-0.291939	0.162332	0.341973	-0.567871	-0.050781	-0.374023	0.052381	0.022274	0.081762	0.043242	-0.263052	-0.051266	-0.962448	5.067165	-30.715858	-176.247499
63318		5.706236	1.647009	7.622145	-0.892218	-1.050697	-0.248658	-0.295569	0.172643	0.380866	-0.566406	-0.044434	-0.391113	0.057096	0.016691	0.076148	0.044723	-0.262420	-0.049307	-0.962655	4.764194	-30.640522	-175.986034
63319		5.524183	0.474247	8.133717	-0.619486	0.137194	0.010555	-0.290450	0.172031	0.382024	-0.555420	-0.034912	-0.395996	0.055302	0.004966	0.081283	0.046214	-0.261812	-0.047372	-0.962847	4.464573	-30.567226	-175.724721
63320		5.026784	-0.199467	8.079721	-0.306318	0.789106	-0.332519	-0.230609	0.158309	0.338314	-0.551270	-0.029297	-0.402100	0.050335	-0.001816	0.080760	0.047570	-0.261221	-0.045784	-0.963018	4.214756	-30.495977	-175.493490
63321		5.293215	-0.280001	8.490303	-0.347575	0.865795	0.152818	-0.149510	0.096744	0.239496	-0.539307	-0.019775	-0.404053	0.052976	-0.002673	0.084879	0.048542	-0.260908	-0.044730	-0.963104	4.046642	-30.457959	-175.331355
63322		4.564402	-0.851961	8.643579	0.283529	1.479705	-0.117270	-0.092438	0.048634	0.177740	-0.541992	-0.015625	-0.416260	0.045673	-0.008439	0.086429	0.049281	-0.260774	-0.044043	-0.963135	3.933157	-30.441780	-175.212362
63323		4.945870	-0.017461	8.361048	-0.087233	0.580570	-0.116070	-0.045760	0.014808	0.128378	-0.546631	-0.015625	-0.416504	0.049465	-0.000124	0.083607	0.049834	-0.260805	-0.043654	-0.963116	3.863797	-30.445704	-175.127803
63324		5.229572	0.382166	8.014432	-0.454991	0.115888	-0.246855	-0.041785	0.005228	0.113285	-0.537109	-0.010010	-0.431885	0.052296	0.003868	0.080142	0.050319	-0.260853	-0.043305	-0.963093	3.802000	-30.451591	-175.053534
63325		5.161868	0.809215	8.012526	-0.344659	-0.310891	-0.258377	-0.036007	0.006398	0.093838	-0.541260	-0.009277	-0.436279	0.051617	0.008131	0.080122	0.050717	-0.260915	-0.043009	-0.963069	3.749968	-30.458883	-174.992220
63326		4.969816	0.867182	8.197389	-0.079360	-0.341258	-0.193669	-0.036077	0.011912	0.093910	-0.535645	-0.006592	-0.435791	0.049699	0.008710	0.081969	0.051117	-0.260925	-0.042712	-0.963058	3.697788	-30.460105	-174.930492
63327		5.081961	1.110377	8.137911	-0.174098	-0.606261	-0.174898	-0.058952	0.012308	0.112254	-0.540039	-0.001465	-0.448730	0.050818	0.011156	0.081373	0.051575	-0.260967	-0.042280	-0.963041	3.626291	-30.464607	-174.856705
63328		4.975895	1.038664	8.286388	-0.016265	-0.523219	-0.105548	-0.087749	0.019486	0.140275	-0.534668	0.001465	-0.447754	0.049760	0.010458	0.082854	0.052133	-0.260964	-0.041671	-0.963039	3.528743	-30.463019	-174.763897
63329		4.950314	0.910642	8.178134	-0.061029	-0.420036	-0.219118	-0.088329	-0.001228	0.142905	-0.551270	0.006104	-0.448730	0.049496	0.009178	0.081778	0.052697	-0.261086	-0.041062	-0.963001	3.430398	-30.476137	-174.670321
63330		4.696895	0.402162	8.566615	0.290665	0.131142	-0.039881	-0.094480	0.001299	0.150213	-0.541992	0.006348	-0.458496	0.046966	0.004097	0.085664	0.053290	-0.261174	-0.040413	-0.962972	3.325981	-30.485010	-174.571621
63331		5.689191	0.365190	8.273437	-0.707496	0.040963	0.209676	-0.087966	-0.009928	0.144073	-0.556885	0.017822	-0.457031	0.056885	0.003729	0.082736	0.053858	-0.261337	-0.039806	-0.962922	3.227552	-30.502853	-174.477534
63332		5.270596	-0.220657	8.165605	-0.472094	0.629405	-0.123212	-0.107987	0.003162	0.141676	-0.554932	0.021484	-0.453613	0.052709	-0.002125	0.081656	0.054393	-0.261417	-0.039102	-0.962899	3.118169	-30.510084	-174.384372
63333		5.656990	0.162265	8.180686	-0.744498	0.203075	0.104769	-0.103706	-0.006054	0.133868	-0.556152	0.030029	-0.456055	0.056566	0.001703	0.081808	0.054892	-0.261564	-0.038431	-0.962857	3.013974	-30.525140	-174.296819
63334		5.844841	0.030901	7.829603	-1.092715	0.265042	-0.106941	-0.119890	-0.030277	0.132207	-0.569092	0.024170	-0.462158	0.058436	0.000395	0.078305	0.055359	-0.261806	-0.037691	-0.962794	2.901475	-30.550923	-174.211034
63335		5.087337	0.323220	8.392497	-0.119403	0.083168	0.005575	-0.103610	-0.023098	0.113898	-0.553711	0.031006	-0.464355	0.050862	0.003305	0.083929	0.055759	-0.262031	-0.037052	-0.962735	2.804228	-30.574946	-174.137209
63336		5.140230	0.244364	8.120315	-0.304771	0.115484	-0.204620	-0.107393	-0.047635	0.112588	-0.568359	0.034912	-0.457275	0.051382	0.002516	0.081214	0.056144	-0.262350	-0.036403	-0.962650	2.705662	-30.609861	-174.064869
63337		5.120851	0.397072	8.466662	-0.088143	-0.013293	0.089696	-0.106010	-0.032285	0.104847	-0.570801	0.044922	-0.451904	0.051193	0.004042	0.084673	0.056496	-0.262618	-0.035766	-0.962580	2.610098	-30.638700	-173.997208
63338		4.849731	0.351378	8.429892	0.124588	0.037241	-0.081834	-0.137611	-0.009485	0.126873	-0.570313	0.042236	-0.456299	0.048491	0.003603	0.084299	0.056917	-0.262763	-0.034942	-0.962546	2.488646	-30.651919	-173.914049
63339		5.141804	0.852049	8.218485	-0.162904	-0.524517	-0.096415	-0.151915	-0.000236	0.141109	-0.574707	0.041992	-0.456055	0.051412	0.008619	0.082178	0.057388	-0.262896	-0.034027	-0.962515	2.353896	-30.663049	-173.821202
63340		4.732299	0.724257	8.066881	0.098789	-0.393941	-0.440986	-0.152214	-0.006514	0.161159	-0.578369	0.046631	-0.462891	0.047314	0.007342	0.080665	0.057955	-0.263037	-0.033087	-0.962475	2.212321	-30.675017	-173.715052
63341		4.405167	0.572617	8.188068	0.425032	-0.219615	-0.509520	-0.127737	-0.019115	0.158183	-0.581787	0.052246	-0.451904	0.044039	0.005813	0.081881	0.058537	-0.263256	-0.032272	-0.962408	2.085811	-30.696951	-173.611249
63342		4.514175	0.039700	8.399437	0.376150	0.302065	-0.289183	-0.103612	-0.065629	0.151008	-0.584473	0.060791	-0.433350	0.045114	0.000475	0.084009	0.059110	-0.263665	-0.031595	-0.962283	1.976111	-30.742160	-173.513141
63343		4.515427	-0.353506	8.484060	0.377741	0.688707	-0.227475	-0.045210	-0.115417	0.105973	-0.584473	0.069092	-0.442139	0.045107	-0.003492	0.084867	0.059534	-0.264314	-0.031275	-0.962089	1.915560	-30.817879	-173.446130
63344		4.733835	-0.849699	8.534500	0.166767	1.160023	-0.086672	-0.000612	-0.170970	0.050958	-0.583984	0.068115	-0.437988	0.047268	-0.008485	0.085385	0.059744	-0.265183	-0.031257	-0.961838	1.899966	-30.921321	-173.416845
63345		5.003358	-0.216506	8.661558	0.104358	0.521050	0.178341	0.049464	-0.210116	0.007873	-0.589111	0.070557	-0.432617	0.049943	-0.002185	0.086668	0.059807	-0.266243	-0.031549	-0.961531	1.928099	-31.049334	-173.417242
63346		5.111390	-0.393771	8.338619	-0.152112	0.665551	-0.048069	0.083205	-0.260802	-0.031738	-0.584229	0.072998	-0.431885	0.051004	-0.003981	0.083451	0.059717	-0.267505	-0.032072	-0.961169	1.990089	-31.202619	-173.445360
63347		5.314718	0.120262	8.372193	-0.212197	0.154583	0.101207	0.118933	-0.311616	-0.075772	-0.588135	0.073242	-0.421143	0.053017	0.001133	0.083805	0.059454	-0.269018	-0.032839	-0.960737	2.088520	-31.387043	-173.504526
63348		5.103282	0.253435	8.440409	0.051533	0.069541	0.053447	0.148537	-0.364005	-0.091158	-0.593018	0.071045	-0.413818	0.050880	0.002448	0.084499	0.059149	-0.270746	-0.033785	-0.960238	2.210666	-31.598060	-173.575849
63349		5.563504	0.520658	8.199662	-0.388057	-0.239453	0.099427	0.166637	-0.450352	-0.077397	-0.592529	0.077393	-0.409424	0.055452	0.005117	0.082126	0.058919	-0.272908	-0.034825	-0.959603	2.339943	-31.861670	-173.640969
63350		5.132248	0.068303	8.317763	0.021355	0.290388	-0.043103	0.284036	-0.493522	-0.099634	-0.590332	0.074707	-0.397705	0.051117	0.000539	0.083305	0.058735	-0.275212	-0.036471	-0.958894	2.546159	-32.146306	-173.723413
63351		4.786823	-1.124450	8.565675	0.330208	1.575760	-0.068135	0.497301	-0.563008	-0.193745	-0.604736	0.072021	-0.388916	0.047616	-0.011504	0.085763	0.058380	-0.277792	-0.039288	-0.958061	2.911033	-32.470785	-173.873803
63352		5.375302	-1.257121	8.617859	-0.100875	1.729972	0.273832	0.676124	-0.681816	-0.294124	-0.597900	0.067139	-0.384766	0.053440	-0.012942	0.086318	0.057768	-0.280837	-0.043136	-0.957044	3.420475	-32.856082	-174.100350
63353		4.276793	-1.153486	9.155202	1.183030	1.874502	0.113268	0.800113	-0.858585	-0.375538	-0.601563	0.064697	-0.384277	0.042352	-0.011981	0.091687	0.056901	-0.284691	-0.047740	-0.955737	4.039794	-33.340491	-174.395920
63354		4.659588	0.408662	8.793044	0.972183	0.351295	0.093174	0.711779	-1.201452	-0.412891	-0.600342	0.062500	-0.382813	0.046074	0.003678	0.088222	0.055645	-0.290162	-0.052071	-0.953938	4.639947	-34.013526	-174.743150
63355		4.200710	1.216383	9.054351	1.731886	-0.285673	0.087986	0.597304	-1.580575	-0.333146	-0.604004	0.066406	-0.359619	0.041310	0.011823	0.090907	0.054501	-0.297499	-0.055841	-0.951528	5.165922	-34.906918	-175.068834
63356		4.087979	0.590131	8.883905	1.805693	0.405205	-0.192113	0.589174	-1.963066	-0.321735	-0.613037	0.056396	-0.358887	0.040014	0.005574	0.089251	0.053288	-0.306610	-0.059657	-0.948468	5.710680	-36.013651	-175.426305
63357		4.278606	0.365175	8.833212	1.790988	0.699655	-0.181310	0.620594	-2.365690	-0.316918	-0.616455	0.047852	-0.323242	0.041743	0.003310	0.088841	0.052019	-0.317606	-0.063711	-0.944649	6.306754	-37.349911	-175.829703
63358		3.969942	0.768834	9.094186	2.482779	0.455846	-0.185786	0.596905	-2.747716	-0.313687	-0.623291	0.051025	-0.310059	0.038457	0.007355	0.091498	0.050596	-0.330334	-0.067739	-0.940069	6.932008	-38.897518	-176.288789
63359		4.400694	0.851382	8.744995	2.217186	0.395214	-0.247875	0.609639	-3.121383	-0.262126	-0.630615	0.037354	-0.294678	0.042646	0.008189	0.088148	0.049300	-0.344779	-0.071818	-0.934633	7.594076	-40.659702	-176.778299
63360		4.183454	0.967271	8.795646	2.735820	0.399531	-0.424094	0.643308	-3.529385	-0.169846	-0.646484	0.041992	-0.277588	0.040282	0.009354	0.088707	0.048331	-0.361033	-0.075977	-0.928195	8.298071	-42.653494	-177.283117
63361		4.700172	1.565313	8.505275	2.598248	-0.156462	-0.320959	0.620593	-4.024362	-0.074720	-0.651611	0.041504	-0.252930	0.045283	0.015370	0.086023	0.047559	-0.379512	-0.079948	-0.920498	9.028013	-44.933427	-177.824559
63362		4.625368	2.370143	8.765634	3.352215	-0.797680	-0.223294	0.557180	-4.575807	0.023627	-0.660156	0.043701	-0.212402	0.044229	0.023460	0.088749	0.046874	-0.400383	-0.083536	-0.911328	9.781883	-47.526594	-178.426504
63363		5.368026	3.585357	9.010009	3.689170	-1.860441	0.470974	0.444230	-5.188574	0.109014	-0.665283	0.037598	-0.177490	0.051298	0.035680	0.091531	0.046069	-0.423881	-0.086530	-0.900397	10.571271	-50.470372	-179.135424
63364		5.676957	5.204677	9.737877	4.867719	-3.223143	1.142745	0.203410	-5.840668	0.243714	-0.685791	0.036621	-0.135254	0.053830	0.052013	0.099032	0.045041	-0.450085	-0.088240	-0.887473	11.330921	-53.786875	-179.949998
63365		6.549358	4.057400	11.349835	6.140038	-1.710685	2.331757	0.093906	-6.416127	0.423022	-0.693848	0.037109	-0.084961	0.061722	0.040653	0.115538	0.044267	-0.478532	-0.089106	-0.872415	12.132719	-57.441908	179.143835
63366		5.743862	3.106465	9.047263	5.234905	-1.180984	-0.032718	0.168677	-6.936217	0.573086	-0.688721	0.055176	-0.032959	0.054166	0.031146	0.092416	0.044044	-0.508744	-0.089954	-0.855072	13.162639	-61.396031	178.060224
63367		7.893190	3.033060	10.191437	5.968808	-0.787278	1.978661	0.168890	-7.661207	0.749759	-0.698730	0.055908	0.025635	0.074838	0.030529	0.104860	0.044191	-0.541458	-0.090393	-0.834685	14.539607	-65.766874	176.631669
63368		11.724944	3.390818	10.613871	5.898603	-0.909883	5.216031	-0.047238	-8.084785	1.037030	-0.695068	0.064697	0.092285	0.112656	0.034526	0.110747	0.044691	-0.575251	-0.089102	-0.811880	16.139140	-70.396052	174.879529
63369		18.633203	-2.620322	9.621355	3.042357	5.074113	10.470337	0.450816	-7.986066	1.025121	-0.700439	0.062988	0.152832	0.182428	-0.025489	0.103493	0.046544	-0.607588	-0.089700	-0.787797	19.044013	-74.941741	172.109302
63370		21.556364	2.005840	12.347984	7.477917	1.310960	13.919373	0.794803	-7.802429	1.287505	-0.686768	0.078857	0.206787	0.210395	0.020911	0.131838	0.050484	-0.638256	-0.090668	-0.762797	23.635570	-79.381168	167.870375
63371		17.640909	-0.935450	12.093831	8.996415	4.135882	9.163565	1.251598	-7.282059	1.187617	-0.667480	0.090576	0.250977	0.171908	-0.009108	0.127196	0.055661	-0.665833	-0.093429	-0.738133	33.643148	-83.386817	158.480161
63372		17.796017	2.426333	14.214568	13.090609	1.512656	8.915890	1.528796	-7.044860	1.238160	-0.657959	0.093750	0.312256	0.172654	0.024224	0.148476	0.061982	-0.691563	-0.096851	-0.713105	64.743606	-86.678419	128.159025
63373		14.054459	4.926481	13.285260	14.037682	-1.103967	4.324432	1.300596	-6.732559	1.441965	-0.641846	0.099609	0.362305	0.135605	0.049369	0.137794	0.068313	-0.715460	-0.098533	-0.688289	138.736861	-86.706659	54.819545
63374		12.171203	5.498674	13.716513	15.390285	-1.523952	1.465923	0.869045	-6.195483	1.462591	-0.619141	0.121094	0.404053	0.116978	0.055246	0.141078	0.073357	-0.736858	-0.098362	-0.664818	167.843018	-83.818073	26.125972
63375		15.092237	5.863411	17.903694	20.523569	-0.706679	2.869156	0.362683	-5.345683	1.621432	-0.602295	0.123291	0.439697	0.145584	0.059499	0.183083	0.077416	-0.755019	-0.095522	-0.644071	177.777595	-80.881507	16.315317
63376		10.232706	6.017894	12.629536	15.273346	-2.393984	-1.977978	0.000012	-3.661070	1.553310	-0.590576	0.130859	0.468262	0.099521	0.060959	0.128134	0.080645	-0.767426	-0.091063	-0.629493	-177.311643	-78.773703	11.326855
63377		0.430852	-1.121381	12.340673	11.534741	4.008433	-11.958888	-0.514641	-3.094610	1.760090	-0.579102	0.140137	0.484863	0.002495	-0.010869	0.123483	0.082778	-0.778060	-0.083932	-0.617029	-173.596091	-76.923219	7.224898
63378		35.251027	-0.659297	30.442854	36.731470	8.671720	17.489571	0.579575	-1.101106	1.012232	-0.572510	0.149902	0.500244	0.350858	-0.005700	0.306346	0.087683	-0.781641	-0.082242	-0.612033	-171.211038	-76.216617	5.114033
63379		19.528287	3.600579	24.697338	28.629134	2.789236	3.485386	0.917343	2.044373	0.743980	-0.589844	0.146973	0.480957	0.197662	0.035611	0.245125	0.094372	-0.775234	-0.081248	-0.619277	-168.011959	-77.292347	2.367660
63380		1.576089	6.576166	15.000372	16.150770	-2.601692	-11.575171	0.767043	3.339813	0.603694	-0.606445	0.153076	0.456055	0.018068	0.065239	0.149966	0.100549	-0.764685	-0.079702	-0.631502	-163.747489	-79.060430	-1.539892
63381		-2.157276	5.223238	11.156438	11.565253	-2.175599	-14.043382	0.201074	3.928588	0.480064	-0.624023	0.147461	0.432861	-0.019500	0.052071	0.112013	0.104371	-0.752211	-0.076522	-0.646088	-157.924437	-81.100982	-7.333080
63382		-1.386887	2.801844	8.676449	8.832764	-0.459035	-12.423446	-0.091089	4.068111	0.357587	-0.644775	0.145264	0.410889	-0.012151	0.028035	0.087011	0.106711	-0.739123	-0.072752	-0.661072	-149.182998	-83.098798	-16.209516
63383		-2.658343	1.147568	6.867507	6.649510	0.730211	-13.097474	-0.113438	4.058277	0.144219	-0.656250	0.146240	0.370605	-0.025191	0.011496	0.069189	0.108214	-0.725655	-0.069677	-0.675914	-134.999496	-84.899706	-30.533580
63384		-2.964913	-0.316993	5.932124	5.490129	1.939869	-13.001832	0.047424	4.064242	-0.110611	-0.665527	0.143066	0.350342	-0.028437	-0.003168	0.059907	0.109398	-0.711734	-0.068032	-0.690535	-109.922967	-86.232944	-55.654309
63385		-1.570792	-1.121107	6.101847	5.601897	2.699829	-11.323001	0.324789	4.131749	-0.407636	-0.682373	0.140381	0.313721	-0.014466	-0.011280	0.061308	0.110521	-0.696980	-0.068342	-0.705219	-71.678022	-86.517168	-93.783301
63386		-0.288540	-1.187611	6.483218	5.973941	2.798262	-9.773958	0.578682	4.256748	-0.729444	-0.705078	0.124023	0.281250	-0.001549	-0.012056	0.064840	0.111386	-0.681266	-0.070563	-0.720063	-39.059276	-85.435368	-126.144899
63387		0.382752	-0.812727	6.812894	6.324009	2.498583	-8.823136	0.693781	4.395171	-1.017191	-0.700195	0.117920	0.245361	0.005281	-0.008388	0.067995	0.111602	-0.664497	-0.074071	-0.735189	-20.408161	-83.511277	-144.479142
63388		1.247624	-0.388269	7.257931	6.700845	2.171173	-7.630896	0.644321	4.528429	-1.245671	-0.714600	0.102295	0.197998	0.014089	-0.004200	0.072259	0.110801	-0.646875	-0.078037	-0.750457	-9.856460	-81.188286	-154.750686
63389		2.684264	-0.544250	7.909931	6.926033	2.416940	-5.782279	0.477240	4.674743	-1.396864	-0.716064	0.088379	0.163086	0.028641	-0.005826	0.078430	0.108887	-0.628304	-0.081742	-0.765961	-3.369884	-78.612320	-161.059266
63390		4.497757	-1.237126	8.659300	6.848013	3.175434	-3.508200	0.308121	4.887294	-1.503457	-0.716553	0.071289	0.118164	0.046980	-0.012852	0.085442	0.106051	-0.608631	-0.084964	-0.781730	0.876969	-75.834299	-165.231790
63391		6.407634	-2.323537	9.222728	6.237954	4.253789	-1.182412	0.209910	5.179848	-1.574547	-0.718994	0.060303	0.088379	0.066249	-0.023847	0.090505	0.102690	-0.587351	-0.087805	-0.797975	3.787352	-72.826671	-168.128148
63392		8.230105	-3.374194	9.446743	5.100419	5.215045	0.916309	0.256316	5.544547	-1.605739	-0.726807	0.033691	0.056152	0.084601	-0.034534	0.092099	0.099419	-0.564183	-0.090666	-0.814613	5.847713	-69.587871	-170.148763
63393		9.715729	-3.716797	9.426692	3.794548	5.451206	2.552827	0.375904	5.899343	-1.563655	-0.707275	0.015381	0.016357	0.099584	-0.038114	0.091282	0.096731	-0.538960	-0.093637	-0.831503	7.302084	-66.121970	-171.485633
63394		11.029092	-3.701392	9.243525	2.293515	5.299870	3.875569	0.488483	6.185978	-1.422957	-0.711426	-0.001221	-0.016113	0.112809	-0.038031	0.088880	0.094970	-0.512105	-0.096468	-0.848188	8.266058	-62.504291	-172.244503
63395		12.325396	-3.945174	9.160753	0.631245	5.397046	5.079963	0.571946	6.365943	-1.214593	-0.711426	-0.012207	-0.057373	0.125840	-0.040465	0.087514	0.094297	-0.483941	-0.098928	-0.864362	8.853024	-58.788308	-172.541950
63396		13.414457	-3.699706	8.706924	-1.251378	4.901229	5.800320	0.697502	6.441654	-0.997610	-0.712891	-0.029785	-0.088379	0.136665	-0.037968	0.082563	0.094799	-0.455059	-0.101271	-0.879590	9.230771	-55.057986	-172.515930
63397		15.468659	-2.542072	9.019999	-2.974346	3.604421	7.655825	0.742654	6.426897	-0.722833	-0.726074	-0.053955	-0.136475	0.157382	-0.026309	0.085074	0.096507	-0.425796	-0.103077	-0.893733	9.405395	-51.351497	-172.203352
63398		17.875842	-0.976132	8.701559	-5.475916	1.628064	9.251483	0.666481	6.390433	-0.430536	-0.732422	-0.068604	-0.183594	0.181393	-0.010427	0.081213	0.099235	-0.396516	-0.103839	-0.906722	9.373780	-47.703256	-171.660204
63399		18.991019	-0.057898	7.985791	-7.672697	0.189827	9.302488	0.487207	6.249408	-0.239268	-0.735107	-0.082520	-0.228760	0.192280	-0.000993	0.073872	0.102305	-0.367585	-0.103364	-0.918548	9.195483	-44.141955	-171.024746
63400		19.371677	0.187167	7.094007	-9.574033	-0.615304	8.448025	0.335670	5.991266	-0.199423	-0.723633	-0.094727	-0.287109	0.195727	0.001565	0.065099	0.105046	-0.339669	-0.102165	-0.929060	8.995717	-40.738710	-170.444214
63401		19.560500	0.905513	6.324334	-11.002772	-1.806663	7.478644	0.205106	5.710008	-0.334617	-0.725098	-0.115967	-0.331543	0.197319	0.008665	0.057635	0.106706	-0.312693	-0.100638	-0.938461	8.854053	-37.472236	-170.034807
63402		19.330610	1.790973	5.681762	-11.852833	-3.015018	6.295792	-0.013754	5.373631	-0.598392	-0.718750	-0.128174	-0.393555	0.194792	0.017332	0.051596	0.106531	-0.287111	-0.098609	-0.946834	8.750995	-34.381605	-169.873032
63403		20.998136	2.116311	4.858263	-14.376185	-3.933525	5.895721	-0.288424	5.013016	-0.918258	-0.715088	-0.137939	-0.447021	0.211205	0.020260	0.043269	0.104199	-0.262958	-0.095852	-0.954363	8.640719	-31.459052	-169.975914
63404		23.648169	2.828456	3.643722	-17.789256	-5.385608	5.514839	-0.575316	4.752207	-1.169491	-0.696777	-0.161621	-0.492676	0.237417	0.026992	0.030724	0.100099	-0.239981	-0.092143	-0.961197	8.460808	-28.671314	-170.275246
63405		25.032659	3.726464	1.419072	-20.472876	-6.972436	3.403167	-0.903868	4.530011	-1.241383	-0.666504	-0.171143	-0.550049	0.250785	0.035755	0.008350	0.095098	-0.218004	-0.086988	-0.967400	8.112734	-25.998013	-170.647165
63406		26.079345	3.728161	-1.341190	-23.099474	-7.660770	0.357745	-1.219630	4.257588	-1.132858	-0.645752	-0.173584	-0.594482	0.260631	0.035700	-0.019183	0.090108	-0.197481	-0.080280	-0.972850	7.557320	-23.497350	-170.990386
63407		26.041060	2.304326	-4.892824	-25.063588	-6.843549	-4.132317	-1.309386	3.901048	-0.996411	-0.623535	-0.177979	-0.629883	0.259498	0.021406	-0.054140	0.085506	-0.178650	-0.073115	-0.977460	6.923624	-21.207647	-171.299010
63408		25.060275	1.031772	-8.198079	-25.701712	-5.861716	-8.682771	-1.124380	3.386476	-0.892313	-0.599121	-0.175537	-0.666748	0.249208	0.008727	-0.086261	0.081355	-0.162263	-0.066959	-0.981106	6.383768	-19.225659	-171.601801
63409		23.146999	0.978811	-10.197641	-24.572261	-5.662483	-12.010278	-0.772953	2.683973	-0.772380	-0.573730	-0.183105	-0.686523	0.230108	0.008495	-0.105105	0.077822	-0.149152	-0.062692	-0.983752	6.031769	-17.650807	-171.891198
63410		20.822889	2.084127	-10.531199	-22.258421	-6.316224	-13.486010	-0.464227	1.787108	-0.592230	-0.567139	-0.183350	-0.708252	0.207337	0.019979	-0.107214	0.075111	-0.140389	-0.060154	-0.985409	5.837279	-16.601771	-172.134733
63411		20.596742	3.021752	-9.434486	-21.579151	-6.940799	-12.732879	-0.213440	0.882862	-0.415820	-0.563232	-0.178467	-0.709961	0.205610	0.029688	-0.095285	0.073169	-0.136026	-0.059062	-0.986233	5.769325	-16.078285	-172.329481
63412		21.237957	3.261770	-8.221254	-21.842429	-7.023849	-11.501574	0.065494	0.227860	-0.294723	-0.561768	-0.193115	-0.715576	0.212334	0.032332	-0.082444	0.071819	-0.134831	-0.059504	-0.986469	5.851347	-15.935807	-172.491640
63413		21.769183	3.111445	-6.785503	-22.012498	-6.711001	-9.996101	0.425040	-0.162221	-0.200863	-0.571533	-0.196533	-0.714600	0.217778	0.031040	-0.067612	0.071059	-0.135469	-0.061797	-0.986296	6.130646	-16.022024	-172.622013
63414		19.120410	6.954838	-5.370370	-18.521965	-9.943992	-8.889016	0.591372	-0.439526	-0.151453	-0.584229	-0.209473	-0.714355	0.191374	0.069561	-0.053078	0.070568	-0.137418	-0.064973	-0.985858	6.502574	-16.267267	-172.741826
63415		10.402336	15.917195	-5.204394	-8.833108	-17.621828	-10.124271	-0.927985	-1.314275	-0.310267	-0.594482	-0.203369	-0.690674	0.104612	0.158768	-0.052095	0.067963	-0.144184	-0.061082	-0.985323	6.049042	-17.003971	-173.013622
63416		-8.207765	0.852975	1.474342	8.317170	0.290125	-10.815706	-1.237264	-2.143143	-0.300644	-0.622803	-0.204102	-0.664063	-0.082216	0.008741	0.013809	0.064922	-0.155099	-0.055929	-0.984176	5.433626	-18.213006	-173.323449
63417		1.375941	1.187050	15.069569	3.558572	0.610187	4.929942	-0.800353	-2.621280	-0.913959	-0.639648	-0.205811	-0.643066	0.011839	0.012417	0.150810	0.059054	-0.168052	-0.053559	-0.982549	5.203396	-19.667643	-174.023558
63418		-3.469125	-3.116001	13.091688	7.267659	5.016295	0.917502	-0.339845	-2.919218	-1.762994	-0.663330	-0.221436	-0.621338	-0.036869	-0.030619	0.130442	0.049309	-0.182035	-0.054226	-0.980557	5.441907	-21.243891	-175.263700
63419		6.649547	-7.930507	9.988675	-3.329198	8.678638	1.162512	0.160155	-3.358624	-1.978105	-0.681885	-0.241943	-0.581787	0.064017	-0.080027	0.100912	0.038828	-0.197952	-0.057643	-0.977745	6.072997	-23.052126	-176.691357
63420		12.389654	-12.296079	7.568444	-9.418603	12.604520	0.881200	0.167776	-3.879259	-1.131047	-0.704102	-0.264893	-0.545166	0.121701	-0.123718	0.077956	0.032331	-0.216555	-0.060324	-0.973868	6.567489	-25.194474	-177.666375
63421		15.859516	-11.852628	11.463872	-10.298061	12.727404	6.167071	0.268284	-3.640709	-0.045984	-0.735596	-0.270508	-0.506104	0.156448	-0.118719	0.117341	0.031285	-0.234254	-0.062263	-0.969675	6.855135	-27.270746	-177.968929
63422		24.583863	-1.830156	21.529435	-11.865409	3.894543	20.439590	0.018342	-2.882483	0.975709	-0.745361	-0.255615	-0.479980	0.242787	-0.017132	0.218807	0.035128	-0.248541	-0.061654	-0.966019	6.673270	-28.981126	-177.561356
63423		19.151811	7.025559	15.385169	-8.551435	-5.674683	13.586254	-0.656407	-1.287758	0.809696	-0.747559	-0.253418	-0.453125	0.190235	0.071535	0.154846	0.037818	-0.255190	-0.057699	-0.964427	6.083788	-29.774576	-177.127588
63424		10.986889	6.464354	7.378661	-5.206920	-5.932405	2.622649	-0.563442	-1.049363	0.027570	-0.746094	-0.239014	-0.437500	0.109471	0.064867	0.074179	0.036920	-0.260399	-0.055145	-0.963218	5.788287	-30.378724	-177.182558
63425		11.623489	-1.804428	10.096460	-5.108314	2.565577	4.596388	-0.323472	-0.813302	-0.195679	-0.752441	-0.230469	-0.424561	0.115805	-0.017994	0.101465	0.035324	-0.264398	-0.053994	-0.962253	5.697132	-30.840461	-177.367852
63426		8.407738	-4.820276	8.824773	-3.196204	5.547635	1.624509	0.159968	-0.392850	-0.186284	-0.732666	-0.223145	-0.414551	0.083859	-0.048352	0.088374	0.034525	-0.266247	-0.055080	-0.961710	5.866496	-31.058150	-177.519381
63427		4.774533	1.812041	8.344578	0.345167	-0.912027	-0.078191	0.408565	-0.365794	-0.224823	-0.742676	-0.218018	-0.397217	0.047613	0.017896	0.083570	0.033880	-0.267954	-0.057406	-0.961123	6.191572	-31.262717	-177.696144
63428		5.422089	4.598004	9.000119	0.422198	-3.570077	1.078547	0.178763	-0.306799	-0.259410	-0.727539	-0.225098	-0.400391	0.054142	0.045829	0.090125	0.032777	-0.269361	-0.058666	-0.960692	6.396182	-31.425637	-177.893011
63429		4.980553	4.161982	8.541680	0.545605	-3.156992	0.425669	0.077715	-0.286529	-0.214941	-0.736328	-0.215576	-0.381836	0.049728	0.041533	0.085504	0.031758	-0.270743	-0.059376	-0.960294	6.527559	-31.584547	-178.059731
63430		5.961896	3.452122	8.222397	-0.502761	-2.508381	0.604818	0.020664	-0.179267	-0.121619	-0.723877	-0.208252	-0.382813	0.059566	0.034476	0.082281	0.031140	-0.271602	-0.059670	-0.960053	6.589761	-31.683114	-178.156169
63431		6.023757	1.879644	7.796855	-0.907888	-1.001847	0.126211	-0.035394	-0.095995	-0.045644	-0.718262	-0.193604	-0.365967	0.060204	0.018796	0.077994	0.030837	-0.272136	-0.059580	-0.959917	6.590297	-31.744404	-178.195836
63432		5.894699	0.125117	7.929428	-0.884333	0.757477	-0.000290	-0.029496	-0.017987	-0.009743	-0.708008	-0.186523	-0.364990	0.058940	0.001260	0.079299	0.030736	-0.272262	-0.059455	-0.959893	6.578055	-31.758487	-178.205103
63433		5.696223	-0.206008	8.297112	-0.553304	1.139291	0.173671	0.014866	0.015783	-0.010706	-0.702881	-0.185303	-0.358154	0.056969	-0.002069	0.082966	0.030702	-0.272263	-0.059542	-0.959888	6.590579	-31.758545	-178.212767
63434		5.503253	-0.395188	8.603727	-0.249421	1.377162	0.311901	0.057921	0.030630	-0.067557	-0.707031	-0.175537	-0.355957	0.055044	-0.003995	0.086028	0.030457	-0.272126	-0.059908	-0.959912	6.646803	-31.741136	-178.256963
63435		5.773930	-0.735082	8.347009	-0.644910	1.684273	0.202225	0.086820	0.013334	-0.113629	-0.690430	-0.164307	-0.350830	0.057741	-0.007420	0.083463	0.030026	-0.272097	-0.060480	-0.959898	6.736744	-31.735744	-178.333606
63436		6.100823	-0.145763	8.133164	-0.982035	1.079643	0.250095	0.122222	0.011673	-0.132760	-0.682129	-0.149414	-0.342773	0.061012	-0.001548	0.081327	0.029551	-0.272020	-0.061246	-0.959886	6.853491	-31.724585	-178.422855
63437		5.720926	0.676543	8.120420	-0.594050	0.290977	0.121613	0.150875	0.036683	-0.136334	-0.679199	-0.150879	-0.344238	0.057229	0.006665	0.081199	0.029106	-0.271863	-0.062151	-0.959886	6.986917	-31.704166	-178.512643
63438		5.743456	1.217325	7.986324	-0.640151	-0.244233	0.075744	0.140719	0.056947	-0.132930	-0.666748	-0.138916	-0.335205	0.057465	0.012079	0.079855	0.028668	-0.271566	-0.063000	-0.959928	7.112244	-31.666914	-178.598163
63439		5.357174	2.022488	8.121812	-0.176781	-0.999106	0.072863	0.119646	0.091783	-0.081544	-0.659180	-0.131104	-0.324951	0.053617	0.020154	0.081206	0.028461	-0.271167	-0.063673	-0.960002	7.205974	-31.618830	-178.646554
63440		4.914355	2.599218	8.332351	0.350461	-1.520241	0.081802	0.111570	0.112754	-0.039601	-0.651123	-0.119873	-0.326660	0.049196	0.025936	0.083310	0.028450	-0.270635	-0.064247	-0.960114	7.279253	-31.556354	-178.664830
63441		5.066154	3.013860	8.196235	0.178667	-1.946698	0.092158	0.044275	0.125428	0.031502	-0.636230	-0.118896	-0.327637	0.050708	0.030128	0.081937	0.028694	-0.270121	-0.064401	-0.960242	7.288843	-31.497272	-178.634857
63442		5.347790	2.159922	8.059973	-0.219438	-1.129225	0.031294	-0.011124	0.159020	0.105138	-0.629883	-0.100586	-0.333496	0.053531	0.021632	0.080556	0.029226	-0.269431	-0.064183	-0.960434	7.239382	-31.418981	-178.552713
63443		5.622803	2.013584	7.616875	-0.706995	-1.064738	-0.218227	-0.070980	0.197360	0.195092	-0.612061	-0.100342	-0.341797	0.056283	0.020218	0.076106	0.030123	-0.268640	-0.063554	-0.960670	7.123402	-31.330689	-178.408045
63444		5.102315	1.731422	8.020882	-0.097454	-0.738406	-0.178832	-0.120671	0.248382	0.247979	-0.597168	-0.094482	-0.344971	0.051101	0.017426	0.080135	0.031223	-0.267581	-0.062605	-0.960992	6.958534	-31.211343	-178.224048
63445		5.055681	1.175790	8.229397	-0.019554	-0.182862	-0.084817	-0.122805	0.221666	0.251992	-0.586914	-0.086426	-0.355713	0.050633	0.011872	0.082231	0.032330	-0.266698	-0.061647	-0.961263	6.793273	-31.112517	-178.040549
63446		4.767305	0.390041	8.515608	0.282338	0.620105	-0.069454	-0.099959	0.185950	0.216290	-0.580566	-0.080078	-0.370117	0.047748	0.003995	0.085110	0.033286	-0.265925	-0.060849	-0.961495	6.654815	-31.025702	-177.883660
63447		4.921588	-0.095504	8.346787	0.005336	1.055085	-0.180100	-0.079341	0.144412	0.177689	-0.564941	-0.077148	-0.361816	0.049277	-0.000878	0.083433	0.034070	-0.265383	-0.060211	-0.961658	6.543788	-30.965188	-177.756309
63448		5.004371	0.020899	8.381561	-0.046636	0.927840	-0.095092	-0.047910	0.103241	0.127707	-0.563477	-0.066162	-0.374756	0.050087	0.000261	0.083790	0.034644	-0.264971	-0.059794	-0.961777	6.469205	-30.919196	-177.665068
63449		5.392792	0.423237	8.245075	-0.414782	0.489083	0.027605	-0.012403	0.069057	0.081014	-0.566162	-0.064697	-0.383057	0.053955	0.004259	0.082432	0.035030	-0.264750	-0.059618	-0.961835	6.432583	-30.895081	-177.607768
63450		5.110132	0.479141	8.306012	-0.139693	0.448068	-0.060119	0.006794	0.031774	0.043886	-0.546387	-0.067627	-0.392334	0.051113	0.004800	0.083052	0.035251	-0.264647	-0.059588	-0.961857	6.420772	-30.884294	-177.577605
63451		4.804872	0.798405	8.480446	0.241956	0.165686	-0.037401	0.021367	0.006782	0.024237	-0.559082	-0.062988	-0.398682	0.048051	0.007981	0.084804	0.035390	-0.264703	-0.059660	-0.961832	6.425193	-30.892001	-177.562621
63452		4.975961	0.998547	8.230055	-0.009620	-0.072370	-0.143885	0.002078	-0.018216	0.030286	-0.552979	-0.057617	-0.409424	0.049751	0.009992	0.082305	0.035525	-0.264837	-0.059634	-0.961792	6.417226	-30.908803	-177.545214
63453		5.267451	1.281360	8.039765	-0.322713	-0.390900	-0.129259	-0.023056	-0.031677	0.044431	-0.552734	-0.061279	-0.412842	0.052659	0.012835	0.080405	0.035691	-0.265091	-0.059473	-0.961725	6.390757	-30.939686	-177.519678
63454		5.068717	1.208057	8.009699	-0.169710	-0.319205	-0.264081	-0.025706	-0.044221	0.065270	-0.556396	-0.053955	-0.421875	0.050666	0.012107	0.080107	0.035949	-0.265366	-0.059272	-0.961652	6.355886	-30.973508	-177.480944
63455		5.335234	1.093082	7.765420	-0.525721	-0.253802	-0.345877	-0.047783	-0.055280	0.078310	-0.552490	-0.046387	-0.432129	0.053327	0.010970	0.077666	0.036239	-0.265749	-0.058951	-0.961556	6.304529	-31.019972	-177.434598
63456		5.302556	1.151426	7.959736	-0.385704	-0.292494	-0.191568	-0.065587	-0.063948	0.079942	-0.557861	-0.055420	-0.430176	0.052995	0.011562	0.079611	0.036509	-0.266130	-0.058542	-0.961465	6.242418	-31.065890	-177.387449
63457		5.009646	1.104414	8.065832	-0.075992	-0.229276	-0.256769	-0.060738	-0.080151	0.101854	-0.568359	-0.043457	-0.446045	0.050058	0.011094	0.080675	0.036886	-0.266641	-0.058132	-0.961334	6.176350	-31.127943	-177.327102
63458		4.329606	1.349705	8.430667	0.726858	-0.405187	-0.275873	-0.047253	-0.100817	0.094824	-0.564697	-0.040283	-0.437500	0.043247	0.013537	0.084325	0.037242	-0.267200	-0.057798	-0.961185	6.120810	-31.195689	-177.272514
63459		4.789366	0.904020	8.084679	0.126900	-0.034083	-0.373406	-0.039601	-0.149096	0.086553	-0.569336	-0.046143	-0.438965	0.047829	0.009077	0.080881	0.037554	-0.268034	-0.057523	-0.960957	6.074463	-31.295959	-177.227059
63460		5.296654	0.890010	7.940103	-0.364728	-0.064775	-0.233822	-0.016635	-0.163847	0.078466	-0.583252	-0.039063	-0.438965	0.052898	0.008927	0.079444	0.037853	-0.268885	-0.057370	-0.960717	6.044194	-31.398555	-177.187617
63461		5.263969	1.013013	8.091071	-0.228498	-0.169300	-0.111136	-0.016986	-0.159467	0.086012	-0.582520	-0.038818	-0.438232	0.052571	0.010160	0.080952	0.038190	-0.269764	-0.057206	-0.960467	6.011108	-31.504666	-177.143017
63462		4.994061	1.172494	8.146404	0.063775	-0.315069	-0.191049	-0.049263	-0.153160	0.132375	-0.589355	-0.036133	-0.436035	0.049870	0.011778	0.081499	0.038707	-0.270585	-0.056822	-0.960238	5.942630	-31.604340	-177.066515
63463		4.833098	1.785107	8.342904	0.386108	-0.900287	-0.056159	-0.076797	-0.165949	0.179804	-0.595215	-0.034424	-0.424316	0.048246	0.017927	0.083462	0.039412	-0.271532	-0.056245	-0.959976	5.842215	-31.719583	-176.959187
63464		5.469383	1.245599	7.902484	-0.418968	-0.465352	-0.141970	-0.068225	-0.170483	0.201583	-0.595947	-0.037842	-0.428223	0.054614	0.012538	0.079067	0.040231	-0.272459	-0.055679	-0.959712	5.738506	-31.832919	-176.836893
63465		5.194921	0.770944	8.160321	-0.083263	0.036984	-0.108871	-0.070301	-0.153519	0.189920	-0.601318	-0.031494	-0.426025	0.051879	0.007787	0.081640	0.040995	-0.273347	-0.055118	-0.959460	5.637099	-31.941327	-176.721247
