// General information: 
//  MT Manager version: 2019.2.0 
//  XDA version: 2019.2.0 build 3853 rev 94535 built on 2019-09-09
// Device information: 
//  DeviceId: 00B47783
//  ProductCode: MTW2-3A7G6
//  Firmware Version: 4.6.0
//  Hardware Version: 2.0.0
// Device settings: 
//  Filter Profile: human(46.1)
//  Option Flags: Orientation Smoother Disabled, AHS Disabled, ICC Disabled
// Coordinate system: ENU
PacketCounter	SampleTimeFine	Acc_X	Acc_Y	Acc_Z	FreeAcc_E	FreeAcc_N	FreeAcc_U	Gyr_X	Gyr_Y	Gyr_Z	Mag_X	Mag_Y	Mag_Z	VelInc_X	VelInc_Y	VelInc_Z	Quat_q0	Quat_q1	Quat_q2	Quat_q3	Roll	Pitch	Yaw
57320		9.625909	-0.129920	-1.848896	0.053123	-0.013795	-0.010116	-0.015348	0.003640	0.002361	-0.891113	0.158447	0.475342	0.096259	-0.001299	-0.018491	-0.003661	-0.772478	0.015881	-0.634833	-175.722406	-78.785048	-5.868706
57321		9.620967	-0.208779	-1.894242	0.009819	0.066396	-0.005025	-0.023203	0.001004	0.001540	-0.894531	0.160400	0.481934	0.096210	-0.002089	-0.018943	-0.003737	-0.772475	0.015956	-0.634834	-175.728793	-78.785456	-5.874601
57322		9.628052	-0.163752	-1.946286	-0.041297	0.022841	0.011365	-0.021253	0.002158	0.000632	-0.894043	0.153076	0.484863	0.096280	-0.001639	-0.019464	-0.003805	-0.772467	0.016018	-0.634842	-175.735907	-78.786728	-5.878055
57323		9.600998	-0.188623	-1.925517	-0.025725	0.047931	-0.018843	-0.011199	0.004826	-0.000464	-0.898193	0.160889	0.479004	0.096010	-0.001888	-0.019257	-0.003841	-0.772452	0.016047	-0.634859	-175.740369	-78.789405	-5.878901
57324		9.627008	-0.209631	-1.916967	-0.012195	0.068492	0.005314	-0.007046	0.006012	-0.003288	-0.900146	0.159912	0.484619	0.096269	-0.002099	-0.019172	-0.003873	-0.772433	0.016054	-0.634882	-175.750687	-78.792969	-5.871768
57325		9.582543	-0.111831	-1.884791	0.007614	-0.029037	-0.045949	0.008603	-0.000727	-0.002207	-0.897217	0.162354	0.485352	0.095825	-0.001119	-0.018848	-0.003838	-0.772436	0.016013	-0.634879	-175.750023	-78.792548	-5.866274
57326		9.648739	-0.054772	-1.872601	0.030473	-0.087560	0.015802	-0.002695	0.005132	-0.003818	-0.892090	0.160645	0.478760	0.096487	-0.000550	-0.018728	-0.003849	-0.772420	0.016001	-0.634898	-175.758493	-78.795532	-5.857706
57327		9.596891	-0.128939	-1.828843	0.065157	-0.013237	-0.042468	-0.010951	0.003705	-0.001474	-0.896729	0.160156	0.480225	0.095969	-0.001291	-0.018290	-0.003888	-0.772409	0.016025	-0.634911	-175.765972	-78.797611	-5.855332
57328		9.610962	-0.156515	-1.873336	0.024697	0.015372	-0.019648	-0.011102	0.003792	0.000682	-0.898193	0.147217	0.481934	0.096109	-0.001566	-0.018735	-0.003915	-0.772396	0.016054	-0.634926	-175.766507	-78.799806	-5.859332
57329		9.644011	-0.132910	-1.917024	-0.012849	-0.007553	0.020897	-0.013253	0.004705	-0.000705	-0.894043	0.154541	0.477783	0.096440	-0.001331	-0.019172	-0.003960	-0.772382	0.016089	-0.634943	-175.772872	-78.802424	-5.859437
57330		9.613429	-0.180250	-1.870151	0.028238	0.039350	-0.017503	-0.017408	0.003518	0.002118	-0.892822	0.150391	0.474121	0.096134	-0.001803	-0.018703	-0.004024	-0.772369	0.016156	-0.634955	-175.775791	-78.804445	-5.867249
57331		9.620406	-0.252458	-1.862720	0.038893	0.111453	-0.011068	-0.008153	0.000465	-0.004264	-0.899170	0.151367	0.484131	0.096204	-0.002527	-0.018627	-0.004060	-0.772368	0.016161	-0.634956	-175.790418	-78.804790	-5.855954
57332		9.611170	-0.155259	-1.872370	0.024674	0.015208	-0.019648	0.008658	0.000221	-0.005509	-0.893311	0.153320	0.474121	0.096112	-0.001554	-0.018724	-0.004046	-0.772368	0.016116	-0.634958	-175.801031	-78.805280	-5.840543
57333		9.606537	-0.106632	-1.877258	0.017586	-0.032987	-0.023937	-0.001801	-0.001241	-0.001250	-0.897949	0.158691	0.488037	0.096065	-0.001067	-0.018772	-0.004048	-0.772372	0.016112	-0.634953	-175.803680	-78.804524	-5.837748
57334		9.643279	-0.050809	-1.847033	0.052445	-0.090357	0.005460	-0.005201	0.005274	0.002413	-0.892578	0.154785	0.475342	0.096432	-0.000507	-0.018473	-0.004055	-0.772355	0.016136	-0.634973	-175.796762	-78.807443	-5.847169
57335		9.587689	-0.157589	-1.877477	0.014701	0.018432	-0.041660	-0.025465	0.002949	-0.001000	-0.900391	0.162109	0.480469	0.095877	-0.001579	-0.018776	-0.004148	-0.772346	0.016208	-0.634982	-175.811361	-78.809071	-5.846015
57336		9.626545	-0.135454	-1.945044	-0.044890	-0.002181	0.009221	-0.012408	0.000311	-0.002588	-0.900391	0.150391	0.476563	0.096265	-0.001357	-0.019451	-0.004192	-0.772343	0.016228	-0.634984	-175.823309	-78.809550	-5.839279
57337		9.624280	-0.110932	-1.947233	-0.048427	-0.026318	0.007075	-0.015461	0.004671	0.001211	-0.897217	0.154785	0.470215	0.096242	-0.001110	-0.019474	-0.004239	-0.772329	0.016277	-0.635000	-175.825427	-78.812070	-5.845004
57338		9.619613	-0.179679	-1.892301	0.006114	0.041201	-0.007163	-0.011207	0.004826	-0.000464	-0.891602	0.157959	0.479492	0.096196	-0.001798	-0.018925	-0.004278	-0.772310	0.016306	-0.635022	-175.831309	-78.815353	-5.844613
57339		9.599662	-0.159991	-1.923468	-0.029403	0.022819	-0.020984	0.005358	0.005703	-0.000697	-0.891357	0.158691	0.476074	0.095996	-0.001600	-0.019237	-0.004251	-0.772293	0.016281	-0.635044	-175.826797	-78.818541	-5.844937
57340		9.623506	-0.147126	-1.817290	0.078530	0.006581	-0.018309	0.001854	0.002188	-0.002052	-0.897217	0.158203	0.477295	0.096235	-0.001472	-0.018174	-0.004239	-0.772286	0.016260	-0.635053	-175.828369	-78.819913	-5.840560
57341		9.608138	-0.175803	-1.843879	0.050105	0.036319	-0.027838	0.001604	0.003308	-0.001042	-0.904541	0.160645	0.478760	0.096081	-0.001758	-0.018440	-0.004227	-0.772276	0.016246	-0.635065	-175.827509	-78.821748	-5.839353
57342		9.617764	-0.145085	-1.793083	0.100476	0.004106	-0.028646	-0.002500	0.003067	-0.001523	-0.903564	0.159912	0.478516	0.096177	-0.001452	-0.017932	-0.004227	-0.772265	0.016237	-0.635079	-175.829956	-78.823854	-5.836139
57343		9.627204	-0.124051	-1.842545	0.052951	-0.015394	-0.010118	-0.008254	0.001499	-0.005412	-0.897461	0.164063	0.482910	0.096272	-0.001244	-0.018426	-0.004267	-0.772261	0.016237	-0.635084	-175.847767	-78.824837	-5.821658
57344		9.614470	-0.048832	-1.825794	0.064287	-0.090001	-0.026897	-0.031927	0.005688	-0.005165	-0.889648	0.154785	0.488281	0.096144	-0.000494	-0.018261	-0.004390	-0.772242	0.016306	-0.635104	-175.876337	-78.828428	-5.808697
57345		9.582534	-0.151452	-1.850615	0.036501	0.015349	-0.051996	-0.069379	0.005760	-0.007481	-0.897461	0.156250	0.484619	0.095825	-0.001525	-0.018508	-0.004673	-0.772223	0.016493	-0.635120	-175.934290	-78.831927	-5.788998
57346		9.620277	-0.174497	-1.889410	0.006092	0.040538	-0.007160	-0.048467	0.005760	-0.008242	-0.899170	0.154297	0.488281	0.096202	-0.001754	-0.018896	-0.004885	-0.772206	0.016618	-0.635136	-175.982877	-78.835184	-5.767913
57347		9.674923	-0.102561	-1.729383	0.170930	-0.035286	0.014569	-0.041664	0.003799	-0.011699	-0.891846	0.163574	0.478516	0.096749	-0.001035	-0.017295	-0.005075	-0.772194	0.016701	-0.635147	-176.037604	-78.837724	-5.735317
57348		9.661267	-0.052485	-1.483585	0.407332	-0.089459	-0.046934	-0.119086	0.007960	-0.021172	-0.895020	0.152100	0.482666	0.096612	-0.000544	-0.014839	-0.005591	-0.772168	0.016991	-0.635166	-176.162562	-78.842952	-5.676045
57349		9.656742	0.000219	-1.487454	0.400261	-0.137648	-0.051231	-0.201057	0.009111	-0.019091	-0.899170	0.151855	0.479492	0.096567	-0.000022	-0.014879	-0.006420	-0.772135	0.017551	-0.635183	-176.329119	-78.848780	-5.622550
57350		9.500172	0.086608	-1.505890	0.348175	-0.215637	-0.202238	-0.252067	0.008959	-0.009982	-0.885498	0.149414	0.486328	0.095001	0.000842	-0.015064	-0.007422	-0.772099	0.018312	-0.635195	-176.499501	-78.854318	-5.595747
57351		9.465543	-0.241849	-1.618133	0.244290	0.122383	-0.210672	-0.284690	-0.009252	-0.014288	-0.894775	0.148193	0.493408	0.094656	-0.002448	-0.016173	-0.008557	-0.772119	0.019157	-0.635132	-176.703415	-78.849416	-5.553018
57352		9.484458	-0.426526	-2.133187	-0.246209	0.332446	-0.090743	-0.255053	-0.035137	-0.021726	-0.887695	0.131592	0.485352	0.094848	-0.004303	-0.021310	-0.009611	-0.772224	0.019894	-0.634967	-176.916816	-78.829435	-5.485524
57353		8.958769	0.015839	-2.800331	-1.013627	-0.064826	-0.481558	-0.215001	-0.093528	-0.039803	-0.889404	0.144775	0.488525	0.089601	0.000110	-0.027962	-0.010550	-0.772514	0.020423	-0.634581	-177.166766	-78.777002	-5.355156
57354		8.986699	0.231931	-3.041460	-1.243399	-0.260479	-0.407842	-0.228624	-0.131956	-0.059667	-0.885742	0.129150	0.491211	0.089888	0.002258	-0.030358	-0.011623	-0.772928	0.020941	-0.634042	-177.487708	-78.702703	-5.163989
57355		9.411835	-0.102970	-3.305943	-1.390406	0.090373	0.065626	-0.195915	-0.136034	-0.071976	-0.886719	0.136475	0.490234	0.094140	-0.001096	-0.032994	-0.012585	-0.773355	0.021287	-0.633491	-177.819172	-78.626423	-4.939269
57356		9.655359	0.186744	-3.222780	-1.261927	-0.195986	0.287622	-0.104501	-0.118940	-0.067169	-0.880615	0.131592	0.494141	0.096573	0.001818	-0.032171	-0.013207	-0.773734	0.021384	-0.633012	-178.082799	-78.559230	-4.734328
57357		9.694583	0.092310	-3.040817	-1.060283	-0.102295	0.292032	-0.088160	-0.092858	-0.062846	-0.876953	0.128418	0.496338	0.096960	0.000879	-0.030364	-0.013728	-0.774029	0.021421	-0.632638	-178.316732	-78.507093	-4.546025
57358		9.861292	0.070722	-2.678818	-0.663758	-0.094532	0.384206	-0.000272	-0.057070	-0.047153	-0.877686	0.133545	0.501221	0.098621	0.000684	-0.026760	-0.013885	-0.774218	0.021260	-0.632410	-178.454219	-78.474539	-4.408275
57359		9.735291	-0.103694	-2.276590	-0.281459	0.065377	0.181612	0.031435	-0.037460	-0.033189	-0.883057	0.130371	0.505859	0.097357	-0.001050	-0.022748	-0.013855	-0.774343	0.021030	-0.632265	-178.529874	-78.453494	-4.311531
57360		9.530834	-0.096498	-1.952594	-0.001378	0.047784	-0.083533	0.113586	-0.045341	-0.046172	-0.876221	0.131104	0.494629	0.095313	-0.000976	-0.019505	-0.013558	-0.774501	0.020501	-0.632095	-178.595871	-78.427714	-4.178323
57361		9.606459	0.087947	-1.621850	0.333216	-0.150794	-0.076753	0.129614	-0.051197	-0.052818	-0.874756	0.129395	0.501465	0.096069	0.000865	-0.016193	-0.013209	-0.774677	0.019886	-0.631906	-178.670348	-78.399021	-4.025343
57362		9.591558	0.244601	-1.538402	0.409948	-0.307910	-0.108996	0.066818	-0.055603	-0.048020	-0.876465	0.121338	0.496094	0.095920	0.002428	-0.015357	-0.013090	-0.774863	0.019490	-0.631694	-178.767382	-78.367675	-3.886394
57363		9.411043	0.294317	-1.665297	0.253469	-0.345728	-0.260526	-0.015221	-0.069878	-0.045101	-0.880615	0.126953	0.495117	0.094117	0.002921	-0.016620	-0.013276	-0.775087	0.019363	-0.631418	-178.903106	-78.328083	-3.755573
57364		9.475294	0.056556	-1.718513	0.232884	-0.101688	-0.186001	-0.108319	-0.079505	-0.046864	-0.873535	0.134033	0.502441	0.094760	0.000534	-0.017148	-0.013827	-0.775336	0.019524	-0.631096	-179.096692	-78.282973	-3.620194
57365		9.560351	-0.240100	-1.940729	0.055426	0.210087	-0.056809	-0.134559	-0.086468	-0.048583	-0.879395	0.129639	0.510742	0.095611	-0.002437	-0.019364	-0.014485	-0.775604	0.019762	-0.630744	-179.308795	-78.233736	-3.481156
57366		9.459121	-0.195694	-1.975231	0.008401	0.175638	-0.149155	-0.147679	-0.096008	-0.051967	-0.863770	0.121826	0.506836	0.094600	-0.001996	-0.019705	-0.015203	-0.775901	0.020028	-0.630353	-179.536502	-78.178990	-3.333823
57367		9.579552	-0.355435	-2.098080	-0.068831	0.347543	-0.006029	-0.125559	-0.098440	-0.065685	-0.866943	0.120361	0.506104	0.095805	-0.003599	-0.020931	-0.015879	-0.776209	0.020172	-0.629953	-179.787190	-78.122726	-3.150037
57368		9.690355	-0.363503	-2.482118	-0.410778	0.381008	0.181416	-0.091614	-0.092741	-0.050019	-0.873779	0.115234	0.504150	0.096914	-0.003671	-0.024775	-0.016374	-0.776499	0.020269	-0.629580	-179.974000	-78.069615	-3.011626
57369		9.580961	-0.074141	-2.504513	-0.461200	0.100195	0.079236	-0.038809	-0.080971	-0.048725	-0.870605	0.120850	0.511475	0.095820	-0.000770	-0.025006	-0.016661	-0.776756	0.020204	-0.629257	179.874297	-78.023114	-2.878141
57370		9.444455	-0.079184	-2.466851	-0.445142	0.110359	-0.061840	-0.114661	-0.060003	-0.039477	-0.866699	0.115967	0.514404	0.094452	-0.000825	-0.024640	-0.017215	-0.776940	0.020412	-0.629009	179.704915	-77.988606	-2.770996
57371		9.666698	0.006526	-2.725877	-0.649790	0.041753	0.209864	-0.030374	-0.068501	-0.049271	-0.861816	0.118896	0.517090	0.096676	0.000037	-0.027226	-0.017472	-0.777158	0.020317	-0.628735	179.558443	-77.949095	-2.637880
57372		10.011369	0.034862	-2.602261	-0.452461	0.009559	0.521511	-0.048108	-0.048030	-0.058410	-0.870605	0.114258	0.510254	0.100120	0.000313	-0.025999	-0.017829	-0.777311	0.020241	-0.628538	179.377693	-77.921204	-2.480088
57373		9.728327	-0.160550	-2.587616	-0.481542	0.212200	0.241414	0.021831	-0.049401	-0.058109	-0.864258	0.107910	0.523193	0.097289	-0.001631	-0.025852	-0.017913	-0.777475	0.019947	-0.628343	179.238613	-77.892418	-2.323911
57374		9.481311	0.162844	-2.237892	-0.203514	-0.122737	-0.072387	0.087288	-0.058923	-0.067882	-0.868652	0.114502	0.520020	0.094820	0.001606	-0.022350	-0.017772	-0.777675	0.019409	-0.628116	179.112063	-77.858025	-2.142173
57375		9.644292	-0.213144	-2.313796	-0.216959	0.259944	0.101787	0.111310	-0.072106	-0.083299	-0.864502	0.113770	0.522949	0.096450	-0.002159	-0.023104	-0.017585	-0.777920	0.018738	-0.627838	178.959854	-77.815834	-1.920080
57376		9.436838	-0.031081	-1.950029	0.092281	0.065956	-0.177096	0.237060	-0.073969	-0.104024	-0.869385	0.112305	0.520020	0.094375	-0.000337	-0.019466	-0.016974	-0.778182	0.017591	-0.627563	178.826188	-77.772227	-1.643207
57377		9.417090	0.206474	-2.123529	-0.085022	-0.157450	-0.158592	0.182891	-0.078416	-0.108844	-0.865479	0.111084	0.512939	0.094180	0.002033	-0.021197	-0.016588	-0.778453	0.016595	-0.627264	178.650585	-77.725857	-1.355132
57378		9.513778	0.325109	-2.415115	-0.346657	-0.257031	-0.001255	0.166151	-0.068452	-0.106684	-0.866943	0.115479	0.516602	0.095148	0.003220	-0.024116	-0.016261	-0.778691	0.015660	-0.627001	178.472103	-77.685034	-1.073881
57379		9.411700	0.106494	-2.632901	-0.564242	-0.022131	-0.055396	0.065060	-0.060095	-0.095289	-0.859619	0.113037	0.513672	0.094125	0.001029	-0.026300	-0.016293	-0.778893	0.015086	-0.626764	178.266433	-77.648985	-0.824046
57380		9.348583	-0.309156	-2.905120	-0.819550	0.412165	-0.061290	0.086817	-0.050259	-0.101929	-0.857178	0.109863	0.518066	0.093492	-0.003127	-0.029029	-0.016262	-0.779065	0.014416	-0.626566	178.056321	-77.618237	-0.556871
57381		9.310851	-0.372428	-2.813485	-0.730949	0.478470	-0.118198	0.113946	-0.045747	-0.115428	-0.859375	0.108643	0.513184	0.093113	-0.003762	-0.028116	-0.016167	-0.779226	0.013609	-0.626386	177.827363	-77.589592	-0.254455
57382		9.419465	-0.290878	-2.670970	-0.568102	0.398115	-0.042131	0.180431	-0.037695	-0.130185	-0.854492	0.116943	0.521729	0.094198	-0.002946	-0.026695	-0.015860	-0.779368	0.012535	-0.626240	177.598533	-77.564920	0.086871
57383		9.580126	0.058560	-2.355793	-0.236674	0.043848	0.050074	0.181976	-0.023396	-0.129444	-0.863281	0.115479	0.523193	0.095804	0.000545	-0.023546	-0.015546	-0.779464	0.011458	-0.626149	177.371854	-77.548200	0.426924
57384		9.616981	0.225671	-2.283238	-0.161895	-0.117825	0.072166	0.154163	-0.010790	-0.123155	-0.861816	0.115234	0.520020	0.096172	0.002215	-0.022825	-0.015321	-0.779518	0.010492	-0.626105	177.144715	-77.538524	0.751150
57385		9.514507	0.409172	-2.392945	-0.296070	-0.289744	-0.002089	0.097509	-0.004957	-0.101270	-0.860840	0.116455	0.521484	0.095148	0.004055	-0.023925	-0.015249	-0.779546	0.009787	-0.626083	176.941277	-77.532623	1.017865
57386		9.419233	0.376079	-2.161298	-0.088994	-0.257861	-0.145207	0.031779	0.008508	-0.091536	-0.865967	0.114746	0.519775	0.094193	0.003721	-0.021616	-0.015403	-0.779527	0.009326	-0.626109	176.723635	-77.534461	1.260562
57387		9.513219	0.112343	-2.298137	-0.194122	0.019409	-0.027120	-0.020038	0.016072	-0.088774	-0.856689	0.114258	0.521240	0.095131	0.001079	-0.022989	-0.015751	-0.779480	0.009037	-0.626164	176.482125	-77.540570	1.497291
57388		9.502777	0.260341	-2.106469	-0.015805	-0.126266	-0.076592	-0.029091	0.020754	-0.093206	-0.861328	0.105225	0.515381	0.095027	0.002556	-0.021075	-0.016148	-0.779418	0.008759	-0.626235	176.222966	-77.548906	1.746778
57389		9.479665	0.131146	-2.251303	-0.160080	0.018075	-0.069810	-0.083765	0.033387	-0.094219	-0.865479	0.107666	0.516602	0.094793	0.001257	-0.022529	-0.016762	-0.779311	0.008646	-0.626353	175.927151	-77.564228	2.001710
57390		9.391136	0.276361	-2.275864	-0.211195	-0.116068	-0.148771	-0.078004	0.035982	-0.093686	-0.864014	0.106445	0.515381	0.093909	0.002711	-0.022777	-0.017352	-0.779197	0.008518	-0.626481	175.634873	-77.580706	2.256385
57391		9.345569	0.411348	-2.490174	-0.438286	-0.231811	-0.145009	-0.109638	0.037917	-0.101596	-0.866699	0.096436	0.515381	0.093453	0.004052	-0.024922	-0.018091	-0.779073	0.008458	-0.626615	175.302758	-77.597699	2.533275
57392		9.375895	0.290720	-2.647330	-0.584573	-0.092058	-0.083861	-0.150472	0.041742	-0.099709	-0.865967	0.093994	0.526855	0.093755	0.002841	-0.026495	-0.018982	-0.778934	0.008533	-0.626761	174.950455	-77.616535	2.806862
57393		9.356851	0.215218	-2.491750	-0.438468	-0.009696	-0.137283	-0.154914	0.054488	-0.100650	-0.872314	0.108643	0.524414	0.093563	0.002086	-0.024945	-0.019894	-0.778753	0.008616	-0.626956	174.589079	-77.642305	3.087108
57394		9.634045	-0.003245	-2.436100	-0.321744	0.222830	0.116876	-0.151916	0.060200	-0.099434	-0.861572	0.095215	0.524658	0.096333	-0.000099	-0.024390	-0.020791	-0.778554	0.008695	-0.627173	174.229789	-77.670930	3.366948
57395		9.750393	0.154267	-2.360456	-0.235445	0.077222	0.217482	-0.173050	0.070819	-0.096703	-0.872070	0.091553	0.515625	0.097496	0.001475	-0.023640	-0.021762	-0.778318	0.008849	-0.627430	173.861062	-77.705480	3.644019
57396		9.649955	0.131618	-2.324446	-0.227849	0.110347	0.110915	-0.189916	0.079709	-0.089087	-0.871094	0.092285	0.518555	0.096491	0.001251	-0.023284	-0.022775	-0.778052	0.009085	-0.627721	173.498218	-77.745095	3.905143
57397		9.798540	-0.377082	-2.283868	-0.142285	0.631607	0.234723	-0.147691	0.079344	-0.091978	-0.864990	0.095703	0.517090	0.097975	-0.003833	-0.022875	-0.023633	-0.777791	0.009177	-0.628011	173.150075	-77.784064	4.175938
57398		9.525596	-0.189638	-2.072650	-0.008423	0.441254	-0.072357	-0.029367	0.067999	-0.095744	-0.865479	0.087402	0.515137	0.095248	-0.001945	-0.020759	-0.024042	-0.777580	0.008884	-0.628262	172.861798	-77.815896	4.454815
57399		9.334699	0.232443	-1.828839	0.165639	0.014882	-0.299138	0.018450	0.052383	-0.112747	-0.864258	0.090332	0.516602	0.093343	0.002273	-0.018313	-0.024318	-0.777423	0.008377	-0.628452	172.559904	-77.837416	4.775615
57400		9.420937	0.612618	-1.670137	0.318222	-0.359888	-0.237306	-0.002944	0.043998	-0.123637	-0.865967	0.087646	0.511719	0.094209	0.006068	-0.016722	-0.024711	-0.777290	0.007896	-0.628607	172.219088	-77.852868	5.123675
57401		9.537865	0.862752	-1.673999	0.324462	-0.594838	-0.114318	-0.116341	0.037146	-0.115617	-0.868652	0.085693	0.514404	0.095381	0.008563	-0.016763	-0.025519	-0.777164	0.007803	-0.628732	171.835999	-77.864706	5.448493
57402		9.620239	0.782906	-1.745943	0.270595	-0.496358	-0.020310	-0.230040	0.041296	-0.101459	-0.867676	0.089111	0.521484	0.096203	0.007760	-0.017488	-0.026725	-0.777010	0.008122	-0.628869	171.422837	-77.879511	5.737427
57403		9.756583	0.381110	-1.942796	0.120550	-0.067874	0.141782	-0.331009	0.042151	-0.081446	-0.869385	0.087891	0.510010	0.097563	0.003739	-0.019455	-0.028259	-0.776836	0.008836	-0.629007	171.003334	-77.896202	5.973656
57404		9.756001	-0.119699	-2.246119	-0.154841	0.463722	0.187308	-0.358938	0.039262	-0.074808	-0.865967	0.077393	0.516846	0.097555	-0.001274	-0.022478	-0.029882	-0.776665	0.009664	-0.629131	170.585736	-77.911419	6.191560
57405		9.571209	-0.337518	-2.379729	-0.314533	0.699669	0.025838	-0.318443	0.034773	-0.071185	-0.860107	0.083008	0.513916	0.095707	-0.003447	-0.023808	-0.031335	-0.776511	0.010380	-0.629239	170.202128	-77.924213	6.398418
57406		9.498018	-0.137486	-2.399806	-0.362673	0.513957	-0.035437	-0.242460	0.040018	-0.088739	-0.864990	0.076904	0.515381	0.094975	-0.001446	-0.024015	-0.032549	-0.776352	0.010787	-0.629366	169.812787	-77.937838	6.655653
57407		9.480886	0.342301	-2.412396	-0.409604	0.049819	-0.032414	-0.236840	0.041646	-0.084883	-0.865967	0.076172	0.514160	0.094805	0.003354	-0.024148	-0.033728	-0.776187	0.011192	-0.629500	169.435204	-77.952509	6.904139
57408		9.561685	0.597913	-2.694762	-0.688763	-0.170264	0.114128	-0.254783	0.053646	-0.074159	-0.871338	0.065674	0.515137	0.095612	0.005909	-0.026981	-0.034945	-0.775980	0.011692	-0.629680	169.068990	-77.974642	7.130478
57409		9.637433	0.544857	-2.742973	-0.724189	-0.098169	0.195648	-0.312646	0.080422	-0.046562	-0.869629	0.069336	0.514648	0.096365	0.005383	-0.027477	-0.036300	-0.775675	0.012477	-0.629964	168.727285	-78.014683	7.297833
57410		9.643904	0.117141	-2.674059	-0.636763	0.337145	0.169800	-0.327387	0.098999	-0.046473	-0.869873	0.062988	0.516602	0.096426	0.001105	-0.026790	-0.037713	-0.775307	0.013306	-0.630317	168.365772	-78.064829	7.476780
57411		9.744647	0.058482	-2.388212	-0.342763	0.389783	0.207077	-0.226006	0.108526	-0.063106	-0.869141	0.069092	0.516357	0.097434	0.000527	-0.023936	-0.038787	-0.774927	0.013748	-0.630710	168.010370	-78.118257	7.708806
57412		9.492848	0.369884	-2.040585	-0.086497	0.057425	-0.096507	-0.132131	0.104323	-0.086867	-0.865723	0.063721	0.509277	0.094919	0.003644	-0.020458	-0.039571	-0.774579	0.013804	-0.631087	167.645442	-78.166023	8.005491
57413		9.513051	0.451569	-1.625367	0.308377	-0.044588	-0.156251	-0.092278	0.088648	-0.098279	-0.877197	0.069336	0.508301	0.095125	0.004461	-0.016298	-0.040235	-0.774289	0.013692	-0.631404	167.279381	-78.203347	8.326607
57414		9.555325	0.911110	-1.661811	0.241046	-0.486955	-0.086397	-0.031018	0.073537	-0.108230	-0.863281	0.057861	0.510254	0.095552	0.009057	-0.016655	-0.040693	-0.774059	0.013352	-0.631663	166.929293	-78.230418	8.667232
57415		9.449075	1.401383	-1.634065	0.204703	-0.969419	-0.172285	-0.097562	0.070768	-0.100882	-0.875488	0.060059	0.503662	0.094492	0.013958	-0.016381	-0.041385	-0.773823	0.013251	-0.631909	166.560678	-78.256602	8.987796
57416		9.720464	1.027885	-1.757110	0.158533	-0.566181	0.101227	-0.226005	0.075260	-0.091267	-0.872070	0.057129	0.501709	0.097203	0.010215	-0.017619	-0.042544	-0.773546	0.013591	-0.632165	166.139843	-78.286012	9.286504
57417		9.598182	1.085443	-2.004049	-0.119899	-0.593805	0.033759	-0.217579	0.072779	-0.082619	-0.870117	0.047363	0.507324	0.095979	0.010793	-0.020087	-0.043643	-0.773275	0.013939	-0.632413	165.746819	-78.314939	9.561704
57418		9.546964	0.834074	-2.232752	-0.342594	-0.312059	0.016382	-0.300560	0.074149	-0.074146	-0.874512	0.046143	0.512695	0.095464	0.008272	-0.022375	-0.045036	-0.772981	0.014582	-0.632661	165.326427	-78.345315	9.816276
57419		9.504716	0.615570	-2.309624	-0.416875	-0.074976	-0.021187	-0.290557	0.075013	-0.070800	-0.871826	0.048096	0.511230	0.095041	0.006088	-0.023141	-0.046379	-0.772683	0.015206	-0.632913	164.918346	-78.376416	10.064098
57420		9.436606	0.489816	-2.444114	-0.559204	0.073767	-0.068716	-0.270226	0.078842	-0.068392	-0.873047	0.058594	0.496582	0.094358	0.004833	-0.024485	-0.047582	-0.772379	0.015707	-0.633183	164.523878	-78.409506	10.319889
57421		9.332181	0.605122	-2.586463	-0.736694	-0.018057	-0.137849	-0.241485	0.084408	-0.066037	-0.872070	0.049072	0.501221	0.093313	0.005989	-0.025911	-0.048721	-0.772059	0.016191	-0.633473	164.146144	-78.445837	10.565376
57422		9.372601	0.518466	-2.769625	-0.908572	0.099792	-0.068469	-0.206103	0.089404	-0.061747	-0.880127	0.043701	0.504395	0.093715	0.005127	-0.027743	-0.049711	-0.771732	0.016579	-0.633785	163.794518	-78.485125	10.804877
57423		9.229203	0.306884	-2.849420	-1.004404	0.324242	-0.206566	-0.150553	0.093750	-0.065842	-0.872559	0.046387	0.497559	0.092280	0.003017	-0.028540	-0.050499	-0.771404	0.016774	-0.634117	163.458125	-78.526010	11.061274
57424		9.435206	0.201398	-2.765584	-0.881360	0.438776	-0.027863	-0.066159	0.095994	-0.070683	-0.872803	0.041016	0.499512	0.094339	0.001971	-0.027702	-0.050978	-0.771090	0.016683	-0.634463	163.153244	-78.566859	11.334826
57425		9.528621	0.550066	-2.526506	-0.671061	0.080145	0.037372	0.026754	0.120747	-0.074489	-0.871826	0.036133	0.506104	0.095273	0.005469	-0.025322	-0.051112	-0.770721	0.016275	-0.634911	162.868394	-78.620539	11.642197
57426		9.390385	1.261770	-2.112998	-0.368858	-0.666837	-0.135115	0.042295	0.129619	-0.075859	-0.875488	0.035645	0.502197	0.093895	0.012587	-0.021188	-0.051192	-0.770328	0.015811	-0.635392	162.578555	-78.678328	11.963689
57427		9.582187	1.309327	-1.673616	0.081046	-0.742311	-0.026165	-0.042631	0.137121	-0.061467	-0.872803	0.041992	0.491699	0.095814	0.013060	-0.016805	-0.051553	-0.769887	0.015670	-0.635901	162.269453	-78.742579	12.255126
57428		9.521698	1.166310	-1.324681	0.410125	-0.629894	-0.158009	-0.085130	0.139249	-0.048304	-0.880127	0.039551	0.497070	0.095211	0.011634	-0.013318	-0.052037	-0.769428	0.015713	-0.636416	161.966964	-78.809787	12.514938
57429		9.402078	1.058041	-1.167513	0.538193	-0.535913	-0.309807	-0.105330	0.121277	-0.051920	-0.883789	0.039551	0.496094	0.094016	0.010550	-0.011738	-0.052608	-0.769020	0.015813	-0.636860	161.655817	-78.866508	12.771714
57430		9.414221	1.021517	-0.977159	0.719236	-0.510651	-0.333878	-0.143434	0.096401	-0.061101	-0.875000	0.039795	0.492676	0.094141	0.010179	-0.009824	-0.053353	-0.768682	0.016004	-0.637202	161.317738	-78.907558	13.033650
57431		9.602865	0.936181	-0.945700	0.784759	-0.412155	-0.158669	-0.168141	0.070412	-0.072970	-0.879639	0.040771	0.494873	0.096029	0.009319	-0.009499	-0.054228	-0.768419	0.016236	-0.637439	160.955138	-78.932211	13.306113
57432		9.738793	0.815520	-1.082021	0.681859	-0.262191	-0.007268	-0.216621	0.049072	-0.077025	-0.883057	0.030762	0.492920	0.097388	0.008106	-0.010853	-0.055302	-0.768211	0.016612	-0.637587	160.572813	-78.944032	13.570357
57433		9.936829	0.458624	-1.209652	0.623984	0.124963	0.187772	-0.208065	0.032334	-0.071582	-0.882813	0.029785	0.498047	0.099368	0.004538	-0.012117	-0.056323	-0.768057	0.016987	-0.637673	160.226391	-78.947723	13.803005
57434		9.855368	0.696646	-1.524963	0.275044	-0.071211	0.180230	-0.167782	0.012702	-0.069695	-0.883057	0.026367	0.496582	0.098555	0.006919	-0.015262	-0.057126	-0.767978	0.017178	-0.637692	159.927705	-78.940795	14.020533
57435		9.982168	0.943832	-1.862541	-0.056426	-0.264098	0.381949	-0.169426	-0.007066	-0.065599	-0.883789	0.024414	0.486084	0.099825	0.009390	-0.018630	-0.057977	-0.767959	0.017464	-0.637631	159.659827	-78.924014	14.195717
57436		9.907322	1.012947	-2.005636	-0.216791	-0.311317	0.339147	-0.159134	-0.009523	-0.052281	-0.881348	0.018311	0.487305	0.099077	0.010088	-0.020060	-0.058690	-0.767951	0.017701	-0.637569	159.437363	-78.908277	14.340644
57437		9.746412	1.091695	-2.120297	-0.366715	-0.376848	0.207467	-0.145328	-0.007360	-0.034123	-0.879395	0.022949	0.489746	0.097467	0.010885	-0.021207	-0.059347	-0.767935	0.018031	-0.637517	159.270767	-78.897439	14.426703
57438		9.593348	1.369606	-2.099793	-0.404601	-0.656514	0.072784	-0.113446	0.003960	-0.027767	-0.875488	0.020020	0.490234	0.095935	0.013671	-0.021008	-0.059863	-0.767893	0.018280	-0.637512	159.128098	-78.893742	14.506997
57439		9.736757	1.050330	-2.146314	-0.391638	-0.323177	0.200128	-0.126402	0.011523	-0.005397	-0.879639	0.027588	0.497803	0.097367	0.010487	-0.021475	-0.060358	-0.767820	0.018654	-0.637543	159.031315	-78.898808	14.532965
57440		9.611279	0.981902	-2.204592	-0.466568	-0.252268	0.082752	-0.067625	0.011911	0.004403	-0.878662	0.026855	0.491455	0.096111	0.009814	-0.022055	-0.060596	-0.767763	0.018877	-0.637582	158.994270	-78.905902	14.532374
57441		9.468070	0.935504	-2.116357	-0.403041	-0.222456	-0.076849	-0.041069	-0.001166	-0.000968	-0.881348	0.019043	0.497559	0.094681	0.009350	-0.021165	-0.060748	-0.767756	0.019000	-0.637574	158.971688	-78.905083	14.532551
57442		9.531391	0.724833	-2.031932	-0.285553	-0.019584	-0.044391	-0.019316	-0.016829	-0.004798	-0.887207	0.017578	0.500000	0.095316	0.007244	-0.020312	-0.060828	-0.767806	0.019043	-0.637504	158.967311	-78.894901	14.526873
57443		9.556422	0.732043	-1.749088	-0.003570	-0.058282	-0.070152	0.034666	-0.017814	-0.014180	-0.877197	0.018311	0.490723	0.095566	0.007317	-0.017481	-0.060729	-0.767876	0.018879	-0.637434	158.969578	-78.882462	14.545948
57444		9.688638	0.707332	-1.465532	0.303421	-0.060281	0.006788	0.042565	-0.030272	-0.013238	-0.873535	0.016846	0.493408	0.096889	0.007070	-0.014639	-0.060597	-0.767988	0.018696	-0.637317	158.991728	-78.863351	14.549370
57445		9.656029	0.826474	-1.423180	0.329972	-0.185205	-0.024725	0.051523	-0.041584	-0.006694	-0.883057	0.016357	0.494385	0.096564	0.008265	-0.014210	-0.060408	-0.768138	0.018514	-0.637160	159.048727	-78.839735	14.522507
57446		9.496451	0.626543	-1.476625	0.274495	0.010645	-0.185637	0.051704	-0.065604	-0.002451	-0.874512	0.012695	0.500244	0.094969	0.006268	-0.014733	-0.060203	-0.768365	0.018355	-0.636910	159.141680	-78.803929	14.459094
57447		9.432898	0.466096	-1.632386	0.135491	0.183429	-0.230961	0.084621	-0.099956	-0.011513	-0.877930	0.016113	0.497803	0.094337	0.004662	-0.016275	-0.059896	-0.768710	0.018066	-0.636530	159.263914	-78.748050	14.385050
57448		9.546902	0.357971	-1.920487	-0.100986	0.327403	-0.073984	0.151847	-0.141306	-0.019499	-0.873047	0.018799	0.495361	0.095483	0.003585	-0.019135	-0.059354	-0.769209	0.017545	-0.635993	159.443618	-78.668165	14.291659
57449		9.551341	0.161108	-1.838871	0.014948	0.510812	-0.098042	0.233605	-0.166139	-0.029957	-0.871582	0.011719	0.496826	0.095529	0.001618	-0.018307	-0.058527	-0.769809	0.016732	-0.635365	159.665108	-78.572976	14.203401
57450		9.480295	-0.122972	-1.805615	0.079251	0.782431	-0.193288	0.321215	-0.192604	-0.046295	-0.875977	0.016113	0.504150	0.094820	-0.001223	-0.017967	-0.057358	-0.770521	0.015517	-0.634639	159.916408	-78.460070	14.145913
57451		9.322169	0.048541	-1.834035	0.023374	0.604710	-0.330988	0.392435	-0.212711	-0.074576	-0.869141	0.024658	0.500732	0.093241	0.000487	-0.018240	-0.056057	-0.771313	0.014041	-0.633827	160.150660	-78.330929	14.137460
57452		9.319575	0.543626	-1.896088	-0.060326	0.117526	-0.287582	0.430420	-0.250842	-0.100516	-0.874512	0.031494	0.508545	0.093222	0.005430	-0.018832	-0.054634	-0.772236	0.012287	-0.632863	160.372228	-78.176024	14.174188
57453		9.656733	0.576276	-1.988845	-0.058830	0.110476	0.062755	0.408689	-0.274347	-0.107614	-0.863037	0.026855	0.503662	0.096598	0.005751	-0.019744	-0.053371	-0.773221	0.010648	-0.631797	160.582193	-78.007263	14.200064
57454		9.806353	0.658108	-1.878635	0.102241	0.025875	0.193098	0.434289	-0.278549	-0.106792	-0.875488	0.027588	0.512939	0.098093	0.006569	-0.018635	-0.051951	-0.774223	0.008865	-0.630715	160.809915	-77.836232	14.232798
57455		9.822297	0.470760	-1.754060	0.272064	0.201440	0.170358	0.451126	-0.272560	-0.104934	-0.861572	0.030273	0.517578	0.098249	0.004695	-0.017396	-0.050514	-0.775202	0.007103	-0.629650	161.043959	-77.668988	14.258947
57456		9.770972	0.468194	-1.693936	0.350072	0.195878	0.106967	0.500693	-0.278988	-0.105715	-0.862061	0.028564	0.511230	0.097736	0.004672	-0.016791	-0.048833	-0.776210	0.005114	-0.628560	161.306892	-77.497971	14.294614
57457		9.769491	0.867033	-1.724305	0.324559	-0.199566	0.138326	0.547361	-0.294327	-0.106835	-0.862305	0.034912	0.508301	0.097725	0.008665	-0.017076	-0.047028	-0.777268	0.003047	-0.627402	161.603031	-77.318616	14.313671
57458		9.614165	1.062838	-1.819220	0.221441	-0.396857	0.019135	0.488377	-0.310205	-0.104843	-0.856689	0.035889	0.529785	0.096175	0.010622	-0.018017	-0.045391	-0.778356	0.001107	-0.626179	161.878995	-77.130843	14.328775
57459		9.640961	0.641368	-1.992096	0.118384	0.035930	0.052024	0.417698	-0.319543	-0.100834	-0.855225	0.038574	0.521973	0.096444	0.006406	-0.019754	-0.044070	-0.779450	-0.000525	-0.624912	162.127536	-76.938857	14.320468
57460		9.714384	0.150075	-2.200249	-0.008360	0.541980	0.134120	0.429067	-0.320339	-0.088787	-0.847412	0.035400	0.529785	0.097180	0.001505	-0.021844	-0.042613	-0.780544	-0.002214	-0.623643	162.407316	-76.748378	14.296763
57461		9.683234	-0.010468	-2.334881	-0.105592	0.705503	0.122493	0.451675	-0.334402	-0.085105	-0.853027	0.043213	0.528809	0.096871	-0.000093	-0.023187	-0.041110	-0.781679	-0.003888	-0.622312	162.714189	-76.550961	14.248498
57462		9.662820	-0.199288	-2.140865	0.119976	0.877928	0.046718	0.468738	-0.341614	-0.096355	-0.845703	0.043945	0.532715	0.096664	-0.001990	-0.021248	-0.039521	-0.782835	-0.005726	-0.620947	163.005339	-76.347490	14.236426
57463		9.854984	-0.119004	-2.233842	0.105098	0.811270	0.259830	0.519604	-0.371616	-0.097020	-0.850586	0.045898	0.531494	0.098591	-0.001180	-0.022158	-0.037790	-0.784085	-0.007650	-0.619455	163.339588	-76.127580	14.199963
57464		9.820424	0.748871	-1.855253	0.473714	-0.077973	0.197951	0.567593	-0.366867	-0.094561	-0.849121	0.047852	0.538086	0.098242	0.007495	-0.018351	-0.035809	-0.785321	-0.009782	-0.617975	163.697843	-75.910491	14.177071
57465		9.722070	0.977897	-1.923589	0.419224	-0.311934	0.132257	0.477251	-0.382359	-0.080601	-0.844971	0.040039	0.538574	0.097261	0.009785	-0.019027	-0.034194	-0.786581	-0.011509	-0.616432	164.038601	-75.687193	14.108793
57466		9.692980	0.823354	-1.963851	0.419997	-0.160673	0.101248	0.420613	-0.405645	-0.067173	-0.845703	0.052979	0.549805	0.096972	0.008242	-0.019425	-0.032707	-0.787896	-0.013074	-0.614800	164.383559	-75.452926	14.012607
57467		9.857236	0.309765	-2.248390	0.238369	0.367958	0.292951	0.431951	-0.430346	-0.061102	-0.838867	0.048096	0.542969	0.098621	0.003116	-0.022265	-0.031213	-0.789283	-0.014576	-0.613063	164.754795	-75.205908	13.885850
57468		9.903889	0.380548	-2.411027	0.138024	0.299939	0.382197	0.502786	-0.459548	-0.067780	-0.831055	0.046387	0.547852	0.099095	0.003832	-0.023873	-0.029407	-0.790761	-0.016387	-0.611199	165.160619	-74.941411	13.775158
57469		10.157890	0.130791	-2.395663	0.269388	0.558013	0.606279	0.507064	-0.483655	-0.059127	-0.835693	0.056396	0.555664	0.101637	0.001338	-0.023708	-0.027614	-0.792304	-0.018103	-0.609232	165.590066	-74.664698	13.632367
57470		10.121745	0.403581	-2.343499	0.361558	0.275302	0.574701	0.592532	-0.494940	-0.064389	-0.822998	0.058350	0.551514	0.101276	0.004072	-0.023172	-0.025445	-0.793881	-0.020168	-0.607205	166.053332	-74.380588	13.515113
57471		9.956294	0.501412	-2.059018	0.647851	0.156039	0.344795	0.557519	-0.525094	-0.058856	-0.829102	0.061279	0.572754	0.099618	0.005042	-0.020315	-0.023454	-0.795535	-0.022032	-0.605052	166.511381	-74.080288	13.372245
57472		9.875313	0.223540	-1.958640	0.777589	0.421305	0.218545	0.580673	-0.553781	-0.050530	-0.821289	0.064453	0.570801	0.098807	0.002267	-0.019306	-0.021297	-0.797266	-0.023998	-0.602775	167.000582	-73.764681	13.220552
57473		9.772432	0.542104	-1.857933	0.909034	0.090639	0.107562	0.603751	-0.573297	-0.056811	-0.826416	0.064453	0.570068	0.097779	0.005449	-0.018283	-0.019121	-0.799045	-0.025988	-0.600405	167.487023	-73.437095	13.075248
57474		9.804147	0.878970	-1.840729	1.002576	-0.248086	0.147992	0.580529	-0.589398	-0.054905	-0.812256	0.065674	0.570801	0.098098	0.008816	-0.018093	-0.016981	-0.800854	-0.027967	-0.597965	167.958296	-73.100332	12.941646
57475		9.671867	0.909001	-1.628773	1.233193	-0.288389	-0.044376	0.549962	-0.612207	-0.062881	-0.823730	0.068115	0.584717	0.096771	0.009104	-0.015967	-0.015044	-0.802717	-0.029815	-0.595425	168.394494	-72.749588	12.816144
57476		9.877919	0.928023	-1.267644	1.705704	-0.288580	0.038624	0.572445	-0.648287	-0.092368	-0.811523	0.067627	0.580322	0.098824	0.009270	-0.012330	-0.013057	-0.804666	-0.031916	-0.592725	168.793119	-72.374948	12.753285
57477		10.053643	1.040504	-0.777200	2.299920	-0.374358	0.053021	0.556792	-0.667500	-0.119947	-0.806152	0.075439	0.591309	0.100568	0.010366	-0.007407	-0.011270	-0.806655	-0.034009	-0.589936	169.131951	-71.986377	12.733652
57478		10.082552	1.171090	-0.736628	2.426403	-0.491472	0.058606	0.529760	-0.713405	-0.117209	-0.795166	0.076172	0.594971	0.100858	0.011671	-0.006976	-0.009540	-0.808758	-0.036078	-0.586956	169.467396	-71.572252	12.711233
57479		9.801351	0.866821	-0.668364	2.465896	-0.195563	-0.265690	0.402390	-0.758273	-0.105115	-0.789307	0.087646	0.595215	0.098042	0.008630	-0.006295	-0.008348	-0.810977	-0.037652	-0.583806	169.756387	-71.134013	12.650742
57480		9.951663	0.428351	-0.579797	2.652211	0.267414	-0.197651	0.369976	-0.818558	-0.130793	-0.785889	0.078613	0.610107	0.099542	0.004229	-0.005383	-0.007324	-0.813345	-0.039303	-0.580406	169.995109	-70.659199	12.633620
57481		10.208421	0.029874	-0.043569	3.301460	0.718396	-0.179504	0.268705	-0.878368	-0.170775	-0.783203	0.073486	0.614014	0.102085	0.000212	0.000013	-0.006891	-0.815862	-0.040748	-0.576768	170.124174	-70.146552	12.661233
57482		10.329231	-0.248408	0.776182	4.182848	1.059051	-0.392575	0.268586	-0.955686	-0.225067	-0.782471	0.073486	0.616455	0.103251	-0.002611	0.008252	-0.006580	-0.818567	-0.042483	-0.572800	170.188502	-69.585145	12.767803
57483		10.908269	0.521150	1.648230	5.340738	0.403393	-0.153954	0.133386	-1.066701	-0.304720	-0.776123	0.084473	0.626709	0.109000	0.005034	0.017067	-0.007124	-0.821549	-0.044080	-0.568386	170.088765	-68.953054	12.957358
57484		11.948680	-0.093079	1.566609	5.700078	1.138952	0.744016	-0.087856	-1.165467	-0.364938	-0.761230	0.074707	0.628174	0.119391	-0.001142	0.016362	-0.008720	-0.824758	-0.045363	-0.563597	169.811925	-68.259341	13.211799
57485		11.682937	-1.382600	2.448929	6.462417	2.483841	0.008989	-0.280626	-1.246071	-0.524625	-0.755371	0.063721	0.640869	0.116637	-0.014097	0.025236	-0.011629	-0.828119	-0.046684	-0.558484	169.244858	-67.502608	13.651553
57486		11.139334	-3.835454	3.256730	6.975614	4.962139	-1.088214	-0.579998	-1.373305	-0.726033	-0.744873	0.063965	0.652832	0.111026	-0.038662	0.033442	-0.016320	-0.831716	-0.048065	-0.552876	168.311341	-66.650328	14.315472
57487		9.529592	-4.035759	4.231344	7.362911	5.090306	-3.113627	-0.544884	-1.535742	-0.974681	-0.744629	0.058594	0.660156	0.094769	-0.040703	0.043153	-0.021640	-0.835646	-0.050489	-0.546515	167.188234	-65.671895	15.203201
57488		9.059437	-2.976319	3.956488	7.101121	4.050008	-3.507692	-0.682631	-1.770102	-1.208021	-0.723633	0.038330	0.667725	0.090057	-0.030171	0.040466	-0.028181	-0.840043	-0.053551	-0.539134	165.857992	-64.525027	16.249741
57489		10.669924	-2.172183	3.738831	7.753342	3.531385	-2.069749	-0.830866	-1.985544	-1.382526	-0.706787	0.029541	0.681152	0.106168	-0.022298	0.038536	-0.035917	-0.844840	-0.056838	-0.530777	164.417401	-63.222203	17.325196
57490		12.535867	-1.336531	2.176308	7.380739	3.085734	0.170507	-0.961894	-2.136663	-1.524051	-0.691162	0.008789	0.694824	0.125010	-0.014210	0.023167	-0.044572	-0.849814	-0.060409	-0.521709	162.918909	-61.802791	18.404256
57491		13.761724	-0.389142	0.746616	6.940952	2.527559	1.828482	-1.134118	-2.220684	-1.588795	-0.667969	0.000977	0.703857	0.137486	-0.004936	0.009019	-0.054191	-0.854782	-0.063703	-0.512204	161.408293	-60.312707	19.389070
57492		14.447873	0.482815	-1.645746	5.465647	2.062975	3.511728	-1.297594	-2.228122	-1.538999	-0.647949	-0.022949	0.710938	0.144681	0.003615	-0.014872	-0.064370	-0.859546	-0.066347	-0.502628	159.968487	-58.817538	20.197850
57493		14.080937	2.257669	-4.272081	3.377889	0.617850	4.672292	-1.261926	-2.266802	-1.458005	-0.634521	-0.038574	0.735107	0.141441	0.021284	-0.041257	-0.074193	-0.864259	-0.068708	-0.492779	158.727724	-57.307579	20.809149
57494		13.535628	3.766573	-4.890962	2.938818	-0.664883	4.755420	-1.229718	-2.278107	-1.427368	-0.614258	-0.060303	0.738770	0.136166	0.036401	-0.047588	-0.083786	-0.868827	-0.070993	-0.482783	157.610105	-55.793201	21.305384
57495		13.469119	3.617620	-5.127023	2.998407	-0.251039	4.738029	-1.212634	-2.297490	-1.462425	-0.594482	-0.075195	0.746582	0.135528	0.034882	-0.049931	-0.093380	-0.873250	-0.073452	-0.472566	156.546427	-54.254447	21.756861
57496		12.147015	4.105715	-4.966773	2.728273	-0.782579	3.641265	-0.941341	-2.265825	-1.392363	-0.583496	-0.090332	0.763184	0.122305	0.039978	-0.048475	-0.101591	-0.877563	-0.076241	-0.462332	155.732060	-52.745957	22.100209
57497		9.977050	4.865457	-5.849394	1.076656	-1.716153	2.569455	-0.818328	-2.216464	-1.142945	-0.565430	-0.090088	0.767090	0.100687	0.047844	-0.057578	-0.108650	-0.881761	-0.078234	-0.452297	155.177292	-51.318764	22.210554
57498		7.874001	4.119323	-7.684207	-1.423500	-1.121853	1.794417	-0.423418	-2.138997	-0.822215	-0.534668	-0.103760	0.774902	0.079724	0.040705	-0.076079	-0.113194	-0.885983	-0.079734	-0.442565	155.043805	-50.010290	22.070769
57499		6.757345	3.717781	-8.464752	-2.503263	-0.804820	1.332570	-0.090502	-2.024153	-0.610932	-0.530518	-0.112793	0.778320	0.068539	0.036931	-0.083974	-0.115738	-0.890119	-0.081092	-0.433263	155.192271	-48.810928	21.808470
57500		6.663292	3.481279	-8.364412	-2.276217	-0.551570	1.186980	0.126587	-1.890250	-0.537437	-0.498535	-0.100098	0.785645	0.067513	0.034685	-0.082987	-0.117088	-0.894023	-0.082660	-0.424477	155.459081	-47.699682	21.549443
57501		6.535406	3.677659	-7.875920	-1.763028	-0.794879	0.888867	0.234152	-1.770267	-0.561582	-0.491699	-0.103027	0.798584	0.066151	0.036683	-0.078133	-0.117950	-0.897648	-0.084629	-0.416118	155.730648	-46.643094	21.363627
57502		6.545351	4.264373	-7.113427	-0.953221	-1.428394	0.612074	0.314297	-1.611464	-0.511938	-0.469238	-0.104736	0.800049	0.066133	0.042586	-0.070536	-0.118271	-0.900933	-0.086627	-0.408445	156.026086	-45.681924	21.205109
57503		6.788210	5.147742	-5.766333	0.433304	-2.376855	0.186855	0.095792	-1.365657	-0.335378	-0.468018	-0.111084	0.803955	0.068360	0.051391	-0.057173	-0.119103	-0.903613	-0.087525	-0.402042	156.224730	-44.888656	21.004394
57504		6.589854	5.219052	-4.931135	1.046220	-2.600898	-0.478837	0.082923	-1.097191	-0.078748	-0.449951	-0.104004	0.813965	0.066188	0.052185	-0.048927	-0.119354	-0.905817	-0.087393	-0.397005	156.481205	-44.296045	20.708153
57505		6.928578	5.379750	-2.615271	3.069142	-3.018854	-1.734746	0.219262	-0.653728	0.184317	-0.443848	-0.099365	0.816162	0.069321	0.053890	-0.025867	-0.118270	-0.907322	-0.086604	-0.394054	156.846318	-43.993974	20.365914
57506		6.953893	4.418140	-2.130928	3.410484	-2.196010	-2.331819	0.057791	-0.330729	0.491014	-0.443848	-0.096436	0.814453	0.069465	0.044358	-0.021182	-0.117173	-0.908213	-0.084294	-0.392827	157.201564	-43.930702	19.903200
57507		6.320269	3.336042	-2.296709	2.787954	-1.332915	-2.971614	-0.240922	0.042102	0.741933	-0.441406	-0.093506	0.817627	0.063074	0.033567	-0.023021	-0.116782	-0.908297	-0.080478	-0.393550	157.434972	-44.116896	19.370328
57508		5.441927	1.903796	-3.996722	0.840825	0.042970	-2.848225	-0.203167	0.287819	0.857169	-0.448730	-0.094727	0.820313	0.054280	0.019230	-0.040065	-0.115891	-0.907944	-0.076352	-0.395446	157.700918	-44.458179	18.824022
57509		5.392195	1.739864	-3.429283	1.174269	0.061316	-3.295035	-0.105632	0.711530	0.868588	-0.460449	-0.087646	0.814697	0.053723	0.017614	-0.034493	-0.114370	-0.906795	-0.072613	-0.399212	157.945965	-45.023562	18.391513
57510		5.821461	1.015141	-3.461051	1.344340	0.816021	-3.147480	-0.213295	1.046337	0.884489	-0.462402	-0.090820	0.812256	0.057987	0.010371	-0.034925	-0.113179	-0.904880	-0.068774	-0.404541	158.073550	-45.770690	18.041945
57511		6.257937	-0.143979	-3.896367	1.181223	2.047551	-2.828759	-0.227448	1.448036	0.983206	-0.480225	-0.089355	0.800781	0.062301	-0.001178	-0.039414	-0.111707	-0.902127	-0.064684	-0.411710	158.167805	-46.750535	17.732673
57512		6.290335	-0.388574	-3.886303	1.086632	2.234791	-2.838039	-0.135229	1.863509	1.115487	-0.491943	-0.083496	0.796143	0.062558	-0.003563	-0.039445	-0.109401	-0.898519	-0.060411	-0.420769	158.306082	-47.980640	17.440688
57513		6.375281	-0.298629	-4.010103	0.899719	2.118786	-2.635444	-0.148779	2.230096	1.253999	-0.522461	-0.078857	0.785156	0.063318	-0.002619	-0.040807	-0.106739	-0.894052	-0.055682	-0.431482	158.446613	-49.433251	17.141705
57514		6.584102	0.328423	-4.298335	0.624508	1.516040	-2.115842	-0.117885	2.568033	1.391197	-0.545410	-0.080078	0.783447	0.065257	0.003714	-0.043826	-0.103527	-0.888737	-0.050573	-0.443702	158.624918	-51.095828	16.823322
57515		6.455913	1.276106	-4.577728	0.100545	0.522474	-1.814294	-0.101004	2.859731	1.506012	-0.569336	-0.068604	0.762207	0.063797	0.013220	-0.046700	-0.099889	-0.882606	-0.045133	-0.457155	158.837116	-52.935754	16.482135
57516		6.689107	2.015800	-4.898205	-0.292980	-0.212809	-1.288507	-0.044127	3.096552	1.543376	-0.597168	-0.068848	0.737061	0.065964	0.020658	-0.050013	-0.095831	-0.875718	-0.039761	-0.471543	159.071345	-54.910749	16.162358
57517		7.474744	2.291670	-4.892564	-0.158306	-0.467265	-0.603580	0.007489	3.325865	1.610038	-0.627441	-0.052002	0.719238	0.073732	0.023515	-0.050157	-0.091315	-0.868053	-0.034319	-0.486794	159.352725	-57.019690	15.829403
57518		8.241721	2.335616	-5.218312	-0.379055	-0.484578	0.198328	0.088931	3.529369	1.714573	-0.647461	-0.040527	0.705811	0.081275	0.024080	-0.053614	-0.086122	-0.859625	-0.028699	-0.502796	159.749309	-59.259239	15.423766
57519		8.875228	2.659989	-5.222099	-0.470155	-0.870931	0.775969	0.239730	3.729491	1.845120	-0.688721	-0.040283	0.692627	0.087508	0.027475	-0.053828	-0.079890	-0.850433	-0.022974	-0.519475	160.355161	-61.628574	14.886614
57520		9.492781	2.955952	-5.200292	-0.606946	-1.272479	1.317726	0.406837	3.886245	1.974071	-0.700928	-0.021484	0.668945	0.093596	0.030596	-0.053769	-0.072557	-0.840519	-0.017185	-0.536626	161.245196	-64.104931	14.149839
57521		10.068074	2.819187	-5.135921	-0.762876	-1.288963	1.738266	0.306077	4.047012	2.138477	-0.735107	0.004883	0.641113	0.099305	0.029339	-0.053334	-0.065157	-0.829736	-0.010487	-0.554240	162.384226	-66.690372	13.091505
57522		10.333557	2.080956	-5.314932	-1.283916	-0.735642	1.898213	0.143602	4.192729	2.286482	-0.776123	0.012939	0.604980	0.101944	0.022020	-0.055281	-0.057977	-0.818042	-0.002764	-0.572222	163.846231	-69.371294	11.605334
57523		10.171600	1.319897	-5.124357	-1.622807	-0.234400	1.534036	0.248621	4.271834	2.357664	-0.790283	0.031494	0.587891	0.100426	0.014453	-0.053380	-0.050129	-0.805683	0.004925	-0.590202	165.893516	-72.087004	9.589241
57524		10.120424	1.102838	-4.163083	-1.207032	-0.328927	1.113476	0.310032	4.310430	2.343241	-0.819580	0.049316	0.557617	0.100137	0.012273	-0.043778	-0.042047	-0.792734	0.012365	-0.607991	168.648031	-74.793993	6.902839
57525		10.180848	0.766879	-3.751795	-1.256944	-0.236392	0.988007	0.138646	4.294622	2.222032	-0.840332	0.059082	0.520752	0.100878	0.008820	-0.039685	-0.034987	-0.779340	0.019839	-0.625309	172.148209	-77.433700	3.381287
57526		10.350435	0.324210	-3.939170	-1.850539	0.033182	1.110029	0.011157	4.246482	2.039745	-0.866699	0.074219	0.485840	0.102597	0.004294	-0.041576	-0.028912	-0.765643	0.026934	-0.642051	176.811376	-79.971402	-1.355072
57527		10.700755	0.460021	-3.934176	-2.275864	-0.277035	1.363925	0.111327	4.163983	1.888762	-0.888428	0.099365	0.460449	0.106108	0.005628	-0.041554	-0.022967	-0.751839	0.033193	-0.658110	-176.054629	-82.354514	-8.507310
57528		11.115633	0.756089	-3.699555	-2.495389	-0.766345	1.631900	0.077308	4.075267	1.826649	-0.912109	0.111816	0.429199	0.110297	0.008586	-0.039246	-0.017268	-0.737945	0.039261	-0.673497	-163.451171	-84.480032	-21.135812
57529		11.439223	0.356137	-3.387087	-2.604506	-0.570334	1.820185	0.005064	3.972433	1.839807	-0.927979	0.125977	0.392578	0.113650	0.004610	-0.036133	-0.011821	-0.724032	0.045674	-0.688151	-138.996999	-86.002039	-45.665888
57530		11.574043	-0.061322	-3.113017	-2.761894	-0.353177	1.844023	0.069908	3.834867	1.831853	-0.946289	0.134766	0.363037	0.115114	0.000455	-0.033341	-0.006067	-0.710258	0.051762	-0.702010	-102.576312	-86.236919	-82.113335
57531		11.502228	0.300198	-2.868298	-2.998637	-0.894296	1.624420	0.126385	3.682623	1.757722	-0.957520	0.150879	0.335205	0.114436	0.004028	-0.030791	-0.000393	-0.696734	0.057432	-0.715027	-74.563992	-85.144839	-110.126975
57532		11.319365	0.534623	-2.568446	-3.135185	-1.291949	1.300155	0.052414	3.513548	1.657979	-0.961670	0.166748	0.305664	0.112670	0.006289	-0.027665	0.004782	-0.683564	0.062938	-0.727156	-59.590974	-83.470644	-125.130374
57533		10.880818	0.238774	-2.187213	-3.088479	-1.128354	0.789558	0.038963	3.295716	1.559842	-0.976563	0.176514	0.270752	0.108405	0.003239	-0.023660	0.009556	-0.670977	0.068190	-0.738274	-51.503327	-81.660743	-133.261697
57534		10.314369	0.079598	-1.735658	-2.911114	-1.073083	0.175741	0.093209	3.036939	1.426794	-0.985596	0.189453	0.254883	0.102855	0.001539	-0.018919	0.014173	-0.659181	0.072706	-0.748327	-46.643729	-79.900648	-138.118903
57535		9.685155	-0.294106	-0.974163	-2.340658	-0.803628	-0.394307	0.014173	2.760693	1.295777	-0.987305	0.201416	0.225098	0.096721	-0.002313	-0.011078	0.018071	-0.648304	0.077104	-0.757252	-43.545036	-78.257460	-141.264984
57536		9.146055	-1.133154	-0.670103	-2.143046	-0.025212	-0.824639	0.004891	2.442515	1.160262	-0.990479	0.214111	0.209229	0.091433	-0.010801	-0.007818	0.021612	-0.638550	0.080999	-0.765001	-41.481249	-76.775465	-143.364432
57537		8.736457	-1.162503	-0.217567	-1.830237	-0.060283	-1.189029	0.147708	2.113137	1.002369	-1.007080	0.216064	0.190918	0.087392	-0.011185	-0.003107	0.025069	-0.630002	0.083851	-0.771647	-39.960367	-75.482985	-144.842565
57538		8.494039	-1.314176	-0.392122	-2.112632	0.078875	-1.472559	0.240369	1.752317	0.817361	-1.000244	0.219727	0.175293	0.084954	-0.012789	-0.004681	0.028252	-0.622832	0.085708	-0.777133	-38.798146	-74.408855	-145.902149
57539		8.229089	-1.314389	0.372775	-1.448173	-0.001992	-1.597710	0.454941	1.403016	0.599338	-1.000244	0.235352	0.162109	0.082353	-0.012905	0.003121	0.031403	-0.617040	0.085996	-0.781589	-37.741682	-73.564946	-146.728879
57540		7.756618	-1.654553	-0.024155	-1.807260	0.415322	-2.101404	0.346144	1.038364	0.353370	-1.001465	0.230225	0.154297	0.077593	-0.016408	-0.000673	0.033414	-0.612759	0.085889	-0.784877	-36.877840	-72.968157	-147.422532
57541		7.318258	-1.942284	-0.284531	-2.009448	0.781030	-2.548934	0.584485	0.700197	0.080899	-1.007324	0.242920	0.149902	0.073180	-0.019384	-0.003158	0.035229	-0.609873	0.083953	-0.787252	-35.894578	-72.617613	-148.100108
57542		7.071996	-1.189975	-0.074737	-1.826312	0.067405	-2.877655	0.697193	0.372317	-0.169524	-1.000732	0.232178	0.144287	0.070708	-0.011957	-0.000921	0.036608	-0.608351	0.080705	-0.788705	-34.850133	-72.498679	-148.765625
57543		7.212774	-0.581537	-0.538634	-2.355426	-0.494603	-2.967273	0.557214	0.100433	-0.394391	-1.006592	0.234619	0.143799	0.072113	-0.005942	-0.005439	0.036715	-0.608008	0.077319	-0.789303	-33.834144	-72.578578	-149.494831
57544		7.562946	-0.115890	-0.831553	-2.744314	-0.953308	-2.779702	0.475845	-0.133825	-0.547473	-1.007813	0.221924	0.148193	0.075631	-0.001346	-0.008268	0.036126	-0.608657	0.073702	-0.789177	-32.855968	-72.813933	-150.223643
57545		7.801158	0.333871	-1.289213	-3.243947	-1.359564	-2.723275	0.322125	-0.335182	-0.642812	-1.008545	0.230713	0.149414	0.078043	0.003109	-0.012756	0.034701	-0.610153	0.070407	-0.788386	-31.991245	-73.173463	-150.933724
57546		7.900191	0.914970	-1.603625	-3.558528	-1.881773	-2.768738	0.186230	-0.511174	-0.702025	-0.999268	0.215820	0.156250	0.079074	0.008887	-0.015826	0.032756	-0.612377	0.067390	-0.787007	-31.251099	-73.632741	-151.584411
57547		7.927225	1.436468	-1.623955	-3.557651	-2.350458	-2.787058	-0.033550	-0.676540	-0.731306	-0.998291	0.208008	0.153320	0.079378	0.014072	-0.015974	0.030011	-0.615284	0.065165	-0.785034	-30.716581	-74.180718	-152.159561
57548		7.958596	1.647363	-2.189072	-4.068708	-2.470287	-2.870959	-0.334137	-0.848023	-0.776236	-1.006104	0.192139	0.164063	0.079741	0.016128	-0.021580	0.026220	-0.618901	0.063954	-0.782422	-30.416875	-74.824737	-152.668008
57549		8.246949	1.581360	-2.516781	-4.389607	-2.351876	-2.598402	-0.501831	-1.024593	-0.834083	-1.001709	0.186523	0.178955	0.082662	0.015407	-0.024784	0.021739	-0.623226	0.063193	-0.779181	-30.265586	-75.572742	-153.120717
57550		8.373717	1.622964	-2.742111	-4.564106	-2.316462	-2.459205	-0.677667	-1.185063	-0.887221	-0.996094	0.180664	0.192383	0.083969	0.015766	-0.026978	0.016609	-0.628178	0.062890	-0.775346	-30.266396	-76.414721	-153.510863
57551		8.623091	1.430436	-2.950471	-4.721658	-2.050137	-2.156972	-0.874492	-1.333179	-0.921325	-0.997559	0.180908	0.196777	0.086490	0.013779	-0.028990	0.010717	-0.633682	0.063267	-0.770928	-30.470160	-77.340594	-153.814965
57552		8.763588	1.263567	-3.073911	-4.757160	-1.792983	-1.938795	-1.064394	-1.454904	-0.942419	-0.986572	0.160645	0.207031	0.087914	0.012060	-0.030165	0.004179	-0.639611	0.064295	-0.765993	-30.898016	-78.332824	-153.999939
57553		8.727404	1.446489	-3.356683	-4.929234	-1.842631	-1.949371	-1.209183	-1.568907	-0.955851	-0.991699	0.152100	0.227295	0.087601	0.013846	-0.032965	-0.002837	-0.645914	0.065827	-0.760561	-31.580435	-79.385371	-154.009404
57554		8.442251	1.903715	-3.869783	-5.312030	-2.109058	-2.249492	-1.369183	-1.678951	-0.983961	-0.978271	0.132324	0.244629	0.084836	0.018358	-0.038114	-0.010440	-0.652558	0.067867	-0.754622	-32.549514	-80.499833	-153.820766
57555		8.084088	2.424873	-4.257063	-5.581339	-2.437554	-2.583682	-1.381991	-1.802258	-1.004965	-0.975586	0.121338	0.260986	0.081341	0.023549	-0.042003	-0.018121	-0.659577	0.069885	-0.748162	-33.876785	-81.679102	-153.277696
57556		7.811455	2.416982	-4.557450	-5.727545	-2.253011	-2.759579	-1.501090	-1.882317	-0.997151	-0.968018	0.111816	0.266846	0.078658	0.023439	-0.045014	-0.026136	-0.666775	0.072368	-0.741276	-35.824235	-82.890826	-152.179286
57557		9.841244	0.632008	1.071037	-0.028793	-1.311578	0.019560	-1.076473	-1.563783	-1.022876	-0.964355	0.097900	0.291504	0.098356	0.005877	0.011447	-0.032940	-0.672763	0.073142	-0.735497	-36.961076	-83.959717	-151.654685
57558		20.646944	-8.363943	21.517054	20.565343	3.999366	12.997490	-0.367831	-0.298951	-0.845195	-0.959473	0.091553	0.294434	0.205793	-0.084114	0.215633	-0.037170	-0.674104	0.071692	-0.734208	-34.292302	-84.381414	-154.547977
57559		21.797429	-16.980587	-2.003361	-1.169355	16.233660	12.605406	-1.605881	-0.055620	-0.788752	-0.960449	0.078613	0.286865	0.217307	-0.170817	-0.018604	-0.045448	-0.674267	0.074930	-0.733270	-31.438426	-84.653509	-158.338151
57560		15.815624	5.529763	4.042738	1.740801	-6.604101	6.011589	1.633356	-0.134336	-0.692260	-0.961426	0.076660	0.288574	0.158318	0.054417	0.040980	-0.042419	-0.675363	0.066630	-0.733244	-27.125713	-84.914587	-161.727907
57561		-0.579347	8.907666	0.481919	-1.003658	-8.833799	-10.740517	-3.921707	0.202236	0.341491	-0.969482	0.076416	0.286865	-0.005942	0.089138	0.003078	-0.054460	-0.673546	0.082098	-0.732550	-30.645636	-84.718571	-160.448606
57562		1.318033	-10.628219	-5.628205	-3.514248	11.486741	-8.372695	-1.490751	-0.567316	0.955664	-0.958984	0.067139	0.288818	0.013847	-0.106632	-0.055449	-0.055675	-0.674804	0.090861	-0.730263	-38.347633	-84.676178	-153.560221
57563		9.800999	-4.586197	1.408458	1.512235	3.769538	0.315496	-0.014570	-0.404831	0.218604	-0.950684	0.071777	0.289795	0.098031	-0.045754	0.014286	-0.054734	-0.676178	0.091759	-0.728950	-41.005866	-84.774673	-150.897944
57564		14.197682	-3.418528	-1.801867	-2.122858	3.103973	4.412795	-0.219126	-0.843507	-0.427725	-0.951904	0.067383	0.305420	0.141977	-0.034508	-0.017382	-0.056574	-0.679389	0.091276	-0.725878	-42.745680	-85.297984	-149.266489
57565		21.237192	-9.161323	0.804500	1.297674	7.993232	11.867044	0.038773	-0.898653	-1.142968	-0.947998	0.070068	0.310791	0.211805	-0.092826	0.008980	-0.060171	-0.683166	0.087499	-0.722501	-40.786634	-86.118251	-151.207588
57566		15.157765	0.777060	-1.067082	-1.980867	-0.950464	5.242740	1.302896	-1.287916	-1.472282	-0.946533	0.052246	0.317627	0.151694	0.006719	-0.009648	-0.060399	-0.688814	0.078080	-0.718185	-36.668322	-87.221890	-154.573807
57567		8.692798	5.261874	1.046108	-0.328792	-5.512430	-1.219079	-0.269119	-1.142471	-0.991680	-0.937256	0.045654	0.325928	0.087126	0.052202	0.010888	-0.064431	-0.693203	0.075968	-0.713825	-34.923547	-88.085211	-156.473193
57568		8.409766	3.035887	-3.715749	-4.452275	-2.321641	-1.534196	-1.188212	-1.338983	-0.450066	-0.932617	0.037109	0.330811	0.084412	0.029950	-0.036772	-0.069574	-0.697748	0.079011	-0.708565	-47.137205	-88.836849	-144.925336
57569		7.422359	6.285437	-4.130016	-5.464732	-5.335513	-2.510400	-1.202487	-1.088119	-0.287123	-0.929932	0.028564	0.351563	0.074538	0.062499	-0.041272	-0.074346	-0.701276	0.082640	-0.704170	-77.138912	-89.288169	-115.607949
57570		6.838092	0.534750	-4.756063	-4.752721	0.496392	-2.969489	-2.186513	-1.028319	-0.066868	-0.926270	0.020996	0.354004	0.068626	0.004807	-0.047263	-0.081749	-0.704070	0.090413	-0.699592	-124.323513	-89.209714	-69.661482
57571		10.806282	-4.302375	-4.822637	-3.512318	5.227008	1.090698	-0.604209	-0.992611	-0.557958	-0.928711	0.018066	0.367920	0.108179	-0.043470	-0.047559	-0.085368	-0.707534	0.090961	-0.695582	-162.087102	-88.930824	-32.238479
57572		11.619951	-6.170191	-2.358764	-0.514122	6.478319	1.867366	-0.101968	-0.840858	-0.783394	-0.914063	-0.000488	0.371094	0.116054	-0.062169	-0.023068	-0.088001	-0.710769	0.088834	-0.692222	175.387356	-88.495575	-9.754872
57573		8.451098	-1.132045	-3.166624	-2.531115	1.869045	-1.278662	0.680823	-0.767606	-1.022939	-0.912109	-0.003418	0.374512	0.084573	-0.011646	-0.031381	-0.088770	-0.714163	0.083172	-0.689329	160.312212	-87.937154	5.718709
57574		7.104079	2.124088	-2.519081	-2.666148	-1.408233	-2.585421	0.645039	-0.598749	-0.993073	-0.913330	-0.003906	0.381592	0.071220	0.020968	-0.024910	-0.089570	-0.716920	0.077600	-0.687009	151.399225	-87.389327	15.019991
57575		8.102939	2.068640	-2.052035	-2.084229	-1.406186	-1.577056	0.655578	-0.551793	-1.001554	-0.900635	-0.006592	0.393311	0.081188	0.020347	-0.020229	-0.090435	-0.719483	0.071998	-0.684823	145.391462	-86.818504	21.412570
57576		11.005893	2.871276	-1.654405	-1.642022	-2.154487	1.357428	0.637112	-0.557647	-0.982859	-0.897217	-0.011963	0.394043	0.110244	0.028223	-0.016146	-0.091238	-0.722028	0.066464	-0.682593	141.456457	-86.225704	25.731624
57577		11.923473	6.029582	-0.745798	-1.291536	-5.339105	2.390004	0.634363	-0.485525	-0.727957	-0.897949	-0.017334	0.395752	0.119471	0.059884	-0.006978	-0.091261	-0.724207	0.061886	-0.680709	139.747330	-85.746016	27.810421
57578		11.165823	5.551489	-0.540347	-0.956763	-4.894860	1.628957	-0.270197	-0.466143	-0.391355	-0.905518	-0.023193	0.393066	0.111779	0.055289	-0.005218	-0.093359	-0.725797	0.061532	-0.678761	139.622710	-85.396995	27.791285
57579		9.632108	3.035737	-0.638990	-0.578592	-2.446829	-0.010665	-0.638464	-0.455576	-0.279736	-0.900391	-0.030762	0.399658	0.096378	0.030202	-0.006267	-0.096476	-0.727126	0.062891	-0.676775	139.819585	-85.094323	27.227783
57580		9.111480	0.841654	-0.683181	-0.134063	-0.297428	-0.642763	-0.619371	-0.510020	-0.313909	-0.897705	-0.042969	0.406494	0.091145	0.008253	-0.006625	-0.099562	-0.728655	0.064021	-0.674575	140.037798	-84.754535	26.663592
57581		9.548079	-0.070962	-1.005229	-0.148971	0.706716	-0.238800	-0.427234	-0.545596	-0.371939	-0.901611	-0.040283	0.406982	0.095506	-0.000908	-0.009790	-0.102189	-0.730397	0.064373	-0.672260	140.185051	-84.378099	26.270912
57582		9.933896	-0.098797	-1.028548	-0.070483	0.784878	0.143646	-0.244818	-0.521238	-0.424905	-0.892822	-0.038574	0.410156	0.099363	-0.001211	-0.010025	-0.104277	-0.732166	0.063840	-0.670063	140.093611	-83.992435	26.232981
57583		9.980375	0.012207	-1.575248	-0.561041	0.842372	0.240406	-0.143022	-0.489408	-0.449459	-0.889648	-0.044922	0.421875	0.099842	-0.000113	-0.015508	-0.106141	-0.733871	0.062923	-0.667988	139.859502	-83.612178	26.387169
57584		9.349703	1.317922	-2.363786	-1.634415	-0.232365	-0.220207	0.020091	-0.486052	-0.478493	-0.885986	-0.046387	0.420410	0.093585	0.012958	-0.023409	-0.107446	-0.735661	0.061288	-0.665959	139.621812	-83.222100	26.649179
57585		9.686660	1.837925	-2.384013	-1.683527	-0.681597	0.166976	0.038814	-0.462111	-0.451587	-0.883301	-0.053467	0.424561	0.096963	0.018165	-0.023613	-0.108656	-0.737357	0.059740	-0.664026	139.442310	-82.852833	26.853550
57586		10.087500	2.002363	-2.470261	-1.705596	-0.767636	0.597435	0.095424	-0.412793	-0.419574	-0.876221	-0.046875	0.422119	0.100967	0.019824	-0.024485	-0.109508	-0.738910	0.058030	-0.662308	139.279911	-82.516350	27.083567
57587		10.188183	2.931375	-2.498353	-1.883256	-1.627143	0.791051	0.112644	-0.373664	-0.391884	-0.873779	-0.050049	0.423340	0.101985	0.029128	-0.024777	-0.110272	-0.740322	0.056409	-0.660743	139.122916	-82.207660	27.308218
57588		10.296409	2.572282	-2.824349	-2.054659	-1.170197	0.911977	0.021209	-0.348850	-0.308888	-0.880371	-0.058838	0.429199	0.103053	0.025567	-0.028061	-0.111051	-0.741581	0.055316	-0.659292	139.117291	-81.940194	27.337336
57589		9.937394	2.562710	-3.058082	-2.281083	-1.110564	0.590884	0.091208	-0.312229	-0.238451	-0.872070	-0.049316	0.430908	0.099452	0.025522	-0.030414	-0.111403	-0.742726	0.054300	-0.658026	139.266274	-81.715594	27.240755
57590		10.080487	2.069607	-2.970933	-2.030418	-0.633853	0.685001	0.122439	-0.263757	-0.174809	-0.883545	-0.055664	0.433594	0.100862	0.020626	-0.029564	-0.111387	-0.743719	0.053323	-0.656987	139.491935	-81.535077	27.094745
57591		9.966257	1.618794	-3.269372	-2.201234	-0.130455	0.568692	0.253960	-0.225056	-0.141611	-0.874268	-0.054932	0.433594	0.099711	0.016159	-0.032561	-0.110839	-0.744637	0.052082	-0.656138	139.784470	-81.384367	26.947207
57592		9.918871	1.514442	-3.066101	-1.961085	-0.082110	0.493906	0.356150	-0.194926	-0.126135	-0.872314	-0.052246	0.438965	0.099228	0.015136	-0.030537	-0.109812	-0.745515	0.050480	-0.655439	140.100606	-81.251694	26.845011
57593		10.143735	0.684763	-2.894236	-1.560668	0.693557	0.619193	0.448694	-0.160101	-0.092306	-0.875488	-0.052002	0.437988	0.101464	0.006866	-0.028846	-0.108392	-0.746309	0.048749	-0.654903	140.476061	-81.147425	26.726366
57594		10.024469	0.951662	-2.385141	-1.125261	0.302240	0.469674	0.592813	-0.106457	-0.077679	-0.875000	-0.050049	0.441650	0.100261	0.009548	-0.023770	-0.106344	-0.747004	0.046503	-0.654609	140.846654	-81.071303	26.706241
57595		10.129968	1.473345	-2.257429	-1.080791	-0.236094	0.611280	0.619642	-0.075960	-0.069366	-0.880127	-0.048828	0.447998	0.101313	0.014768	-0.022490	-0.104230	-0.747596	0.044251	-0.654430	141.181975	-81.012553	26.727329
57596		9.978245	2.032580	-2.235291	-1.178022	-0.808054	0.514585	0.668894	-0.041590	-0.057368	-0.877197	-0.049561	0.445313	0.099793	0.020372	-0.022264	-0.101843	-0.748099	0.041797	-0.654392	141.501113	-80.972639	26.803431
57597		9.896342	2.334012	-2.001133	-1.004851	-1.170284	0.434771	0.655776	-0.043452	-0.019122	-0.874756	-0.038818	0.458008	0.098970	0.023396	-0.019913	-0.099434	-0.748576	0.039597	-0.654353	141.922320	-80.946391	26.758523
57598		9.904297	1.444574	-2.266667	-1.078898	-0.266112	0.389508	0.667002	-0.056699	0.045412	-0.878418	-0.034912	0.446045	0.099046	0.014544	-0.022590	-0.096713	-0.749090	0.037540	-0.654295	142.562063	-80.935811	26.508882
57599		9.629809	0.850559	-2.288400	-1.019543	0.274752	0.065491	0.830630	-0.080258	0.073083	-0.881592	-0.027588	0.449463	0.096304	0.008636	-0.022810	-0.093339	-0.749735	0.035130	-0.654180	143.423407	-80.924369	26.119712
57600		9.689013	-0.261243	-2.286494	-0.807973	1.338396	0.022406	0.967690	-0.120166	0.082501	-0.889404	-0.023438	0.453613	0.096905	-0.002462	-0.022819	-0.089355	-0.750565	0.032257	-0.653932	144.473795	-80.895652	25.628655
57601		9.997460	-1.319364	-1.075236	0.591646	2.160534	0.078120	1.040614	-0.095466	0.076957	-0.876221	-0.023926	0.452637	0.099985	-0.013099	-0.010773	-0.085173	-0.751321	0.029181	-0.653767	145.493347	-80.876224	25.201057
57602		10.027190	-0.792070	-0.877117	0.701151	1.597019	0.132118	1.130107	-0.044020	0.012226	-0.875244	-0.015381	0.455566	0.100274	-0.007865	-0.008794	-0.080815	-0.751941	0.025479	-0.653762	146.269050	-80.858412	25.082407
57603		9.370783	2.869878	-0.583810	0.384390	-2.111309	-0.232339	1.292672	-0.057522	-0.057999	-0.877686	-0.010498	0.456055	0.093718	0.028708	-0.005626	-0.076127	-0.752644	0.021053	-0.653673	146.952721	-80.812667	25.141258
57604		9.196130	3.084669	-0.685971	0.270702	-2.330279	-0.376007	0.859568	-0.128251	-0.001870	-0.879395	0.000732	0.467285	0.091966	0.030875	-0.006668	-0.072820	-0.753391	0.018213	-0.653274	147.688116	-80.749383	24.906375
57605		9.111889	1.447664	-0.551170	0.622927	-0.747393	-0.621423	0.766093	-0.179845	0.058093	-0.880859	0.006836	0.464844	0.091120	0.014524	-0.005374	-0.069718	-0.754248	0.015990	-0.652682	148.635053	-80.679456	24.392771
57606		9.383684	-0.175459	-0.463940	0.957758	0.854402	-0.503970	0.766640	-0.223121	0.057152	-0.883545	0.004639	0.462891	0.093842	-0.001710	-0.004541	-0.066558	-0.755240	0.013709	-0.651916	149.645756	-80.585639	23.824790
57607		9.433909	-0.642438	-0.135211	1.357002	1.274588	-0.541032	0.854678	-0.256716	-0.008190	-0.888672	0.015625	0.469238	0.094340	-0.006423	-0.001258	-0.063330	-0.756355	0.010972	-0.650996	150.552781	-80.455836	23.402822
57608		9.703991	-0.085738	0.840792	2.324852	0.636848	-0.374937	0.802876	-0.267885	-0.061188	-0.878418	0.012207	0.475342	0.097028	-0.000921	0.008534	-0.060414	-0.757484	0.008140	-0.650001	151.275701	-80.303842	23.147352
57609		9.953936	1.428340	0.453056	1.878510	-0.801164	0.044059	0.757105	-0.311816	-0.084856	-0.870850	0.033691	0.474121	0.099538	0.014223	0.004740	-0.057800	-0.758724	0.005447	-0.648819	151.956412	-80.123589	22.897926
57610		9.091271	2.528961	0.546709	1.786839	-1.953673	-0.738772	0.548110	-0.342251	-0.079219	-0.869385	0.025879	0.478027	0.090913	0.025238	0.005692	-0.055904	-0.759997	0.003395	-0.647509	152.564240	-79.928138	22.610819
57611		9.444079	0.969989	-0.145821	1.327260	-0.315033	-0.416318	0.259017	-0.425102	-0.061395	-0.869873	0.027344	0.480957	0.094447	0.009673	-0.001245	-0.055103	-0.761445	0.002437	-0.645878	153.159124	-79.695374	22.158332
57612		9.370131	0.150231	-0.836707	0.740123	0.557076	-0.449797	0.277016	-0.456133	-0.087388	-0.872559	0.028809	0.484619	0.093721	0.001473	-0.008151	-0.054261	-0.762998	0.001262	-0.644118	153.712055	-79.438494	21.768666
57613		9.575502	-0.982965	-1.224980	0.519226	1.732801	-0.279342	0.231106	-0.489682	-0.092657	-0.870361	0.031006	0.485352	0.095780	-0.009860	-0.012027	-0.053666	-0.764636	0.000292	-0.642224	154.245834	-79.163105	21.361345
57614		9.532236	-0.499545	-1.650779	0.104976	1.286823	-0.212112	0.348865	-0.483052	-0.118476	-0.866699	0.026855	0.491699	0.095359	-0.005023	-0.016286	-0.052648	-0.766282	-0.001225	-0.640342	154.746965	-78.883378	21.065664
57615		9.610635	0.371385	-1.585856	0.173410	0.424628	-0.075820	0.307767	-0.498750	-0.136033	-0.871826	0.020996	0.498779	0.096148	0.003673	-0.015613	-0.051898	-0.767957	-0.002605	-0.638390	155.178331	-78.591507	20.806776
57616		9.786661	0.910393	-1.656887	0.154351	-0.088259	0.153304	0.245980	-0.502144	-0.135452	-0.862793	0.028320	0.490234	0.097914	0.009058	-0.016312	-0.051329	-0.769623	-0.003853	-0.636420	155.563386	-78.296941	20.568787
57617		9.549188	1.749245	-1.657899	0.111327	-0.933244	-0.009020	0.188433	-0.504119	-0.135258	-0.864014	0.029297	0.499268	0.095545	0.017443	-0.016322	-0.051035	-0.771271	-0.004848	-0.634439	155.902670	-78.001794	20.333579
57618		9.413154	1.559382	-1.766954	0.041518	-0.739280	-0.137318	0.045332	-0.522935	-0.117027	-0.857666	0.023926	0.506348	0.094186	0.015543	-0.017420	-0.051181	-0.772940	-0.005383	-0.632389	156.211357	-77.700052	20.055572
57619		9.492400	0.957314	-2.000854	-0.085569	-0.111075	-0.065604	0.031413	-0.527245	-0.100266	-0.859619	0.031982	0.518311	0.094981	0.009529	-0.019757	-0.051382	-0.774611	-0.005740	-0.630322	156.541491	-77.400276	19.737072
57620		9.376239	1.191817	-2.124912	-0.191224	-0.338349	-0.132901	0.101800	-0.527962	-0.108391	-0.854004	0.026855	0.510986	0.093824	0.011878	-0.020995	-0.051282	-0.776299	-0.006419	-0.628243	156.878656	-77.097164	19.462364
57621		9.458835	1.266498	-2.202857	-0.201405	-0.396051	-0.028593	0.088384	-0.523560	-0.098126	-0.852051	0.027100	0.511719	0.094652	0.012628	-0.021775	-0.051255	-0.777961	-0.006947	-0.626180	157.212805	-76.799028	19.172492
57622		9.446433	1.509544	-2.577818	-0.529276	-0.608553	0.061939	0.141197	-0.524721	-0.092255	-0.842773	0.031494	0.523926	0.094538	0.015070	-0.025520	-0.051005	-0.779639	-0.007620	-0.624103	157.577272	-76.500446	18.882231
57623		9.585581	1.659057	-2.194799	-0.078988	-0.772777	0.129612	0.163210	-0.525377	-0.058322	-0.845459	0.038574	0.526611	0.095918	0.016580	-0.021683	-0.050561	-0.781315	-0.008227	-0.622031	158.014072	-76.209133	18.530132
57624		9.732355	1.358656	-2.464342	-0.237897	-0.446605	0.305680	0.204509	-0.524236	-0.039836	-0.849854	0.026855	0.526611	0.097390	0.013592	-0.024374	-0.049900	-0.782997	-0.008893	-0.619956	158.496360	-75.920941	18.155128
57625		9.377896	1.869236	-2.365556	-0.192689	-0.992099	-0.014056	0.232821	-0.533274	-0.042376	-0.844971	0.025146	0.531006	0.093846	0.018700	-0.023384	-0.049135	-0.784704	-0.009652	-0.617844	158.979640	-75.627398	17.795336
57626		9.844596	0.765240	-2.420419	-0.028470	0.139597	0.352917	0.243457	-0.552427	-0.011829	-0.838379	0.039063	0.532715	0.098513	0.007676	-0.023923	-0.048182	-0.786470	-0.010389	-0.615658	159.529389	-75.328239	17.382712
57627		9.599809	0.703630	-2.149430	0.234806	0.157771	0.045871	0.368539	-0.551946	-0.028969	-0.838867	0.031738	0.548584	0.096058	0.007062	-0.021216	-0.046841	-0.788253	-0.011509	-0.613458	160.096103	-75.025699	17.016081
57628		9.691901	0.130662	-2.007679	0.474937	0.719453	0.048211	0.388082	-0.586920	-0.037753	-0.826904	0.041504	0.544678	0.096978	0.001327	-0.019790	-0.045453	-0.790142	-0.012717	-0.611104	160.662424	-74.700919	16.660928
57629		9.549835	0.615019	-1.772801	0.708227	0.208660	-0.108307	0.455006	-0.592592	-0.082857	-0.827881	0.034180	0.551514	0.095553	0.006150	-0.017431	-0.043937	-0.792046	-0.014304	-0.608710	161.164233	-74.364529	16.411927
57630		9.845099	0.622880	-1.430432	1.176889	0.203981	0.083427	0.405484	-0.616907	-0.080687	-0.826416	0.040039	0.555176	0.098497	0.006218	-0.013988	-0.042613	-0.794006	-0.015728	-0.606211	161.641719	-74.014042	16.158305
57631		9.676990	0.924528	-1.379293	1.237920	-0.111171	-0.073274	0.356638	-0.633825	-0.092539	-0.822021	0.039551	0.559570	0.096817	0.009225	-0.013470	-0.041519	-0.795991	-0.017046	-0.603642	162.064384	-73.652431	15.932161
57632		9.722880	0.500724	-1.698947	1.019257	0.329944	0.011945	0.267258	-0.682575	-0.069967	-0.814209	0.043457	0.569824	0.097288	0.004996	-0.016651	-0.040717	-0.798100	-0.017995	-0.600879	162.491523	-73.267005	15.647499
57633		10.006480	0.069557	-2.105133	0.787058	0.799012	0.351354	0.263405	-0.712197	-0.073223	-0.817871	0.047119	0.572266	0.100139	0.000686	-0.020694	-0.039940	-0.800281	-0.018938	-0.597993	162.911326	-72.864918	15.367608
57634		10.165139	-0.245349	-2.215871	0.805440	1.129023	0.501207	0.289129	-0.728806	-0.069031	-0.806396	0.050049	0.572021	0.101730	-0.002457	-0.021792	-0.039051	-0.802509	-0.019938	-0.595026	163.345616	-72.453177	15.087368
57635		10.009832	0.062993	-2.492620	0.566928	0.818252	0.454855	0.401022	-0.744424	-0.081552	-0.805420	0.053711	0.584473	0.100190	0.000639	-0.024552	-0.037749	-0.804788	-0.021317	-0.591977	163.813800	-72.030829	14.838207
57636		9.703140	0.576375	-2.182769	0.843923	0.269552	0.110126	0.424729	-0.771508	-0.100327	-0.800781	0.051758	0.586426	0.097118	0.005761	-0.021441	-0.036411	-0.807137	-0.022838	-0.588798	164.260694	-71.589397	14.625151
57637		10.019793	0.682553	-2.098534	1.101630	0.185852	0.386197	0.439144	-0.792625	-0.102538	-0.794189	0.052490	0.596924	0.100284	0.006820	-0.020573	-0.035021	-0.809531	-0.024404	-0.585523	164.706526	-71.136074	14.421371
57638		9.730935	1.262533	-2.019516	1.170948	-0.417740	0.128000	0.496193	-0.819075	-0.107519	-0.791504	0.050781	0.593750	0.097398	0.012622	-0.019765	-0.033419	-0.811997	-0.026154	-0.582117	165.172904	-70.666299	14.229881
57639		9.827293	0.977993	-1.883898	1.418312	-0.129838	0.139803	0.482906	-0.867799	-0.098645	-0.788086	0.052246	0.605225	0.098358	0.009776	-0.018389	-0.031850	-0.814581	-0.027818	-0.578506	165.649700	-70.170861	14.018682
57640		10.742296	1.023475	-1.044141	2.607641	-0.114860	0.709709	0.470645	-0.896719	-0.085870	-0.780029	0.059814	0.606445	0.107473	0.010212	-0.009936	-0.030298	-0.817231	-0.029391	-0.574763	166.132990	-69.660036	13.792413
57641		11.593991	1.849414	-1.651719	2.439928	-0.856228	1.758036	0.419826	-0.916327	-0.059895	-0.781250	0.062012	0.630615	0.116019	0.018493	-0.015947	-0.028879	-0.819909	-0.030707	-0.570940	166.615637	-69.141686	13.534978
57642		10.835340	1.315528	-2.335446	1.634708	-0.380715	1.222320	0.232868	-0.913178	-0.016227	-0.768555	0.060791	0.620605	0.108460	0.013173	-0.022844	-0.028103	-0.822540	-0.031312	-0.567148	167.035879	-68.629663	13.228702
57643		9.234335	-0.480156	-2.053684	1.389275	1.269869	-0.529486	0.148307	-0.920987	-0.011987	-0.767090	0.062256	0.629639	0.092436	-0.004792	-0.020115	-0.027662	-0.825163	-0.031656	-0.563328	167.400138	-68.113503	12.929476
57644		9.245096	-1.458272	-1.903272	1.599175	2.243939	-0.667879	0.152265	-0.964837	-0.039041	-0.757813	0.061768	0.642334	0.092539	-0.014587	-0.018598	-0.027288	-0.827888	-0.032117	-0.559308	167.727492	-67.568446	12.671402
57645		9.670596	-0.288825	-2.091809	1.701045	1.117990	-0.125827	0.198233	-0.996351	-0.062164	-0.756104	0.070313	0.645752	0.096808	-0.002898	-0.020439	-0.026792	-0.830681	-0.032796	-0.555135	168.045760	-67.002783	12.450726
57646		10.327969	0.077242	-1.716679	2.409067	0.809478	0.344086	0.033040	-1.046541	-0.049475	-0.735352	0.068848	0.650391	0.103368	0.000750	-0.016626	-0.026955	-0.833573	-0.032957	-0.550766	168.287389	-66.409765	12.209477
57647		10.370491	-0.373810	-1.083699	3.103917	1.263037	0.068131	-0.042026	-1.086765	-0.064097	-0.729248	0.063965	0.661133	0.103761	-0.003774	-0.010272	-0.027476	-0.836538	-0.032965	-0.546226	168.466906	-65.792429	11.988020
57648		9.913393	0.122433	-0.362946	3.700143	0.730381	-0.636824	-0.074113	-1.156528	-0.095329	-0.731934	0.062012	0.666016	0.099153	0.001176	-0.003057	-0.028227	-0.839658	-0.033006	-0.541376	168.597321	-65.131947	11.799202
57649		10.305650	0.146160	-0.501930	3.848364	0.751434	-0.267858	-0.221582	-1.252309	-0.097093	-0.722900	0.057861	0.681152	0.103086	0.001406	-0.004375	-0.029617	-0.842984	-0.032640	-0.536130	168.656577	-64.417510	11.594605
57650		10.844992	-0.569049	-0.221628	4.439679	1.516455	-0.016024	-0.213795	-1.333310	-0.109568	-0.707275	0.058105	0.680420	0.108458	-0.005752	-0.001487	-0.031020	-0.846490	-0.032335	-0.530516	168.716941	-63.656053	11.392451
57651		11.065144	-1.992424	0.324462	5.132070	2.955499	-0.250410	-0.187678	-1.413682	-0.168133	-0.691650	0.058350	0.685547	0.110608	-0.020014	0.004045	-0.032479	-0.850163	-0.032332	-0.524522	168.737703	-62.842833	11.250041
57652		10.728350	-2.485236	0.444908	5.217987	3.433281	-0.732231	-0.015825	-1.522451	-0.282629	-0.685791	0.051758	0.704102	0.107210	-0.025004	0.005267	-0.033523	-0.854082	-0.033247	-0.517992	168.752104	-61.955852	11.224828
57653		10.939120	-3.355922	1.301853	6.194718	4.330493	-1.124141	0.101981	-1.639133	-0.386594	-0.671387	0.059326	0.711426	0.109215	-0.033777	0.013897	-0.034350	-0.858250	-0.034889	-0.510891	168.749477	-60.991496	11.295600
57654		11.636092	-3.968268	1.784680	7.077186	5.038324	-0.932604	0.225076	-1.758281	-0.486587	-0.661377	0.046143	0.722900	0.116101	-0.039986	0.018823	-0.034922	-0.862658	-0.037251	-0.503204	168.744559	-59.949442	11.450803
57655		12.111910	-3.754270	2.448520	8.042855	4.917165	-0.985609	0.280916	-1.873079	-0.607423	-0.651123	0.057373	0.729980	0.120768	-0.037945	0.025564	-0.035576	-0.867265	-0.040252	-0.494941	168.685149	-58.828853	11.708146
57656		12.817561	-4.336455	2.750541	8.795019	5.641279	-0.786203	0.294061	-1.987195	-0.738160	-0.630127	0.053711	0.739502	0.127733	-0.043878	0.028712	-0.036514	-0.872034	-0.043825	-0.486110	168.548978	-57.629937	12.067924
57657		13.135356	-3.791126	3.525736	9.803640	5.216518	-1.094349	0.242292	-2.094743	-0.902049	-0.620361	0.050049	0.749512	0.130802	-0.038546	0.036583	-0.038097	-0.876915	-0.047965	-0.476726	168.280942	-56.350353	12.554418
57658		13.013090	-2.351283	2.586358	9.192287	3.906683	-0.768967	0.023468	-2.221915	-1.057551	-0.598389	0.046143	0.760010	0.129706	-0.024203	0.027303	-0.041031	-0.881893	-0.052230	-0.466748	167.814596	-54.980552	13.136970
57659		13.513357	0.048494	1.350025	8.790632	1.751673	0.389349	-0.398398	-2.377943	-1.166564	-0.574463	0.027832	0.780518	0.134960	-0.000274	0.015106	-0.046118	-0.886977	-0.055955	-0.456085	167.092714	-53.505385	13.746561
57660		14.516041	1.574950	-0.428004	8.273133	0.589120	2.211220	-0.828548	-2.510226	-1.186913	-0.542725	0.011475	0.786133	0.145289	0.014875	-0.002520	-0.053182	-0.892081	-0.058743	-0.444873	166.187254	-51.950464	14.289383
57661		15.233636	3.169800	-1.582753	8.176586	-0.653899	3.503387	-1.105047	-2.607443	-1.133776	-0.534424	-0.002441	0.796631	0.152703	0.030752	-0.014010	-0.061383	-0.897151	-0.060644	-0.433214	165.231796	-50.342367	14.704615
57662		15.445889	4.647556	-3.241072	7.423487	-1.783657	4.760387	-1.322343	-2.671560	-1.113532	-0.498535	-0.017822	0.797119	0.155131	0.045407	-0.030644	-0.070514	-0.902076	-0.061945	-0.421248	164.227088	-48.699586	15.030948
57663		14.620690	4.772657	-3.839293	6.792227	-1.791831	4.397258	-1.308246	-2.730984	-1.132444	-0.485107	-0.023438	0.818115	0.146982	0.046652	-0.036697	-0.079626	-0.906899	-0.063329	-0.408881	163.274313	-47.015791	15.306415
57664		13.306741	4.578619	-5.237662	5.205959	-1.492410	4.191701	-1.555263	-2.701914	-1.053772	-0.457764	-0.039795	0.823730	0.133999	0.044682	-0.050921	-0.089664	-0.911342	-0.063841	-0.396663	162.261592	-45.360519	15.476432
57665		13.033279	4.235544	-7.759440	3.494368	-0.699648	5.526801	-1.279011	-2.525950	-0.945136	-0.428955	-0.054443	0.826904	0.131498	0.041246	-0.076205	-0.098153	-0.915376	-0.064474	-0.385093	161.466872	-43.816600	15.566139
57666		13.497812	6.082157	-7.383167	4.481914	-2.227813	5.955412	-1.419361	-2.137115	-0.846676	-0.406250	-0.071289	0.829834	0.136014	0.059728	-0.072808	-0.106946	-0.918432	-0.064558	-0.375336	160.597950	-42.503279	15.649065
57667		12.191431	6.063341	-7.948215	3.401631	-2.162585	5.429151	-1.616974	-1.798028	-0.672429	-0.390381	-0.099365	0.834473	0.122827	0.059582	-0.078865	-0.116195	-0.920654	-0.063647	-0.367211	159.661853	-41.403482	15.665121
57668		9.387437	4.076874	-10.056295	0.061120	-0.261064	4.532904	-1.254098	-1.659361	-0.433511	-0.374268	-0.106689	0.837646	0.094793	0.039936	-0.100031	-0.123273	-0.922777	-0.062369	-0.359718	159.033629	-40.428713	15.528693
57669		6.980270	3.781851	-8.215708	-0.280338	-0.712802	1.586241	0.267804	-1.364129	-0.279407	-0.359863	-0.101807	0.843750	0.070414	0.037830	-0.081628	-0.122952	-0.925287	-0.063299	-0.353158	159.296255	-39.641301	15.360709
57670		7.497528	5.057391	-3.806995	3.236564	-2.645718	-0.935379	1.013278	-0.970020	-0.457943	-0.355469	-0.095703	0.841064	0.075274	0.050593	-0.037449	-0.119364	-0.927447	-0.066606	-0.348077	159.835479	-39.031357	15.427475
57671		7.933133	3.068289	-0.128784	5.990889	-1.273046	-3.908959	0.174858	-0.183203	-0.496402	-0.339111	-0.099121	0.854736	0.079408	0.030487	-0.001188	-0.119468	-0.927703	-0.069104	-0.346871	159.750652	-38.834614	15.723678
57672		8.007642	-1.654650	-1.049634	5.223107	3.476270	-4.465116	-0.464923	0.452709	-0.207692	-0.351563	-0.104248	0.846191	0.080035	-0.016654	-0.010639	-0.121817	-0.926557	-0.069528	-0.349025	159.321860	-39.038654	15.983469
57673		7.371305	-4.161453	-2.448925	3.664511	6.007098	-4.508285	-0.181744	1.133645	0.227170	-0.360840	-0.105957	0.840576	0.073620	-0.041553	-0.024869	-0.121856	-0.924533	-0.068849	-0.354472	159.129888	-39.692130	16.123729
57674		5.854092	2.012843	-2.421044	2.737663	-0.269821	-3.761660	0.584728	1.622034	0.340715	-0.367920	-0.100342	0.840820	0.058308	0.020299	-0.024625	-0.117973	-0.922089	-0.069293	-0.361984	159.342006	-40.633193	16.315766
57675		3.584569	4.690057	-2.844480	0.805930	-3.290460	-4.203859	-0.007697	2.035260	0.738844	-0.398193	-0.094971	0.833008	0.035380	0.047031	-0.028808	-0.115950	-0.918604	-0.067070	-0.371784	159.325368	-41.873684	16.336014
57676		3.125713	4.207215	-3.489620	-0.127340	-2.848194	-4.198633	-0.368071	2.455771	1.064996	-0.409912	-0.097656	0.814453	0.030601	0.042171	-0.035352	-0.114814	-0.914092	-0.062909	-0.383792	159.181945	-43.408565	16.237711
57677		3.444059	2.932646	-3.952396	-0.439727	-1.514067	-4.016592	-0.361104	2.845083	1.260440	-0.433838	-0.096436	0.813477	0.033688	0.029468	-0.040060	-0.113127	-0.908711	-0.058083	-0.397584	159.068045	-45.189021	16.106155
57678		3.787965	2.130422	-4.262593	-0.641670	-0.667653	-3.796399	-0.253584	3.238781	1.386135	-0.470947	-0.090820	0.800537	0.037034	0.021508	-0.043257	-0.110554	-0.902382	-0.053101	-0.413116	159.004656	-47.208899	15.993841
57679		4.094776	1.799212	-4.898998	-1.149946	-0.253087	-3.284860	-0.045169	3.585961	1.543354	-0.497559	-0.092041	0.792725	0.039920	0.018292	-0.049716	-0.106587	-0.895190	-0.048019	-0.430080	159.082343	-49.443877	15.856715
57680		4.179545	2.125514	-5.555659	-1.872922	-0.548977	-2.810225	0.318137	3.892888	1.745002	-0.537354	-0.082520	0.770508	0.040516	0.021702	-0.056319	-0.100441	-0.887194	-0.042954	-0.448279	159.442822	-51.886698	15.627530
57681		4.062489	2.809721	-5.773902	-2.418250	-1.325779	-2.733119	0.475333	4.210258	1.937554	-0.559814	-0.065430	0.749756	0.039123	0.028620	-0.058506	-0.093049	-0.878173	-0.037530	-0.467702	159.990917	-54.534268	15.284761
57682		3.860740	2.546380	-5.934940	-2.968521	-1.205080	-3.005571	0.280443	4.503576	2.112854	-0.599609	-0.055420	0.729248	0.036986	0.025944	-0.060158	-0.085949	-0.867884	-0.031067	-0.488287	160.549912	-57.374586	14.815328
57683		4.114416	0.987325	-6.474607	-3.574351	0.303295	-2.961198	0.205071	4.702942	2.249347	-0.645264	-0.052490	0.702148	0.039492	0.010391	-0.065677	-0.078799	-0.856547	-0.023822	-0.509461	161.224259	-60.342666	14.166286
57684		5.026919	-0.360715	-6.637605	-3.578582	1.616727	-2.462699	0.608956	4.879546	2.302493	-0.678467	-0.033203	0.671875	0.048666	-0.002836	-0.067586	-0.069659	-0.844305	-0.017500	-0.531027	162.280782	-63.413602	13.375432
57685		6.591638	-0.111522	-6.125469	-2.853670	1.299067	-1.378722	0.875323	5.067312	2.286561	-0.708252	-0.014404	0.642578	0.064341	-0.000101	-0.062900	-0.059414	-0.831024	-0.011933	-0.552925	163.646109	-66.573476	12.424028
57686		8.520903	0.899260	-6.240570	-2.749285	0.253802	0.419886	0.745043	5.200065	2.285763	-0.745361	0.000977	0.606445	0.083437	0.010191	-0.064554	-0.049603	-0.816655	-0.006107	-0.574958	165.230020	-69.797681	11.189507
57687		9.495780	1.469624	-7.753469	-4.450779	-0.385153	1.695777	0.622179	5.312686	2.389806	-0.782471	0.019043	0.568604	0.092668	0.016059	-0.079968	-0.040001	-0.801262	0.000543	-0.596975	167.406971	-73.079538	9.271246
57688		9.631252	2.775341	-7.612662	-4.964653	-1.965638	1.582787	0.756408	5.429948	2.496345	-0.811035	0.040039	0.539795	0.093842	0.029229	-0.078588	-0.029451	-0.784827	0.007129	-0.618974	170.841929	-76.408155	6.172682
57689		9.983586	4.092858	-7.156617	-5.130221	-3.570523	1.524093	0.426318	5.464605	2.525836	-0.847900	0.061035	0.500000	0.097304	0.042324	-0.074159	-0.020135	-0.767533	0.014908	-0.640519	176.217670	-79.685608	0.930997
57690		11.560425	4.206488	-6.892936	-5.252340	-3.957168	2.659191	0.208888	5.322060	2.461691	-0.866943	0.080811	0.463623	0.113187	0.043542	-0.071918	-0.011770	-0.749989	0.023075	-0.660943	-174.179544	-82.721886	-8.649895
57691		14.323548	2.290918	-5.798418	-4.448670	-2.443931	4.959134	0.235137	5.019049	2.478943	-0.889893	0.102783	0.426758	0.141422	0.024741	-0.061520	-0.003263	-0.732839	0.031283	-0.679675	-153.609549	-85.129021	-29.192503
57692		14.718522	0.156090	-4.970606	-4.224888	-0.708785	5.119069	0.480551	4.644492	2.553803	-0.912598	0.122070	0.374268	0.145941	0.003555	-0.053098	0.006521	-0.716398	0.038854	-0.696578	-114.907191	-85.987086	-67.714505
57693		12.645013	-0.255886	-5.019128	-4.943813	-0.481548	2.853936	0.626859	4.276879	2.321945	-0.917969	0.141357	0.348633	0.125355	-0.000936	-0.052885	0.016028	-0.700817	0.045109	-0.711733	-81.056497	-84.966172	-101.302338
57694		10.416440	0.610263	-5.051613	-5.453209	-1.394833	0.320845	0.783333	3.915593	1.908781	-0.935303	0.159668	0.322021	0.103083	0.007293	-0.052514	0.024756	-0.686212	0.049257	-0.725310	-63.148785	-83.213499	-118.840136
57695		9.076502	1.559575	-4.514935	-5.223488	-2.385925	-1.315086	0.579128	3.530574	1.511307	-0.945068	0.177002	0.283936	0.089828	0.016411	-0.046694	0.031357	-0.672836	0.052764	-0.737241	-53.431048	-81.407305	-128.308493
57696		8.308027	0.261761	-4.620698	-5.499446	-1.114132	-2.134878	0.156231	3.160867	1.313643	-0.955322	0.180908	0.261475	0.082317	0.003197	-0.047510	0.035956	-0.660708	0.057048	-0.747608	-47.801450	-79.672408	-133.914606
57697		8.237336	-1.672295	-4.539003	-5.601001	0.725495	-2.108869	0.232264	2.805369	1.121499	-0.969727	0.192139	0.241943	0.081818	-0.016209	-0.046559	0.040119	-0.649785	0.060376	-0.756654	-44.064587	-78.091872	-137.585766
57698		8.445542	-2.510266	-4.485467	-5.775978	1.446441	-1.920377	0.632443	2.390040	0.802593	-0.966553	0.199707	0.206787	0.084010	-0.024621	-0.045939	0.044542	-0.640313	0.061028	-0.764389	-41.065177	-76.770271	-140.279671
57699		8.497796	-1.973855	-4.191810	-5.689076	0.827018	-2.026398	1.126208	1.974619	0.447619	-0.963623	0.213623	0.194824	0.084601	-0.019309	-0.042864	0.049260	-0.632336	0.058586	-0.770903	-38.274300	-75.735419	-142.487267
57700		8.001021	-0.151717	-3.616833	-5.167933	-0.975457	-2.779919	1.503787	1.570505	0.114058	-0.968506	0.205322	0.183350	0.079724	-0.001197	-0.036805	0.054048	-0.625837	0.053498	-0.776238	-35.544623	-74.975149	-144.410485
57701		7.494152	1.733205	-2.551487	-4.070961	-2.814233	-3.395262	1.442230	1.147541	-0.165287	-0.969971	0.208740	0.172852	0.074808	0.017456	-0.025819	0.057617	-0.621011	0.047685	-0.780226	-33.073902	-74.485318	-146.113846
57702		7.286216	2.481176	-2.027575	-3.531241	-3.530623	-3.614204	0.889973	0.695628	-0.337149	-0.972412	0.209717	0.166260	0.072833	0.024780	-0.020419	0.058907	-0.618105	0.043359	-0.782685	-31.219803	-74.249925	-147.508381
57703		7.092117	2.638511	-2.000314	-3.474649	-3.642574	-3.819397	0.269072	0.273449	-0.422555	-0.981689	0.210205	0.161377	0.070949	0.026262	-0.020065	0.058033	-0.617044	0.041074	-0.783710	-30.044026	-74.238417	-148.568703
57704		7.103570	2.813543	-2.510542	-3.975553	-3.789952	-3.938113	-0.327288	-0.144071	-0.473333	-0.976563	0.201660	0.164063	0.071120	0.027926	-0.025100	0.055205	-0.617794	0.040847	-0.783335	-29.536359	-74.444309	-149.289396
57705		7.396108	2.514969	-3.232604	-4.755277	-3.484798	-3.752966	-0.960027	-0.533595	-0.538503	-0.969727	0.200684	0.168701	0.074114	0.024795	-0.032248	0.050246	-0.620247	0.042789	-0.781625	-29.658820	-74.862484	-149.731634
57706		7.718741	1.502154	-4.049536	-5.628759	-2.437920	-3.440364	-1.378740	-0.904931	-0.631413	-0.966553	0.193848	0.188965	0.077416	0.014499	-0.040247	0.043700	-0.624239	0.045981	-0.778654	-30.240382	-75.492099	-149.945910
57707		8.011202	0.572640	-5.030553	-6.604657	-1.423786	-3.167205	-1.519466	-1.242955	-0.774007	-0.954834	0.178955	0.191162	0.080443	0.005036	-0.049846	0.036236	-0.629553	0.049200	-0.774551	-31.036559	-76.330783	-150.021483
57708		8.069834	0.601106	-5.230076	-6.726487	-1.320976	-3.041939	-1.458027	-1.520218	-0.936986	-0.961670	0.174561	0.200928	0.081119	0.005253	-0.051725	0.028395	-0.635893	0.051610	-0.769526	-31.854674	-77.353979	-150.037971
57709		8.638196	0.564851	-2.650020	-4.189652	-1.331160	-1.898661	-1.385732	-1.626159	-1.094965	-0.957764	0.156738	0.222412	0.086622	0.004994	-0.025833	0.020202	-0.642583	0.053219	-0.764099	-32.485293	-78.476618	-150.203887
57710		17.085137	-5.270790	15.754273	12.833282	2.676786	10.087509	-1.106161	-0.610408	-1.070030	-0.957031	0.143555	0.220947	0.170087	-0.052745	0.158354	0.012787	-0.645293	0.053895	-0.761924	-31.431380	-79.097620	-151.915195
57711		20.652293	-15.164629	2.139371	-0.318777	13.152355	12.276896	-2.530449	-0.543934	-0.960406	-0.950195	0.125977	0.227051	0.205730	-0.152344	0.023879	0.001117	-0.647725	0.060390	-0.759476	-31.240074	-79.649969	-153.583823
57712		17.095794	2.323658	3.612591	0.665619	-3.919487	7.360205	-0.406975	-0.449549	-1.068367	-0.949219	0.115479	0.232666	0.170997	0.022397	0.036464	-0.004068	-0.649747	0.058434	-0.757891	-29.232064	-80.180276	-155.852730
57713		3.155861	7.441575	-0.675741	-1.894296	-7.516696	-7.425562	-3.672809	-0.518711	-0.364695	-0.946777	0.101807	0.238037	0.031714	0.074218	-0.008040	-0.017221	-0.651632	0.071161	-0.754994	-31.153341	-80.542170	-156.037303
57714		3.772832	-7.829817	-4.385826	-3.823545	8.092142	-5.982891	-2.487493	-1.235561	0.309963	-0.934570	0.096924	0.251465	0.038116	-0.078775	-0.042646	-0.023662	-0.655912	0.081621	-0.750039	-35.905125	-81.033951	-152.659953
57715		12.963835	-7.376623	-6.214438	-6.709814	7.315170	2.937030	-1.042356	-1.333793	-0.148156	-0.941895	0.095703	0.254883	0.129992	-0.074182	-0.060892	-0.027083	-0.660828	0.085193	-0.745195	-39.123431	-81.691904	-150.007732
57716		14.633466	-6.790545	-3.752934	-4.340060	6.263110	4.893275	-0.934221	-1.314524	-0.451412	-0.936035	0.085693	0.272949	0.146422	-0.068407	-0.036248	-0.031240	-0.665774	0.087321	-0.740368	-41.756217	-82.432556	-147.882935
57717		11.436389	-8.429970	-2.825408	-2.580695	7.987303	1.993166	-0.531365	-1.184339	-0.499501	-0.930176	0.085449	0.279541	0.114317	-0.084659	-0.027352	-0.034332	-0.670277	0.087802	-0.736098	-44.052765	-83.124442	-145.873817
57718		8.794068	-0.679498	-1.082448	-1.759630	0.309534	-1.107798	-0.371021	-1.136880	-1.170601	-0.928955	0.080078	0.283936	0.087958	-0.007329	-0.010311	-0.039329	-0.674895	0.085402	-0.731899	-44.013483	-84.058355	-146.120094
57719		9.423601	2.343069	-2.947590	-4.037190	-2.248640	-0.778139	-0.253670	-1.318331	-1.746166	-0.921631	0.055176	0.300049	0.094627	0.022569	-0.028882	-0.046002	-0.680375	0.080686	-0.726955	-41.816460	-85.292940	-148.471344
57720		12.077572	2.282092	-3.496104	-4.582576	-2.035858	1.940881	-0.207860	-1.387216	-1.849344	-0.913818	0.043457	0.312988	0.121218	0.021666	-0.034144	-0.052810	-0.686077	0.075426	-0.721679	-37.630308	-86.581943	-152.779370
57721		13.615805	5.003981	-3.143718	-4.606582	-4.649171	3.509141	-0.119066	-1.373194	-1.301831	-0.906738	0.026855	0.321045	0.136692	0.049133	-0.030529	-0.057388	-0.691462	0.071743	-0.716547	-35.020797	-87.657890	-155.459241
57722		10.994924	5.639114	-1.298425	-2.645389	-5.460581	1.029629	-0.472566	-1.250632	-0.769093	-0.900879	0.014160	0.331055	0.110244	0.055938	-0.012428	-0.061269	-0.696071	0.071092	-0.711812	-37.337114	-88.496484	-153.404541
57723		8.457809	4.719474	-1.076335	-2.098820	-4.511542	-1.433747	-0.867188	-1.213425	-0.599202	-0.901855	0.011475	0.339111	0.084783	0.046895	-0.010453	-0.065978	-0.700316	0.072457	-0.707075	-49.405123	-89.241321	-141.830277
57724		7.814808	3.116260	-2.532793	-3.135782	-2.595780	-2.026471	-1.047167	-1.172372	-0.639174	-0.898438	0.004395	0.355469	0.078394	0.030781	-0.025031	-0.071424	-0.704331	0.074264	-0.702354	-130.760535	-89.719672	-61.065374
57725		8.564951	2.060183	-2.855035	-3.148581	-1.432901	-1.222819	-0.900927	-1.133941	-0.734625	-0.891357	-0.010742	0.361572	0.085884	0.020159	-0.028155	-0.076745	-0.708242	0.075238	-0.697741	165.659683	-89.140415	2.001210
57726		10.019344	-0.220607	-2.940295	-2.610999	0.881922	0.261258	-0.794455	-1.074535	-0.688689	-0.893555	-0.013184	0.372803	0.100341	-0.002667	-0.028854	-0.081498	-0.711936	0.075934	-0.693354	156.938871	-88.428189	10.276961
57727		10.940824	-1.593853	-2.766431	-1.983908	2.249424	1.182658	-0.569185	-0.956931	-0.641942	-0.884277	-0.019531	0.375732	0.109487	-0.016368	-0.027094	-0.085376	-0.715252	0.076005	-0.689456	153.481506	-87.775999	13.411000
57728		10.144063	0.198215	-2.296641	-1.844527	0.448827	0.415259	-0.314551	-0.875874	-0.733514	-0.880371	-0.030029	0.383301	0.101546	0.001574	-0.022525	-0.088634	-0.718415	0.074788	-0.685879	150.310782	-87.134566	16.413562
57729		9.540974	1.363356	-1.618311	-1.384009	-0.790847	-0.170800	-0.266536	-0.788297	-0.752499	-0.872314	-0.034180	0.383545	0.095523	0.013253	-0.015825	-0.091867	-0.721272	0.073342	-0.682604	147.690511	-86.525273	18.885994
57730		9.401501	1.976497	-1.562747	-1.397669	-1.348214	-0.275127	-0.297763	-0.699645	-0.666778	-0.875732	-0.037354	0.392334	0.094134	0.019428	-0.015327	-0.094899	-0.723771	0.072225	-0.679657	146.006304	-85.980155	20.411832
57731		9.198795	3.613378	-1.287147	-1.458200	-2.959288	-0.408071	-0.351507	-0.635659	-0.583560	-0.870605	-0.049805	0.398193	0.092133	0.035843	-0.012642	-0.097915	-0.725968	0.071603	-0.676946	144.886448	-85.490612	21.333962
57732		9.880298	4.382457	-2.074243	-2.288262	-3.447387	0.385712	-0.393098	-0.675589	-0.613434	-0.874756	-0.037842	0.403564	0.099006	0.043481	-0.020494	-0.101112	-0.728287	0.070983	-0.674045	143.952974	-84.970740	22.054261
57733		9.765196	3.495850	-2.328042	-2.260081	-2.477048	0.274698	-0.340204	-0.701824	-0.580430	-0.863770	-0.054932	0.413330	0.097834	0.034635	-0.022996	-0.104048	-0.730679	0.070365	-0.671068	143.438459	-84.449855	22.376350
57734		9.994760	1.666443	-2.695365	-2.073722	-0.564932	0.449726	-0.070955	-0.685975	-0.490274	-0.863525	-0.059326	0.414063	0.100080	0.016410	-0.026616	-0.105646	-0.733124	0.069095	-0.668277	143.484247	-83.965563	22.300669
57735		9.609185	0.389631	-3.350449	-2.357529	0.841171	0.058876	0.261937	-0.671698	-0.397457	-0.856689	-0.058594	0.417725	0.096211	0.003749	-0.033177	-0.105773	-0.735639	0.067112	-0.665690	144.037376	-83.520607	21.896344
57736		9.818507	-0.757953	-2.942799	-1.600537	1.872390	0.165777	0.613063	-0.615228	-0.410595	-0.857910	-0.052979	0.429932	0.098259	-0.007692	-0.029149	-0.104613	-0.738155	0.063812	-0.663409	144.519317	-83.095703	21.775983
57737		9.907478	-0.911812	-2.650986	-1.215430	1.967097	0.220769	0.854116	-0.569815	-0.487953	-0.851074	-0.042969	0.427246	0.099127	-0.009247	-0.026267	-0.102887	-0.740637	0.059470	-0.661313	144.700648	-82.667706	22.087555
57738		9.954903	0.090908	-2.227490	-0.966415	0.915079	0.301579	0.984022	-0.545980	-0.573554	-0.863037	-0.051025	0.436768	0.099612	0.000732	-0.021999	-0.100911	-0.743118	0.054299	-0.659275	144.612854	-82.221028	22.756086
57739		10.745124	1.384516	-2.130069	-0.977963	-0.301532	1.181122	1.136306	-0.528876	-0.597172	-0.848633	-0.048584	0.446289	0.107548	0.013644	-0.020938	-0.098503	-0.745581	0.048595	-0.657301	144.532862	-81.775838	23.495460
57740		10.901321	3.516137	-2.794341	-1.937196	-2.222005	1.603062	1.298268	-0.531454	-0.495979	-0.853027	-0.046143	0.452881	0.109174	0.035070	-0.027426	-0.095098	-0.748080	0.042667	-0.655372	144.903340	-81.361692	23.884160
57741		10.427997	5.336500	-2.580025	-2.023458	-4.084169	1.282440	1.234090	-0.488331	-0.330020	-0.855469	-0.044678	0.454590	0.104430	0.053350	-0.025216	-0.091448	-0.750321	0.037614	-0.653636	145.638832	-81.024091	23.856556
57742		10.312002	4.961446	-2.553917	-1.844014	-3.748026	1.142998	0.831651	-0.462607	-0.155183	-0.853516	-0.038574	0.455322	0.103217	0.049639	-0.025094	-0.088685	-0.752247	0.034451	-0.651976	146.580789	-80.752886	23.396404
57743		10.216310	3.977349	-2.717891	-1.782843	-2.777965	0.989320	0.398133	-0.366174	-0.009046	-0.862061	-0.035889	0.457031	0.102214	0.039823	-0.026913	-0.087144	-0.753617	0.033276	-0.650661	147.479460	-80.574109	22.717990
57744		10.262428	2.359238	-2.732053	-1.480397	-1.201472	0.897695	0.251581	-0.314141	0.057636	-0.852539	-0.036865	0.458984	0.102660	0.023656	-0.027130	-0.085895	-0.754751	0.032736	-0.649539	148.365552	-80.437369	21.976982
57745		10.217495	0.594928	-2.697163	-1.137883	0.503639	0.698131	0.350726	-0.263277	0.083432	-0.858643	-0.022217	0.457764	0.102208	0.006039	-0.026827	-0.084248	-0.755742	0.032020	-0.648637	149.271491	-80.333118	21.263096
57746		10.080643	1.134918	-2.497311	-1.023351	-0.093146	0.583847	0.579111	-0.217173	0.057797	-0.850098	-0.016357	0.468506	0.100830	0.011450	-0.024831	-0.081776	-0.756691	0.030375	-0.647926	150.139872	-80.240537	20.729958
57747		10.243139	1.815216	-2.584363	-1.158145	-0.764996	0.816009	0.645048	-0.212515	0.055448	-0.849365	-0.023682	0.471924	0.102454	0.018264	-0.025676	-0.079115	-0.757632	0.028577	-0.647239	151.018201	-80.150130	20.214820
57748		10.209934	1.948586	-2.431701	-1.004217	-0.953116	0.772013	0.683868	-0.190815	0.126272	-0.855713	-0.012451	0.467285	0.102110	0.019633	-0.024153	-0.076027	-0.758510	0.026841	-0.646654	152.076783	-80.086557	19.549262
57749		9.908829	1.683826	-2.290059	-0.851392	-0.767795	0.431822	0.727809	-0.181705	0.201620	-0.859863	-0.005859	0.476074	0.099092	0.017021	-0.022749	-0.072581	-0.759343	0.025316	-0.646134	153.355060	-80.047022	18.676029
57750		9.191897	2.258286	-1.967399	-0.701121	-1.461608	-0.282031	0.766071	-0.202759	0.219336	-0.854248	-0.006592	0.472168	0.091914	0.022759	-0.019494	-0.068877	-0.760255	0.023671	-0.645529	154.727300	-79.995589	17.739608
57751		9.412227	1.942120	-1.199238	0.157096	-1.278056	-0.213639	0.666717	-0.241102	0.228087	-0.860840	0.005371	0.478027	0.094114	0.019568	-0.011814	-0.065568	-0.761232	0.022464	-0.644765	156.107620	-79.924358	16.726910
57752		9.615237	1.756800	-0.426506	1.000875	-1.214801	-0.156425	0.600746	-0.252451	0.224942	-0.861328	0.011475	0.478760	0.096138	0.017689	-0.004091	-0.062468	-0.762226	0.021389	-0.643935	157.436529	-79.840232	15.737859
57753		9.209908	1.363504	0.087168	1.511148	-0.933827	-0.673027	0.522749	-0.315011	0.221490	-0.856934	0.024658	0.483643	0.092082	0.013734	0.001053	-0.059720	-0.763377	0.020643	-0.642856	158.765037	-79.720110	14.693423
57754		9.005924	-0.794816	0.587932	2.231503	1.117068	-1.103124	0.459881	-0.405853	0.218862	-0.865723	0.015381	0.485107	0.090056	-0.007863	0.006044	-0.057159	-0.764805	0.020044	-0.641409	160.117163	-79.544424	13.597910
57755		8.452168	-2.033044	1.206124	2.896745	2.238949	-1.836281	0.566805	-0.484337	0.119467	-0.862793	0.031738	0.490479	0.084504	-0.020314	0.012208	-0.054551	-0.766503	0.018816	-0.639643	161.281673	-79.305137	12.744798
57756		8.712190	-3.005102	0.970580	2.840467	3.238155	-1.607756	0.476766	-0.586583	-0.001869	-0.853271	0.033691	0.497070	0.087093	-0.030075	0.009890	-0.052614	-0.768516	0.017367	-0.637427	162.100622	-78.983885	12.200249
57757		9.123623	-2.392956	0.097462	2.048031	2.738293	-1.021593	0.431045	-0.655447	-0.088280	-0.853760	0.032959	0.506104	0.091222	-0.023972	0.001222	-0.051173	-0.770721	0.015822	-0.634918	162.680172	-78.610631	11.862362
57758		9.182669	-1.858503	-0.504371	1.478338	2.272472	-0.830489	0.308687	-0.731915	-0.117515	-0.851318	0.032959	0.506836	0.091833	-0.018632	-0.004736	-0.050238	-0.773137	0.014499	-0.632080	163.144848	-78.188318	11.579732
57759		9.156451	-1.653911	-0.594132	1.432480	2.081153	-0.837978	0.236262	-0.788180	-0.152002	-0.845703	0.037842	0.511719	0.091574	-0.016602	-0.005600	-0.049739	-0.775692	0.013358	-0.629006	163.498980	-77.730718	11.357203
57760		9.039999	-0.641944	-0.537330	1.451013	1.073512	-0.915270	0.190007	-0.844420	-0.217973	-0.845215	0.040771	0.525879	0.090415	-0.006513	-0.004998	-0.049570	-0.778412	0.012049	-0.625677	163.685252	-77.229738	11.289100
57761		9.346974	-0.350670	-0.839031	1.280619	0.838068	-0.547166	0.071774	-0.901205	-0.245024	-0.838135	0.041992	0.529297	0.093502	-0.003618	-0.007970	-0.049993	-0.781256	0.011089	-0.622106	163.771361	-76.694723	11.244084
57762		9.623720	-0.404850	-0.890809	1.384260	0.924722	-0.283708	-0.004018	-0.917762	-0.247154	-0.831543	0.040527	0.539063	0.096272	-0.004168	-0.008466	-0.050666	-0.784124	0.010290	-0.618446	163.815278	-76.148747	11.207728
57763		9.717734	-0.289106	-1.056446	1.327484	0.846186	-0.161002	-0.035259	-0.934987	-0.266113	-0.837402	0.028809	0.544922	0.097221	-0.003022	-0.010109	-0.051569	-0.787012	0.009587	-0.614704	163.808780	-75.591761	11.194761
57764		9.074880	0.967117	-1.556930	0.679803	-0.368572	-0.586957	0.005780	-0.955869	-0.300673	-0.826172	0.031006	0.544434	0.090836	0.009535	-0.015135	-0.052364	-0.789965	0.008557	-0.610852	163.766056	-75.016338	11.253550
57765		8.737368	2.031053	-1.571312	0.587460	-1.421042	-0.836573	-0.111576	-0.985918	-0.317822	-0.821777	0.036377	0.546875	0.087482	0.020163	-0.015293	-0.053724	-0.792951	0.007896	-0.606861	163.644522	-74.423036	11.314436
57766		9.134089	1.887655	-1.862406	0.515850	-1.206319	-0.392429	-0.204196	-1.032625	-0.311744	-0.806396	0.024414	0.562256	0.091465	0.018715	-0.018171	-0.055431	-0.796037	0.007549	-0.602657	163.514619	-73.803618	11.329044
57767		9.347346	1.814719	-1.919120	0.624290	-1.091036	-0.181068	-0.207960	-1.059440	-0.329172	-0.812744	0.024414	0.562744	0.093603	0.017974	-0.018714	-0.057201	-0.799173	0.007155	-0.598331	163.371104	-73.168018	11.355631
57768		10.298733	1.007988	-1.677405	1.296776	-0.231548	0.587180	-0.236315	-1.068955	-0.339704	-0.805908	0.015625	0.586670	0.103092	0.009885	-0.016235	-0.059065	-0.802310	0.006732	-0.593940	163.203564	-72.524061	11.400446
57769		10.058036	0.730918	-1.606017	1.426922	0.050848	0.298586	-0.100775	-1.053552	-0.371389	-0.787354	0.015381	0.587646	0.100676	0.007114	-0.015534	-0.060526	-0.805410	0.005848	-0.589591	163.059010	-71.884638	11.492806
57770		9.893695	0.791654	-1.608249	1.481091	0.010500	0.132336	-0.040746	-1.104630	-0.404471	-0.787598	0.013184	0.584717	0.099040	0.007713	-0.015537	-0.061793	-0.808659	0.004595	-0.585005	162.927416	-71.210308	11.618095
57771		9.988641	0.289183	-2.024403	1.274330	0.589551	0.285926	0.004366	-1.158339	-0.418339	-0.780273	0.015869	0.596924	0.100007	0.002683	-0.019665	-0.062962	-0.812044	0.003245	-0.580181	162.834618	-70.505470	11.720166
57772		10.339348	0.040811	-1.428745	2.094190	0.826604	0.379205	0.181361	-1.229629	-0.429704	-0.780762	0.010498	0.608887	0.103479	0.000198	-0.013651	-0.063444	-0.815664	0.001353	-0.575035	162.863576	-69.758429	11.801043
57773		12.077765	-0.236287	-1.486636	2.792790	1.261241	1.966346	0.179612	-1.313124	-0.417883	-0.763916	0.010986	0.620605	0.120867	-0.002602	-0.014075	-0.063894	-0.819481	-0.000455	-0.569534	162.947819	-68.968916	11.822198
57774		12.840786	0.198798	-1.791197	2.910705	0.948625	2.787269	0.365093	-1.337517	-0.411106	-0.751221	0.004150	0.620850	0.128528	0.001756	-0.017049	-0.063563	-0.823390	-0.002758	-0.563899	163.153364	-68.166094	11.827299
57775		12.111948	-0.519518	-1.081032	3.518608	1.564646	1.733165	0.301019	-1.350021	-0.425595	-0.751465	0.010254	0.633545	0.121177	-0.005438	-0.010001	-0.063532	-0.827265	-0.004934	-0.558186	163.302448	-67.355119	11.853788
57776		11.213150	-1.100883	-0.455150	3.947317	2.041634	0.550808	0.282832	-1.414047	-0.462903	-0.735596	-0.000732	0.645752	0.112134	-0.011263	-0.003774	-0.063680	-0.831271	-0.007195	-0.552160	163.413931	-66.501993	11.909955
57777		11.475058	-1.342044	-0.640117	4.047118	2.355044	0.768416	0.198400	-1.506502	-0.455394	-0.725830	0.014160	0.650635	0.114764	-0.013676	-0.005550	-0.064155	-0.835452	-0.009159	-0.545729	163.519154	-65.600257	11.920441
57778		11.257159	-1.109655	-0.911503	3.862012	2.167622	0.635722	0.183204	-1.580316	-0.485163	-0.717529	0.011475	0.659424	0.112612	-0.011362	-0.008236	-0.064776	-0.839776	-0.011184	-0.538940	163.603181	-64.652475	11.944759
57779		11.099278	-1.123964	0.346622	5.101983	2.085037	-0.107189	0.023090	-1.647215	-0.549605	-0.691406	0.002197	0.678711	0.110928	-0.011545	0.004379	-0.066240	-0.844160	-0.013024	-0.531823	163.545424	-63.658153	12.024887
57780		11.570041	-0.852677	1.060849	6.104401	1.835015	-0.061615	0.035041	-1.754640	-0.617025	-0.686768	-0.002930	0.686035	0.115574	-0.008885	0.011621	-0.067836	-0.848764	-0.015144	-0.524184	163.461478	-62.593406	12.142770
57781		12.423028	0.372029	0.977980	6.546161	0.765594	0.769521	-0.016266	-1.850401	-0.660263	-0.672119	-0.006836	0.694580	0.124144	0.003311	0.010928	-0.069763	-0.853518	-0.017278	-0.516083	163.341357	-61.469305	12.269497
57782		13.786983	-0.839644	1.202159	7.644632	2.139640	1.554191	-0.095421	-1.925190	-0.684086	-0.666504	-0.004150	0.702393	0.137716	-0.008862	0.013352	-0.072089	-0.858350	-0.019282	-0.507609	163.184609	-60.300061	12.387610
57783		14.274004	-2.804015	1.801169	8.704020	4.139793	1.230332	0.170749	-1.986163	-0.759702	-0.643555	-0.003906	0.705566	0.142444	-0.028598	0.019403	-0.073462	-0.863331	-0.022262	-0.498765	163.135257	-59.084763	12.559397
57784		13.899673	-3.697862	3.080698	9.857058	4.935024	-0.074050	0.493092	-2.093597	-0.910163	-0.623047	-0.017090	0.724609	0.138494	-0.037688	0.032166	-0.073821	-0.868573	-0.026652	-0.489307	163.172830	-57.786010	12.848209
57785		13.804170	-5.226149	3.045482	9.993638	6.550450	-0.628362	0.794223	-2.235982	-1.062311	-0.613525	-0.011719	0.742432	0.137411	-0.053117	0.031784	-0.073253	-0.874122	-0.032384	-0.479057	163.299897	-56.383766	13.240259
57786		13.836221	-5.545191	3.280515	10.366278	6.989422	-1.058879	1.120962	-2.350747	-1.215770	-0.582764	-0.010742	0.752197	0.137625	-0.056479	0.034111	-0.071626	-0.879873	-0.039518	-0.468114	163.529920	-54.895147	13.741112
57787		13.824103	-5.345486	2.809577	10.114507	6.997188	-1.077833	1.097782	-2.456633	-1.347991	-0.561035	-0.006348	0.761230	0.137519	-0.054543	0.029491	-0.070420	-0.885651	-0.047136	-0.456553	163.685357	-53.326828	14.327013
57788		12.813931	-2.976002	-0.303599	7.222946	4.925946	0.020873	0.874937	-2.614076	-1.434770	-0.538574	-0.014648	0.775146	0.127948	-0.030670	-0.001496	-0.070413	-0.891477	-0.054558	-0.444223	163.708632	-51.660243	14.931254
57789		12.509743	-0.062494	-1.798612	6.210902	2.270254	0.957188	0.776685	-2.849826	-1.413444	-0.509521	-0.001465	0.787109	0.125329	-0.001445	-0.016206	-0.070848	-0.897576	-0.061575	-0.430751	163.763064	-49.865926	15.436968
57790		13.822247	1.826015	-1.439936	7.730568	0.766685	1.853285	0.430948	-2.965534	-1.401648	-0.485840	-0.005127	0.808838	0.138539	0.017318	-0.012309	-0.072820	-0.903556	-0.067731	-0.416769	163.674080	-48.011943	15.884243
57791		14.374639	3.153601	-2.696107	7.585324	-0.169410	3.081441	0.319543	-2.963017	-1.371878	-0.455566	-0.012695	0.807129	0.144336	0.030588	-0.024776	-0.075219	-0.909261	-0.073509	-0.402719	163.562412	-46.161472	16.288209
57792		13.792661	5.670246	-4.512808	6.431593	-2.427170	4.168722	-0.126706	-2.863789	-1.210922	-0.431152	-0.022217	0.822998	0.138894	0.055836	-0.043179	-0.079260	-0.914419	-0.077668	-0.389261	163.292806	-44.393502	16.567271
57793		12.770864	6.789219	-7.722808	3.899707	-3.280263	5.770834	-0.558465	-2.764815	-0.840091	-0.406250	-0.028076	0.834229	0.129045	0.067139	-0.075638	-0.084504	-0.919154	-0.079320	-0.376461	162.973220	-42.737861	16.568310
57794		12.577910	7.306280	-7.453030	4.359033	-3.706504	5.496906	-0.657799	-2.459816	-0.387681	-0.378174	-0.039551	0.838379	0.126826	0.072575	-0.073214	-0.089210	-0.923270	-0.078813	-0.365243	162.780551	-41.328402	16.294875
57795		12.076175	5.831217	-6.058257	5.109102	-2.427578	3.771814	-1.177283	-2.083941	-0.110305	-0.364014	-0.051025	0.841064	0.121419	0.057892	-0.059661	-0.095651	-0.926442	-0.076239	-0.356010	162.363516	-40.170271	15.902106
57796		10.603662	3.594560	-5.322177	4.530749	-0.560812	1.712912	-1.923013	-1.647092	-0.001335	-0.346436	-0.067871	0.838379	0.106472	0.035437	-0.052688	-0.105167	-0.928373	-0.072024	-0.349108	161.505481	-39.275913	15.522203
57797		8.467236	1.728657	-8.117495	1.097630	1.344898	1.915853	-2.246731	-1.391915	0.170597	-0.332275	-0.079834	0.847900	0.085221	0.016450	-0.080771	-0.115780	-0.929603	-0.066574	-0.343514	160.503685	-38.553660	15.069501
57798		5.686779	2.709141	-9.560884	-1.785646	0.203397	1.494744	-0.899108	-1.228817	0.341544	-0.321045	-0.093506	0.835693	0.057408	0.026760	-0.095378	-0.119764	-0.931271	-0.062724	-0.338314	160.321287	-37.959180	14.533739
57799		5.579292	7.095833	-7.815486	-0.472832	-4.335177	1.302288	0.308534	-1.097512	0.108232	-0.308594	-0.081543	0.845459	0.056182	0.071109	-0.077738	-0.118477	-0.933333	-0.062085	-0.333165	160.706490	-37.387058	14.194558
57800		8.645378	7.798982	-3.102335	5.014044	-5.282479	-0.213462	0.378895	-0.717541	-0.143187	-0.302246	-0.087402	0.851318	0.086620	0.077986	-0.030565	-0.117156	-0.934693	-0.062954	-0.329636	160.968340	-36.974931	14.122112
57801		8.359566	3.951492	-1.486986	5.688526	-1.905111	-2.621105	-0.991645	-0.064339	-0.066012	-0.298584	-0.105225	0.847900	0.083614	0.039413	-0.015039	-0.121908	-0.934188	-0.061591	-0.329603	160.383809	-36.927632	14.151206
57802		8.581991	-1.197205	-2.512666	5.013778	3.307653	-3.080767	-1.477228	0.491139	0.283005	-0.300049	-0.111084	0.830322	0.085775	-0.012037	-0.025249	-0.128175	-0.932528	-0.058127	-0.332541	159.580601	-37.250939	14.080861
57803		7.615280	-3.870085	-3.752378	3.389953	5.936664	-3.463322	-0.968283	1.037225	0.753127	-0.309814	-0.122314	0.827637	0.076103	-0.038597	-0.037732	-0.131122	-0.930373	-0.053670	-0.338130	159.176986	-37.959130	13.834971
57804		5.667407	-0.429157	-3.593838	1.977831	2.210475	-3.777751	-0.403929	1.449822	0.999186	-0.327393	-0.126709	0.826416	0.056432	-0.004082	-0.036340	-0.130904	-0.927879	-0.049281	-0.345652	159.136815	-38.942873	13.528894
57805		4.098820	1.537963	-4.497213	0.093571	0.194669	-3.540329	-0.550798	1.798840	1.227071	-0.347900	-0.123779	0.820801	0.040486	0.015504	-0.045380	-0.130877	-0.924655	-0.043812	-0.354914	159.061300	-40.156548	13.153646
57806		4.015633	1.971607	-5.063992	-0.499573	-0.147154	-3.076000	-0.442328	2.151251	1.363285	-0.357422	-0.128662	0.817627	0.039473	0.019874	-0.051111	-0.130006	-0.920761	-0.038123	-0.365848	159.059253	-41.590680	12.771035
57807		4.248508	2.231436	-4.998334	-0.470400	-0.413085	-2.912163	-0.303402	2.503980	1.448165	-0.385498	-0.132813	0.809326	0.041692	0.022542	-0.050543	-0.128253	-0.916164	-0.032526	-0.378335	159.127133	-43.227007	12.414321
57808		4.486296	2.104292	-5.168177	-0.623324	-0.267714	-2.685248	-0.244483	2.823772	1.538012	-0.418945	-0.127686	0.793945	0.043964	0.021320	-0.052333	-0.125973	-0.910786	-0.026819	-0.392275	159.229634	-45.056260	12.067507
57809		4.625199	1.178070	-5.630508	-1.048129	0.684048	-2.538695	-0.073486	3.164839	1.634500	-0.438477	-0.124756	0.781738	0.045255	0.012132	-0.057031	-0.122648	-0.904609	-0.021223	-0.407663	159.434131	-47.083435	11.726710
57810		4.782397	0.589235	-5.609811	-1.148520	1.196268	-2.606319	0.168742	3.504113	1.748183	-0.469971	-0.120850	0.777344	0.046777	0.006352	-0.056919	-0.117911	-0.897571	-0.015799	-0.424515	159.800386	-49.318028	11.366620
57811		4.532461	0.682348	-5.859349	-1.783711	1.031905	-2.665217	0.300514	3.810772	1.922803	-0.502930	-0.108154	0.757324	0.044129	0.007340	-0.059431	-0.112144	-0.889608	-0.010054	-0.442628	160.327717	-51.746262	10.908172
57812		4.072358	0.757865	-6.000397	-2.472721	0.825944	-3.004039	0.505982	4.078241	2.112500	-0.544434	-0.100098	0.742432	0.039405	0.008153	-0.060796	-0.104968	-0.880724	-0.004057	-0.461834	161.112744	-54.355197	10.290281
57813		4.108565	0.751313	-5.782679	-2.573783	0.683111	-3.195788	0.504871	4.353010	2.254504	-0.572754	-0.083984	0.725586	0.039725	0.008114	-0.058681	-0.097410	-0.870717	0.002419	-0.482034	162.045974	-57.129729	9.512823
57814		4.521760	0.509139	-6.064090	-2.887179	0.887129	-2.859715	0.472925	4.595227	2.373569	-0.603027	-0.071777	0.698975	0.043743	0.005761	-0.061644	-0.089638	-0.859539	0.009378	-0.503061	163.155331	-60.052384	8.532299
57815		5.322478	0.670136	-5.845118	-2.679155	0.618520	-2.371736	0.635916	4.824904	2.442252	-0.640625	-0.064209	0.669434	0.051706	0.007527	-0.059688	-0.080947	-0.847257	0.016104	-0.524732	164.586242	-63.096913	7.321350
57816		6.321110	1.536652	-5.691120	-2.599268	-0.354839	-1.578314	0.654950	5.004145	2.455415	-0.684570	-0.043701	0.644043	0.061565	0.016319	-0.058413	-0.072086	-0.833850	0.022759	-0.546791	166.320016	-66.229073	5.820318
57817		7.632756	2.693732	-6.074397	-3.032887	-1.559233	-0.286110	0.551724	5.163122	2.476948	-0.714844	-0.026123	0.616211	0.074385	0.028038	-0.062605	-0.063563	-0.819309	0.029703	-0.569043	168.451617	-69.426268	3.861965
57818		8.920808	3.486208	-6.588900	-3.720445	-2.429959	0.927975	0.313983	5.349130	2.605935	-0.760498	-0.012695	0.570557	0.086940	0.036111	-0.068179	-0.055562	-0.803430	0.037703	-0.591601	171.356043	-72.709434	0.994251
57819		9.731980	3.644056	-7.374459	-4.890698	-2.676132	1.643347	0.024397	5.495288	2.857669	-0.787598	0.007080	0.541504	0.094711	0.037816	-0.076367	-0.048013	-0.786261	0.047560	-0.614188	175.945354	-76.022488	-3.753502
57820		10.055820	3.066026	-7.833383	-5.864719	-2.267573	1.688933	0.128978	5.543353	3.141751	-0.818115	0.030029	0.497559	0.097838	0.032263	-0.081051	-0.039073	-0.768115	0.058105	-0.636472	-175.731372	-79.206296	-12.184163
57821		10.808308	2.591338	-6.670981	-5.225987	-2.235318	1.835095	0.285749	5.533247	3.309967	-0.860596	0.050293	0.459961	0.105734	0.027775	-0.069618	-0.029022	-0.749204	0.068790	-0.658117	-160.390114	-81.939942	-27.561474
57822		11.845187	1.082543	-5.460072	-4.405101	-1.256863	2.444987	0.213877	5.420575	3.389088	-0.875977	0.077148	0.419922	0.116708	0.012874	-0.057767	-0.018856	-0.729843	0.079920	-0.678665	-133.978516	-83.540672	-54.044448
57823		12.337129	-1.925374	-5.192156	-4.396273	1.316775	2.905570	0.549709	5.176002	3.380069	-0.895020	0.116211	0.377686	0.122272	-0.017032	-0.055145	-0.007433	-0.710633	0.089856	-0.697762	-102.827048	-83.236534	-85.076138
57824		12.242010	-1.694965	-4.192190	-4.129058	0.650036	2.548314	1.113864	4.916082	2.967839	-0.915527	0.129150	0.339844	0.121570	-0.014896	-0.045004	0.004730	-0.691879	0.096261	-0.715552	-80.528842	-81.587464	-106.913069
57825		12.134781	-0.790476	-4.217966	-4.897064	-0.497591	2.078459	1.185624	4.635020	2.582414	-0.935059	0.154785	0.294678	0.120413	-0.006085	-0.045017	0.015845	-0.673772	0.101021	-0.731830	-67.050013	-79.411302	-119.885452
57826		11.860856	-1.494430	-4.284850	-5.431240	0.000046	1.665115	1.534501	4.324753	2.214375	-0.943115	0.179688	0.265137	0.117797	-0.013295	-0.045508	0.026965	-0.656480	0.103158	-0.746770	-58.352072	-77.139742	-127.863806
57827		10.667627	-1.130292	-2.929464	-4.461044	-0.513482	0.359351	2.184347	3.931552	1.799907	-0.958740	0.197266	0.220947	0.106165	-0.010010	-0.031499	0.038827	-0.640387	0.101404	-0.760339	-52.014552	-75.004658	-133.101361
57828		9.577036	-0.601346	-1.893601	-3.678120	-1.091014	-0.816285	2.484208	3.425448	1.406617	-0.953857	0.219482	0.196289	0.095465	-0.005092	-0.020640	0.050414	-0.626001	0.097089	-0.772110	-47.184137	-73.116014	-136.639990
57829		8.051100	-0.142766	-1.897447	-3.657665	-1.353987	-2.517300	2.836046	2.868508	1.044189	-0.957275	0.233154	0.170166	0.080233	-0.000728	-0.020140	0.061926	-0.613570	0.090105	-0.782035	-43.221402	-71.533029	-139.092035
57830		6.108099	1.168591	-1.219361	-2.707110	-2.361153	-4.591928	3.175476	2.274264	0.675961	-0.967529	0.249268	0.144287	0.060898	0.012091	-0.012697	0.073307	-0.603261	0.080433	-0.790084	-39.744747	-70.298390	-140.841326
57831		4.996295	2.194617	-0.153899	-1.421212	-3.209044	-5.631167	2.822978	1.633132	0.325916	-0.965820	0.250488	0.127930	0.049914	0.022050	-0.001636	0.082450	-0.595563	0.070846	-0.795920	-36.942378	-69.448550	-142.102026
57832		6.026029	0.612353	-0.734064	-2.365196	-1.890984	-4.515830	2.148341	0.951545	-0.083900	-0.967041	0.246338	0.113281	0.060227	0.006179	-0.007561	0.088180	-0.590869	0.062429	-0.799500	-34.764310	-69.033544	-143.113585
57833		7.202964	-1.047114	-0.679287	-2.803795	-0.515562	-3.081175	1.899169	0.392020	-0.496692	-0.964355	0.253662	0.107178	0.071990	-0.010584	-0.007034	0.091686	-0.588590	0.053533	-0.801430	-32.733193	-69.004816	-144.122297
57834		6.973363	-0.068471	-0.786404	-2.779544	-1.391155	-3.520665	1.579623	-0.092028	-0.868426	-0.964600	0.243408	0.101807	0.069734	-0.000926	-0.007839	0.092885	-0.588435	0.044598	-0.801953	-30.788098	-69.310480	-145.233820
57835		7.433044	2.259916	-1.052768	-2.920998	-3.716828	-3.558260	0.968280	-0.504554	-1.073165	-0.956543	0.232422	0.112305	0.074477	0.022250	-0.010232	0.091548	-0.590230	0.037315	-0.801159	-29.189915	-69.868173	-146.345885
57836		8.072084	3.654315	-1.869065	-3.698621	-5.172554	-3.365242	-0.022042	-0.839533	-1.101564	-0.970947	0.229736	0.113037	0.080998	0.036096	-0.018355	0.087233	-0.593787	0.033761	-0.799167	-28.304904	-70.592631	-147.298400
57837		7.734792	3.827289	-2.880754	-4.529849	-5.243109	-3.916701	-1.135289	-1.059696	-0.994176	-0.964111	0.216309	0.123047	0.077688	0.037724	-0.028612	0.080072	-0.598659	0.034875	-0.796228	-28.335333	-71.397310	-147.952990
57838		7.093017	3.188572	-3.449654	-4.953967	-4.421745	-4.494557	-2.009769	-1.285489	-0.835498	-0.959473	0.207275	0.134033	0.071283	0.031243	-0.034355	0.070955	-0.604675	0.039849	-0.792304	-29.288174	-72.272902	-148.160723
57839		7.446922	2.233959	-3.377222	-5.030992	-3.406169	-3.901888	-2.927005	-1.409866	-0.731826	-0.964111	0.193848	0.154053	0.074786	0.021574	-0.033565	0.059485	-0.611360	0.048719	-0.787609	-31.106056	-73.181893	-148.012098
57840		14.598879	-0.922558	10.513911	6.644926	-1.498316	6.864025	-3.636768	-0.633265	-0.749163	-0.959473	0.172119	0.161621	0.145623	-0.007852	0.105752	0.045568	-0.615007	0.060543	-0.784872	-32.604948	-73.716541	-148.620817
57841		23.626654	-15.333535	9.702147	4.178849	11.214759	17.467052	-4.133274	-0.391427	-0.778821	-0.950684	0.158447	0.164063	0.235478	-0.152198	0.100636	0.029919	-0.617583	0.074258	-0.782420	-34.106912	-74.149139	-149.521088
57842		19.799349	2.171210	4.809776	-0.063183	-5.232804	9.998306	-2.981598	-0.564845	-1.099735	-0.948730	0.139893	0.168701	0.197975	0.021343	0.048337	0.016641	-0.620564	0.082415	-0.779635	-34.600457	-74.771120	-150.778444
57843		6.084185	1.671377	-3.857756	-5.261878	-1.919255	-4.983739	-4.186979	-1.196428	-0.561486	-0.949219	0.136230	0.186279	0.061118	0.015735	-0.038549	0.001959	-0.625658	0.096867	-0.774058	-37.540381	-75.514499	-150.217650
57844		5.533501	-16.542312	-3.844484	-2.772183	16.104704	-2.602625	-2.100756	-1.419721	0.263621	-0.942871	0.123047	0.204102	0.055816	-0.165739	-0.036310	-0.002879	-0.630994	0.105780	-0.768537	-41.240861	-76.046869	-147.638199
57845		8.912821	-7.611145	-3.048002	-3.588534	6.815739	-0.468171	-1.536094	-1.623791	-0.441187	-0.941162	0.125244	0.208740	0.089200	-0.076536	-0.029169	-0.008554	-0.637404	0.110301	-0.762546	-43.965527	-76.902787	-145.739958
57846		10.378751	-4.849230	-2.589466	-3.575658	3.916863	0.666080	-1.878922	-1.579201	-0.916293	-0.931396	0.105957	0.224365	0.103761	-0.049203	-0.024615	-0.017138	-0.643796	0.114589	-0.756375	-46.254924	-77.912559	-144.494101
57847		10.341113	-1.721853	-2.032508	-3.332391	0.884904	0.293804	-1.656242	-1.466680	-1.426925	-0.931396	0.098633	0.242920	0.103429	-0.018120	-0.019419	-0.027015	-0.649963	0.116369	-0.750518	-47.470184	-79.083609	-144.221234
57848		10.723354	2.685228	-2.798067	-4.805692	-3.113909	0.047985	-1.313540	-1.344657	-1.798682	-0.923584	0.065430	0.245850	0.107654	0.025704	-0.027429	-0.037219	-0.655825	0.115611	-0.745078	-47.519133	-80.363173	-144.932863
57849		11.005645	7.329496	-3.358121	-6.239648	-7.320314	-0.138282	-1.193485	-1.253904	-1.940233	-0.924072	0.047852	0.256592	0.110969	0.072022	-0.033320	-0.047625	-0.661341	0.113912	-0.739854	-46.750611	-81.666691	-146.402033
57850		12.115203	7.987363	-5.358944	-8.371697	-7.361025	0.911827	-1.302311	-1.278282	-1.593370	-0.918213	0.028564	0.266113	0.122123	0.078555	-0.053325	-0.057073	-0.666623	0.113745	-0.734451	-46.830793	-82.833444	-147.071543
57851		13.841357	4.007817	-5.835913	-7.943962	-3.323641	3.131204	-1.089347	-1.365365	-0.970559	-0.909912	0.020508	0.279297	0.139000	0.039089	-0.057626	-0.063481	-0.671846	0.114889	-0.728968	-49.242654	-83.770010	-145.270483
57852		12.817834	2.099913	-4.655115	-6.067614	-1.610488	2.474031	-0.821136	-1.341342	-0.590585	-0.910400	0.021973	0.296387	0.128548	0.020431	-0.045775	-0.067598	-0.676798	0.116302	-0.723774	-53.515018	-84.514945	-141.445741
57853		9.436276	0.965265	-3.955308	-4.702384	-0.440742	-0.685203	-0.666108	-1.243011	-0.602392	-0.905029	0.008057	0.295410	0.094635	0.009237	-0.038997	-0.071299	-0.681402	0.117086	-0.718956	-58.302969	-85.200324	-137.020602
57854		7.132376	0.531447	-4.880524	-5.226559	0.399327	-2.921030	-0.335873	-1.241747	-0.802229	-0.897705	0.001465	0.308350	0.071645	0.004946	-0.048370	-0.074571	-0.686208	0.115976	-0.714218	-63.670967	-85.948576	-131.825593
57855		8.210478	0.234741	-4.492049	-4.717132	0.573768	-1.746504	-0.020726	-1.188414	-1.062636	-0.893555	-0.012451	0.324463	0.082381	0.001906	-0.044432	-0.077737	-0.691040	0.112838	-0.709710	-69.738729	-86.778044	-125.756535
57856		11.151658	-0.659941	-3.472033	-3.462707	1.099981	1.306989	0.100675	-1.046832	-1.161409	-0.880859	-0.007324	0.328125	0.111656	-0.007230	-0.034140	-0.080892	-0.695441	0.108850	-0.705670	-77.615700	-87.587556	-117.808690
57857		11.018824	-1.134019	-3.320620	-3.058301	1.602568	1.223796	0.402142	-0.874881	-1.048415	-0.889648	-0.022461	0.336914	0.110271	-0.011852	-0.032747	-0.082706	-0.699244	0.104131	-0.702406	-89.198899	-88.245105	-105.986377
57858		10.292208	1.973517	-2.312023	-2.775847	-1.567842	0.434490	0.723310	-0.789230	-1.098354	-0.875732	-0.022217	0.349609	0.103119	0.019252	-0.022643	-0.083585	-0.702882	0.098045	-0.699541	-110.390886	-88.797370	-84.367904
