// General information: 
//  MT Manager version: 2019.2.0 
//  XDA version: 2019.2.0 build 3853 rev 94535 built on 2019-09-09
// Device information: 
//  DeviceId: 00B4778E
//  ProductCode: MTW2-3A7G6
//  Firmware Version: 4.6.0
//  Hardware Version: 2.0.0
// Device settings: 
//  Filter Profile: human(46.1)
//  Option Flags: Orientation Smoother Disabled, AHS Disabled, ICC Disabled
// Coordinate system: ENU
PacketCounter	SampleTimeFine	Acc_X	Acc_Y	Acc_Z	FreeAcc_E	FreeAcc_N	FreeAcc_U	Gyr_X	Gyr_Y	Gyr_Z	Mag_X	Mag_Y	Mag_Z	VelInc_X	VelInc_Y	VelInc_Z	Quat_q0	Quat_q1	Quat_q2	Quat_q3	Roll	Pitch	Yaw
13895		4.950864	0.748830	8.334479	0.000000	0.000000	-0.089758	0.000308	0.004994	-0.000200	-0.573975	-0.075195	-0.462158	0.049511	0.007488	0.083344	-0.075080	-0.266527	-0.019253	-0.960706	5.134037	-30.611636	169.656742
13896		4.972143	0.721946	8.335126	-0.000000	-0.000000	-0.080383	-0.000697	0.007358	0.003436	-0.575928	-0.068115	-0.464600	0.049724	0.007221	0.083349	-0.064880	-0.267146	-0.020560	-0.961250	4.951206	-30.725187	170.916245
13897		4.952568	0.706092	8.311276	-0.000830	0.027628	-0.112015	-0.002363	0.008819	-0.001636	-0.572998	-0.068359	-0.462402	0.049529	0.007061	0.083110	-0.069984	-0.266805	-0.019899	-0.961000	5.041520	-30.664786	170.286568
13898		4.942085	0.764688	8.305947	-0.002761	-0.031890	-0.117498	-0.000243	0.007720	0.002023	-0.579834	-0.080811	-0.470947	0.049424	0.007647	0.083058	-0.069974	-0.266768	-0.019897	-0.961011	5.040466	-30.660482	170.288362
13899		4.949724	0.727078	8.324096	0.003892	0.006487	-0.100894	-0.001352	0.009814	0.000598	-0.576172	-0.079590	-0.463867	0.049501	0.007271	0.083238	-0.069974	-0.266719	-0.019896	-0.961025	5.039607	-30.654655	170.288982
13900		4.957320	0.689415	8.342273	0.010578	0.044798	-0.084290	-0.002817	0.008458	-0.000223	-0.575439	-0.080566	-0.463135	0.049577	0.006895	0.083421	-0.069978	-0.266677	-0.019886	-0.961036	5.037816	-30.649817	170.289329
13901		4.961861	0.737332	8.307538	-0.017769	-0.002171	-0.108122	-0.002114	0.004458	0.002211	-0.573975	-0.068359	-0.462402	0.049620	0.007375	0.083074	-0.069970	-0.266655	-0.019874	-0.961043	5.035641	-30.647376	170.291099
13902		4.945145	0.768863	8.349090	0.013399	-0.035940	-0.078652	-0.000649	0.005815	0.003032	-0.574951	-0.070801	-0.460693	0.049454	0.007690	0.083489	-0.069955	-0.266627	-0.019869	-0.961052	5.034071	-30.644210	170.293450
13903		4.925974	0.753017	8.324995	0.018859	-0.023186	-0.110270	-0.000503	0.001182	0.001818	-0.583496	-0.076660	-0.467529	0.049260	0.007531	0.083250	-0.069947	-0.266621	-0.019865	-0.961055	5.033161	-30.643614	170.294711
13904		4.969194	0.699258	8.325907	-0.011084	0.036145	-0.091518	-0.000698	0.007359	0.003436	-0.577637	-0.068848	-0.461914	0.049695	0.006994	0.083257	-0.069931	-0.266586	-0.019859	-0.961066	5.031380	-30.639587	170.297420
13905		4.947028	0.726082	8.325785	0.003882	0.006476	-0.100894	0.002374	0.002079	-0.002005	-0.583008	-0.072754	-0.462158	0.049471	0.007259	0.083257	-0.069937	-0.266577	-0.019874	-0.961068	5.033328	-30.638269	170.296226
13906		4.913134	0.721415	8.330868	0.035756	0.006665	-0.114164	0.005904	0.000521	-0.002990	-0.576416	-0.068359	-0.467041	0.049132	0.007211	0.083309	-0.069944	-0.266576	-0.019906	-0.961067	5.037706	-30.637821	170.294273
13907		4.989025	0.694912	8.338420	-0.021342	0.044586	-0.071021	0.007467	-0.001211	-0.002978	-0.578857	-0.068604	-0.462891	0.049890	0.006945	0.083385	-0.069948	-0.266582	-0.019945	-0.961064	5.042899	-30.638172	170.292292
13908		4.972301	0.770733	8.302927	-0.034713	-0.032036	-0.104229	0.008326	0.001057	-0.005400	-0.582764	-0.068848	-0.465820	0.049724	0.007703	0.083029	-0.069963	-0.266580	-0.019993	-0.961062	5.049464	-30.637297	170.288772
13909		4.977657	0.776638	8.344541	-0.018502	-0.036164	-0.065383	0.007872	0.000695	-0.003986	-0.571533	-0.069824	-0.465332	0.049777	0.007762	0.083446	-0.069971	-0.266579	-0.020035	-0.961061	5.055159	-30.636812	170.286241
13910		4.943821	0.772300	8.349556	0.013372	-0.035975	-0.078652	0.007418	0.000334	-0.002573	-0.562500	-0.076172	-0.459717	0.049438	0.007719	0.083496	-0.069973	-0.266580	-0.020074	-0.961060	5.060269	-30.636491	170.284554
13911		4.972036	0.772956	8.302879	-0.034678	-0.032010	-0.104228	0.003433	0.001530	-0.000176	-0.578857	-0.073486	-0.462891	0.049721	0.007728	0.083029	-0.069970	-0.266575	-0.020094	-0.961061	5.062611	-30.635676	170.284342
13912		4.971652	0.773005	8.303104	-0.034678	-0.032010	-0.104228	-0.003828	0.007463	-0.002459	-0.571777	-0.070068	-0.468506	0.049720	0.007731	0.083029	-0.069986	-0.266537	-0.020081	-0.961071	5.061026	-30.631292	170.283150
13913		4.938689	0.746243	8.296615	-0.007461	-0.010493	-0.128619	-0.003170	0.008368	0.006249	-0.581299	-0.067871	-0.461426	0.049390	0.007465	0.082964	-0.069961	-0.266501	-0.020067	-0.961083	5.057781	-30.627283	170.287311
13914		4.968981	0.793137	8.315895	-0.029824	-0.053096	-0.093107	-0.006603	0.006838	0.006424	-0.575928	-0.067139	-0.460449	0.049692	0.007936	0.083157	-0.069938	-0.266467	-0.020029	-0.961095	5.051622	-30.623704	170.291973
13915		4.959293	0.717806	8.297826	-0.022291	0.019368	-0.119243	-0.008166	0.008571	0.006412	-0.582031	-0.071533	-0.459473	0.049596	0.007183	0.082976	-0.069920	-0.266429	-0.019995	-0.961107	5.046009	-30.619763	170.295970
13916		5.024576	0.748344	8.300281	-0.081284	-0.002215	-0.081581	-0.007810	0.012021	0.005808	-0.584229	-0.073486	-0.465332	0.050251	0.007488	0.082999	-0.069901	-0.266369	-0.019954	-0.961126	5.039215	-30.613195	170.300526
13917		4.953116	0.779370	8.334990	-0.007750	-0.044086	-0.085877	-0.010785	0.014213	0.010439	-0.572510	-0.077637	-0.463867	0.049537	0.007801	0.083346	-0.069866	-0.266311	-0.019902	-0.961146	5.030531	-30.607039	170.307542
13918		4.919822	0.751509	8.328768	0.019368	-0.022691	-0.110270	-0.012657	0.010952	0.010626	-0.579346	-0.075684	-0.466064	0.049202	0.007523	0.083285	-0.069831	-0.266255	-0.019831	-0.961165	5.019367	-30.601322	170.315227
13919		4.935732	0.674984	8.364761	0.032984	0.054189	-0.077069	-0.013618	0.008413	0.007987	-0.572266	-0.069824	-0.458740	0.049361	0.006758	0.083645	-0.069813	-0.266222	-0.019771	-0.961177	5.010630	-30.598074	170.319993
13920		4.974016	0.727089	8.325153	-0.027234	0.007043	-0.087623	-0.007664	0.007390	0.004595	-0.576660	-0.072510	-0.466797	0.049743	0.007275	0.083249	-0.069801	-0.266184	-0.019731	-0.961189	5.004471	-30.594086	170.323468
13921		4.928998	0.668080	8.324046	0.017007	0.058431	-0.115915	-0.003221	0.009913	0.006656	-0.576904	-0.065918	-0.461426	0.049294	0.006684	0.083238	-0.069773	-0.266147	-0.019718	-0.961202	5.001295	-30.589914	170.327854
13922		4.950019	0.641030	8.324869	0.002036	0.088097	-0.106540	0.000666	0.008445	-0.000801	-0.575684	-0.072998	-0.466797	0.049504	0.006410	0.083247	-0.069776	-0.266106	-0.019725	-0.961213	5.001696	-30.585054	170.327814
13923		4.958420	0.715615	8.343843	-0.005166	0.015738	-0.080397	0.002635	0.008619	-0.001796	-0.574219	-0.070801	-0.472412	0.049588	0.007155	0.083436	-0.069778	-0.266075	-0.019739	-0.961221	5.003146	-30.581221	170.327340
13924		4.972550	0.705492	8.314958	-0.031582	0.028298	-0.098744	0.003545	0.009342	-0.004622	-0.581543	-0.071045	-0.460693	0.049730	0.007052	0.083147	-0.069795	-0.266031	-0.019766	-0.961231	5.006456	-30.575657	170.324821
13925		4.948533	0.754098	8.326983	-0.011618	-0.022724	-0.096998	0.005058	0.009154	-0.004205	-0.578369	-0.070068	-0.463135	0.049489	0.007538	0.083268	-0.069805	-0.266001	-0.019792	-0.961238	5.009765	-30.571743	170.322942
13926		4.974033	0.664362	8.291764	-0.040859	0.070562	-0.120986	0.009242	0.005139	-0.002349	-0.578125	-0.072510	-0.459717	0.049743	0.006639	0.082917	-0.069804	-0.265979	-0.019842	-0.961243	5.015696	-30.568692	170.321687
13927		4.948723	0.734593	8.315613	-0.016038	-0.001732	-0.108119	0.008996	0.009501	-0.006195	-0.575195	-0.073730	-0.465332	0.049491	0.007341	0.083154	-0.069817	-0.265953	-0.019887	-0.961249	5.021599	-30.565142	170.318678
13928		4.966731	0.751216	8.340341	-0.021493	-0.014481	-0.076499	0.005969	0.009878	-0.007030	-0.582764	-0.071533	-0.468262	0.049672	0.007508	0.083401	-0.069842	-0.265907	-0.019928	-0.961259	5.027093	-30.559158	170.314596
13929		4.945703	0.757697	8.328337	-0.010925	-0.023109	-0.096998	0.008638	0.006051	-0.005592	-0.579590	-0.064697	-0.464355	0.049460	0.007572	0.083282	-0.069854	-0.265899	-0.019972	-0.961259	5.033016	-30.557649	170.311615
13930		4.926393	0.742865	8.304225	-0.005470	-0.010360	-0.128617	0.006263	0.003972	-0.003589	-0.569824	-0.066650	-0.463379	0.049266	0.007425	0.083042	-0.069863	-0.265882	-0.020009	-0.961263	5.037696	-30.555207	170.309469
13931		4.946343	0.737955	8.316732	-0.015376	-0.002097	-0.108118	0.004750	0.004160	-0.004006	-0.572510	-0.077881	-0.460205	0.049465	0.007377	0.083166	-0.069872	-0.265879	-0.020030	-0.961262	5.040656	-30.554606	170.307615
13932		4.957853	0.770341	8.311598	-0.032277	-0.031954	-0.104220	0.002682	0.007075	-0.002202	-0.573242	-0.068604	-0.459473	0.049582	0.007702	0.083114	-0.069878	-0.265845	-0.020048	-0.961271	5.042703	-30.550460	170.306587
13933		4.924953	0.744407	8.304941	-0.004776	-0.010517	-0.128617	0.005709	0.006700	-0.001367	-0.578857	-0.070557	-0.467285	0.049252	0.007441	0.083048	-0.069877	-0.265834	-0.020083	-0.961273	5.046978	-30.548795	170.305599
13934		4.951867	0.723060	8.347092	-0.003537	0.015044	-0.080396	0.002474	-0.001009	-0.002812	-0.569580	-0.072998	-0.458252	0.049518	0.007229	0.083471	-0.069887	-0.265840	-0.020098	-0.961271	5.049366	-30.549236	170.303683
13935		4.944835	0.739806	8.317464	-0.014624	-0.002081	-0.108116	0.007271	0.004967	-0.001353	-0.580322	-0.060791	-0.468994	0.049450	0.007395	0.083174	-0.069883	-0.265836	-0.020137	-0.961271	5.054120	-30.548457	170.302898
13936		4.963605	0.756226	8.341749	-0.020074	-0.014831	-0.076497	0.008577	-0.003305	-0.001544	-0.574707	-0.070801	-0.460449	0.049635	0.007558	0.083419	-0.069880	-0.265855	-0.020179	-0.961265	5.059650	-30.550272	170.301683
13937		4.956924	0.773239	8.311884	-0.031099	-0.032131	-0.104217	0.007469	-0.001211	-0.002971	-0.570068	-0.074463	-0.464600	0.049569	0.007729	0.083119	-0.069879	-0.265885	-0.020210	-0.961256	5.064104	-30.553483	170.300276
13938		4.953208	0.704483	8.334986	-0.007506	0.036029	-0.091514	0.005401	0.001704	-0.001167	-0.576904	-0.068359	-0.465332	0.049533	0.007042	0.083350	-0.069878	-0.265879	-0.020238	-0.961258	5.067507	-30.552461	170.299631
13939		4.944772	0.742633	8.317250	-0.013857	-0.002268	-0.108115	0.007875	0.000695	-0.003979	-0.571045	-0.077393	-0.465332	0.049448	0.007422	0.083173	-0.069887	-0.265894	-0.020283	-0.961252	5.073834	-30.553815	170.296722
13940		4.978418	0.748555	8.312269	-0.045728	-0.002461	-0.094833	0.007370	0.001878	-0.002162	-0.582764	-0.070557	-0.474854	0.049785	0.007482	0.083122	-0.069887	-0.265887	-0.020322	-0.961253	5.078699	-30.552628	170.295424
13941		4.945979	0.722961	8.305321	-0.018209	0.019025	-0.119233	0.007875	0.000695	-0.003979	-0.573242	-0.069580	-0.468994	0.049460	0.007225	0.083053	-0.069897	-0.265906	-0.020371	-0.961246	5.085622	-30.554298	170.292148
13942		4.966135	0.718207	8.317703	-0.028422	0.027481	-0.098732	0.006312	0.002428	-0.003993	-0.583496	-0.071533	-0.463867	0.049663	0.007178	0.083177	-0.069908	-0.265896	-0.020408	-0.961247	5.090496	-30.552678	170.289656
13943		5.001087	0.702813	8.300889	-0.064479	0.048361	-0.096562	0.006262	0.003972	-0.003589	-0.580078	-0.074219	-0.465820	0.050013	0.007025	0.083008	-0.069913	-0.265908	-0.020439	-0.961243	5.094887	-30.553695	170.287731
13944		4.970886	0.724752	8.359588	-0.011640	0.023235	-0.059892	0.009289	0.003598	-0.002753	-0.572266	-0.063965	-0.456543	0.049710	0.007243	0.083595	-0.069914	-0.265893	-0.020489	-0.961246	5.101006	-30.551471	170.286136
13945		4.977188	0.752622	8.312638	-0.044063	-0.002811	-0.094825	0.008736	0.002963	-0.006400	-0.576416	-0.074951	-0.461914	0.049773	0.007521	0.083126	-0.069926	-0.265917	-0.020528	-0.961237	5.106859	-30.553800	170.282833
13946		4.943046	0.748460	8.317753	-0.012199	-0.002627	-0.108113	0.007173	0.004695	-0.006415	-0.575195	-0.077148	-0.467529	0.049433	0.007480	0.083177	-0.069947	-0.265896	-0.020573	-0.961241	5.112951	-30.550787	170.278891
13947		4.954677	0.781255	8.312474	-0.028461	-0.032372	-0.104209	0.006767	0.002789	-0.005406	-0.576904	-0.069092	-0.460449	0.049548	0.007808	0.083124	-0.069967	-0.265916	-0.020621	-0.961233	5.120082	-30.552515	170.274429
13948		4.962689	0.744566	8.330367	-0.021766	0.005939	-0.087608	0.006261	0.003973	-0.003589	-0.582520	-0.072754	-0.466064	0.049629	0.007442	0.083303	-0.069975	-0.265898	-0.020657	-0.961236	5.124765	-30.550053	170.272281
13949		4.960853	0.766515	8.342447	-0.016113	-0.015469	-0.076490	0.006261	0.003973	-0.003589	-0.583252	-0.062500	-0.460205	0.049610	0.007662	0.083424	-0.069979	-0.265926	-0.020687	-0.961228	5.129116	-30.553003	170.270427
13950		4.952250	0.804465	8.324783	-0.022807	-0.053780	-0.093091	0.002374	0.002080	-0.002004	-0.574219	-0.079590	-0.459961	0.049523	0.008043	0.083247	-0.069985	-0.265917	-0.020702	-0.961229	5.131086	-30.551734	170.269225
13951		5.009230	0.761891	8.308320	-0.073438	-0.003170	-0.081518	0.004540	-0.000561	0.001255	-0.575195	-0.070801	-0.466553	0.050092	0.007617	0.083084	-0.069970	-0.265969	-0.020722	-0.961215	5.133895	-30.557823	170.269826
13952		4.994168	0.772640	8.337651	-0.046999	-0.015735	-0.063193	0.002421	0.003900	0.003460	-0.574219	-0.081543	-0.478271	0.049943	0.007726	0.083376	-0.069950	-0.265952	-0.020730	-0.961221	5.133994	-30.555846	170.272358
13953		4.974810	0.756699	8.313691	-0.041244	-0.002627	-0.094813	-0.003782	0.009282	0.002997	-0.575928	-0.073975	-0.466553	0.049752	0.007569	0.083134	-0.069947	-0.265921	-0.020729	-0.961230	5.133342	-30.552122	170.273171
13954		4.976980	0.713843	8.290340	-0.050774	0.039794	-0.117045	-0.002871	0.010005	0.000172	-0.574951	-0.066650	-0.463135	0.049774	0.007140	0.082901	-0.069949	-0.265871	-0.020719	-0.961244	5.131371	-30.546413	170.273852
13955		4.961140	0.724161	8.320167	-0.023629	0.027077	-0.098718	-0.002921	0.011550	0.000575	-0.573242	-0.065918	-0.466553	0.049616	0.007243	0.083199	-0.069945	-0.265851	-0.020703	-0.961250	5.128922	-30.544170	170.275146
13956		4.973672	0.734668	8.303401	-0.045295	0.018434	-0.105925	0.000105	0.011176	0.001412	-0.582275	-0.079834	-0.456055	0.049741	0.007347	0.083031	-0.069937	-0.265797	-0.020706	-0.961266	5.128183	-30.537852	170.276734
13957		4.957695	0.745279	8.333276	-0.017728	0.005856	-0.087600	0.000966	0.013443	-0.001009	-0.580078	-0.061279	-0.460938	0.049583	0.007452	0.083329	-0.069939	-0.265790	-0.020720	-0.961267	5.129896	-30.536790	170.276169
13958		4.968738	0.777157	8.328435	-0.034621	-0.023994	-0.083690	-0.003879	0.009009	-0.002064	-0.576416	-0.067627	-0.459961	0.049691	0.007773	0.083282	-0.069953	-0.265745	-0.020707	-0.961279	5.128128	-30.531576	170.275312
13959		4.969455	0.755672	8.316987	-0.038249	-0.003574	-0.094801	-0.001815	0.009457	0.002003	-0.579346	-0.063232	-0.464111	0.049698	0.007558	0.083167	-0.069927	-0.265759	-0.020665	-0.961278	5.122040	-30.533748	170.279888
13960		4.955028	0.744605	8.334923	-0.016568	0.005060	-0.087598	-0.003935	0.013919	0.004208	-0.580322	-0.077393	-0.465088	0.049556	0.007449	0.083346	-0.069910	-0.265692	-0.020645	-0.961298	5.117889	-30.526120	170.283557
13961		4.989329	0.728175	8.318649	-0.052079	0.025852	-0.085397	-0.003422	0.009370	-0.003476	-0.573730	-0.072021	-0.462646	0.049897	0.007282	0.083184	-0.069925	-0.265701	-0.020630	-0.961295	5.116560	-30.527333	170.282170
13962		4.965304	0.776088	8.330582	-0.032329	-0.025036	-0.083685	-0.001309	0.008274	0.000187	-0.582031	-0.067383	-0.463135	0.049656	0.007761	0.083304	-0.069924	-0.265662	-0.020625	-0.961306	5.115420	-30.522755	170.282855
13963		4.987843	0.727983	8.319557	-0.050983	0.025585	-0.085390	0.000154	0.009632	0.001010	-0.576660	-0.077148	-0.460938	0.049882	0.007280	0.083193	-0.069911	-0.265670	-0.020620	-0.961305	5.114403	-30.523843	170.284566
13964		4.966659	0.733466	8.307704	-0.040768	0.017112	-0.105903	-0.000954	0.011726	-0.000418	-0.574219	-0.072266	-0.463379	0.049671	0.007335	0.083074	-0.069913	-0.265615	-0.020619	-0.961320	5.113544	-30.517302	170.285074
13965		4.983125	0.770275	8.344474	-0.040411	-0.016530	-0.063164	-0.000759	0.008910	0.003835	-0.575928	-0.066162	-0.466064	0.049835	0.007704	0.083442	-0.069899	-0.265621	-0.020633	-0.961319	5.114937	-30.517923	170.286237
13966		4.976859	0.765158	8.303404	-0.056635	-0.012432	-0.101985	0.001971	0.014442	0.001228	-0.581787	-0.068848	-0.456543	0.049775	0.007651	0.083031	-0.069889	-0.265554	-0.020646	-0.961338	5.115177	-30.509937	170.287950
13967		4.975871	0.765206	8.303991	-0.055265	-0.013011	-0.101978	-0.001909	0.009184	-0.003058	-0.576904	-0.069092	-0.453857	0.049763	0.007652	0.083038	-0.069892	-0.265579	-0.020621	-0.961331	5.112454	-30.513156	170.288112
13968		4.965279	0.780666	8.375446	-0.012519	-0.029710	-0.044858	-0.001918	0.012549	0.002810	-0.569824	-0.069824	-0.465820	0.049658	0.007808	0.083751	-0.069879	-0.265520	-0.020611	-0.961349	5.109934	-30.506402	170.290810
13969		4.960422	0.754080	8.322522	-0.032619	-0.004558	-0.094781	-0.002974	0.013098	0.000978	-0.577148	-0.066406	-0.457275	0.049610	0.007542	0.083222	-0.069873	-0.265504	-0.020595	-0.961354	5.107422	-30.504610	170.292412
13970		4.972835	0.764285	8.305894	-0.054242	-0.013228	-0.101972	-0.004396	0.013560	0.005619	-0.579346	-0.076904	-0.469971	0.049734	0.007646	0.083055	-0.069849	-0.265440	-0.020570	-0.961374	5.102490	-30.497458	170.297045
13971		4.970202	0.784943	8.318559	-0.048203	-0.034400	-0.090858	-0.004995	0.014470	0.002375	-0.581787	-0.072266	-0.469971	0.049708	0.007852	0.083182	-0.069841	-0.265431	-0.020555	-0.961377	5.100123	-30.496661	170.298744
13972		4.971998	0.741638	8.295489	-0.057703	0.007995	-0.113072	-0.009443	0.015307	0.006176	-0.583740	-0.070068	-0.469238	0.049726	0.007422	0.082951	-0.069821	-0.265358	-0.020506	-0.961400	5.092073	-30.488579	170.303840
13973		4.992367	0.713886	8.296899	-0.071349	0.037554	-0.103650	-0.006113	0.019930	0.006815	-0.586670	-0.069824	-0.462646	0.049932	0.007143	0.082964	-0.069790	-0.265326	-0.020474	-0.961412	5.086483	-30.485278	170.309354
13974		4.974227	0.744745	8.339134	-0.040065	0.003752	-0.074252	-0.009139	0.020306	0.005975	-0.578613	-0.073486	-0.465332	0.049751	0.007453	0.083386	-0.069770	-0.265229	-0.020429	-0.961441	5.078516	-30.474344	170.314618
13975		4.986020	0.754125	8.322977	-0.059854	-0.004934	-0.081426	-0.012127	0.022501	0.010599	-0.576660	-0.076660	-0.463379	0.049869	0.007549	0.083224	-0.069728	-0.265211	-0.020370	-0.961450	5.069241	-30.473098	170.322325
13976		4.977363	0.769016	8.294521	-0.071285	-0.022059	-0.109129	-0.009293	0.024944	0.007188	-0.576172	-0.069824	-0.459717	0.049784	0.007696	0.082939	-0.069702	-0.265092	-0.020323	-0.961486	5.060659	-30.459666	170.328652
13977		4.973909	0.788823	8.307765	-0.065071	-0.042865	-0.098013	-0.016210	0.023428	0.007925	-0.577148	-0.065430	-0.465576	0.049749	0.007897	0.083071	-0.069687	-0.265045	-0.020269	-0.961501	5.052443	-30.454681	170.333132
13978		4.978663	0.770820	8.338835	-0.053483	-0.025788	-0.070311	-0.015258	0.025971	0.010567	-0.572266	-0.074951	-0.469971	0.049797	0.007717	0.083381	-0.069653	-0.264920	-0.020190	-0.961540	5.039342	-30.440886	170.341704
13979		4.998272	0.741985	8.340799	-0.067841	0.003907	-0.060889	-0.018249	0.028168	0.015190	-0.575195	-0.074463	-0.472900	0.049994	0.007431	0.083400	-0.069601	-0.264808	-0.020095	-0.961576	5.023839	-30.428933	170.352922
13980		4.906657	0.756198	8.351537	0.010867	-0.025392	-0.097003	-0.017707	0.028804	0.018840	-0.569092	-0.072510	-0.468262	0.049078	0.007574	0.083508	-0.069530	-0.264669	-0.019995	-0.961622	5.006476	-30.413890	170.367132
13981		4.885585	0.738120	8.328721	0.016282	-0.011920	-0.128631	-0.017760	0.030352	0.019245	-0.582031	-0.072754	-0.458740	0.048868	0.007393	0.083279	-0.069471	-0.264517	-0.019930	-0.961669	4.993888	-30.396894	170.378852
13982		4.937638	0.735357	8.337732	-0.025669	-0.003668	-0.094760	-0.015943	0.020890	0.017237	-0.576416	-0.074219	-0.466553	0.049384	0.007364	0.083372	-0.069406	-0.264416	-0.019837	-0.961703	4.978371	-30.386174	170.391481
13983		4.965956	0.669201	8.357096	-0.031914	0.064897	-0.068747	-0.011032	0.020415	0.012030	-0.579590	-0.072021	-0.460938	0.049668	0.006700	0.083566	-0.069369	-0.264412	-0.019812	-0.961708	4.973739	-30.386113	170.397215
13984		4.937378	0.689645	8.316028	-0.033190	0.039338	-0.116967	-0.010114	0.021140	0.009208	-0.574707	-0.073486	-0.467773	0.049382	0.006903	0.083155	-0.069336	-0.264311	-0.019758	-0.961739	4.964327	-30.374951	170.404479
13985		4.922139	0.677662	8.334377	-0.010033	0.048449	-0.109798	-0.009062	0.020590	0.011041	-0.568848	-0.067871	-0.462891	0.049230	0.006783	0.083338	-0.069299	-0.264282	-0.019736	-0.961750	4.959733	-30.371959	170.410277
13986		4.920492	0.676485	8.335445	-0.009945	0.048456	-0.109798	-0.009144	0.020320	0.005980	-0.576416	-0.076172	-0.465576	0.049213	0.006770	0.083349	-0.069281	-0.264186	-0.019691	-0.961779	4.952049	-30.361159	170.415302
13987		4.949596	0.723242	8.355666	-0.031406	0.006255	-0.074222	-0.004741	0.021028	0.002592	-0.570557	-0.069092	-0.464844	0.049505	0.007235	0.083551	-0.069279	-0.264122	-0.019695	-0.961796	4.951543	-30.353540	170.416221
13988		4.958550	0.775707	8.363375	-0.043418	-0.044791	-0.059171	-0.006070	0.018397	0.006420	-0.574951	-0.071289	-0.469971	0.049593	0.007761	0.083629	-0.069254	-0.264036	-0.019665	-0.961822	4.945588	-30.343866	170.421378
13989		4.949471	0.679241	8.333724	-0.040479	0.048783	-0.096435	-0.008635	0.019139	0.004164	-0.575928	-0.070313	-0.466309	0.049503	0.006797	0.083332	-0.069245	-0.263962	-0.019631	-0.961844	4.939836	-30.335421	170.424646
13990		4.951938	0.747924	8.311650	-0.064019	-0.019366	-0.109073	-0.006100	0.016582	0.000953	-0.574219	-0.069336	-0.469971	0.049526	0.007482	0.083112	-0.069247	-0.263884	-0.019607	-0.961866	4.935754	-30.326478	170.426072
13991		4.923227	0.725846	8.347082	-0.019909	-0.002111	-0.094746	-0.007176	0.020496	0.004992	-0.583740	-0.066406	-0.457764	0.049241	0.007263	0.083466	-0.069230	-0.263821	-0.019574	-0.961885	4.929981	-30.319427	170.430178
13992		4.935245	0.735702	8.330858	-0.041505	-0.010741	-0.101906	-0.006074	0.018399	0.006420	-0.566406	-0.073486	-0.459229	0.049360	0.007361	0.083304	-0.069206	-0.263735	-0.019543	-0.961911	4.924040	-30.309707	170.435320
13993		4.912626	0.628678	8.318353	-0.015084	0.091357	-0.132008	-0.006613	0.017768	0.002770	-0.574219	-0.075195	-0.460205	0.049134	0.006290	0.083179	-0.069200	-0.263759	-0.019520	-0.961905	4.921215	-30.312838	170.436601
13994		4.929812	0.643983	8.343735	-0.020331	0.078626	-0.100371	-0.000233	0.018647	-0.001603	-0.571045	-0.068848	-0.463867	0.049306	0.006440	0.083433	-0.069207	-0.263675	-0.019529	-0.961928	4.921324	-30.302735	170.436429
13995		4.930883	0.734729	8.333527	-0.037820	-0.010312	-0.101891	-0.000080	0.014009	-0.002820	-0.578369	-0.069580	-0.461426	0.049315	0.007347	0.083332	-0.069228	-0.263673	-0.019563	-0.961926	4.926349	-30.302076	170.432586
13996		4.917648	0.703014	8.339432	-0.020810	0.019568	-0.105844	0.000433	0.012825	-0.004637	-0.572754	-0.073486	-0.464111	0.049182	0.007029	0.083391	-0.069249	-0.263617	-0.019577	-0.961939	4.928092	-30.295208	170.430020
13997		4.909988	0.719622	8.310315	-0.030577	0.002685	-0.133522	0.002996	0.012084	-0.002379	-0.579102	-0.070557	-0.463867	0.049105	0.007194	0.083100	-0.069262	-0.263648	-0.019615	-0.961929	4.933829	-30.298398	170.426737
13998		4.939825	0.767338	8.330084	-0.052673	-0.039883	-0.097925	-0.002949	0.009750	-0.004885	-0.583252	-0.064697	-0.460938	0.049402	0.007673	0.083298	-0.069289	-0.263606	-0.019612	-0.961939	4.933862	-30.293367	170.423789
13999		4.948512	0.708663	8.336420	-0.047944	0.018769	-0.092439	0.002021	0.012906	0.000848	-0.574951	-0.076172	-0.462402	0.049490	0.007086	0.083361	-0.069270	-0.263687	-0.019591	-0.961918	4.931643	-30.303221	170.425995
14000		4.936865	0.655549	8.330331	-0.035687	0.069851	-0.107501	-0.001004	0.013286	0.000001	-0.572510	-0.073975	-0.465576	0.049374	0.006556	0.083300	-0.069271	-0.263631	-0.019592	-0.961934	4.931019	-30.296599	170.426521
14001		4.876956	0.719654	8.359205	0.022009	-0.000880	-0.108130	0.000352	0.017736	0.001642	-0.578613	-0.066162	-0.469727	0.048777	0.007197	0.083588	-0.069280	-0.263609	-0.019660	-0.961938	4.939659	-30.293270	170.423234
14002		4.895856	0.714094	8.372475	0.012056	0.007621	-0.087593	0.000969	0.013459	-0.000986	-0.579834	-0.069336	-0.471924	0.048964	0.007140	0.083721	-0.069284	-0.263553	-0.019673	-0.961952	4.940629	-30.286541	170.423005
14003		4.923622	0.714342	8.326680	-0.035166	0.010705	-0.112967	0.001610	0.010998	0.001854	-0.576172	-0.069092	-0.465332	0.049241	0.007143	0.083264	-0.069261	-0.263551	-0.019644	-0.961955	4.936045	-30.286737	170.427022
14004		4.915684	0.687522	8.374115	-0.001739	0.036486	-0.078156	0.002585	0.010177	-0.001373	-0.569580	-0.066406	-0.459229	0.049161	0.006874	0.083739	-0.069264	-0.263512	-0.019663	-0.961965	4.938097	-30.281877	170.426404
14005		4.930126	0.677192	8.345349	-0.026936	0.048386	-0.096386	0.000715	0.006911	-0.001198	-0.574463	-0.067871	-0.470703	0.049304	0.006771	0.083452	-0.069258	-0.263546	-0.019642	-0.961957	4.935689	-30.286117	170.427412
14006		4.949536	0.671942	8.358308	-0.036870	0.056866	-0.075843	0.006018	0.011706	-0.001529	-0.570801	-0.074707	-0.466553	0.049500	0.006717	0.083580	-0.069257	-0.263501	-0.019679	-0.961969	4.939680	-30.280452	170.426811
14007		4.964832	0.773804	8.330503	-0.077229	-0.040898	-0.084482	0.002153	0.006451	-0.005835	-0.576172	-0.070557	-0.463379	0.049651	0.007736	0.083304	-0.069286	-0.263477	-0.019712	-0.961972	4.944599	-30.277198	170.422270
14008		4.923013	0.742019	8.382628	-0.011975	-0.014933	-0.063085	0.000916	0.015007	-0.000581	-0.572021	-0.073486	-0.469727	0.049236	0.007420	0.083823	-0.069287	-0.263414	-0.019724	-0.961989	4.945289	-30.269649	170.422456
14009		4.926394	0.678347	8.347459	-0.025445	0.049089	-0.096385	-0.001058	0.014835	0.000405	-0.567871	-0.071777	-0.466064	0.049270	0.006784	0.083471	-0.069293	-0.263388	-0.019746	-0.961995	4.947934	-30.266291	170.421240
14010		4.940279	0.667853	8.319058	-0.051751	0.061687	-0.114614	0.002375	0.016365	0.000250	-0.570313	-0.070313	-0.463135	0.049410	0.006678	0.083187	-0.069288	-0.263319	-0.019765	-0.962014	4.949198	-30.258025	170.422009
14011		4.934277	0.731550	8.355764	-0.036998	-0.001672	-0.081311	-0.001112	0.016382	0.000811	-0.571777	-0.065674	-0.467041	0.049350	0.007316	0.083554	-0.069290	-0.263256	-0.019779	-0.962031	4.950002	-30.250407	170.422122
14012		4.932915	0.731258	8.356594	-0.036811	-0.001629	-0.081311	-0.004598	0.016400	0.001371	-0.576416	-0.076660	-0.463379	0.049336	0.007315	0.083562	-0.069289	-0.263185	-0.019763	-0.962051	4.946935	-30.242158	170.423601
14013		4.909892	0.757692	8.356813	-0.020547	-0.031187	-0.090750	-0.003034	0.014664	0.001391	-0.583984	-0.084229	-0.458984	0.049105	0.007579	0.083564	-0.069290	-0.263180	-0.019761	-0.962052	4.946599	-30.241573	170.423642
14014		4.922305	0.767941	8.340393	-0.042043	-0.039786	-0.097873	-0.004012	0.015486	0.004617	-0.578613	-0.079346	-0.474121	0.049229	0.007682	0.083400	-0.069273	-0.263114	-0.019743	-0.962072	4.942851	-30.234058	170.427185
14015		4.930652	0.708645	8.346998	-0.037157	0.022630	-0.092400	-0.005061	0.016039	0.002781	-0.569824	-0.067139	-0.467041	0.049313	0.007089	0.083466	-0.069324	-0.263171	-0.019870	-0.962050	4.961665	-30.239323	170.415594
14016		4.963226	0.713172	8.343159	-0.068739	0.022537	-0.078968	-0.002964	0.014935	0.006452	-0.579102	-0.071045	-0.458496	0.049638	0.007135	0.083428	-0.069298	-0.263110	-0.019857	-0.962069	4.958225	-30.232339	170.420076
14017		4.955379	0.728839	8.314271	-0.078399	0.004849	-0.106611	-0.006626	0.017777	0.002761	-0.576172	-0.067871	-0.468750	0.049561	0.007292	0.083138	-0.069289	-0.263121	-0.019804	-0.962068	4.951289	-30.234198	170.422877
14018		4.943275	0.674992	8.308492	-0.066083	0.055984	-0.121706	-0.005684	0.020319	0.005409	-0.577637	-0.072754	-0.470703	0.049441	0.006754	0.083080	-0.069271	-0.263033	-0.019781	-0.962093	4.946466	-30.224198	170.426995
14019		4.931920	0.732859	8.303808	-0.067010	-0.003792	-0.127150	-0.006717	0.022689	0.009040	-0.578857	-0.067627	-0.461670	0.049328	0.007334	0.083032	-0.069233	-0.262976	-0.019735	-0.962113	4.938410	-30.218029	170.434144
14020		4.935902	0.848191	8.347769	-0.064401	-0.118380	-0.078744	-0.014723	0.025095	0.013788	-0.577881	-0.071533	-0.468262	0.049369	0.008491	0.083471	-0.069186	-0.262863	-0.019659	-0.962149	4.925483	-30.205733	170.444071
14021		4.905612	0.713077	8.382436	-0.004442	0.009031	-0.074174	-0.013213	0.024906	0.014214	-0.573242	-0.072510	-0.467041	0.049066	0.007140	0.083818	-0.069135	-0.262868	-0.019569	-0.962153	4.912268	-30.207426	170.453737
14022		4.872835	0.663755	8.364414	0.017995	0.051695	-0.109826	-0.013267	0.026455	0.014621	-0.574463	-0.062744	-0.460449	0.048739	0.006647	0.083637	-0.069081	-0.262750	-0.019499	-0.962190	4.899858	-30.194528	170.464295
14023		4.956179	0.576042	8.380044	-0.035063	0.148374	-0.060897	-0.009159	0.022159	0.011436	-0.570557	-0.075684	-0.466309	0.049571	0.005767	0.083795	-0.069030	-0.262733	-0.019412	-0.962200	4.886788	-30.193607	170.474046
14024		4.914912	0.698008	8.357171	-0.028633	0.020937	-0.092367	-0.004320	0.026592	0.012526	-0.571045	-0.072998	-0.469727	0.049160	0.006985	0.083565	-0.068975	-0.262619	-0.019388	-0.962236	4.880159	-30.180621	170.483260
14025		4.909904	0.739629	8.382315	-0.018610	-0.020010	-0.070169	-0.004175	0.020135	0.005839	-0.571289	-0.070801	-0.465332	0.049107	0.007399	0.083818	-0.068972	-0.262535	-0.019441	-0.962258	4.885655	-30.170204	170.482737
14026		4.933983	0.781232	8.361140	-0.056915	-0.058418	-0.073256	-0.009215	0.023710	0.011842	-0.575928	-0.062256	-0.474365	0.049349	0.007819	0.083605	-0.068928	-0.262432	-0.019394	-0.962290	4.876665	-30.158793	170.491226
14027		4.913409	0.764064	8.337883	-0.051190	-0.046750	-0.104914	-0.013275	0.026463	0.014619	-0.570313	-0.070068	-0.464844	0.049145	0.007650	0.083372	-0.068856	-0.262328	-0.019269	-0.962326	4.856691	-30.148056	170.505944
14028		4.909785	0.783289	8.351269	-0.046095	-0.067882	-0.093814	-0.015718	0.025931	0.017011	-0.566895	-0.069336	-0.471436	0.049108	0.007844	0.083506	-0.068795	-0.262213	-0.019184	-0.962364	4.842122	-30.135615	170.518030
14029		4.903009	0.776177	8.310888	-0.062582	-0.063478	-0.132560	-0.016597	0.023660	0.019423	-0.573242	-0.066650	-0.473145	0.049039	0.007773	0.083102	-0.068724	-0.262091	-0.019102	-0.962404	4.827547	-30.122364	170.531208
14030		4.905072	0.666929	8.352686	-0.031842	0.043079	-0.103463	-0.017020	0.019936	0.014957	-0.573242	-0.068848	-0.465576	0.049059	0.006680	0.083521	-0.068675	-0.262003	-0.019012	-0.962433	4.813108	-30.113191	170.541576
14031		4.905107	0.643794	8.341737	-0.035857	0.063866	-0.114556	-0.013014	0.018731	0.012587	-0.577393	-0.068848	-0.461426	0.049058	0.006446	0.083412	-0.068624	-0.261951	-0.018921	-0.962452	4.799021	-30.108202	170.551834
14032		4.912837	0.716528	8.361529	-0.042831	-0.008321	-0.088354	-0.009888	0.015253	0.012629	-0.580078	-0.073730	-0.465820	0.049134	0.007173	0.083611	-0.068577	-0.261889	-0.018866	-0.962474	4.789544	-30.101597	170.560426
14033		4.826752	0.801359	8.347747	0.015696	-0.105266	-0.137293	-0.013224	0.008817	0.006492	-0.572021	-0.064209	-0.473877	0.048271	0.008021	0.083475	-0.068585	-0.262028	-0.018832	-0.962436	4.787436	-30.118295	170.558985
14034		4.865312	0.676589	8.372251	0.009884	0.022321	-0.105833	-0.013526	0.005626	0.012148	-0.577881	-0.068604	-0.465332	0.048655	0.006775	0.083721	-0.068546	-0.262012	-0.018757	-0.962444	4.776386	-30.117367	170.566663
14035		4.921776	0.765083	8.369824	-0.049753	-0.059544	-0.073224	-0.010925	0.001517	0.008536	-0.565674	-0.067139	-0.468018	0.049218	0.007657	0.083697	-0.068510	-0.262059	-0.018658	-0.962436	4.763131	-30.124045	170.574181
14036		4.914321	0.668225	8.338964	-0.047033	0.033992	-0.110521	-0.011286	-0.001941	0.009130	-0.574219	-0.073486	-0.467529	0.049142	0.006689	0.083390	-0.068483	-0.262081	-0.018595	-0.962433	4.754516	-30.127327	170.579500
14037		4.954766	0.655585	8.364172	-0.066698	0.051772	-0.069395	-0.009309	-0.001770	0.008149	-0.572266	-0.071533	-0.464600	0.049547	0.006562	0.083642	-0.068471	-0.262108	-0.018582	-0.962427	4.752822	-30.130714	170.581235
14038		4.911452	0.708456	8.363031	-0.036588	-0.007492	-0.088328	-0.004526	0.002392	0.004186	-0.567383	-0.068115	-0.466064	0.049115	0.007087	0.083630	-0.068459	-0.262110	-0.018561	-0.962428	4.749661	-30.131269	170.583475
14039		4.917678	0.691489	8.392882	-0.023869	0.010316	-0.060687	-0.003482	0.001836	0.006022	-0.573486	-0.068359	-0.468506	0.049177	0.006918	0.083928	-0.068450	-0.262152	-0.018573	-0.962417	4.751554	-30.136146	170.583702
14040		4.894145	0.670560	8.326653	-0.034775	0.027230	-0.131081	-0.002490	0.002828	0.008267	-0.572021	-0.074951	-0.458740	0.048942	0.006709	0.083266	-0.068416	-0.262154	-0.018556	-0.962419	4.748254	-30.136672	170.588613
14041		4.880345	0.659289	8.343831	-0.010765	0.037049	-0.124010	-0.004422	-0.000703	0.003370	-0.568115	-0.064453	-0.471191	0.048803	0.006596	0.083438	-0.068437	-0.262267	-0.018593	-0.962386	4.755238	-30.149604	170.583395
14042		4.888464	0.621533	8.361424	-0.003613	0.075470	-0.107478	0.000624	-0.004280	-0.002632	-0.580322	-0.065918	-0.465820	0.048883	0.006214	0.083615	-0.068452	-0.262304	-0.018603	-0.962375	4.757644	-30.153771	170.580633
14043		4.921197	0.648148	8.368677	-0.029506	0.052949	-0.082869	0.005676	-0.006043	-0.003164	-0.583252	-0.072510	-0.463379	0.049210	0.006478	0.083688	-0.068445	-0.262391	-0.018579	-0.962352	4.755501	-30.164343	170.581399
14044		4.928242	0.632435	8.397947	-0.017515	0.070152	-0.055237	0.005833	-0.010686	-0.004387	-0.565186	-0.069580	-0.467285	0.049278	0.006321	0.083982	-0.068462	-0.262461	-0.018614	-0.962331	4.761573	-30.172119	170.577190
14045		4.925715	0.607327	8.343689	-0.036783	0.096302	-0.105060	0.008690	-0.008242	-0.007778	-0.579346	-0.065430	-0.469482	0.049254	0.006068	0.083439	-0.068513	-0.262602	-0.018710	-0.962287	4.777486	-30.187597	170.565836
14046		4.944964	0.623970	8.367830	-0.041653	0.083671	-0.073394	0.007698	-0.009233	-0.010023	-0.575684	-0.065674	-0.463867	0.049446	0.006234	0.083681	-0.068555	-0.262665	-0.018762	-0.962266	4.786547	-30.194355	170.557913
14047		4.917546	0.668435	8.337046	-0.036230	0.035529	-0.110480	0.011659	-0.007079	-0.006515	-0.568359	-0.067627	-0.468018	0.049173	0.006678	0.083373	-0.068561	-0.262817	-0.018762	-0.962224	4.788862	-30.212270	170.555500
14048		4.938410	0.664108	8.349109	-0.045911	0.044085	-0.089905	0.009779	-0.012158	-0.011818	-0.567627	-0.066406	-0.466309	0.049379	0.006634	0.083494	-0.068608	-0.262896	-0.018825	-0.962198	4.799726	-30.220718	170.546288
14049		4.917499	0.692272	8.347955	-0.031427	0.013997	-0.099387	0.011193	-0.007440	-0.005107	-0.572266	-0.065186	-0.469482	0.049172	0.006917	0.083482	-0.068609	-0.262916	-0.018863	-0.962191	4.804780	-30.222729	170.544681
14050		4.965627	0.709236	8.325902	-0.084552	0.005268	-0.092917	0.010613	-0.006522	-0.008352	-0.576660	-0.065186	-0.466553	0.049654	0.007086	0.083261	-0.068639	-0.262968	-0.018927	-0.962174	4.814781	-30.228066	170.538095
14051		4.943466	0.693995	8.401490	-0.023704	0.017014	-0.040089	0.009568	-0.005967	-0.010189	-0.574707	-0.067627	-0.461670	0.049433	0.006933	0.084017	-0.068653	-0.263049	-0.018917	-0.962151	4.815100	-30.237673	170.535639
14052		4.928420	0.637506	8.352515	-0.027801	0.072235	-0.093929	0.013055	-0.005988	-0.010743	-0.578125	-0.063965	-0.467529	0.049282	0.006367	0.083527	-0.068691	-0.263099	-0.018996	-0.962133	4.827191	-30.242615	170.527578
14053		4.928811	0.639394	8.352140	-0.025491	0.070856	-0.093913	0.017474	-0.005283	-0.014115	-0.571045	-0.066406	-0.467529	0.049286	0.006383	0.083523	-0.068720	-0.263249	-0.019035	-0.962089	4.835292	-30.259831	170.520787
14054		4.929205	0.641775	8.351725	-0.025111	0.070912	-0.093912	0.021479	-0.006487	-0.016485	-0.570801	-0.067383	-0.469238	0.049290	0.006405	0.083520	-0.068773	-0.263305	-0.019161	-0.962067	4.854072	-30.264891	170.508959
14055		4.903392	0.734681	8.386561	0.004045	-0.023183	-0.070159	0.016585	-0.009369	-0.017171	-0.566162	-0.070068	-0.466309	0.049031	0.007336	0.083869	-0.068820	-0.263344	-0.019221	-0.962052	4.863869	-30.268720	170.500410
14056		4.939544	0.720855	8.369407	-0.032186	-0.002101	-0.067706	0.021697	-0.010859	-0.012643	-0.576416	-0.068604	-0.465820	0.049391	0.007196	0.083698	-0.068855	-0.263421	-0.019341	-0.962026	4.881566	-30.276410	170.490916
14057		4.955716	0.712530	8.339568	-0.058215	0.010440	-0.085832	0.014247	-0.012997	-0.015592	-0.571777	-0.064453	-0.464600	0.049552	0.007115	0.083399	-0.068914	-0.263513	-0.019426	-0.961995	4.895703	-30.286176	170.479379
14058		4.948440	0.751958	8.321216	-0.064685	-0.027819	-0.102374	0.016073	-0.006365	-0.009887	-0.580078	-0.074707	-0.463623	0.049482	0.007510	0.083214	-0.068943	-0.263567	-0.019517	-0.961976	4.909141	-30.291426	170.471950
14059		4.955247	0.737198	8.350596	-0.050784	-0.011002	-0.074736	0.009511	-0.004416	-0.009781	-0.573730	-0.069336	-0.464844	0.049551	0.007366	0.083507	-0.068978	-0.263702	-0.019567	-0.961936	4.918585	-30.306720	170.464187
14060		4.947952	0.642769	8.319662	-0.048047	0.082520	-0.112015	0.008422	-0.000498	-0.005744	-0.577881	-0.075928	-0.465576	0.049479	0.006423	0.083197	-0.068996	-0.263725	-0.019618	-0.961927	4.926098	-30.308915	170.459826
14061		4.946339	0.665189	8.331567	-0.041322	0.062080	-0.100932	0.011327	0.000398	-0.009545	-0.574463	-0.065674	-0.463379	0.049464	0.006645	0.083316	-0.069045	-0.263818	-0.019728	-0.961896	4.943143	-30.318469	170.448707
14062		4.956808	0.719732	8.338301	-0.052960	0.011082	-0.085802	0.011327	0.000399	-0.009545	-0.576172	-0.070313	-0.464844	0.049569	0.007190	0.083383	-0.069077	-0.263838	-0.019799	-0.961887	4.953639	-30.320023	170.441825
14063		4.953574	0.763488	8.362174	-0.041418	-0.032369	-0.063636	0.009351	0.000227	-0.008563	-0.568115	-0.067627	-0.466797	0.049536	0.007629	0.083622	-0.069093	-0.263935	-0.019809	-0.961859	4.956948	-30.331289	170.438293
14064		4.934896	0.748626	8.337602	-0.035830	-0.019574	-0.095302	0.003433	0.001529	-0.000149	-0.581787	-0.073975	-0.470215	0.049350	0.007485	0.083376	-0.069091	-0.263949	-0.019830	-0.961855	4.959705	-30.332739	170.437730
14065		4.962893	0.705793	8.368059	-0.038489	0.027228	-0.058169	0.002387	0.002082	-0.001986	-0.575195	-0.069336	-0.460938	0.049630	0.007056	0.083680	-0.069097	-0.263965	-0.019848	-0.961849	4.962467	-30.334370	170.436093
14066		4.942401	0.711663	8.355641	-0.028058	0.018815	-0.078758	0.003273	0.006172	0.001068	-0.582764	-0.065186	-0.467529	0.049427	0.007116	0.083555	-0.069089	-0.263956	-0.019868	-0.961852	4.964598	-30.333216	170.436595
14067		4.935451	0.728299	8.326163	-0.037100	0.000192	-0.106364	0.003210	0.005902	-0.003993	-0.582031	-0.071289	-0.465088	0.049357	0.007281	0.083260	-0.069082	-0.264067	-0.019824	-0.961823	4.960283	-30.346770	170.437698
14068		4.924434	0.675629	8.319621	-0.024648	0.051285	-0.121486	0.005302	0.004797	-0.000320	-0.578125	-0.067139	-0.464111	0.049246	0.006754	0.083195	-0.069077	-0.264067	-0.019854	-0.961823	4.964010	-30.346455	170.437266
14069		4.970782	0.648594	8.374769	-0.030103	0.084458	-0.052664	0.004309	0.003802	-0.002562	-0.573975	-0.070068	-0.470215	0.049709	0.006483	0.083747	-0.069073	-0.264195	-0.019847	-0.961788	4.964790	-30.361681	170.436584
14070		4.968051	0.735325	8.322192	-0.065123	-0.000758	-0.092766	0.013142	0.005215	-0.009308	-0.571289	-0.067383	-0.466553	0.049683	0.007345	0.083221	-0.069101	-0.264195	-0.019927	-0.961784	4.975979	-30.360807	170.430253
14071		4.947322	0.742017	8.309837	-0.055388	-0.009868	-0.113367	0.007170	0.008065	-0.000491	-0.579834	-0.068604	-0.463135	0.049477	0.007417	0.083097	-0.069083	-0.264147	-0.019931	-0.961799	4.975258	-30.355168	170.432920
14072		4.954726	0.705157	8.327946	-0.048085	0.028460	-0.096818	0.005185	0.006074	-0.004976	-0.575928	-0.073975	-0.466064	0.049550	0.007048	0.083278	-0.069100	-0.264141	-0.019968	-0.961798	4.980369	-30.353969	170.429539
14073		4.930720	0.753854	8.339602	-0.026030	-0.022435	-0.095276	0.006070	0.010166	-0.001922	-0.577148	-0.063721	-0.466797	0.049312	0.007536	0.083394	-0.069101	-0.264210	-0.020010	-0.961778	4.986788	-30.361748	170.427192
14074		4.951771	0.727504	8.340619	-0.040439	0.007259	-0.085739	0.002745	0.005540	-0.002584	-0.576172	-0.068848	-0.464844	0.049520	0.007273	0.083405	-0.069110	-0.264206	-0.020031	-0.961778	4.989741	-30.361059	170.425346
14075		4.927971	0.775866	8.352171	-0.019277	-0.045459	-0.084215	0.001234	0.005730	-0.003012	-0.570801	-0.073242	-0.461670	0.049282	0.007757	0.083520	-0.069096	-0.264257	-0.019956	-0.961767	4.980471	-30.367871	170.429044
14076		4.942810	0.765458	8.323331	-0.045414	-0.032868	-0.102280	0.000304	0.005006	-0.000193	-0.577881	-0.066650	-0.452881	0.049430	0.007654	0.083232	-0.069097	-0.264256	-0.019961	-0.961767	4.981142	-30.367661	170.428833
14077		4.964043	0.738601	8.324293	-0.056791	-0.003512	-0.092714	-0.001261	0.006743	-0.000216	-0.577637	-0.067383	-0.468994	0.049643	0.007386	0.083241	-0.069097	-0.264398	-0.019953	-0.961728	4.982161	-30.384511	170.427380
14078		4.943428	0.744063	8.311971	-0.046315	-0.011958	-0.113322	-0.001672	0.004834	0.000788	-0.577637	-0.076172	-0.463135	0.049436	0.007442	0.083118	-0.069095	-0.264398	-0.019948	-0.961728	4.981391	-30.384605	170.427802
14079		4.947692	0.748904	8.354034	-0.027976	-0.015852	-0.074651	0.001187	0.009098	0.002860	-0.577393	-0.072998	-0.468506	0.049481	0.007489	0.083538	-0.069080	-0.264440	-0.019971	-0.961718	4.984429	-30.389384	170.428490
14080		4.945309	0.701135	8.288880	-0.053838	0.030717	-0.135427	-0.005786	0.009133	0.003966	-0.575439	-0.067627	-0.465088	0.049457	0.007015	0.082886	-0.069068	-0.264419	-0.019943	-0.961725	4.980143	-30.387231	170.431241
14081		4.923404	0.663011	8.353488	0.002521	0.064824	-0.093838	-0.001942	0.012574	0.002815	-0.577148	-0.070557	-0.468750	0.049239	0.006632	0.083532	-0.069051	-0.264415	-0.019926	-0.961727	4.977353	-30.386982	170.434001
14082		4.966788	0.721042	8.356355	-0.040709	0.013589	-0.065087	-0.000958	0.011750	-0.000409	-0.575195	-0.063965	-0.464111	0.049673	0.007211	0.083561	-0.069054	-0.264382	-0.019928	-0.961736	4.977215	-30.383138	170.434014
14083		4.932064	0.715862	8.361388	-0.007904	0.012406	-0.078710	-0.000324	0.009288	0.002432	-0.585449	-0.066162	-0.462891	0.049324	0.007159	0.083612	-0.069024	-0.264396	-0.019862	-0.961736	4.967928	-30.385591	170.439930
14084		4.935468	0.785092	8.338843	-0.031168	-0.055743	-0.091194	-0.002826	0.008482	-0.000239	-0.573730	-0.066650	-0.460693	0.049358	0.007852	0.083386	-0.069028	-0.264379	-0.019853	-0.961740	4.966686	-30.383650	170.439926
14085		4.944355	0.726183	8.345132	-0.025823	0.001962	-0.085686	-0.001315	0.008292	0.000190	-0.574463	-0.064697	-0.460449	0.049447	0.007262	0.083449	-0.069002	-0.264511	-0.019770	-0.961708	4.957133	-30.400144	170.444552
14086		4.943706	0.725796	8.345551	-0.025300	0.001943	-0.085685	-0.005734	0.007586	0.003560	-0.575439	-0.071533	-0.468262	0.049440	0.007261	0.083453	-0.068991	-0.264499	-0.019741	-0.961712	4.952902	-30.399051	170.447080
14087		4.978470	0.709068	8.329557	-0.060538	0.022123	-0.083078	-0.001776	0.009750	0.007066	-0.585693	-0.073486	-0.469238	0.049789	0.007093	0.083293	-0.068948	-0.264522	-0.019688	-0.961710	4.944966	-30.402568	170.454142
14088		4.966992	0.655643	8.323359	-0.048015	0.073166	-0.098186	-0.001012	0.013299	-0.000003	-0.583252	-0.070068	-0.461670	0.049675	0.006557	0.083230	-0.068948	-0.264484	-0.019689	-0.961721	4.944429	-30.398078	170.454672
14089		4.942644	0.703683	8.335247	-0.024670	0.022342	-0.096714	0.000553	0.011561	0.000020	-0.569092	-0.071289	-0.465332	0.049431	0.007037	0.083350	-0.068931	-0.264609	-0.019714	-0.961687	4.948958	-30.412643	170.454411
14090		4.933721	0.741186	8.317993	-0.031026	-0.015975	-0.113267	0.000087	0.011199	0.001429	-0.574463	-0.073486	-0.464844	0.049342	0.007412	0.083177	-0.068923	-0.264583	-0.019718	-0.961695	4.948668	-30.409562	170.455745
14091		4.905298	0.719645	8.352817	0.012898	0.002214	-0.099335	-0.000900	0.012023	0.004653	-0.573242	-0.072754	-0.472168	0.049058	0.007198	0.083525	-0.068910	-0.264543	-0.019760	-0.961706	4.953060	-30.404469	170.456396
14092		4.947809	0.665791	8.354759	-0.016229	0.061528	-0.080163	0.001131	0.010647	0.003268	-0.576172	-0.059814	-0.464355	0.049482	0.006658	0.083545	-0.068891	-0.264519	-0.019766	-0.961713	4.952825	-30.401773	170.458868
14093		4.917352	0.729923	8.336722	-0.008241	-0.007938	-0.106300	-0.001258	0.008565	0.005251	-0.579590	-0.066406	-0.465332	0.049177	0.007301	0.083365	-0.068854	-0.264487	-0.019679	-0.961727	4.939908	-30.398944	170.467027
14094		4.947820	0.644241	8.343771	-0.020506	0.081210	-0.091192	0.002063	0.011372	0.000450	-0.580078	-0.071777	-0.457520	0.049483	0.006442	0.083435	-0.068847	-0.264460	-0.019692	-0.961735	4.941043	-30.395672	170.467746
14095		4.934297	0.745622	8.362246	-0.009222	-0.021439	-0.074625	0.002226	0.006727	-0.000767	-0.581055	-0.066406	-0.462646	0.049346	0.007455	0.083621	-0.068830	-0.264607	-0.019685	-0.961695	4.941702	-30.413182	170.468411
14096		4.937025	0.703401	8.338600	-0.018429	0.020972	-0.096697	0.003324	0.004627	0.000666	-0.581299	-0.076172	-0.462158	0.049372	0.007033	0.083385	-0.068821	-0.264614	-0.019703	-0.961694	4.943675	-30.413915	170.468898
14097		4.951933	0.693081	8.309774	-0.041504	0.033629	-0.114673	0.003270	0.006175	0.001072	-0.574463	-0.067627	-0.469971	0.049522	0.006930	0.083096	-0.068798	-0.264763	-0.019738	-0.961654	4.949538	-30.431309	170.468925
14098		4.954560	0.719528	8.363741	-0.019305	0.008226	-0.065015	0.003736	0.006537	-0.000337	-0.575684	-0.067627	-0.473633	0.049548	0.007194	0.083636	-0.068793	-0.264762	-0.019759	-0.961654	4.952065	-30.431038	170.468834
14099		4.943329	0.666808	8.357329	-0.008309	0.058322	-0.080133	0.005604	0.009806	-0.000506	-0.579834	-0.069580	-0.459717	0.049437	0.006666	0.083571	-0.068784	-0.264672	-0.019735	-0.961680	4.947434	-30.420632	170.471828
14100		4.934455	0.704800	8.340003	-0.014655	0.019995	-0.096689	0.004506	0.011907	-0.001939	-0.563965	-0.061035	-0.461426	0.049350	0.007046	0.083397	-0.068785	-0.264645	-0.019764	-0.961687	4.950719	-30.417138	170.471033
14101		4.913353	0.710770	8.327897	-0.003214	0.009865	-0.117328	0.002529	0.011735	-0.000960	-0.581543	-0.066650	-0.471680	0.049138	0.007106	0.083276	-0.068774	-0.264670	-0.019699	-0.961682	4.942342	-30.420865	170.474466
14102		4.910759	0.732417	8.340389	0.002265	-0.011410	-0.106300	0.006016	0.011717	-0.001509	-0.575439	-0.071045	-0.463379	0.049113	0.007321	0.083401	-0.068770	-0.264645	-0.019733	-0.961688	4.946274	-30.417556	170.474012
14103		4.919645	0.674439	8.346615	0.005559	0.047426	-0.100763	0.006233	0.003703	-0.008597	-0.575195	-0.066650	-0.467285	0.049198	0.006740	0.083465	-0.068791	-0.264693	-0.019747	-0.961673	4.949471	-30.423027	170.470295
14104		4.948167	0.744093	8.378227	-0.010849	-0.016497	-0.053982	0.010188	0.007689	0.000379	-0.584473	-0.073242	-0.464844	0.049485	0.007437	0.083781	-0.068773	-0.264689	-0.019798	-0.961674	4.955252	-30.422138	170.470882
14105		4.963011	0.734300	8.349417	-0.035463	-0.004267	-0.071940	0.005245	0.004527	-0.005374	-0.575928	-0.072021	-0.464355	0.049632	0.007339	0.083493	-0.068777	-0.264771	-0.019823	-0.961651	4.959750	-30.431559	170.468550
14106		4.948799	0.724320	8.366738	-0.013101	0.004301	-0.065002	0.006234	0.005524	-0.003130	-0.572998	-0.071289	-0.455811	0.049490	0.007240	0.083666	-0.068782	-0.264777	-0.019858	-0.961649	4.964502	-30.431794	170.466694
14107		4.933986	0.778589	8.319363	-0.029436	-0.050554	-0.109141	0.003735	0.006539	-0.000337	-0.570068	-0.062988	-0.465332	0.049343	0.007784	0.083192	-0.068773	-0.264866	-0.019914	-0.961623	4.972672	-30.441845	170.464839
14108		4.950937	0.682685	8.343437	-0.019844	0.047189	-0.087043	0.002691	0.007091	-0.002176	-0.573242	-0.079590	-0.468750	0.049512	0.006825	0.083433	-0.068778	-0.264863	-0.019932	-0.961624	4.975077	-30.441312	170.463669
14109		4.931736	0.667739	8.319192	-0.015197	0.060449	-0.118722	0.009034	0.009518	-0.006116	-0.573242	-0.075195	-0.459229	0.049322	0.006672	0.083190	-0.068802	-0.264800	-0.020009	-0.961638	4.984802	-30.432925	170.458615
14110		4.953704	0.753754	8.321110	-0.043407	-0.020526	-0.099506	0.007167	0.006248	-0.005947	-0.574951	-0.070801	-0.461670	0.049540	0.007533	0.083210	-0.068819	-0.264802	-0.020053	-0.961635	4.991082	-30.432631	170.454881
14111		4.920739	0.727960	8.313988	-0.014363	0.001776	-0.124252	0.003102	0.010824	0.002286	-0.577881	-0.077393	-0.464844	0.049212	0.007279	0.083137	-0.068803	-0.264861	-0.020124	-0.961618	5.000409	-30.438992	170.453759
14112		4.916798	0.770949	8.338218	-0.003930	-0.040712	-0.102205	0.008210	0.005697	-0.004108	-0.575195	-0.066406	-0.465576	0.049171	0.007705	0.083381	-0.068810	-0.264866	-0.020171	-0.961615	5.006752	-30.439170	170.451159
14113		4.959650	0.717890	8.340022	-0.032154	0.018931	-0.082936	0.003679	0.008088	0.000067	-0.579346	-0.066650	-0.470459	0.049600	0.007177	0.083398	-0.068801	-0.264898	-0.020214	-0.961606	5.012414	-30.442478	170.450495
14114		4.948430	0.665054	8.333662	-0.019585	0.069969	-0.098064	0.002636	0.008640	-0.001772	-0.572510	-0.068359	-0.463135	0.049488	0.006649	0.083335	-0.068804	-0.264888	-0.020232	-0.961609	5.014721	-30.441120	170.449590
14115		4.946113	0.686825	8.345958	-0.014045	0.047466	-0.087034	0.006645	0.007436	-0.004133	-0.574707	-0.070801	-0.462891	0.049464	0.006864	0.083458	-0.068805	-0.264890	-0.020208	-0.961609	5.011723	-30.441573	170.450266
14116		4.934239	0.767485	8.352277	-0.010550	-0.033315	-0.081549	0.007165	0.008072	-0.000480	-0.587891	-0.062500	-0.462646	0.049346	0.007672	0.083521	-0.068796	-0.264884	-0.020246	-0.961610	5.016148	-30.440607	170.450233
14117		4.935152	0.746816	8.340722	-0.012361	-0.013941	-0.092566	0.004612	0.008813	-0.002750	-0.583496	-0.067871	-0.466064	0.049355	0.007466	0.083405	-0.068775	-0.265004	-0.020193	-0.961579	5.010424	-30.455393	170.453250
14118		4.937671	0.704907	8.317262	-0.021552	0.028454	-0.114591	0.006122	0.008623	-0.002320	-0.581787	-0.072266	-0.468750	0.049380	0.007046	0.083171	-0.068776	-0.264996	-0.020228	-0.961581	5.014784	-30.454138	170.452092
14119		4.949070	0.737223	8.312486	-0.036277	-0.002043	-0.110477	0.001125	0.008830	-0.002203	-0.578125	-0.066406	-0.464844	0.049494	0.007371	0.083123	-0.068765	-0.265062	-0.020217	-0.961564	5.013959	-30.462083	170.453101
14120		4.954541	0.721171	8.342775	-0.023745	0.014947	-0.082905	0.000027	0.010930	-0.003638	-0.577881	-0.075195	-0.463867	0.049550	0.007211	0.083425	-0.068779	-0.265042	-0.020225	-0.961568	5.015186	-30.459508	170.451219
14121		4.930383	0.769372	8.354381	-0.002150	-0.036100	-0.081553	0.001700	0.007917	0.001045	-0.579102	-0.072998	-0.458984	0.049307	0.007693	0.083542	-0.068760	-0.265097	-0.020235	-0.961554	5.016600	-30.466082	170.452712
14122		4.965276	0.753368	8.338405	-0.038071	-0.015133	-0.078785	0.002223	0.006730	-0.000768	-0.573486	-0.079834	-0.464844	0.049656	0.007533	0.083382	-0.068758	-0.265099	-0.020249	-0.961553	5.018253	-30.466097	170.452483
14123		4.929079	0.769569	8.355132	0.000821	-0.034245	-0.081546	-0.001376	0.009845	0.000587	-0.583252	-0.081055	-0.467041	0.049295	0.007696	0.083549	-0.068748	-0.265158	-0.020357	-0.961536	5.032632	-30.472092	170.449327
14124		4.948420	0.763748	8.368300	-0.008386	-0.025863	-0.060873	-0.003298	0.008124	0.001160	-0.576904	-0.069824	-0.471924	0.049488	0.007639	0.083681	-0.068744	-0.265151	-0.020343	-0.961538	5.030547	-30.471462	170.450365
14125		4.952637	0.699677	8.332978	-0.022179	0.039152	-0.093909	-0.002311	0.009122	0.003405	-0.577393	-0.069824	-0.462158	0.049530	0.006999	0.083327	-0.068720	-0.265151	-0.020408	-0.961538	5.038043	-30.470878	170.451192
14126		4.929986	0.726263	8.332761	-0.006700	0.009458	-0.103568	0.001009	0.013753	0.004072	-0.582520	-0.072998	-0.459961	0.049305	0.007263	0.083324	-0.068697	-0.265119	-0.020413	-0.961549	5.037355	-30.467179	170.454427
14127		4.899762	0.725998	8.379486	0.045008	0.005362	-0.078805	-0.003928	0.010587	-0.001684	-0.582031	-0.066895	-0.464111	0.049002	0.007261	0.083792	-0.068693	-0.265227	-0.020407	-0.961519	5.038134	-30.480009	170.453768
14128		4.948383	0.720606	8.346478	-0.012661	0.017720	-0.082888	0.004256	0.005354	-0.002149	-0.577637	-0.071045	-0.469238	0.049486	0.007204	0.083464	-0.068696	-0.265237	-0.020433	-0.961516	5.041662	-30.480897	170.452382
14129		4.960014	0.752852	8.341583	-0.028054	-0.013105	-0.078749	0.002222	0.006731	-0.000767	-0.574219	-0.071045	-0.460693	0.049603	0.007527	0.083414	-0.068689	-0.265280	-0.020402	-0.961505	5.038060	-30.486420	170.453913
14130		4.947364	0.721185	8.347032	-0.010515	0.016705	-0.082884	0.002278	0.005182	-0.001172	-0.578613	-0.066895	-0.471436	0.049476	0.007211	0.083469	-0.068689	-0.265291	-0.020417	-0.961502	5.040096	-30.487490	170.453195
14131		4.979146	0.747754	8.354820	-0.036446	-0.005510	-0.058063	0.002278	0.005182	-0.001172	-0.579346	-0.068604	-0.466309	0.049794	0.007476	0.083547	-0.068690	-0.265308	-0.020391	-0.961498	5.037164	-30.489737	170.453758
14132		4.940271	0.737830	8.317664	-0.020967	-0.001191	-0.110431	0.000356	0.003460	-0.000599	-0.579346	-0.070557	-0.466553	0.049404	0.007378	0.083176	-0.068691	-0.265326	-0.020395	-0.961493	5.037925	-30.491824	170.453346
14133		4.932459	0.711091	8.364734	0.014114	0.023795	-0.076014	0.002334	0.003633	-0.001576	-0.583984	-0.069580	-0.464844	0.049326	0.007110	0.083647	-0.068687	-0.265380	-0.020379	-0.961478	5.036510	-30.498374	170.453730
14134		4.925943	0.727723	8.335025	0.002887	0.006687	-0.103564	0.005409	0.001705	-0.001117	-0.576904	-0.067139	-0.472656	0.049260	0.007275	0.083350	-0.068683	-0.265408	-0.020407	-0.961470	5.040367	-30.501466	170.452893
14135		4.953371	0.749339	8.300909	-0.039784	-0.011723	-0.117288	0.000412	0.001911	-0.001004	-0.568848	-0.072754	-0.465576	0.049535	0.007493	0.083009	-0.068683	-0.265448	-0.020353	-0.961460	5.034040	-30.506688	170.454374
14136		4.973063	0.743809	8.313856	-0.048937	-0.003359	-0.096597	-0.000797	0.007110	-0.001631	-0.582031	-0.072266	-0.463867	0.049734	0.007438	0.083137	-0.068689	-0.265448	-0.020353	-0.961460	5.034304	-30.506680	170.453553
14137		4.960364	0.712022	8.319349	-0.031143	0.027023	-0.100733	0.003263	0.006180	0.001073	-0.581055	-0.074951	-0.464111	0.049606	0.007119	0.083192	-0.068674	-0.265464	-0.020403	-0.961455	5.040305	-30.508237	170.453632
14138		4.912087	0.696595	8.341140	0.022978	0.035795	-0.107707	0.004144	0.008453	-0.001339	-0.572754	-0.067383	-0.463867	0.049124	0.006964	0.083409	-0.068672	-0.265460	-0.020427	-0.961456	5.043294	-30.507482	170.453057
14139		4.911449	0.697087	8.341474	0.024419	0.035758	-0.107710	0.003682	0.006267	-0.005397	-0.572754	-0.072510	-0.465088	0.049117	0.006968	0.083413	-0.068685	-0.265502	-0.020459	-0.961443	5.048427	-30.512088	170.449763
14140		4.929409	0.713390	8.366336	0.020228	0.022899	-0.076023	0.006289	0.003978	-0.003529	-0.575439	-0.075439	-0.467529	0.049296	0.007130	0.083663	-0.068691	-0.265520	-0.020495	-0.961437	5.053523	-30.513805	170.447470
14141		4.921038	0.751611	8.348627	0.013437	-0.014361	-0.092568	0.006701	0.005889	-0.004533	-0.572266	-0.072754	-0.462402	0.049213	0.007512	0.083485	-0.068702	-0.265500	-0.020591	-0.961440	5.065876	-30.510376	170.443024
14142		4.954656	0.757474	8.344348	-0.017489	-0.014611	-0.078726	0.006458	-0.000670	-0.004742	-0.575195	-0.075439	-0.467529	0.049546	0.007571	0.083444	-0.068715	-0.265540	-0.020628	-0.961427	5.071663	-30.514654	170.439614
14143		4.974745	0.752660	8.357001	-0.026843	-0.005175	-0.058032	0.008484	-0.000222	-0.000657	-0.581299	-0.070068	-0.461426	0.049747	0.007523	0.083570	-0.068706	-0.265563	-0.020726	-0.961419	5.084141	-30.516568	170.437142
14144		4.970208	0.748410	8.315151	-0.043038	-0.001049	-0.096569	0.006514	-0.002219	-0.005146	-0.577881	-0.080566	-0.458496	0.049701	0.007480	0.083152	-0.068721	-0.265611	-0.020763	-0.961404	5.090194	-30.521692	170.433330
14145		4.970237	0.748901	8.315089	-0.039826	0.000014	-0.096555	0.002963	0.001171	0.001268	-0.575684	-0.066406	-0.469238	0.049703	0.007488	0.083151	-0.068693	-0.265762	-0.020849	-0.961362	5.102351	-30.538810	170.432151
14146		4.937854	0.722791	8.307623	-0.012442	0.021407	-0.121412	0.003375	0.003083	0.000264	-0.584717	-0.072021	-0.466797	0.049380	0.007227	0.083076	-0.068686	-0.265784	-0.020867	-0.961356	5.104699	-30.541274	170.432179
14147		4.922206	0.733664	8.336711	0.015147	0.007768	-0.103576	0.003431	0.001533	-0.000140	-0.568604	-0.070557	-0.472168	0.049223	0.007335	0.083367	-0.068678	-0.265823	-0.020831	-0.961347	5.100512	-30.546325	170.433855
14148		4.963788	0.701562	8.350378	-0.008751	0.045811	-0.073179	0.002333	0.003633	-0.001577	-0.580322	-0.074707	-0.463379	0.049639	0.007014	0.083503	-0.068681	-0.265842	-0.020847	-0.961341	5.102824	-30.548389	170.432732
14149		4.966701	0.659485	8.326774	-0.018990	0.088641	-0.095179	0.004723	0.005717	-0.003557	-0.567627	-0.072510	-0.463135	0.049670	0.006592	0.083266	-0.068694	-0.265798	-0.020895	-0.961351	5.108763	-30.542648	170.429995
14150		4.933346	0.766917	8.331994	-0.000581	-0.021784	-0.099412	0.006345	0.002429	-0.003933	-0.579102	-0.070557	-0.462891	0.049335	0.007666	0.083320	-0.068703	-0.265823	-0.020932	-0.961343	5.114216	-30.545233	170.427225
14151		4.954930	0.740942	8.332840	-0.014672	0.007877	-0.089711	0.009420	0.000502	-0.003473	-0.572266	-0.072998	-0.461914	0.049550	0.007405	0.083329	-0.068709	-0.265858	-0.020984	-0.961331	5.121605	-30.548800	170.424248
14152		4.956328	0.720399	8.321033	-0.018920	0.029066	-0.100708	0.004254	0.005355	-0.002149	-0.574463	-0.069580	-0.466064	0.049566	0.007202	0.083209	-0.068712	-0.265869	-0.021010	-0.961328	5.125176	-30.549804	170.422830
14153		4.946174	0.779567	8.315294	-0.020573	-0.030555	-0.106241	0.003157	0.007455	-0.003586	-0.575928	-0.066406	-0.467529	0.049465	0.007793	0.083151	-0.068727	-0.265854	-0.021027	-0.961330	5.127662	-30.547761	170.420470
14154		4.965720	0.774296	8.328318	-0.029687	-0.022162	-0.085538	0.001808	0.004821	0.000235	-0.572998	-0.074463	-0.461670	0.049659	0.007742	0.083282	-0.068722	-0.265866	-0.021038	-0.961327	5.129041	-30.549180	170.420603
14155		4.951476	0.763716	8.345666	-0.007435	-0.013986	-0.078712	0.001283	0.006010	0.002047	-0.577637	-0.065186	-0.462158	0.049517	0.007637	0.083455	-0.068711	-0.265863	-0.021020	-0.961329	5.126340	-30.548958	170.422636
14156		4.952638	0.742365	8.334075	-0.011689	0.007202	-0.089707	-0.001736	0.006387	0.001183	-0.577637	-0.072754	-0.464844	0.049529	0.007425	0.083339	-0.068706	-0.265867	-0.021013	-0.961329	5.125304	-30.549523	170.423503
14157		4.975590	0.694160	8.323301	-0.030011	0.057015	-0.090983	-0.000170	0.004649	0.001211	-0.578125	-0.068848	-0.460938	0.049758	0.006942	0.083232	-0.068694	-0.265919	-0.020961	-0.961316	5.119039	-30.556260	170.426199
14158		4.978088	0.720435	8.377190	-0.007390	0.031571	-0.041472	-0.000742	0.005560	-0.002038	-0.575439	-0.071289	-0.460693	0.049783	0.007204	0.083770	-0.068703	-0.265927	-0.020962	-0.961313	5.119644	-30.557164	170.424915
14159		4.931315	0.748029	8.322067	0.002206	-0.002979	-0.110409	0.005352	0.003256	-0.000712	-0.573242	-0.063721	-0.461670	0.049315	0.007478	0.083220	-0.068692	-0.266012	-0.020964	-0.961291	5.120704	-30.567293	170.425271
14160		4.963044	0.774606	8.329884	-0.023716	-0.024458	-0.085528	0.000185	0.008110	0.000610	-0.575195	-0.066895	-0.468018	0.049634	0.007746	0.083297	-0.068686	-0.266009	-0.020967	-0.961292	5.120856	-30.566927	170.425908
14161		4.916386	0.737717	8.339788	0.024833	0.003537	-0.103594	0.001179	0.007283	-0.002610	-0.577393	-0.070068	-0.458984	0.049167	0.007376	0.083396	-0.068700	-0.265988	-0.020867	-0.961299	5.108292	-30.565287	170.427821
14162		4.971451	0.716181	8.336608	-0.020832	0.032924	-0.079971	0.000767	0.005372	-0.001605	-0.576660	-0.070313	-0.471436	0.049717	0.007161	0.083365	-0.068705	-0.265997	-0.020875	-0.961296	5.109517	-30.566359	170.426900
14163		4.981423	0.769468	8.343601	-0.031894	-0.018712	-0.064818	0.001751	0.006372	0.000639	-0.575684	-0.071777	-0.465088	0.049817	0.007694	0.083434	-0.068695	-0.266009	-0.020859	-0.961293	5.107307	-30.567959	170.428582
14164		4.960813	0.775195	8.331159	-0.021373	-0.027195	-0.085529	0.002219	0.006733	-0.000769	-0.578613	-0.075439	-0.467529	0.049611	0.007751	0.083310	-0.068693	-0.266013	-0.020872	-0.961292	5.109024	-30.568301	170.428311
14165		4.961868	0.754046	8.319621	-0.025703	-0.005397	-0.096509	0.000185	0.008110	0.000610	-0.572754	-0.080078	-0.464844	0.049622	0.007541	0.083194	-0.068686	-0.266004	-0.020908	-0.961295	5.113263	-30.566847	170.428046
14166		4.967363	0.737705	8.349920	-0.012987	0.011590	-0.068984	-0.002891	0.010037	0.000148	-0.580322	-0.075439	-0.462158	0.049678	0.007378	0.083497	-0.068686	-0.265990	-0.020897	-0.961299	5.111669	-30.565341	170.428557
14167		4.961914	0.732505	8.308723	-0.028582	0.017673	-0.107488	0.000071	0.011210	0.001418	-0.573730	-0.064941	-0.468506	0.049624	0.007325	0.083084	-0.068674	-0.265997	-0.021007	-0.961295	5.125395	-30.565173	170.426218
14168		4.967122	0.716116	8.339194	-0.015859	0.034678	-0.079968	-0.004045	0.013687	-0.000885	-0.580078	-0.078369	-0.458740	0.049677	0.007163	0.083388	-0.068681	-0.265966	-0.020994	-0.961304	5.123465	-30.561542	170.426188
14169		4.959809	0.732257	8.310001	-0.026621	0.017498	-0.107482	0.001008	0.011933	-0.001398	-0.570313	-0.067383	-0.464111	0.049603	0.007322	0.083097	-0.068680	-0.265971	-0.021003	-0.961302	5.124702	-30.562041	170.425878
14170		4.977128	0.747985	8.335290	-0.030717	0.004646	-0.075779	-0.001027	0.013311	-0.000019	-0.577637	-0.067139	-0.460693	0.049777	0.007480	0.083350	-0.068679	-0.265942	-0.021003	-0.961310	5.124223	-30.558687	170.426399
14171		4.935841	0.758955	8.310472	-0.010325	-0.013605	-0.117215	-0.002594	0.015050	-0.000049	-0.578613	-0.069824	-0.465332	0.049365	0.007591	0.083101	-0.068680	-0.265914	-0.020923	-0.961319	5.113659	-30.556190	170.429316
14172		4.965118	0.806284	8.330723	-0.031246	-0.056326	-0.081331	-0.003064	0.014688	0.001359	-0.578857	-0.071289	-0.461914	0.049657	0.008064	0.083303	-0.068675	-0.265879	-0.020912	-0.961330	5.111454	-30.552130	170.430876
14173		4.959624	0.736525	8.354623	-0.005717	0.011292	-0.068976	-0.003590	0.015877	0.003171	-0.581543	-0.067139	-0.461914	0.049603	0.007368	0.083542	-0.068653	-0.265886	-0.020876	-0.961330	5.106261	-30.553399	170.434849
14174		4.927818	0.688315	8.335941	0.016644	0.053903	-0.104861	-0.007079	0.015894	0.003712	-0.580322	-0.072510	-0.468750	0.049285	0.006887	0.083355	-0.068641	-0.265843	-0.020843	-0.961344	5.100916	-30.548805	170.438050
14175		4.952524	0.730221	8.314524	-0.020314	0.014616	-0.107462	-0.006083	0.015067	0.000492	-0.586670	-0.067139	-0.458496	0.049531	0.007305	0.083141	-0.068632	-0.265855	-0.020784	-0.961342	5.093257	-30.550807	170.441060
14176		4.911356	0.676784	8.354624	0.040860	0.061662	-0.098074	-0.000204	0.017136	-0.002026	-0.578613	-0.067627	-0.459961	0.049121	0.006767	0.083542	-0.068639	-0.265809	-0.020791	-0.961354	5.093724	-30.545246	170.440551
14177		4.906773	0.719560	8.379104	0.054381	0.017568	-0.076142	0.005534	0.011369	-0.000094	-0.580322	-0.071533	-0.465088	0.049072	0.007193	0.083788	-0.068606	-0.265938	-0.020753	-0.961322	5.089599	-30.561090	170.444460
14178		4.953557	0.735841	8.358282	0.001740	0.008663	-0.068972	0.005022	0.010731	-0.003747	-0.578369	-0.072266	-0.461182	0.049540	0.007355	0.083580	-0.068614	-0.265925	-0.020785	-0.961324	5.093790	-30.559203	170.442472
14179		4.920433	0.710034	8.351159	0.030249	0.030069	-0.093899	0.005534	0.011370	-0.000094	-0.576416	-0.072998	-0.460205	0.049209	0.007098	0.083509	-0.068592	-0.265967	-0.020823	-0.961313	5.098578	-30.563923	170.443467
14180		4.959439	0.763682	8.312342	-0.029443	-0.017108	-0.103253	0.004140	0.008458	-0.001336	-0.576172	-0.076172	-0.459961	0.049598	0.007635	0.083121	-0.068590	-0.265966	-0.020847	-0.961313	5.101530	-30.563495	170.442937
14181		4.931085	0.742908	8.346798	0.016285	0.001041	-0.089711	0.006176	0.007081	-0.002713	-0.578613	-0.064453	-0.463623	0.049314	0.007426	0.083466	-0.068580	-0.266034	-0.020942	-0.961293	5.114280	-30.570691	170.440129
14182		4.942673	0.775246	8.341929	0.000230	-0.028882	-0.085511	0.003257	0.006185	0.001076	-0.576904	-0.070801	-0.464600	0.049429	0.007751	0.083418	-0.068568	-0.266044	-0.020958	-0.961291	5.116030	-30.571724	170.441025
14183		4.955891	0.786107	8.325229	-0.020451	-0.038868	-0.092279	0.001122	0.008836	-0.002205	-0.580811	-0.071045	-0.459961	0.049563	0.007860	0.083250	-0.068575	-0.266063	-0.020900	-0.961286	5.109206	-30.574514	170.441853
14184		4.978585	0.737803	8.314707	-0.039431	0.011942	-0.093463	-0.005814	0.009145	0.003934	-0.582764	-0.072998	-0.459473	0.049790	0.007381	0.083145	-0.068561	-0.266055	-0.020870	-0.961290	5.104659	-30.574023	170.444858
14185		4.945398	0.710943	8.307709	-0.009655	0.033251	-0.118399	-0.002087	0.015692	0.003603	-0.574219	-0.074463	-0.462402	0.049460	0.007111	0.083073	-0.068519	-0.266139	-0.020870	-0.961270	5.104516	-30.584135	170.449163
14186		4.940830	0.753070	8.332221	0.001127	-0.009290	-0.096478	-0.003480	0.012780	0.002361	-0.575195	-0.068848	-0.475342	0.049414	0.007533	0.083319	-0.068509	-0.266116	-0.020854	-0.961277	5.101741	-30.581573	170.451333
14187		4.912024	0.731295	8.367000	0.044141	0.008040	-0.082968	-0.004009	0.013970	0.004172	-0.582764	-0.074951	-0.460693	0.049126	0.007316	0.083666	-0.068501	-0.266016	-0.020834	-0.961306	5.097452	-30.570071	170.454291
14188		4.926535	0.720112	8.338732	0.018095	0.020579	-0.100684	-0.004422	0.012058	0.005176	-0.577393	-0.076172	-0.470703	0.049270	0.007204	0.083384	-0.068478	-0.265996	-0.020809	-0.961314	5.093209	-30.568015	170.458282
14189		4.937905	0.751376	8.334107	0.002742	-0.008219	-0.096477	-0.005757	0.007596	0.003530	-0.578613	-0.075195	-0.467773	0.049382	0.007517	0.083339	-0.068449	-0.266026	-0.020847	-0.961307	5.097376	-30.571349	170.460365
14190		4.925009	0.719111	8.339719	0.020332	0.021577	-0.100691	0.001103	0.010664	0.003262	-0.576172	-0.074219	-0.462158	0.049254	0.007191	0.083395	-0.068429	-0.266014	-0.020851	-0.961311	5.097035	-30.570007	170.462966
14191		4.924308	0.719098	8.340135	0.021385	0.022477	-0.100695	-0.001779	0.006114	-0.003881	-0.575928	-0.071777	-0.463379	0.049246	0.007191	0.083400	-0.068438	-0.266032	-0.020904	-0.961304	5.104451	-30.571577	170.459777
14192		4.922088	0.740374	8.352331	0.027172	0.001186	-0.089735	0.001277	0.006013	0.002051	-0.583008	-0.070313	-0.468506	0.049223	0.007404	0.083522	-0.068424	-0.266043	-0.020910	-0.961302	5.104798	-30.572832	170.461267
14193		4.951016	0.740433	8.306665	-0.020363	0.004840	-0.114179	0.000239	0.006564	0.000208	-0.567383	-0.073486	-0.465332	0.049513	0.007404	0.083065	-0.068415	-0.266068	-0.020901	-0.961296	5.103750	-30.575921	170.462408
14194		4.960258	0.681599	8.312930	-0.017518	0.064286	-0.108610	-0.002038	0.001378	0.001376	-0.579346	-0.069336	-0.467041	0.049603	0.006817	0.083129	-0.068409	-0.266099	-0.020890	-0.961288	5.102558	-30.579798	170.463182
14195		4.952242	0.718870	8.295084	-0.024793	0.026058	-0.125138	-0.000587	0.002739	0.002215	-0.577148	-0.069580	-0.458984	0.049523	0.007189	0.082950	-0.068405	-0.266076	-0.020885	-0.961295	5.101468	-30.577115	170.464086
14196		4.976279	0.718194	8.349917	-0.016653	0.030221	-0.065940	-0.000290	0.007753	0.002020	-0.583252	-0.069824	-0.467529	0.049766	0.007183	0.083497	-0.068393	-0.266077	-0.020883	-0.961296	5.100868	-30.577355	170.465663
14197		4.940081	0.734411	8.366380	0.021788	0.008455	-0.068996	0.002219	0.006737	-0.000764	-0.574951	-0.071777	-0.464355	0.049404	0.007343	0.083662	-0.068384	-0.266141	-0.020866	-0.961279	5.099261	-30.585108	170.466744
14198		4.945250	0.782706	8.331875	-0.006337	-0.038507	-0.092258	0.000949	0.013490	-0.000991	-0.580566	-0.071289	-0.470459	0.049458	0.007826	0.083315	-0.068384	-0.266115	-0.020876	-0.961286	5.100196	-30.581959	170.466681
14199		4.946068	0.761388	8.320516	-0.010967	-0.017350	-0.103215	0.000218	0.008391	0.005674	-0.576172	-0.067871	-0.458252	0.049464	0.007615	0.083203	-0.068353	-0.266095	-0.020870	-0.961294	5.098072	-30.579755	170.471041
14200		4.945342	0.760903	8.320992	-0.010190	-0.017413	-0.103214	-0.004838	0.010148	0.006178	-0.578369	-0.065186	-0.461670	0.049457	0.007613	0.083207	-0.068327	-0.266084	-0.020842	-0.961299	5.093372	-30.578865	170.475533
14201		4.970686	0.738403	8.364215	-0.005827	0.006497	-0.054974	-0.004838	0.010148	0.006178	-0.584961	-0.063477	-0.466553	0.049711	0.007388	0.083639	-0.068301	-0.266138	-0.020739	-0.961288	5.080046	-30.586433	170.481857
14202		4.909782	0.754345	8.326313	0.024116	-0.018799	-0.117248	-0.006405	0.011888	0.006147	-0.580566	-0.071533	-0.459473	0.049103	0.007548	0.083260	-0.068276	-0.266118	-0.020704	-0.961296	5.074360	-30.584594	170.486471
14203		4.948790	0.742348	8.352649	0.007027	-0.003363	-0.075733	-0.006463	0.013439	0.006551	-0.581787	-0.071045	-0.473389	0.049493	0.007428	0.083523	-0.068240	-0.266173	-0.020606	-0.961286	5.061345	-30.592278	170.493925
14204		4.945147	0.715238	8.299629	-0.014337	0.022005	-0.125107	-0.006347	0.010338	0.005743	-0.576172	-0.069580	-0.461670	0.049456	0.007156	0.082994	-0.068217	-0.266162	-0.020570	-0.961291	5.055838	-30.591358	170.498213
14205		4.925221	0.767388	8.352970	0.023114	-0.033408	-0.085553	-0.007407	0.012717	0.009365	-0.570801	-0.072754	-0.465088	0.049257	0.007679	0.083526	-0.068178	-0.266128	-0.020511	-0.961305	5.046491	-30.588137	170.505662
14206		4.958433	0.771386	8.349293	-0.007631	-0.033705	-0.071507	-0.008626	0.005153	0.006908	-0.576172	-0.068848	-0.465820	0.049586	0.007719	0.083491	-0.068153	-0.266140	-0.020462	-0.961304	5.039430	-30.590228	170.510427
14207		4.939575	0.754624	8.324988	-0.002942	-0.020784	-0.103216	-0.008800	0.009805	0.008121	-0.580811	-0.070313	-0.466553	0.049400	0.007552	0.083247	-0.068131	-0.266091	-0.020415	-0.961320	5.031954	-30.584951	170.515504
14208		4.938987	0.753406	8.325447	-0.002154	-0.020862	-0.103216	-0.009628	0.005981	0.010127	-0.577637	-0.068115	-0.470947	0.049392	0.007541	0.083253	-0.068092	-0.266099	-0.020356	-0.961322	5.023210	-30.586706	170.522449
14209		4.956982	0.767784	8.350486	-0.006508	-0.034234	-0.071508	-0.009513	0.002879	0.009318	-0.583496	-0.066650	-0.459473	0.049571	0.007684	0.083504	-0.068060	-0.266101	-0.020271	-0.961326	5.011249	-30.587955	170.529518
14210		4.964541	0.728973	8.368691	0.001384	0.003951	-0.054970	-0.011079	0.004620	0.009286	-0.574951	-0.077637	-0.453125	0.049647	0.007297	0.083685	-0.068027	-0.266115	-0.020206	-0.961326	5.001978	-30.590429	170.535842
14211		4.985863	0.764900	8.305204	-0.051040	-0.029962	-0.095856	-0.014121	0.006827	0.013880	-0.578857	-0.073486	-0.460938	0.049861	0.007658	0.083050	-0.067950	-0.266244	-0.020160	-0.961296	4.995261	-30.606536	170.545770
14212		4.948597	0.667316	8.321036	0.000174	0.059546	-0.108564	-0.014295	0.011480	0.015095	-0.587891	-0.070557	-0.474121	0.049490	0.006683	0.083207	-0.067893	-0.266226	-0.020074	-0.961307	4.982013	-30.605461	170.556323
14213		4.929411	0.649856	8.296952	0.006280	0.072633	-0.140278	-0.013351	0.012205	0.012281	-0.569580	-0.068359	-0.464844	0.049299	0.006507	0.082966	-0.067830	-0.266234	-0.020022	-0.961310	4.973219	-30.607311	170.566130
14214		4.940451	0.615962	8.357406	0.031368	0.106616	-0.085337	-0.007051	0.016183	0.008772	-0.576660	-0.070557	-0.460205	0.049411	0.006165	0.083570	-0.067793	-0.266195	-0.019981	-0.961325	4.966135	-30.603253	170.572749
14215		4.923659	0.690173	8.322360	0.017725	0.030035	-0.118400	-0.003031	0.014976	0.006427	-0.579834	-0.074219	-0.463135	0.049243	0.006905	0.083220	-0.067769	-0.266151	-0.019961	-0.961339	4.962117	-30.598436	170.577104
14216		4.942694	0.684040	8.335816	0.008837	0.038364	-0.097627	-0.002801	0.008772	0.004807	-0.574707	-0.071533	-0.461182	0.049430	0.006843	0.083356	-0.067746	-0.266149	-0.019944	-0.961342	4.959025	-30.598405	170.580664
14217		4.904586	0.721102	8.364305	0.052021	-0.003095	-0.089837	-0.001913	0.011047	0.002399	-0.575195	-0.073486	-0.466553	0.049050	0.007212	0.083640	-0.067719	-0.266171	-0.019987	-0.961336	4.963966	-30.600721	170.582352
14218		4.933283	0.720854	8.318929	0.004114	0.000818	-0.114158	-0.003363	0.009687	0.001557	-0.580811	-0.072754	-0.465332	0.049337	0.007210	0.083187	-0.067713	-0.266163	-0.019972	-0.961339	4.961659	-30.600027	170.583780
14219		4.966434	0.725584	8.315272	-0.026568	0.001426	-0.100068	-0.000820	0.008944	0.003837	-0.576660	-0.064209	-0.461182	0.049668	0.007257	0.083150	-0.067681	-0.266159	-0.020017	-0.961342	4.966225	-30.599188	170.586360
14220		4.971759	0.709003	8.345577	-0.013604	0.018394	-0.072605	-0.002328	0.009135	0.003400	-0.579102	-0.068604	-0.470215	0.049721	0.007092	0.083453	-0.067665	-0.266154	-0.020004	-0.961344	4.963938	-30.598897	170.588951
14221		4.931012	0.719916	8.320357	0.006454	0.000519	-0.114159	-0.000878	0.010495	0.004242	-0.577881	-0.067139	-0.466064	0.049314	0.007201	0.083201	-0.067650	-0.266143	-0.019941	-0.961350	4.955238	-30.598210	170.593130
14222		4.937431	0.814833	8.351544	0.005587	-0.093126	-0.077095	-0.009724	0.007262	0.005467	-0.577393	-0.072998	-0.464111	0.049377	0.008154	0.083513	-0.067634	-0.266145	-0.019889	-0.961352	4.948037	-30.599092	170.597012
14223		4.946258	0.754868	8.358020	0.008568	-0.033598	-0.071508	-0.009752	0.009088	0.010934	-0.576416	-0.073975	-0.474609	0.049466	0.007555	0.083578	-0.067588	-0.266144	-0.019836	-0.961356	4.939662	-30.599658	170.604777
14224		4.962926	0.721573	8.317714	-0.022553	0.000179	-0.100058	-0.009722	0.009362	0.015996	-0.574463	-0.071777	-0.469727	0.049633	0.007224	0.083174	-0.067521	-0.266137	-0.019771	-0.961364	4.928850	-30.599862	170.615759
14225		4.974279	0.751454	8.313373	-0.040409	-0.028723	-0.095802	-0.019419	0.014802	0.015996	-0.574463	-0.065918	-0.456787	0.049748	0.007527	0.083129	-0.067470	-0.266004	-0.019709	-0.961406	4.917240	-30.585042	170.626052
14226		4.945151	0.727709	8.348277	0.004069	-0.011531	-0.082443	-0.019536	0.017906	0.016807	-0.573242	-0.071777	-0.472900	0.049458	0.007289	0.083478	-0.067411	-0.265953	-0.019599	-0.961426	4.900313	-30.580344	170.638032
14227		4.956086	0.756915	8.344264	-0.012428	-0.041440	-0.078183	-0.022468	0.017013	0.020589	-0.569580	-0.071533	-0.463623	0.049567	0.007584	0.083438	-0.067345	-0.265881	-0.019466	-0.961454	4.880033	-30.573403	170.652012
14228		4.974634	0.748063	8.358264	-0.021304	-0.033099	-0.057401	-0.027081	0.020966	0.025151	-0.571533	-0.064209	-0.459473	0.049754	0.007498	0.083576	-0.067256	-0.265813	-0.019309	-0.961482	4.855885	-30.567342	170.669691
14229		4.986989	0.755138	8.342585	-0.042665	-0.041804	-0.064075	-0.027616	0.022158	0.026964	-0.573730	-0.075928	-0.464600	0.049878	0.007570	0.083419	-0.067169	-0.265724	-0.019143	-0.961516	4.830342	-30.558852	170.687672
14230		4.975834	0.809406	8.338154	-0.043949	-0.101373	-0.069656	-0.042204	0.026818	0.036774	-0.566895	-0.062988	-0.464355	0.049768	0.008121	0.083373	-0.067043	-0.265623	-0.018900	-0.961557	4.793454	-30.549986	170.713376
14231		4.973665	0.803458	8.340024	-0.044044	-0.100823	-0.069650	-0.051379	0.033179	0.045493	-0.576416	-0.070313	-0.464355	0.049749	0.008067	0.083390	-0.066898	-0.265444	-0.018631	-0.961622	4.751373	-30.532108	170.743416
14232		4.971144	0.796089	8.342233	-0.043253	-0.100884	-0.069647	-0.061429	0.037541	0.061680	-0.573242	-0.061279	-0.467529	0.049725	0.008002	0.083411	-0.066678	-0.265288	-0.018266	-0.961687	4.694825	-30.518232	170.786177
14233		4.817647	0.710071	8.311963	0.077790	-0.045037	-0.179694	-0.067111	0.041798	0.059338	-0.582031	-0.060547	-0.465576	0.048192	0.007143	0.083107	-0.066479	-0.265095	-0.017861	-0.961762	4.633453	-30.500251	170.827863
14234		4.738362	0.600392	8.433457	0.216765	0.044931	-0.123171	-0.059856	0.034002	0.056243	-0.570557	-0.060303	-0.458740	0.047396	0.006042	0.084325	-0.066283	-0.264956	-0.017510	-0.961820	4.579763	-30.488063	170.866795
14235		4.872117	0.612462	8.419126	0.092367	0.042511	-0.066715	-0.057908	0.021407	0.053416	-0.564453	-0.058594	-0.454834	0.048729	0.006162	0.084184	-0.066096	-0.264925	-0.017093	-0.961849	4.519469	-30.489204	170.905565
14236		4.916221	0.594832	8.345688	0.017523	0.059044	-0.108577	-0.054255	0.016734	0.051663	-0.570068	-0.060059	-0.469238	0.049168	0.005984	0.083451	-0.065916	-0.264870	-0.016768	-0.961882	4.470959	-30.486641	170.940570
14237		4.908810	0.539703	8.381289	0.046544	0.104765	-0.085378	-0.050069	0.010870	0.048094	-0.574219	-0.061523	-0.466309	0.049091	0.005430	0.083809	-0.065764	-0.264811	-0.016401	-0.961915	4.417940	-30.483822	170.973489
14238		4.930407	0.571269	8.318566	-0.008551	0.070423	-0.126162	-0.046600	0.010582	0.042505	-0.573486	-0.066650	-0.467529	0.049307	0.005743	0.083182	-0.065618	-0.264788	-0.016124	-0.961936	4.377020	-30.484304	171.002135
14239		4.971440	0.665505	8.346671	-0.041358	-0.023178	-0.074988	-0.044491	0.007914	0.045783	-0.572998	-0.056396	-0.462891	0.049716	0.006685	0.083463	-0.065458	-0.264755	-0.015863	-0.961961	4.337684	-30.483565	171.031987
14240		4.935542	0.675627	8.363397	-0.004016	-0.044267	-0.078188	-0.048470	0.007592	0.047716	-0.577148	-0.065674	-0.470947	0.049357	0.006788	0.083630	-0.065290	-0.264746	-0.015569	-0.961980	4.294023	-30.485932	171.063933
14241		4.970944	0.652621	8.347984	-0.040039	-0.023652	-0.074984	-0.050817	0.004231	0.054330	-0.571533	-0.057373	-0.465088	0.049709	0.006561	0.083477	-0.065094	-0.264740	-0.015234	-0.962000	4.244356	-30.489279	171.100663
14242		4.958295	0.613822	8.353378	-0.022456	0.006137	-0.079248	-0.051961	0.007906	0.053311	-0.578125	-0.062744	-0.468506	0.049585	0.006173	0.083530	-0.064904	-0.264729	-0.014915	-0.962021	4.196786	-30.491650	171.136351
14243		4.966392	0.633907	8.307447	-0.055986	-0.019861	-0.113355	-0.055837	0.004487	0.054420	-0.577148	-0.059326	-0.460205	0.049664	0.006376	0.083072	-0.064715	-0.264720	-0.014559	-0.962041	4.144505	-30.494684	171.173048
14244		4.939536	0.584073	8.329701	-0.016558	0.018549	-0.110963	-0.055526	0.009514	0.054254	-0.573975	-0.058105	-0.465576	0.049398	0.005877	0.083293	-0.064524	-0.264699	-0.014222	-0.962065	4.094520	-30.496116	171.209453
14245		4.934218	0.640188	8.366965	0.000119	-0.045620	-0.078194	-0.054186	0.013976	0.055932	-0.578125	-0.064697	-0.459961	0.049346	0.006438	0.083664	-0.064319	-0.264695	-0.013875	-0.962085	4.042867	-30.499640	171.247920
14246		4.983133	0.626954	8.335070	-0.057494	-0.033301	-0.081621	-0.060601	0.011329	0.054757	-0.572754	-0.061035	-0.468750	0.049834	0.006308	0.083346	-0.064132	-0.264664	-0.013514	-0.962111	3.989749	-30.500020	171.284755
14247		5.026462	0.543904	8.325571	-0.090644	0.048202	-0.072782	-0.058937	0.020808	0.056274	-0.583008	-0.059082	-0.461426	0.050272	0.005478	0.083249	-0.063936	-0.264610	-0.013220	-0.962143	3.944596	-30.497107	171.320645
14248		4.971108	0.537755	8.318002	-0.048720	0.039956	-0.107726	-0.053031	0.022851	0.053794	-0.570313	-0.056152	-0.460693	0.049719	0.005413	0.083173	-0.063743	-0.264526	-0.012900	-0.962183	3.895914	-30.490820	171.357334
14249		4.937993	0.551415	8.377464	0.007293	0.014535	-0.072591	-0.054704	0.027719	0.054600	-0.562988	-0.055664	-0.464844	0.049390	0.005551	0.083766	-0.063542	-0.264488	-0.012573	-0.962211	3.846547	-30.490023	171.394953
14250		4.923450	0.512309	8.383666	0.024882	0.044328	-0.076873	-0.056118	0.024833	0.053333	-0.570313	-0.059814	-0.469971	0.049244	0.005160	0.083829	-0.063355	-0.264393	-0.012240	-0.962254	3.796222	-30.482570	171.431408
14251		4.890822	0.458371	8.364558	0.045326	0.087541	-0.112876	-0.051992	0.020508	0.050161	-0.573242	-0.046387	-0.460693	0.048916	0.004618	0.083639	-0.063199	-0.264234	-0.011949	-0.962312	3.751617	-30.466872	171.463116
14252		4.872112	0.569529	8.355245	0.041922	-0.031532	-0.124076	-0.052441	0.018350	0.046085	-0.580078	-0.055176	-0.461426	0.048727	0.005728	0.083546	-0.063043	-0.264171	-0.011642	-0.962343	3.706012	-30.462757	171.494450
14253		4.819041	0.389540	8.308226	0.083847	0.133209	-0.201406	-0.045832	0.014794	0.045608	-0.573975	-0.053955	-0.458496	0.048196	0.003925	0.083078	-0.062868	-0.264201	-0.011300	-0.962350	3.656634	-30.470032	171.528478
14254		4.840794	0.403335	8.375893	0.097368	0.116067	-0.131334	-0.039619	0.007269	0.035570	-0.574951	-0.054688	-0.468750	0.048410	0.004059	0.083756	-0.062746	-0.264196	-0.011064	-0.962362	3.622114	-30.471872	171.552394
14255		4.940996	0.519466	8.325421	-0.026863	0.008857	-0.117579	-0.042481	0.003285	0.038507	-0.570801	-0.052246	-0.459229	0.049410	0.005222	0.083252	-0.062613	-0.264236	-0.010807	-0.962363	3.585079	-30.479341	171.577982
14256		4.953645	0.545806	8.321302	-0.042856	-0.021080	-0.113291	-0.042486	0.003291	0.038508	-0.577637	-0.055176	-0.468750	0.049537	0.005485	0.083211	-0.062481	-0.264248	-0.010552	-0.962371	3.548005	-30.483550	171.603688
14257		4.917783	0.470068	8.389465	0.031085	0.042965	-0.076884	-0.046723	0.010738	0.042524	-0.571289	-0.044922	-0.467041	0.049181	0.004731	0.083891	-0.062335	-0.264244	-0.010274	-0.962385	3.507357	-30.485978	171.632048
14258		4.919809	0.508424	8.314409	-0.014455	0.000235	-0.138381	-0.048925	0.016546	0.040094	-0.573975	-0.044678	-0.469238	0.049204	0.005114	0.083139	-0.062203	-0.264191	-0.009990	-0.962411	3.465786	-30.482642	171.659348
14259		4.908787	0.582487	8.322620	-0.011657	-0.082562	-0.133094	-0.047374	0.014792	0.040116	-0.564697	-0.048828	-0.459229	0.049093	0.005854	0.083221	-0.062066	-0.264105	-0.009605	-0.962447	3.410647	-30.476309	171.691101
14260		4.914554	0.538276	8.341116	-0.003691	-0.044389	-0.116564	-0.054577	0.021112	0.042839	-0.574707	-0.052734	-0.465576	0.049153	0.005416	0.083404	-0.061928	-0.264028	-0.009291	-0.962480	3.364766	-30.470396	171.720448
14261		4.901731	0.478429	8.334549	0.008800	0.006532	-0.131756	-0.060026	0.019716	0.048975	-0.576172	-0.052490	-0.462891	0.049024	0.004821	0.083339	-0.061774	-0.263956	-0.008935	-0.962513	3.312988	-30.465438	171.753163
14262		4.880531	0.543835	8.401672	0.051743	-0.069912	-0.081507	-0.071948	0.017250	0.054335	-0.571777	-0.046387	-0.467773	0.048811	0.005482	0.084011	-0.061604	-0.263893	-0.008521	-0.962545	3.253370	-30.462067	171.789980
14263		4.878015	0.488640	8.336428	0.025216	-0.023533	-0.141667	-0.075993	0.018750	0.061750	-0.568115	-0.048584	-0.468506	0.048786	0.004933	0.083358	-0.061402	-0.263830	-0.008065	-0.962579	3.187255	-30.459129	171.832230
14264		4.859317	0.356775	8.351304	0.061690	0.095612	-0.144618	-0.078051	0.019924	0.058069	-0.572510	-0.048096	-0.467285	0.048600	0.003614	0.083507	-0.061222	-0.263752	-0.007618	-0.962616	3.122837	-30.454281	171.871617
14265		4.952372	0.245694	8.296255	-0.036418	0.209639	-0.149928	-0.065753	0.025873	0.052159	-0.574463	-0.051514	-0.470215	0.049534	0.002497	0.082955	-0.061063	-0.263600	-0.007231	-0.962670	3.066051	-30.440071	171.906780
14266		4.915269	0.341682	8.262910	-0.035310	0.103414	-0.192897	-0.055395	0.029876	0.041725	-0.568359	-0.048584	-0.462402	0.049164	0.003450	0.082621	-0.060930	-0.263480	-0.006917	-0.962714	3.019946	-30.428940	171.935657
14267		4.875297	0.286407	8.344162	0.043041	0.146807	-0.145621	-0.045614	0.036610	0.033539	-0.565918	-0.044189	-0.466553	0.048768	0.002891	0.083432	-0.060837	-0.263315	-0.006692	-0.962767	2.986024	-30.411522	171.956832
14268		4.920633	0.296853	8.325700	-0.009505	0.137880	-0.138033	-0.034130	0.036924	0.024106	-0.579590	-0.042969	-0.469238	0.049221	0.002989	0.083247	-0.060761	-0.263167	-0.006507	-0.962813	2.957941	-30.395794	171.974222
14269		4.906419	0.327164	8.268756	-0.033640	0.102917	-0.192886	-0.030863	0.044385	0.020633	-0.570068	-0.043213	-0.470459	0.049082	0.003289	0.082676	-0.060692	-0.262967	-0.006297	-0.962874	2.926442	-30.374035	171.992057
14270		4.844761	0.126948	8.309393	0.058263	0.290407	-0.197798	-0.033044	0.049974	0.013152	-0.573242	-0.040283	-0.475586	0.048468	0.001286	0.083082	-0.060667	-0.262756	-0.006135	-0.962934	2.902426	-30.350499	172.002620
14271		4.851054	0.198504	8.332264	0.050889	0.216862	-0.171675	-0.009829	0.043304	0.002317	-0.571045	-0.043945	-0.472168	0.048529	0.001990	0.083312	-0.060658	-0.262511	-0.006034	-0.963002	2.886441	-30.322354	172.009260
14272		4.877978	0.418731	8.396131	0.031764	-0.000310	-0.093428	-0.011775	0.041372	-0.002214	-0.573486	-0.047607	-0.469727	0.048797	0.004192	0.083951	-0.060680	-0.262347	-0.005991	-0.963045	2.879878	-30.303257	172.009362
14273		4.858930	0.361528	8.348076	0.026208	0.054871	-0.146945	-0.003797	0.042212	-0.000983	-0.567627	-0.045410	-0.465820	0.048607	0.003617	0.083470	-0.060689	-0.262146	-0.005977	-0.963099	2.876176	-30.279630	172.010336
14274		4.873980	0.376885	8.375279	0.022461	0.041919	-0.115226	0.013927	0.035453	-0.010329	-0.563232	-0.048828	-0.469238	0.048755	0.003760	0.083744	-0.060715	-0.262019	-0.006067	-0.963132	2.887144	-30.263669	172.004867
14275		4.891840	0.418743	8.456567	0.040145	0.003864	-0.034276	0.022461	0.034645	-0.021055	-0.569580	-0.048584	-0.467529	0.048933	0.004173	0.084558	-0.060803	-0.261846	-0.006225	-0.963172	2.908316	-30.241716	171.989652
14276		4.929341	0.495576	8.433036	-0.014517	-0.064569	-0.032314	0.017187	0.027037	-0.016629	-0.571045	-0.045654	-0.467529	0.049305	0.004944	0.084324	-0.060856	-0.261759	-0.006336	-0.963192	2.923396	-30.230358	171.979732
14277		4.908913	0.482272	8.408864	-0.009263	-0.051663	-0.064033	0.000813	0.022355	-0.008412	-0.561035	-0.046631	-0.476807	0.049099	0.004820	0.084083	-0.060899	-0.261688	-0.006361	-0.963208	2.927272	-30.221552	171.973943
14278		4.886767	0.401808	8.447735	0.037360	0.024979	-0.045182	-0.006015	0.016511	-0.004008	-0.570313	-0.047852	-0.462891	0.048875	0.004020	0.084473	-0.060922	-0.261645	-0.006341	-0.963219	2.925030	-30.216584	171.972024
14279		4.881749	0.464338	8.485342	0.052118	-0.038558	-0.012488	-0.004535	0.000880	0.003739	-0.574463	-0.036865	-0.459473	0.048818	0.004646	0.084853	-0.060924	-0.261615	-0.006321	-0.963227	2.922119	-30.213203	171.972812
14280		4.929013	0.500142	8.477405	0.004644	-0.068738	0.006017	-0.003261	-0.007694	-0.001602	-0.569092	-0.041016	-0.462402	0.049287	0.005002	0.084776	-0.060932	-0.261689	-0.006303	-0.963206	2.921070	-30.222123	171.971662
14281		4.896744	0.581858	8.429622	0.002056	-0.155759	-0.047908	-0.009035	-0.015439	0.009289	-0.572266	-0.044678	-0.469238	0.048961	0.005825	0.084300	-0.060855	-0.261877	-0.006148	-0.963161	2.900726	-30.245781	171.985325
14282		4.861443	0.617338	8.457243	0.044462	-0.198121	-0.040356	-0.023903	-0.020338	0.017948	-0.573975	-0.044189	-0.470215	0.048605	0.006188	0.084577	-0.060797	-0.262007	-0.006002	-0.963130	2.881484	-30.262544	171.996753
14283		4.891614	0.481189	8.394931	0.005006	-0.062821	-0.084876	-0.040341	-0.023233	0.031656	-0.566895	-0.049316	-0.466553	0.048906	0.004837	0.083954	-0.060686	-0.262140	-0.005733	-0.963103	2.844827	-30.280932	172.019147
14284		4.897316	0.326495	8.407417	0.026791	0.085942	-0.077860	-0.038693	-0.028098	0.030828	-0.569580	-0.047363	-0.469238	0.048961	0.003289	0.084080	-0.060585	-0.262303	-0.005496	-0.963066	2.812900	-30.302488	172.038895
14285		4.880404	0.328515	8.393020	0.036559	0.078245	-0.098698	-0.029940	-0.036196	0.028117	-0.570557	-0.030762	-0.462158	0.048788	0.003305	0.083939	-0.060512	-0.262476	-0.005335	-0.963024	2.791737	-30.324465	172.052429
14286		4.856570	0.349378	8.490971	0.108618	0.048624	-0.025412	-0.023082	-0.047779	0.020446	-0.570068	-0.049316	-0.456543	0.048545	0.003509	0.084921	-0.060441	-0.262738	-0.005181	-0.962958	2.772543	-30.356965	172.064671
14287		4.906648	0.337487	8.413981	0.034745	0.063904	-0.066976	-0.012902	-0.053455	0.008885	-0.576660	-0.041016	-0.464355	0.049044	0.003382	0.084153	-0.060388	-0.263091	-0.005031	-0.962866	2.755500	-30.400089	172.073743
14288		5.008110	0.366220	8.370741	-0.071121	0.046104	-0.051673	-0.014764	-0.058252	0.008571	-0.577393	-0.041016	-0.461426	0.050057	0.003671	0.083722	-0.060364	-0.263406	-0.004930	-0.962782	2.745170	-30.438283	172.077827
14289		4.930147	0.519348	8.432795	0.017208	-0.120364	-0.031413	-0.019696	-0.060832	0.012871	-0.570557	-0.046875	-0.467773	0.049275	0.005205	0.084342	-0.060299	-0.263800	-0.004751	-0.962679	2.724492	-30.486561	172.089208
14290		4.973348	0.457933	8.388925	-0.028731	-0.056946	-0.049804	-0.030269	-0.058842	0.019928	-0.567871	-0.047607	-0.454346	0.049708	0.004597	0.083903	-0.060240	-0.264114	-0.004560	-0.962598	2.701412	-30.525434	172.100871
14291		4.959924	0.439811	8.360849	-0.023229	-0.043376	-0.081518	-0.029301	-0.057870	0.022195	-0.574463	-0.044434	-0.458252	0.049575	0.004416	0.083622	-0.060197	-0.264432	-0.004406	-0.962514	2.683704	-30.564577	172.109224
14292		4.982988	0.450833	8.383588	-0.026916	-0.056353	-0.049795	-0.030021	-0.050709	0.020656	-0.566406	-0.046387	-0.460693	0.049808	0.004526	0.083848	-0.060134	-0.264707	-0.004217	-0.962443	2.660380	-30.598811	172.121643
14293		4.987129	0.446910	8.381335	-0.025647	-0.056025	-0.049790	-0.035175	-0.045538	0.027088	-0.568359	-0.044189	-0.464600	0.049852	0.004491	0.083824	-0.060066	-0.264978	-0.004015	-0.962373	2.635177	-30.632726	172.135242
14294		4.970021	0.469436	8.378887	-0.010195	-0.085752	-0.059751	-0.046186	-0.045690	0.030065	-0.572021	-0.045166	-0.460938	0.049680	0.004721	0.083799	-0.059980	-0.265224	-0.003738	-0.962312	2.599301	-30.664335	172.154108
14295		4.969066	0.373154	8.385430	0.009051	0.003996	-0.058396	-0.048190	-0.045830	0.031030	-0.570801	-0.033936	-0.462402	0.049671	0.003759	0.083865	-0.059911	-0.265446	-0.003468	-0.962256	2.564805	-30.693074	172.170561
14296		4.956907	0.310962	8.333160	0.004106	0.059281	-0.111881	-0.054322	-0.041844	0.030135	-0.579590	-0.038330	-0.457764	0.049551	0.003140	0.083341	-0.059835	-0.265671	-0.003152	-0.962200	2.524150	-30.722452	172.189635
14297		5.033363	0.404607	8.315191	-0.076345	-0.032201	-0.084687	-0.049444	-0.037480	0.031327	-0.571533	-0.038086	-0.457275	0.050317	0.004075	0.083160	-0.059710	-0.265908	-0.002789	-0.962143	2.475744	-30.753760	172.216665
14298		4.973343	0.481041	8.312828	-0.031581	-0.121185	-0.114597	-0.049579	-0.032826	0.032611	-0.571045	-0.037842	-0.459229	0.049719	0.004839	0.083135	-0.059615	-0.266090	-0.002496	-0.962100	2.436741	-30.778029	172.237744
14299		4.971085	0.384522	8.319918	-0.011742	-0.032676	-0.113236	-0.050163	-0.030311	0.029801	-0.575195	-0.039551	-0.454834	0.049698	0.003873	0.083206	-0.059523	-0.266271	-0.002167	-0.962056	2.393309	-30.802302	172.259836
14300		4.981433	0.319813	8.323058	-0.008837	0.026714	-0.107563	-0.048341	-0.023963	0.030549	-0.581055	-0.035400	-0.462891	0.049804	0.003226	0.083236	-0.059436	-0.266412	-0.001885	-0.962023	2.355534	-30.821430	172.279853
14301		4.937150	0.365516	8.279738	0.004824	-0.029207	-0.165810	-0.047901	-0.022039	0.029577	-0.573242	-0.046143	-0.459961	0.049362	0.003682	0.082802	-0.059332	-0.266595	-0.001571	-0.961979	2.313476	-30.845965	172.303002
14302		4.924185	0.436341	8.387638	0.065361	-0.110002	-0.077489	-0.048964	-0.019675	0.033239	-0.569580	-0.031738	-0.456055	0.049233	0.004392	0.083880	-0.059233	-0.266715	-0.001283	-0.961953	2.274313	-30.862702	172.324984
14303		4.887797	0.422557	8.348743	0.080149	-0.105663	-0.130072	-0.051859	-0.023649	0.036151	-0.575928	-0.033447	-0.451660	0.048867	0.004256	0.083492	-0.059131	-0.266854	-0.000970	-0.961921	2.232052	-30.881889	172.348099
14304		4.991724	0.255432	8.294001	-0.014886	0.067885	-0.129290	-0.039793	-0.025645	0.034564	-0.572021	-0.040771	-0.456787	0.049906	0.002579	0.082946	-0.059014	-0.267005	-0.000723	-0.961886	2.197736	-30.902048	172.370848
14305		5.002903	0.170908	8.284438	-0.016066	0.148096	-0.134466	-0.029851	-0.023362	0.030161	-0.580078	-0.040283	-0.456787	0.050019	0.001729	0.082850	-0.058899	-0.267201	-0.000511	-0.961839	2.168551	-30.927149	172.391655
14306		5.014447	0.261646	8.317078	-0.016710	0.054343	-0.097560	-0.022351	-0.023146	0.027696	-0.582520	-0.034180	-0.454346	0.050134	0.002633	0.083176	-0.058791	-0.267345	-0.000358	-0.961806	2.146512	-30.945736	172.409922
14307		5.003798	0.400985	8.362323	0.004216	-0.090736	-0.059792	-0.023944	-0.019824	0.028123	-0.568359	-0.036133	-0.453857	0.050029	0.004027	0.083628	-0.058672	-0.267564	-0.000182	-0.961752	2.121952	-30.973291	172.429976
14308		5.017724	0.362788	8.277745	-0.044566	-0.052664	-0.126333	-0.027973	-0.018348	0.035558	-0.580811	-0.033203	-0.460693	0.050169	0.003648	0.082782	-0.058534	-0.267684	0.000008	-0.961727	2.093896	-30.989326	172.453641
14309		4.995288	0.253594	8.259790	-0.020264	0.048860	-0.156677	-0.027567	-0.014879	0.035019	-0.577881	-0.037109	-0.461426	0.049946	0.002556	0.082601	-0.058387	-0.267799	0.000224	-0.961704	2.062097	-31.005008	172.479474
14310		4.899734	0.306916	8.392553	0.125093	-0.022850	-0.090529	-0.016102	-0.012619	0.036116	-0.576904	-0.035400	-0.450195	0.048991	0.003085	0.083928	-0.058230	-0.267895	0.000356	-0.961687	2.040541	-31.017762	172.503688
14311		5.002327	0.337350	8.392615	0.037660	-0.045177	-0.036716	-0.014849	-0.022495	0.035365	-0.575684	-0.030518	-0.459473	0.050013	0.003389	0.083932	-0.058074	-0.268083	0.000491	-0.961644	2.019467	-31.041475	172.527270
14312		5.014213	0.233643	8.370413	0.030351	0.056719	-0.052739	-0.011918	-0.020063	0.032026	-0.572510	-0.038574	-0.456543	0.050133	0.002349	0.083709	-0.057931	-0.268217	0.000600	-0.961615	2.001781	-31.058416	172.548597
14313		5.032813	0.092420	8.364741	0.030067	0.196545	-0.052201	-0.006282	-0.026618	0.018658	-0.575928	-0.035156	-0.455322	0.050317	0.000932	0.083654	-0.057844	-0.268373	0.000681	-0.961577	1.989741	-31.077798	172.561743
14314		5.069909	0.182989	8.309634	-0.036915	0.111100	-0.077505	0.001096	-0.021985	0.012409	-0.580078	-0.033691	-0.456787	0.050690	0.001833	0.083102	-0.057778	-0.268519	0.000702	-0.961540	1.986277	-31.095440	172.569933
14315		5.059351	0.130484	8.300090	-0.023809	0.161705	-0.092665	0.007365	-0.013879	0.000117	-0.575195	-0.035400	-0.453125	0.050588	0.001302	0.083004	-0.057755	-0.268662	0.000691	-0.961501	1.988319	-31.112371	172.571448
14316		5.095271	0.115270	8.283028	-0.059533	0.182595	-0.089172	0.021634	-0.004987	-0.010981	-0.573486	-0.036865	-0.455322	0.050951	0.001141	0.082832	-0.057774	-0.268733	0.000576	-0.961480	2.004491	-31.119831	172.564395
14317		5.086489	0.392803	8.346450	-0.048586	-0.093895	-0.031138	0.021483	0.001203	-0.009257	-0.572021	-0.039063	-0.456299	0.050866	0.003917	0.083465	-0.057797	-0.268793	0.000462	-0.961462	2.020569	-31.126001	172.556931
14318		5.041326	0.424833	8.291763	-0.041128	-0.127700	-0.100283	0.006528	-0.000535	0.000330	-0.580566	-0.029785	-0.459229	0.050413	0.004246	0.082918	-0.057782	-0.268838	0.000434	-0.961451	2.024127	-31.131147	172.557541
14319		5.095120	0.422364	8.300517	-0.081309	-0.120081	-0.065062	-0.003533	0.001845	0.006037	-0.579346	-0.033936	-0.456543	0.050952	0.004227	0.083005	-0.057747	-0.268866	0.000479	-0.961445	2.017330	-31.134853	172.563508
14320		5.044202	0.361080	8.254241	-0.054976	-0.064518	-0.132829	-0.010688	0.008416	0.013902	-0.568604	-0.034912	-0.454590	0.050445	0.003619	0.082540	-0.057690	-0.268862	0.000549	-0.961449	2.006210	-31.135147	172.573418
14321		5.039942	0.313676	8.330173	-0.007527	-0.022385	-0.071505	-0.011926	0.018511	0.019723	-0.575195	-0.030518	-0.458252	0.050407	0.003147	0.083297	-0.057605	-0.268810	0.000646	-0.961469	1.990194	-31.129835	172.588199
14322		5.106530	0.211657	8.360684	-0.038234	0.083316	-0.014010	-0.014985	0.020513	0.019288	-0.563965	-0.036133	-0.452881	0.051074	0.002128	0.083601	-0.057528	-0.268747	0.000741	-0.961491	1.974598	-31.123305	172.601997
14323		5.114354	0.303758	8.395871	-0.039472	-0.010790	0.022853	-0.009696	0.030072	0.025442	-0.570068	-0.026855	-0.456055	0.051156	0.003048	0.083951	-0.057413	-0.268607	0.000834	-0.961537	1.956981	-31.107640	172.621144
14324		5.155388	0.312734	8.335298	-0.109472	-0.015483	-0.007546	-0.016977	0.041078	0.029531	-0.573730	-0.029541	-0.452393	0.051571	0.003142	0.083342	-0.057289	-0.268445	0.000947	-0.961589	1.936464	-31.089513	172.642263
14325		5.105366	0.274251	8.203358	-0.135067	0.017336	-0.147466	-0.023854	0.055337	0.028011	-0.571777	-0.036621	-0.457275	0.051076	0.002759	0.082019	-0.057134	-0.268213	0.001152	-0.961663	1.902220	-31.063799	172.671144
14326		5.033539	0.328250	8.294015	-0.038530	-0.050363	-0.105426	-0.033070	0.062900	0.027134	-0.572266	-0.030518	-0.456055	0.050361	0.003303	0.082924	-0.057044	-0.267941	0.001332	-0.961744	1.873055	-31.033114	172.691143
14327		5.091701	0.220854	8.285096	-0.086993	0.059523	-0.086131	-0.029269	0.070932	0.027363	-0.575439	-0.030762	-0.461182	0.050946	0.002228	0.082833	-0.056952	-0.267621	0.001499	-0.961839	1.845064	-30.996571	172.711089
14328		5.045723	0.122260	8.300791	-0.035910	0.149024	-0.099094	-0.030567	0.081951	0.018413	-0.569824	-0.033447	-0.458496	0.050491	0.001240	0.082987	-0.056900	-0.267258	0.001650	-0.961942	1.820166	-30.954796	172.725625
14329		5.067169	0.032775	8.309167	-0.048131	0.237725	-0.083314	-0.021183	0.086519	0.006147	-0.572998	-0.028076	-0.459717	0.050708	0.000338	0.083070	-0.056888	-0.266852	0.001753	-0.962056	1.802493	-30.907361	172.733489
14330		5.031251	-0.076162	8.254239	-0.041633	0.344186	-0.151862	0.001682	0.093041	-0.016102	-0.572266	-0.031006	-0.451660	0.050351	-0.000766	0.082519	-0.056959	-0.266445	0.001700	-0.962164	1.807804	-30.858596	172.725199
14331		4.849675	-0.225799	8.260312	0.125194	0.476351	-0.243963	0.044637	0.097884	-0.048837	-0.575928	-0.020020	-0.460938	0.048537	-0.002288	0.082579	-0.057101	-0.266055	0.001436	-0.962264	1.842848	-30.810113	172.700292
14332		4.755670	-0.194220	8.456283	0.295497	0.438519	-0.123353	0.102714	0.079541	-0.091532	-0.576904	-0.035645	-0.461426	0.047589	-0.002007	0.084543	-0.057400	-0.265743	0.000801	-0.962333	1.931857	-30.767659	172.641532
14333		4.811588	0.022293	8.607703	0.297617	0.240577	0.041141	0.165919	0.056288	-0.135564	-0.574463	-0.035156	-0.462646	0.048140	0.000119	0.086064	-0.057762	-0.265578	-0.000125	-0.962358	2.061716	-30.740264	172.563494
14334		4.960909	0.723469	8.537007	0.055459	-0.415833	0.078646	0.173233	0.023732	-0.134086	-0.575928	-0.042969	-0.454346	0.049624	0.007127	0.085370	-0.058172	-0.265554	-0.001140	-0.962339	2.206113	-30.728649	172.475282
14335		4.914360	1.161853	8.447750	0.002885	-0.836448	-0.006279	0.107663	0.001506	-0.082174	-0.573975	-0.040039	-0.461914	0.049149	0.011553	0.084483	-0.058439	-0.265662	-0.001774	-0.962292	2.297956	-30.735828	172.417905
14336		4.960342	0.576113	8.352173	-0.018325	-0.237100	-0.084423	0.055467	0.004601	-0.040275	-0.573486	-0.036377	-0.459473	0.049606	0.005728	0.083522	-0.058553	-0.265696	-0.002092	-0.962275	2.343196	-30.737115	172.391689
14337		5.065345	0.249934	8.300231	-0.097375	0.106263	-0.086781	0.052578	0.018045	-0.034064	-0.578857	-0.032227	-0.457031	0.050661	0.002469	0.082998	-0.058637	-0.265674	-0.002381	-0.962275	2.382957	-30.732066	172.370952
14338		5.008302	0.279512	8.304532	-0.050551	0.076792	-0.111244	0.058313	0.027570	-0.039449	-0.579590	-0.035156	-0.464111	0.050095	0.002761	0.083039	-0.058744	-0.265599	-0.002719	-0.962288	2.429209	-30.720195	172.345933
14339		4.914156	0.173499	8.296340	0.037105	0.177915	-0.170320	0.076255	0.030229	-0.052730	-0.573975	-0.040039	-0.462646	0.049155	0.001690	0.082957	-0.058821	-0.265566	-0.003098	-0.962292	2.480135	-30.713133	172.322985
14340		4.914429	-0.006983	8.428556	0.123231	0.364816	-0.063640	0.108489	0.040505	-0.072420	-0.579834	-0.038330	-0.460693	0.049161	-0.000133	0.084276	-0.059019	-0.265443	-0.003724	-0.962311	2.566087	-30.693007	172.276461
14341		5.133563	-0.039151	8.343279	-0.106230	0.438848	-0.026912	0.148943	0.076953	-0.091937	-0.575684	-0.040283	-0.460693	0.051368	-0.000477	0.083413	-0.059233	-0.265183	-0.004558	-0.962366	2.677588	-30.654946	172.221819
14342		4.934308	-0.234009	8.258093	0.036379	0.631830	-0.210726	0.204771	0.099728	-0.125207	-0.573242	-0.052490	-0.464111	0.049383	-0.002456	0.082554	-0.059556	-0.264802	-0.005735	-0.962445	2.835492	-30.599323	172.142226
14343		4.815084	0.013188	8.309674	0.131313	0.399020	-0.217931	0.259714	0.100612	-0.174952	-0.564941	-0.048584	-0.463623	0.048193	-0.000018	0.083073	-0.060072	-0.264445	-0.007259	-0.962501	3.044740	-30.543045	172.025865
14344		4.667412	0.285649	8.274479	0.205330	0.144832	-0.311630	0.308668	0.066969	-0.213033	-0.565918	-0.052979	-0.462158	0.046705	0.002679	0.082733	-0.060681	-0.264249	-0.009043	-0.962501	3.292015	-30.502897	171.887279
14345		4.624822	0.580180	8.409278	0.276711	-0.118218	-0.202750	0.305253	0.027959	-0.215067	-0.574219	-0.052246	-0.467773	0.046266	0.005624	0.084095	-0.061355	-0.264194	-0.010822	-0.962455	3.542529	-30.478940	171.739443
14346		4.719898	0.843830	8.460210	0.195524	-0.336182	-0.096036	0.248464	-0.012889	-0.182103	-0.569824	-0.060059	-0.462646	0.047201	0.008290	0.084615	-0.061899	-0.264363	-0.012251	-0.962357	3.746311	-30.484572	171.618444
14347		4.833850	0.736973	8.361489	0.065855	-0.187711	-0.128468	0.205220	-0.037458	-0.156718	-0.579102	-0.059082	-0.463379	0.048329	0.007246	0.083631	-0.062411	-0.264624	-0.013450	-0.962236	3.920921	-30.502995	171.508455
14348		4.991489	0.812398	8.238414	-0.132667	-0.218800	-0.149308	0.182937	-0.045422	-0.141366	-0.573730	-0.063232	-0.468262	0.049902	0.008013	0.082403	-0.062848	-0.264931	-0.014500	-0.962108	4.074317	-30.528200	171.412882
14349		4.839379	0.667649	8.210594	0.006599	-0.072316	-0.258951	0.188300	-0.043919	-0.147472	-0.573730	-0.054443	-0.466553	0.048381	0.006563	0.082123	-0.063338	-0.265238	-0.015611	-0.961974	4.237693	-30.552415	171.308029
14350		4.734877	0.504679	8.423023	0.231614	0.098425	-0.140165	0.215533	-0.067757	-0.168256	-0.574463	-0.072998	-0.465332	0.047324	0.004916	0.084252	-0.063862	-0.265660	-0.016846	-0.961802	4.419620	-30.588743	171.193252
14351		4.792922	0.684813	8.452363	0.187794	-0.046255	-0.073794	0.223391	-0.094377	-0.181250	-0.568115	-0.066895	-0.469971	0.047895	0.006710	0.084554	-0.064469	-0.266187	-0.018149	-0.961592	4.614795	-30.636271	171.064125
14352		4.809663	0.786230	8.464554	0.182196	-0.118811	-0.047837	0.216249	-0.119200	-0.173760	-0.581543	-0.069092	-0.467529	0.048053	0.007729	0.084683	-0.065023	-0.266855	-0.019378	-0.961345	4.800813	-30.701050	170.942477
14353		4.854500	1.011324	8.400306	0.100244	-0.314217	-0.063571	0.151734	-0.152706	-0.124430	-0.578369	-0.078369	-0.454834	0.048487	0.010019	0.084048	-0.065457	-0.267605	-0.020246	-0.961089	4.937735	-30.779463	170.847658
14354		4.821015	1.187523	8.347474	0.098955	-0.479881	-0.112552	0.099649	-0.170840	-0.085048	-0.578613	-0.076904	-0.464600	0.048144	0.011813	0.083522	-0.065745	-0.268491	-0.020779	-0.960811	5.028854	-30.877603	170.781415
14355		4.899434	0.676038	8.381441	0.128944	0.048869	-0.081758	0.083484	-0.191189	-0.074283	-0.581543	-0.067627	-0.461182	0.048917	0.006707	0.083864	-0.066098	-0.269491	-0.021288	-0.960496	5.121108	-30.989194	170.706045
14356		4.967068	0.659769	8.326427	0.066161	0.082404	-0.095422	0.085094	-0.208736	-0.076839	-0.579590	-0.072510	-0.452148	0.049586	0.006543	0.083319	-0.066371	-0.270554	-0.021728	-0.960168	5.202771	-31.109210	170.642432
14357		4.910843	0.857744	8.370648	0.137137	-0.113003	-0.071629	0.083620	-0.224336	-0.079865	-0.584473	-0.076172	-0.462891	0.049018	0.008523	0.083765	-0.066662	-0.271717	-0.022156	-0.959810	5.285285	-31.240979	170.575287
14358		5.023617	0.857003	8.392889	0.078280	-0.088373	0.005549	0.081336	-0.243452	-0.075805	-0.582764	-0.074951	-0.459229	0.050137	0.008517	0.083993	-0.066939	-0.272944	-0.022565	-0.959433	5.366108	-31.380710	170.509624
14359		4.728948	0.651583	8.268947	0.311185	0.080752	-0.270174	0.088625	-0.275490	-0.062186	-0.579102	-0.077637	-0.455566	0.047178	0.006464	0.082757	-0.067172	-0.274298	-0.023010	-0.959020	5.452252	-31.535275	170.446269
14360		4.939023	1.154938	8.499636	0.228093	-0.380521	0.075423	0.069075	-0.307920	-0.042393	-0.583984	-0.078369	-0.441895	0.049262	0.011510	0.085076	-0.067312	-0.275833	-0.023293	-0.958563	5.517166	-31.713435	170.398150
14361		5.112336	0.920940	8.382857	0.081450	-0.121216	0.048092	0.049425	-0.340898	-0.032673	-0.588867	-0.080322	-0.450195	0.050982	0.009180	0.083918	-0.067491	-0.277537	-0.023494	-0.958053	5.575946	-31.912194	170.345379
14362		4.710280	0.440081	8.277234	0.453143	0.299033	-0.294381	0.075029	-0.372133	-0.024615	-0.595947	-0.079102	-0.447510	0.046949	0.004364	0.082861	-0.067545	-0.279382	-0.023759	-0.957507	5.640838	-32.127882	170.304289
14363		5.145251	0.468541	8.378457	0.182574	0.339130	0.023124	0.113823	-0.431614	-0.036507	-0.590820	-0.081543	-0.444824	0.051272	0.004628	0.083898	-0.067654	-0.281553	-0.024241	-0.956851	5.741549	-32.379799	170.242984
14364		4.942240	0.866992	8.434189	0.382288	-0.076149	-0.006525	0.155558	-0.473349	-0.034518	-0.596191	-0.084961	-0.441895	0.049224	0.008596	0.084465	-0.067654	-0.283906	-0.024871	-0.956139	5.860826	-32.652502	170.187136
14365		4.756912	1.073468	8.383423	0.535779	-0.298725	-0.133545	0.125323	-0.527051	-0.036644	-0.591309	-0.084961	-0.435547	0.047350	0.010673	0.083966	-0.067783	-0.286517	-0.025393	-0.955337	5.976087	-32.956170	170.113926
14366		4.781807	1.385012	8.619200	0.666208	-0.596603	0.100661	0.113091	-0.596203	-0.014117	-0.604004	-0.078613	-0.434326	0.047562	0.013798	0.086342	-0.067761	-0.289440	-0.025749	-0.954447	6.069701	-33.299920	170.061458
14367		4.856500	1.072462	8.412580	0.589982	-0.276999	-0.061682	0.079923	-0.673459	-0.000010	-0.612061	-0.081055	-0.428711	0.048281	0.010691	0.084293	-0.067772	-0.292743	-0.025928	-0.953434	6.148727	-33.690574	170.004907
14368		5.092570	1.088236	8.277354	0.389335	-0.261386	-0.044741	0.099534	-0.744382	0.025195	-0.617676	-0.085693	-0.417969	0.050616	0.010847	0.082968	-0.067600	-0.296367	-0.026110	-0.952321	6.227218	-34.121038	169.966703
14369		5.252797	0.839395	8.256514	0.355447	0.006240	0.002585	0.108813	-0.814045	0.029579	-0.605957	-0.086182	-0.416992	0.052190	0.008357	0.082783	-0.067449	-0.300445	-0.026323	-0.951047	6.319403	-34.605567	169.916253
14370		5.229965	0.949673	8.269525	0.454222	-0.108072	0.006722	0.127218	-0.887296	0.040658	-0.627197	-0.081299	-0.401123	0.051930	0.009455	0.082932	-0.067178	-0.304750	-0.026564	-0.949689	6.415689	-35.118340	169.875596
14371		5.168758	1.157310	8.302472	0.594971	-0.323687	0.012125	0.133679	-0.968039	0.039825	-0.623535	-0.084229	-0.414795	0.051283	0.011528	0.083281	-0.066966	-0.309556	-0.026828	-0.948141	6.527829	-35.690848	169.816326
14372		5.433873	0.781083	8.153381	0.437854	0.083324	0.006432	0.152940	-1.056868	0.037344	-0.621582	-0.086182	-0.400635	0.053905	0.007758	0.081825	-0.066691	-0.314659	-0.027138	-0.946470	6.650783	-36.299834	169.756493
14373		5.205150	1.196957	8.299763	0.772104	-0.360316	0.020181	0.170839	-1.147569	0.043864	-0.631104	-0.096680	-0.391357	0.051571	0.011910	0.083305	-0.066409	-0.320194	-0.027528	-0.944621	6.794453	-36.960688	169.684035
14374		5.360009	1.032055	8.205331	0.730484	-0.177887	0.013591	0.168018	-1.246969	0.039379	-0.640625	-0.088623	-0.376465	0.053085	0.010262	0.082394	-0.066122	-0.326179	-0.027841	-0.942582	6.939103	-37.677713	169.604510
14375		5.255653	1.180403	8.233298	0.945234	-0.340698	-0.025380	0.179423	-1.357203	0.050778	-0.645020	-0.083008	-0.373047	0.051993	0.011743	0.082698	-0.065894	-0.332784	-0.028218	-0.940275	7.110999	-38.469517	169.498621
14376		5.611555	0.897123	8.142780	0.785950	-0.014879	0.085771	0.175164	-1.484991	0.053914	-0.647705	-0.087891	-0.362305	0.055506	0.008915	0.081849	-0.065555	-0.339863	-0.028459	-0.937756	7.273009	-39.322558	169.400739
14377		6.016393	0.800312	7.629953	0.316049	0.127897	-0.069214	0.196939	-1.631154	0.088448	-0.654053	-0.100098	-0.344482	0.059535	0.007954	0.076795	-0.065082	-0.347704	-0.028701	-0.934902	7.449457	-40.270978	169.300975
14378		6.378118	1.124584	7.915216	0.368594	-0.150114	0.406640	0.150877	-1.743052	0.108839	-0.654541	-0.087402	-0.338623	0.063082	0.011220	0.079712	-0.064557	-0.355945	-0.028646	-0.931834	7.595840	-41.274307	169.209491
14379		6.100452	0.725200	7.792331	0.713794	0.190396	0.082431	0.093168	-1.817130	0.118708	-0.662354	-0.085449	-0.322021	0.060289	0.007251	0.078477	-0.064225	-0.364589	-0.028334	-0.928519	7.731187	-42.331294	169.089087
14380		6.714143	0.493119	8.045356	0.650950	0.489525	0.645998	0.140924	-1.850853	0.114159	-0.666992	-0.096436	-0.301514	0.066390	0.004912	0.081074	-0.063696	-0.373269	-0.028183	-0.925105	7.886121	-43.395909	168.980327
14381		6.123262	1.108429	7.435502	0.784131	-0.219715	-0.151242	0.166537	-1.940061	0.133039	-0.689209	-0.094482	-0.291016	0.060500	0.011062	0.074953	-0.063172	-0.382477	-0.028108	-0.921374	8.073132	-44.527968	168.845919
14382		6.389021	1.170916	7.394666	0.758944	-0.262991	-0.003349	0.132175	-2.054608	0.143415	-0.692383	-0.097656	-0.273926	0.063118	0.011705	0.074605	-0.062543	-0.392025	-0.027790	-0.917405	8.235595	-45.710074	168.723817
14383		6.306719	1.141555	7.398796	1.031975	-0.264490	-0.082254	0.151713	-2.165066	0.162624	-0.692627	-0.089600	-0.259033	0.062252	0.011410	0.074673	-0.061980	-0.402235	-0.027504	-0.913022	8.435298	-46.977788	168.561685
14384		6.709663	1.303428	7.115365	0.756022	-0.393690	0.016665	0.129044	-2.264973	0.186458	-0.701660	-0.089844	-0.242920	0.066273	0.013050	0.071916	-0.061176	-0.412656	-0.027013	-0.908429	8.605100	-48.282241	168.432228
14385		7.191070	1.218509	6.785193	0.433087	-0.271927	0.135624	0.108531	-2.372396	0.209558	-0.709961	-0.081055	-0.219971	0.071086	0.012223	0.068705	-0.060420	-0.423616	-0.026335	-0.903441	8.777334	-49.662172	168.280057
14386		7.544056	1.359254	6.920059	0.543942	-0.400313	0.491978	0.041294	-2.436549	0.256596	-0.713623	-0.091309	-0.205322	0.074573	0.013674	0.070115	-0.059489	-0.434678	-0.025238	-0.898265	8.885417	-51.069485	168.170720
14387		7.433697	1.179444	6.899499	0.863619	-0.279481	0.357100	-0.025613	-2.502063	0.290162	-0.711182	-0.085205	-0.180664	0.073449	0.011910	0.069916	-0.058608	-0.446011	-0.023729	-0.892791	8.949431	-52.523973	168.065868
14388		7.998920	1.382204	7.077475	0.913285	-0.464091	0.907763	-0.111910	-2.545185	0.317845	-0.730957	-0.083984	-0.153809	0.079058	0.013988	0.071777	-0.057735	-0.457382	-0.021771	-0.887127	8.949395	-53.998110	167.986166
14389		9.311913	0.382452	7.205154	0.625082	0.631764	1.933594	-0.029736	-2.490879	0.262425	-0.730957	-0.082764	-0.135498	0.092207	0.003957	0.073203	-0.056924	-0.468460	-0.020313	-0.881415	9.040309	-55.436933	167.852497
14390		8.070135	0.913284	5.997370	0.538178	-0.068175	0.268496	0.095269	-2.424083	0.303470	-0.727295	-0.078369	-0.111816	0.079953	0.009226	0.060950	-0.055605	-0.479206	-0.019329	-0.875726	9.167862	-56.841126	167.764888
14391		8.884537	1.766795	7.025555	1.164620	-0.886272	1.556840	0.092521	-2.504499	0.353285	-0.743164	-0.080566	-0.089600	0.087925	0.017791	0.071369	-0.054074	-0.490215	-0.018189	-0.869732	9.269012	-58.292729	167.708015
14392		9.569564	1.748580	7.077602	1.148558	-0.850259	2.132050	0.007885	-2.484042	0.421974	-0.746826	-0.077637	-0.068115	0.094770	0.017684	0.071958	-0.052440	-0.501059	-0.016515	-0.863665	9.259174	-59.741616	167.725003
14393		11.271296	1.171055	7.850803	1.327309	-0.184415	3.907521	-0.090949	-2.308412	0.407776	-0.744873	-0.077881	-0.053711	0.111773	0.011975	0.079796	-0.051092	-0.511020	-0.014498	-0.857927	9.175243	-61.086822	167.762286
14394		9.839152	-0.027277	6.210472	0.926032	0.837380	1.755196	-0.009548	-2.068284	0.381216	-0.744873	-0.071533	-0.031250	0.097743	-0.000083	0.063118	-0.049627	-0.519928	-0.012952	-0.852669	9.120786	-62.296793	167.818162
14395		9.964230	0.654483	5.543999	0.457085	0.139008	1.598610	0.075964	-1.934354	0.358764	-0.753662	-0.071289	-0.009521	0.099088	0.006702	0.056403	-0.048020	-0.528207	-0.011865	-0.847674	9.111921	-63.425691	167.877546
14396		10.058834	1.175626	5.541516	0.589212	-0.417677	1.708833	0.083017	-1.761450	0.358993	-0.749268	-0.066406	0.001709	0.100074	0.011913	0.056303	-0.046381	-0.535732	-0.010844	-0.843044	9.071981	-64.460029	167.975184
14397		11.158898	2.535039	5.905090	0.560782	-1.735486	2.934382	-0.032431	-1.521210	0.375042	-0.753906	-0.057617	0.013916	0.111088	0.025569	0.059893	-0.044966	-0.542155	-0.009353	-0.839022	8.891847	-65.356423	168.154153
14398		11.654388	2.397596	5.572597	0.239669	-1.610460	3.224704	-0.230551	-1.248312	0.416509	-0.757080	-0.059082	0.023926	0.116143	0.024283	0.056424	-0.043899	-0.547386	-0.006975	-0.835699	8.477815	-66.104771	168.463643
14399		9.769122	1.932306	4.451686	0.118248	-1.335051	1.012719	-0.475325	-0.973356	0.526131	-0.753906	-0.051514	0.041260	0.097422	0.019686	0.044945	-0.043030	-0.551371	-0.003345	-0.833143	7.704289	-66.701154	169.011945
14400		7.990974	1.489596	2.918540	-0.485214	-1.036149	-1.252162	-0.520758	-0.957820	0.550276	-0.752441	-0.044434	0.041260	0.079727	0.015192	0.029528	-0.042187	-0.555287	0.000549	-0.830588	6.834359	-67.290732	169.633099
14401		7.568168	0.875586	3.022307	-0.113882	-0.523090	-1.634006	-0.519459	-0.936116	0.573394	-0.760498	-0.043213	0.055908	0.075514	0.009052	0.030554	-0.041239	-0.559068	0.004481	-0.828084	5.892789	-67.862070	170.331671
14402		5.664773	0.135483	5.860411	3.331575	-0.115053	-2.373642	-0.314453	-0.636559	0.478227	-0.764648	-0.038330	0.057373	0.056457	0.001582	0.058782	-0.040121	-0.561661	0.007252	-0.826362	5.123661	-68.256724	170.966846
14403		4.586677	-0.168120	8.962268	6.648725	-0.084310	-2.251243	0.026814	-0.032762	0.383048	-0.754150	-0.034668	0.061279	0.045855	-0.001605	0.089630	-0.038455	-0.561799	0.008208	-0.826339	4.597416	-68.295579	171.551961
14404		5.760520	0.490043	9.900974	7.019919	-0.729884	-0.777163	0.323366	0.560657	0.364324	-0.755371	-0.034424	0.054199	0.057874	0.004846	0.098856	-0.036062	-0.559565	0.007788	-0.827965	4.203251	-67.996620	172.176498
14405		5.409860	2.250767	9.483690	6.584087	-2.459728	-1.159847	0.401194	0.974083	0.318206	-0.753418	-0.025879	0.044434	0.054524	0.022404	0.094617	-0.033652	-0.555585	0.006826	-0.830751	3.895812	-67.452808	172.759344
14406		0.885893	2.986585	7.741570	6.595532	-3.301097	-5.909198	0.292276	1.391954	0.203287	-0.765381	-0.028809	0.025635	0.009367	0.029762	0.077395	-0.032040	-0.549870	0.005943	-0.834615	3.665177	-66.670004	173.191856
14407		1.265545	2.641523	7.221501	5.937952	-2.896289	-5.679841	0.095531	1.634394	0.108307	-0.760742	-0.036621	0.020264	0.013231	0.026388	0.072121	-0.031362	-0.543033	0.005553	-0.839107	3.452097	-65.737729	173.488090
14408		1.368361	1.656155	6.922076	5.611818	-1.886374	-5.632010	-0.019577	1.851282	-0.006662	-0.757568	-0.034180	0.005371	0.014324	0.016568	0.069089	-0.031491	-0.535279	0.005326	-0.844071	3.314240	-64.683961	173.627824
14409		1.482581	0.819605	6.890187	5.500182	-1.036953	-5.452021	-0.019482	2.070471	-0.116986	-0.763428	-0.031494	-0.016113	0.015543	0.008194	0.068743	-0.032076	-0.526493	0.004734	-0.849561	3.305203	-63.492995	173.630158
14410		1.813981	0.343329	7.093521	5.463229	-0.541633	-4.956371	0.025129	2.300602	-0.210719	-0.764160	-0.034424	-0.029053	0.018958	0.003405	0.070721	-0.032955	-0.516735	0.003704	-0.855503	3.404748	-62.175353	173.534719
14411		1.751491	0.282131	7.099347	5.384128	-0.465150	-4.879125	0.068661	2.499376	-0.272037	-0.756348	-0.031982	-0.048584	0.018404	0.002772	0.070768	-0.033969	-0.505991	0.002258	-0.861867	3.574834	-60.732537	173.390978
14412		2.122697	0.031952	7.206254	5.180645	-0.174582	-4.375398	0.106849	2.635828	-0.308411	-0.753906	-0.033203	-0.078369	0.022175	0.000247	0.071775	-0.035052	-0.494650	0.000570	-0.868385	3.774332	-59.219406	173.231561
14413		3.244502	-0.146232	7.563767	4.764935	0.091783	-3.101402	0.162300	2.770275	-0.320595	-0.759766	-0.036865	-0.098389	0.033486	-0.001577	0.075177	-0.036030	-0.482566	-0.001450	-0.875117	3.994875	-57.618326	173.087094
14414		4.570451	-0.154789	8.130299	4.328036	0.211938	-1.552442	0.200582	2.923371	-0.308368	-0.752686	-0.045654	-0.131592	0.046884	-0.001701	0.080622	-0.036868	-0.469798	-0.003597	-0.881997	4.196855	-55.940318	172.983340
14415		5.721230	-0.177543	8.457188	3.693327	0.358463	-0.298994	0.228911	3.110268	-0.258253	-0.740967	-0.051758	-0.151611	0.058516	-0.001947	0.083666	-0.037391	-0.456017	-0.005821	-0.889166	4.352684	-54.146286	172.958415
14416		6.476598	-0.241165	8.557110	3.025316	0.531237	0.472419	0.265387	3.284848	-0.157939	-0.734375	-0.050293	-0.178223	0.066158	-0.002576	0.084489	-0.037386	-0.441439	-0.007974	-0.896477	4.433245	-52.268102	173.048007
14417		7.013907	-0.363271	8.421433	2.247572	0.752135	0.893311	0.302675	3.406370	-0.054174	-0.726318	-0.057129	-0.213135	0.071559	-0.003778	0.082998	-0.036802	-0.426111	-0.010117	-0.903866	4.459450	-50.313380	173.241652
14418		7.187100	-0.398322	8.165292	1.575659	0.855125	0.923198	0.344824	3.456483	0.039656	-0.716797	-0.055176	-0.244141	0.073268	-0.004108	0.080388	-0.035706	-0.410534	-0.012225	-0.911064	4.452163	-48.346001	173.512062
14419		7.244874	-0.424935	8.047819	1.080878	0.934077	0.929004	0.368653	3.403083	0.090900	-0.700684	-0.054932	-0.272949	0.073806	-0.004363	0.079222	-0.034306	-0.394991	-0.014352	-0.917932	4.445101	-46.399381	173.813420
14420		7.728082	-0.638856	7.938595	0.316467	1.227016	1.211635	0.407838	3.291153	0.105943	-0.684570	-0.044922	-0.295410	0.078576	-0.006507	0.078087	-0.032772	-0.379952	-0.016577	-0.924277	4.468870	-44.529393	174.108243
14421		8.504679	-0.523740	7.922695	-0.618300	1.212768	1.741898	0.482354	3.154409	0.114916	-0.680664	-0.049561	-0.318604	0.086285	-0.005377	0.077860	-0.031045	-0.365361	-0.019126	-0.930151	4.549216	-42.726160	174.396604
14422		8.951910	0.144664	8.003678	-1.279296	0.621888	2.111337	0.510214	2.993849	0.134043	-0.660156	-0.047119	-0.340576	0.090703	0.001305	0.078688	-0.029198	-0.351531	-0.021717	-0.935469	4.650110	-41.027775	174.683777
14423		8.934893	0.755411	7.893849	-1.705255	0.046765	2.010872	0.458882	2.803962	0.141253	-0.643311	-0.050781	-0.359131	0.090439	0.007439	0.077693	-0.027411	-0.338412	-0.024043	-0.940291	4.735331	-39.426970	174.962860
14424		8.573911	0.808890	7.543260	-1.958927	-0.012188	1.466601	0.388775	2.584793	0.142013	-0.635986	-0.047607	-0.375977	0.086699	0.008005	0.074332	-0.025771	-0.326345	-0.025983	-0.944542	4.795087	-37.963147	175.223999
14425		8.288802	0.920398	7.083899	-2.288098	-0.134855	0.886578	0.372758	2.306038	0.123012	-0.618652	-0.045654	-0.395508	0.083692	0.009124	0.069894	-0.024268	-0.315449	-0.027859	-0.948223	4.872126	-36.646804	175.453509
14426		8.362149	0.555234	6.592360	-2.852434	0.237811	0.458455	0.416457	1.993473	0.054076	-0.603271	-0.056641	-0.408447	0.084272	0.005439	0.065097	-0.023075	-0.306084	-0.029989	-0.951252	5.016999	-35.516822	175.613131
14427		8.531017	0.599742	6.313970	-3.338365	0.223512	0.277250	0.512932	1.676239	-0.067077	-0.595215	-0.051270	-0.409668	0.085837	0.005808	0.062437	-0.022344	-0.298107	-0.032745	-0.953709	5.279177	-34.551792	175.672843
14428		9.064137	1.211271	6.536486	-3.815122	-0.294581	0.756485	0.562804	1.346752	-0.226169	-0.584717	-0.058350	-0.411621	0.091092	0.011827	0.064786	-0.022362	-0.291747	-0.035916	-0.955559	5.639877	-33.776598	175.605242
14429		10.105451	2.013250	7.221498	-4.447936	-0.921661	1.921351	0.503446	1.125562	-0.417869	-0.572021	-0.053955	-0.415039	0.101500	0.019740	0.071695	-0.023409	-0.286310	-0.039077	-0.957054	6.044199	-33.106604	175.399648
14430		10.536524	2.522258	7.610351	-4.733853	-1.294576	2.484067	0.285174	1.005816	-0.595589	-0.566406	-0.072510	-0.421875	0.105821	0.024800	0.075608	-0.025654	-0.281453	-0.041412	-0.958338	6.386584	-32.502011	175.069775
14431		10.619499	2.229301	7.365219	-5.054800	-0.929668	2.252665	0.050596	0.935755	-0.738995	-0.563965	-0.065918	-0.426270	0.106619	0.021881	0.073160	-0.028915	-0.276792	-0.042837	-0.959539	6.644549	-31.918248	174.645828
14432		10.309980	1.888820	6.624066	-5.290936	-0.588100	1.385535	-0.160085	0.848498	-0.797176	-0.559326	-0.069824	-0.421875	0.103454	0.018529	0.065787	-0.032779	-0.272567	-0.043295	-0.960603	6.797952	-31.387226	174.179250
14433		9.808569	0.972447	5.500841	-5.510182	0.269437	0.035022	-0.337225	0.691498	-0.760558	-0.562500	-0.075195	-0.423096	0.098311	0.009443	0.054653	-0.036723	-0.269006	-0.042850	-0.961484	6.840457	-30.940218	173.730086
14434		9.587188	0.256763	4.490374	-5.869761	0.946765	-1.049543	-0.394940	0.474264	-0.665514	-0.547852	-0.072266	-0.421875	0.095986	0.002337	0.044671	-0.040352	-0.266553	-0.041933	-0.962062	6.821040	-30.630307	173.326457
14435		9.719477	0.561713	2.362038	-7.121647	0.567609	-2.789664	-0.651471	0.040641	-0.447318	-0.553467	-0.067627	-0.405762	0.097212	0.005477	0.023583	-0.043346	-0.266126	-0.039427	-0.962156	6.599053	-30.576656	173.035292
14436		9.048457	-0.927980	1.408148	-6.935811	1.945260	-4.083031	-0.645394	-0.358646	-0.190791	-0.563721	-0.073730	-0.401855	0.090450	-0.009320	0.014274	-0.045193	-0.267716	-0.036498	-0.961745	6.307942	-30.773803	172.881642
14437		11.542135	-1.739290	2.981254	-8.149540	3.078700	-1.491645	-0.669561	-0.661731	0.102671	-0.568115	-0.055908	-0.396484	0.115331	-0.017233	0.030252	-0.045701	-0.270771	-0.033010	-0.960991	5.915520	-31.158060	172.903901
14438		12.667923	-1.613454	3.838921	-8.598364	3.063689	-0.091705	-0.555724	-0.772281	0.274187	-0.575684	-0.064209	-0.387939	0.126551	-0.015853	0.038922	-0.045262	-0.274441	-0.029792	-0.960076	5.529167	-31.619253	173.034907
