// General information: 
//  MT Manager version: 2019.2.0 
//  XDA version: 2019.2.0 build 3853 rev 94535 built on 2019-09-09
// Device information: 
//  DeviceId: 00B47786
//  ProductCode: MTW2-3A7G6
//  Firmware Version: 4.6.0
//  Hardware Version: 2.0.0
// Device settings: 
//  Filter Profile: human(46.1)
//  Option Flags: Orientation Smoother Disabled, AHS Disabled, ICC Disabled
// Coordinate system: ENU
PacketCounter	SampleTimeFine	Acc_X	Acc_Y	Acc_Z	FreeAcc_E	FreeAcc_N	FreeAcc_U	Gyr_X	Gyr_Y	Gyr_Z	Mag_X	Mag_Y	Mag_Z	VelInc_X	VelInc_Y	VelInc_Z	Quat_q0	Quat_q1	Quat_q2	Quat_q3	Roll	Pitch	Yaw
39923		9.465738	0.463786	-2.192369	0.060495	-0.010474	-0.085509	0.006808	0.015404	-0.008473	-0.805176	0.029297	0.549316	0.094656	0.004635	-0.021931	0.030237	-0.781027	-0.074955	-0.619245	168.844739	-76.367417	19.747575
39924		9.472165	0.438939	-2.143491	0.104912	0.021377	-0.091697	-0.014570	0.007931	-0.008012	-0.795166	0.040039	0.558838	0.094721	0.004384	-0.021439	0.030176	-0.781035	-0.074898	-0.619245	168.839449	-76.366654	19.743123
39925		9.485394	0.387226	-2.147923	0.095765	0.073033	-0.080179	-0.009840	0.005998	-0.008192	-0.797363	0.035889	0.546875	0.094853	0.003867	-0.021482	0.030134	-0.781048	-0.074857	-0.619235	168.837761	-76.364798	19.738026
39926		9.472064	0.376797	-2.176773	0.063579	0.078712	-0.086944	-0.007644	0.008104	-0.015899	-0.802002	0.038086	0.550049	0.094720	0.003760	-0.021772	0.030081	-0.781052	-0.074857	-0.619233	168.818764	-76.363159	19.752703
39927		9.520282	0.428244	-2.217882	0.042801	0.026679	-0.028229	-0.006291	0.004928	-0.012130	-0.797119	0.032959	0.552490	0.095203	0.004276	-0.022181	0.030040	-0.781067	-0.074842	-0.619218	168.810478	-76.360264	19.756487
39928		9.473207	0.442781	-2.241652	0.012143	0.005760	-0.067815	0.002408	0.003808	-0.014380	-0.802979	0.036377	0.553711	0.094732	0.004421	-0.022418	0.030027	-0.781083	-0.074866	-0.619196	168.802467	-76.356444	19.765483
39929		9.446558	0.463648	-2.277289	-0.024369	-0.021333	-0.084511	-0.006711	0.003046	-0.013998	-0.793213	0.031738	0.554688	0.094466	0.004629	-0.022774	0.029978	-0.781103	-0.074858	-0.619174	168.790484	-76.352283	19.772824
39930		9.507735	0.440738	-2.335479	-0.069760	-0.001389	-0.012643	0.006061	0.002829	-0.014046	-0.797852	0.033447	0.553223	0.095077	0.004401	-0.023356	0.029979	-0.781122	-0.074890	-0.619146	168.785748	-76.347874	19.780279
39931		9.481355	0.525845	-2.336424	-0.062858	-0.087268	-0.034144	0.001921	0.004328	-0.011985	-0.797119	0.027100	0.551758	0.094813	0.005253	-0.023366	0.029970	-0.781137	-0.074901	-0.619125	168.782787	-76.344658	19.783425
39932		9.474286	0.511103	-2.306183	-0.037200	-0.068603	-0.048687	-0.002323	0.005736	-0.014195	-0.793701	0.028564	0.556885	0.094743	0.005104	-0.023065	0.029935	-0.781149	-0.074904	-0.619112	168.771233	-76.341880	19.792369
39933		9.446756	0.468550	-2.275464	-0.020195	-0.024177	-0.084508	0.005058	0.010285	-0.011679	-0.799561	0.038086	0.552979	0.094467	0.004681	-0.022759	0.029942	-0.781145	-0.074922	-0.619114	168.768047	-76.342046	19.797596
39934		9.487846	0.503611	-2.286767	-0.016318	-0.056854	-0.040347	0.001921	0.004327	-0.011983	-0.791992	0.035400	0.554932	0.094878	0.005031	-0.022870	0.029932	-0.781161	-0.074932	-0.619093	168.765013	-76.338678	19.800734
39935		9.501262	0.494973	-2.268190	0.003505	-0.044399	-0.032008	-0.006951	0.007754	-0.009743	-0.795898	0.038330	0.552490	0.095012	0.004944	-0.022686	0.029897	-0.781168	-0.074906	-0.619089	168.760586	-76.337637	19.800156
39936		9.501251	0.452990	-2.290566	-0.024359	-0.005924	-0.028771	-0.004376	0.007729	-0.008897	-0.795654	0.029541	0.554443	0.095012	0.004525	-0.022909	0.029878	-0.781176	-0.074888	-0.619083	168.759837	-76.336531	19.797845
39937		9.473621	0.367092	-2.282978	-0.036288	0.077709	-0.061335	0.004742	0.008494	-0.009275	-0.802246	0.035889	0.556396	0.094735	0.003667	-0.022834	0.029890	-0.781179	-0.074896	-0.619077	168.762852	-76.335959	19.796505
39938		9.480103	0.385156	-2.211369	0.037095	0.070338	-0.070791	0.013443	0.007379	-0.011521	-0.797363	0.032959	0.542236	0.094800	0.003848	-0.022117	0.029928	-0.781184	-0.074939	-0.619064	168.766008	-76.334379	19.799989
39939		9.508076	0.515712	-2.194536	0.080033	-0.053949	-0.041498	0.013616	0.005067	-0.011511	-0.802002	0.039063	0.549561	0.095080	0.005153	-0.021947	0.029967	-0.781195	-0.074984	-0.619042	168.770512	-76.331631	19.802348
39940		9.467971	0.481199	-2.282734	-0.018701	-0.035381	-0.061621	-0.013810	0.005170	-0.006121	-0.798096	0.041016	0.550049	0.094679	0.004808	-0.022830	0.029919	-0.781212	-0.074928	-0.619031	168.771647	-76.329619	19.792672
39941		9.501748	0.457304	-2.287644	-0.019141	-0.009527	-0.028762	-0.001558	0.002989	-0.012302	-0.802002	0.039063	0.555176	0.095017	0.004567	-0.022878	0.029895	-0.781232	-0.074929	-0.619006	168.766584	-76.325615	19.795931
39942		9.460865	0.424303	-2.275165	-0.020933	0.021734	-0.072900	0.009789	0.008354	-0.011850	-0.795898	0.036865	0.551514	0.094608	0.004239	-0.022755	0.029926	-0.781233	-0.074970	-0.618998	168.767009	-76.324643	19.801418
39943		9.447705	0.456161	-2.280975	-0.024230	-0.011754	-0.082871	0.022246	0.006356	-0.009491	-0.798828	0.034912	0.551270	0.094477	0.004560	-0.022812	0.030005	-0.781240	-0.075033	-0.618978	168.780532	-76.322845	19.799584
39944		9.461270	0.511609	-2.227784	0.038989	-0.058116	-0.079471	0.009963	0.006041	-0.011838	-0.786133	0.032715	0.548828	0.094612	0.005112	-0.022280	0.030031	-0.781249	-0.075071	-0.618961	168.781785	-76.320551	19.803588
39945		9.481689	0.475872	-2.262200	0.005308	-0.025832	-0.053295	0.001923	0.004320	-0.011975	-0.798096	0.029785	0.549072	0.094817	0.004753	-0.022624	0.030023	-0.781264	-0.075082	-0.618941	168.778859	-76.317332	19.806700
39946		9.487841	0.408106	-2.237258	0.020843	0.045200	-0.056227	-0.002361	0.001718	-0.007512	-0.798584	0.031982	0.550537	0.094878	0.004077	-0.022373	0.030008	-0.781291	-0.075060	-0.618911	168.784630	-76.313056	19.797972
39947		9.454117	0.412535	-2.243061	0.008880	0.037523	-0.087444	0.007703	0.007851	-0.015080	-0.804932	0.031250	0.557861	0.094541	0.004119	-0.022434	0.030014	-0.781293	-0.075100	-0.618903	168.776237	-76.311475	19.810119
39948		9.474651	0.441560	-2.242836	0.018585	0.011009	-0.066209	0.007145	0.001870	-0.014540	-0.798584	0.034424	0.552246	0.094747	0.004410	-0.022429	0.030014	-0.781315	-0.075136	-0.618871	168.771157	-76.306527	19.818210
39949		9.434650	0.493450	-2.285174	-0.022336	-0.048790	-0.092849	-0.001973	0.001100	-0.014167	-0.795410	0.032227	0.553223	0.094347	0.004928	-0.022852	0.029982	-0.781340	-0.075143	-0.618840	168.762427	-76.301253	19.824998
39950		9.461245	0.453819	-2.260637	0.001870	-0.003578	-0.074537	-0.003367	0.000263	-0.011256	-0.797363	0.027100	0.552246	0.094613	0.004532	-0.022607	0.029953	-0.781369	-0.075135	-0.618805	168.759838	-76.295745	19.824623
39951		9.474452	0.402414	-2.265807	-0.007187	0.048071	-0.062882	0.001265	-0.001757	-0.015699	-0.801514	0.034424	0.557129	0.094745	0.004017	-0.022657	0.029928	-0.781402	-0.075159	-0.618762	168.750751	-76.288694	19.833688
39952		9.487663	0.394162	-2.248079	0.012674	0.060523	-0.054555	0.015606	-0.003434	-0.018636	-0.793457	0.024414	0.560547	0.094877	0.003935	-0.022479	0.029947	-0.781437	-0.075237	-0.618707	168.743517	-76.280272	19.848832
39953		9.405689	0.413544	-2.178620	0.065750	0.045438	-0.149458	0.027131	-0.009285	-0.024273	-0.796143	0.029785	0.563477	0.094058	0.004127	-0.021781	0.029993	-0.781487	-0.075375	-0.618626	168.732995	-76.268031	19.874632
39954		9.327682	0.620439	-2.509300	-0.235598	-0.209382	-0.138607	-0.015387	-0.022606	-0.030056	-0.789307	0.029297	0.556641	0.093281	0.006188	-0.025083	0.029842	-0.781583	-0.075399	-0.618508	168.690482	-76.247344	19.906919
39955		8.579538	1.085273	-2.904805	-0.706715	-0.779099	-0.750804	-0.031410	-0.079543	-0.066921	-0.794189	0.025391	0.559814	0.085811	0.010819	-0.029016	0.029502	-0.781842	-0.075534	-0.618181	168.581277	-76.190812	19.999796
39956		8.623560	1.164719	-2.943489	-0.713024	-0.850711	-0.693786	-0.117799	-0.136876	-0.063339	-0.786865	0.021973	0.563232	0.086259	0.011603	-0.029383	0.028806	-0.782294	-0.075389	-0.617660	168.457712	-76.102192	20.055403
39957		8.936010	0.337510	-3.310247	-1.110320	-0.050267	-0.342283	0.004917	-0.143582	-0.073998	-0.783936	0.024170	0.566895	0.089385	0.003343	-0.033038	0.028562	-0.782742	-0.075673	-0.617068	168.384937	-76.008818	20.132255
39958		9.091328	0.899473	-2.345937	-0.048179	-0.450514	-0.391466	0.072036	-0.128972	-0.098188	-0.780518	0.019531	0.566406	0.090933	0.008959	-0.023398	0.028501	-0.783128	-0.076246	-0.616510	168.290048	-75.920377	20.269839
39959		9.432388	0.592128	-2.388340	-0.046585	-0.114150	-0.065405	-0.073910	-0.128866	-0.096518	-0.786377	0.018799	0.558350	0.094342	0.005867	-0.023825	0.027884	-0.783532	-0.076373	-0.616009	168.117454	-75.832549	20.403110
39960		9.699194	0.537231	-2.073217	0.320678	0.017660	0.114953	-0.039311	-0.126068	-0.092731	-0.788330	0.013672	0.563232	0.097007	0.005323	-0.020672	0.027403	-0.783927	-0.076580	-0.615503	167.972717	-75.746321	20.526232
39961		9.696307	0.185694	-1.980031	0.366924	0.388251	0.071035	-0.103410	-0.120612	-0.087898	-0.779785	0.015625	0.568115	0.096976	0.001804	-0.019743	0.026700	-0.784311	-0.076581	-0.615043	167.801799	-75.663975	20.640432
39962		9.558173	0.121529	-2.162519	0.161164	0.425732	-0.022760	-0.007523	-0.123439	-0.098285	-0.780518	0.014404	0.565430	0.095596	0.001168	-0.021566	0.026328	-0.784690	-0.076906	-0.614536	167.665167	-75.578438	20.774082
39963		9.282858	0.626765	-2.268442	0.084658	-0.099678	-0.237042	-0.025369	-0.139625	-0.122714	-0.780518	0.007813	0.579590	0.092848	0.006208	-0.022620	0.025817	-0.785108	-0.077286	-0.613975	167.475726	-75.481005	20.953679
39964		9.385940	0.815278	-2.402591	0.022034	-0.281167	-0.093972	-0.053435	-0.156405	-0.115850	-0.771240	0.013916	0.575684	0.093883	0.008092	-0.023955	0.025201	-0.785585	-0.077546	-0.613358	167.294958	-75.374662	21.106231
39965		9.482683	0.450846	-2.798065	-0.376839	0.047076	0.077179	-0.014733	-0.142036	-0.114876	-0.783936	0.004639	0.576660	0.094849	0.004452	-0.027914	0.024754	-0.786011	-0.077928	-0.612781	167.134341	-75.276599	21.262498
39966		9.579541	0.667233	-2.677726	-0.192231	-0.129087	0.153725	0.005829	-0.135721	-0.110620	-0.773926	0.012207	0.575439	0.095817	0.006620	-0.026712	0.024399	-0.786417	-0.078350	-0.612220	166.993156	-75.182380	21.410079
39967		9.553484	0.690426	-2.867713	-0.364736	-0.168417	0.177714	-0.017806	-0.123773	-0.100976	-0.771973	0.014404	0.579590	0.095556	0.006853	-0.028619	0.023990	-0.786792	-0.078666	-0.611715	166.854951	-75.096112	21.541471
39968		9.507494	0.922178	-2.827284	-0.290320	-0.385067	0.137378	-0.045670	-0.114461	-0.086847	-0.765625	0.003906	0.573975	0.095095	0.009174	-0.028221	0.023516	-0.787147	-0.078837	-0.611254	166.727044	-75.016726	21.645357
39969		9.299534	0.734295	-3.087950	-0.608953	-0.243537	-0.008310	-0.066948	-0.105142	-0.089090	-0.767334	0.009521	0.578369	0.093015	0.007291	-0.030833	0.022958	-0.787474	-0.078953	-0.610839	166.579128	-74.942257	21.757749
39970		9.167411	0.773077	-3.048165	-0.588006	-0.278514	-0.142783	-0.054525	-0.094109	-0.087427	-0.767334	0.004639	0.574463	0.091692	0.007682	-0.030441	0.022454	-0.787767	-0.079096	-0.610461	166.437293	-74.873997	21.870660
39971		9.246400	0.616716	-3.108991	-0.642950	-0.114961	-0.059971	-0.037689	-0.084320	-0.079405	-0.769775	-0.000244	0.581055	0.092480	0.006125	-0.031052	0.022048	-0.788030	-0.079261	-0.610115	166.318022	-74.812292	21.970815
39972		9.270084	0.635300	-2.625139	-0.163361	-0.058893	-0.158711	0.057099	-0.070946	-0.097260	-0.762451	0.000000	0.582031	0.092713	0.006315	-0.026217	0.021963	-0.788236	-0.079780	-0.609785	166.210440	-74.755450	22.114488
39973		9.914141	0.535061	-2.017689	0.566608	0.192659	0.301134	-0.045163	-0.065547	-0.087136	-0.770264	0.005859	0.583984	0.099150	0.005303	-0.020146	0.021512	-0.788439	-0.079951	-0.609516	166.063403	-74.703016	22.239040
39974		10.562707	0.370135	-2.663984	0.085440	0.345661	1.081246	-0.118833	-0.037207	-0.080220	-0.767578	-0.000488	0.581543	0.105633	0.003643	-0.026622	0.020799	-0.788567	-0.079863	-0.609386	165.874515	-74.667104	22.362606
39975		10.739197	1.765124	-2.189737	0.793202	-0.940280	1.220338	-0.289229	-0.007499	-0.046211	-0.770996	-0.000732	0.572266	0.107397	0.017595	-0.021919	0.019533	-0.788634	-0.079122	-0.609438	165.642498	-74.652460	22.430314
39976		10.266255	0.971567	-3.808927	-0.998143	-0.397232	1.127776	-0.448766	0.020467	-0.025807	-0.764160	-0.001709	0.575928	0.102660	0.009617	-0.038121	0.017708	-0.788637	-0.077809	-0.609659	165.345703	-74.656087	22.469813
39977		9.697077	0.394920	-4.049179	-1.458840	0.099160	0.601104	-0.291920	0.058755	-0.006298	-0.760254	-0.010742	0.583252	0.096959	0.003887	-0.040526	0.016579	-0.788513	-0.076896	-0.609966	165.157994	-74.683817	22.489977
39978		9.207495	0.197023	-4.680059	-2.220657	0.174497	0.274828	-0.064260	0.110755	0.011333	-0.770264	-0.003418	0.579346	0.092049	0.001960	-0.046852	0.016417	-0.788219	-0.076599	-0.610388	165.107969	-74.742812	22.501930
39979		8.864310	1.309172	-4.215785	-1.712465	-0.908242	-0.101595	0.137805	0.151433	0.015002	-0.769531	-0.012695	0.579346	0.088610	0.013127	-0.042216	0.017083	-0.787784	-0.076906	-0.610893	165.159390	-74.824985	22.529423
39980		8.827064	1.801536	-3.892327	-1.354084	-1.367382	-0.189305	-0.016202	0.173047	0.047706	-0.762939	-0.004883	0.574463	0.088233	0.018033	-0.039001	0.017246	-0.787309	-0.076607	-0.611538	165.177654	-74.923786	22.499125
39981		8.879956	2.066608	-3.795217	-1.230625	-1.615790	-0.148171	-0.263294	0.207883	0.066264	-0.767334	-0.009766	0.583496	0.088753	0.020645	-0.038072	0.016510	-0.786754	-0.075481	-0.612412	165.073722	-75.044758	22.449501
39982		8.785752	1.491308	-4.382001	-1.924162	-1.125344	-0.135576	-0.380797	0.248198	0.109608	-0.769531	-0.011230	0.581299	0.087795	0.014878	-0.043957	0.015456	-0.786099	-0.073816	-0.613483	164.969626	-75.194310	22.329665
39983		8.425225	1.575652	-4.492509	-2.135741	-1.253132	-0.457587	-0.419566	0.286342	0.101453	-0.775391	-0.007080	0.578369	0.084180	0.015705	-0.045079	0.014243	-0.785321	-0.072065	-0.614716	164.804718	-75.363989	22.250577
39984		8.478680	1.198665	-4.471813	-2.187373	-0.868414	-0.443426	-0.456147	0.327964	0.124658	-0.780518	-0.011963	0.567627	0.084706	0.011937	-0.044884	0.012967	-0.784421	-0.070104	-0.616118	164.642900	-75.560019	22.145974
39985		8.209579	1.254206	-3.986033	-1.811884	-0.893747	-0.825094	-0.441954	0.385640	0.112427	-0.777100	-0.017334	0.572266	0.082012	0.012500	-0.040046	0.011735	-0.783331	-0.068233	-0.617737	164.427609	-75.786329	22.105788
39986		8.746607	1.262941	-2.823004	-0.607903	-0.731394	-0.584316	-0.636135	0.416507	0.114437	-0.775879	-0.023193	0.569580	0.087400	0.012589	-0.028452	0.009753	-0.782149	-0.065749	-0.619536	164.082277	-76.029769	22.084228
39987		9.065306	0.895597	-2.045521	0.127793	-0.262921	-0.481001	-0.784242	0.423135	0.124120	-0.782227	-0.022705	0.558838	0.090604	0.008931	-0.020682	0.007229	-0.780943	-0.062770	-0.621399	163.663563	-76.278676	22.051651
39988		9.160463	0.245750	-2.049973	0.032293	0.389696	-0.430586	-0.962880	0.401074	0.153804	-0.783936	-0.029541	0.554199	0.091561	0.002429	-0.020695	0.004087	-0.779803	-0.059114	-0.623214	163.217188	-76.520108	21.941316
39989		9.127716	-0.153656	-0.901281	1.067272	0.872306	-0.743451	-0.871424	0.366833	0.125167	-0.790283	-0.030762	0.548828	0.091261	-0.001519	-0.009174	0.001208	-0.778739	-0.055860	-0.624855	162.775770	-76.738432	21.880799
39990		9.588160	-0.842364	-0.962092	1.019849	1.587433	-0.325436	-0.869197	0.296001	0.078709	-0.783203	-0.038574	0.550781	0.095871	-0.008428	-0.009726	-0.001833	-0.777867	-0.052788	-0.626205	162.272057	-76.909919	21.884762
39991		9.793544	-1.097717	-0.402092	1.570075	1.892530	-0.261073	-0.610833	0.249188	0.021276	-0.792725	-0.032471	0.548340	0.097932	-0.010979	-0.004109	-0.004055	-0.777115	-0.050752	-0.627296	161.810862	-77.045972	21.997879
39992		9.589091	-0.523607	-0.107639	1.841964	1.320908	-0.480015	-0.526224	0.186957	-0.024631	-0.792480	-0.037354	0.544678	0.095889	-0.005251	-0.001152	-0.006114	-0.776543	-0.049153	-0.628115	161.332274	-77.139457	22.177719
39993		9.558373	-0.122003	0.011485	1.967558	0.927929	-0.504349	-0.403891	0.115587	-0.065857	-0.792725	-0.042725	0.545898	0.095583	-0.001251	0.000062	-0.007840	-0.776182	-0.048100	-0.628623	160.879769	-77.186486	22.403447
39994		9.593484	0.382172	-0.064458	1.925599	0.432173	-0.416388	-0.380480	0.049172	-0.099745	-0.784668	-0.050293	0.540039	0.095937	0.003773	-0.000675	-0.009601	-0.776020	-0.047246	-0.628863	160.413222	-77.190602	22.656581
39995		9.645551	0.676029	-0.261428	1.758489	0.145847	-0.302248	-0.381405	-0.012124	-0.127144	-0.802246	-0.052979	0.543701	0.096460	0.006694	-0.002621	-0.011463	-0.776041	-0.046496	-0.628862	159.934004	-77.156063	22.922910
39996		9.361762	0.867391	-0.796326	1.189722	-0.076793	-0.452787	-0.419579	-0.066533	-0.143015	-0.781250	-0.058105	0.535400	0.093626	0.008590	-0.007950	-0.013541	-0.776224	-0.045679	-0.628654	159.444985	-77.088490	23.175950
39997		9.245292	1.086892	-1.100840	0.884662	-0.298929	-0.485491	-0.394192	-0.110939	-0.167223	-0.793457	-0.054688	0.544678	0.092468	0.010770	-0.010978	-0.015600	-0.776538	-0.045037	-0.628265	158.957860	-76.991872	23.443017
39998		9.377734	0.992348	-1.324207	0.697316	-0.180033	-0.317348	-0.299060	-0.137468	-0.184180	-0.796143	-0.058838	0.538818	0.093795	0.009817	-0.013192	-0.017355	-0.776937	-0.044753	-0.627746	158.515219	-76.876954	23.719593
39999		9.229291	1.490403	-1.428454	0.599398	-0.670783	-0.398214	-0.259977	-0.160782	-0.203046	-0.791260	-0.060303	0.552490	0.092319	0.014792	-0.014230	-0.019017	-0.777404	-0.044668	-0.627125	158.079894	-76.745279	24.012686
40000		9.291826	1.576191	-1.486421	0.573038	-0.729438	-0.316828	-0.231911	-0.190278	-0.205458	-0.794922	-0.066406	0.538086	0.092948	0.015649	-0.014794	-0.020589	-0.777964	-0.044674	-0.626380	157.688879	-76.596828	24.276188
40001		9.440333	1.113173	-1.738685	0.353617	-0.238625	-0.158672	-0.207908	-0.193281	-0.188236	-0.781006	-0.067139	0.544434	0.094430	0.011025	-0.017307	-0.022009	-0.778537	-0.044691	-0.625619	157.359565	-76.450301	24.491296
40002		9.206767	1.279149	-1.970238	0.101479	-0.409878	-0.320361	-0.276619	-0.208652	-0.178098	-0.792480	-0.070068	0.545166	0.092099	0.012682	-0.019624	-0.023674	-0.779150	-0.044447	-0.624811	157.032509	-76.297505	24.662910
40003		9.301355	1.123382	-2.152930	-0.045336	-0.226365	-0.202332	-0.335395	-0.221505	-0.173072	-0.781738	-0.073975	0.548828	0.093047	0.011117	-0.021445	-0.025549	-0.779794	-0.044003	-0.623965	156.700307	-76.138955	24.806058
40004		9.388027	0.852726	-2.553355	-0.408492	0.069095	-0.055121	-0.307439	-0.218992	-0.168529	-0.788330	-0.079834	0.559082	0.093915	0.008409	-0.025444	-0.027306	-0.780432	-0.043624	-0.623119	156.396223	-75.982454	24.936057
40005		9.621083	0.856073	-2.743393	-0.523044	0.110377	0.214200	-0.279808	-0.216298	-0.153299	-0.779785	-0.073242	0.547852	0.096247	0.008449	-0.027342	-0.028901	-0.781064	-0.043277	-0.622278	156.142185	-75.830847	25.031647
40006		9.790367	0.964342	-2.915629	-0.631001	0.040183	0.428518	-0.230572	-0.192369	-0.141369	-0.781982	-0.084961	0.551514	0.097938	0.009541	-0.029073	-0.030267	-0.781630	-0.043035	-0.621519	155.922118	-75.694322	25.120613
40007		9.691851	1.369762	-2.802256	-0.513295	-0.353338	0.349621	-0.180985	-0.179102	-0.136438	-0.783447	-0.087891	0.553711	0.096953	0.013606	-0.027948	-0.031416	-0.782161	-0.042934	-0.620801	155.731470	-75.565938	25.209334
40008		9.562894	1.503107	-3.065465	-0.779212	-0.484184	0.299864	-0.146653	-0.162410	-0.110312	-0.776611	-0.080078	0.552734	0.095662	0.014956	-0.030588	-0.032351	-0.782650	-0.042835	-0.620143	155.599779	-75.452240	25.256588
40009		9.375844	1.888259	-2.847935	-0.585601	-0.872445	0.110950	-0.153146	-0.151175	-0.099855	-0.780029	-0.096436	0.553955	0.093789	0.018814	-0.028423	-0.033272	-0.783103	-0.042682	-0.619532	155.476787	-75.346991	25.291970
40010		9.645097	1.758547	-2.899090	-0.565128	-0.701290	0.371315	-0.182722	-0.132354	-0.080556	-0.775879	-0.093262	0.553711	0.096477	0.017520	-0.028943	-0.034250	-0.783497	-0.042359	-0.619003	155.358783	-75.255978	25.303824
40011		9.448685	1.587055	-2.914310	-0.618375	-0.540652	0.168039	-0.146070	-0.121364	-0.068858	-0.774170	-0.093994	0.556152	0.094510	0.015817	-0.029097	-0.035040	-0.783864	-0.042112	-0.618511	155.275948	-75.173632	25.301897
40012		9.533675	1.298081	-2.884303	-0.565386	-0.234559	0.213303	-0.145562	-0.117867	-0.054006	-0.767090	-0.093262	0.550537	0.095357	0.012934	-0.028796	-0.035787	-0.784224	-0.041802	-0.618033	155.219312	-75.096502	25.272193
40013		9.558683	1.256449	-2.989269	-0.652191	-0.182473	0.258269	-0.059233	-0.097052	-0.051244	-0.768066	-0.092285	0.559814	0.095605	0.012531	-0.029850	-0.036178	-0.784534	-0.041758	-0.617620	155.199244	-75.031035	25.256796
40014		9.529195	1.437161	-2.742359	-0.405075	-0.360999	0.192167	-0.033177	-0.100773	-0.048960	-0.767334	-0.095215	0.553711	0.095309	0.014344	-0.027378	-0.036465	-0.784861	-0.041779	-0.617186	155.201456	-74.964005	25.232913
40015		9.665442	1.305083	-2.601721	-0.229465	-0.211726	0.276687	0.010143	-0.077863	-0.034744	-0.767578	-0.091064	0.552246	0.096667	0.013035	-0.025979	-0.036528	-0.785127	-0.041888	-0.616836	155.235737	-74.912482	25.202387
40016		9.401749	1.891996	-2.298257	0.023236	-0.822666	0.014682	-0.043893	-0.066880	-0.040103	-0.764648	-0.094971	0.550781	0.094029	0.018896	-0.022955	-0.036822	-0.785349	-0.041848	-0.616539	155.218448	-74.865203	25.192376
40017		9.449191	1.600751	-2.228367	0.101969	-0.523701	0.012310	-0.190506	-0.068214	-0.018530	-0.761475	-0.092041	0.555664	0.094501	0.015978	-0.022267	-0.037621	-0.785551	-0.041276	-0.616272	155.160238	-74.822600	25.138556
40018		9.396626	1.491740	-2.526650	-0.198866	-0.412296	0.020740	-0.303415	-0.060086	-0.007131	-0.767822	-0.101074	0.563232	0.093974	0.014876	-0.025261	-0.038832	-0.785708	-0.040309	-0.616060	155.051589	-74.786806	25.069148
40019		9.311192	1.348415	-2.858942	-0.541699	-0.268321	0.001824	-0.255770	-0.053333	-0.004037	-0.774658	-0.100830	0.560303	0.093120	0.013446	-0.028582	-0.039839	-0.785853	-0.039481	-0.615865	154.970628	-74.755483	25.000133
40020		9.221734	1.352784	-2.860268	-0.561670	-0.276255	-0.083364	-0.195225	-0.043739	-0.008439	-0.767090	-0.102051	0.549316	0.092224	0.013496	-0.028596	-0.040626	-0.785978	-0.038854	-0.615693	154.906997	-74.727899	24.948128
40021		9.262814	1.303899	-2.827774	-0.518405	-0.218320	-0.056675	-0.144501	-0.034702	-0.018033	-0.769775	-0.098877	0.559570	0.092634	0.013010	-0.028271	-0.041235	-0.786083	-0.038428	-0.615545	154.846651	-74.702879	24.923814
40022		9.360432	1.187053	-2.745560	-0.413801	-0.088563	0.004940	-0.108776	-0.031102	-0.012804	-0.762451	-0.093506	0.558105	0.093609	0.011850	-0.027447	-0.041693	-0.786186	-0.038087	-0.615405	154.813067	-74.680803	24.892130
40023		9.361436	1.143681	-2.562186	-0.233727	-0.044899	-0.042700	-0.129773	-0.022942	-0.019709	-0.772217	-0.104736	0.563965	0.093618	0.011411	-0.025619	-0.042247	-0.786256	-0.037715	-0.615300	154.747599	-74.661480	24.881872
40024		9.530475	0.929075	-2.427995	-0.063200	0.189279	0.063976	-0.182269	-0.015743	-0.016978	-0.772217	-0.105957	0.561035	0.095307	0.009261	-0.024281	-0.043003	-0.786295	-0.037169	-0.615232	154.650453	-74.646351	24.872521
40025		9.300126	0.928843	-2.307289	-0.000643	0.166592	-0.187153	-0.174536	-0.013220	-0.025521	-0.773682	-0.104736	0.554932	0.093004	0.009256	-0.023075	-0.043749	-0.786324	-0.036684	-0.615171	154.539894	-74.630640	24.882425
40026		9.249216	1.028041	-2.269217	0.025488	0.067414	-0.234117	-0.182406	-0.024038	-0.031761	-0.765625	-0.107422	0.562744	0.092497	0.010245	-0.022690	-0.044554	-0.786383	-0.036193	-0.615066	154.422492	-74.607585	24.893866
40027		9.074583	1.162545	-2.321448	-0.065060	-0.077645	-0.374551	-0.179401	-0.036935	-0.042196	-0.771484	-0.106445	0.553467	0.090753	0.011585	-0.023208	-0.045374	-0.786480	-0.035753	-0.614909	154.299490	-74.575480	24.913788
40028		9.088960	1.105346	-2.237713	0.022795	-0.013701	-0.387316	-0.189544	-0.052260	-0.053609	-0.768555	-0.103760	0.559570	0.090898	0.011008	-0.022364	-0.046279	-0.786619	-0.035319	-0.614688	154.163068	-74.532404	24.940737
40029		9.236115	0.895979	-2.312484	-0.008864	0.221529	-0.251985	-0.157402	-0.068859	-0.063972	-0.765869	-0.116699	0.556885	0.092372	0.008912	-0.023100	-0.047086	-0.786813	-0.035026	-0.614395	154.041637	-74.478372	24.972116
40030		9.375448	0.724092	-2.317572	0.027172	0.417143	-0.136959	-0.110893	-0.070942	-0.080257	-0.766357	-0.116211	0.555176	0.093766	0.007190	-0.023146	-0.047766	-0.787023	-0.034934	-0.614079	153.918716	-74.418949	25.031813
40031		9.470850	0.668817	-2.197531	0.174936	0.487750	-0.081041	-0.045807	-0.081400	-0.086290	-0.757080	-0.111328	0.562988	0.094720	0.006642	-0.021938	-0.048204	-0.787277	-0.035067	-0.613711	153.832471	-74.352802	25.093065
40032		9.508329	0.695566	-2.226814	0.164610	0.474234	-0.035222	0.020977	-0.082509	-0.091000	-0.760498	-0.110352	0.558350	0.095096	0.006915	-0.022228	-0.048401	-0.787551	-0.035419	-0.613324	153.777027	-74.284670	25.161112
40033		9.253088	0.904275	-2.422807	-0.078553	0.251474	-0.208630	0.057533	-0.098061	-0.106184	-0.768066	-0.107666	0.558350	0.092548	0.009001	-0.024180	-0.048496	-0.787877	-0.035944	-0.612867	153.729774	-74.204885	25.243413
40034		9.310516	1.072731	-2.517360	-0.144112	0.101598	-0.109984	0.096384	-0.119819	-0.116399	-0.765381	-0.108643	0.560791	0.093126	0.010685	-0.025113	-0.048479	-0.788278	-0.036620	-0.612313	153.706037	-74.111124	25.323738
40035		9.226810	1.002061	-2.631196	-0.260523	0.172690	-0.170922	0.163291	-0.129454	-0.127686	-0.767334	-0.104980	0.563477	0.092291	0.009983	-0.026244	-0.048229	-0.788721	-0.037546	-0.611706	153.709788	-74.009738	25.416089
40036		9.599658	1.119286	-2.413336	0.059456	0.100646	0.148073	0.218233	-0.136295	-0.133970	-0.766602	-0.105469	0.559326	0.096020	0.011155	-0.024056	-0.047787	-0.789196	-0.038660	-0.611058	153.740031	-73.903058	25.513100
40037		9.720280	1.224042	-2.392174	0.127507	0.015419	0.271365	0.310273	-0.121529	-0.116557	-0.760986	-0.107178	0.567383	0.097224	0.012221	-0.023844	-0.046921	-0.789648	-0.039994	-0.610455	153.841513	-73.808599	25.591475
40038		9.790128	1.570758	-2.370767	0.185435	-0.317838	0.375492	0.321219	-0.117721	-0.113842	-0.756836	-0.113525	0.569824	0.097924	0.015690	-0.023625	-0.046008	-0.790090	-0.041347	-0.609862	153.950325	-73.716632	25.668191
40039		9.396558	1.505940	-2.760116	-0.273059	-0.292103	0.087893	0.381246	-0.118436	-0.101255	-0.755859	-0.112793	0.567871	0.093990	0.015064	-0.027517	-0.044814	-0.790547	-0.042837	-0.609255	154.116259	-73.627698	25.721851
40040		9.355099	1.388514	-2.829382	-0.332614	-0.181900	0.051769	0.478148	-0.130944	-0.112007	-0.757813	-0.107666	0.578369	0.093577	0.013900	-0.028199	-0.043280	-0.791059	-0.044655	-0.608571	154.328403	-73.529469	25.784232
40041		9.627585	1.647477	-2.946301	-0.348855	-0.408949	0.375358	0.598599	-0.134726	-0.112297	-0.756348	-0.108643	0.579346	0.096305	0.016509	-0.029349	-0.041263	-0.791600	-0.046846	-0.607842	154.611536	-73.429504	25.845596
40042		9.637910	1.699504	-3.051651	-0.421603	-0.467816	0.419299	0.688364	-0.125593	-0.098405	-0.753174	-0.106445	0.576660	0.096407	0.017052	-0.030397	-0.038853	-0.792128	-0.049251	-0.607122	154.960934	-73.337545	25.890544
40043		9.485381	1.433046	-2.899623	-0.296995	-0.235813	0.201803	0.802503	-0.123338	-0.095691	-0.750732	-0.093262	0.577637	0.094879	0.014401	-0.028880	-0.035975	-0.792659	-0.051996	-0.606377	155.377172	-73.247718	25.934975
40044		9.675187	1.164496	-2.939214	-0.271311	0.038297	0.362239	0.896586	-0.129325	-0.086907	-0.754639	-0.088135	0.588867	0.096776	0.011734	-0.029277	-0.032705	-0.793214	-0.054985	-0.605572	155.864740	-73.156734	25.960324
40045		9.411427	1.531946	-2.802800	-0.163653	-0.375726	0.117542	0.964874	-0.132597	-0.086017	-0.750488	-0.082520	0.584961	0.094139	0.015414	-0.027891	-0.029155	-0.793772	-0.058180	-0.604724	156.393308	-73.064525	25.984629
40046		9.325969	1.449689	-2.654809	-0.018995	-0.319399	-0.013665	0.958868	-0.134666	-0.078813	-0.752197	-0.074707	0.585449	0.093283	0.014587	-0.026415	-0.025612	-0.794319	-0.061323	-0.603854	156.929446	-72.972712	25.996762
40047		9.229092	1.123684	-2.400270	0.205968	-0.015999	-0.212825	0.957350	-0.136295	-0.086957	-0.750244	-0.069580	0.592041	0.092312	0.011311	-0.023886	-0.022094	-0.794849	-0.064496	-0.602965	157.449477	-72.878487	26.025511
40048		9.422989	0.897648	-2.047982	0.603847	0.235764	-0.149745	0.943563	-0.149188	-0.085817	-0.747803	-0.064209	0.595215	0.094249	0.009032	-0.020367	-0.018636	-0.795399	-0.067617	-0.602014	157.969762	-72.777551	26.045208
40049		9.433786	0.657583	-1.759940	0.887339	0.480685	-0.246724	0.969229	-0.172416	-0.087029	-0.752441	-0.062256	0.596680	0.094356	0.006620	-0.017486	-0.015083	-0.796001	-0.070820	-0.600948	158.515920	-72.664261	26.053756
40050		9.495584	0.975360	-0.969035	1.719982	0.219719	-0.376068	0.917117	-0.225284	-0.097085	-0.743652	-0.063477	0.599365	0.094971	0.009751	-0.009539	-0.011789	-0.796737	-0.073897	-0.599675	159.046436	-72.520467	26.046801
40051		9.601976	0.939449	-0.658281	2.075761	0.295076	-0.372461	0.865567	-0.290989	-0.102699	-0.745361	-0.047607	0.606934	0.096034	0.009373	-0.006402	-0.008738	-0.797647	-0.076839	-0.598146	159.575949	-72.340516	26.010521
40052		9.405668	1.250543	0.109945	2.830572	0.033046	-0.755694	0.763665	-0.379270	-0.139266	-0.743164	-0.043701	0.602783	0.094063	0.012435	0.001325	-0.006242	-0.798787	-0.079613	-0.596291	160.034589	-72.105569	25.986569
40053		9.575105	1.032403	0.840178	3.593301	0.353294	-0.845107	0.608382	-0.491433	-0.155885	-0.735107	-0.040771	0.609863	0.095738	0.010223	0.008668	-0.004454	-0.800235	-0.081989	-0.594039	160.438029	-71.807078	25.927809
40054		9.836201	0.952872	1.205308	4.056356	0.526321	-0.736336	0.488873	-0.593124	-0.192482	-0.734619	-0.030762	0.625488	0.098335	0.009404	0.012368	-0.003298	-0.801955	-0.084152	-0.591418	160.764627	-71.446453	25.877317
40055		11.087200	0.627705	1.062600	4.299690	1.039080	0.428481	0.258280	-0.700062	-0.243930	-0.722412	-0.041748	0.624512	0.110841	0.006128	0.011022	-0.003261	-0.803953	-0.085837	-0.588456	160.930960	-71.018315	25.856875
40056		12.542575	-0.144261	0.272840	3.955099	1.968213	1.930133	-0.265695	-0.796753	-0.267111	-0.717285	-0.042236	0.631836	0.125411	-0.001606	0.003230	-0.005443	-0.806203	-0.086069	-0.585319	160.811865	-70.533397	25.820293
40057		12.319516	-2.252860	-1.738532	1.802341	3.867464	2.089485	0.069641	-0.837702	-0.249244	-0.717285	-0.047363	0.637695	0.123238	-0.022676	-0.016877	-0.006235	-0.808574	-0.087210	-0.581863	160.932673	-70.029752	25.733277
40058		11.757327	-1.914238	-1.946967	1.576595	3.474145	1.638658	-0.023328	-0.902459	-0.306341	-0.715332	-0.048096	0.641113	0.117630	-0.019325	-0.018937	-0.007601	-0.811088	-0.088303	-0.578171	160.944979	-69.480330	25.704167
40059		11.465995	-1.644290	-2.607895	1.002591	3.150469	1.590913	0.197064	-0.972367	-0.338129	-0.701416	-0.038086	0.650879	0.114757	-0.016612	-0.025537	-0.008192	-0.813778	-0.090162	-0.574082	161.070359	-68.887086	25.689749
40060		11.586239	-0.858311	-2.211928	1.630551	2.480127	1.635418	0.153377	-1.061323	-0.364820	-0.700684	-0.041748	0.659180	0.115962	-0.008778	-0.021511	-0.009080	-0.816684	-0.091994	-0.569633	161.172274	-68.240743	25.673164
40061		11.438052	-0.797429	-1.936449	1.965979	2.475737	1.377433	0.100755	-1.149600	-0.404324	-0.693359	-0.045410	0.661377	0.114473	-0.008196	-0.018711	-0.010333	-0.819793	-0.093833	-0.564825	161.228864	-67.539132	25.673305
40062		11.572663	-1.062576	-1.044815	2.927401	2.897722	1.104221	0.096828	-1.228665	-0.443611	-0.677002	-0.053467	0.667725	0.115764	-0.010878	-0.009742	-0.011751	-0.823073	-0.095812	-0.559671	161.265748	-66.787532	25.692078
40063		11.353340	-0.665498	-0.421410	3.611548	2.589911	0.664230	-0.236366	-1.287824	-0.481201	-0.676758	-0.055664	0.679688	0.113541	-0.006933	-0.003475	-0.014672	-0.826444	-0.097008	-0.554405	161.092848	-65.996750	25.731869
40064		11.280427	-0.707897	-0.592658	3.553257	2.673826	0.595153	-0.462964	-1.322616	-0.521302	-0.659424	-0.059570	0.684326	0.112821	-0.007386	-0.005164	-0.018659	-0.829831	-0.097729	-0.549074	160.765421	-65.179751	25.798395
40065		10.947748	-0.002307	-0.388481	3.843827	2.010230	0.246438	-0.559659	-1.312846	-0.573766	-0.645264	-0.067139	0.689209	0.109499	-0.000347	-0.003165	-0.023183	-0.833109	-0.098402	-0.543792	160.332401	-64.357662	25.921481
40066		10.750031	0.996751	-0.514142	3.911575	1.062442	0.206791	-1.036425	-1.318970	-0.614694	-0.634277	-0.081543	0.699707	0.107561	0.009613	-0.004483	-0.029807	-0.836269	-0.097938	-0.538678	159.604700	-63.524017	26.068884
40067		10.489723	0.847705	-1.811756	2.727320	1.175318	0.444680	-1.050943	-1.301201	-0.690862	-0.621826	-0.092529	0.701172	0.105041	0.008021	-0.017477	-0.036684	-0.839274	-0.097752	-0.533589	158.807779	-62.683346	26.286136
40068		9.798319	1.743929	-2.201147	2.315690	0.242745	0.110525	-0.832169	-1.294179	-0.752324	-0.613281	-0.110596	0.712646	0.098188	0.016980	-0.021448	-0.042804	-0.842205	-0.098395	-0.528372	158.098928	-61.832560	26.546430
40069		9.314571	2.362840	-3.347277	1.262552	-0.389242	0.276953	-0.916106	-1.301494	-0.828755	-0.600830	-0.119385	0.718506	0.093458	0.023090	-0.032972	-0.049476	-0.845035	-0.099135	-0.523106	157.299461	-60.959457	26.858009
40070		9.368746	2.359059	-3.858395	0.934848	-0.262526	0.544952	-0.743681	-1.257910	-0.856130	-0.590576	-0.123779	0.725098	0.094027	0.023046	-0.038080	-0.055470	-0.847715	-0.100437	-0.517894	156.585762	-60.101621	27.186105
40071		9.200421	2.621562	-4.798290	0.157449	-0.438845	0.879566	-0.820643	-1.163683	-0.846354	-0.580322	-0.140869	0.715332	0.092391	0.025629	-0.047552	-0.061710	-0.850076	-0.101525	-0.513084	155.827998	-59.293109	27.517998
40072		8.423827	3.193698	-5.953855	-1.058262	-1.050388	0.882345	-0.606747	-1.072779	-0.811629	-0.566650	-0.140625	0.727783	0.084685	0.031414	-0.059181	-0.066905	-0.852234	-0.103029	-0.508533	155.211756	-58.538648	27.829613
40073		7.669820	3.458289	-6.558251	-1.822418	-1.366093	0.608799	-0.594164	-0.993198	-0.767446	-0.568604	-0.152100	0.735596	0.077154	0.034093	-0.065302	-0.071886	-0.854173	-0.104405	-0.504302	154.628954	-57.834215	28.113635
40074		7.394366	3.060342	-7.240044	-2.509276	-0.930584	0.641818	-0.383102	-0.912109	-0.718318	-0.556396	-0.161133	0.730713	0.074382	0.030198	-0.072120	-0.075798	-0.855972	-0.106124	-0.500304	154.191418	-57.182857	28.370346
40075		7.558161	1.785512	-7.246558	-2.493823	0.425515	0.503582	-0.103459	-0.740436	-0.596669	-0.546875	-0.167969	0.739014	0.075902	0.017592	-0.072194	-0.078114	-0.857487	-0.108088	-0.496922	153.955204	-56.649316	28.580313
40076		8.243377	-0.697709	-4.743232	-0.201797	2.973183	-0.754118	0.380234	-0.386456	-0.335942	-0.535400	-0.163574	0.751221	0.082513	-0.007026	-0.047286	-0.077519	-0.858438	-0.110266	-0.494891	154.068211	-56.363691	28.704051
40077		7.297825	-0.787055	-4.632259	-0.558520	2.802484	-1.616979	0.673230	-0.027023	-0.187347	-0.531738	-0.163086	0.749268	0.072977	-0.007783	-0.046339	-0.075096	-0.858685	-0.112675	-0.494291	154.329008	-56.300486	28.852954
40078		5.945420	1.149223	-3.381337	0.096585	0.534225	-2.898397	0.811613	0.227124	-0.140612	-0.544434	-0.155518	0.737305	0.059424	0.011588	-0.033834	-0.071823	-0.858370	-0.115312	-0.494717	154.610595	-56.380894	29.071154
40079		6.854579	0.123697	-3.703176	0.109843	1.743355	-2.219102	0.802864	0.483574	-0.028873	-0.541260	-0.159912	0.740723	0.068456	0.001376	-0.037192	-0.068159	-0.857465	-0.117545	-0.496277	154.879456	-56.621806	29.299165
40080		7.514841	0.999407	-3.214804	0.927205	1.039865	-1.696949	0.832250	0.753928	0.141775	-0.550781	-0.143799	0.746826	0.075019	0.010182	-0.032389	-0.063788	-0.855977	-0.119200	-0.499026	155.200216	-57.045350	29.483368
40081		7.568277	0.578270	-3.564490	0.529223	1.401953	-1.562085	0.840832	1.016036	0.338286	-0.557617	-0.131104	0.733643	0.075490	0.006061	-0.036004	-0.058727	-0.853921	-0.120123	-0.502932	155.589111	-57.652638	29.592470
40082		7.527832	0.332660	-3.195532	0.716240	1.562066	-1.810437	0.866293	1.263698	0.565533	-0.569092	-0.129395	0.732422	0.075064	0.003679	-0.032415	-0.052837	-0.851338	-0.120199	-0.507922	156.095059	-58.443444	29.579159
40083		7.451838	0.592570	-3.037173	0.763919	1.208543	-1.871679	0.781249	1.490215	0.751257	-0.585205	-0.112305	0.735352	0.074266	0.006325	-0.030902	-0.046695	-0.848205	-0.119326	-0.513935	156.640094	-59.395394	29.464256
40084		7.514319	0.660750	-2.892585	0.820223	1.064007	-1.846408	0.701606	1.670948	0.924245	-0.594727	-0.107910	0.718018	0.074866	0.007057	-0.029528	-0.040337	-0.844612	-0.117537	-0.520757	157.247645	-60.481139	29.224678
40085		7.671382	0.415289	-2.982129	0.645152	1.222093	-1.688452	0.569859	1.844944	1.067439	-0.619385	-0.098877	0.709473	0.076411	0.004648	-0.030514	-0.034052	-0.840530	-0.114831	-0.528360	157.879205	-61.688651	28.875060
40086		8.029662	0.016239	-3.044460	0.534385	1.562761	-1.385749	0.492173	1.974103	1.175205	-0.619873	-0.083252	0.704834	0.079988	0.000709	-0.031234	-0.027735	-0.836046	-0.111465	-0.536502	158.566264	-62.986128	28.415569
40087		8.904232	-0.329098	-3.327967	0.411360	1.924966	-0.507332	0.474700	2.095788	1.256343	-0.647461	-0.072754	0.685791	0.088705	-0.002653	-0.034217	-0.021197	-0.831156	-0.107723	-0.545093	159.337802	-64.362205	27.857140
40088		9.577086	-0.008334	-3.561655	0.318456	1.562169	0.279792	0.534708	2.218443	1.352931	-0.658203	-0.063232	0.670410	0.095365	0.000660	-0.036675	-0.014081	-0.825853	-0.103729	-0.554084	160.280546	-65.819868	27.153473
40089		9.668795	0.391305	-3.625288	0.150721	0.995880	0.471284	0.578987	2.316990	1.426069	-0.690430	-0.047607	0.663818	0.096228	0.004707	-0.037357	-0.006522	-0.820166	-0.099553	-0.563360	161.403586	-67.338686	26.290121
40090		9.711974	0.623545	-3.400829	0.196016	0.603232	0.476501	0.585700	2.391680	1.441524	-0.703125	-0.032715	0.638428	0.096655	0.007035	-0.035146	0.001142	-0.814114	-0.095306	-0.572830	162.659229	-68.893903	25.296623
40091		9.964220	0.735267	-3.355796	0.115567	0.336437	0.720748	0.545911	2.454342	1.483026	-0.712891	-0.030029	0.636475	0.099162	0.008183	-0.034755	0.008797	-0.807734	-0.090764	-0.582452	164.102726	-70.480816	24.089999
40092		10.224593	0.598868	-3.525523	-0.218362	0.274311	1.013147	0.550683	2.497381	1.529685	-0.733398	-0.011230	0.614014	0.101745	0.006868	-0.036510	0.016619	-0.801073	-0.086017	-0.592121	165.840904	-72.086665	22.585799
40093		10.491357	0.200254	-4.108401	-0.998944	0.392796	1.404504	0.864687	2.533453	1.558574	-0.750244	0.012207	0.601807	0.104361	0.002999	-0.042397	0.025802	-0.794108	-0.082071	-0.601657	168.121403	-73.698177	20.717273
40094		10.972330	0.421215	-3.381609	-0.395367	0.073919	1.669129	1.149306	2.574912	1.564068	-0.775146	0.022949	0.582520	0.109238	0.005267	-0.035196	0.036136	-0.786785	-0.078923	-0.611093	171.018273	-75.307609	18.392558
40095		11.089385	0.468094	-3.120438	-0.364142	-0.181543	1.709205	1.109099	2.620964	1.587968	-0.790283	0.047119	0.561035	0.110430	0.005737	-0.032624	0.046399	-0.779133	-0.075540	-0.620559	174.565892	-76.907375	15.391996
40096		10.898102	-0.019010	-3.320906	-0.940819	-0.007723	1.540767	1.070310	2.650890	1.600107	-0.802979	0.058105	0.543945	0.108524	0.000862	-0.034647	0.056541	-0.771192	-0.071952	-0.629991	179.010978	-78.471304	11.468178
40097		10.650791	-0.209936	-3.063780	-1.031212	-0.041052	1.223362	1.085180	2.667477	1.568673	-0.818604	0.078369	0.524414	0.106098	-0.001095	-0.032062	0.066639	-0.762978	-0.068518	-0.639319	-175.365373	-79.966081	6.375987
40098		10.490556	0.249633	-2.153433	-0.339957	-0.564711	0.878779	1.042518	2.679413	1.490353	-0.827393	0.096680	0.513184	0.104582	0.003394	-0.022921	0.076302	-0.754511	-0.065213	-0.648566	-168.265632	-81.360395	-0.215560
40099		9.892082	1.411079	-1.843947	-0.134260	-1.854543	0.176291	0.807170	2.666930	1.350643	-0.841064	0.103271	0.481689	0.098565	0.014855	-0.019696	0.084608	-0.745940	-0.061672	-0.657732	-159.474980	-82.609827	-8.626084
40100		8.694418	1.567755	-2.252902	-0.854640	-2.249108	-1.018816	0.843815	2.518333	1.198142	-0.857910	0.118164	0.458008	0.086556	0.016295	-0.023553	0.092476	-0.737627	-0.058857	-0.666252	-148.626053	-83.603829	-19.068946
40101		8.585669	1.570445	-1.231270	-0.040988	-2.179799	-1.272250	1.195252	2.306052	1.057438	-0.860107	0.131836	0.450684	0.085623	0.016235	-0.013205	0.101099	-0.729667	-0.057829	-0.673811	-135.775747	-84.272590	-31.303081
40102		8.847873	1.622115	-0.092758	0.947688	-2.117886	-1.121422	0.867871	2.093783	0.945103	-0.871338	0.147949	0.426270	0.088385	0.016645	-0.001782	0.108059	-0.722428	-0.056194	-0.680635	-122.184702	-84.600842	-44.461146
40103		8.959030	0.796617	-0.161930	0.552660	-1.455276	-0.952722	0.505218	1.919354	0.793632	-0.888428	0.151855	0.411377	0.089537	0.008327	-0.002458	0.113142	-0.715841	-0.053971	-0.686919	-109.255323	-84.661441	-57.157301
40104		8.488909	0.949158	0.123329	0.705254	-1.595436	-1.450095	0.287010	1.719327	0.608339	-0.898193	0.166504	0.401611	0.084866	0.009749	0.000518	0.116730	-0.709943	-0.051757	-0.692586	-98.106315	-84.548647	-68.193342
40105		8.029385	0.592594	-0.459590	-0.075240	-1.419568	-1.874715	0.051720	1.421376	0.405727	-0.896240	0.165527	0.381348	0.080246	0.006090	-0.005165	0.118708	-0.705113	-0.049630	-0.697324	-89.589145	-84.364980	-76.721611
40106		7.803978	0.274498	-0.480300	-0.267190	-1.144559	-2.077960	0.146765	1.148870	0.241249	-0.889404	0.166016	0.374756	0.078007	0.002843	-0.005249	0.120364	-0.701104	-0.048563	-0.701147	-83.096371	-84.179597	-83.165204
40107		8.134139	1.125519	0.198662	0.524467	-1.870193	-1.831623	0.218835	0.887834	0.063831	-0.905273	0.168701	0.366211	0.081346	0.011279	0.001638	0.121594	-0.697905	-0.048537	-0.704122	-78.217395	-84.056271	-87.944940
40108		8.066048	2.222225	-0.950578	-0.392198	-3.206303	-2.036537	-0.610376	0.551881	-0.119779	-0.905762	0.161377	0.371094	0.080647	0.022144	-0.009796	0.119189	-0.696334	-0.046425	-0.706227	-75.523174	-84.047135	-91.008316
40109		6.245488	1.963798	-2.816279	-2.308858	-3.184451	-3.869428	-0.723735	0.169019	-0.259571	-0.906006	0.157471	0.359131	0.062456	0.019455	-0.028286	0.115816	-0.696140	-0.044638	-0.707095	-74.727782	-84.162103	-92.225826
40110		6.613648	2.248302	-3.481798	-2.920462	-3.602334	-3.534803	-1.106409	-0.279480	-0.404107	-0.898682	0.148438	0.371094	0.066230	0.022157	-0.034849	0.110484	-0.697702	-0.042247	-0.706555	-76.400996	-84.422333	-91.184477
40111		7.099954	3.093663	-3.954439	-3.218305	-4.499658	-3.103557	-1.309248	-0.632352	-0.563461	-0.895508	0.142578	0.371094	0.071211	0.030477	-0.039520	0.103815	-0.700556	-0.039901	-0.704877	-80.294009	-84.807549	-88.028719
40112		6.789652	4.797669	-4.641602	-3.577759	-6.167470	-3.502282	-1.901363	-1.039591	-0.732641	-0.893555	0.127441	0.374512	0.068312	0.047285	-0.046513	0.094372	-0.705051	-0.036257	-0.701913	-87.785755	-85.282863	-81.605402
40113		7.907940	4.463954	-5.221695	-4.245443	-5.878992	-2.253754	-2.866310	-1.363214	-0.777330	-0.888916	0.103027	0.400635	0.079606	0.043582	-0.052305	0.081306	-0.710988	-0.029541	-0.697863	-99.729691	-85.671797	-71.272843
40114		11.658828	-1.517121	-3.846483	-3.668422	0.149673	2.000031	-2.647734	-1.298623	-0.499355	-0.875732	0.084473	0.405762	0.116795	-0.015963	-0.037499	0.069964	-0.716478	-0.022556	-0.693726	-111.883023	-85.738176	-60.609680
40115		12.967989	-5.040109	-4.860166	-4.878890	3.601642	3.618978	-2.411716	-1.015694	-0.347694	-0.867920	0.077148	0.414063	0.129834	-0.051203	-0.047328	0.060024	-0.720777	-0.015753	-0.690383	-121.397569	-85.647686	-52.455020
40116		10.442927	-2.642719	-6.376480	-6.065775	1.391263	1.048474	-1.805133	-0.917350	-0.468466	-0.870605	0.067627	0.417480	0.104656	-0.027243	-0.063042	0.051839	-0.724444	-0.011436	-0.687287	-130.037015	-85.551077	-44.830347
40117		9.009856	-2.176095	-5.917332	-5.520185	1.213810	-0.379854	-1.450141	-1.114028	-0.738295	-0.859131	0.047363	0.428955	0.090343	-0.022520	-0.058509	0.044009	-0.728604	-0.009376	-0.683455	-140.343865	-85.388020	-35.325837
40118		13.079869	-5.099322	-4.803812	-4.211789	4.179577	3.786948	-0.994156	-1.018083	-0.739304	-0.856445	0.036133	0.432129	0.130850	-0.051713	-0.047116	0.037826	-0.732278	-0.008847	-0.679897	-149.153685	-85.147916	-27.060382
40119		12.960328	-0.167713	-3.970852	-2.949888	-0.552409	3.406908	-0.201113	-0.586754	-0.630051	-0.850342	0.034424	0.441162	0.129713	-0.002125	-0.039326	0.034948	-0.734309	-0.010541	-0.677833	-154.783194	-85.013227	-21.526764
40120		9.211337	6.560470	-4.401053	-3.212801	-7.085560	-0.499814	-0.406255	-0.461756	-0.683859	-0.853027	0.026367	0.446533	0.092438	0.065200	-0.043930	0.031128	-0.735935	-0.011705	-0.676235	-160.241667	-84.911303	-16.283693
40121		7.840088	4.893506	-5.742198	-4.750016	-5.381359	-1.635690	-0.750631	-0.552978	-0.750349	-0.849609	0.010742	0.451904	0.078742	0.048425	-0.057387	0.025821	-0.737898	-0.011974	-0.674312	-166.181925	-84.725084	-10.751964
40122		10.067672	0.614352	-5.074587	-4.085230	-1.015241	0.664248	-0.465993	-0.449840	-0.660492	-0.852783	0.010742	0.451660	0.100810	0.005693	-0.050533	0.021860	-0.739462	-0.012847	-0.672721	-170.901317	-84.540909	-6.282956
40123		10.826351	1.456950	-5.121774	-3.987780	-1.786645	1.433209	-0.235255	-0.243471	-0.532151	-0.852539	0.015869	0.450439	0.108364	0.014221	-0.051103	0.019210	-0.740302	-0.014009	-0.671854	-174.307755	-84.435619	-2.997138
40124		10.881383	2.088297	-5.478171	-4.287594	-2.378040	1.533550	0.148688	-0.123168	-0.469907	-0.842529	-0.002441	0.453613	0.108896	0.020668	-0.054699	0.018188	-0.740701	-0.016212	-0.671393	-176.971313	-84.379566	-0.237738
40125		11.162671	1.798219	-4.172749	-2.964759	-1.988017	1.698548	0.219856	-0.020124	-0.363998	-0.848145	-0.000488	0.445801	0.111663	0.017825	-0.041697	0.017803	-0.740750	-0.018259	-0.671296	-178.912759	-84.369846	1.838663
40126		10.384247	2.187539	-3.660448	-2.509999	-2.326543	0.878610	0.188940	0.064016	-0.291355	-0.840332	0.000732	0.444336	0.103863	0.021759	-0.036617	0.017543	-0.740526	-0.019916	-0.671503	179.550723	-84.401598	3.488496
40127		9.716585	1.804731	-3.208253	-2.150996	-1.900629	0.173439	0.042805	0.087430	-0.287168	-0.843750	-0.001465	0.454346	0.097178	0.017915	-0.032121	0.016771	-0.740233	-0.021074	-0.671811	177.936241	-84.442707	5.134283
40128		9.917450	0.239238	-3.289241	-2.306226	-0.314023	0.376266	-0.023376	0.114507	-0.273206	-0.843506	-0.005127	0.449951	0.099159	0.002253	-0.032949	0.015791	-0.739857	-0.021948	-0.672221	176.329703	-84.494797	6.732192
40129		9.789130	-0.267711	-3.094209	-2.166275	0.225269	0.223712	0.072633	0.162204	-0.266948	-0.844482	0.005127	0.452637	0.097862	-0.002796	-0.031022	0.015205	-0.739309	-0.023126	-0.672797	174.763570	-84.570537	8.346272
40130		9.824662	-0.330744	-2.987430	-2.078521	0.314991	0.244080	0.231355	0.188436	-0.282452	-0.851318	-0.003662	0.449219	0.098214	-0.003412	-0.029971	0.015146	-0.738660	-0.024886	-0.673449	173.128878	-84.655503	10.118835
40131		9.852309	0.083091	-2.359019	-1.448293	-0.044884	0.214288	0.365232	0.216975	-0.277357	-0.847412	-0.003906	0.449707	0.098498	0.000738	-0.023696	0.015613	-0.737898	-0.027083	-0.674188	171.525800	-84.752797	11.937928
40132		9.761226	0.336257	-1.579863	-0.688401	-0.236393	0.054466	0.402703	0.242525	-0.255563	-0.852295	-0.004883	0.443848	0.097597	0.003270	-0.015910	0.016283	-0.737049	-0.029316	-0.675007	169.986281	-84.861393	13.712847
40133		9.766209	0.117911	-1.137200	-0.286067	0.026013	0.016014	0.466527	0.259659	-0.248130	-0.848389	-0.005371	0.445068	0.097649	0.001085	-0.011496	0.017227	-0.736129	-0.031743	-0.675877	168.441124	-84.976584	15.531438
40134		9.884174	0.090713	-0.516271	0.313117	0.116654	0.079729	0.594311	0.273336	-0.264710	-0.845215	-0.007080	0.438232	0.098836	0.000792	-0.005295	0.018576	-0.735145	-0.034653	-0.676769	166.761436	-85.092276	17.556594
40135		9.841147	0.277442	-0.248677	0.563129	-0.030429	0.019344	0.665330	0.277482	-0.253751	-0.861328	0.001709	0.439941	0.098411	0.002658	-0.002614	0.020235	-0.734129	-0.037770	-0.677656	165.102889	-85.207185	19.602661
40136		9.576436	0.761479	0.018781	0.824808	-0.477639	-0.253409	0.657337	0.259400	-0.246930	-0.858154	0.002197	0.433594	0.095774	0.007496	0.000088	0.021874	-0.733170	-0.040830	-0.678466	163.430882	-85.307562	21.655794
40137		9.707158	1.261190	0.356020	1.196414	-0.919783	-0.134424	0.544882	0.219113	-0.236327	-0.856201	0.000244	0.444824	0.097090	0.012488	0.003488	0.023138	-0.732350	-0.043480	-0.679145	161.778704	-85.383301	23.625650
40138		9.674472	1.452250	0.660851	1.498807	-1.060897	-0.181012	0.067229	0.174787	-0.233409	-0.865723	-0.003418	0.435059	0.096767	0.014407	0.006529	0.022643	-0.731735	-0.044496	-0.679758	159.920100	-85.430113	25.526464
40139		9.392860	0.911648	0.478025	1.229841	-0.530027	-0.458975	-0.261262	0.116068	-0.235648	-0.860596	0.004150	0.440918	0.093942	0.009012	0.004714	0.020936	-0.731351	-0.044417	-0.680231	157.981003	-85.440540	27.320547
40140		9.475635	0.236799	0.519803	1.203516	0.167631	-0.397948	-0.204307	0.062693	-0.233480	-0.856934	-0.001709	0.440918	0.094761	0.002263	0.005166	0.019424	-0.731145	-0.044523	-0.680491	156.235066	-85.418147	28.952334
40141		9.489439	0.456853	1.052360	1.749297	0.017250	-0.415601	-0.133631	-0.002398	-0.254689	-0.861328	-0.007568	0.435059	0.094900	0.004455	0.010522	0.018092	-0.731143	-0.044959	-0.680500	154.610655	-85.353498	30.504197
40142		9.571616	0.823834	1.442192	2.176408	-0.288532	-0.349368	-0.183522	-0.058973	-0.263340	-0.869385	-0.009033	0.434082	0.095723	0.008126	0.014443	0.016527	-0.731338	-0.045257	-0.680311	153.125039	-85.253681	31.887070
40143		9.613898	0.645467	1.301814	2.029924	-0.098586	-0.304374	-0.169575	-0.111902	-0.265792	-0.849365	-0.006348	0.441650	0.096140	0.006338	0.013067	0.015001	-0.731707	-0.045621	-0.679926	151.862078	-85.124148	33.055977
40144		9.310724	0.823890	1.409960	2.141893	-0.256914	-0.609286	-0.162309	-0.161992	-0.294174	-0.866211	-0.017578	0.439209	0.093108	0.008113	0.014168	0.013386	-0.732238	-0.046112	-0.679354	150.663878	-84.959090	34.163276
40145		9.379349	0.596537	0.971754	1.707289	-0.037682	-0.519894	-0.232673	-0.223525	-0.293774	-0.854980	-0.020508	0.439697	0.093791	0.005839	0.009816	0.011509	-0.732979	-0.046372	-0.678572	149.697485	-84.762248	34.998702
40146		9.436123	0.525221	0.557977	1.314339	0.031054	-0.437238	-0.124858	-0.251827	-0.312298	-0.853027	-0.022217	0.440430	0.094362	0.005108	0.005695	0.009948	-0.733803	-0.047060	-0.677657	148.848071	-84.544431	35.777696
40147		9.299832	0.828940	0.017514	0.815426	-0.290321	-0.516184	-0.084019	-0.298442	-0.331910	-0.859619	-0.030762	0.441650	0.093012	0.008135	0.000310	0.008468	-0.734774	-0.047967	-0.676561	148.131558	-84.297453	36.448233
40148		9.544881	0.790933	-0.368906	0.475290	-0.235465	-0.242687	-0.105237	-0.327961	-0.321391	-0.854492	-0.030029	0.446045	0.095467	0.007754	-0.003537	0.006930	-0.735845	-0.048759	-0.675357	147.594896	-84.038230	36.924784
40149		9.829530	0.489157	-1.115583	-0.237062	0.058357	0.089014	-0.004249	-0.331227	-0.311149	-0.852295	-0.036133	0.441162	0.098321	0.004738	-0.010993	0.005806	-0.736921	-0.049860	-0.674113	147.213238	-83.780646	37.305141
40150		9.503778	1.069737	-1.440966	-0.509724	-0.532667	-0.169100	0.046712	-0.334161	-0.330741	-0.848633	-0.037109	0.454590	0.095079	0.010544	-0.014248	0.004794	-0.737998	-0.051199	-0.672841	146.814301	-83.514851	37.731183
40151		9.742950	0.997995	-1.637459	-0.657191	-0.427836	0.086163	0.035651	-0.343842	-0.300727	-0.848633	-0.037109	0.453613	0.097472	0.009836	-0.016205	0.003849	-0.739110	-0.052395	-0.671533	146.590230	-83.254030	37.976300
40152		9.724614	0.807095	-1.971708	-0.974971	-0.235699	0.091903	0.121807	-0.300113	-0.282266	-0.856445	-0.041748	0.456299	0.097287	0.007946	-0.019566	0.003287	-0.740076	-0.053806	-0.670359	146.389746	-83.019350	38.246251
40153		9.365198	1.412706	-1.885755	-0.844122	-0.831194	-0.228576	0.132499	-0.287852	-0.293955	-0.847900	-0.038086	0.465332	0.093700	0.014002	-0.018713	0.002737	-0.740993	-0.055301	-0.669226	146.136698	-82.787152	38.576735
40154		9.841718	1.169672	-2.184716	-1.085860	-0.549502	0.262994	0.108970	-0.285581	-0.258014	-0.839600	-0.038574	0.462646	0.098463	0.011582	-0.021700	0.002213	-0.741911	-0.056579	-0.668103	146.012755	-82.566914	38.762433
40155		9.821422	1.036783	-2.384741	-1.269938	-0.411136	0.259073	0.213092	-0.248596	-0.260890	-0.835938	-0.040527	0.465820	0.098257	0.010265	-0.023714	0.002084	-0.742699	-0.058220	-0.667087	145.858593	-82.363731	39.040073
40156		9.586438	1.321565	-2.040683	-0.902217	-0.663560	0.013620	0.226084	-0.230469	-0.259117	-0.844971	-0.036377	0.481445	0.095905	0.013114	-0.020281	0.002007	-0.743426	-0.059892	-0.666129	145.686055	-82.169085	39.342848
40157		10.038556	0.814082	-2.149664	-0.985774	-0.109680	0.437803	0.249666	-0.197322	-0.218411	-0.842529	-0.040039	0.474609	0.100416	0.008058	-0.021387	0.002171	-0.744048	-0.061496	-0.665286	145.598941	-82.003707	39.574201
40158		9.714061	1.098257	-1.682211	-0.510346	-0.363141	0.087141	0.377473	-0.160142	-0.227987	-0.838135	-0.046143	0.478271	0.097166	0.010903	-0.016724	0.002783	-0.744543	-0.063556	-0.664537	145.474959	-81.852163	39.915921
40159		9.574789	1.275707	-1.474768	-0.282759	-0.516352	-0.059107	0.301612	-0.177529	-0.210562	-0.841797	-0.036377	0.475342	0.095774	0.012678	-0.014644	0.003172	-0.745095	-0.065302	-0.663746	145.411489	-81.698565	40.153634
40160		9.658184	1.161157	-1.118078	0.088399	-0.345357	-0.027405	0.347020	-0.181008	-0.199234	-0.834961	-0.036621	0.472656	0.096603	0.011535	-0.011073	0.003758	-0.745661	-0.067153	-0.662922	145.422381	-81.546448	40.341518
40161		9.473029	1.261859	-0.551803	0.659427	-0.391464	-0.270837	0.350429	-0.194362	-0.200290	-0.835449	-0.038818	0.485840	0.094748	0.012533	-0.005404	0.004357	-0.746265	-0.069023	-0.662047	145.464257	-81.388245	40.501178
40162		9.489752	1.164132	-0.086691	1.132906	-0.228064	-0.321505	0.250435	-0.229330	-0.197234	-0.836914	-0.039551	0.478271	0.094910	0.011549	-0.000744	0.004575	-0.746987	-0.070548	-0.661070	145.534231	-81.214026	40.573668
40163		9.561253	0.866638	0.053854	1.271500	0.108720	-0.297284	0.207182	-0.267406	-0.209007	-0.835205	-0.044678	0.483643	0.095621	0.008566	0.000675	0.004585	-0.747826	-0.071978	-0.659966	145.622975	-81.018533	40.602970
40164		9.258419	0.468193	0.336481	1.496530	0.523933	-0.672856	0.169190	-0.323938	-0.227321	-0.826660	-0.035400	0.489258	0.092584	0.004574	0.003519	0.004364	-0.748845	-0.073348	-0.658660	145.747437	-80.789892	40.573043
40165		9.190872	0.299955	0.372343	1.535347	0.712180	-0.766357	0.220801	-0.382912	-0.252150	-0.835449	-0.042236	0.498291	0.091905	0.002879	0.003903	0.004242	-0.750041	-0.074985	-0.657113	145.941434	-80.525780	40.503623
40166		9.354192	0.029612	0.584255	1.768232	1.047640	-0.668359	0.241647	-0.436507	-0.277215	-0.830566	-0.041504	0.495850	0.093529	0.000159	0.006047	0.004088	-0.751401	-0.076783	-0.655351	146.170325	-80.227624	40.410084
40167		9.418806	0.365330	0.561667	1.835562	0.752110	-0.580806	0.268421	-0.490913	-0.292183	-0.832764	-0.038086	0.506836	0.094179	0.003508	0.005853	0.003972	-0.752923	-0.078728	-0.653370	146.461972	-79.899214	40.269105
40168		9.517012	0.518781	0.072600	1.433415	0.592563	-0.408337	0.179055	-0.547243	-0.320533	-0.823730	-0.042969	0.504639	0.095176	0.005034	0.000991	0.003399	-0.754614	-0.080486	-0.651205	146.712030	-79.534386	40.117503
40169		9.429090	0.534642	-0.123565	1.282397	0.580768	-0.473166	0.159979	-0.605234	-0.326507	-0.821533	-0.042480	0.508545	0.094303	0.005193	-0.000946	0.002717	-0.756481	-0.082206	-0.648823	147.017874	-79.140159	39.898529
40170		9.616344	0.173814	-0.594624	0.857143	0.943450	-0.261107	0.151703	-0.632772	-0.324745	-0.816406	-0.048340	0.518555	0.096184	0.001586	-0.005641	0.001992	-0.758430	-0.083890	-0.646330	147.347398	-78.732637	39.649613
40171		9.340872	0.991771	-0.756489	0.822726	0.121436	-0.425690	0.235761	-0.662482	-0.341944	-0.809326	-0.042969	0.519043	0.093450	0.009767	-0.007244	0.001523	-0.760455	-0.085913	-0.643681	147.708446	-78.305546	39.418002
40172		9.337345	1.533906	-0.926941	0.791689	-0.394689	-0.346165	0.127250	-0.731596	-0.332141	-0.804932	-0.051025	0.531494	0.093432	0.015190	-0.008918	0.000638	-0.762696	-0.087545	-0.640804	148.107060	-77.847208	39.083386
40173		9.443224	1.155749	-1.151074	0.608824	0.004532	-0.249007	0.144005	-0.770705	-0.328262	-0.799561	-0.046143	0.538574	0.094494	0.011411	-0.011138	-0.000182	-0.765049	-0.089217	-0.637762	148.549769	-77.370856	38.713561
40174		9.413944	1.218981	-0.943488	0.888982	0.000550	-0.314923	0.181054	-0.815579	-0.333251	-0.792480	-0.050781	0.542480	0.094197	0.012041	-0.009040	-0.000902	-0.767531	-0.091022	-0.634516	149.030133	-76.869961	38.325460
40175		9.479851	1.151081	-0.837005	1.073006	0.127885	-0.287731	0.179262	-0.857062	-0.325998	-0.790527	-0.056152	0.544189	0.094852	0.011363	-0.007953	-0.001619	-0.770129	-0.092795	-0.631101	149.542552	-76.350473	37.903267
40176		9.407331	1.021907	-1.051608	0.913933	0.259863	-0.339328	0.164347	-0.895551	-0.343036	-0.785156	-0.058838	0.560547	0.094136	0.010066	-0.010086	-0.002471	-0.772824	-0.094580	-0.627528	150.022103	-75.805821	37.504369
40177		9.209879	0.966720	-1.273256	0.736739	0.301110	-0.499075	0.179765	-0.947832	-0.369240	-0.777344	-0.050537	0.552979	0.092175	0.009508	-0.012287	-0.003364	-0.775650	-0.096515	-0.623732	150.485204	-75.227309	37.131407
40178		9.756411	0.842233	-1.276138	0.917427	0.550664	0.004625	0.299439	-0.986677	-0.362894	-0.773682	-0.058350	0.571045	0.097641	0.008264	-0.012267	-0.003798	-0.778581	-0.098792	-0.619707	151.034806	-74.630041	36.738190
40179		10.197326	1.259525	-1.020625	1.419289	0.287385	0.410594	0.349558	-1.016403	-0.374696	-0.765869	-0.050781	0.575439	0.102047	0.012421	-0.009666	-0.004082	-0.781574	-0.101270	-0.615525	151.585781	-74.013942	36.372901
40180		10.525638	1.350168	-0.811344	1.813170	0.326178	0.669446	0.191773	-1.056327	-0.356688	-0.764404	-0.058350	0.584717	0.105321	0.013321	-0.007544	-0.004951	-0.784671	-0.103186	-0.611245	152.080613	-73.381395	35.970239
40181		10.468572	0.316157	-1.331013	1.249273	1.318279	0.587444	0.186791	-1.111178	-0.382908	-0.747070	-0.056152	0.586426	0.104763	0.002973	-0.012725	-0.005944	-0.787894	-0.105186	-0.606732	152.544171	-72.713393	35.596457
40182		11.748552	1.001603	0.504995	3.545487	1.147408	1.385424	0.366985	-1.197529	-0.446208	-0.737549	-0.057373	0.596680	0.117474	0.009744	0.005771	-0.006469	-0.791321	-0.107973	-0.601757	153.047427	-71.983729	35.287401
40183		12.883632	0.414447	0.552741	3.922471	1.998956	2.315010	0.073197	-1.304091	-0.411944	-0.736572	-0.063965	0.613037	0.128805	0.003877	0.006369	-0.008106	-0.795039	-0.109735	-0.596494	153.487180	-71.207800	34.867086
40184		13.234619	0.307847	1.687548	5.233125	2.372646	2.232206	-0.039610	-1.409719	-0.435621	-0.720459	-0.071289	0.614746	0.132229	0.002794	0.017807	-0.010324	-0.799016	-0.111242	-0.590840	153.869959	-70.370489	34.436016
40185		12.981114	-1.478505	0.729327	4.132102	4.031721	1.930151	-0.261857	-1.563757	-0.495131	-0.719238	-0.067627	0.627197	0.129712	-0.015096	0.008327	-0.013686	-0.803353	-0.112318	-0.584656	154.115968	-69.438330	34.013232
40186		12.757698	-2.220400	1.069162	4.446752	4.831499	1.399395	-0.029410	-1.675526	-0.583503	-0.702637	-0.073975	0.644043	0.127416	-0.022574	0.011763	-0.016439	-0.807922	-0.114408	-0.577843	154.416714	-68.425840	33.671062
40187		12.320654	-2.825277	0.542402	3.903619	5.368223	0.958293	-0.006006	-1.818926	-0.679019	-0.696045	-0.072021	0.656494	0.123054	-0.028671	0.006544	-0.019450	-0.812783	-0.116934	-0.570378	154.668090	-67.315040	33.394900
40188		12.578823	-3.044514	0.443041	4.051442	5.730162	1.070208	0.094177	-1.955865	-0.770118	-0.672119	-0.077148	0.661377	0.125619	-0.030932	0.005645	-0.022393	-0.817907	-0.120087	-0.562232	154.919366	-66.110685	33.178581
40189		12.818069	-3.449082	0.027730	3.884405	6.252712	1.233040	0.182113	-2.072356	-0.866866	-0.656250	-0.089111	0.683350	0.128018	-0.035047	0.001573	-0.025314	-0.823213	-0.123859	-0.553478	155.150208	-64.821970	33.038427
40190		12.971337	-3.718048	-0.134478	3.953736	6.661843	1.236214	0.310177	-2.134853	-0.928277	-0.640381	-0.086426	0.697998	0.129544	-0.037781	-0.000020	-0.027916	-0.828561	-0.128208	-0.544307	155.400727	-63.485954	32.955718
40191		12.979325	-2.614104	0.049831	4.537166	5.752525	1.215181	0.395882	-2.172694	-0.997534	-0.611816	-0.090332	0.699951	0.129645	-0.026791	0.001855	-0.030369	-0.833861	-0.133060	-0.534836	155.632479	-62.113449	32.949050
40192		13.455057	-1.108659	0.389652	5.535508	4.606947	1.612927	0.220594	-2.204739	-1.082955	-0.596191	-0.101563	0.717529	0.134434	-0.011820	0.005366	-0.033800	-0.839037	-0.137767	-0.525257	155.689174	-60.704371	33.026486
40193		13.883794	-0.315091	0.197812	5.928794	4.108870	2.055546	-0.154390	-2.191985	-1.120112	-0.591064	-0.104736	0.729736	0.138785	-0.003926	0.003502	-0.038885	-0.843964	-0.141633	-0.515901	155.498899	-59.292778	33.142870
40194		13.090967	0.558880	-0.822295	5.096491	3.141133	1.871167	-0.518544	-2.161991	-1.137742	-0.564453	-0.117920	0.735107	0.131017	0.004825	-0.006820	-0.045529	-0.848599	-0.144608	-0.506849	155.090624	-57.892795	33.270769
40195		11.893594	2.673386	-1.933551	4.230286	0.875269	1.749101	-0.757251	-2.103604	-1.177426	-0.541504	-0.117188	0.751221	0.119286	0.025962	-0.018181	-0.053234	-0.852869	-0.147147	-0.498126	154.516070	-56.512376	33.436886
40196		11.273102	3.382989	-3.392159	3.017592	0.119541	2.057768	-0.954438	-2.010842	-1.158583	-0.520020	-0.142578	0.747559	0.113258	0.033016	-0.032943	-0.061658	-0.856733	-0.149107	-0.489872	153.837886	-55.184215	33.593302
40197		10.498112	3.574968	-5.015494	1.473338	-0.167380	2.267911	-1.094700	-1.917493	-1.150049	-0.510010	-0.154541	0.763916	0.105659	0.034872	-0.049337	-0.070579	-0.860198	-0.150700	-0.482045	153.081553	-53.904474	33.750526
40198		9.186827	4.509497	-5.919600	0.401234	-1.286751	1.932635	-1.040455	-1.810255	-1.170899	-0.481934	-0.168701	0.762939	0.092661	0.044248	-0.058591	-0.079231	-0.863279	-0.152519	-0.474563	152.332403	-52.673402	33.938671
40199		8.404741	4.936766	-7.041300	-0.717941	-1.741941	2.063153	-1.194681	-1.733216	-1.115262	-0.464355	-0.176270	0.765869	0.084927	0.048477	-0.069971	-0.088342	-0.866036	-0.153751	-0.467481	151.532407	-51.494230	34.083746
40200		8.310777	4.153308	-8.451610	-1.962754	-0.794074	2.567117	-1.271352	-1.597525	-1.009799	-0.445313	-0.195801	0.765381	0.083987	0.040575	-0.084108	-0.097427	-0.868404	-0.154375	-0.461033	150.732078	-50.411800	34.173591
40201		7.509124	3.096856	-10.098619	-3.815598	0.172039	2.571423	-0.898087	-1.404932	-0.902262	-0.437256	-0.208252	0.776611	0.075936	0.030175	-0.100591	-0.104479	-0.870498	-0.155480	-0.455130	150.162778	-49.454525	34.243768
40202		7.286055	0.647798	-7.720701	-2.289002	2.413149	0.289357	-0.007239	-1.061924	-0.709533	-0.431396	-0.217529	0.774170	0.073291	0.006216	-0.076819	-0.106947	-0.872370	-0.157931	-0.450101	150.108874	-48.722983	34.306721
40203		7.715705	-1.006847	-6.456280	-1.235486	4.092614	-0.650089	0.646066	-0.653654	-0.464739	-0.415527	-0.210693	0.785156	0.077344	-0.010040	-0.064343	-0.105683	-0.873836	-0.161009	-0.446450	150.435085	-48.263681	34.364068
40204		7.147713	-0.542500	-4.370653	0.275576	3.360083	-2.123698	1.012629	-0.225781	-0.374092	-0.414795	-0.209473	0.781250	0.071516	-0.005338	-0.043653	-0.102273	-0.874590	-0.164717	-0.444411	150.884661	-48.044344	34.536266
40205		6.284146	0.568379	-4.139176	0.215192	1.979402	-2.533818	0.988968	0.155280	-0.292638	-0.417236	-0.200195	0.789795	0.062818	0.005797	-0.041412	-0.098464	-0.874526	-0.168221	-0.444084	151.247522	-48.038950	34.808932
40206		5.683345	2.007568	-3.813153	0.443823	0.384206	-2.704510	1.107551	0.494431	-0.204062	-0.426025	-0.189453	0.791016	0.056760	0.020229	-0.038160	-0.093657	-0.873815	-0.171745	-0.445173	151.623599	-48.230231	35.152700
40207		5.455474	3.751241	-3.760400	0.732533	-1.351865	-2.355455	0.943243	0.734066	-0.033471	-0.420654	-0.182617	0.794678	0.054423	0.037681	-0.037626	-0.088973	-0.872607	-0.174281	-0.447511	151.928276	-48.589513	35.466572
40208		5.578732	2.990824	-3.534292	0.787057	-0.646803	-2.634918	0.715467	0.968009	0.165685	-0.431396	-0.179932	0.791748	0.055591	0.030081	-0.035505	-0.084635	-0.870918	-0.175522	-0.451143	152.143925	-49.122219	35.721456
40209		6.013716	1.589948	-3.696027	0.512404	0.753552	-2.634794	0.703707	1.224727	0.437578	-0.437012	-0.174561	0.784180	0.059874	0.016161	-0.037271	-0.079501	-0.868843	-0.175668	-0.455996	152.432667	-49.857736	35.870665
40210		6.417778	0.981332	-3.606253	0.578851	1.391074	-2.540521	0.798300	1.507492	0.653113	-0.459229	-0.163574	0.784668	0.063871	0.010167	-0.036505	-0.073218	-0.866292	-0.175175	-0.462051	152.819664	-50.795036	35.958603
40211		6.342591	0.895834	-3.616392	0.416893	1.341317	-2.592273	0.916066	1.786547	0.821399	-0.471191	-0.147949	0.776123	0.063062	0.009385	-0.036686	-0.065778	-0.863199	-0.174328	-0.469224	153.297472	-51.918388	36.017575
40212		6.437339	1.205989	-3.610446	0.432458	0.967595	-2.409770	0.890830	2.041541	1.015019	-0.491699	-0.141113	0.765137	0.063938	0.012548	-0.036703	-0.057767	-0.859553	-0.172632	-0.477524	153.816192	-53.222847	36.003915
40213		6.453125	1.370098	-3.720662	0.258555	0.675496	-2.273670	0.788952	2.294894	1.197750	-0.508301	-0.137695	0.758057	0.064015	0.014234	-0.037888	-0.049524	-0.855288	-0.169966	-0.486971	154.335591	-54.702901	35.919396
40214		6.351802	1.556703	-3.954168	-0.088584	0.295017	-2.176906	0.651196	2.510315	1.366044	-0.531982	-0.119141	0.741699	0.062907	0.016128	-0.040282	-0.041276	-0.850439	-0.166248	-0.497405	154.849075	-56.335912	35.745564
40215		6.157556	2.014660	-4.415170	-0.624181	-0.409067	-2.008446	0.523782	2.675513	1.520575	-0.554688	-0.114746	0.733887	0.060822	0.020728	-0.044915	-0.033029	-0.845085	-0.161569	-0.508562	155.385190	-58.090485	35.463685
40216		6.389483	2.464839	-4.751449	-0.889211	-0.981992	-1.583714	0.426299	2.798165	1.651439	-0.581787	-0.100342	0.719238	0.063015	0.025274	-0.048347	-0.024764	-0.839294	-0.156051	-0.520212	155.976808	-59.938987	35.055023
40217		6.836249	1.850325	-4.704862	-1.007840	-0.459578	-1.382992	0.320428	2.903103	1.760977	-0.602051	-0.086914	0.716797	0.067503	0.019177	-0.048002	-0.016561	-0.833067	-0.149786	-0.532249	156.631436	-61.864798	34.514886
40218		7.341675	0.409567	-4.801576	-1.444014	0.831633	-1.190709	0.313020	3.001098	1.830157	-0.635254	-0.072998	0.684570	0.072643	0.004839	-0.049103	-0.008136	-0.826381	-0.143157	-0.544550	157.396997	-63.854946	33.852668
40219		8.295014	0.162483	-5.463528	-1.985298	0.977112	-0.128838	0.463543	3.122283	1.836595	-0.656738	-0.061523	0.666992	0.082064	0.002510	-0.055916	0.001028	-0.819109	-0.136889	-0.557064	158.317711	-65.905597	33.128141
40220		9.037103	1.773934	-5.887560	-2.025478	-0.745458	0.902103	0.677525	3.261394	1.851030	-0.673828	-0.044189	0.644775	0.089225	0.018771	-0.060274	0.011193	-0.811174	-0.131093	-0.569812	159.465984	-68.028259	32.299117
40221		9.126540	3.711549	-6.094038	-2.042218	-2.933821	1.206013	0.686694	3.390453	1.885022	-0.702148	-0.027100	0.629395	0.089860	0.038179	-0.062342	0.021582	-0.802589	-0.125146	-0.582859	160.809941	-70.219025	31.280979
40222		8.617037	4.078911	-6.610414	-2.881837	-3.778860	0.769648	0.625612	3.466431	1.950280	-0.719482	-0.016357	0.608643	0.084605	0.041829	-0.067450	0.031945	-0.793512	-0.118685	-0.596014	162.476112	-72.453158	29.897681
40223		8.148771	3.440681	-6.837003	-3.642945	-3.579657	0.131291	0.804197	3.532096	2.008881	-0.746582	0.008545	0.587402	0.079912	0.035493	-0.069649	0.043226	-0.783915	-0.112480	-0.609063	164.771091	-74.715906	27.984924
40224		8.545889	2.621641	-6.236489	-3.443871	-2.924039	0.105532	0.934593	3.609947	2.039201	-0.766846	0.022705	0.556885	0.084041	0.027374	-0.063764	0.055123	-0.773726	-0.106470	-0.622073	167.898676	-76.998671	25.308984
40225		9.041683	1.757771	-5.809920	-3.420017	-2.266907	0.274100	1.022533	3.662371	2.041622	-0.786621	0.046631	0.533691	0.089146	0.018794	-0.059645	0.067383	-0.762996	-0.100679	-0.634949	172.279605	-79.263884	21.430889
40226		9.346287	1.946943	-5.189595	-3.013493	-2.613700	0.294002	1.148821	3.657321	1.982071	-0.810791	0.059082	0.511963	0.092294	0.020692	-0.053474	0.079889	-0.751855	-0.095455	-0.647472	178.660547	-81.440527	15.623943
40227		9.223049	2.719517	-4.755042	-2.692790	-3.576620	-0.065302	1.168431	3.587232	1.896477	-0.831543	0.092285	0.475830	0.091095	0.028346	-0.049028	0.092134	-0.740550	-0.090616	-0.659458	-171.490586	-83.424493	6.364686
40228		8.776373	3.667728	-3.987424	-1.998651	-4.588980	-0.795451	1.247197	3.452768	1.810730	-0.843506	0.103516	0.454590	0.086722	0.037720	-0.041144	0.104273	-0.729295	-0.086362	-0.670670	-155.257457	-85.031430	-9.233839
40229		9.141417	3.796748	-2.524708	-0.739253	-4.579105	-0.711567	0.920778	3.203953	1.672369	-0.854248	0.124756	0.431152	0.090674	0.038848	-0.026526	0.114625	-0.718704	-0.081631	-0.680927	-130.884253	-85.935032	-33.151866
40230		10.176637	3.118712	-1.658247	-0.258258	-3.961222	0.200903	0.105224	2.934050	1.528621	-0.869629	0.132080	0.406006	0.101266	0.031972	-0.018054	0.121394	-0.709219	-0.074754	-0.690423	-103.971453	-85.924591	-60.073428
40231		8.617587	3.010840	-3.151142	-2.001306	-4.364052	-1.434102	-0.256742	2.663998	1.269551	-0.884033	0.141846	0.386719	0.085552	0.030611	-0.032693	0.125872	-0.700613	-0.067706	-0.699080	-83.635636	-85.283933	-80.616207
40232		7.012908	3.336062	-2.845609	-1.810167	-4.583861	-3.170686	-0.171737	2.162799	0.864342	-0.895264	0.151123	0.359131	0.069671	0.033637	-0.029240	0.129020	-0.693445	-0.062663	-0.706088	-71.413789	-84.524464	-92.988562
40233		7.384863	3.502468	-2.230348	-1.307997	-4.686447	-2.877107	-0.617135	1.653440	0.513447	-0.894287	0.154053	0.353027	0.073570	0.035143	-0.023021	0.129230	-0.688176	-0.057602	-0.711615	-64.278000	-83.890355	-100.517187
40234		7.662079	2.662832	-2.377109	-1.797778	-3.988634	-2.580379	-0.868588	1.243530	0.265198	-0.904785	0.153809	0.343994	0.076435	0.026625	-0.024362	0.127545	-0.684408	-0.052747	-0.715916	-59.820067	-83.419848	-105.506930
40235		7.957349	2.573877	-1.919954	-1.492226	-3.839940	-2.285554	-1.085755	0.883539	0.112398	-0.893311	0.143799	0.338379	0.079473	0.025677	-0.019690	0.124488	-0.681988	-0.047878	-0.719098	-57.140505	-83.098335	-108.832566
40236		7.154164	2.351271	-2.494933	-2.156232	-3.666005	-3.115984	-1.239840	0.500999	-0.075400	-0.901611	0.148193	0.330566	0.071487	0.023330	-0.025273	0.120110	-0.680964	-0.043318	-0.721100	-55.757542	-82.974625	-110.945374
40237		6.489521	2.462485	-2.353982	-2.020651	-3.637826	-3.779291	-1.032959	0.120699	-0.317924	-0.907715	0.144287	0.324219	0.064920	0.024400	-0.023705	0.115498	-0.681108	-0.040570	-0.721877	-55.101837	-83.083960	-112.203234
40238		7.732934	4.756923	-0.582334	0.107931	-5.583004	-2.630512	-1.452695	-0.297014	-0.571543	-0.903809	0.128418	0.340576	0.077474	0.047305	-0.006053	0.108431	-0.682920	-0.037398	-0.721432	-55.606443	-83.449261	-112.536766
40239		6.089404	3.974218	-4.733207	-4.100825	-5.398667	-4.398490	-2.222115	-0.892962	-0.838130	-0.898926	0.118408	0.343018	0.061270	0.038959	-0.047495	0.097671	-0.687172	-0.032692	-0.719157	-58.495723	-84.128919	-110.912191
40240		9.381116	-0.997294	0.662989	0.193806	0.238200	-0.360541	-2.725815	-1.320477	-0.722486	-0.892822	0.092773	0.351563	0.093727	-0.010214	0.007387	0.085485	-0.693087	-0.025967	-0.715296	-65.012478	-84.850818	-105.938247
40241		18.777162	-13.902643	-3.151215	-5.515798	11.679854	9.908524	-2.357326	-1.148744	-0.353001	-0.885742	0.080078	0.361816	0.187696	-0.139708	-0.028790	0.075924	-0.698133	-0.019213	-0.711672	-72.711571	-85.274295	-99.567286
40242		17.211669	-7.033948	-2.927415	-3.993397	5.226838	7.822970	-1.472206	-0.550210	-0.387105	-0.878418	0.079102	0.366699	0.172059	-0.070883	-0.028280	0.069357	-0.700626	-0.015484	-0.709981	-76.706875	-85.568301	-96.409255
40243		6.956607	-0.277208	-4.920898	-4.962207	-0.782053	-2.924308	-1.711490	-0.611468	-0.604101	-0.885254	0.063232	0.370605	0.069706	-0.003402	-0.048969	0.061194	-0.703347	-0.011700	-0.708112	-81.544387	-85.970149	-92.542872
40244		5.707053	-6.348958	-4.205109	-4.780746	5.525000	-3.715265	-1.677834	-0.917971	-0.522940	-0.883545	0.053711	0.375977	0.057094	-0.063987	-0.041254	0.053394	-0.707081	-0.007829	-0.705070	-90.044462	-86.303743	-84.990571
40245		9.918383	-6.070974	-2.822750	-3.220336	5.195989	0.474602	-0.796264	-0.795116	-0.504212	-0.873291	0.042480	0.383057	0.099141	-0.061070	-0.027591	0.048796	-0.710098	-0.006979	-0.702375	-98.202430	-86.553801	-77.274930
40246		11.800724	0.984708	-2.840489	-2.560225	-1.837301	1.950091	-0.797384	-0.778211	-0.772423	-0.873535	0.036621	0.379639	0.118153	0.009279	-0.027983	0.043232	-0.713019	-0.007059	-0.699775	-108.069548	-86.878321	-67.853030
40247		11.431719	2.593877	-3.620233	-3.160331	-3.358072	1.556230	-0.682800	-0.784952	-0.839028	-0.862793	0.021484	0.390381	0.114565	0.025336	-0.035840	0.037861	-0.715901	-0.007793	-0.697131	-120.125038	-87.127546	-56.173939
40248		10.410733	4.155432	-2.678581	-2.091451	-4.694001	0.503144	-0.683340	-0.796273	-0.901856	-0.865723	0.012451	0.396240	0.104399	0.040993	-0.026511	0.032247	-0.718790	-0.008738	-0.694424	-134.364980	-87.256200	-42.312679
40249		10.807805	4.960947	-2.630387	-1.936392	-5.392997	0.934538	-0.796856	-0.790861	-0.894084	-0.863281	0.004395	0.405762	0.108401	0.049021	-0.026072	0.026270	-0.721641	-0.009272	-0.691706	-148.970424	-87.210399	-28.148480
40250		11.395301	2.096423	-2.999808	-2.371167	-2.455177	1.658805	-0.708804	-0.668167	-0.700373	-0.855469	0.000488	0.417480	0.114125	0.020459	-0.029690	0.021265	-0.724036	-0.009383	-0.689370	-159.838810	-87.030338	-17.676761
40251		9.271120	1.397696	-2.401672	-1.857625	-1.612153	-0.451873	-0.299319	-0.524636	-0.658829	-0.850098	-0.012207	0.408936	0.092819	0.013636	-0.023794	0.017912	-0.725872	-0.010753	-0.687513	-168.265944	-86.837734	-9.410363
40252		9.372920	2.574380	-2.065766	-1.427547	-2.704646	-0.357910	-0.147877	-0.478321	-0.722747	-0.854980	-0.020508	0.421143	0.093870	0.025390	-0.020452	0.014871	-0.727520	-0.012858	-0.685805	-176.113022	-86.615436	-1.638967
40253		10.538022	1.746368	-2.237521	-1.521847	-1.813481	0.840990	-0.084490	-0.407328	-0.673331	-0.849365	-0.012451	0.422852	0.105483	0.017099	-0.022168	0.012255	-0.728908	-0.015008	-0.684338	177.570878	-86.381069	4.639392
40254		10.271820	1.790175	-2.668995	-1.929683	-1.804892	0.620756	-0.030698	-0.341444	-0.635850	-0.845947	-0.030273	0.422852	0.102820	0.017571	-0.026517	0.009948	-0.730062	-0.017189	-0.683092	172.335849	-86.148353	9.864396
40255		10.218117	1.894488	-2.942433	-2.168811	-1.853511	0.604470	-0.175933	-0.346167	-0.595500	-0.836182	-0.034668	0.426025	0.102288	0.018615	-0.029264	0.007267	-0.731231	-0.018738	-0.681833	167.980988	-85.889967	14.127703
40256		9.805320	1.185461	-3.191213	-2.441145	-1.095203	0.215989	-0.380486	-0.350619	-0.534828	-0.846680	-0.030518	0.427490	0.098140	0.011532	-0.031762	0.004024	-0.732423	-0.019356	-0.680563	164.477305	-85.617035	17.418598
40257		9.551370	0.237871	-3.198390	-2.466327	-0.088201	-0.044171	-0.446351	-0.384608	-0.549966	-0.838135	-0.043945	0.437500	0.095581	0.002045	-0.031805	0.000506	-0.733715	-0.019818	-0.679168	161.327564	-85.310042	20.320657
40258		9.963649	-0.489315	-2.787857	-2.009405	0.728418	0.322256	-0.330350	-0.388719	-0.566451	-0.834961	-0.050049	0.446533	0.099676	-0.005221	-0.027676	-0.002663	-0.735012	-0.020723	-0.677733	158.523123	-84.985240	22.941706
40259		10.535816	-0.392346	-2.828519	-1.963103	0.714910	0.901442	-0.058854	-0.344273	-0.587089	-0.832031	-0.046875	0.446289	0.105395	-0.004241	-0.028103	-0.004879	-0.736146	-0.022635	-0.676427	155.983320	-84.670256	25.456999
40260		10.056004	1.076970	-2.045411	-1.148685	-0.692914	0.417992	0.197157	-0.313753	-0.606906	-0.828125	-0.052002	0.439941	0.100624	0.010484	-0.020286	-0.006237	-0.737176	-0.025475	-0.675191	153.685861	-84.356037	27.874886
40261		10.003983	1.548194	-1.609737	-0.670786	-1.100137	0.356248	0.365074	-0.295840	-0.573598	-0.826904	-0.061035	0.446045	0.100107	0.015224	-0.015921	-0.006841	-0.738142	-0.028770	-0.673997	151.852083	-84.052529	29.927302
40262		10.242569	2.680754	-0.838528	0.194043	-2.143641	0.587628	0.466746	-0.268353	-0.542750	-0.831543	-0.053955	0.446777	0.102509	0.026549	-0.008186	-0.006981	-0.739017	-0.032284	-0.672877	150.330383	-83.764410	31.723036
40263		9.961562	2.911855	-1.065438	-0.007134	-2.347471	0.352732	0.531634	-0.270797	-0.522281	-0.832031	-0.057129	0.447510	0.099705	0.028886	-0.010442	-0.006793	-0.739890	-0.035951	-0.671732	149.090000	-83.477517	33.276619
40264		9.797263	2.878409	-0.439323	0.639898	-2.253767	0.135949	0.438952	-0.277272	-0.464458	-0.822998	-0.055664	0.447021	0.098045	0.028566	-0.004194	-0.006773	-0.740787	-0.039084	-0.670568	148.164877	-83.200462	34.458072
40265		10.042288	1.449409	-1.233258	-0.158589	-0.806282	0.375238	0.487123	-0.262497	-0.400914	-0.828369	-0.065186	0.456055	0.100468	0.014322	-0.012166	-0.006340	-0.741635	-0.042151	-0.669448	147.562657	-82.949192	35.344842
40266		9.326371	2.037660	-0.542701	0.520465	-1.373807	-0.364442	0.443729	-0.252968	-0.422344	-0.823242	-0.061523	0.466797	0.093313	0.020191	-0.005264	-0.006157	-0.742441	-0.045143	-0.668360	146.881005	-82.693595	36.284859
40267		9.637816	1.224736	-1.370536	-0.285952	-0.547087	-0.020619	0.320398	-0.282894	-0.383826	-0.827637	-0.056885	0.461426	0.096421	0.012084	-0.013550	-0.006290	-0.743341	-0.047588	-0.667188	146.397511	-82.435723	36.956556
40268		9.994383	1.055865	-1.286354	-0.145370	-0.312203	0.313441	0.253648	-0.269814	-0.358354	-0.825928	-0.054443	0.468506	0.099980	0.010396	-0.012715	-0.006602	-0.744200	-0.049708	-0.666072	145.969535	-82.190419	37.531956
40269		9.619902	0.323019	-1.654328	-0.571952	0.397117	-0.071091	0.334822	-0.245200	-0.361567	-0.819092	-0.054443	0.462891	0.096225	0.003084	-0.016420	-0.006598	-0.744970	-0.052118	-0.665027	145.552978	-81.956276	38.145191
40270		9.468247	0.526320	-1.527110	-0.424094	0.218941	-0.219519	0.376700	-0.243952	-0.352349	-0.818604	-0.057617	0.471191	0.094710	0.005125	-0.015146	-0.006421	-0.745737	-0.054628	-0.663966	145.214620	-81.724121	38.702475
40271		9.753341	0.293736	-1.771101	-0.627186	0.486634	0.072679	0.574941	-0.220772	-0.337876	-0.820068	-0.055664	0.478027	0.097558	0.002823	-0.017595	-0.005436	-0.746426	-0.057747	-0.662936	145.008478	-81.508281	39.242789
40272		9.489608	0.890710	-1.611848	-0.428735	-0.096316	-0.156037	0.682947	-0.196721	-0.348051	-0.823242	-0.056152	0.470947	0.094927	0.008797	-0.015995	-0.004090	-0.747030	-0.061256	-0.661949	144.797611	-81.298981	39.849145
40273		9.278781	1.211074	-1.513223	-0.302272	-0.404305	-0.347098	0.722546	-0.202392	-0.340749	-0.817627	-0.054932	0.476318	0.092824	0.012007	-0.014995	-0.002558	-0.747639	-0.064873	-0.660924	144.663360	-81.090268	40.402892
40274		9.669023	1.043723	-1.564850	-0.296202	-0.180514	0.031483	0.623262	-0.209436	-0.317367	-0.816162	-0.052246	0.482666	0.096723	0.010332	-0.015515	-0.001337	-0.748270	-0.068069	-0.659891	144.569914	-80.884807	40.856504
40275		9.473176	0.814315	-1.262975	-0.019342	0.077071	-0.221397	0.627578	-0.211602	-0.331495	-0.815186	-0.054199	0.486816	0.094758	0.008025	-0.012504	-0.000133	-0.748890	-0.071337	-0.658844	144.456625	-80.674556	41.334526
40276		9.407361	0.483008	-1.088279	0.133748	0.440231	-0.341452	0.562196	-0.239982	-0.323862	-0.818848	-0.052979	0.493164	0.094094	0.004708	-0.010757	0.000828	-0.749601	-0.074354	-0.657700	144.396517	-80.452363	41.719444
40277		9.708211	0.352522	-1.065720	0.202580	0.630997	-0.062298	0.620998	-0.245606	-0.319058	-0.817139	-0.056152	0.494141	0.097101	0.003403	-0.010527	0.002036	-0.750318	-0.077550	-0.656510	144.404373	-80.230269	42.071363
40278		9.157950	1.183772	-0.710098	0.609777	-0.187923	-0.573297	0.674469	-0.261369	-0.331970	-0.817627	-0.052246	0.495605	0.091608	0.011709	-0.006942	0.003382	-0.751075	-0.080964	-0.655225	144.445592	-79.995374	42.419116
40279		9.411323	1.019135	-0.839322	0.526018	0.019136	-0.323806	0.487728	-0.324718	-0.322512	-0.817627	-0.040771	0.501709	0.094143	0.010060	-0.008216	0.004047	-0.752031	-0.083736	-0.653774	144.530096	-79.735325	42.616115
40280		9.508620	1.051648	-0.506004	0.905981	0.069318	-0.275914	0.604421	-0.356314	-0.344397	-0.819336	-0.043457	0.510254	0.095113	0.010368	-0.004859	0.005055	-0.753075	-0.086969	-0.652142	144.685215	-79.452292	42.808365
40281		9.412662	1.095343	-0.547221	0.897778	0.043542	-0.363386	0.508820	-0.410332	-0.343241	-0.807373	-0.040283	0.503174	0.094156	0.010805	-0.005251	0.005694	-0.754281	-0.089888	-0.650345	144.883514	-79.145501	42.902212
40282		9.255181	1.448160	0.109694	1.614620	-0.203665	-0.586704	0.574222	-0.470020	-0.368358	-0.796387	-0.040771	0.510986	0.092575	0.014307	0.001356	0.006462	-0.755661	-0.093113	-0.648278	145.155990	-78.801527	42.957940
40283		9.463688	0.655626	-0.013725	1.453488	0.626202	-0.459274	0.425357	-0.540035	-0.345198	-0.807129	-0.048828	0.512451	0.094648	0.006393	0.000132	0.006719	-0.757267	-0.095771	-0.646010	145.503034	-78.433159	42.851496
40284		9.230637	1.066172	0.677423	2.208371	0.326921	-0.767463	0.536025	-0.574295	-0.399762	-0.793945	-0.047119	0.519287	0.092307	0.010459	0.007068	0.007192	-0.758946	-0.098990	-0.643545	145.828397	-78.029850	42.830780
40285		9.493408	0.822615	0.383049	1.977730	0.608407	-0.503220	0.324373	-0.661979	-0.388139	-0.794922	-0.043457	0.521729	0.094936	0.008035	0.004158	0.006866	-0.760901	-0.101488	-0.640845	146.176859	-77.589577	42.663378
40286		9.628784	0.564722	0.285170	1.921705	0.914431	-0.400777	0.401004	-0.688166	-0.413672	-0.788574	-0.053955	0.532959	0.096289	0.005442	0.003194	0.006727	-0.762915	-0.104325	-0.637991	146.533333	-77.127589	42.531506
40287		9.205560	0.732533	0.116151	1.778560	0.711874	-0.778208	0.396147	-0.746204	-0.440548	-0.794189	-0.039795	0.541504	0.092066	0.007120	0.001519	0.006462	-0.765079	-0.107251	-0.634909	146.893433	-76.630091	42.393769
40288		9.355517	0.984571	0.054809	1.855878	0.531515	-0.605592	0.308310	-0.818020	-0.448035	-0.784912	-0.049561	0.552734	0.093574	0.009635	0.000946	0.005790	-0.767456	-0.109924	-0.631581	147.261746	-76.094656	42.194575
40289		9.447176	0.563528	-0.442994	1.389803	0.936841	-0.487829	0.314422	-0.870131	-0.460523	-0.777832	-0.055176	0.549805	0.094502	0.005424	-0.004010	0.005082	-0.769967	-0.112666	-0.628038	147.651945	-75.530781	41.976871
40290		9.340557	0.837898	-0.363735	1.574230	0.718284	-0.588510	0.294014	-0.926786	-0.470457	-0.773193	-0.052734	0.554688	0.093440	0.008164	-0.003192	0.004223	-0.772633	-0.115376	-0.624267	148.053578	-74.935198	41.733614
40291		9.381332	0.952656	-0.526849	1.530037	0.645814	-0.515618	0.219569	-1.003856	-0.476440	-0.763428	-0.050781	0.562500	0.093861	0.009308	-0.004787	0.003022	-0.775510	-0.117879	-0.620226	148.461978	-74.300675	41.439469
40292		9.529098	1.169509	-0.163442	2.041553	0.575361	-0.447962	0.197145	-1.087436	-0.473789	-0.761719	-0.049072	0.579102	0.095325	0.011471	-0.001105	0.001687	-0.778624	-0.120298	-0.615849	148.919157	-73.624760	41.079526
40293		9.982346	1.544557	0.244844	2.701983	0.420026	-0.085699	0.155723	-1.179464	-0.495072	-0.758789	-0.049316	0.580811	0.099844	0.015196	0.003049	0.000076	-0.781976	-0.122669	-0.611119	149.375109	-72.897248	40.695514
40294		10.594538	1.809816	0.794135	3.528004	0.429996	0.361637	-0.066822	-1.283187	-0.484924	-0.741699	-0.060791	0.590332	0.105935	0.017844	0.008615	-0.002442	-0.785618	-0.124316	-0.606089	149.780391	-72.119992	40.229038
40295		10.609125	1.073049	0.627197	3.353914	1.190950	0.258524	-0.102192	-1.363897	-0.490584	-0.731445	-0.066895	0.605957	0.106071	0.010474	0.006990	-0.005162	-0.789459	-0.125870	-0.600736	150.189895	-71.300721	39.735017
40296		10.496417	1.648159	0.883543	3.811169	0.719090	0.118452	-0.089790	-1.472587	-0.537179	-0.723633	-0.071045	0.607910	0.104939	0.016204	0.009601	-0.008048	-0.793555	-0.127633	-0.594908	150.588358	-70.412437	39.256872
40297		11.489108	1.520380	0.499275	3.826035	1.078467	1.084828	-0.325745	-1.584449	-0.556854	-0.707275	-0.067627	0.611816	0.114889	0.014893	0.005879	-0.011992	-0.797904	-0.128762	-0.588749	150.874440	-69.462418	38.752541
40298		11.148351	0.004875	-0.777686	2.400350	2.388983	0.837116	-0.356437	-1.666577	-0.623960	-0.698730	-0.075195	0.630127	0.111543	-0.000312	-0.006847	-0.016314	-0.802390	-0.130051	-0.582229	151.079459	-68.451431	38.312399
40299		10.795882	-0.439939	-0.866324	2.299222	2.826268	0.395999	-0.131042	-1.780132	-0.726905	-0.682861	-0.085205	0.640869	0.108013	-0.004797	-0.007699	-0.020098	-0.807085	-0.132390	-0.575050	151.332806	-67.354829	37.956849
40300		11.647913	-1.055366	-0.955085	2.539145	3.720252	1.022789	-0.025129	-1.897605	-0.790116	-0.665527	-0.080811	0.660645	0.116520	-0.011015	-0.008444	-0.023717	-0.812008	-0.135263	-0.567261	151.617076	-66.180824	37.630147
40301		12.153879	-1.516429	-0.448676	3.278417	4.466562	1.119552	0.254174	-1.991583	-0.846967	-0.664307	-0.088135	0.670654	0.121510	-0.015674	-0.003296	-0.026419	-0.817099	-0.139133	-0.558833	152.022641	-64.943576	37.343537
40302		12.635633	-1.291966	-0.492160	3.655947	4.498923	1.499143	0.142785	-2.109532	-0.887038	-0.632324	-0.099854	0.688232	0.126340	-0.013477	-0.003598	-0.029771	-0.822374	-0.142821	-0.549924	152.356002	-63.634916	37.062854
40303		13.165874	-1.869948	-0.348146	4.085826	5.348578	1.661145	0.219615	-2.204516	-0.928104	-0.630615	-0.096436	0.690918	0.131598	-0.019307	-0.002052	-0.032979	-0.827779	-0.146857	-0.540488	152.712245	-62.266594	36.803023
40304		13.629171	-2.370931	-0.570649	4.191984	6.079991	1.898551	0.276559	-2.280724	-0.967615	-0.604004	-0.096680	0.704346	0.136228	-0.024362	-0.004186	-0.036114	-0.833246	-0.151172	-0.530607	153.071224	-60.848349	36.573168
40305		14.409331	-2.014171	-0.705258	4.706737	6.112459	2.542747	0.282142	-2.335080	-1.009380	-0.591064	-0.102051	0.724609	0.144059	-0.020860	-0.005400	-0.039367	-0.838693	-0.155645	-0.520403	153.394743	-59.390926	36.385338
40306		15.351153	-2.392660	-1.150637	4.887085	6.888202	3.277885	0.318208	-2.368775	-1.060880	-0.564697	-0.109863	0.730713	0.153504	-0.024724	-0.009727	-0.042625	-0.844053	-0.160392	-0.509933	153.687409	-57.902805	36.254567
40307		15.446373	-2.983388	-0.870878	5.306291	7.686036	2.876102	0.583234	-2.338996	-1.123933	-0.541504	-0.108154	0.741943	0.154381	-0.030680	-0.006992	-0.044892	-0.849196	-0.166063	-0.499273	154.050717	-56.413515	36.218695
40308		14.932534	-2.606559	-0.776578	5.492182	7.355519	2.274449	0.779541	-2.311262	-1.174731	-0.524902	-0.114014	0.760742	0.149246	-0.026916	-0.006145	-0.046422	-0.854119	-0.172408	-0.488468	154.461584	-54.926236	36.260104
40309		14.019984	-1.311495	-1.110470	5.338530	5.986344	1.813425	0.885708	-2.312588	-1.245019	-0.494629	-0.108887	0.775879	0.140231	-0.013943	-0.009544	-0.047662	-0.858848	-0.179287	-0.477456	154.870487	-53.420811	36.380445
40310		13.293958	1.048420	-0.892403	6.021800	3.742007	1.516459	0.529420	-2.304493	-1.317291	-0.474365	-0.105957	0.783447	0.133096	0.009629	-0.007365	-0.050590	-0.863247	-0.185584	-0.466695	155.019116	-51.903057	36.572641
40311		12.853196	3.528407	-0.563890	6.971220	1.502007	1.461622	-0.232250	-2.166612	-1.189429	-0.456543	-0.128174	0.789551	0.128790	0.034513	-0.004285	-0.056369	-0.867104	-0.189566	-0.457185	154.781512	-50.487179	36.705455
40312		11.317839	5.383887	-3.684161	4.333291	-0.824422	2.483240	-1.469467	-1.967601	-1.107220	-0.441162	-0.143555	0.800781	0.113831	0.052943	-0.036115	-0.067128	-0.870090	-0.190374	-0.449662	153.848615	-49.194540	36.821636
40313		9.357019	6.774136	-6.272844	1.726413	-2.777888	2.918682	-1.125626	-1.834265	-1.122514	-0.414551	-0.156250	0.796875	0.094519	0.066861	-0.062242	-0.076285	-0.872733	-0.192048	-0.442307	153.090859	-47.964526	36.970686
40314		8.636250	8.125837	-6.210092	1.857695	-4.052946	2.808539	-1.604290	-1.809388	-1.084794	-0.392334	-0.170166	0.795410	0.087361	0.080289	-0.061960	-0.087417	-0.875034	-0.192462	-0.435468	152.097275	-46.756580	37.068343
40315		8.540417	5.093113	-9.796196	-1.738320	-1.098175	3.993352	-1.510679	-1.760325	-1.070452	-0.386963	-0.181152	0.809082	0.086533	0.049732	-0.097582	-0.098040	-0.877134	-0.193020	-0.428681	151.175376	-45.575496	37.144991
40316		7.656506	5.210624	-9.301186	-1.683897	-1.304180	3.138833	-0.999007	-1.633100	-1.038754	-0.368408	-0.204102	0.801270	0.077590	0.051242	-0.092638	-0.106219	-0.879119	-0.194559	-0.421918	150.544792	-44.467117	37.224041
40317		6.892469	2.238951	-8.493560	-2.106501	1.231297	1.082381	-0.496036	-1.475568	-1.054349	-0.340332	-0.202393	0.798584	0.069665	0.021814	-0.084478	-0.112051	-0.880932	-0.197304	-0.415300	150.163802	-43.431491	37.362006
40318		8.004127	-1.263246	-7.442607	-1.430957	4.925382	-0.078909	0.721319	-0.995716	-0.727203	-0.341064	-0.206787	0.811035	0.080365	-0.012657	-0.074072	-0.111367	-0.882693	-0.201375	-0.409754	150.508150	-42.728234	37.459366
40319		8.410428	-0.710809	-4.892962	0.978204	4.553166	-1.239866	1.095463	-0.549548	-0.669189	-0.322021	-0.195313	0.816162	0.084215	-0.007122	-0.048737	-0.108451	-0.883762	-0.206211	-0.405808	150.976172	-42.264047	37.694162
40320		8.039580	0.261506	-3.300507	2.268420	3.484798	-2.176784	1.434373	-0.027245	-0.570132	-0.320557	-0.186279	0.810059	0.080408	0.002622	-0.032975	-0.103299	-0.884011	-0.211550	-0.403857	151.550742	-42.091928	38.058602
40321		6.653303	1.081250	-3.116390	1.835628	2.113756	-2.934467	1.400228	0.387660	-0.529966	-0.329834	-0.178467	0.818115	0.066501	0.010855	-0.031217	-0.097766	-0.883393	-0.216863	-0.403768	152.021887	-42.141865	38.550826
40322		5.310061	3.554910	-3.257680	1.703942	-0.717248	-2.882414	1.308952	0.661740	-0.418922	-0.324951	-0.167236	0.818359	0.053068	0.035651	-0.032519	-0.092115	-0.882248	-0.221603	-0.405025	152.423851	-42.364045	39.064373
40323		5.101050	3.479214	-3.372937	1.473722	-0.776383	-2.976927	1.059251	0.876861	-0.223860	-0.333008	-0.161133	0.830322	0.050902	0.034914	-0.033768	-0.086921	-0.880720	-0.225084	-0.407571	152.719549	-42.748556	39.523021
40324		5.786005	1.347318	-3.022486	1.402862	1.398040	-3.448289	0.985468	1.159539	0.045084	-0.346436	-0.154297	0.819580	0.057681	0.013636	-0.030493	-0.081190	-0.878843	-0.227320	-0.411545	153.028144	-43.350116	39.893738
40325		6.338685	-0.194571	-3.178921	1.013570	2.953661	-3.443246	0.912945	1.468212	0.266040	-0.354492	-0.145264	0.820313	0.063154	-0.001715	-0.032262	-0.074958	-0.876491	-0.228567	-0.417015	153.324052	-44.167192	40.220730
40326		6.206385	0.480768	-3.518366	0.821979	2.195510	-3.057559	0.949465	1.767441	0.458348	-0.368408	-0.140625	0.814453	0.061738	0.005118	-0.035706	-0.067825	-0.873672	-0.229117	-0.423795	153.659319	-45.189074	40.513149
40327		5.808491	1.889763	-3.578527	0.948105	0.661835	-2.828643	0.766107	2.015051	0.664197	-0.384033	-0.129639	0.808838	0.057657	0.019228	-0.036294	-0.060757	-0.870398	-0.228459	-0.431882	153.931755	-46.390505	40.744036
40328		5.509615	1.599508	-3.765933	0.437033	0.656184	-2.995602	0.498815	2.225434	0.922679	-0.407715	-0.123779	0.803955	0.054598	0.016343	-0.038228	-0.054057	-0.866767	-0.226105	-0.441214	154.134610	-47.766723	40.852376
40329		5.384904	0.999076	-3.936780	-0.089775	0.996791	-3.142664	0.287759	2.400904	1.163047	-0.430176	-0.122070	0.791748	0.053312	0.010359	-0.039995	-0.047523	-0.862817	-0.222280	-0.451532	154.308853	-49.292695	40.838524
40330		5.611952	0.847874	-4.063179	-0.265483	1.082676	-2.922377	0.096015	2.537201	1.330570	-0.447510	-0.109375	0.788330	0.055540	0.008869	-0.041335	-0.041290	-0.858536	-0.217263	-0.462610	154.441211	-50.931478	40.732773
40331		6.351537	0.909053	-4.581770	-0.469975	1.114487	-2.022093	-0.041830	2.673959	1.504533	-0.471436	-0.098877	0.769531	0.062825	0.009555	-0.046663	-0.035076	-0.853909	-0.211187	-0.474352	154.576519	-52.682813	40.528838
40332		7.117840	1.671213	-5.216979	-0.582357	0.455130	-0.861695	-0.131605	2.808078	1.636586	-0.496094	-0.102051	0.756836	0.070297	0.017255	-0.053172	-0.028794	-0.848875	-0.204280	-0.486674	154.724642	-54.536631	40.246549
40333		7.125449	2.872519	-5.800852	-0.910541	-0.935441	-0.275380	-0.206171	2.924567	1.748848	-0.522461	-0.102783	0.737305	0.070141	0.029281	-0.059070	-0.022416	-0.843425	-0.196701	-0.499440	154.897898	-56.476792	39.891809
40334		6.611911	4.284300	-5.005063	-0.260650	-2.504254	-0.825210	-0.497628	2.997708	1.879925	-0.541748	-0.096924	0.729736	0.064952	0.043331	-0.051137	-0.016877	-0.837633	-0.187762	-0.512671	155.012661	-58.487076	39.412489
40335		6.544844	3.604060	-5.784648	-1.426893	-2.222604	-0.740728	-0.879203	3.001883	2.018632	-0.559814	-0.086426	0.699463	0.064202	0.036435	-0.058976	-0.012556	-0.831648	-0.177229	-0.526112	155.068528	-60.531821	38.761925
40336		7.357128	2.614942	-6.355242	-2.174195	-1.338798	-0.074931	-0.984114	3.011459	2.153171	-0.593750	-0.088623	0.694824	0.072317	0.026616	-0.064778	-0.008322	-0.825455	-0.165772	-0.539513	155.245169	-62.614084	37.914863
40337		8.009779	1.810984	-7.275877	-3.263970	-0.760469	0.633854	-0.914562	3.057339	2.257605	-0.614014	-0.077637	0.664063	0.078764	0.018667	-0.074054	-0.003461	-0.818918	-0.154038	-0.552842	155.641573	-64.742311	36.886956
40338		8.496068	2.086718	-7.977147	-3.972969	-1.254309	1.268783	-0.667639	3.124450	2.341587	-0.636963	-0.079590	0.654541	0.083450	0.021581	-0.081154	0.002680	-0.811947	-0.142560	-0.566049	156.383067	-66.921388	35.650333
40339		9.032184	2.740309	-7.857137	-3.863433	-2.013577	1.668824	-0.457077	3.187522	2.386989	-0.666748	-0.066895	0.635986	0.088720	0.028287	-0.080058	0.009864	-0.804505	-0.131461	-0.579131	157.483481	-69.134814	34.180483
40340		9.288378	2.373341	-7.604474	-3.964055	-1.866828	1.611706	-0.171296	3.255252	2.394738	-0.687012	-0.050781	0.610107	0.091337	0.024767	-0.077561	0.018240	-0.796532	-0.121076	-0.592069	159.028862	-71.373315	32.429529
40341		9.279889	2.928950	-7.525439	-4.093880	-2.717094	1.464011	0.186455	3.322194	2.411394	-0.711182	-0.035889	0.593262	0.091170	0.030466	-0.076750	0.028143	-0.788007	-0.111653	-0.604803	161.226568	-73.630204	30.236600
40342		8.734816	3.402995	-6.970849	-3.903027	-3.487302	0.630283	0.443141	3.352851	2.411320	-0.735840	-0.016602	0.568115	0.085744	0.035227	-0.071078	0.039043	-0.779017	-0.102932	-0.617263	164.253109	-75.872244	27.358756
40343		8.568829	2.977427	-6.444025	-3.799624	-3.313332	0.106100	0.576099	3.332072	2.391864	-0.753662	-0.001221	0.544922	0.084234	0.030976	-0.065764	0.050393	-0.769720	-0.094680	-0.629307	168.414354	-78.048341	23.425971
40344		8.813580	2.713397	-5.225949	-2.897134	-3.105107	-0.101776	0.681911	3.281924	2.295610	-0.779297	0.018555	0.526855	0.086943	0.028318	-0.053598	0.061781	-0.760186	-0.087083	-0.640872	174.091759	-80.104920	18.038205
40345		8.899562	2.460932	-4.236061	-2.229899	-2.936378	-0.347214	0.522514	3.186977	2.100724	-0.790283	0.037598	0.497314	0.088041	0.025650	-0.043703	0.071894	-0.750622	-0.079733	-0.651951	-178.372728	-81.973106	10.712873
40346		8.544270	2.751303	-4.314125	-2.528761	-3.496848	-0.837588	0.387793	3.088585	1.910733	-0.810059	0.054199	0.481934	0.084495	0.028409	-0.044397	0.080819	-0.741085	-0.072661	-0.662557	-167.829101	-83.599359	0.309440
40347		7.881456	3.736485	-4.144867	-2.433818	-4.629894	-1.695330	0.493513	2.835925	1.536549	-0.821289	0.062012	0.457275	0.077927	0.038070	-0.042465	0.088779	-0.731987	-0.067409	-0.672137	-154.003637	-84.848869	-13.301922
40348		8.376254	4.401490	-3.448264	-1.747054	-5.298066	-1.428298	0.262266	2.424142	1.186359	-0.834717	0.072510	0.435303	0.083074	0.044555	-0.035434	0.094558	-0.724092	-0.062827	-0.680296	-137.681629	-85.616728	-29.529807
40349		9.357086	4.057361	-3.645901	-2.124635	-5.177753	-0.540055	-0.025961	2.085083	0.936332	-0.847412	0.086426	0.414063	0.092993	0.041005	-0.037436	0.098321	-0.717295	-0.058323	-0.687327	-120.478265	-85.949419	-46.795036
40350		8.921428	3.821612	-3.957590	-2.670670	-5.098208	-1.053045	-0.336339	1.807908	0.729397	-0.846436	0.087891	0.406494	0.088711	0.038473	-0.040444	0.100168	-0.711461	-0.053623	-0.693480	-104.874414	-85.956029	-62.631658
40351		7.672318	3.569454	-4.457591	-3.398982	-4.943508	-2.364056	-0.527971	1.506416	0.498584	-0.858887	0.089111	0.397461	0.076295	0.035766	-0.045246	0.100444	-0.706647	-0.049226	-0.698668	-92.775702	-85.798947	-75.065814
40352		6.684362	3.850665	-4.388592	-3.404978	-5.156508	-3.442170	-0.537296	1.165634	0.233023	-0.862305	0.085938	0.396973	0.066541	0.038466	-0.044378	0.099669	-0.702924	-0.045905	-0.702750	-84.273263	-85.642504	-83.901637
40353		6.656508	4.097146	-3.852509	-2.918797	-5.285607	-3.529384	-0.555651	0.814639	-0.009444	-0.866699	0.087646	0.376709	0.066409	0.040861	-0.038909	0.097894	-0.700365	-0.043544	-0.705698	-78.650897	-85.573829	-89.860857
40354		6.498063	4.776922	-3.456164	-2.471956	-5.842528	-3.751117	-0.823468	0.456394	-0.158594	-0.875244	0.081055	0.370605	0.064939	0.047574	-0.034906	0.094574	-0.699152	-0.040936	-0.707508	-75.642975	-85.600327	-93.351877
40355		5.696080	5.943773	-3.487863	-2.356977	-6.896806	-4.634183	-1.169095	0.143146	-0.284314	-0.866211	0.075928	0.369873	0.057020	0.059151	-0.035266	0.089534	-0.699164	-0.037690	-0.708331	-74.807630	-85.733005	-94.862404
40356		4.775738	6.399685	-4.723671	-3.584304	-7.438973	-5.583087	-1.641239	-0.159908	-0.388844	-0.864502	0.065918	0.377197	0.047919	0.063514	-0.047721	0.082411	-0.700404	-0.033275	-0.708192	-76.298805	-85.968087	-94.311009
40357		4.777160	5.361795	-5.641543	-4.761615	-6.477098	-5.480313	-1.734967	-0.386361	-0.482679	-0.874512	0.059082	0.370361	0.048009	0.053011	-0.056784	0.074584	-0.702413	-0.028944	-0.707259	-79.739198	-86.280384	-91.860111
40358		5.313108	4.382426	-5.192664	-4.542751	-5.370134	-4.820513	-1.834133	-0.510735	-0.595770	-0.870850	0.050537	0.375488	0.053393	0.043188	-0.052189	0.065982	-0.704820	-0.024709	-0.705879	-84.851775	-86.654073	-87.791496
40359		7.987558	4.043566	-1.431661	-0.913229	-4.611260	-2.060110	-2.326313	-0.586845	-0.719479	-0.856934	0.028564	0.377441	0.080062	0.039980	-0.014549	0.055194	-0.707550	-0.019188	-0.704243	-92.230806	-87.069927	-81.737355
40360		11.711572	-3.545812	1.189628	0.986014	3.077645	2.049097	-2.805263	-0.699781	-0.523459	-0.854004	0.012695	0.381348	0.116979	-0.035589	0.012804	0.043377	-0.710699	-0.011323	-0.702067	-102.854756	-87.309942	-72.710648
40361		21.019742	-11.535704	0.004037	-0.325108	10.587252	11.697363	-3.122720	-0.837966	-0.200968	-0.856689	-0.000244	0.390381	0.210074	-0.115540	0.002724	0.031549	-0.714247	-0.001218	-0.699181	-115.086089	-87.255534	-62.257849
40362		20.913911	-3.777044	-6.368513	-5.912202	2.750515	11.392949	-2.696188	-1.048320	-0.708020	-0.841309	-0.015381	0.392822	0.209330	-0.039355	-0.062065	0.019461	-0.718289	0.005548	-0.695450	-131.840482	-87.255458	-47.031836
40363		13.870005	-3.392844	-7.099725	-6.567919	2.892938	4.427225	-1.812278	-1.564347	-0.973735	-0.837891	-0.031738	0.405762	0.139079	-0.035240	-0.069595	0.009635	-0.723905	0.008239	-0.689783	-152.295927	-86.878337	-27.590921
40364		12.330349	-13.545879	-6.303125	-5.524412	13.296901	3.145558	-1.737486	-1.240506	-0.463962	-0.826416	-0.044922	0.409912	0.123371	-0.136281	-0.061085	0.001822	-0.728279	0.012528	-0.685164	-162.024832	-86.317372	-18.843142
40365		5.296917	-4.450249	-6.236967	-5.820251	4.440230	-4.053282	0.277103	-0.681653	-0.742285	-0.832275	-0.051270	0.412109	0.053016	-0.044613	-0.062251	0.000358	-0.730681	0.008911	-0.682661	-169.422033	-86.036461	-11.271416
40366		3.931207	7.799611	-6.757948	-6.534635	-7.753234	-5.437692	0.320031	-0.968410	-1.601981	-0.819092	-0.057373	0.425537	0.040262	0.077784	-0.067261	-0.003872	-0.734061	0.002003	-0.679070	177.815309	-85.540478	1.708300
40367		7.673544	3.492650	-6.269239	-5.631652	-3.359340	-1.604084	-0.067074	-1.202783	-1.576805	-0.819580	-0.067383	0.430176	0.077383	0.034297	-0.062240	-0.009433	-0.738155	-0.003492	-0.674556	168.271454	-84.739434	11.246606
40368		11.167154	6.466004	-3.179089	-2.140257	-6.173662	1.759810	0.460567	-0.902998	-1.229116	-0.812256	-0.075439	0.447021	0.112208	0.064044	-0.031137	-0.011870	-0.741216	-0.009501	-0.671095	162.954278	-84.057491	16.853443
40369		12.119927	5.365689	-3.415565	-2.156191	-4.924089	2.775050	0.088776	-0.749501	-0.977705	-0.803955	-0.075195	0.444580	0.121586	0.053078	-0.033677	-0.014832	-0.743708	-0.013335	-0.668207	159.480328	-83.466854	20.398164
40370		9.986977	5.355614	-1.764507	-0.647968	-4.901786	0.535596	0.390445	-0.561281	-0.960843	-0.806396	-0.084473	0.454834	0.100174	0.053109	-0.017260	-0.016636	-0.745574	-0.018113	-0.665969	156.478152	-82.957525	23.641764
40371		8.625547	4.990281	-1.486778	-0.463215	-4.520054	-0.820068	-0.197127	-0.544840	-0.843886	-0.809570	-0.090820	0.451904	0.086505	0.049524	-0.014681	-0.020205	-0.747318	-0.020514	-0.663842	154.009679	-82.468788	26.015411
40372		10.019343	1.577223	-2.616952	-1.386171	-0.953948	0.526129	-0.229411	-0.536667	-0.657038	-0.800781	-0.095703	0.457520	0.100314	0.015413	-0.025918	-0.023308	-0.749041	-0.022096	-0.661745	152.470795	-82.020508	27.430756
40373		10.707941	1.683316	-2.717183	-1.347221	-0.941393	1.240578	-0.206483	-0.496741	-0.651606	-0.791504	-0.100342	0.460693	0.107201	0.016456	-0.026923	-0.026268	-0.750614	-0.023752	-0.659791	151.054223	-81.590870	28.741370
40374		9.301392	2.346490	-2.807822	-1.568945	-1.626073	-0.076187	-0.388619	-0.503402	-0.667536	-0.789551	-0.106445	0.469971	0.093162	0.023100	-0.027889	-0.029998	-0.752176	-0.024852	-0.657810	149.623259	-81.147012	29.958524
40375		8.842923	1.696558	-3.511631	-2.282270	-0.929300	-0.467417	-0.472253	-0.552383	-0.672781	-0.791992	-0.121582	0.464844	0.088582	0.016585	-0.034911	-0.034032	-0.753861	-0.025703	-0.655648	148.352987	-80.675272	30.969880
40376		9.206537	1.021850	-2.806985	-1.480507	-0.164450	-0.249003	-0.342205	-0.567133	-0.673563	-0.782715	-0.113037	0.474609	0.092178	0.009860	-0.027826	-0.037615	-0.755607	-0.026964	-0.653389	147.282913	-80.190925	31.850852
40377		10.182489	0.139407	-2.471388	-0.945094	0.864236	0.587771	-0.053326	-0.527371	-0.660750	-0.784424	-0.121826	0.480957	0.101893	0.001051	-0.024446	-0.040023	-0.757256	-0.029143	-0.651239	146.436881	-79.729351	32.677966
40378		10.582813	1.487095	-1.491837	0.129068	-0.391932	0.969800	0.252247	-0.459049	-0.694556	-0.782959	-0.124023	0.489014	0.105913	0.014522	-0.014657	-0.041404	-0.758732	-0.032446	-0.649275	145.628197	-79.285338	33.642724
40379		10.496703	2.603966	-1.483907	0.173849	-1.445745	1.005926	0.337836	-0.400711	-0.646290	-0.777588	-0.127197	0.494873	0.105080	0.025725	-0.014585	-0.042262	-0.760024	-0.035867	-0.647527	144.959751	-78.884373	34.519570
40380		9.735031	3.815327	-1.458447	0.132613	-2.675434	0.399002	0.376953	-0.367438	-0.583429	-0.780273	-0.127686	0.486328	0.097488	0.037896	-0.014334	-0.042793	-0.761223	-0.039170	-0.645890	144.452091	-78.516012	35.252856
40381		9.212375	3.970050	-1.830062	-0.268317	-2.834791	-0.021370	0.160571	-0.375382	-0.512351	-0.770752	-0.123779	0.487793	0.092259	0.039479	-0.018096	-0.043888	-0.762397	-0.041514	-0.644283	144.034827	-78.168698	35.771799
40382		9.611074	2.630992	-2.435952	-0.765486	-1.404592	0.319912	0.034047	-0.373499	-0.452619	-0.773682	-0.126221	0.491943	0.096215	0.026096	-0.024175	-0.045300	-0.763551	-0.043214	-0.642706	143.693832	-77.839629	36.136192
40383		10.084627	1.442590	-2.857408	-1.070000	-0.117896	0.712828	0.056420	-0.346706	-0.434720	-0.769775	-0.130615	0.501953	0.100927	0.014215	-0.028395	-0.046534	-0.764613	-0.044932	-0.641235	143.383546	-77.530701	36.485823
40384		10.314798	1.034988	-3.145713	-1.280957	0.360027	0.938642	0.122663	-0.295686	-0.397011	-0.765625	-0.134033	0.507813	0.103215	0.010164	-0.031298	-0.047410	-0.765538	-0.046722	-0.639938	143.122119	-77.255599	36.821773
40385		10.073199	0.627443	-3.248115	-1.398386	0.765171	0.669307	0.266391	-0.228113	-0.350563	-0.770508	-0.125732	0.505615	0.100780	0.006141	-0.032358	-0.047543	-0.766280	-0.048817	-0.638884	142.948702	-77.029315	37.155155
40386		9.758928	0.771353	-3.040534	-1.224438	0.602351	0.346759	0.386695	-0.164106	-0.345778	-0.778809	-0.127197	0.503906	0.097627	0.007603	-0.030310	-0.047210	-0.766849	-0.051286	-0.638031	142.764046	-76.831521	37.568414
40387		9.509264	1.669392	-2.853076	-1.046943	-0.301592	0.195603	0.470137	-0.135811	-0.358461	-0.768066	-0.130615	0.508545	0.095142	0.016590	-0.028427	-0.046564	-0.767330	-0.054083	-0.637268	142.572453	-76.644072	38.040952
40388		9.776328	1.953550	-2.883798	-0.998970	-0.524165	0.504118	0.431514	-0.125837	-0.323668	-0.775391	-0.124756	0.505371	0.097813	0.019439	-0.028734	-0.045976	-0.767782	-0.056621	-0.636546	142.416991	-76.470792	38.451572
40389		9.923576	1.967109	-2.819958	-0.887032	-0.497803	0.640272	0.445373	-0.106959	-0.294387	-0.762451	-0.127441	0.513428	0.099280	0.019588	-0.028103	-0.045213	-0.768172	-0.059099	-0.635905	142.305804	-76.318275	38.827463
40390		9.699640	2.203075	-2.818751	-0.897673	-0.749450	0.459331	0.508894	-0.089468	-0.269224	-0.770508	-0.115234	0.513672	0.097039	0.021972	-0.028088	-0.044141	-0.768530	-0.061682	-0.635302	142.255706	-76.180183	39.175994
40391		9.822468	1.953540	-3.083940	-1.123869	-0.478788	0.594787	0.584623	-0.077202	-0.223593	-0.772217	-0.118896	0.519043	0.098258	0.019516	-0.030744	-0.042608	-0.768865	-0.064336	-0.634738	142.320195	-76.065853	39.453545
40392		9.812873	2.351637	-2.375450	-0.390734	-0.857072	0.510982	0.658116	-0.052742	-0.208781	-0.767822	-0.116699	0.518799	0.098160	0.023492	-0.023651	-0.040755	-0.769142	-0.067170	-0.634230	142.419851	-75.965739	39.736839
40393		9.977085	1.955386	-2.510626	-0.493071	-0.439542	0.638755	0.617619	-0.047139	-0.175350	-0.775146	-0.121826	0.523682	0.099794	0.019544	-0.025022	-0.038931	-0.769388	-0.069748	-0.633768	142.551249	-75.882135	39.965142
40394		9.785323	1.860092	-2.211072	-0.221864	-0.364635	0.381385	0.732946	-0.040821	-0.180543	-0.774658	-0.109863	0.527832	0.097875	0.018593	-0.022023	-0.036698	-0.769634	-0.072710	-0.633269	142.729708	-75.797478	40.211111
40395		9.710793	1.247909	-1.946712	0.001510	0.239326	0.166750	0.701521	-0.080052	-0.165657	-0.783936	-0.105957	0.531494	0.097126	0.012467	-0.019385	-0.034532	-0.769985	-0.075509	-0.632637	142.972168	-75.702552	40.374598
40396		9.517018	0.998045	-1.629456	0.277001	0.471318	-0.121148	0.833566	-0.116737	-0.167704	-0.781494	-0.102051	0.525879	0.095188	0.009968	-0.016197	-0.031894	-0.770470	-0.078726	-0.631792	143.334311	-75.588133	40.491338
40397		9.515549	0.547203	-0.576351	1.292654	0.976093	-0.402400	0.905167	-0.194975	-0.178064	-0.769531	-0.095215	0.533447	0.095166	0.005413	-0.005646	-0.029026	-0.771185	-0.082195	-0.630614	143.820683	-75.436520	40.523589
40398		9.950727	0.463841	0.366495	2.316084	1.204248	-0.192300	0.920416	-0.265302	-0.221485	-0.773438	-0.097900	0.536865	0.099507	0.004511	0.003818	-0.026279	-0.772098	-0.085869	-0.629127	144.324029	-75.235666	40.546307
40399		10.105972	1.026669	1.622431	3.661106	0.794318	-0.232391	0.817494	-0.336537	-0.261491	-0.769043	-0.087158	0.549072	0.101045	0.010068	0.016436	-0.024071	-0.773177	-0.089361	-0.627401	144.781804	-74.990416	40.556230
40400		9.741363	0.056462	1.950404	3.841327	1.752360	-0.819659	0.734414	-0.431759	-0.277929	-0.767822	-0.088379	0.541260	0.097372	0.000357	0.019716	-0.022291	-0.774531	-0.092644	-0.625318	145.270975	-74.693120	40.483260
40401		9.336894	0.275924	2.359882	4.223562	1.546979	-1.292670	0.706191	-0.538699	-0.357423	-0.769531	-0.088867	0.558838	0.093310	0.002509	0.023859	-0.020904	-0.776153	-0.096131	-0.622823	145.724074	-74.321354	40.431888
40402		9.303586	0.357319	2.578060	4.487572	1.534167	-1.396146	0.697916	-0.680144	-0.405413	-0.762207	-0.082031	0.559326	0.092954	0.003294	0.026109	-0.019779	-0.778180	-0.099763	-0.619752	146.238483	-73.865157	40.310832
40403		8.969737	1.020022	2.787997	4.767016	0.904345	-1.705505	0.635000	-0.817925	-0.476778	-0.757080	-0.085693	0.571289	0.089606	0.009897	0.028278	-0.019175	-0.780561	-0.103459	-0.616160	146.732487	-73.322065	40.174067
40404		9.129244	0.952328	2.567047	4.652529	1.041256	-1.559904	0.470779	-0.998685	-0.516778	-0.757080	-0.088135	0.580078	0.091187	0.009226	0.026148	-0.019439	-0.783441	-0.106787	-0.611914	147.233061	-72.677770	39.930927
40405		9.078713	0.660291	2.565442	4.681860	1.381883	-1.712703	0.453219	-1.147339	-0.582871	-0.741943	-0.089111	0.585205	0.090657	0.006280	0.026189	-0.020041	-0.786701	-0.110298	-0.607071	147.740412	-71.942252	39.669892
40406		9.189949	0.486383	2.544651	4.757331	1.639871	-1.698260	0.345051	-1.314472	-0.612044	-0.731201	-0.087158	0.593994	0.091744	0.004538	0.026058	-0.021260	-0.790405	-0.113576	-0.601589	148.263121	-71.114591	39.325330
40407		9.318212	0.001892	2.263729	4.553384	2.179468	-1.659890	0.314174	-1.479381	-0.653138	-0.719971	-0.087891	0.614502	0.093011	-0.000321	0.023325	-0.022806	-0.794524	-0.116896	-0.595438	148.814543	-70.194446	38.930621
40408		9.823315	0.593635	2.677054	5.297586	1.830679	-1.292249	0.155365	-1.667424	-0.715364	-0.711914	-0.089355	0.613281	0.098026	0.005564	0.027593	-0.025285	-0.799093	-0.119963	-0.588575	149.299080	-69.161271	38.507146
40409		10.279016	-0.024543	1.793102	4.634880	2.525248	-0.812061	-0.031104	-1.875087	-0.773123	-0.695557	-0.099121	0.625244	0.102614	-0.000639	0.018894	-0.028793	-0.804135	-0.122672	-0.580938	149.716211	-68.008792	38.038860
40410		10.477072	-0.680534	1.929350	4.883317	3.309258	-0.915957	-0.127036	-2.076678	-0.854901	-0.684326	-0.104004	0.640381	0.104533	-0.007240	0.020384	-0.033051	-0.809610	-0.125390	-0.572466	150.074528	-66.730865	37.570212
40411		10.910289	-1.057106	1.578300	4.819387	3.846369	-0.614018	-0.157675	-2.295020	-0.958560	-0.662109	-0.107666	0.662598	0.108860	-0.011080	0.017042	-0.037855	-0.815521	-0.128385	-0.563036	150.395882	-65.314701	37.118543
40412		12.679483	-1.118132	1.791124	5.825492	4.489633	0.728867	-0.218850	-2.495076	-1.046051	-0.633301	-0.127930	0.673828	0.126497	-0.011823	0.019503	-0.043283	-0.821791	-0.131505	-0.552714	150.665524	-63.772524	36.679385
40413		14.344945	-2.055755	0.526982	5.379140	5.888399	2.297569	-0.385982	-2.625654	-1.129714	-0.616211	-0.127441	0.691406	0.143244	-0.021354	0.007192	-0.049700	-0.828168	-0.134451	-0.541841	150.792868	-62.141633	36.286981
40414		14.918614	-2.977632	0.119577	5.387513	7.084028	2.525059	-0.194542	-2.699813	-1.242562	-0.596436	-0.132813	0.698486	0.148963	-0.030700	0.003237	-0.055677	-0.834539	-0.138333	-0.530386	150.932900	-60.441376	35.998033
40415		15.443247	-3.996936	0.108725	5.733999	8.405677	2.472597	0.110395	-2.762537	-1.363265	-0.574951	-0.142334	0.715576	0.154121	-0.041022	0.003195	-0.060724	-0.840884	-0.143481	-0.518304	151.149021	-58.676131	35.819558
40416		16.435977	-4.099594	0.609647	6.895527	9.044155	2.755245	0.476928	-2.801506	-1.476063	-0.543213	-0.139648	0.734131	0.163945	-0.042225	0.008295	-0.064539	-0.847153	-0.150003	-0.505634	151.477985	-56.859955	35.751858
40417		17.689637	-3.643782	0.799421	8.022654	9.263658	3.477727	0.671871	-2.829217	-1.561680	-0.514648	-0.145264	0.751465	0.176469	-0.037849	0.010367	-0.067744	-0.853266	-0.157334	-0.492538	151.846212	-55.006251	35.770849
40418		18.622918	-3.240200	0.701294	8.779858	9.464601	4.011564	0.873347	-2.828152	-1.647010	-0.492920	-0.156006	0.760010	0.185831	-0.033971	0.009497	-0.070283	-0.859138	-0.165475	-0.479125	152.253421	-53.130852	35.883927
40419		18.602838	-2.769791	-0.212620	8.422695	9.273820	4.216163	1.081230	-2.791707	-1.705545	-0.456787	-0.148438	0.774902	0.185790	-0.029280	0.000313	-0.072016	-0.864697	-0.174337	-0.465531	152.716878	-51.258475	36.080169
40420		17.600908	-0.134103	-0.696580	8.454938	6.740250	4.092400	1.309897	-2.707487	-1.809845	-0.435791	-0.144287	0.784180	0.176060	-0.002899	-0.004598	-0.072912	-0.869789	-0.184146	-0.451931	153.211596	-49.403994	36.409614
40421		17.049129	2.050487	-1.844247	8.123207	4.778960	4.658952	1.216395	-2.572548	-1.801060	-0.411865	-0.143066	0.809326	0.170885	0.019070	-0.016127	-0.074044	-0.874293	-0.193713	-0.438867	153.618287	-47.621613	36.795740
40422		15.592176	4.080899	-4.226507	6.346404	2.543966	5.381489	0.966961	-2.406232	-1.766438	-0.388428	-0.144775	0.818115	0.156767	0.039625	-0.040189	-0.076014	-0.878141	-0.202577	-0.426677	153.862121	-45.936372	37.218226
40423		13.936191	6.714663	-3.601527	7.013147	-0.233581	4.435863	0.684057	-2.073342	-1.562055	-0.363037	-0.140137	0.825928	0.140243	0.066173	-0.034337	-0.078433	-0.881192	-0.210039	-0.416212	153.976834	-44.473410	37.607438
40424		13.052085	6.737496	-3.884961	6.537430	-0.393172	3.896547	-0.718355	-1.754229	-1.302366	-0.349609	-0.147217	0.815918	0.131291	0.066384	-0.037940	-0.086149	-0.883163	-0.213510	-0.408674	153.356451	-43.240728	37.904607
40425		11.018657	5.977600	-7.740350	2.316580	-0.413865	4.730618	-2.179330	-1.499890	-1.116981	-0.328369	-0.175537	0.815186	0.111095	0.058315	-0.077213	-0.099645	-0.884035	-0.213271	-0.403818	151.953212	-42.181080	38.130917
40426		8.331949	6.197463	-11.610740	-2.056502	-1.493259	5.555176	-1.387901	-1.262845	-1.058525	-0.313232	-0.195313	0.822266	0.084376	0.060725	-0.116001	-0.109263	-0.884740	-0.214434	-0.399142	150.995772	-41.255281	38.370241
40427		6.577097	4.179692	-10.944277	-3.101198	-0.254289	3.257005	-1.078347	-1.302315	-1.144452	-0.295410	-0.206543	0.822998	0.066718	0.040828	-0.109232	-0.117707	-0.885505	-0.216571	-0.393856	150.206596	-40.281235	38.631008
40428		5.647779	-0.520858	-11.463642	-5.314424	3.633725	1.238779	0.113976	-1.122023	-1.195547	-0.279053	-0.203125	0.818848	0.057088	-0.005483	-0.114320	-0.120779	-0.886487	-0.221341	-0.388023	150.047706	-39.382031	38.975146
40429		5.549877	-0.987781	-6.450749	-1.721037	3.842663	-2.352071	0.953445	-0.728702	-1.147660	-0.272461	-0.200684	0.826416	0.055677	-0.009890	-0.064352	-0.119582	-0.887204	-0.227778	-0.382997	150.304867	-38.690758	39.432580
40430		7.202045	-1.704930	-4.497143	0.504140	5.221692	-2.922092	1.426567	-0.289984	-0.996768	-0.258301	-0.199951	0.830322	0.072001	-0.017087	-0.044989	-0.115498	-0.887473	-0.234670	-0.379450	150.796118	-38.264696	39.951292
40431		9.692528	0.518287	-2.737503	4.000497	4.521490	-1.734338	1.293578	0.264531	-0.587417	-0.271973	-0.186279	0.836670	0.096904	0.005076	-0.027470	-0.110560	-0.887034	-0.239826	-0.378722	151.252179	-38.232107	40.410171
40432		9.941153	1.768850	-2.582323	4.655084	3.575364	-1.200459	1.270694	0.750301	-0.363158	-0.272461	-0.162598	0.842529	0.099346	0.017673	-0.026084	-0.104724	-0.885888	-0.244163	-0.380289	151.676866	-38.509680	40.891998
40433		6.482730	7.481328	-3.005400	4.295647	-3.105636	-0.928380	0.871426	1.030620	-0.392215	-0.276855	-0.165283	0.832275	0.064819	0.074817	-0.030062	-0.100351	-0.883913	-0.248040	-0.383540	151.798315	-38.921154	41.494466
40434		2.406514	9.599135	-3.205574	2.502448	-7.020424	-2.555880	-0.540888	1.052992	-0.199661	-0.280518	-0.181641	0.826660	0.023991	0.095880	-0.032442	-0.101829	-0.881391	-0.248328	-0.388735	151.176132	-39.396271	41.982918
40435		1.674612	4.892322	-3.930160	-0.236485	-3.361413	-4.260303	-1.651447	1.009175	0.166010	-0.289551	-0.187012	0.826904	0.016506	0.048610	-0.039788	-0.107527	-0.878783	-0.244837	-0.395263	150.068604	-39.944704	42.233997
40436		3.387468	0.301555	-4.467612	-1.349913	1.472612	-4.565398	-1.396936	1.119511	0.533810	-0.296631	-0.204834	0.820313	0.033616	0.002792	-0.044885	-0.111255	-0.876468	-0.240234	-0.402138	149.220953	-40.652271	42.299479
40437		5.024232	0.126984	-3.904612	-0.141550	2.446700	-3.939191	-0.918679	1.398616	0.827286	-0.309082	-0.206543	0.806641	0.049962	0.001296	-0.039402	-0.111933	-0.874130	-0.235478	-0.409778	148.693932	-41.581416	42.298898
40438		5.818791	0.309987	-4.221460	0.018073	2.640488	-3.119311	-0.701728	1.671450	1.061678	-0.327393	-0.214111	0.802002	0.057815	0.003258	-0.042710	-0.110871	-0.871548	-0.230232	-0.418457	148.312730	-42.715444	42.260040
40439		5.614750	-0.637515	-4.072607	-0.375160	3.291145	-3.685370	-0.638773	1.963417	1.371812	-0.355713	-0.219727	0.799072	0.055787	-0.006123	-0.041255	-0.108514	-0.868628	-0.223937	-0.428442	148.023263	-44.083998	42.147155
40440		4.966106	-0.864110	-4.839420	-1.506835	3.086943	-3.727692	-0.596777	2.242013	1.733597	-0.361572	-0.219727	0.783936	0.049188	-0.008359	-0.048922	-0.104891	-0.865385	-0.216230	-0.439718	147.845438	-45.699678	41.906797
40441		4.519963	0.868599	-5.221053	-1.692523	1.233907	-3.175404	-0.570700	2.470385	2.005921	-0.393799	-0.218506	0.774170	0.044461	0.008984	-0.052788	-0.100263	-0.861741	-0.207513	-0.451983	147.756343	-47.508131	41.577993
40442		3.846885	2.431318	-6.105922	-2.515612	-0.604099	-2.650723	-0.770849	2.620019	2.225435	-0.415039	-0.216309	0.762939	0.037392	0.024496	-0.061648	-0.095844	-0.857643	-0.197366	-0.465091	147.631601	-49.458073	41.146300
40443		3.585756	2.570325	-6.847018	-3.432253	-0.988624	-2.492739	-0.844004	2.727390	2.482153	-0.443359	-0.222656	0.747314	0.034598	0.025847	-0.069057	-0.090978	-0.853223	-0.185982	-0.478690	147.597723	-51.537762	40.562181
40444		3.967800	2.510923	-6.559359	-3.238023	-0.916559	-2.481839	-0.853832	2.832290	2.753725	-0.470703	-0.216797	0.723633	0.038395	0.025362	-0.066251	-0.085400	-0.848475	-0.173347	-0.492694	147.724825	-53.752462	39.778756
40445		4.539355	1.827601	-7.012323	-3.740191	-0.241134	-2.127423	-0.841712	2.963684	2.976993	-0.504639	-0.209717	0.708740	0.044071	0.018641	-0.070861	-0.079041	-0.843232	-0.159821	-0.507119	148.023590	-56.095923	38.823272
40446		5.320346	1.891839	-7.524654	-4.085018	-0.238817	-1.342149	-0.543192	3.127835	3.119807	-0.536865	-0.201660	0.687744	0.051716	0.019527	-0.076116	-0.070921	-0.837403	-0.146397	-0.521819	148.626203	-58.559234	37.730368
40447		5.843449	3.131746	-7.260873	-3.696409	-1.483610	-0.824143	-0.293423	3.322862	3.224161	-0.563477	-0.193604	0.671875	0.056703	0.032133	-0.073607	-0.061276	-0.830796	-0.133223	-0.536913	149.513599	-61.140113	36.508809
40448		5.692515	3.455860	-7.877450	-4.565777	-2.140758	-0.815255	-0.183946	3.512797	3.345304	-0.592285	-0.158447	0.648682	0.054942	0.035416	-0.079783	-0.050684	-0.823320	-0.119813	-0.552467	150.686845	-63.840441	35.066135
40449		5.411008	3.595002	-8.731598	-5.743621	-2.685968	-0.968643	0.169613	3.709614	3.422731	-0.616699	-0.163574	0.632568	0.051852	0.036925	-0.088261	-0.038281	-0.814936	-0.107047	-0.568290	152.338816	-66.642010	33.353385
40450		5.036128	3.545891	-9.304742	-6.712181	-3.068323	-1.444898	0.417699	3.904612	3.472435	-0.666504	-0.139893	0.604248	0.047905	0.036500	-0.093923	-0.024589	-0.805529	-0.094741	-0.584417	154.534414	-69.532362	31.244213
40451		5.220940	2.579108	-9.662187	-7.410395	-2.439572	-1.665641	0.671604	4.110569	3.475457	-0.688965	-0.108643	0.590332	0.049748	0.026997	-0.097572	-0.009758	-0.794984	-0.083132	-0.600828	157.441215	-72.492037	28.577039
40452		5.920734	1.878090	-9.240131	-7.206157	-1.959268	-1.556410	0.911067	4.285672	3.331647	-0.719482	-0.079346	0.558350	0.056883	0.020166	-0.093547	0.005679	-0.783268	-0.072752	-0.617387	161.189373	-75.462764	25.220583
40453		6.802642	2.375033	-8.417622	-6.464416	-2.638309	-1.210751	1.127384	4.432052	3.047245	-0.752197	-0.058350	0.523193	0.065764	0.025243	-0.085511	0.021128	-0.770402	-0.064103	-0.633975	165.988478	-78.390228	20.957504
40454		8.276489	3.092498	-6.753621	-4.813029	-3.423765	-0.391559	1.179356	4.491615	2.804028	-0.783691	-0.020508	0.494873	0.080775	0.032472	-0.069177	0.036015	-0.756688	-0.056493	-0.650334	172.863184	-81.215392	14.660077
40455		9.818790	3.702412	-4.857113	-3.013068	-4.099892	0.569539	1.204832	4.469746	2.654107	-0.805176	-0.013428	0.470215	0.096568	0.038613	-0.050512	0.050474	-0.742454	-0.049504	-0.666156	-175.212141	-83.814226	3.331803
40456		9.559604	5.308655	-3.235011	-1.575161	-5.813038	-0.130864	1.122121	4.312684	2.504344	-0.825195	0.013916	0.436035	0.094197	0.054460	-0.034089	0.064057	-0.728218	-0.042795	-0.681002	-151.420722	-85.803141	-19.907136
40457		9.567150	6.289984	-2.624513	-1.141900	-6.990748	-0.443120	0.780911	3.975449	2.283980	-0.847900	0.032959	0.398926	0.094401	0.064090	-0.027881	0.075534	-0.714760	-0.035815	-0.694355	-112.672795	-86.381165	-58.290870
40458		10.032186	6.608775	-2.949232	-1.698288	-7.643097	-0.236684	0.342281	3.558612	1.996871	-0.856445	0.050049	0.380371	0.099111	0.067134	-0.031149	0.084339	-0.702520	-0.028474	-0.706075	-81.779146	-85.463026	-89.062864
40459		8.164263	6.203871	-4.257651	-3.316809	-7.504645	-2.333482	0.027712	3.073114	1.681410	-0.865234	0.071533	0.347168	0.080450	0.062724	-0.043810	0.090823	-0.691827	-0.021330	-0.716011	-66.257152	-84.035174	-104.633363
40460		5.948947	5.070462	-3.564646	-2.932452	-6.176398	-4.611274	-0.107001	2.498235	1.275925	-0.880127	0.077637	0.329834	0.058713	0.051061	-0.036410	0.095306	-0.683036	-0.015360	-0.723977	-58.385677	-82.717120	-112.619876
40461		6.534135	2.846781	-3.000213	-2.878396	-4.045859	-3.884431	0.002853	1.872742	0.799945	-0.884766	0.078857	0.314941	0.064942	0.028729	-0.030611	0.098378	-0.676318	-0.011710	-0.729917	-53.789773	-81.735787	-117.257578
