// General information: 
//  MT Manager version: 2019.2.0 
//  XDA version: 2019.2.0 build 3853 rev 94535 built on 2019-09-09
// Device information: 
//  DeviceId: 00B47783
//  ProductCode: MTW2-3A7G6
//  Firmware Version: 4.6.0
//  Hardware Version: 2.0.0
// Device settings: 
//  Filter Profile: human(46.1)
//  Option Flags: Orientation Smoother Disabled, AHS Disabled, ICC Disabled
// Coordinate system: ENU
PacketCounter	SampleTimeFine	Acc_X	Acc_Y	Acc_Z	FreeAcc_E	FreeAcc_N	FreeAcc_U	Gyr_X	Gyr_Y	Gyr_Z	Mag_X	Mag_Y	Mag_Z	VelInc_X	VelInc_Y	VelInc_Z	Quat_q0	Quat_q1	Quat_q2	Quat_q3	Roll	Pitch	Yaw
49335		9.844604	1.150615	-1.490149	-0.172602	-0.611845	0.190137	-0.614486	0.080247	-0.038812	-0.886719	-0.004639	0.428467	0.098442	0.011441	-0.014976	0.015066	-0.747582	-0.060028	-0.661280	155.532340	-82.108772	30.569738
49336		9.872159	0.605290	-1.282939	-0.038260	-0.037633	0.160724	-0.543629	0.067467	-0.030765	-0.887939	-0.008545	0.434082	0.098718	0.006003	-0.012879	0.012965	-0.747387	-0.058350	-0.661694	154.990581	-82.136539	30.804072
49337		9.832618	0.165753	-1.027470	0.154482	0.428187	0.064373	-0.420686	0.056452	-0.025253	-0.894775	-0.009766	0.434082	0.098323	0.001623	-0.010306	0.011296	-0.747217	-0.057017	-0.662033	154.551243	-82.160213	30.999278
49338		9.823590	0.296299	-0.787963	0.396956	0.325214	0.033543	-0.308022	0.041970	-0.024839	-0.896240	-0.018066	0.428711	0.098235	0.002939	-0.007905	0.010088	-0.747087	-0.056098	-0.662278	154.208214	-82.175779	31.169248
49339		9.716435	0.723319	-0.695716	0.511718	-0.094589	-0.058432	-0.243174	0.030422	-0.019932	-0.882568	-0.015869	0.427002	0.097164	0.007215	-0.006981	0.009079	-0.746991	-0.055321	-0.662467	153.933463	-82.187121	31.298697
49340		9.725355	0.768473	-0.858342	0.351682	-0.151038	-0.026813	-0.231618	0.023481	0.009234	-0.889648	-0.014893	0.432617	0.097252	0.007679	-0.008604	0.008263	-0.746925	-0.054528	-0.662617	153.794510	-82.201568	31.306856
49341		9.776260	0.725453	-1.101716	0.108794	-0.126563	0.050753	-0.205982	0.027294	0.053308	-0.885254	-0.022461	0.421875	0.097759	0.007269	-0.011038	0.007648	-0.746857	-0.053614	-0.662775	153.823905	-82.229416	31.153057
49342		9.417615	0.800576	-1.336123	-0.161212	-0.249103	-0.271745	-0.225615	0.014693	0.065631	-0.888184	-0.008789	0.422119	0.094173	0.008022	-0.013377	0.007039	-0.746834	-0.052631	-0.662887	153.917561	-82.253573	30.929927
49343		9.727462	0.022722	-1.576212	-0.432577	0.524671	0.018187	-0.223327	-0.006702	0.039988	-0.886963	-0.022217	0.432373	0.097275	0.000229	-0.015759	0.006330	-0.746871	-0.051734	-0.662923	153.951437	-82.260800	30.765478
49344		9.829136	0.120909	-1.459052	-0.295954	0.442350	0.110623	-0.088105	-0.003759	0.025477	-0.888184	-0.018066	0.432129	0.098291	0.001215	-0.014589	0.006097	-0.746893	-0.051357	-0.662930	154.006803	-82.265307	30.660511
49345		9.613457	0.322082	-1.524528	-0.367892	0.220919	-0.083230	0.007552	-0.009779	0.018118	-0.894043	-0.011475	0.421631	0.096135	0.003230	-0.015240	0.006169	-0.746931	-0.051298	-0.662891	154.098996	-82.264742	30.569416
49346		9.624854	0.389255	-1.467958	-0.302833	0.157283	-0.074731	0.116138	-0.023955	0.006189	-0.889160	-0.016846	0.427979	0.096250	0.003904	-0.014666	0.006630	-0.747009	-0.051671	-0.662770	154.235360	-82.253972	30.500803
49347		9.624006	0.211085	-1.220986	-0.070530	0.351917	-0.115882	0.212187	-0.032667	-0.007460	-0.888672	-0.019287	0.421143	0.096242	0.002120	-0.012192	0.007403	-0.747106	-0.052413	-0.662594	154.390220	-82.235527	30.469153
49348		9.715262	0.291954	-0.962745	0.207016	0.297445	-0.052201	0.268184	-0.041006	-0.016519	-0.889404	-0.016602	0.426514	0.097155	0.002924	-0.009604	0.008351	-0.747227	-0.053375	-0.662370	154.557811	-82.210285	30.456942
49349		9.763639	0.776917	-1.056712	0.168775	-0.189465	0.035383	0.238790	-0.033299	-0.021835	-0.888916	-0.011963	0.432861	0.097639	0.007771	-0.010542	0.009165	-0.747321	-0.054248	-0.662182	154.673772	-82.187805	30.478196
49350		9.618600	0.869508	-0.938921	0.282583	-0.281041	-0.117522	0.207387	-0.045909	-0.022182	-0.882813	-0.014893	0.428955	0.096189	0.008694	-0.009358	0.009867	-0.747457	-0.055030	-0.661954	154.792998	-82.158630	30.479641
49351		9.696259	0.523898	-1.100920	0.105194	0.053925	-0.040791	0.206409	-0.058499	-0.016765	-0.893799	-0.012451	0.433838	0.096966	0.005242	-0.010975	0.010574	-0.747636	-0.055782	-0.661678	154.954337	-82.124199	30.437143
49352		9.619135	0.196633	-0.901778	0.267732	0.391670	-0.161028	0.252749	-0.063150	-0.019893	-0.887207	-0.011719	0.436279	0.096194	0.001968	-0.008985	0.011448	-0.747825	-0.056706	-0.661371	155.137049	-82.086624	30.400735
49353		9.739295	-0.042802	-0.827041	0.338575	0.645647	-0.065473	0.264385	-0.070999	-0.032134	-0.888672	-0.008545	0.435059	0.097396	-0.000433	-0.008236	0.012318	-0.748035	-0.057708	-0.661030	155.293852	-82.041992	30.396294
49354		9.801146	0.431414	-0.782275	0.446370	0.185587	0.017208	0.277347	-0.075725	-0.044171	-0.890625	-0.007813	0.438477	0.098015	0.004303	-0.007780	0.013199	-0.748255	-0.058805	-0.660668	155.420063	-81.992041	30.431164
49355		9.689578	0.798591	-0.885078	0.378875	-0.193889	-0.059335	0.205272	-0.077339	-0.039198	-0.886719	-0.013916	0.426514	0.096901	0.007976	-0.008805	0.013825	-0.748485	-0.059641	-0.660320	155.526286	-81.942456	30.443969
49356		9.694217	0.948653	-0.879072	0.410018	-0.338616	-0.047045	0.101024	-0.076183	-0.038253	-0.879639	-0.005371	0.435303	0.096947	0.009472	-0.008749	0.014067	-0.748718	-0.060133	-0.660006	155.573222	-81.893685	30.456877
49357		9.753997	0.947902	-1.029844	0.274925	-0.344589	0.031357	-0.074615	-0.061242	-0.034528	-0.886230	-0.011230	0.430908	0.097545	0.009458	-0.010272	0.013662	-0.748915	-0.060024	-0.659801	155.508621	-81.853661	30.479883
49358		9.535199	0.618710	-1.204060	0.045346	-0.045510	-0.182088	-0.181666	-0.061612	-0.038269	-0.891357	-0.015625	0.428223	0.095357	0.006158	-0.012017	0.012850	-0.749118	-0.059582	-0.659626	155.370137	-81.812477	30.516485
49359		9.556606	0.288689	-1.290491	-0.067478	0.281409	-0.169364	-0.185903	-0.069719	-0.034217	-0.891602	-0.010986	0.442139	0.095571	0.002859	-0.012874	0.012025	-0.749350	-0.059103	-0.659422	155.257997	-81.768135	30.522794
49360		9.587828	0.529709	-1.123912	0.132076	0.066748	-0.145820	-0.138791	-0.083138	-0.043988	-0.877441	-0.014893	0.437012	0.095884	0.005268	-0.011203	0.011348	-0.749619	-0.058825	-0.659153	155.160761	-81.714359	30.542546
49361		9.668262	0.551818	-0.928897	0.344592	0.075894	-0.090644	-0.124905	-0.104830	-0.052250	-0.880371	-0.015381	0.440430	0.096689	0.005487	-0.009242	0.010684	-0.749956	-0.058619	-0.658799	155.079124	-81.647306	30.553627
49362		9.725418	0.661002	-0.900275	0.400678	-0.018296	-0.031569	-0.120790	-0.119699	-0.055925	-0.884277	-0.018799	0.437500	0.097261	0.006577	-0.008949	0.010025	-0.750340	-0.058447	-0.658387	155.011435	-81.571645	30.553945
49363		9.709291	0.820081	-0.969624	0.356316	-0.175975	-0.028768	-0.178756	-0.123329	-0.056485	-0.880371	-0.013428	0.437500	0.097101	0.008165	-0.009644	0.009137	-0.750738	-0.058078	-0.657978	154.915473	-81.493997	30.547983
49364		9.587963	0.617903	-1.008135	0.291175	0.021574	-0.156502	-0.362035	-0.103900	-0.064471	-0.884766	-0.013184	0.438477	0.095887	0.006130	-0.010043	0.007549	-0.751077	-0.057143	-0.657694	154.656671	-81.424440	30.601784
49365		9.205467	0.165833	-1.088748	0.126082	0.446653	-0.553201	-0.463059	-0.095392	-0.085665	-0.882568	-0.018799	0.438232	0.092061	0.001594	-0.010847	0.005513	-0.751381	-0.055955	-0.657469	154.257303	-81.354103	30.739134
49366		9.198586	-0.092066	-0.884360	0.312389	0.733561	-0.605689	-0.424758	-0.129547	-0.115541	-0.884521	-0.024658	0.432861	0.091991	-0.000992	-0.008782	0.003514	-0.751784	-0.055006	-0.657102	153.839364	-81.258431	30.917588
49367		9.501750	0.034920	-0.869654	0.391307	0.648625	-0.301279	-0.322007	-0.190315	-0.141992	-0.877930	-0.025146	0.442139	0.095026	0.000268	-0.008607	0.001794	-0.752374	-0.054490	-0.656476	153.498862	-81.124805	31.076671
49368		9.983393	-0.047007	-0.556726	0.776216	0.808710	0.123293	-0.212390	-0.229456	-0.136484	-0.875977	-0.028564	0.447510	0.099840	-0.000544	-0.005452	0.000497	-0.753091	-0.054318	-0.655670	153.309182	-80.972277	31.147354
49369		9.926973	0.609219	-0.625150	0.776937	0.161796	0.120937	-0.117630	-0.237003	-0.111254	-0.866455	-0.038574	0.450439	0.099280	0.006033	-0.006137	-0.000367	-0.753837	-0.054356	-0.654809	153.270129	-80.822424	31.119688
49370		9.773705	1.585468	-1.420200	0.072940	-0.864728	0.152395	-0.106420	-0.254563	-0.087525	-0.865967	-0.038330	0.453613	0.097762	0.015804	-0.014086	-0.001111	-0.754646	-0.054347	-0.653876	153.338592	-80.669628	30.990400
49371		9.883011	2.028965	-1.827113	-0.254084	-1.313714	0.352866	-0.095415	-0.269187	-0.062113	-0.871582	-0.037598	0.449219	0.098861	0.020250	-0.018148	-0.001748	-0.755509	-0.054262	-0.652885	153.510616	-80.515787	30.760142
49372		9.919792	1.760915	-2.402913	-0.813115	-1.075228	0.456673	-0.055035	-0.267030	-0.028806	-0.866699	-0.040283	0.457031	0.099232	0.017588	-0.023902	-0.002110	-0.756372	-0.054199	-0.651889	153.796784	-80.371396	30.439828
49373		9.905022	1.196838	-2.280531	-0.712651	-0.503609	0.384428	0.048277	-0.263360	-0.001626	-0.862061	-0.049805	0.458984	0.099080	0.011973	-0.022672	-0.002001	-0.757230	-0.054358	-0.650879	154.208815	-80.235463	30.049945
49374		10.029075	0.728768	-2.214679	-0.639163	-0.023820	0.463941	0.210173	-0.255674	-0.000616	-0.865234	-0.041016	0.460938	0.100319	0.007311	-0.022011	-0.001265	-0.758063	-0.055051	-0.649852	154.694228	-80.103182	29.681373
49375		9.585935	1.010368	-1.630148	-0.077641	-0.304241	-0.041827	0.389306	-0.256482	0.007645	-0.859619	-0.039307	0.462402	0.095880	0.010139	-0.016159	0.000162	-0.758900	-0.056277	-0.648770	155.295713	-79.971914	29.296230
49376		9.823892	1.498508	-1.372156	0.286647	-0.754382	0.186604	0.459960	-0.282200	0.004342	-0.852539	-0.038574	0.470215	0.098258	0.015019	-0.013548	0.001855	-0.759814	-0.057762	-0.647567	155.948815	-79.825704	28.902393
49377		9.957338	1.348130	-1.297461	0.403317	-0.592532	0.293527	0.492637	-0.296448	0.023924	-0.856934	-0.037109	0.467041	0.099591	0.013525	-0.012794	0.003718	-0.760774	-0.059263	-0.646295	156.680131	-79.675734	28.445593
49378		9.824710	0.711737	-0.962516	0.685415	0.049956	0.060790	0.375008	-0.285761	0.050064	-0.858398	-0.024414	0.474854	0.098259	0.007160	-0.009471	0.005234	-0.761703	-0.060299	-0.645093	157.389476	-79.536208	27.944725
49379		9.599002	0.768227	-1.186859	0.465007	-0.050143	-0.121411	0.355845	-0.272753	0.041214	-0.850342	-0.031006	0.476807	0.096004	0.007723	-0.011724	0.006643	-0.762585	-0.061295	-0.643944	158.031908	-79.400657	27.498750
49380		9.250738	1.418843	-1.571005	0.127580	-0.764797	-0.354566	0.312782	-0.269029	0.033112	-0.847900	-0.035645	0.481201	0.092526	0.014228	-0.015563	0.007872	-0.763449	-0.062194	-0.642819	158.609228	-79.264460	27.095504
49381		9.482305	0.598101	-1.825366	-0.140267	0.040279	-0.138886	0.227117	-0.273962	0.050164	-0.849121	-0.028320	0.487061	0.094846	0.006025	-0.018117	0.008812	-0.764336	-0.062735	-0.641699	159.178147	-79.128453	26.647847
49382		9.580040	0.185333	-1.891099	-0.204091	0.445269	-0.058315	0.279112	-0.273650	0.050681	-0.844971	-0.028076	0.486572	0.095826	0.001904	-0.018777	0.009968	-0.765216	-0.063458	-0.640561	159.765412	-78.991834	26.214456
49383		9.699606	0.325485	-1.755161	-0.006647	0.323434	0.044501	0.288537	-0.275137	0.030742	-0.838623	-0.020264	0.484131	0.097020	0.003295	-0.017413	0.011081	-0.766092	-0.064270	-0.639414	160.292372	-78.849772	25.845172
49384		9.685590	0.746444	-1.620580	0.199266	-0.086377	0.033473	0.314440	-0.273180	0.024853	-0.840820	-0.026855	0.492920	0.096877	0.007502	-0.016062	0.012290	-0.766954	-0.065205	-0.638262	160.805127	-78.706957	25.507961
49385		9.529665	1.112537	-1.347668	0.511296	-0.438294	-0.147552	0.261814	-0.289181	0.032939	-0.843506	-0.027588	0.485840	0.095314	0.011159	-0.013324	0.013304	-0.767871	-0.065925	-0.637064	161.313545	-78.556456	25.141767
49386		9.675304	0.914410	-1.518645	0.380097	-0.251144	0.013110	0.276214	-0.323722	0.039089	-0.834961	-0.016846	0.495605	0.096776	0.009184	-0.015017	0.014395	-0.768895	-0.066686	-0.635725	161.865393	-78.387572	24.741944
49387		9.633315	1.191697	-1.480578	0.479304	-0.529249	-0.019677	0.276113	-0.346833	0.042635	-0.832764	-0.020020	0.490479	0.096356	0.011958	-0.014622	0.015474	-0.769990	-0.067416	-0.634295	162.431972	-78.206004	24.324159
49388		9.746785	1.028747	-1.556273	0.445670	-0.370367	0.094088	0.311341	-0.371960	0.038507	-0.834717	-0.014648	0.504883	0.097495	0.010330	-0.015365	0.016682	-0.771156	-0.068294	-0.632752	163.013137	-78.009082	23.914415
49389		9.742789	0.621956	-1.873004	0.126717	-0.007930	0.127163	0.319252	-0.400848	0.046450	-0.832764	-0.009033	0.502930	0.097464	0.006272	-0.018525	0.017922	-0.772412	-0.069151	-0.631092	163.624573	-77.796818	23.475580
49390		9.585510	-0.155803	-2.141783	-0.223296	0.711739	-0.017947	0.365031	-0.423988	0.046866	-0.830811	-0.015137	0.505859	0.095901	-0.001497	-0.021217	0.019346	-0.773730	-0.070169	-0.629320	164.261838	-77.570820	23.039251
49391		9.386019	-0.820471	-2.372066	-0.533131	1.317349	-0.201369	0.490212	-0.446223	0.033047	-0.831787	-0.003662	0.512939	0.093914	-0.008131	-0.023531	0.021190	-0.775095	-0.071620	-0.627415	164.931795	-77.329468	22.640224
49392		9.377329	-0.479962	-2.558885	-0.626413	0.947421	-0.147162	0.632194	-0.471420	0.000348	-0.820068	-0.003418	0.518311	0.093833	-0.004719	-0.025383	0.023485	-0.776500	-0.073661	-0.625356	165.599378	-77.068322	22.328955
49393		9.645574	0.010035	-2.627188	-0.519644	0.469001	0.159730	0.659570	-0.476267	-0.035463	-0.823242	0.001709	0.522705	0.096518	0.000169	-0.026042	0.025761	-0.777893	-0.075912	-0.623262	166.181213	-76.798817	22.119395
49394		9.631610	0.410954	-2.602510	-0.388492	0.069154	0.164984	0.689409	-0.468014	-0.046528	-0.815918	0.003906	0.518066	0.096378	0.004176	-0.025785	0.028133	-0.779238	-0.078310	-0.621180	166.733938	-76.531901	21.959182
49395		9.430783	0.759640	-2.480311	-0.208326	-0.280063	-0.037893	0.685613	-0.457600	-0.046427	-0.812256	0.005859	0.535400	0.094366	0.007659	-0.024561	0.030482	-0.780539	-0.080679	-0.619129	167.265678	-76.270541	21.816104
49396		9.342836	1.288487	-2.748081	-0.347277	-0.853513	-0.032532	0.657679	-0.425916	-0.039332	-0.816650	0.010254	0.531738	0.093489	0.012956	-0.027239	0.032768	-0.781735	-0.082942	-0.617202	167.769325	-76.027429	21.687366
49397		9.398818	1.635939	-3.030303	-0.495750	-1.240434	0.107603	0.577911	-0.391625	-0.017387	-0.801514	0.002930	0.535645	0.094049	0.016438	-0.030071	0.034811	-0.782838	-0.084850	-0.615430	168.249591	-75.805941	21.533127
49398		9.606597	0.989037	-3.271275	-0.747243	-0.632692	0.336565	0.442648	-0.341227	0.027581	-0.804932	0.015625	0.532471	0.096120	0.009976	-0.032527	0.036497	-0.783819	-0.086173	-0.613898	168.719395	-75.617543	21.311927
49399		9.708494	0.270672	-3.326757	-0.868473	0.060611	0.416555	0.455311	-0.285893	0.063110	-0.802979	0.018555	0.537109	0.097131	0.002813	-0.033122	0.038349	-0.784639	-0.087365	-0.612567	169.241410	-75.463714	21.041323
49400		9.734319	0.664762	-3.104426	-0.544364	-0.302978	0.407298	0.544813	-0.251264	0.059579	-0.806641	0.023682	0.546143	0.097380	0.006761	-0.030904	0.040572	-0.785326	-0.088857	-0.611328	169.785082	-75.328387	20.803965
49401		9.717659	1.031665	-2.879966	-0.234754	-0.640582	0.352248	0.390876	-0.207362	0.067101	-0.802002	0.028076	0.543701	0.097203	0.010405	-0.028679	0.042222	-0.785909	-0.089825	-0.610324	170.233610	-75.218071	20.571592
49402		9.631713	0.975437	-2.678296	-0.048016	-0.570766	0.215597	0.356270	-0.183639	0.085008	-0.808594	0.032471	0.544189	0.096337	0.009843	-0.026677	0.043812	-0.786430	-0.090626	-0.609422	170.687136	-75.122398	20.315490
49403		9.348678	0.677171	-2.585078	-0.063550	-0.299679	-0.094401	0.231873	-0.166864	0.102457	-0.801758	0.034180	0.552002	0.093505	0.006850	-0.025765	0.044965	-0.786934	-0.090965	-0.608637	171.096365	-75.037302	20.029863
49404		9.128222	0.442006	-2.956531	-0.496221	-0.169074	-0.221753	0.262412	-0.165042	0.104573	-0.798584	0.032227	0.554443	0.091304	0.004507	-0.029484	0.046253	-0.787423	-0.091398	-0.607842	171.523108	-74.952894	19.745606
49405		8.979365	0.210606	-2.938489	-0.543069	0.034109	-0.378074	0.244619	-0.147777	0.106674	-0.797119	0.042725	0.547363	0.089814	0.002190	-0.029316	0.047475	-0.787864	-0.091751	-0.607123	171.934878	-74.877895	19.464194
49406		8.936645	-0.154253	-3.046599	-0.713195	0.353591	-0.403358	0.256062	-0.137926	0.100181	-0.792969	0.034424	0.547607	0.089388	-0.001459	-0.030406	0.048738	-0.788266	-0.092176	-0.606436	172.333528	-74.807483	19.205069
49407		8.996409	0.082790	-3.135427	-0.719737	0.096055	-0.312905	0.256673	-0.099669	0.094034	-0.801025	0.037598	0.553223	0.089979	0.000910	-0.031308	0.049993	-0.788549	-0.092606	-0.605900	172.706363	-74.757862	18.971345
49408		8.824369	1.128404	-3.457369	-0.838224	-1.017176	-0.359704	0.267193	-0.073076	0.089052	-0.792480	0.042969	0.554688	0.088251	0.011369	-0.034526	0.051295	-0.788744	-0.093091	-0.605464	173.066161	-74.722648	18.758976
49409		9.021970	1.113296	-3.085350	-0.431370	-0.925761	-0.267446	0.026633	-0.030363	0.103157	-0.791504	0.044678	0.552246	0.090219	0.011184	-0.030838	0.051700	-0.788878	-0.092768	-0.605304	173.305789	-74.712344	18.526165
49410		9.353725	0.184428	-3.027386	-0.485261	0.012845	0.008494	-0.107218	0.013982	0.109108	-0.797852	0.042725	0.554443	0.093534	0.001879	-0.030281	0.051627	-0.788913	-0.092018	-0.605379	173.470402	-74.727514	18.293729
49411		8.980503	0.478024	-2.953430	-0.448227	-0.299001	-0.362271	-0.036125	0.027183	0.108214	-0.795410	0.047852	0.557617	0.089798	0.004823	-0.029547	0.051827	-0.788890	-0.091471	-0.605474	173.671127	-74.749874	18.064200
49412		8.811991	0.178827	-2.667654	-0.283519	0.024652	-0.608420	-0.040955	0.045292	0.131282	-0.800293	0.041016	0.555908	0.088113	0.001841	-0.026697	0.052097	-0.788823	-0.090827	-0.605636	173.914078	-74.783819	17.789975
49413		9.420648	0.038218	-2.630282	-0.126205	0.205911	-0.034645	-0.028995	0.030678	0.144658	-0.796143	0.051025	0.553955	0.094202	0.000447	-0.026317	0.052436	-0.788804	-0.090156	-0.605731	174.196111	-74.809814	17.480319
49414		10.292456	0.094947	-2.367795	0.352203	0.255103	0.740083	-0.020377	0.017394	0.152025	-0.795166	0.046631	0.556641	0.102922	0.001025	-0.023687	0.052837	-0.788825	-0.089499	-0.605767	174.502398	-74.828321	17.152752
49415		10.613537	0.285316	-2.021785	0.800902	0.144272	0.964785	-0.051479	0.005016	0.162231	-0.793945	0.048584	0.554932	0.106133	0.002934	-0.020221	0.053131	-0.788896	-0.088699	-0.605766	174.815369	-74.839769	16.798064
49416		9.955950	-0.244228	-1.633303	0.898976	0.670751	0.216778	-0.129684	-0.000661	0.192326	-0.796631	0.051025	0.556885	0.099562	-0.002357	-0.016331	0.053214	-0.789017	-0.087557	-0.605768	175.148580	-74.849042	16.377756
49417		9.013272	-0.975039	-1.008538	1.111911	1.419929	-0.870968	-0.022294	-0.047033	0.176542	-0.808594	0.048828	0.556885	0.090144	-0.009672	-0.010063	0.053643	-0.789243	-0.086801	-0.605544	175.518013	-74.830373	15.981709
49418		8.868908	-0.906637	-0.444525	1.633865	1.438498	-1.155996	0.056530	-0.134702	0.112752	-0.799805	0.049561	0.544922	0.088697	-0.009015	-0.004388	0.054162	-0.789683	-0.086573	-0.604956	175.810990	-74.758310	15.713558
49419		9.595061	-0.423264	-0.242598	2.123562	1.051418	-0.502040	0.118224	-0.224832	0.038804	-0.802734	0.043945	0.557861	0.095954	-0.004213	-0.002321	0.054651	-0.790348	-0.086832	-0.604006	175.995524	-74.631424	15.592274
49420		9.869867	-0.005010	-0.288915	2.259298	0.655191	-0.222901	0.079269	-0.294103	0.005029	-0.795898	0.058594	0.554932	0.098703	-0.000047	-0.002744	0.054865	-0.791215	-0.087141	-0.602806	176.095495	-74.463525	15.537568
49421		9.463053	-0.365543	-0.313687	2.087823	0.979837	-0.622355	-0.016607	-0.366246	0.000926	-0.796387	0.049561	0.556885	0.094636	-0.003655	-0.002963	0.054644	-0.792323	-0.087181	-0.601363	176.140778	-74.254276	15.480333
49422		9.080438	-1.040394	-0.440645	1.765670	1.597153	-0.977398	-0.037323	-0.436154	-0.033435	-0.792236	0.053711	0.567871	0.090812	-0.010420	-0.004206	0.054218	-0.793628	-0.087330	-0.599658	176.113642	-74.003665	15.488209
49423		9.032168	-1.014087	-0.431495	1.806867	1.584451	-1.036630	-0.017946	-0.519354	-0.112227	-0.782471	0.055176	0.569092	0.090327	-0.010192	-0.004079	0.053585	-0.795138	-0.087854	-0.597633	175.955117	-73.702503	15.642149
49424		9.259635	-0.805783	-0.454714	1.935071	1.416057	-0.821198	-0.060671	-0.599630	-0.170093	-0.781006	0.044922	0.574707	0.092603	-0.008138	-0.004267	0.052585	-0.796867	-0.088518	-0.595317	175.678494	-73.352756	15.896262
49425		9.447893	-0.546113	-0.582546	1.973054	1.182010	-0.614328	-0.138428	-0.672618	-0.214053	-0.772461	0.042969	0.577637	0.094492	-0.005566	-0.005504	0.051099	-0.798806	-0.089126	-0.592752	175.297802	-72.959121	16.210551
49426		9.355003	-0.555650	-0.837294	1.765629	1.171600	-0.645609	-0.240635	-0.739376	-0.248998	-0.765869	0.043213	0.579102	0.093573	-0.005683	-0.008020	0.049083	-0.800940	-0.089605	-0.589964	174.821914	-72.524787	16.566406
49427		9.502404	-0.655768	-1.222281	1.493216	1.252002	-0.409395	-0.308863	-0.796818	-0.267132	-0.760742	0.039795	0.586426	0.095063	-0.006703	-0.011834	0.046700	-0.803239	-0.089946	-0.586972	174.305580	-72.056066	16.921753
49428		9.729286	-0.586925	-1.993567	0.925214	1.112738	0.030223	-0.344915	-0.835717	-0.293025	-0.769775	0.037354	0.580811	0.097366	-0.006046	-0.019519	0.044092	-0.805631	-0.090314	-0.583831	173.753441	-71.562381	17.296833
49429		9.841430	-0.396268	-2.880990	0.246423	0.833361	0.412520	-0.369680	-0.861910	-0.296528	-0.747559	0.042236	0.593262	0.098531	-0.004161	-0.028378	0.041351	-0.808084	-0.090610	-0.580586	173.210782	-71.052769	17.645890
49430		10.270790	-0.133299	-3.816049	-0.356963	0.515895	1.126902	-0.348877	-0.877845	-0.296771	-0.755127	0.019043	0.602539	0.102872	-0.001552	-0.037707	0.038694	-0.810560	-0.090986	-0.577250	172.705533	-70.532762	17.971172
49431		11.016222	-0.113928	-4.043418	-0.239950	0.598389	1.904935	-0.273518	-0.858050	-0.318975	-0.743652	0.021484	0.599854	0.110332	-0.001370	-0.039959	0.036278	-0.812935	-0.091646	-0.573953	172.225643	-70.021736	18.314241
49432		12.333563	-1.089256	-3.817033	0.305481	1.802627	3.014196	-0.296653	-0.845673	-0.351139	-0.734131	0.020264	0.601807	0.123476	-0.011165	-0.037632	0.033690	-0.815244	-0.092383	-0.570707	171.701000	-69.513846	18.694173
49433		11.777275	-1.044781	-3.638045	0.389742	1.791244	2.421270	0.018402	-0.828853	-0.348215	-0.730469	0.018311	0.614014	0.117904	-0.010650	-0.035893	0.032392	-0.817437	-0.093985	-0.567374	171.377292	-69.015098	19.051374
49434		10.912922	-0.818343	-3.069178	0.751855	1.615427	1.412537	0.038754	-0.832244	-0.364015	-0.718018	0.015137	0.614502	0.109241	-0.008376	-0.030239	0.031140	-0.819612	-0.095725	-0.564006	171.058456	-68.512019	19.419212
49435		10.305498	-0.868849	-2.857616	0.807802	1.678933	0.753865	0.105019	-0.844472	-0.405513	-0.721436	0.019287	0.621826	0.103157	-0.008883	-0.028145	0.030026	-0.821774	-0.097804	-0.560553	170.737870	-67.997879	19.828916
49436		10.052661	0.057060	-3.759931	0.153380	0.651403	0.899346	0.149154	-0.855269	-0.434557	-0.704102	0.005371	0.637695	0.100687	0.000380	-0.037169	0.029016	-0.823926	-0.100143	-0.557023	170.421293	-67.473716	20.265303
49437		10.052742	0.913387	-3.820252	0.351379	-0.140280	0.973517	0.113422	-0.859930	-0.425396	-0.699951	-0.000732	0.638184	0.100710	0.008941	-0.037765	0.027871	-0.826082	-0.102324	-0.553481	170.115287	-66.947299	20.667293
49438		10.175729	0.154076	-4.344206	-0.147331	0.593778	1.235669	-0.000981	-0.841255	-0.417180	-0.691650	-0.003174	0.636719	0.101942	0.001328	-0.043014	0.026296	-0.828188	-0.104169	-0.550057	169.765919	-66.430971	21.049081
49439		10.022484	-0.202154	-4.205050	-0.070628	0.999201	1.011793	0.075568	-0.794351	-0.415692	-0.692627	0.001709	0.650146	0.100386	-0.002214	-0.041653	0.025049	-0.830139	-0.106181	-0.546779	169.466767	-65.940770	21.421704
49440		9.680451	-0.240173	-4.139041	-0.075558	1.051220	0.665339	0.085337	-0.764277	-0.459830	-0.687500	-0.001709	0.644287	0.096956	-0.002607	-0.041021	0.023754	-0.831965	-0.108425	-0.543612	169.124421	-65.461572	21.852966
49441		9.413412	-0.592003	-3.983328	-0.043335	1.433110	0.325034	0.200359	-0.762586	-0.517715	-0.678467	0.001709	0.654541	0.094269	-0.006124	-0.039480	0.022769	-0.833725	-0.111199	-0.540387	168.792389	-64.976334	22.344479
49442		9.359449	-0.722904	-3.545173	0.364535	1.677173	0.073856	0.301873	-0.768027	-0.576188	-0.671875	-0.006348	0.653809	0.093708	-0.007446	-0.035103	0.022057	-0.835435	-0.114511	-0.537075	168.465551	-64.479851	22.899183
49443		9.272609	-0.712997	-2.970348	0.905873	1.802904	-0.260675	0.410216	-0.780539	-0.632968	-0.658203	-0.007568	0.651611	0.092818	-0.007363	-0.029356	0.021628	-0.837112	-0.118328	-0.533643	168.155369	-63.968871	23.504185
49444		9.189109	-0.424124	-2.421543	1.481882	1.658701	-0.564143	0.353840	-0.779963	-0.651168	-0.648193	-0.015381	0.666748	0.091970	-0.004498	-0.023865	0.020923	-0.838757	-0.122088	-0.530230	167.809717	-63.454114	24.117857
49445		8.912416	0.541333	-3.095884	1.052633	0.624152	-0.441966	0.333502	-0.788812	-0.635216	-0.646729	-0.011719	0.671875	0.089262	0.005181	-0.030598	0.020156	-0.840416	-0.125696	-0.526779	167.491045	-62.935271	24.687447
49446		8.549402	2.265600	-2.431509	1.956042	-0.941474	-0.900659	0.349912	-0.802017	-0.602407	-0.645264	-0.011230	0.677734	0.085658	0.022440	-0.023932	0.019549	-0.842102	-0.129235	-0.523240	167.236261	-62.411391	25.201948
49447		8.081419	2.872118	-3.354459	1.157757	-1.714746	-0.838864	-0.206992	-0.750307	-0.463079	-0.633301	-0.018311	0.680664	0.081006	0.028499	-0.033271	0.016983	-0.843779	-0.130697	-0.520256	166.813218	-61.933442	25.545091
49448		7.134428	3.936950	-7.912794	-2.927435	-3.618612	0.548154	-0.575984	-0.695442	-0.185357	-0.635010	-0.026367	0.681641	0.071655	0.039076	-0.078992	0.013630	-0.845507	-0.130046	-0.517707	166.464255	-61.521251	25.568669
49449		5.869460	5.651014	-10.456956	-5.263093	-5.861702	0.849023	-0.584951	-0.603248	-0.021296	-0.626953	-0.028320	0.686523	0.059016	0.056198	-0.104557	0.010710	-0.847089	-0.128643	-0.515535	166.258926	-61.182969	25.419503
49450		5.868183	5.738135	-11.027758	-5.738090	-5.950037	1.171107	-0.813063	-0.513160	0.071447	-0.611084	-0.031738	0.686279	0.058945	0.056954	-0.110359	0.007134	-0.848492	-0.126278	-0.513872	165.994285	-60.907368	25.191626
49451		6.348946	3.161561	-10.163788	-5.359300	-3.146078	0.910495	-1.002403	-0.331380	0.289086	-0.613281	-0.051025	0.681885	0.063613	0.031198	-0.101690	0.003417	-0.849551	-0.122472	-0.513081	165.792869	-60.763857	24.763908
49452		5.851383	0.604391	-9.312945	-5.387753	-0.594395	-0.223443	-0.608630	-0.134774	0.338551	-0.616943	-0.039063	0.688477	0.058567	0.005860	-0.093108	0.001632	-0.850109	-0.119481	-0.512870	165.815718	-60.736590	24.340125
49453		4.566176	0.458315	-8.155474	-4.977545	-0.556510	-1.907873	0.099548	-0.034374	0.257226	-0.607666	-0.045898	0.698730	0.045670	0.004682	-0.081545	0.002694	-0.850353	-0.118627	-0.512661	166.138706	-60.753287	24.034202
49454		4.054677	2.639277	-7.366911	-4.054994	-2.707766	-2.470862	0.626220	-0.069305	-0.037022	-0.618164	-0.041992	0.683350	0.040577	0.026616	-0.073572	0.005235	-0.850496	-0.120397	-0.511991	166.479460	-60.709711	24.056970
49455		5.205976	4.906718	-6.539908	-2.307141	-4.601191	-1.599626	0.682092	-0.077228	-0.256764	-0.615234	-0.031982	0.697021	0.052148	0.049223	-0.065211	0.007430	-0.850519	-0.123217	-0.511253	166.636074	-60.632429	24.324169
49456		6.813571	4.933057	-5.847912	-0.945270	-4.216759	-0.523811	0.416334	-0.021449	-0.274653	-0.613525	-0.040771	0.691406	0.068210	0.049359	-0.058369	0.008499	-0.850387	-0.125457	-0.510912	166.609830	-60.584089	24.630157
49457		8.169589	3.373459	-5.385356	-0.265335	-2.364323	0.260248	0.419141	0.041393	-0.204622	-0.613525	-0.030518	0.696045	0.081719	0.033764	-0.053800	0.009784	-0.850136	-0.127381	-0.510829	166.639938	-60.579897	24.870343
49458		8.618091	1.879481	-4.877420	0.045962	-0.762301	0.237682	0.513575	0.063454	-0.079312	-0.620850	-0.031006	0.689697	0.086173	0.018886	-0.048753	0.011819	-0.849896	-0.129034	-0.510772	166.842886	-60.604887	24.977242
49459		8.373575	0.620954	-4.501319	-0.022700	0.438728	-0.295799	0.608295	0.052141	-0.014886	-0.621338	-0.029785	0.685791	0.083724	0.006340	-0.045016	0.014401	-0.849717	-0.130636	-0.510596	167.166603	-60.631910	25.005198
49460		7.976001	0.106492	-4.187073	-0.044902	0.877872	-0.846819	0.665557	0.017409	-0.048792	-0.619141	-0.017822	0.687500	0.079757	0.001185	-0.041874	0.017130	-0.849587	-0.132548	-0.510234	167.497538	-60.635534	25.065114
49461		7.713697	0.058645	-4.208433	-0.185106	0.845348	-1.068172	0.659164	-0.030052	-0.111681	-0.617676	-0.013672	0.702881	0.077144	0.000682	-0.042071	0.019627	-0.849532	-0.134695	-0.509673	167.772661	-60.604852	25.182429
49462		7.926777	0.510270	-4.298234	-0.044849	0.424914	-0.791247	0.635708	-0.074758	-0.162494	-0.621338	-0.009277	0.694092	0.079288	0.005175	-0.042936	0.021877	-0.849546	-0.137020	-0.508939	167.993415	-60.543453	25.349245
49463		8.442874	1.127767	-4.396949	0.272829	-0.085890	-0.231179	0.583086	-0.094528	-0.194826	-0.614502	-0.002930	0.704590	0.084461	0.011323	-0.043897	0.023796	-0.849588	-0.139331	-0.508154	168.156165	-60.467240	25.545855
49464		8.816202	1.675056	-4.660789	0.373638	-0.582127	0.275706	0.444438	-0.097926	-0.190572	-0.616699	0.005127	0.698730	0.088201	0.016770	-0.046527	0.025145	-0.849649	-0.141288	-0.507447	168.244620	-60.390012	25.739020
49465		8.973047	1.956585	-4.793906	0.421215	-0.841266	0.504297	0.295098	-0.089538	-0.147360	-0.616211	-0.006348	0.694336	0.089766	0.019570	-0.047870	0.025968	-0.849736	-0.142670	-0.506873	168.288722	-60.322463	25.883323
49466		9.013157	1.967256	-4.897440	0.366107	-0.858513	0.590241	0.131215	-0.073107	-0.092529	-0.609375	-0.002930	0.698730	0.090159	0.019663	-0.048929	0.026253	-0.849837	-0.143413	-0.506478	168.289763	-60.270709	25.970766
49467		8.997090	1.546835	-5.131029	0.052097	-0.497398	0.647602	-0.066890	-0.049381	-0.043214	-0.612549	-0.005859	0.694824	0.089987	0.015432	-0.051293	0.025827	-0.849943	-0.143424	-0.506319	168.220973	-60.237817	26.005559
49468		8.739831	0.856580	-5.319232	-0.409113	0.082108	0.445894	-0.161899	-0.028117	-0.041028	-0.611816	-0.003662	0.698975	0.087408	0.008505	-0.053187	0.025028	-0.850005	-0.143199	-0.506319	168.095730	-60.217248	26.045072
49469		8.535912	0.254872	-5.374380	-0.711261	0.616855	0.233421	-0.176683	-0.009765	-0.063793	-0.610596	-0.000488	0.701172	0.085363	0.002474	-0.053742	0.024112	-0.850009	-0.143016	-0.506408	167.935944	-60.204027	26.112405
49470		8.269170	-0.184142	-5.521461	-1.076801	0.965271	0.026436	-0.058349	0.000277	-0.124396	-0.618652	0.001465	0.700684	0.082690	-0.001909	-0.055214	0.023563	-0.849926	-0.143404	-0.506464	167.782758	-60.189216	26.252504
49471		7.953118	0.233176	-5.341795	-0.955655	0.540263	-0.292390	0.152231	0.007207	-0.222724	-0.618652	-0.002930	0.703369	0.079532	0.002284	-0.053419	0.023659	-0.849732	-0.144733	-0.506408	167.652881	-60.165936	26.503540
49472		7.707496	0.863934	-5.121423	-0.708846	-0.066362	-0.545866	0.228157	0.017239	-0.306247	-0.618164	-0.000488	0.697266	0.077084	0.008580	-0.051211	0.023879	-0.849437	-0.146617	-0.506349	167.483238	-60.137830	26.851937
49473		7.598147	1.130806	-5.360304	-0.890380	-0.377632	-0.495605	0.213899	0.022712	-0.353874	-0.613037	-0.006836	0.700195	0.075995	0.011231	-0.053600	0.023916	-0.849095	-0.148657	-0.506326	167.258459	-60.106012	27.253299
49474		7.557600	1.461208	-5.421951	-0.870293	-0.700424	-0.463785	0.298989	0.025434	-0.364260	-0.612793	-0.004639	0.702637	0.075596	0.014555	-0.054207	0.024296	-0.848722	-0.150964	-0.506252	167.072354	-60.073883	27.667723
49475		7.612842	1.735074	-5.384688	-0.735753	-0.930017	-0.402351	0.294365	0.023681	-0.335652	-0.609131	-0.009033	0.700195	0.076151	0.017302	-0.053830	0.024718	-0.848374	-0.153123	-0.506166	166.912371	-60.043601	28.047139
49476		7.686224	1.686375	-5.432350	-0.757007	-0.866123	-0.320106	0.246082	0.042426	-0.283445	-0.614502	-0.004395	0.699219	0.076875	0.016822	-0.054319	0.025091	-0.848017	-0.154950	-0.506189	166.771408	-60.030326	28.374687
49477		7.572839	1.491992	-5.432803	-0.864919	-0.701852	-0.439929	0.202264	0.062127	-0.211743	-0.614502	0.007813	0.701416	0.075727	0.014895	-0.054336	0.025465	-0.847673	-0.156345	-0.506318	166.670281	-60.036857	28.625274
49478		7.316096	1.485067	-5.580385	-1.108010	-0.783783	-0.591549	0.161476	0.064892	-0.152598	-0.615967	-0.002441	0.702393	0.073154	0.014840	-0.055816	0.025828	-0.847368	-0.157400	-0.506483	166.602237	-60.052846	28.812684
49479		7.180601	1.631149	-5.572887	-1.121085	-0.952055	-0.695917	0.096318	0.050511	-0.112574	-0.616211	0.001465	0.701172	0.071801	0.016298	-0.055739	0.026000	-0.847141	-0.158116	-0.506631	166.538800	-60.065737	28.950866
49480		7.258533	1.477038	-5.607421	-1.164904	-0.791386	-0.629670	0.015429	0.032693	-0.076224	-0.614990	-0.000977	0.701660	0.072582	0.014747	-0.056085	0.025912	-0.846996	-0.158481	-0.506765	166.468237	-60.073783	29.044580
49481		7.456987	1.277220	-5.547940	-1.089187	-0.538537	-0.509933	0.002683	0.013327	-0.042701	-0.614502	-0.003418	0.704346	0.074569	0.012757	-0.055484	0.025834	-0.846930	-0.158667	-0.506820	166.427295	-60.075153	29.094601
49482		7.566906	1.381781	-5.461475	-0.938281	-0.591235	-0.444381	-0.022488	0.003343	-0.012117	-0.622314	-0.002197	0.698975	0.075669	0.013807	-0.054618	0.025724	-0.846915	-0.158668	-0.506851	166.403857	-60.075409	29.108868
49483		7.670944	1.583287	-5.483796	-0.853585	-0.760416	-0.319776	-0.056623	0.000260	0.025925	-0.619385	0.003662	0.700684	0.076707	0.015827	-0.054843	0.025557	-0.846945	-0.158414	-0.506889	166.398380	-60.078692	29.078541
49484		7.852617	1.780226	-5.194783	-0.473188	-0.843815	-0.279449	-0.122690	0.013611	0.060795	-0.620850	-0.002441	0.701904	0.078517	0.017794	-0.051964	0.025216	-0.846974	-0.157851	-0.507033	166.385691	-60.094491	29.014171
49485		8.039432	1.601864	-5.078168	-0.351222	-0.604508	-0.195128	-0.272836	0.036227	0.111641	-0.624756	-0.003662	0.701172	0.080376	0.015994	-0.050818	0.024382	-0.847006	-0.156685	-0.507382	166.330930	-60.129368	28.898454
49486		8.092225	1.391631	-4.913769	-0.259806	-0.359057	-0.253952	-0.305772	0.078440	0.160918	-0.619629	-0.002197	0.696289	0.080892	0.013906	-0.049191	0.023571	-0.846968	-0.155225	-0.507931	166.295326	-60.194875	28.739621
49487		8.110145	1.419835	-4.445146	0.141853	-0.293654	-0.461573	-0.306190	0.133390	0.198726	-0.619385	-0.000488	0.699219	0.081058	0.014211	-0.044527	0.022892	-0.846821	-0.153593	-0.508704	166.283610	-60.295718	28.552416
49488		8.066088	1.427877	-4.180651	0.332173	-0.270420	-0.626016	-0.318876	0.207125	0.241266	-0.614502	-0.006348	0.704102	0.080600	0.014309	-0.041913	0.022328	-0.846513	-0.151744	-0.509795	166.289510	-60.443804	28.337527
49489		8.069544	1.417782	-4.356229	0.154666	-0.310054	-0.539920	-0.318628	0.310369	0.298517	-0.629395	0.000244	0.699951	0.080606	0.014229	-0.043710	0.021984	-0.845984	-0.149635	-0.511310	166.328596	-60.656671	28.084089
49490		8.087696	1.252544	-4.439138	0.011117	-0.189986	-0.504132	-0.252714	0.450617	0.385798	-0.634521	-0.001221	0.695313	0.080752	0.012625	-0.044589	0.022252	-0.845143	-0.147314	-0.513358	166.461602	-60.959632	27.767949
49491		8.007651	0.934879	-4.957894	-0.600282	-0.039227	-0.367320	-0.240003	0.575257	0.468968	-0.630859	0.001465	0.694092	0.079911	0.009477	-0.049820	0.022877	-0.844034	-0.144659	-0.515904	166.661322	-61.342265	27.384882
49492		7.630706	0.609696	-6.580628	-2.301208	-0.157714	0.014990	-0.162400	0.612540	0.464686	-0.644287	-0.000977	0.680176	0.076091	0.006220	-0.066045	0.023847	-0.842802	-0.142215	-0.518547	166.900392	-61.744834	27.009187
49493		7.117972	0.664694	-7.653681	-3.480434	-0.575471	0.048401	0.256915	0.578049	0.412854	-0.645996	0.002686	0.683838	0.070944	0.006892	-0.076733	0.026422	-0.841562	-0.141078	-0.520742	167.343508	-62.119997	26.675565
49494		7.606743	1.050073	-7.462108	-3.040778	-0.874181	0.416546	0.583971	0.474241	0.227254	-0.657715	0.009033	0.677979	0.075878	0.010805	-0.074770	0.029819	-0.840403	-0.141586	-0.522290	167.810744	-62.413388	26.527753
49495		8.667425	1.109193	-6.019336	-1.358258	-0.490271	0.699277	0.741875	0.488055	0.011517	-0.654053	0.016846	0.679932	0.086526	0.011321	-0.060363	0.033322	-0.839020	-0.143406	-0.523802	168.137998	-62.687738	26.639585
49496		8.863941	0.632954	-5.515622	-1.005542	0.055504	0.597770	0.741390	0.548403	-0.039479	-0.666992	0.020996	0.671875	0.088489	0.006517	-0.055375	0.036736	-0.837423	-0.145428	-0.525570	168.397057	-62.990807	26.827889
49497		7.993507	0.940935	-5.869971	-1.614768	-0.554899	0.001699	0.999625	0.600871	0.009592	-0.665283	0.027100	0.671875	0.079758	0.009707	-0.058891	0.041395	-0.835655	-0.147911	-0.527342	168.848203	-63.328844	26.966182
49498		7.593841	2.875670	-5.340693	-0.770301	-2.431442	-0.434351	1.182242	0.622003	-0.010917	-0.668213	0.040283	0.677979	0.075774	0.029069	-0.053472	0.046779	-0.833743	-0.150949	-0.529055	169.380226	-63.677650	27.130620
49499		8.222953	3.630842	-4.532778	0.389540	-2.887935	-0.176616	0.686748	0.678150	0.049749	-0.683105	0.044189	0.672607	0.082066	0.036485	-0.045481	0.050296	-0.831818	-0.152407	-0.531339	169.688890	-64.064306	27.227016
49500		9.539683	1.355477	-4.644484	0.059106	-0.544590	0.869701	0.154595	0.747787	0.249057	-0.683350	0.046631	0.664551	0.095205	0.013709	-0.046790	0.052184	-0.829975	-0.151600	-0.534262	169.913567	-64.511273	27.077972
49501		10.360149	-0.459014	-4.697842	-0.298875	1.255373	1.498670	0.410396	0.812047	0.369758	-0.687012	0.057617	0.664551	0.103418	-0.004302	-0.047408	0.055503	-0.827971	-0.150960	-0.537211	170.424792	-65.005262	26.775069
49502		10.038337	-0.062591	-4.175596	0.088092	0.867066	1.024617	0.480145	0.846366	0.384413	-0.691162	0.057129	0.657471	0.100206	-0.000332	-0.042181	0.059175	-0.825842	-0.150429	-0.540236	171.003832	-65.519398	26.442423
49503		9.841785	0.169189	-3.996611	0.174948	0.578159	0.793750	0.307285	0.842149	0.378977	-0.708008	0.069336	0.654297	0.098245	0.001940	-0.040377	0.062113	-0.823753	-0.149455	-0.543356	171.495595	-66.028718	26.098501
49504		9.905060	-0.566513	-3.844990	0.031886	1.252369	0.753523	0.248742	0.817348	0.399954	-0.715088	0.062988	0.650391	0.098903	-0.005419	-0.038861	0.064848	-0.821744	-0.148236	-0.546404	172.003256	-66.525081	25.701640
49505		9.732862	-0.230555	-3.466269	0.343134	0.933924	0.473520	0.223079	0.799404	0.403110	-0.722168	0.075928	0.635010	0.097193	-0.002071	-0.035054	0.067471	-0.819779	-0.146939	-0.549380	172.522476	-67.009446	25.277932
49506		9.471873	-0.015673	-3.237384	0.457196	0.681419	0.163446	0.044080	0.799018	0.428590	-0.733643	0.068115	0.639893	0.094588	0.000053	-0.032752	0.069428	-0.817875	-0.145040	-0.552470	172.993092	-67.494573	24.796978
49507		9.677588	-0.461247	-3.325330	0.248969	1.049185	0.373718	-0.030912	0.775508	0.427448	-0.729980	0.083252	0.635010	0.096656	-0.004411	-0.033628	0.071057	-0.816047	-0.142947	-0.555504	173.443025	-67.964164	24.293792
49508		9.996143	-1.493976	-2.618088	0.600887	2.209249	0.373907	0.048099	0.776199	0.415107	-0.730469	0.082520	0.625977	0.099890	-0.014726	-0.026572	0.072974	-0.814161	-0.141118	-0.558482	173.941442	-68.432350	23.788617
49509		9.524202	-2.184543	-2.559253	0.218701	2.750568	-0.095776	0.198609	0.753737	0.322434	-0.741455	0.086426	0.622803	0.095180	-0.021666	-0.025973	0.075228	-0.812206	-0.140095	-0.561281	174.415537	-68.880174	23.404097
49510		9.195092	-0.683486	-2.478379	0.591464	1.247270	-0.365294	0.492646	0.707651	0.194606	-0.743896	0.088135	0.620361	0.091869	-0.006684	-0.025126	0.078283	-0.810162	-0.140428	-0.563728	174.891493	-69.294266	23.198691
49511		9.529746	0.896617	-2.750334	0.900720	-0.328244	0.100177	0.432526	0.699986	0.109003	-0.752686	0.092773	0.610352	0.095196	0.009078	-0.027817	0.080845	-0.808091	-0.140937	-0.566207	175.215389	-69.698715	23.119123
49512		9.297074	1.627311	-2.989397	0.790583	-1.161059	-0.012343	0.312736	0.714135	0.082142	-0.756836	0.095459	0.615479	0.092857	0.016358	-0.030200	0.082857	-0.805993	-0.141209	-0.568832	175.433664	-70.110370	23.079429
49513		9.181226	1.795432	-2.856028	0.870825	-1.333327	-0.161838	0.122904	0.701884	0.138512	-0.758057	0.099365	0.604248	0.091699	0.018036	-0.028871	0.084252	-0.804040	-0.140716	-0.571507	175.639845	-70.516988	22.936853
49514		9.122934	1.113764	-3.095513	0.360154	-0.805110	-0.154931	-0.055654	0.704334	0.218700	-0.767334	0.096191	0.602783	0.091107	0.011229	-0.031279	0.085161	-0.802198	-0.139388	-0.574280	175.882015	-70.928711	22.648440
49515		9.077876	0.372683	-2.958359	0.173832	-0.108537	-0.259875	0.020694	0.687809	0.215732	-0.775146	0.100586	0.598633	0.090672	0.003828	-0.029895	0.086353	-0.800361	-0.138295	-0.576923	176.176766	-71.329925	22.351039
49516		9.236445	0.497655	-2.658832	0.475066	-0.157802	-0.201339	0.081164	0.669803	0.180390	-0.770020	0.100098	0.591553	0.092270	0.005071	-0.026895	0.087674	-0.798512	-0.137526	-0.579464	176.460284	-71.719549	22.103058
49517		9.935206	0.607200	-1.625879	1.588284	0.092440	0.146675	0.228066	0.678197	0.130689	-0.777100	0.107178	0.595215	0.099292	0.006156	-0.016589	0.089438	-0.796533	-0.137373	-0.581948	176.751343	-72.111402	21.935708
49518		10.879840	1.041190	-1.173268	2.346414	-0.106677	0.925753	0.188938	0.652898	0.060668	-0.779297	0.117920	0.582031	0.108756	0.010456	-0.012078	0.090828	-0.794585	-0.137397	-0.584386	176.905569	-72.486843	21.889354
49519		9.980148	2.257891	-0.353556	3.172070	-1.136857	-0.144615	0.074768	0.650519	0.071629	-0.794922	0.115234	0.577881	0.099781	0.022616	-0.003852	0.091794	-0.792695	-0.137046	-0.586878	177.018364	-72.860793	21.818290
49520		9.431052	-0.427821	-0.910822	1.593599	1.145549	-0.533394	-0.424427	0.579234	0.143443	-0.793457	0.111816	0.568848	0.094287	-0.004230	-0.009372	0.090942	-0.791282	-0.134974	-0.589393	176.989363	-73.196521	21.596255
49521		9.178409	-2.439822	-1.183666	0.590749	2.919046	-0.717247	-0.234211	0.521202	0.097426	-0.791992	0.109619	0.573975	0.091765	-0.024368	-0.012047	0.090670	-0.789915	-0.133675	-0.591561	176.990939	-73.497315	21.457143
49522		9.594982	-3.182650	-1.387499	0.244037	3.589937	-0.264348	-0.206233	0.421064	0.032820	-0.803711	0.106934	0.569824	0.095926	-0.031825	-0.014044	0.090246	-0.788781	-0.132753	-0.593343	176.894982	-73.739234	21.435887
49523		10.308366	-3.481498	-1.573157	0.132875	3.882244	0.471693	-0.085714	0.357213	-0.037972	-0.804688	0.107422	0.557617	0.103049	-0.034841	-0.015901	0.090044	-0.787734	-0.132494	-0.594821	176.733761	-73.942072	21.554164
49524		10.058481	-2.080985	-1.391296	0.644749	2.578610	0.206007	-0.026191	0.291693	-0.070574	-0.809326	0.103027	0.560303	0.100557	-0.020847	-0.014057	0.089936	-0.786829	-0.132572	-0.596016	176.545640	-74.106552	21.736118
49525		9.521679	-0.675274	-1.071120	1.217396	1.287036	-0.371973	-0.082646	0.241652	-0.105287	-0.812256	0.104492	0.562256	0.095200	-0.006807	-0.010823	0.089469	-0.786076	-0.132637	-0.597065	176.257697	-74.240695	21.987804
49526		9.300739	0.342864	-1.325718	1.227012	0.227996	-0.494895	-0.214168	0.180158	-0.121106	-0.800781	0.091797	0.556396	0.092997	0.003358	-0.013345	0.088398	-0.785552	-0.132402	-0.597966	175.865784	-74.338918	22.269338
49527		9.556470	1.168474	-1.469642	1.397312	-0.562870	-0.190736	-0.256841	0.142666	-0.138856	-0.810303	0.095703	0.559814	0.095562	0.011599	-0.014780	0.087076	-0.785147	-0.132117	-0.598754	175.415192	-74.414165	22.585140
49528		9.864304	0.898376	-1.763428	1.100577	-0.349395	0.181704	-0.322892	0.110240	-0.119291	-0.810791	0.094482	0.562988	0.098639	0.008896	-0.017703	0.085536	-0.784876	-0.131579	-0.599449	174.968640	-74.471387	22.858517
49529		9.833753	0.952656	-2.073073	0.808770	-0.482529	0.238228	-0.196065	0.092547	-0.120093	-0.807861	0.092041	0.554199	0.098334	0.009447	-0.020786	0.084475	-0.784604	-0.131425	-0.599990	174.594299	-74.517754	23.131266
49530		9.666470	0.999711	-2.253232	0.603729	-0.585889	0.127602	-0.116958	0.059937	-0.112161	-0.812500	0.084717	0.566162	0.096664	0.009930	-0.022567	0.083732	-0.784399	-0.131498	-0.600347	174.286242	-74.545719	23.383250
49531		9.612853	0.342894	-2.172527	0.454406	0.066415	0.037870	-0.073739	0.042301	-0.094464	-0.816406	0.093750	0.557373	0.096126	0.003376	-0.021747	0.083193	-0.784241	-0.131629	-0.600598	174.042473	-74.564161	23.592851
49532		9.675396	-0.019951	-2.011208	0.501345	0.472825	0.045493	0.084248	0.014438	-0.100337	-0.812256	0.093750	0.561523	0.096752	-0.000240	-0.020119	0.083244	-0.784096	-0.132278	-0.600639	173.882639	-74.566353	23.810622
49533		9.662196	0.204373	-1.812923	0.747829	0.323723	-0.013583	0.135716	-0.030465	-0.118309	-0.812744	0.095947	0.557617	0.096626	0.001999	-0.018113	0.083412	-0.784052	-0.133169	-0.600476	173.725667	-74.541538	24.055719
49534		9.631090	0.147807	-1.686241	0.841797	0.421100	-0.079384	0.175537	-0.077032	-0.123495	-0.810303	0.084229	0.562256	0.096318	0.001433	-0.016824	0.083691	-0.784126	-0.134221	-0.600106	173.592097	-74.489870	24.300563
49535		9.781592	-0.101906	-1.776025	0.725007	0.660237	0.080877	0.151237	-0.123091	-0.121723	-0.820313	0.088623	0.557861	0.097826	-0.001065	-0.017701	0.083845	-0.784351	-0.135206	-0.599570	173.460600	-74.411810	24.528047
49536		9.680134	0.151620	-1.686441	0.871127	0.447539	-0.034503	0.202488	-0.140219	-0.136551	-0.819824	0.085938	0.564209	0.096814	0.001467	-0.016795	0.084147	-0.784592	-0.136416	-0.598937	173.333989	-74.323020	24.781876
49537		9.736039	0.149098	-1.901913	0.698724	0.406618	0.075506	0.145918	-0.178864	-0.124644	-0.803955	0.091064	0.564697	0.097378	0.001444	-0.018931	0.084232	-0.784981	-0.137419	-0.598186	173.210765	-74.212787	24.997610
49538		9.777845	0.303608	-2.014531	0.670064	0.245700	0.149610	0.176438	-0.194772	-0.118858	-0.810059	0.089600	0.560303	0.097800	0.002996	-0.020047	0.084448	-0.785405	-0.138504	-0.597347	173.122524	-74.093894	25.196304
49539		9.678660	0.300903	-2.002868	0.673210	0.254476	0.049385	0.150010	-0.228567	-0.112869	-0.802490	0.092529	0.563721	0.096811	0.002969	-0.019916	0.084551	-0.785946	-0.139495	-0.596390	173.041659	-73.956033	25.370913
49540		9.643640	0.360831	-1.734582	0.949061	0.289169	-0.057977	0.134881	-0.251054	-0.111002	-0.811279	0.080322	0.572754	0.096460	0.003566	-0.017222	0.084587	-0.786558	-0.140448	-0.595354	172.963246	-73.805527	25.534865
49541		9.646407	0.500283	-1.482019	1.248339	0.249981	-0.123574	0.170178	-0.294708	-0.114650	-0.797119	0.085938	0.560791	0.096489	0.004960	-0.014674	0.084714	-0.787282	-0.141529	-0.594121	172.910935	-73.629833	25.691436
49542		9.670554	0.175345	-1.202176	1.430203	0.662882	-0.194444	0.046740	-0.321891	-0.107667	-0.800293	0.090332	0.570313	0.096726	0.001704	-0.011866	0.084363	-0.788140	-0.142236	-0.592863	172.810258	-73.439180	25.826232
49543		9.481845	0.343745	-1.115791	1.542768	0.526140	-0.399321	0.088983	-0.359269	-0.118216	-0.802979	0.089355	0.568604	0.094840	0.003386	-0.010986	0.084116	-0.789082	-0.143119	-0.591431	172.725650	-73.226448	25.968755
49544		9.390749	0.499817	-1.063983	1.647826	0.404503	-0.501997	-0.051137	-0.411109	-0.114719	-0.796875	0.093994	0.576416	0.093932	0.004942	-0.010448	0.083294	-0.790234	-0.143602	-0.589890	172.582954	-72.984443	26.089160
49545		9.621641	0.161707	-1.008302	1.683370	0.794244	-0.317737	-0.158704	-0.445114	-0.109024	-0.798340	0.091553	0.584473	0.096239	0.001557	-0.009870	0.082037	-0.791531	-0.143756	-0.588287	172.401576	-72.723490	26.185431
49546		9.658361	0.202602	-1.085534	1.674522	0.763476	-0.267204	-0.226902	-0.498256	-0.113306	-0.784912	0.085693	0.584473	0.096611	0.001959	-0.010617	0.080460	-0.793004	-0.143750	-0.586520	172.190587	-72.431899	26.272206
49547		9.564972	0.383883	-0.824889	1.985678	0.685357	-0.436993	-0.346636	-0.545199	-0.125841	-0.795166	0.084961	0.592529	0.095674	0.003765	-0.007995	0.078335	-0.794647	-0.143455	-0.584654	171.906033	-72.112662	26.363756
49548		9.587064	0.084292	-0.845438	1.923265	0.997453	-0.435081	-0.450660	-0.612264	-0.133414	-0.786377	0.070801	0.589111	0.095896	0.000760	-0.008163	0.075728	-0.796511	-0.142915	-0.582590	171.572496	-71.754533	26.444895
49549		9.354765	0.160797	-0.665061	2.096753	0.978455	-0.722820	-0.518198	-0.680066	-0.149198	-0.777588	0.073242	0.595215	0.093571	0.001521	-0.006336	0.072751	-0.798573	-0.142257	-0.580302	171.199363	-71.356648	26.526135
49550		9.336612	0.064911	-0.593912	2.181845	1.123771	-0.784647	-0.585839	-0.753025	-0.173991	-0.775146	0.061279	0.606201	0.093388	0.000551	-0.005589	0.069384	-0.800837	-0.141532	-0.577767	170.775401	-70.914924	26.621359
49551		9.835727	0.293081	-0.405968	2.629920	1.073337	-0.382781	-0.595422	-0.819138	-0.218367	-0.766846	0.066406	0.599121	0.098376	0.002812	-0.003665	0.065795	-0.803245	-0.140967	-0.574976	170.304479	-70.431655	26.759330
49552		10.661830	0.441068	-0.489251	2.916086	1.085593	0.406200	-0.683354	-0.884960	-0.283667	-0.761719	0.060791	0.606689	0.106645	0.004244	-0.004435	0.061623	-0.805799	-0.140439	-0.571985	169.715060	-69.904121	26.971613
49553		11.229177	0.100365	-0.685605	2.892280	1.508945	0.954450	-0.743499	-0.966605	-0.301260	-0.753174	0.052979	0.622314	0.112324	0.000810	-0.006316	0.057099	-0.808563	-0.139828	-0.568694	169.108497	-69.328354	27.166041
49554		11.410614	-0.987362	-0.687493	2.726673	2.644093	1.014233	-0.730123	-1.040327	-0.314308	-0.744873	0.040527	0.624268	0.114124	-0.010077	-0.006245	0.052538	-0.811492	-0.139325	-0.565074	168.532853	-68.708706	27.336459
49555		11.320676	-1.572192	-0.657841	2.664289	3.270441	0.829975	-0.597995	-1.131820	-0.398665	-0.743164	0.038574	0.632568	0.113210	-0.015966	-0.005890	0.048205	-0.814550	-0.139546	-0.560992	167.961562	-68.027723	27.583294
49556		11.614430	-2.107311	-0.092316	3.235721	4.051517	0.791900	-0.458655	-1.258233	-0.505408	-0.718750	0.028076	0.641846	0.116093	-0.021367	-0.000144	0.044054	-0.817816	-0.140626	-0.556292	167.387075	-67.261629	27.922266
49557		12.238606	-3.121127	0.372676	3.708946	5.340107	1.021867	-0.308639	-1.386768	-0.629939	-0.716309	0.031006	0.647705	0.122257	-0.031590	0.004623	0.040072	-0.821272	-0.142641	-0.550963	166.804989	-66.407101	28.363694
49558		12.974866	-3.473224	0.818473	4.403637	6.036502	1.378584	-0.089935	-1.544080	-0.771686	-0.696777	0.020264	0.655518	0.129545	-0.035228	0.009201	0.036488	-0.824962	-0.145875	-0.544818	166.254309	-65.443765	28.912361
49559		14.215574	-4.155652	1.722969	5.610129	7.284715	1.925003	0.149643	-1.714761	-0.931689	-0.687744	0.010010	0.668701	0.141806	-0.042231	0.018415	0.033327	-0.828885	-0.150430	-0.537783	165.744184	-64.362077	29.571501
49560		15.612021	-4.790034	2.447220	6.743779	8.532971	2.611817	0.309157	-1.881997	-1.111399	-0.670410	0.008545	0.678223	0.155612	-0.048805	0.025863	0.030216	-0.833007	-0.156180	-0.529900	165.221025	-63.158574	30.354229
49561		16.687918	-4.690982	3.329882	8.118340	9.107416	2.943234	0.481831	-2.029348	-1.277048	-0.656494	0.007568	0.687012	0.166226	-0.048055	0.034873	0.027258	-0.837251	-0.163055	-0.521230	164.721185	-61.846878	31.228457
49562		16.647999	-4.215055	2.906608	8.034166	8.823715	2.873908	0.616262	-2.116013	-1.418295	-0.645020	-0.007324	0.700684	0.165856	-0.043421	0.030691	0.024428	-0.841453	-0.170880	-0.512016	164.243510	-60.461265	32.178921
49563		16.176383	-2.653736	1.035569	6.890969	7.107653	3.293487	0.526549	-2.095322	-1.476726	-0.623779	-0.001709	0.715088	0.161442	-0.027760	0.011976	0.021078	-0.845419	-0.178665	-0.502894	163.720747	-59.075278	33.132593
49564		14.838188	-1.127435	-1.583827	4.780595	5.011037	3.452909	0.470106	-2.030357	-1.430475	-0.605225	-0.013428	0.733643	0.148447	-0.012301	-0.014360	0.017667	-0.849128	-0.186100	-0.493999	163.252165	-57.726982	34.001053
49565		12.662205	0.336069	-4.767581	1.849049	2.560124	3.347596	0.293042	-1.970503	-1.306346	-0.585449	-0.017578	0.733643	0.127102	0.002600	-0.046421	0.013856	-0.852695	-0.192508	-0.485449	162.825649	-56.430356	34.708155
49566		10.462793	2.359498	-7.999982	-0.905059	-0.479259	3.528260	0.310610	-1.958760	-1.127363	-0.563721	-0.020508	0.737793	0.105536	0.023125	-0.078933	0.010572	-0.856287	-0.198198	-0.476843	162.588938	-55.166812	35.211702
49567		8.663539	4.685417	-9.826062	-2.172480	-3.425922	3.495091	0.431558	-2.030812	-0.805940	-0.541260	-0.028564	0.753906	0.087815	0.046712	-0.097272	0.008490	-0.860256	-0.202744	-0.467742	162.707122	-53.920182	35.368616
49568		8.100933	6.241000	-9.460213	-1.341753	-4.840960	3.180741	0.410329	-1.891648	-0.540773	-0.532471	-0.019531	0.758545	0.082067	0.062382	-0.093701	0.007086	-0.864071	-0.206107	-0.459185	162.976006	-52.793209	35.328777
49569		7.732618	7.056633	-9.119948	-0.752656	-5.531185	2.899454	-0.082584	-1.630688	-0.372773	-0.514404	-0.031982	0.767334	0.078198	0.070384	-0.090593	0.004193	-0.867408	-0.207543	-0.452230	163.020287	-51.838848	35.210574
49570		7.229043	7.924457	-9.642663	-0.990307	-6.483216	3.033414	-0.802563	-1.202098	-0.101479	-0.500732	-0.038574	0.766357	0.072910	0.078821	-0.096307	-0.000751	-0.870015	-0.206195	-0.447836	162.747344	-51.163520	34.974079
49571		5.102077	8.759737	-10.368726	-2.330932	-8.041791	2.026663	-0.833353	-0.923242	0.358037	-0.495361	-0.046631	0.782471	0.051343	0.087257	-0.103815	-0.004529	-0.872436	-0.202722	-0.444678	162.706918	-50.720733	34.407868
49572		3.519138	9.268743	-7.815383	-1.008900	-8.575536	-0.603117	-0.642941	-0.857080	0.404626	-0.487793	-0.049072	0.777588	0.035339	0.092507	-0.078300	-0.007289	-0.874723	-0.199511	-0.441589	162.786043	-50.320548	33.830433
49573		3.700616	8.031613	-6.320587	-0.239044	-7.059414	-1.550941	-1.840343	-0.901971	0.162374	-0.475586	-0.059814	0.775635	0.037228	0.079761	-0.063774	-0.015883	-0.876770	-0.194655	-0.439468	162.026181	-49.857289	33.443021
49574		3.972856	5.298719	-8.281428	-2.602736	-4.584674	-0.612398	-2.131983	-0.845240	0.150888	-0.468506	-0.081787	0.779053	0.040040	0.052132	-0.083204	-0.025705	-0.878547	-0.189235	-0.437818	161.083341	-49.425272	33.079642
49575		3.653913	4.589979	-8.054726	-2.867261	-3.895323	-1.100487	-0.874225	-0.607840	0.275951	-0.462646	-0.080322	0.782959	0.036721	0.045598	-0.080636	-0.029519	-0.880018	-0.185995	-0.436008	160.889650	-49.148615	32.671712
49576		4.280968	5.968127	-3.159234	1.699479	-4.385680	-3.347120	-0.120863	-0.287331	0.258896	-0.454834	-0.093018	0.781250	0.042778	0.059718	-0.031567	-0.029739	-0.880866	-0.184556	-0.434890	161.046117	-49.041391	32.375452
49577		4.338981	4.371118	-2.906469	1.425831	-2.854539	-3.796096	-1.162121	-0.065713	0.396374	-0.462402	-0.093262	0.781250	0.043313	0.043627	-0.029304	-0.034060	-0.881191	-0.180235	-0.435728	160.643330	-49.081354	32.024186
49578		4.544233	0.914468	-3.304220	0.190675	0.408541	-4.138112	-1.289465	0.360852	0.558211	-0.462646	-0.112061	0.783203	0.045357	0.009058	-0.033183	-0.038185	-0.880665	-0.175029	-0.438560	160.175489	-49.383411	31.668789
49579		5.081525	-1.189538	-2.324884	0.649915	2.639527	-4.787511	-1.082632	0.815863	0.786803	-0.469238	-0.121582	0.768311	0.050767	-0.011822	-0.023392	-0.040519	-0.879337	-0.169302	-0.443240	159.867639	-49.977768	31.255413
49580		4.658767	-2.268563	-3.710820	-0.991483	3.384382	-4.503876	-0.914435	1.060382	0.936697	-0.472168	-0.117920	0.767822	0.046497	-0.022638	-0.037251	-0.041551	-0.877564	-0.163373	-0.448848	159.700036	-50.733391	30.794999
49581		4.280303	-0.952982	-3.818486	-1.000487	1.982354	-4.438784	-0.288337	1.343075	0.907126	-0.488281	-0.114990	0.756592	0.042588	-0.009392	-0.038458	-0.039695	-0.875208	-0.158968	-0.455153	159.811517	-51.636273	30.434701
49582		4.122710	0.847214	-3.512431	-0.473059	0.204265	-4.355090	-0.323785	1.601373	0.958293	-0.499512	-0.125000	0.745605	0.040903	0.008611	-0.035467	-0.037643	-0.872223	-0.154355	-0.462585	159.884558	-52.686820	30.109598
49583		4.075043	1.358296	-4.130063	-0.980148	-0.396509	-3.948459	-0.510795	1.838364	1.065454	-0.516113	-0.122559	0.733887	0.040296	0.013692	-0.041707	-0.035973	-0.868643	-0.148859	-0.471175	159.876488	-53.886922	29.755621
49584		4.223343	1.567815	-4.404240	-1.203318	-0.636104	-3.661465	-0.460474	2.081953	1.221647	-0.533447	-0.133057	0.729980	0.041675	0.015832	-0.044515	-0.033529	-0.864500	-0.142839	-0.480741	159.962907	-55.247643	29.327984
49585		4.475959	1.539473	-4.723052	-1.489140	-0.641997	-3.325843	-0.362509	2.294842	1.395750	-0.556396	-0.116699	0.722900	0.044105	0.015618	-0.047767	-0.030124	-0.859849	-0.136242	-0.491112	160.207492	-56.757272	28.775292
49586		4.966911	1.750293	-4.831679	-1.459672	-0.824674	-2.865422	-0.226523	2.527650	1.568753	-0.585938	-0.115234	0.701416	0.048914	0.017833	-0.048958	-0.025507	-0.854581	-0.129315	-0.502313	160.649498	-58.422989	28.100195
49587		5.490363	2.230686	-4.818974	-1.297027	-1.282308	-2.395757	-0.237104	2.773254	1.712445	-0.596191	-0.107178	0.694092	0.054035	0.022714	-0.048970	-0.020445	-0.848585	-0.121683	-0.514470	161.203436	-60.246325	27.292054
49588		5.776448	2.367234	-5.081835	-1.589928	-1.513188	-2.068525	-0.350707	2.987646	1.832000	-0.621826	-0.099365	0.671875	0.056777	0.024105	-0.051713	-0.015386	-0.841847	-0.113303	-0.527465	161.829006	-62.202687	26.351272
49589		6.249924	1.777201	-5.574104	-2.173699	-1.037107	-1.597935	-0.363566	3.151505	1.899817	-0.655518	-0.094971	0.654297	0.061438	0.018256	-0.056748	-0.010146	-0.834445	-0.104512	-0.540995	162.582913	-64.255603	25.266620
49590		6.931282	1.333258	-6.342681	-2.941621	-0.720552	-0.820077	-0.243934	3.326594	1.973962	-0.671143	-0.087646	0.637451	0.068109	0.013930	-0.064583	-0.004071	-0.826310	-0.095774	-0.554998	163.594140	-66.408331	24.002234
49591		7.782858	1.403199	-6.847664	-3.389600	-0.899644	0.042225	-0.177383	3.524321	2.065519	-0.702881	-0.075928	0.610840	0.076456	0.014765	-0.069845	0.002582	-0.817347	-0.086739	-0.569574	164.924579	-68.673947	22.445246
49592		8.564121	0.690032	-7.469505	-4.155939	-0.380072	0.778805	-0.191382	3.682336	2.170773	-0.724609	-0.077148	0.583740	0.084166	0.007747	-0.076261	0.009591	-0.807618	-0.077265	-0.584544	166.693793	-71.024669	20.446215
49593		9.251019	-0.638909	-7.397760	-4.432694	0.757827	1.163336	0.202649	3.786299	2.225391	-0.748779	-0.049072	0.564697	0.091151	-0.005294	-0.075718	0.018332	-0.797210	-0.068603	-0.599511	169.294704	-73.413146	17.828499
49594		9.890165	-1.301705	-6.432535	-3.812607	1.278914	1.353953	0.625390	3.832650	2.169693	-0.775635	-0.028320	0.542969	0.097776	-0.011747	-0.066244	0.028651	-0.786212	-0.061470	-0.614225	172.878409	-75.776187	14.485613
49595		10.286534	-1.194561	-5.017546	-2.734822	1.057056	1.313759	0.870407	3.809559	2.025259	-0.799561	-0.022461	0.511475	0.101997	-0.010686	-0.052172	0.039410	-0.774822	-0.055555	-0.628499	177.575028	-78.050037	10.167841
49596		9.995433	-1.105541	-4.162288	-2.328740	0.776800	0.789744	1.042414	3.655885	1.821959	-0.821777	-0.007813	0.484131	0.099264	-0.009926	-0.043495	0.050193	-0.763462	-0.051050	-0.641872	-176.283071	-80.135297	4.524199
49597		9.865333	-0.294537	-2.807557	-1.250832	-0.086328	0.371096	1.343750	3.327328	1.405973	-0.836182	0.020752	0.470459	0.098184	-0.002058	-0.029728	0.060684	-0.752661	-0.049152	-0.653760	-168.884041	-81.925232	-2.184929
49598		10.555822	1.401958	-2.554793	-0.942955	-1.944041	0.922246	1.209334	3.012269	1.273718	-0.851807	0.032227	0.447510	0.105066	0.014850	-0.027045	0.070141	-0.742646	-0.047400	-0.664312	-159.035963	-83.386982	-11.412886
49599		11.092792	1.981038	-3.258091	-1.748315	-2.856717	1.428398	0.954866	2.738173	1.257778	-0.862305	0.046631	0.420654	0.110341	0.020666	-0.033997	0.078514	-0.733418	-0.044938	-0.673731	-145.627229	-84.448747	-24.345092
49600		11.246849	1.747180	-3.347994	-2.113449	-2.855705	1.506444	0.787379	2.468445	1.198096	-0.873291	0.060059	0.401855	0.111937	0.018279	-0.034793	0.085996	-0.724988	-0.042233	-0.682066	-129.237129	-85.031597	-40.348550
49601		10.372114	0.754499	-3.966445	-3.172753	-2.131000	0.640485	0.680064	2.167526	1.082447	-0.888184	0.069580	0.385986	0.103240	0.008242	-0.040758	0.092613	-0.717471	-0.039699	-0.689262	-112.689527	-85.139749	-56.564080
49602		9.505680	0.596282	-3.856786	-3.305396	-2.051609	-0.302192	0.977888	1.834767	0.861255	-0.889648	0.087402	0.371094	0.094670	0.006562	-0.039406	0.099459	-0.710819	-0.039137	-0.695206	-98.881637	-84.949516	-69.859100
49603		8.854106	0.893605	-3.452024	-2.997132	-2.330526	-1.055180	0.889340	1.499112	0.570557	-0.900635	0.097168	0.359131	0.088253	0.009343	-0.035142	0.104902	-0.705245	-0.039460	-0.700049	-88.674823	-84.678731	-79.594610
49604		8.151028	0.032284	-3.349215	-3.177681	-1.485461	-1.728613	0.678012	1.151169	0.277678	-0.906006	0.091553	0.347168	0.081315	0.000550	-0.033959	0.108501	-0.700897	-0.040260	-0.703811	-81.509145	-84.463319	-86.400463
49605		7.626731	-0.967628	-3.157145	-3.272826	-0.468304	-2.187744	0.714973	0.759122	-0.003850	-0.912109	0.104248	0.346436	0.076146	-0.009564	-0.031895	0.111155	-0.697825	-0.042385	-0.706321	-76.716841	-84.383061	-90.802422
49606		7.602143	-0.692897	-3.805764	-3.890048	-0.898341	-2.274987	0.864754	0.341150	-0.254260	-0.905518	0.093018	0.343018	0.075948	-0.006861	-0.038217	0.113357	-0.696075	-0.046147	-0.707460	-73.902524	-84.474341	-93.130469
49607		8.002090	0.611011	-3.867094	-3.669956	-2.225528	-2.006302	0.940953	-0.000347	-0.423633	-0.908936	0.099609	0.349365	0.080034	0.006122	-0.038642	0.115142	-0.695434	-0.050957	-0.707472	-72.625634	-84.706649	-93.869962
49608		8.099379	1.220134	-3.594517	-3.247041	-2.750816	-1.945106	0.629874	-0.285525	-0.485649	-0.909668	0.097412	0.343750	0.081074	0.012117	-0.035791	0.115552	-0.695950	-0.055049	-0.706591	-73.089899	-85.020683	-93.039679
49609		8.006648	0.706238	-4.064628	-3.797451	-2.325877	-1.983527	0.098484	-0.509314	-0.494198	-0.909180	0.088135	0.350098	0.080187	0.006884	-0.040439	0.114019	-0.697551	-0.057420	-0.705071	-75.462726	-85.372291	-90.600128
49610		7.551260	0.729671	-5.153877	-4.812816	-2.525554	-2.425250	-0.130328	-0.704103	-0.512779	-0.902344	0.098877	0.354736	0.075712	0.007069	-0.051277	0.111565	-0.699952	-0.059160	-0.702937	-79.800338	-85.745856	-86.322586
49611		7.089473	2.102963	-5.400876	-4.680684	-3.828537	-2.936255	-0.056449	-0.877051	-0.530659	-0.896240	0.085938	0.366211	0.071186	0.020826	-0.053703	0.109254	-0.702899	-0.061319	-0.700169	-86.328165	-86.108877	-79.808800
49612		7.016710	2.868452	-6.152642	-5.179711	-4.687935	-2.992861	-0.353895	-1.016669	-0.501022	-0.887939	0.079346	0.371338	0.070550	0.028400	-0.061219	0.105954	-0.706484	-0.062406	-0.696965	-95.489528	-86.387431	-70.829270
49613		7.350134	2.883756	-5.339745	-4.328986	-4.465759	-2.589858	-0.389710	-1.052017	-0.456002	-0.882568	0.069824	0.370117	0.073846	0.028566	-0.053065	0.102672	-0.710202	-0.063229	-0.693595	-106.092558	-86.531748	-60.427566
49614		10.658587	1.333090	3.149499	3.715318	-1.093198	0.689827	-0.086712	-0.594793	-0.388320	-0.877686	0.067139	0.392578	0.106517	0.013138	0.031806	0.100840	-0.712180	-0.064622	-0.691704	-112.759754	-86.628309	-53.796477
49615		16.496685	-6.077356	10.882332	9.745615	7.655304	6.737821	-0.330440	0.125787	-0.207815	-0.880127	0.077637	0.378906	0.164972	-0.060765	0.108820	0.098999	-0.711844	-0.064171	-0.692358	-112.598248	-86.765875	-54.145473
49616		20.697463	-3.483842	11.895461	11.335445	5.290013	10.815865	1.471436	0.688548	-0.547992	-0.881836	0.070801	0.371826	0.207284	-0.036276	0.117978	0.102568	-0.708528	-0.070883	-0.694581	-106.710296	-87.194580	-59.195521
49617		16.406147	13.695867	5.343236	8.813008	-12.601919	5.960793	-0.342590	0.828840	-1.132054	-0.888672	0.062744	0.369873	0.165052	0.136117	0.052516	0.097726	-0.705404	-0.073288	-0.698200	-99.479529	-87.935429	-66.627176
49618		1.118013	6.387898	3.355472	4.673636	-5.539709	-8.933378	-4.694090	0.632550	-0.013339	-0.891846	0.043457	0.364014	0.011287	0.064642	0.032008	0.081341	-0.705286	-0.056630	-0.701960	-92.065401	-87.979565	-76.735421
49619		13.199465	-23.880363	-4.972840	-9.151451	22.009706	4.365547	-1.852755	-0.483776	1.082862	-0.893311	0.046143	0.362305	0.133403	-0.238529	-0.047196	0.078480	-0.707999	-0.046520	-0.700296	-98.479721	-87.335893	-71.375748
49620		17.355924	-14.813237	0.478872	-1.861032	13.836496	8.242116	0.320683	-0.326425	0.582889	-0.894043	0.050781	0.370605	0.173982	-0.147633	0.004835	0.081591	-0.709146	-0.045717	-0.698831	-100.874676	-86.975057	-68.792089
49621		11.156253	-3.254158	-2.196400	-2.508154	2.274372	1.519206	0.352199	-0.548495	-0.362086	-0.884766	0.054688	0.376465	0.111563	-0.032705	-0.021716	0.081459	-0.710830	-0.048461	-0.696948	-107.542848	-87.098959	-61.911613
49622		6.823575	-1.622576	-0.848496	-0.955483	1.163230	-2.909972	0.095623	-0.530565	-0.808692	-0.881592	0.050781	0.374756	0.068192	-0.016498	-0.008312	0.078863	-0.712434	-0.051895	-0.695360	-117.032400	-87.413411	-52.354607
49623		6.792635	-0.418827	-0.689047	-0.550246	0.074335	-2.994964	-0.064848	-0.649893	-0.853894	-0.881104	0.038330	0.383545	0.067930	-0.004480	-0.006668	0.075443	-0.714491	-0.054909	-0.693394	-130.485618	-87.614294	-38.934807
49624		9.532695	7.006938	0.158262	1.756227	-7.059725	-0.481590	-0.287740	-0.555313	-0.926653	-0.877441	0.013916	0.385498	0.095646	0.069629	0.001748	0.071061	-0.716259	-0.057441	-0.691827	-145.647337	-87.733370	-23.923937
49625		10.622885	8.490478	-0.837421	1.040251	-8.633819	0.675799	-1.844470	-0.570736	-0.733433	-0.880371	0.015137	0.391846	0.106564	0.084434	-0.008851	0.061761	-0.718639	-0.053894	-0.690536	-159.669033	-87.635138	-10.947080
49626		12.245274	3.877941	-2.316761	-1.175466	-4.260393	2.468159	-2.365129	-0.538712	-0.239676	-0.875732	-0.002686	0.395508	0.122562	0.038358	-0.023293	0.052298	-0.721110	-0.046762	-0.689259	-166.122977	-87.380251	-5.841653
49627		9.950997	-0.209110	-2.561611	-2.095512	-0.183574	0.247278	-1.711111	-0.298333	0.201379	-0.871582	-0.004883	0.399414	0.099550	-0.002209	-0.025449	0.046763	-0.722605	-0.040227	-0.688504	-165.622084	-87.186242	-7.322703
49628		7.881083	-3.849346	-1.404421	-1.451482	3.595855	-1.821187	-0.867295	-0.282014	0.294252	-0.870605	-0.011475	0.389648	0.078887	-0.038438	-0.013766	0.044597	-0.723829	-0.036254	-0.687582	-163.758890	-86.985821	-9.684074
49629		8.119469	-4.496635	-0.726756	-0.791672	4.322064	-1.604976	-0.413195	-0.298863	-0.153083	-0.872314	-0.010742	0.404053	0.081171	-0.045043	-0.007053	0.042533	-0.724918	-0.035464	-0.686606	-166.383016	-86.842796	-7.291429
49630		8.679936	-2.236384	-0.786550	-0.543127	2.107017	-1.081910	-0.141582	-0.256586	-0.691950	-0.861572	-0.008057	0.402100	0.086731	-0.022669	-0.007738	0.039610	-0.725701	-0.037550	-0.685842	-173.912373	-86.765616	0.170171
49631		10.104198	-0.432170	-0.899719	-0.363474	0.377854	0.327111	-0.003081	-0.223149	-0.864420	-0.860596	-0.017822	0.393555	0.101032	-0.004759	-0.008884	0.036604	-0.726297	-0.040728	-0.685196	177.405959	-86.652469	8.865946
49632		11.593400	2.068068	-1.313238	-0.400576	-2.048624	1.851375	0.205818	-0.172010	-0.793818	-0.866455	-0.022949	0.389893	0.116026	0.020234	-0.013012	0.034608	-0.726680	-0.044357	-0.684668	170.138012	-86.504863	16.266762
49633		11.164272	3.475218	-0.922449	0.128694	-3.335714	1.431207	-0.082296	-0.103531	-0.509611	-0.863037	-0.030762	0.404297	0.111736	0.034464	-0.009181	0.032553	-0.726934	-0.045954	-0.684395	165.698852	-86.385566	20.668880
49634		10.252803	3.989165	-0.804094	0.244829	-3.812156	0.535618	-0.440302	-0.065610	-0.214430	-0.856689	-0.041260	0.402344	0.102573	0.039764	-0.008095	0.030216	-0.727178	-0.045247	-0.684290	163.746397	-86.316953	22.374311
49635		9.153579	4.803772	-1.230122	-0.176622	-4.673968	-0.512141	-0.741444	-0.091691	-0.100284	-0.859131	-0.039063	0.404053	0.091566	0.047946	-0.012437	0.027168	-0.727576	-0.043099	-0.684133	162.711485	-86.249957	22.987583
49636		9.068035	1.874549	-1.673179	-0.933200	-1.790252	-0.622103	-1.028301	-0.124956	0.009835	-0.852295	-0.046875	0.399902	0.090690	0.018664	-0.016771	0.023446	-0.728135	-0.039572	-0.683888	162.530072	-86.183346	22.580732
49637		10.084570	-0.744574	-2.432860	-1.857162	0.794056	0.389868	-0.746171	-0.122498	0.004749	-0.861328	-0.044434	0.396729	0.100861	-0.007534	-0.024239	0.020734	-0.728638	-0.037031	-0.683583	162.456866	-86.117056	22.227719
49638		9.846688	-2.779368	-3.101123	-2.686606	2.777917	0.155481	-0.442241	-0.075569	0.012861	-0.855469	-0.058105	0.397949	0.098480	-0.027856	-0.030912	0.019165	-0.728942	-0.035490	-0.683386	162.500584	-86.078017	21.931724
49639		9.374240	-3.917294	-2.970596	-2.664709	3.920213	-0.348161	0.004851	-0.037110	-0.069330	-0.867676	-0.040771	0.403076	0.093734	-0.039205	-0.029690	0.018952	-0.729057	-0.035775	-0.683254	162.050978	-86.045452	22.387183
49640		9.417503	-3.506647	-2.071574	-1.737895	3.594152	-0.360751	0.146218	0.000093	-0.255339	-0.855957	-0.054199	0.397705	0.094130	-0.035172	-0.020741	0.018624	-0.728996	-0.037215	-0.683251	160.147144	-85.998140	24.381393
49641		9.829572	-2.126324	-1.870110	-1.410584	2.273972	0.060419	0.163387	0.043205	-0.401984	-0.866211	-0.058594	0.396484	0.098249	-0.021445	-0.018740	0.017867	-0.728758	-0.039244	-0.683412	157.075616	-85.936950	27.556159
49642		10.041537	0.062851	-1.696524	-1.056674	0.150593	0.315256	0.327574	0.070575	-0.446024	-0.864258	-0.060303	0.400391	0.100410	0.000432	-0.017000	0.017562	-0.728397	-0.041992	-0.683641	153.786840	-85.867481	31.043325
49643		10.159381	1.492151	-1.187034	-0.428856	-1.189370	0.446453	0.355332	0.081201	-0.389926	-0.847900	-0.054688	0.396240	0.101618	0.014745	-0.011885	0.017552	-0.728006	-0.044629	-0.683891	150.981061	-85.804922	34.062360
49644		9.937093	2.001095	-1.035760	-0.249192	-1.661805	0.237151	0.377637	0.050975	-0.290412	-0.856445	-0.059814	0.398193	0.099397	0.019886	-0.010345	0.017957	-0.727731	-0.046983	-0.684016	149.051053	-85.747103	36.216382
49645		9.571380	1.657388	-0.508715	0.222592	-1.266368	-0.170915	0.358435	0.016516	-0.207703	-0.859131	-0.051514	0.399658	0.095731	0.016484	-0.005065	0.018567	-0.727594	-0.048972	-0.684006	147.841292	-85.692674	37.637273
49646		9.645699	0.519357	-0.208778	0.417998	-0.085203	-0.160184	0.394283	-0.027256	-0.181447	-0.855225	-0.056641	0.408936	0.096462	0.005110	-0.002065	0.019386	-0.727604	-0.050994	-0.683824	147.026656	-85.623603	38.682612
49647		9.704240	0.562880	-0.130739	0.508160	-0.098191	-0.105047	0.505444	-0.059764	-0.233803	-0.860107	-0.057129	0.403564	0.097049	0.005519	-0.001264	0.020363	-0.727704	-0.053525	-0.683497	146.121685	-85.521019	39.872604
49648		10.117199	0.896320	0.017711	0.724043	-0.367327	0.311648	0.510069	-0.089540	-0.277908	-0.855957	-0.049805	0.410400	0.101184	0.008822	0.000245	0.021257	-0.727880	-0.056298	-0.683059	145.127728	-85.388820	41.164667
49649		10.259389	0.877398	-0.106113	0.618977	-0.324671	0.460945	0.570657	-0.097851	-0.283524	-0.862793	-0.050049	0.405518	0.102607	0.008631	-0.000986	0.022291	-0.728077	-0.059236	-0.682568	144.237104	-85.248969	42.378190
49650		9.697010	1.672412	0.219885	1.015508	-1.077769	-0.082098	0.548426	-0.125654	-0.270937	-0.860840	-0.054932	0.406982	0.096991	0.016587	0.002305	0.023337	-0.728360	-0.062117	-0.681974	143.570577	-85.099391	43.364232
49651		9.757241	1.070355	0.105354	0.848598	-0.464239	-0.044125	0.463918	-0.128175	-0.219943	-0.854980	-0.055420	0.415039	0.097583	0.010594	0.001141	0.024190	-0.728679	-0.064462	-0.681385	143.181687	-84.965100	44.013299
49652		10.069471	1.260635	-0.377062	0.429617	-0.671050	0.311081	0.459634	-0.110866	-0.195144	-0.856445	-0.055664	0.416016	0.100709	0.012517	-0.003686	0.025176	-0.728936	-0.066762	-0.680854	142.874061	-84.847162	44.588342
49653		9.784378	2.085514	-0.911203	0.008290	-1.554203	0.111930	0.416386	-0.122507	-0.202986	-0.850830	-0.052490	0.416260	0.097870	0.020775	-0.009009	0.025974	-0.729232	-0.068946	-0.680289	142.569047	-84.720700	45.136125
49654		10.034462	1.833150	-1.288562	-0.365346	-1.321654	0.377061	0.369769	-0.108512	-0.159553	-0.846680	-0.043945	0.420410	0.100366	0.018275	-0.012797	0.026754	-0.729496	-0.070810	-0.679784	142.412031	-84.615777	45.508409
49655		10.031589	1.972710	-1.443584	-0.484172	-1.469655	0.395837	0.374009	-0.075802	-0.115422	-0.845703	-0.043701	0.414551	0.100333	0.019696	-0.014361	0.027652	-0.729668	-0.072460	-0.679389	142.357713	-84.540805	45.770259
49656		9.860296	2.178965	-1.513507	-0.521881	-1.688144	0.244242	0.348892	-0.049178	-0.085603	-0.856934	-0.046387	0.418945	0.098616	0.021774	-0.015073	0.028629	-0.729755	-0.073974	-0.679092	142.334982	-84.488594	45.995718
49657		9.831903	1.952014	-1.467713	-0.501543	-1.456417	0.200212	0.341670	-0.023080	-0.047064	-0.853760	-0.047363	0.422363	0.098325	0.019522	-0.014632	0.029661	-0.729773	-0.075258	-0.678887	142.397199	-84.461401	46.122028
49658		9.971693	1.511000	-1.138566	-0.226907	-0.964857	0.288386	0.311842	0.007310	0.005488	-0.859619	-0.041748	0.415771	0.099716	0.015130	-0.011366	0.030832	-0.729703	-0.076306	-0.678793	142.577776	-84.466697	46.121918
49659		9.909863	1.492476	-1.025274	-0.119827	-0.939066	0.216662	0.316133	0.054495	0.032895	-0.854248	-0.041504	0.432861	0.099093	0.014957	-0.010256	0.032072	-0.729489	-0.077200	-0.678865	142.721440	-84.502658	46.151781
49660		9.562598	1.639475	-1.181782	-0.273188	-1.139280	-0.109328	0.333646	0.053860	0.047713	-0.859863	-0.046875	0.417480	0.095619	0.016437	-0.011816	0.033484	-0.729269	-0.078160	-0.678923	142.947875	-84.543823	46.118153
49661		9.612106	1.081766	-0.783797	0.033803	-0.533548	-0.122934	0.313830	0.053604	0.070972	-0.862549	-0.030273	0.423096	0.096115	0.010864	-0.007847	0.034844	-0.729070	-0.078908	-0.678982	143.279211	-84.592469	45.958233
49662		9.843124	0.820807	-0.370373	0.411787	-0.205400	0.060823	0.201463	0.067141	0.088786	-0.860596	-0.038818	0.419189	0.098426	0.008256	-0.003728	0.035918	-0.728841	-0.079267	-0.679130	143.587755	-84.653731	45.766069
49663		9.834180	0.904544	-0.190681	0.598806	-0.269112	0.043004	0.138622	0.053912	0.078511	-0.862549	-0.035400	0.409912	0.098338	0.009085	-0.001927	0.036667	-0.728671	-0.079398	-0.679257	143.860568	-84.704722	45.564688
49664		9.835539	0.867316	0.032867	0.810723	-0.203753	0.025623	0.060159	0.029041	0.060939	-0.854004	-0.034668	0.417969	0.098353	0.008703	0.000317	0.037117	-0.728585	-0.079385	-0.679327	144.097328	-84.738770	45.363338
49665		9.359290	1.351818	0.538165	1.357017	-0.635241	-0.460238	0.004274	0.010286	0.043347	-0.857178	-0.033691	0.410400	0.093590	0.013538	0.005377	0.037297	-0.728567	-0.079255	-0.679351	144.284343	-84.757760	45.180307
49666		9.227167	0.856536	0.722549	1.448830	-0.130608	-0.632264	-0.103557	-0.029090	0.045152	-0.868652	-0.023682	0.419434	0.092269	0.008590	0.007234	0.037074	-0.728703	-0.078754	-0.679276	144.562622	-84.759311	44.843078
49667		9.228680	0.777082	0.789899	1.506052	-0.044755	-0.640657	-0.172580	-0.068362	0.014117	-0.868164	-0.038818	0.414551	0.092284	0.007784	0.007924	0.036426	-0.728978	-0.078091	-0.679092	144.781399	-84.731555	44.517752
49668		9.503816	0.238812	0.151099	0.815732	0.401430	-0.348238	-0.225917	-0.128295	-0.001019	-0.863281	-0.032471	0.416748	0.095037	0.002389	0.001569	0.035561	-0.729453	-0.077361	-0.678711	145.104607	-84.671103	44.064962
49669		9.574741	-0.311615	-0.841100	-0.230488	0.796886	-0.231872	-0.162515	-0.186498	-0.022784	-0.861328	-0.039795	0.419922	0.095755	-0.003134	-0.008319	0.034773	-0.730113	-0.076876	-0.678097	145.545484	-84.575535	43.520907
49670		9.676525	-1.239982	-1.312424	-0.816411	1.653040	-0.143353	-0.112466	-0.211998	-0.037143	-0.857178	-0.034424	0.426758	0.096777	-0.012425	-0.013015	0.034167	-0.730836	-0.076677	-0.677371	146.012135	-84.463183	42.989180
49671		10.000179	-1.549546	-1.630915	-1.136202	1.940113	0.187789	0.005231	-0.198857	-0.072783	-0.861816	-0.033936	0.422607	0.100012	-0.015531	-0.016210	0.033818	-0.731488	-0.076945	-0.676655	146.311684	-84.345077	42.683431
49672		9.965454	-0.241794	-1.564403	-0.848987	0.670069	0.219575	0.093559	-0.178335	-0.113168	-0.859131	-0.037109	0.419922	0.099667	-0.002467	-0.015556	0.033720	-0.732031	-0.077716	-0.675984	146.394143	-84.224144	42.656236
49673		10.161812	0.879617	-1.578128	-0.654403	-0.411809	0.479484	0.039889	-0.147042	-0.095714	-0.865234	-0.036621	0.423828	0.101634	0.008751	-0.015705	0.033445	-0.732490	-0.078184	-0.675446	146.426442	-84.123208	42.640039
49674		9.923458	1.366047	-1.397498	-0.404865	-0.870279	0.255718	-0.015169	-0.113244	-0.056795	-0.859375	-0.034912	0.433105	0.099246	0.013631	-0.013920	0.033165	-0.732852	-0.078370	-0.675045	146.504425	-84.051201	42.554703
49675		9.762348	0.820517	-1.106973	-0.209441	-0.293108	0.039839	-0.190502	-0.098546	-0.008148	-0.860840	-0.035400	0.428955	0.097629	0.008191	-0.011029	0.032360	-0.733219	-0.077731	-0.674759	146.655563	-84.001059	42.286230
49676		9.635444	0.219467	-1.258579	-0.454665	0.271931	-0.107365	-0.200416	-0.109912	-0.008963	-0.857666	-0.031738	0.425293	0.096361	0.002178	-0.012535	0.031564	-0.733618	-0.077116	-0.674434	146.829648	-83.945636	41.997510
49677		9.676817	0.029246	-1.202604	-0.414217	0.476539	-0.081849	-0.094013	-0.148177	-0.029995	-0.860352	-0.039307	0.425293	0.096777	0.000272	-0.011954	0.031024	-0.734127	-0.076894	-0.673930	147.075070	-83.864660	41.690462
49678		9.670586	-0.132435	-0.760652	0.010417	0.708545	-0.137245	-0.041758	-0.177811	-0.052348	-0.851074	-0.033203	0.426025	0.096712	-0.001351	-0.007520	0.030638	-0.734712	-0.076983	-0.673300	147.330120	-83.762829	41.411653
49679		9.756322	0.339056	-1.015723	-0.143058	0.220664	-0.001302	0.021101	-0.209883	-0.069648	-0.856201	-0.039795	0.426514	0.097575	0.003358	-0.010054	0.030363	-0.735394	-0.077304	-0.672530	147.623869	-83.639550	41.122203
49680		9.830324	0.642317	-1.432092	-0.478391	-0.125913	0.129846	0.128558	-0.239394	-0.064697	-0.853516	-0.036133	0.434082	0.098322	0.006401	-0.014199	0.030538	-0.736154	-0.078021	-0.671608	148.069306	-83.503749	40.749873
49681		9.746823	0.218679	-1.561238	-0.653958	0.273304	0.035329	0.168650	-0.261683	-0.040195	-0.854004	-0.031494	0.435547	0.097489	0.002180	-0.015483	0.030884	-0.736997	-0.078736	-0.670584	148.679374	-83.363566	40.226791
49682		9.782221	-0.233628	-1.851811	-0.982239	0.682993	0.073884	0.227762	-0.268091	-0.049670	-0.853516	-0.031738	0.441406	0.097846	-0.002340	-0.018390	0.031463	-0.737839	-0.079734	-0.669512	149.277885	-83.217314	39.757351
49683		9.733983	-0.435160	-1.152259	-0.308743	0.991842	-0.056234	0.256539	-0.216303	-0.085517	-0.853027	-0.037598	0.436768	0.097350	-0.004379	-0.011423	0.032003	-0.738494	-0.080906	-0.668622	149.599546	-83.085247	39.575800
49684		9.417040	1.718904	-1.005023	0.175709	-1.119339	-0.254367	0.365456	-0.168926	-0.159108	-0.855957	-0.027588	0.438477	0.094192	0.017132	-0.009939	0.032764	-0.738934	-0.082752	-0.667873	149.569424	-82.955677	39.818900
49685		8.994093	3.094283	-0.737086	0.647436	-2.447110	-0.614644	0.222582	-0.174092	-0.175081	-0.843262	-0.031250	0.440674	0.089974	0.030872	-0.007258	0.032896	-0.739412	-0.084135	-0.667165	149.411388	-82.818379	40.101068
49686		9.681154	1.966899	-0.594744	0.681190	-1.245791	-0.018245	0.056750	-0.164580	-0.079874	-0.850586	-0.030029	0.445801	0.096824	0.019632	-0.005862	0.032782	-0.739917	-0.084657	-0.666544	149.513219	-82.713959	40.032996
49687		10.100074	0.939707	-0.345810	0.807580	-0.153864	0.303550	0.043458	-0.143533	-0.021925	-0.854736	-0.031494	0.443115	0.101004	0.009387	-0.003384	0.032777	-0.740386	-0.084873	-0.665996	149.777982	-82.636177	39.785825
49688		9.612131	0.612491	0.076460	1.131153	0.200910	-0.249520	-0.122022	-0.135334	-0.033659	-0.851318	-0.031494	0.446777	0.096122	0.006109	0.000826	0.032168	-0.740841	-0.084623	-0.665551	149.882060	-82.559499	39.612171
49689		9.491116	0.686564	-0.361219	0.714801	0.055523	-0.316947	-0.137791	-0.166325	-0.077777	-0.850098	-0.029053	0.445313	0.094917	0.006826	-0.003538	0.031297	-0.741390	-0.084447	-0.665004	149.874316	-82.454280	39.535153
49690		9.241156	1.294892	-0.224073	0.939027	-0.532122	-0.541173	-0.153425	-0.184330	-0.075725	-0.846680	-0.032471	0.440674	0.092418	0.012912	-0.002165	0.030411	-0.741994	-0.084256	-0.664396	149.904523	-82.341203	39.417792
49691		9.353861	0.686874	-0.527439	0.566939	0.038388	-0.436026	-0.256697	-0.196424	-0.075689	-0.854736	-0.040527	0.447998	0.093546	0.006827	-0.005191	0.029097	-0.742658	-0.083685	-0.663785	149.897638	-82.221706	39.271807
49692		9.773437	0.509651	-0.520301	0.604734	0.260575	-0.034298	-0.245011	-0.194214	-0.066018	-0.844482	-0.037842	0.448730	0.097741	0.005058	-0.005114	0.027899	-0.743309	-0.083155	-0.663173	149.927130	-82.106511	39.102133
49693		10.301594	0.686892	-0.955871	0.279123	0.076990	0.551890	-0.184736	-0.198846	-0.071408	-0.841797	-0.028076	0.458740	0.103028	0.006823	-0.009463	0.026861	-0.743969	-0.082802	-0.662519	149.976458	-81.987014	38.940055
49694		9.836405	1.372219	-1.072336	0.240206	-0.643805	0.153030	-0.130547	-0.199101	-0.086180	-0.844971	-0.036621	0.451660	0.098381	0.013673	-0.010634	0.026019	-0.744610	-0.082726	-0.661843	150.004750	-81.863585	38.837732
49695		9.682891	1.451001	-1.514917	-0.181328	-0.787982	0.061771	-0.086539	-0.215806	-0.083393	-0.847168	-0.045410	0.458496	0.096851	0.014463	-0.015051	0.025308	-0.745305	-0.082753	-0.661083	150.097148	-81.732202	38.690320
49696		9.776082	1.327380	-1.584320	-0.239196	-0.657046	0.155001	-0.055106	-0.220267	-0.054794	-0.847656	-0.038330	0.451172	0.097782	0.013243	-0.015739	0.024843	-0.746017	-0.082812	-0.660291	150.310112	-81.607132	38.444975
49697		9.905717	1.549982	-2.172711	-0.746341	-0.942613	0.375578	0.046046	-0.208504	-0.038654	-0.840088	-0.045898	0.452148	0.099083	0.015486	-0.021620	0.024770	-0.746689	-0.083103	-0.659497	150.603500	-81.491890	38.170054
49698		10.169465	1.739995	-2.191150	-0.682274	-1.103838	0.654535	0.125421	-0.193848	-0.018716	-0.843750	-0.043457	0.460449	0.101717	0.017404	-0.021802	0.025109	-0.747304	-0.083620	-0.658722	150.975601	-81.389763	37.868232
49699		10.224265	1.791924	-2.106874	-0.564376	-1.136023	0.702844	0.182977	-0.149996	-0.006573	-0.844238	-0.042236	0.462646	0.102259	0.017935	-0.020976	0.025676	-0.747777	-0.084233	-0.658084	151.331342	-81.312232	37.609109
49700		9.748280	2.014898	-2.216396	-0.674003	-1.418117	0.263812	0.241860	-0.130903	0.021807	-0.844238	-0.033691	0.458984	0.097495	0.020186	-0.022076	0.026609	-0.748185	-0.084974	-0.657488	151.776838	-81.252284	37.300401
49701		9.549919	1.719499	-1.989224	-0.505522	-1.117389	0.016377	0.292925	-0.109297	0.049913	-0.849609	-0.030029	0.459473	0.095506	0.017248	-0.019815	0.027795	-0.748531	-0.085737	-0.656945	152.298957	-81.209903	36.937520
49702		9.791352	1.411676	-2.395631	-0.906554	-0.865003	0.288418	0.354312	-0.117226	0.063891	-0.841064	-0.029785	0.465088	0.097923	0.014190	-0.023874	0.029293	-0.748893	-0.086687	-0.656343	152.913283	-81.167158	36.523087
49703		10.024239	1.292878	-2.744082	-1.220568	-0.795582	0.558625	0.396232	-0.089845	0.077875	-0.848877	-0.022217	0.459229	0.100250	0.013022	-0.027370	0.030972	-0.749167	-0.087687	-0.655820	153.545533	-81.140797	36.109457
49704		10.081922	0.445875	-2.929209	-1.525408	-0.006859	0.584295	0.394283	-0.060030	0.119579	-0.850830	-0.034424	0.468018	0.100825	0.004577	-0.029253	0.032827	-0.749353	-0.088551	-0.655401	154.265537	-81.140089	35.611193
49705		9.622391	0.491552	-2.468810	-1.116378	-0.038221	0.070595	0.372916	-0.003583	0.131947	-0.833740	-0.015625	0.462402	0.096221	0.005025	-0.024677	0.034629	-0.749367	-0.089254	-0.655198	154.923761	-81.170121	35.157164
49706		9.316407	0.394287	-2.122569	-0.829871	0.068892	-0.285739	0.208991	0.011811	0.150209	-0.843262	-0.014648	0.462158	0.093160	0.004035	-0.021227	0.035922	-0.749358	-0.089383	-0.655121	155.531780	-81.212371	34.664858
49707		9.291665	0.536817	-1.679505	-0.371583	-0.015173	-0.362522	0.189432	0.004207	0.157173	-0.848389	-0.011475	0.458496	0.092912	0.005457	-0.016792	0.037130	-0.749385	-0.089396	-0.655021	156.167255	-81.250836	34.128783
49708		9.467110	0.762084	-1.470511	-0.098509	-0.202748	-0.204435	0.160007	-0.040919	0.174172	-0.836182	-0.023682	0.458496	0.094667	0.007715	-0.014680	0.038294	-0.749566	-0.089284	-0.654762	156.917428	-81.269096	33.464349
49709		9.781415	0.192495	-1.299474	0.011938	0.393873	0.048675	0.074339	-0.051787	0.199086	-0.848877	0.000000	0.461914	0.097816	0.002027	-0.012969	0.039178	-0.749816	-0.088768	-0.654494	157.720578	-81.285132	32.690985
49710		9.685584	-0.257020	-1.613965	-0.379754	0.751907	-0.026377	0.167374	-0.072934	0.207686	-0.849121	0.002686	0.464600	0.096864	-0.002456	-0.016106	0.040464	-0.750112	-0.088560	-0.654103	158.641073	-81.290605	31.858559
49711		9.464896	-0.670557	-2.474061	-1.309571	0.965395	-0.142742	0.313456	-0.127154	0.205242	-0.854004	0.003906	0.469971	0.094671	-0.006570	-0.024691	0.042244	-0.750559	-0.088831	-0.653442	159.706626	-81.263761	30.960517
49712		9.305184	-1.608104	-2.384667	-1.405769	1.862212	-0.356738	0.502768	-0.161686	0.193367	-0.842529	0.003418	0.479980	0.093087	-0.015931	-0.023812	0.044703	-0.751063	-0.089791	-0.652567	160.876520	-81.213946	30.070073
49713		9.642218	-2.677228	-2.089256	-1.270359	2.962104	-0.111298	0.690509	-0.187213	0.158383	-0.851807	0.010010	0.463135	0.096463	-0.026624	-0.020894	0.047711	-0.751591	-0.091472	-0.651511	162.047053	-81.140511	29.282920
49714		9.627214	-1.421040	-1.375109	-0.321574	1.844880	-0.164553	0.877857	-0.162446	0.066637	-0.847900	0.003418	0.473633	0.096288	-0.014118	-0.013735	0.051164	-0.751933	-0.094128	-0.650476	162.963655	-81.063252	28.866050
49715		9.850897	0.350828	-0.745002	0.701281	0.246020	0.044590	0.851384	-0.155115	0.004521	-0.846436	0.016357	0.476074	0.098515	0.003542	-0.007359	0.054286	-0.752221	-0.096897	-0.649482	163.630070	-80.978313	28.681811
49716		9.909598	1.812713	-0.388115	1.390898	-1.102923	0.111304	0.554312	-0.111698	0.027612	-0.851074	0.025391	0.474609	0.099096	0.018151	-0.003776	0.056419	-0.752443	-0.098632	-0.648782	164.156884	-80.921246	28.471753
49717		9.561694	3.728523	-0.509340	1.673236	-3.022889	-0.135411	0.390538	-0.099118	0.063437	-0.852051	0.028320	0.479248	0.095608	0.037325	-0.004973	0.058030	-0.752690	-0.099671	-0.648195	164.695635	-80.875768	28.150068
49718		9.317160	3.273690	-0.283342	1.772520	-2.556216	-0.435550	-0.072954	-0.123940	0.137547	-0.850098	0.024902	0.487549	0.093151	0.032800	-0.002788	0.058151	-0.753180	-0.098962	-0.647723	165.243151	-80.827651	27.554955
49719		9.676403	1.482331	-0.313457	1.404190	-0.804486	-0.153010	-0.211021	-0.130871	0.177453	-0.844727	0.034668	0.476318	0.096753	0.014906	-0.003087	0.057851	-0.753757	-0.097632	-0.647280	165.846415	-80.779900	26.818729
49720		9.798606	0.301820	-0.226009	1.259747	0.359534	-0.094736	-0.141312	-0.167736	0.174695	-0.845947	0.024170	0.474121	0.097985	0.003102	-0.002180	0.057814	-0.754425	-0.096574	-0.646664	166.505178	-80.710520	26.071040
49721		9.742203	-0.214859	-0.335827	1.053031	0.824832	-0.154521	-0.099743	-0.211282	0.145357	-0.851563	0.036133	0.481689	0.097427	-0.002079	-0.003254	0.057794	-0.755210	-0.095752	-0.645871	167.109390	-80.611200	25.398915
49722		9.568013	-0.685676	-0.114967	1.163138	1.312200	-0.381070	0.010022	-0.289012	0.096171	-0.841064	0.025391	0.483154	0.095685	-0.006811	-0.001012	0.058016	-0.756185	-0.095514	-0.644745	167.657020	-80.461665	24.851346
49723		9.151505	-1.006365	0.211096	1.375392	1.665125	-0.860429	0.085161	-0.373632	0.034034	-0.846436	0.030029	0.493164	0.091513	-0.010049	0.002278	0.058257	-0.757384	-0.095755	-0.643278	168.083254	-80.256059	24.466425
49724		9.057738	-1.418229	0.984178	2.050096	2.232156	-1.104241	0.144533	-0.474640	-0.039035	-0.843506	0.032959	0.488525	0.090551	-0.014207	0.010046	0.058464	-0.758846	-0.096515	-0.641420	168.361368	-79.985293	24.269981
49725		9.109897	-1.641357	1.286102	2.340244	2.536010	-1.127643	0.194109	-0.588697	-0.130573	-0.840332	0.042480	0.491943	0.091050	-0.016486	0.013113	0.058484	-0.760615	-0.097789	-0.639126	168.442816	-79.639526	24.297925
49726		9.191893	-1.851256	1.652347	2.705704	2.852962	-1.141603	0.164219	-0.686077	-0.197234	-0.838623	0.030762	0.493652	0.091843	-0.018617	0.016823	0.058155	-0.762657	-0.099273	-0.636489	168.369194	-79.231765	24.470329
49727		9.377854	-1.786778	1.318332	2.487720	2.769843	-0.923740	0.168919	-0.822789	-0.278394	-0.833496	0.038818	0.507324	0.093698	-0.018010	0.013554	0.057498	-0.765083	-0.101100	-0.633341	168.157586	-78.737574	24.783205
49728		9.508696	-1.311284	1.642622	2.996697	2.435179	-0.872783	0.124989	-0.942774	-0.353808	-0.824219	0.034180	0.504150	0.094985	-0.013291	0.016866	0.056391	-0.767843	-0.103128	-0.629763	167.811352	-78.167058	25.211486
49729		10.247817	-1.635276	1.845644	3.333201	2.917136	-0.248317	0.096173	-1.061852	-0.426067	-0.821533	0.027344	0.516357	0.102343	-0.016580	0.018992	0.054866	-0.770929	-0.105355	-0.625747	167.368265	-77.520373	25.720007
49730		10.375012	-0.937589	1.469355	3.252904	2.239355	-0.061719	0.024576	-1.161072	-0.498219	-0.802246	0.011963	0.523926	0.103639	-0.009636	0.015294	0.052801	-0.774276	-0.107678	-0.621381	166.815541	-76.808187	26.303141
49731		10.435603	-0.511204	1.185670	3.198154	1.847672	0.032369	-0.084934	-1.262963	-0.546645	-0.810547	0.020508	0.541016	0.104264	-0.005392	0.012518	0.050081	-0.777913	-0.109840	-0.616668	166.206357	-76.031561	26.877068
49732		10.793380	-0.985249	0.262431	2.407789	2.235220	0.518854	-0.228694	-1.390381	-0.563076	-0.795654	0.018311	0.550781	0.107884	-0.010153	0.003386	0.046703	-0.781925	-0.111679	-0.611507	165.613841	-75.180379	27.355318
49733		12.017733	-1.673989	-0.168170	2.260258	3.054032	1.711956	-0.252727	-1.476855	-0.571717	-0.782715	0.011475	0.556396	0.120137	-0.017085	-0.000773	0.043134	-0.786156	-0.113467	-0.605989	165.093681	-74.279116	27.742632
49734		14.116858	-2.851432	0.967655	3.728450	4.809143	3.276195	-0.064847	-1.528478	-0.623063	-0.771973	0.002686	0.560303	0.140999	-0.028950	0.010764	0.040135	-0.790421	-0.116054	-0.600130	164.658598	-73.340578	28.158819
49735		15.017287	-3.666496	0.880931	3.871408	5.845476	3.992177	-0.255410	-1.592355	-0.806058	-0.755127	-0.005127	0.576416	0.149947	-0.037257	0.010051	0.035776	-0.794752	-0.118769	-0.594124	163.875866	-72.337586	28.822897
49736		14.086273	-1.727927	1.579497	4.912738	4.131742	2.942354	0.033891	-1.688106	-0.928556	-0.744629	-0.010986	0.590332	0.140640	-0.017935	0.016980	0.032161	-0.799171	-0.122865	-0.587533	163.179764	-71.259223	29.577932
49737		13.362147	-1.712649	0.446440	3.840619	3.948813	2.488926	-0.157283	-1.770231	-0.997260	-0.737793	-0.020996	0.597900	0.133487	-0.017788	0.005660	0.027503	-0.803745	-0.126639	-0.580689	162.390802	-70.121922	30.315419
49738		13.362011	-1.827564	-0.302065	3.303981	4.089664	2.610137	-0.066288	-1.778209	-1.028348	-0.724854	-0.032471	0.607666	0.133544	-0.018963	-0.001827	0.023137	-0.808223	-0.130825	-0.573694	161.694195	-68.971071	31.020209
49739		13.108100	-0.641814	-0.938843	3.102452	2.955261	2.627208	-0.087304	-1.721998	-1.047537	-0.717529	-0.032471	0.624756	0.131119	-0.007109	-0.008257	0.018640	-0.812449	-0.134967	-0.566889	161.006640	-67.845153	31.702238
49740		12.008210	0.625222	-2.258483	2.013687	1.450487	2.167509	-0.336472	-1.633670	-1.058279	-0.698975	-0.044189	0.623047	0.120292	0.005579	-0.021613	0.013183	-0.816357	-0.138466	-0.560548	160.191777	-66.760883	32.378411
49741		10.801015	1.419876	-3.786268	0.567639	0.329041	1.701611	-0.094785	-1.631004	-1.076516	-0.690186	-0.051025	0.640137	0.108388	0.013598	-0.036986	0.008642	-0.820153	-0.142665	-0.554005	159.555212	-65.672196	33.011682
49742		9.909492	2.234858	-4.887226	-0.375475	-0.692095	1.432469	0.305700	-1.682364	-1.040231	-0.667969	-0.059814	0.647949	0.099616	0.021905	-0.048002	0.005827	-0.824016	-0.147850	-0.546903	159.260372	-64.560263	33.531701
49743		9.569007	3.540008	-5.351618	-0.403960	-1.975756	1.530425	0.694077	-1.685563	-0.928849	-0.657959	-0.058838	0.659180	0.096299	0.035137	-0.052584	0.004891	-0.827879	-0.153582	-0.539448	159.339138	-63.469720	33.883037
49744		9.712116	4.785013	-5.575863	-0.019509	-3.063761	1.973749	0.883131	-1.616567	-0.774297	-0.631592	-0.060547	0.664063	0.097751	0.047716	-0.054759	0.005230	-0.831582	-0.159209	-0.532068	159.668331	-62.446831	34.083530
49745		10.120573	5.879368	-5.139613	1.020430	-3.826677	2.341333	0.541693	-1.419407	-0.618251	-0.625488	-0.062500	0.683838	0.101748	0.058617	-0.050516	0.004697	-0.834828	-0.163217	-0.525738	159.884144	-61.562175	34.187045
49746		9.687744	5.890841	-5.464094	0.715026	-3.914359	2.127807	-0.279976	-1.175589	-0.486717	-0.613770	-0.067139	0.684326	0.097340	0.058596	-0.054152	0.001303	-0.837510	-0.164544	-0.521057	159.673149	-60.833775	34.246774
49747		8.434079	4.727400	-6.303435	-0.748801	-3.210806	1.248236	-0.230363	-1.032435	-0.424197	-0.608643	-0.073242	0.685059	0.084765	0.047022	-0.062652	-0.001630	-0.839844	-0.165685	-0.516921	159.504659	-60.195456	34.284418
49748		7.881521	4.565769	-4.156875	0.917838	-2.781729	-0.238595	-0.083886	-0.755339	-0.379253	-0.602295	-0.071533	0.700684	0.079058	0.045491	-0.041290	-0.003575	-0.841474	-0.167061	-0.513808	159.369566	-59.713968	34.386992
49749		7.636160	3.494299	-3.363707	1.247202	-1.660915	-1.008073	-0.278772	-0.473136	-0.286548	-0.591064	-0.077393	0.687988	0.076491	0.034787	-0.033505	-0.005891	-0.842446	-0.167506	-0.512046	159.113419	-59.403072	34.495050
49750		7.688401	1.929595	-3.165807	1.021405	-0.105461	-1.339037	-0.296918	-0.135596	-0.144840	-0.594727	-0.086426	0.688721	0.076919	0.019193	-0.031634	-0.007612	-0.842662	-0.167359	-0.511716	158.861479	-59.300830	34.592200
49751		7.689339	0.840603	-2.953565	0.898092	0.967918	-1.638788	-0.215368	0.196195	0.002655	-0.595215	-0.085205	0.694824	0.076864	0.008375	-0.029620	-0.008362	-0.842159	-0.166767	-0.512726	158.672946	-59.406953	34.663838
49752		7.175138	0.801131	-3.789840	-0.078723	0.719505	-1.690907	-0.050959	0.436901	0.064835	-0.590820	-0.085938	0.693848	0.071666	0.008025	-0.038057	-0.008033	-0.841089	-0.166388	-0.514607	158.549277	-59.653626	34.775489
49753		7.130079	1.467580	-3.301766	0.465884	0.133422	-1.834069	0.116169	0.707332	0.143899	-0.597656	-0.085205	0.687500	0.071173	0.014746	-0.033261	-0.006602	-0.839393	-0.166068	-0.517491	158.493581	-60.061757	34.912111
49754		7.752831	1.129779	-3.625366	0.284887	0.544976	-1.201804	-0.067521	0.948290	0.245794	-0.602783	-0.084961	0.674805	0.077341	0.011381	-0.036625	-0.005449	-0.837132	-0.164898	-0.521526	158.335760	-60.618834	35.051230
49755		8.163046	0.254001	-3.781974	-0.009313	1.414049	-0.924353	0.038875	1.194863	0.380401	-0.612061	-0.075928	0.666504	0.081398	0.002702	-0.038306	-0.003327	-0.834320	-0.163394	-0.526499	158.267964	-61.336343	35.149307
49756		7.842342	-0.159440	-3.210597	0.158367	1.743780	-1.520011	0.131422	1.396882	0.565025	-0.620117	-0.087402	0.675537	0.078201	-0.001352	-0.032654	-0.000136	-0.831083	-0.161409	-0.532211	158.354562	-62.199718	35.138480
49757		7.116373	-0.465247	-3.726009	-0.757561	1.665347	-1.977287	0.274228	1.538383	0.743212	-0.638672	-0.075439	0.658447	0.070891	-0.004337	-0.037812	0.004201	-0.827564	-0.158999	-0.538367	158.654671	-63.176737	34.971988
49758		6.674358	0.187953	-3.352838	-0.516547	0.899332	-2.413599	0.426461	1.704691	0.841136	-0.646240	-0.066650	0.657471	0.066446	0.002232	-0.034091	0.009598	-0.823596	-0.156630	-0.545036	159.098540	-64.261544	34.751441
49759		6.407704	1.121219	-3.537019	-0.634425	-0.190834	-2.438039	0.204101	1.852245	0.905167	-0.664307	-0.067871	0.634521	0.063694	0.011538	-0.035950	0.014331	-0.819210	-0.153313	-0.552436	159.449928	-65.438529	34.486500
49760		6.474516	1.431671	-4.151208	-1.203847	-0.695428	-2.114233	0.041388	1.985055	0.985407	-0.672607	-0.057373	0.627930	0.064257	0.014643	-0.042148	0.018756	-0.814429	-0.149247	-0.560428	159.775353	-66.701367	34.158358
49761		6.790389	1.388313	-4.476634	-1.546156	-0.763992	-1.744256	-0.048781	2.110605	1.104783	-0.696045	-0.055420	0.605469	0.067348	0.014245	-0.045482	0.023199	-0.809292	-0.144352	-0.568921	160.182258	-68.055115	33.680786
49762		7.168670	1.194353	-4.731452	-1.867417	-0.679755	-1.371734	-0.162320	2.230900	1.236933	-0.708984	-0.053467	0.601074	0.071077	0.012346	-0.048120	0.027682	-0.803791	-0.138623	-0.577873	160.709312	-69.496871	33.017543
49763		7.160589	1.052469	-5.062935	-2.380196	-0.750551	-1.340267	-0.239896	2.335511	1.360429	-0.725342	-0.037842	0.579346	0.070935	0.010947	-0.051473	0.032233	-0.797951	-0.132074	-0.587190	161.417276	-71.016335	32.112482
49764		6.949455	1.089318	-5.300315	-2.824011	-1.014344	-1.532219	-0.244829	2.415361	1.458867	-0.737793	-0.034912	0.571533	0.068766	0.011331	-0.053850	0.037144	-0.791782	-0.125141	-0.596692	162.388426	-72.591535	30.944502
49765		6.689132	1.239643	-5.568732	-3.280043	-1.399864	-1.777225	-0.172745	2.459025	1.503468	-0.759033	-0.032227	0.545898	0.066104	0.012847	-0.056514	0.042448	-0.785341	-0.118154	-0.606199	163.674457	-74.191284	29.492601
49766		6.690481	1.290709	-5.470247	-3.345471	-1.576162	-1.896215	-0.046817	2.465377	1.514053	-0.763184	-0.022705	0.543701	0.066124	0.013397	-0.055524	0.048317	-0.778691	-0.111540	-0.615520	165.361263	-75.784368	27.720413
49767		6.972160	1.334396	-5.188926	-3.176025	-1.678658	-1.787330	0.026217	2.454700	1.503310	-0.788086	-0.012695	0.521240	0.068975	0.013871	-0.052737	0.054366	-0.771894	-0.105098	-0.624643	167.503776	-77.354502	25.524497
49768		7.289035	1.229563	-4.799258	-2.933285	-1.620502	-1.661649	0.093921	2.411539	1.497358	-0.801270	-0.001221	0.504150	0.072210	0.012861	-0.048860	0.060679	-0.765045	-0.098956	-0.633429	170.296538	-78.876003	22.727614
49769		7.721010	1.226852	-4.429228	-2.666378	-1.668853	-1.396188	0.221165	2.315571	1.499707	-0.808350	0.014404	0.481934	0.076595	0.012894	-0.045167	0.067369	-0.758319	-0.093146	-0.641668	174.080181	-80.308389	19.001145
49770		8.152720	1.552104	-4.112445	-2.375077	-2.064352	-1.101748	0.371466	2.178812	1.486743	-0.826904	0.020752	0.469727	0.080954	0.016202	-0.041979	0.074568	-0.751828	-0.087967	-0.649197	179.179148	-81.605886	14.055698
49771		8.649303	2.028287	-3.552474	-1.803022	-2.560881	-0.772188	0.444037	2.028115	1.456110	-0.834717	0.035889	0.449219	0.085976	0.020990	-0.036352	0.081804	-0.745664	-0.083113	-0.656038	-174.126569	-82.732084	7.547081
49772		8.919413	2.243788	-3.440048	-1.748309	-2.914217	-0.600152	0.269491	1.854874	1.414240	-0.846680	0.043213	0.437988	0.088708	0.023113	-0.035194	0.088224	-0.740005	-0.077969	-0.662216	-165.730434	-83.639124	-0.751048
49773		8.891481	2.199662	-3.400082	-1.850316	-3.023272	-0.708292	0.160557	1.674661	1.324100	-0.852783	0.050537	0.430908	0.088478	0.022611	-0.034725	0.093862	-0.734860	-0.072866	-0.667728	-155.854243	-84.298181	-10.587679
49774		8.997426	1.904195	-2.978286	-1.616501	-2.782738	-0.697301	-0.045487	1.484415	1.213445	-0.861572	0.066406	0.426025	0.089632	0.019580	-0.030453	0.098294	-0.730333	-0.067566	-0.672597	-145.234505	-84.698553	-21.280637
49775		9.418714	0.786507	-2.880189	-1.849826	-1.814914	-0.278103	-0.241562	1.293391	1.080724	-0.873291	0.079346	0.406006	0.093954	0.008338	-0.029420	0.101491	-0.726439	-0.062179	-0.676846	-134.943318	-84.870451	-31.751549
49776		9.658711	-0.405765	-2.933306	-2.249332	-0.790966	0.004284	-0.201544	1.116234	0.908442	-0.871338	0.079102	0.387939	0.096439	-0.003649	-0.029868	0.104190	-0.723025	-0.057639	-0.680483	-125.846296	-84.888493	-40.999043
49777		9.490018	-0.766468	-2.652025	-2.149352	-0.458810	-0.176824	-0.022175	0.951102	0.690913	-0.871826	0.081299	0.391846	0.094798	-0.007340	-0.026970	0.106745	-0.719985	-0.054580	-0.683555	-118.372815	-84.842735	-48.513414
49778		9.242223	-0.557808	-2.153321	-1.700693	-0.600876	-0.479274	0.011643	0.794732	0.459860	-0.877930	0.093506	0.392090	0.092348	-0.005364	-0.021901	0.108586	-0.717379	-0.052550	-0.686159	-112.574919	-84.800575	-54.326571
49779		9.299347	-0.253947	-2.219883	-1.752132	-0.960523	-0.459757	-0.071884	0.633569	0.247190	-0.882813	0.092285	0.381104	0.092926	-0.002433	-0.022492	0.109354	-0.715304	-0.051084	-0.688311	-108.334917	-84.794698	-58.623522
49780		9.448551	0.093738	-2.261401	-1.755327	-1.343825	-0.351682	0.016374	0.470445	0.073047	-0.880615	0.099365	0.368164	0.094432	0.000974	-0.022836	0.109795	-0.713691	-0.050632	-0.689947	-105.347180	-84.832654	-61.612355
49781		9.529114	0.392785	-2.077124	-1.541855	-1.607505	-0.309463	-0.004664	0.314288	-0.055291	-0.887207	0.093506	0.376953	0.095259	0.003901	-0.020921	0.109679	-0.712594	-0.050653	-0.691097	-103.494893	-84.908175	-63.472759
49782		9.311177	0.067441	-1.903559	-1.479182	-1.231010	-0.505555	-0.046824	0.177644	-0.132366	-0.883789	0.089355	0.369873	0.093095	0.000608	-0.019118	0.109111	-0.711970	-0.050875	-0.691813	-102.590014	-85.004938	-64.406327
49783		9.218093	-0.416073	-1.613582	-1.322407	-0.674789	-0.563587	-0.045850	0.053274	-0.210601	-0.885986	0.095215	0.368164	0.092172	-0.004261	-0.016159	0.108246	-0.711756	-0.051450	-0.692126	-102.576738	-85.129369	-64.443910
49784		9.159090	-0.378081	-1.277485	-0.993751	-0.609450	-0.630921	-0.037361	-0.050669	-0.268760	-0.885010	0.091797	0.373779	0.091589	-0.003906	-0.012751	0.107181	-0.711880	-0.052315	-0.692100	-103.344437	-85.272832	-63.693233
49785		9.126001	-0.044399	-0.982540	-0.631233	-0.837075	-0.693915	-0.169790	-0.125226	-0.292562	-0.883057	0.086670	0.367432	0.091265	-0.000586	-0.009768	0.105544	-0.712327	-0.052849	-0.691851	-104.799016	-85.418005	-62.329290
49786		9.092854	0.193503	-1.259475	-0.842134	-1.096017	-0.735619	-0.306767	-0.196482	-0.298445	-0.889648	0.086670	0.373535	0.090944	0.001780	-0.012508	0.103378	-0.713086	-0.052965	-0.691387	-106.936019	-85.551633	-60.360191
49787		9.193033	0.412302	-0.896578	-0.423759	-1.201123	-0.654996	-0.360889	-0.262735	-0.304893	-0.870850	0.075439	0.378662	0.091948	0.003967	-0.008852	0.100980	-0.714098	-0.052954	-0.690698	-109.723216	-85.670160	-57.769961
49788		9.158021	0.285514	-0.575201	-0.120453	-0.969241	-0.684291	-0.581412	-0.331943	-0.316388	-0.881592	0.081787	0.371582	0.091594	0.002694	-0.005608	0.097735	-0.715447	-0.052253	-0.689821	-113.306711	-85.769006	-54.508747
49789		9.264672	0.234090	-1.107189	-0.621303	-0.996697	-0.553360	-0.631720	-0.418354	-0.345381	-0.882080	0.070557	0.378662	0.092673	0.002146	-0.010885	0.094187	-0.717103	-0.051529	-0.688649	-117.786482	-85.844229	-50.377592
49790		9.427777	0.444091	-0.231160	0.316259	-0.986194	-0.428617	-0.597493	-0.456203	-0.365147	-0.873291	0.062988	0.376953	0.094291	0.004262	-0.002109	0.090680	-0.718853	-0.051005	-0.687332	-122.712795	-85.893236	-45.779932
49791		12.503648	-2.150243	6.793480	6.865066	2.819269	2.517706	-0.855725	-0.091446	-0.332178	-0.864502	0.060791	0.380371	0.124970	-0.021419	0.068084	0.086452	-0.719463	-0.049315	-0.687362	-125.328380	-86.021667	-43.646991
49792		15.335090	-10.350492	2.545218	1.410036	9.902213	5.958482	-2.114962	0.020107	-0.107967	-0.875488	0.055176	0.375000	0.153298	-0.103311	0.026530	0.078484	-0.720240	-0.042433	-0.687963	-126.930965	-86.078347	-43.253502
49793		13.299693	-8.838434	-1.752964	-2.551101	7.777868	4.010093	-0.045707	-0.057053	-0.031561	-0.877197	0.049805	0.385498	0.132988	-0.088409	-0.017471	0.078151	-0.720451	-0.042361	-0.687785	-127.495575	-86.072887	-42.721894
49794		9.167199	1.311465	1.849648	2.503453	-1.402360	-0.815755	-0.094751	-0.015211	0.019953	-0.868164	0.045654	0.378662	0.091669	0.013133	0.018497	0.077887	-0.720543	-0.041979	-0.687742	-127.546440	-86.058439	-42.723569
49795		6.035481	2.861674	-2.845851	-2.023079	-3.564764	-3.819812	-0.853469	-0.303804	-0.209028	-0.868408	0.047852	0.384033	0.060428	0.028432	-0.028488	0.074040	-0.721868	-0.039925	-0.686899	-131.082672	-86.040624	-39.667367
49796		8.558834	-0.336495	-1.767567	-1.318612	-0.299402	-1.171955	-0.502258	-0.614317	-0.555904	-0.873047	0.040771	0.385010	0.085632	-0.003647	-0.017404	0.070207	-0.724043	-0.040443	-0.684979	-138.205518	-86.019802	-32.814138
49797		14.347084	-6.073667	-1.625940	-1.647828	5.256187	4.851106	-0.513123	-0.709974	-0.594913	-0.856689	0.040771	0.398193	0.143345	-0.061204	-0.015594	0.066119	-0.726528	-0.041035	-0.682716	-145.859092	-85.908387	-25.444468
49798		12.489600	-4.046378	-2.081346	-1.833929	3.318486	2.927774	0.452883	-0.537450	-0.347508	-0.862793	0.035156	0.401123	0.124881	-0.040634	-0.020570	0.066479	-0.728135	-0.044031	-0.680780	-150.152278	-85.752551	-20.877977
49799		9.422344	0.048799	-2.037992	-1.330540	-0.600682	-0.283521	0.401949	-0.431182	-0.352483	-0.858887	0.033936	0.402832	0.094268	0.000363	-0.020176	0.066600	-0.729392	-0.046769	-0.679238	-153.825116	-85.628894	-16.972183
49800		7.689807	1.088308	-2.839843	-2.046578	-1.682770	-1.979308	0.192496	-0.454000	-0.485973	-0.855225	0.032227	0.407227	0.076988	0.010723	-0.028213	0.065557	-0.730751	-0.049356	-0.677694	-158.355809	-85.503807	-12.315527
49801		7.948801	-0.083065	-1.648403	-1.009344	-0.292508	-1.762662	0.225447	-0.532134	-0.636370	-0.856201	0.022217	0.408447	0.079528	-0.001065	-0.016274	0.064045	-0.732322	-0.052564	-0.675900	-163.764186	-85.333208	-6.768573
49802		10.055369	-0.668603	-1.137003	-0.394861	0.415037	0.312599	0.111207	-0.529616	-0.721408	-0.859375	0.021484	0.414307	0.100558	-0.007043	-0.011108	0.061886	-0.733878	-0.055760	-0.674154	-169.366839	-85.133834	-1.080820
49803		11.110560	-0.368282	-1.945925	-1.009692	0.059629	1.427560	0.171453	-0.482642	-0.627251	-0.854492	0.011963	0.422363	0.111140	-0.004015	-0.019194	0.060220	-0.735277	-0.058733	-0.672526	-173.812850	-84.912303	3.472297
49804		10.069852	2.319020	-2.632877	-1.284214	-2.645216	0.437434	0.270868	-0.433891	-0.549417	-0.839355	0.012207	0.422607	0.100819	0.022949	-0.026079	0.059252	-0.736487	-0.061803	-0.671011	-177.315709	-84.688677	7.147210
49805		9.278933	2.718998	-2.428524	-1.053550	-2.959654	-0.351216	-0.126526	-0.396346	-0.466383	-0.839355	0.011475	0.424072	0.092900	0.026958	-0.024118	0.057052	-0.737714	-0.063158	-0.669727	179.749880	-84.466857	10.013774
49806		9.685999	1.018606	-2.831962	-1.671417	-1.293076	0.107502	-0.207022	-0.386192	-0.426146	-0.831055	0.010742	0.434326	0.096936	0.009950	-0.028143	0.054751	-0.738927	-0.064156	-0.668486	177.224436	-84.239174	12.434094
49807		10.168147	-0.195886	-2.805001	-1.772757	-0.032281	0.587008	0.031289	-0.353417	-0.388027	-0.834473	-0.000488	0.425049	0.101727	-0.002152	-0.027871	0.053411	-0.739980	-0.065737	-0.667274	175.217323	-84.021987	14.461745
49808		10.296460	0.785604	-2.848685	-1.608935	-0.961288	0.734176	0.288704	-0.292460	-0.424024	-0.829590	0.005615	0.441895	0.103023	0.007679	-0.028325	0.052980	-0.740735	-0.068357	-0.666207	173.271428	-83.830883	16.586731
49809		10.136407	2.928308	-2.102795	-0.502019	-2.909653	0.532610	0.277418	-0.193632	-0.412872	-0.831787	0.009766	0.428223	0.101445	0.029103	-0.020889	0.052521	-0.741172	-0.070808	-0.665502	171.424609	-83.688897	18.596445
49810		10.376385	3.352148	-1.821524	-0.112287	-3.231837	0.759290	-0.041790	-0.133656	-0.318187	-0.831787	-0.000977	0.444092	0.103829	0.033353	-0.018153	0.051272	-0.741513	-0.071892	-0.665103	169.901620	-83.583767	20.106546
49811		10.516840	3.217122	-1.402112	0.291979	-2.992707	0.858682	-0.240466	-0.082375	-0.173613	-0.838623	-0.002930	0.439941	0.105202	0.032063	-0.014016	0.049734	-0.741793	-0.071717	-0.664926	168.974337	-83.518499	20.894538
49812		10.131756	3.184857	-0.939577	0.690188	-2.884243	0.428570	-0.526268	-0.025103	-0.037284	-0.829346	-0.000488	0.438477	0.101325	0.031805	-0.009467	0.047660	-0.741990	-0.070121	-0.665028	168.515911	-83.500248	21.054210
49813		9.649041	1.981456	-0.758192	0.598715	-1.686112	-0.096538	-0.867550	0.011143	0.062733	-0.828613	-0.002197	0.434326	0.096484	0.019812	-0.007673	0.044613	-0.742182	-0.066960	-0.665351	168.314886	-83.513055	20.749633
49814		9.681540	0.696940	-1.822825	-0.662020	-0.580054	0.024278	-1.023775	0.039387	0.101958	-0.835693	-0.013428	0.438965	0.096808	0.006925	-0.018283	0.041178	-0.742303	-0.063175	-0.665807	168.194727	-83.547067	20.281983
49815		9.270900	-0.020567	-1.911613	-0.908750	0.107783	-0.391073	-0.851513	0.063922	0.085548	-0.841797	-0.014160	0.432373	0.092703	-0.000247	-0.019145	0.038282	-0.742292	-0.059971	-0.666288	168.063049	-83.592317	19.917091
49816		9.549811	-2.362969	-2.447739	-1.732120	2.374861	-0.110435	-0.860132	0.051449	0.084633	-0.834473	-0.017822	0.429443	0.095502	-0.023694	-0.024400	0.035398	-0.742304	-0.056790	-0.666714	167.941748	-83.631257	19.545011
49817		9.763668	-2.507220	-1.957959	-1.237082	2.600806	0.044006	-0.417338	0.059268	-0.005075	-0.833252	-0.021240	0.433350	0.097630	-0.025116	-0.019556	0.033809	-0.742183	-0.055368	-0.667050	167.610372	-83.663131	19.631345
49818		9.600992	-1.867389	-1.636071	-0.853885	2.013403	-0.140046	-0.313002	0.044045	-0.127796	-0.841553	-0.031982	0.433350	0.095994	-0.018761	-0.016353	0.032245	-0.742052	-0.054800	-0.667320	166.739831	-83.671512	20.328551
49819		9.728669	-0.510750	-0.440196	0.502635	0.836817	-0.109663	-0.268050	0.092565	-0.225033	-0.834229	-0.020752	0.433838	0.097279	-0.005223	-0.004440	0.030480	-0.741732	-0.054674	-0.667769	165.343308	-83.691243	21.571238
49820		9.647300	0.754315	-0.342062	0.733376	-0.386465	-0.165453	-0.282645	0.085694	-0.265801	-0.844238	-0.026855	0.431396	0.096481	0.007410	-0.003472	0.028579	-0.741414	-0.054713	-0.668203	163.737075	-83.698002	23.026076
49821		9.457236	1.524407	0.302062	1.429360	-1.062898	-0.395601	-0.366036	0.053487	-0.215924	-0.837891	-0.029785	0.423584	0.094590	0.015147	0.002968	0.026476	-0.741234	-0.054243	-0.668528	162.374987	-83.690565	24.179007
49822		9.559032	1.345025	0.450778	1.556125	-0.847878	-0.312848	-0.487439	-0.009864	-0.169202	-0.836426	-0.034912	0.431885	0.095601	0.013380	0.004480	0.024113	-0.741282	-0.053251	-0.668643	161.283458	-83.654998	24.997989
49823		9.849003	0.587599	0.310708	1.360491	-0.085244	-0.035855	-0.540180	-0.071392	-0.119286	-0.843506	-0.036377	0.427246	0.098492	0.005826	0.003126	0.021654	-0.741558	-0.051857	-0.668531	160.514811	-83.593323	25.453690
49824		9.803205	0.481273	-0.105446	0.938483	-0.011509	-0.042085	-0.530524	-0.125280	-0.133589	-0.841553	-0.048096	0.426514	0.098036	0.004745	-0.001006	0.019220	-0.741996	-0.050602	-0.668215	159.792348	-83.499859	25.876611
49825		9.796876	0.624168	-0.696891	0.377780	-0.192665	0.019613	-0.516247	-0.188556	-0.169721	-0.839600	-0.046875	0.435059	0.097981	0.006141	-0.006892	0.016644	-0.742636	-0.049473	-0.667658	159.038023	-83.364032	26.330314
49826		10.023226	0.544729	-0.926742	0.181412	-0.099628	0.265890	-0.444828	-0.217160	-0.190916	-0.834961	-0.054199	0.444336	0.100247	0.005331	-0.009171	0.014313	-0.743348	-0.048725	-0.666974	158.304515	-83.208384	26.814017
49827		10.114117	0.492809	-1.070480	0.062153	-0.030379	0.369615	-0.352416	-0.223964	-0.194814	-0.843018	-0.043945	0.424805	0.101158	0.004811	-0.010600	0.012254	-0.744078	-0.048238	-0.666237	157.645630	-83.047050	27.266505
49828		9.893581	0.604698	-1.245908	-0.107404	-0.144128	0.175732	-0.280367	-0.206585	-0.184599	-0.834229	-0.054199	0.434326	0.098954	0.005938	-0.012365	0.010558	-0.744737	-0.048013	-0.665545	157.065311	-82.897131	27.691122
49829		9.776216	0.794691	-1.574537	-0.412241	-0.342501	0.106878	-0.174191	-0.205857	-0.196857	-0.827148	-0.058594	0.441650	0.097786	0.007837	-0.015652	0.009170	-0.745388	-0.048142	-0.664827	156.511091	-82.743673	28.143406
49830		9.879476	1.075052	-2.022347	-0.803425	-0.626649	0.277477	-0.157841	-0.203825	-0.188419	-0.838867	-0.055176	0.444580	0.098825	0.010642	-0.020131	0.007918	-0.746026	-0.048339	-0.664112	156.020315	-82.593359	28.548805
49831		9.796923	1.594317	-2.379134	-1.107405	-1.153406	0.268239	-0.094561	-0.171890	-0.171724	-0.836426	-0.053467	0.433105	0.098003	0.015848	-0.023715	0.006915	-0.746565	-0.048633	-0.663497	155.589144	-82.462514	28.922771
49832		9.914760	1.610428	-2.679409	-1.377330	-1.165647	0.425446	-0.116994	-0.132737	-0.130507	-0.838623	-0.060059	0.443848	0.099176	0.016024	-0.026738	0.006025	-0.746977	-0.048747	-0.663033	155.251526	-82.362296	29.197506
49833		9.965050	1.611426	-2.735139	-1.418397	-1.152975	0.484821	-0.089985	-0.078707	-0.083333	-0.833740	-0.055176	0.444336	0.099668	0.016060	-0.027319	0.005360	-0.747226	-0.048729	-0.662760	155.018603	-82.300607	29.375124
49834		9.906785	1.463568	-2.738546	-1.436039	-1.001461	0.420637	-0.048216	-0.037296	-0.040906	-0.836670	-0.065674	0.435059	0.099076	0.014609	-0.027371	0.005047	-0.747341	-0.048732	-0.662632	154.903369	-82.271373	29.465291
49835		9.790489	1.087937	-2.598630	-1.339109	-0.622329	0.267474	0.048124	-0.004157	-0.009097	-0.845459	-0.053955	0.438965	0.097906	0.010881	-0.025982	0.005160	-0.747357	-0.048892	-0.662601	154.903016	-82.266208	29.487813
49836		9.778648	0.514927	-1.955129	-0.749365	-0.008057	0.144622	0.121036	0.020799	0.007501	-0.836914	-0.055908	0.441650	0.097784	0.005165	-0.019558	0.005654	-0.747287	-0.049274	-0.662648	154.966238	-82.278870	29.495753
49837		9.648867	0.020346	-1.480703	-0.336478	0.507656	-0.069865	0.213435	0.022762	-0.007168	-0.834473	-0.052002	0.437744	0.096487	0.000216	-0.014818	0.006404	-0.747209	-0.049978	-0.662676	155.020203	-82.288123	29.559955
49838		9.646204	0.368776	-1.067287	0.099995	0.190641	-0.103001	0.263539	0.017817	-0.026966	-0.838135	-0.058594	0.446777	0.096462	0.003689	-0.010677	0.007316	-0.747134	-0.050961	-0.662676	155.038314	-82.290902	29.695810
49839		9.650361	0.870708	-0.662675	0.544032	-0.275695	-0.119661	0.256569	0.013442	-0.038235	-0.839111	-0.049316	0.445313	0.096505	0.008697	-0.006622	0.008118	-0.747077	-0.051922	-0.662657	155.014546	-82.287768	29.862914
49840		9.790089	1.275113	-0.558613	0.700772	-0.658422	0.029020	0.201815	-0.003054	-0.022923	-0.839600	-0.055664	0.438721	0.097902	0.012746	-0.005572	0.008807	-0.747072	-0.052686	-0.662593	155.050142	-82.280684	29.945436
49841		9.649942	1.740107	-0.444944	0.842035	-1.120129	-0.097564	0.118881	-0.014014	-0.000719	-0.842773	-0.052979	0.441650	0.096500	0.017403	-0.004432	0.009214	-0.747119	-0.053053	-0.662505	155.140191	-82.272395	29.918372
49842		9.619684	1.344098	-0.988844	0.269422	-0.776197	-0.083985	0.031199	-0.060098	0.042410	-0.842041	-0.036865	0.448242	0.096197	0.013463	-0.009857	0.009467	-0.747328	-0.053010	-0.662270	155.428855	-82.251322	29.646852
49843		9.692562	0.612391	-0.825034	0.379543	-0.035433	-0.073275	0.025347	-0.060724	0.075855	-0.844238	-0.041992	0.440918	0.096926	0.006162	-0.008220	0.009773	-0.747554	-0.052792	-0.662028	155.839364	-82.236734	29.243427
49844		9.690582	-0.037991	-1.076754	0.078563	0.583083	-0.080162	0.064079	-0.086955	0.066738	-0.840576	-0.046631	0.444092	0.096911	-0.000344	-0.010726	0.010222	-0.747856	-0.052768	-0.661682	156.282325	-82.206758	28.835163
49845		9.679213	0.135892	-0.919043	0.259133	0.418235	-0.101447	0.087821	-0.103618	0.033041	-0.845703	-0.034912	0.448486	0.096797	0.001379	-0.009140	0.010608	-0.748208	-0.052917	-0.661265	156.631443	-82.159123	28.529713
49846		9.812000	0.160273	-0.794373	0.411504	0.410759	0.015537	0.094799	-0.111883	0.023667	-0.845703	-0.041992	0.445068	0.098124	0.001618	-0.007888	0.011023	-0.748579	-0.053158	-0.660819	156.961118	-82.105591	28.253491
49847		9.753895	0.928707	-0.921980	0.362220	-0.369651	0.014985	0.079470	-0.107878	0.017179	-0.846436	-0.048340	0.458740	0.097543	0.009299	-0.009163	0.011328	-0.748941	-0.053343	-0.660389	157.244664	-82.051724	28.010003
49848		9.669668	1.473024	-1.322554	0.019681	-0.953639	0.011344	0.039269	-0.116174	0.041326	-0.842285	-0.036865	0.457520	0.096701	0.014753	-0.013166	0.011593	-0.749333	-0.053334	-0.659940	157.608022	-81.999393	27.667571
49849		9.722210	1.011626	-1.650890	-0.329697	-0.524403	0.081072	-0.026975	-0.124535	0.066095	-0.850586	-0.041016	0.446533	0.097229	0.010146	-0.016450	0.011648	-0.749769	-0.052978	-0.659473	158.031690	-81.946796	27.219673
49850		9.768382	0.335855	-1.584929	-0.309990	0.150944	0.083129	-0.025367	-0.129338	0.072021	-0.846680	-0.039307	0.453613	0.097693	0.003392	-0.015787	0.011768	-0.750216	-0.052641	-0.658989	158.482901	-81.893291	26.751011
49851		9.753940	-0.180937	-0.964518	0.265171	0.712658	-0.039041	0.040650	-0.124714	0.059213	-0.849121	-0.039063	0.457031	0.097546	-0.001779	-0.009585	0.012059	-0.750645	-0.052538	-0.658503	158.908296	-81.838285	26.341062
49852		9.572963	-0.282166	-0.728471	0.479124	0.819107	-0.254895	0.066167	-0.149064	0.026641	-0.849365	-0.032715	0.447266	0.095735	-0.002807	-0.007214	0.012368	-0.751138	-0.052674	-0.657924	159.259162	-81.763995	26.026629
49853		9.432493	0.194543	-0.257720	0.986326	0.377742	-0.433954	0.036127	-0.167613	-0.004417	-0.849365	-0.033936	0.458008	0.094327	0.001944	-0.002498	0.012424	-0.751691	-0.052801	-0.657281	159.495671	-81.672486	25.805297
49854		9.372776	0.063994	-0.268703	0.972994	0.505388	-0.500166	-0.012665	-0.215760	-0.017672	-0.841064	-0.037354	0.455811	0.093731	0.000631	-0.002586	0.012274	-0.752396	-0.052848	-0.656473	159.718574	-81.553124	25.574402
49855		9.463031	-0.129010	-0.208519	1.048001	0.712140	-0.431665	-0.048290	-0.259039	-0.021036	-0.846436	-0.032471	0.467041	0.094633	-0.001301	-0.001962	0.011934	-0.753248	-0.052765	-0.655508	159.956636	-81.408958	25.302370
49856		9.520506	-0.277644	-0.863533	0.422230	0.812049	-0.292969	-0.041664	-0.309692	-0.040344	-0.842773	-0.037598	0.468750	0.095218	-0.002797	-0.008487	0.011575	-0.754254	-0.052808	-0.654354	160.188949	-81.234301	25.044973
49857		9.486910	-0.074456	-1.170471	0.165540	0.590081	-0.273227	-0.007260	-0.356238	-0.077061	-0.845947	-0.028076	0.474121	0.094889	-0.000782	-0.011536	0.011180	-0.755403	-0.053074	-0.653012	160.359864	-81.026627	24.864425
49858		9.363410	0.018529	-1.447856	-0.081946	0.477482	-0.350380	0.067670	-0.389549	-0.115152	-0.847168	-0.035889	0.462158	0.093662	0.000136	-0.014296	0.010969	-0.756639	-0.053761	-0.651527	160.479937	-80.794266	24.783846
49859		9.533516	0.391965	-1.438947	0.024310	0.132318	-0.164170	0.131523	-0.401685	-0.131121	-0.842529	-0.042480	0.475098	0.095366	0.003867	-0.014195	0.010916	-0.757908	-0.054692	-0.649974	160.591314	-80.551626	24.744872
49860		9.464019	0.421699	-1.749370	-0.249320	0.084725	-0.182719	0.203354	-0.422945	-0.138335	-0.838867	-0.036865	0.476807	0.094680	0.004169	-0.017289	0.011133	-0.759231	-0.055910	-0.648320	160.742336	-80.296759	24.711634
49861		9.391564	-0.010563	-1.913442	-0.422543	0.507492	-0.250962	0.265572	-0.465054	-0.137775	-0.839111	-0.031494	0.475586	0.093960	-0.000145	-0.018916	0.011544	-0.760687	-0.057297	-0.646482	160.968542	-80.018526	24.632970
49862		9.515297	-0.425261	-1.505476	-0.001172	0.978589	-0.219441	0.380104	-0.481553	-0.155043	-0.833252	-0.026123	0.487793	0.095186	-0.004298	-0.014834	0.012362	-0.762173	-0.059152	-0.644546	161.218599	-79.728755	24.601946
49863		9.757220	-0.309211	-1.289152	0.307194	0.916873	-0.013420	0.486771	-0.493449	-0.181693	-0.826660	-0.029785	0.489502	0.097601	-0.003150	-0.012658	0.013474	-0.763679	-0.061431	-0.642525	161.454058	-79.426984	24.644170
49864		9.631453	0.974242	-1.075422	0.686022	-0.326861	-0.102236	0.518377	-0.482807	-0.202408	-0.829102	-0.029053	0.482910	0.096350	0.009672	-0.010497	0.014667	-0.765128	-0.063910	-0.640531	161.634819	-79.127907	24.764245
49865		9.856923	1.814903	-0.906163	1.040309	-1.104880	0.135712	0.412739	-0.487532	-0.179327	-0.835449	-0.031250	0.495605	0.098607	0.018079	-0.008784	0.015503	-0.766602	-0.065939	-0.638540	161.820925	-78.829866	24.813398
49866		10.028223	2.347562	-0.988661	1.106946	-1.608779	0.348022	0.283401	-0.457823	-0.139369	-0.823730	-0.020996	0.500488	0.100321	0.023419	-0.009624	0.016006	-0.767993	-0.067422	-0.636699	162.013076	-78.555758	24.784800
49867		9.774085	2.182572	-1.128076	0.954551	-1.466812	0.112331	0.177790	-0.462180	-0.089646	-0.822754	-0.021973	0.502686	0.097776	0.021792	-0.011035	0.016237	-0.769421	-0.068357	-0.634866	162.273275	-78.287400	24.621354
49868		9.574844	0.861188	-1.280863	0.650264	-0.181076	-0.137768	0.102669	-0.485268	-0.057156	-0.822998	-0.019531	0.506348	0.095782	0.008591	-0.012572	0.016296	-0.770931	-0.068951	-0.632965	162.585519	-78.012482	24.364186
49869		9.076919	-0.251963	-1.462111	0.285783	0.868160	-0.660850	0.242390	-0.539040	-0.088431	-0.815430	-0.023926	0.504150	0.090807	-0.002542	-0.014379	0.016759	-0.772587	-0.070096	-0.630805	162.925603	-77.701971	24.157316
49870		9.304256	-0.526037	-1.316362	0.486466	1.188218	-0.489064	0.402337	-0.599968	-0.137253	-0.818115	-0.025879	0.507080	0.093078	-0.005298	-0.012895	0.017682	-0.774392	-0.071954	-0.628352	163.269946	-77.350233	24.042517
49871		9.464485	-0.109975	-1.224566	0.718731	0.818216	-0.331033	0.556128	-0.639908	-0.185741	-0.809082	-0.024658	0.524414	0.094682	-0.001154	-0.011946	0.019012	-0.776283	-0.074465	-0.625682	163.600339	-76.967973	24.028906
49872		9.411841	0.524770	-0.341349	1.713022	0.317546	-0.542361	0.595957	-0.692591	-0.223362	-0.807129	-0.017090	0.529297	0.094135	0.005152	-0.003072	0.020381	-0.778301	-0.077271	-0.622785	163.893788	-76.551221	24.080004
49873		9.493738	0.513443	-0.123859	2.005946	0.393579	-0.526634	0.478292	-0.764838	-0.230477	-0.801270	-0.012939	0.538818	0.094947	0.005027	-0.000863	0.021219	-0.780540	-0.079722	-0.619638	164.142724	-76.093146	24.104069
49874		9.348924	0.151810	0.518702	2.608601	0.853479	-0.859436	0.378967	-0.815864	-0.244323	-0.799316	-0.015869	0.536621	0.093469	0.001394	0.005571	0.021628	-0.782922	-0.081944	-0.616320	164.331294	-75.605273	24.135310
