// General information: 
//  MT Manager version: 2019.2.0 
//  XDA version: 2019.2.0 build 3853 rev 94535 built on 2019-09-09
// Device information: 
//  DeviceId: 00B47792
//  ProductCode: MTW2-3A7G6
//  Firmware Version: 4.6.0
//  Hardware Version: 2.0.0
// Device settings: 
//  Filter Profile: human(46.1)
//  Option Flags: Orientation Smoother Disabled, AHS Disabled, ICC Disabled
// Coordinate system: ENU
PacketCounter	SampleTimeFine	Acc_X	Acc_Y	Acc_Z	FreeAcc_E	FreeAcc_N	FreeAcc_U	Gyr_X	Gyr_Y	Gyr_Z	Mag_X	Mag_Y	Mag_Z	VelInc_X	VelInc_Y	VelInc_Z	Quat_q0	Quat_q1	Quat_q2	Quat_q3	Roll	Pitch	Yaw
49335		9.779450	0.198978	-2.552804	0.834807	-0.146268	0.260825	-0.068924	-0.186288	0.290387	-0.711182	0.284912	0.496338	0.097815	0.002123	-0.025438	0.222493	-0.761874	-0.267768	-0.546209	-171.310462	-72.071032	32.401799
49336		9.127915	1.526340	-2.162216	1.817260	-1.023813	-0.540521	-0.359380	0.158408	0.112158	-0.710938	0.283447	0.504395	0.091253	0.015276	-0.021722	0.221629	-0.762005	-0.266196	-0.547146	-171.281653	-72.147626	32.155135
49337		8.331316	0.987743	-2.221207	1.188008	-0.796540	-1.252654	-0.854186	0.456796	-0.011058	-0.715332	0.274902	0.503906	0.083263	0.009777	-0.022444	0.218935	-0.761691	-0.263401	-0.550012	-171.674094	-72.404569	32.052776
49338		8.571013	0.002639	-2.259923	0.528724	-0.046008	-0.964671	-0.867408	0.776856	-0.124784	-0.723145	0.266113	0.497314	0.085621	-0.000126	-0.022932	0.216295	-0.760342	-0.260649	-0.554219	-172.202463	-72.851888	32.085634
49339		9.132388	0.635795	-1.867262	1.270639	-0.230737	-0.559437	-0.742449	1.057448	-0.280088	-0.714111	0.263184	0.490967	0.091232	0.006160	-0.019178	0.214050	-0.757847	-0.258513	-0.559484	-172.899635	-73.470832	32.368262
49340		9.040663	0.080672	-2.072237	0.630516	0.025553	-0.558794	-0.838385	1.317433	-0.420189	-0.729004	0.259277	0.488525	0.090269	0.000528	-0.021320	0.211381	-0.754506	-0.256354	-0.565969	-173.911508	-74.244877	32.921550
49341		8.788952	-0.353973	-2.224925	0.049212	0.199203	-0.742005	-0.711212	1.533250	-0.536510	-0.730713	0.242920	0.475830	0.087706	-0.003856	-0.022909	0.209118	-0.750215	-0.254741	-0.573196	-175.136572	-75.146064	33.768020
49342		8.896419	-0.387581	-2.302017	-0.162905	0.154354	-0.617964	-0.494067	1.730929	-0.643682	-0.740479	0.248535	0.461182	0.088747	-0.004220	-0.023779	0.207603	-0.744933	-0.253931	-0.580943	-176.582584	-76.158403	34.968315
49343		9.178761	0.064705	-2.365880	-0.053220	-0.247629	-0.337251	-0.299917	1.896431	-0.758759	-0.752930	0.231689	0.460205	0.091559	0.000263	-0.024528	0.206660	-0.738747	-0.253911	-0.589130	-178.397717	-77.260374	36.655667
49344		9.366966	0.136864	-2.427895	-0.220395	-0.368914	-0.144960	-0.269079	2.027345	-0.847804	-0.763184	0.223145	0.448242	0.093422	0.000939	-0.025228	0.205717	-0.731948	-0.254152	-0.597779	179.227885	-78.422096	38.926687
49345		9.402114	0.035551	-2.482911	-0.532765	-0.372939	-0.110180	-0.163342	2.135781	-0.920572	-0.776367	0.225830	0.417480	0.093749	-0.000097	-0.025831	0.205042	-0.724530	-0.254817	-0.606698	176.156872	-79.621132	41.956974
49346		9.387133	0.090495	-2.551721	-0.776530	-0.517621	-0.129600	-0.003243	2.224588	-0.994437	-0.780518	0.212646	0.408203	0.093583	0.000439	-0.026559	0.204820	-0.716482	-0.256122	-0.615714	172.104351	-80.827888	46.067018
49347		9.291727	0.175782	-2.651722	-1.040286	-0.716431	-0.231536	0.105881	2.284874	-1.061458	-0.793701	0.200684	0.383789	0.092614	0.001280	-0.027576	0.204823	-0.707938	-0.257897	-0.624788	166.596574	-82.000487	51.697236
49348		9.300874	0.068500	-2.814077	-1.462958	-0.791786	-0.238873	0.173852	2.293187	-1.094272	-0.802490	0.190918	0.370605	0.092680	0.000202	-0.029204	0.204947	-0.699145	-0.259957	-0.633731	159.166626	-83.070263	59.290619
49349		9.125442	0.153189	-2.802104	-1.637167	-0.929093	-0.453151	0.210794	2.241238	-1.085012	-0.811768	0.186768	0.358398	0.090939	0.001068	-0.029040	0.205120	-0.690380	-0.262104	-0.642342	149.451004	-83.958083	69.188103
49350		9.082546	0.059305	-2.743777	-1.867827	-0.879924	-0.552166	0.060058	2.139210	-1.057230	-0.816650	0.176270	0.340088	0.090527	0.000122	-0.028407	0.204707	-0.682032	-0.263745	-0.650666	137.347392	-84.580971	81.386432
49351		9.121564	0.156997	-2.697912	-1.977563	-0.972855	-0.558213	-0.023474	2.020971	-1.025119	-0.833008	0.168945	0.325439	0.090943	0.001100	-0.027899	0.203917	-0.674104	-0.265079	-0.658585	123.625777	-84.885349	95.149930
49352		9.007421	0.276520	-2.575255	-2.001459	-1.041890	-0.716128	-0.155274	1.881507	-0.962330	-0.834473	0.161133	0.315186	0.089838	0.002312	-0.026600	0.202693	-0.666772	-0.265890	-0.666057	110.018616	-84.877206	108.721725
49353		8.759238	0.067208	-2.366767	-2.140920	-0.805299	-1.032273	-0.366202	1.720611	-0.867497	-0.843994	0.153564	0.295654	0.087386	0.000248	-0.024421	0.200833	-0.660249	-0.265806	-0.673116	98.086357	-84.631145	120.490729
49354		8.558487	-0.331722	-2.377033	-2.545617	-0.545878	-1.313993	-0.458332	1.559430	-0.760269	-0.845947	0.145752	0.290771	0.085383	-0.003698	-0.024428	0.198812	-0.654443	-0.265208	-0.679591	88.434666	-84.244610	129.923951
49355		8.591365	-0.689193	-2.323396	-2.865743	-0.254547	-1.362493	-0.486022	1.400435	-0.661845	-0.850586	0.133057	0.267578	0.085725	-0.007233	-0.023817	0.196795	-0.649289	-0.264321	-0.685441	80.894830	-83.790582	137.222659
49356		8.632561	-1.020814	-2.401306	-3.255972	-0.059809	-1.402977	-0.439941	1.238930	-0.576361	-0.847900	0.135742	0.265625	0.086145	-0.010510	-0.024524	0.195010	-0.644717	-0.263470	-0.690576	75.133454	-83.319402	142.766881
49357		8.674448	-0.906700	-2.421736	-3.313783	-0.176635	-1.391310	-0.337345	1.094446	-0.502479	-0.857666	0.122070	0.255859	0.086587	-0.009326	-0.024676	0.193599	-0.640614	-0.262854	-0.695012	70.718926	-82.859603	147.016951
49358		8.650379	-0.553168	-2.269261	-3.069791	-0.379180	-1.403378	-0.296291	0.928878	-0.424532	-0.863770	0.117920	0.246338	0.086385	-0.005749	-0.023086	0.192378	-0.637125	-0.262292	-0.698760	67.397416	-82.442443	150.194747
49359		8.550881	-0.332014	-2.152584	-2.910545	-0.502138	-1.497789	-0.297588	0.763046	-0.337722	-0.865723	0.118408	0.250000	0.085420	-0.003497	-0.021847	0.191220	-0.634320	-0.261590	-0.701886	64.884752	-82.088899	152.555974
49360		8.423425	-0.144639	-2.060661	-2.771388	-0.612662	-1.617255	-0.316358	0.591968	-0.246200	-0.858398	0.112305	0.244385	0.084171	-0.001583	-0.020853	0.190112	-0.632238	-0.260704	-0.704390	63.012339	-81.813901	154.263921
49361		8.291066	-0.231369	-2.150773	-2.922950	-0.614124	-1.781485	-0.300822	0.423595	-0.153363	-0.859619	0.110352	0.242676	0.082863	-0.002410	-0.021680	0.189140	-0.630855	-0.259722	-0.706252	61.667505	-81.624039	155.445905
49362		8.180845	-0.266762	-2.161590	-2.967331	-0.603994	-1.906996	-0.243618	0.257559	-0.068017	-0.864990	0.108887	0.238037	0.081780	-0.002722	-0.021718	0.188452	-0.630107	-0.258843	-0.707426	60.805655	-81.519755	156.176034
49363		8.249609	-0.273712	-2.249836	-3.065143	-0.651002	-1.851921	-0.114529	0.105254	0.010049	-0.859131	0.116455	0.234619	0.082484	-0.002746	-0.022540	0.188230	-0.629881	-0.258302	-0.707883	60.393156	-81.496004	156.523808
49364		8.573238	-0.065335	-2.041696	-2.819999	-0.675024	-1.490119	-0.001938	-0.052592	0.078905	-0.864990	0.117676	0.237061	0.085738	-0.000620	-0.020394	0.188421	-0.630191	-0.258107	-0.707628	60.442150	-81.551138	156.473129
49365		9.141426	0.297106	-1.654412	-2.358679	-0.697037	-0.849332	0.008164	-0.210532	0.150027	-0.861328	0.117432	0.237793	0.091429	0.003040	-0.016448	0.188679	-0.631146	-0.257862	-0.706797	60.899381	-81.686097	156.013665
49366		9.693454	0.708229	-1.215539	-1.806174	-0.724005	-0.212918	-0.099227	-0.391010	0.242846	-0.863770	0.116699	0.237549	0.096949	0.007194	-0.011969	0.188706	-0.632953	-0.257124	-0.705442	61.768572	-81.916545	155.078038
49367		9.950283	0.942781	-1.046747	-1.513480	-0.787246	0.090946	-0.251242	-0.569004	0.342018	-0.857422	0.123047	0.249268	0.099516	0.009585	-0.010196	0.188357	-0.635658	-0.255690	-0.703621	63.076243	-82.242073	153.610387
49368		9.608967	0.996754	-0.836583	-1.203493	-0.716738	-0.217739	-0.369982	-0.723620	0.447833	-0.855713	0.123779	0.257568	0.096097	0.010168	-0.008037	0.187816	-0.639138	-0.253655	-0.701347	64.852382	-82.655388	151.604864
49369		9.105354	0.657396	-0.627879	-1.096432	-0.342940	-0.734503	-0.358890	-0.864577	0.538297	-0.844971	0.120605	0.266846	0.091061	0.006808	-0.005897	0.187429	-0.643206	-0.251483	-0.698508	67.307983	-83.138962	148.920751
49370		9.062485	0.126709	-0.871947	-1.503861	-0.053817	-0.832732	-0.183278	-0.981594	0.589620	-0.840088	0.126465	0.278564	0.090662	0.001527	-0.008276	0.187648	-0.647556	-0.249873	-0.694999	70.727092	-83.656421	145.373131
49371		9.186995	0.192874	-0.905406	-1.394721	-0.107830	-0.685814	0.036695	-1.086782	0.663849	-0.843506	0.137939	0.280518	0.091910	0.002235	-0.008554	0.188699	-0.652135	-0.248877	-0.690777	75.342239	-84.202625	140.753211
49372		11.076082	0.065385	3.074619	1.749101	2.452831	1.280474	-0.925966	-1.230624	0.970463	-0.835693	0.142090	0.299072	0.110563	0.001335	0.031422	0.187478	-0.658459	-0.243676	-0.686954	80.882060	-84.892762	134.655390
49373		10.953554	-1.593680	-1.640534	-2.864615	1.003500	0.957460	0.813808	-0.960926	1.146347	-0.828369	0.142090	0.304199	0.109702	-0.015243	-0.015941	0.192904	-0.662390	-0.243600	-0.681679	87.161005	-85.603812	128.822819
49374		9.733843	5.692479	2.338701	4.839138	-2.595948	0.309681	1.414789	-1.011889	0.585680	-0.828613	0.159424	0.310059	0.097050	0.057040	0.024282	0.198332	-0.665179	-0.247460	-0.675992	95.973733	-85.923129	120.798869
49375		12.938286	7.117516	2.937968	6.148950	-3.163189	3.561700	-0.944879	-0.465737	0.221338	-0.824951	0.157715	0.314453	0.129236	0.071457	0.029344	0.195345	-0.667974	-0.244000	-0.675363	99.476196	-86.011608	116.745011
49376		10.897072	1.660687	3.298139	3.314634	1.254675	1.133559	-1.017332	-0.012387	0.350241	-0.818604	0.161865	0.320313	0.108939	0.016965	0.032902	0.193099	-0.669447	-0.239415	-0.676191	99.533065	-86.206829	116.103753
49377		10.725857	1.534176	1.197467	1.555355	0.064056	0.976574	0.065335	0.271515	0.427744	-0.827393	0.162842	0.311035	0.107242	0.015567	0.011834	0.195075	-0.668994	-0.237953	-0.676587	97.797033	-86.471040	117.880866
49378		10.098630	2.153440	0.358942	1.260545	-1.005668	0.392605	-0.507293	0.017258	0.343494	-0.825928	0.171631	0.316650	0.100949	0.021717	0.003526	0.194547	-0.669856	-0.235082	-0.676891	97.846683	-86.665934	117.539924
49379		8.836568	-3.345694	-2.608034	-4.281593	1.676362	-1.156010	-0.600864	-0.190753	0.272935	-0.819336	0.166992	0.317139	0.088436	-0.033414	-0.025896	0.193204	-0.671426	-0.232316	-0.676674	99.876408	-86.801992	115.159627
49380		7.972220	-0.794467	-2.554214	-2.721539	-0.421572	-1.867445	0.848356	-0.273750	0.107361	-0.815186	0.162354	0.322998	0.079761	-0.007794	-0.025466	0.196083	-0.671670	-0.235100	-0.674640	103.406598	-86.828947	112.110781
49381		8.848613	4.267027	-0.382173	2.002899	-3.222278	-0.743143	0.908425	-0.136329	0.002219	-0.818359	0.175537	0.324707	0.088488	0.042688	-0.003568	0.198966	-0.671255	-0.238300	-0.673085	105.353513	-86.808940	110.682179
49382		9.227553	0.376251	-1.622819	-1.263753	-0.777114	-0.554079	-0.525637	-0.181372	0.206687	-0.815918	0.172119	0.325684	0.092286	0.003815	-0.016154	0.197667	-0.672650	-0.236028	-0.672875	107.530232	-86.891202	108.200521
49383		8.869545	-3.354778	-2.835274	-4.396533	1.510268	-1.074747	0.213779	-0.176828	0.317800	-0.808350	0.180176	0.316162	0.088774	-0.033376	-0.028310	0.199233	-0.673427	-0.235866	-0.671692	110.635654	-87.028029	105.213471
49384		10.320165	-0.081518	0.860667	0.509834	1.085324	0.473971	1.185579	-0.005717	0.111445	-0.812256	0.177490	0.323486	0.103202	-0.000809	0.008605	0.203576	-0.672403	-0.239485	-0.670132	111.882692	-87.084166	104.644946
49385		11.722384	2.071372	1.727322	2.476168	-0.058686	1.958193	0.441495	-0.001322	0.140925	-0.817627	0.179688	0.311768	0.117209	0.020758	0.017320	0.205517	-0.672145	-0.240504	-0.669434	112.821021	-87.156270	103.958759
49386		10.255182	0.070461	0.245309	0.127335	0.570739	0.428984	-0.155109	-0.022330	0.339144	-0.812256	0.189209	0.323975	0.102550	0.000880	0.002464	0.206090	-0.672805	-0.238879	-0.669176	114.658997	-87.326705	102.029655
49387		10.109118	3.631363	0.796306	2.724032	-1.975403	0.419249	0.433729	-0.038801	0.261174	-0.809082	0.188965	0.311768	0.101042	0.036428	0.008062	0.208363	-0.672817	-0.239504	-0.668237	116.834634	-87.449387	100.100562
49388		11.257571	5.337709	2.003212	4.717963	-2.584066	1.602225	-0.506532	-0.015460	0.143971	-0.811035	0.193848	0.324707	0.112536	0.053509	0.019905	0.207108	-0.673585	-0.237354	-0.668620	117.644948	-87.516193	98.998940
49389		11.505906	2.345144	0.557061	1.765645	-1.074599	1.759844	-1.107745	0.014355	0.191785	-0.810059	0.193848	0.319580	0.115037	0.023592	0.005432	0.204019	-0.674920	-0.233000	-0.669754	118.110440	-87.614505	97.897861
49390		9.950106	-1.724857	-0.275680	-1.283217	1.632727	0.073830	-0.722394	0.066111	0.301614	-0.812256	0.185547	0.323486	0.099526	-0.017108	-0.002728	0.202653	-0.675801	-0.229506	-0.670487	118.990515	-87.781870	96.602817
49391		8.939344	-4.189031	-1.358365	-3.579532	2.942772	-0.990445	0.155621	0.068536	0.279362	-0.814453	0.194580	0.320801	0.089447	-0.041755	-0.013647	0.204181	-0.675751	-0.229027	-0.670236	120.355856	-87.937650	95.325838
49392		9.788508	-3.378622	-1.555525	-3.277727	2.157002	-0.104281	1.278103	0.093668	0.153482	-0.807129	0.198730	0.322021	0.097904	-0.033611	-0.015816	0.209104	-0.674313	-0.232703	-0.668899	121.128527	-88.038018	95.285418
49393		10.095836	-1.719013	-0.676734	-1.605846	1.303481	0.240217	1.700500	0.111498	0.123997	-0.812012	0.205811	0.316406	0.100965	-0.017069	-0.006969	0.215361	-0.672302	-0.237860	-0.667123	121.656932	-88.129224	95.731595
49394		9.676351	0.652786	-0.930652	-0.367761	-0.776767	-0.107773	1.649310	0.097690	0.056803	-0.811035	0.213135	0.304443	0.096757	0.006632	-0.009299	0.221190	-0.670263	-0.243069	-0.665387	121.732731	-88.183634	96.601207
49395		9.849689	3.414043	-0.182184	1.953237	-2.470919	0.126356	1.276133	0.102453	0.027388	-0.808105	0.212646	0.314453	0.098491	0.034165	-0.001654	0.225665	-0.668550	-0.247117	-0.664115	121.212348	-88.224963	97.853386
49396		9.504623	3.285394	0.036539	2.066700	-2.237248	-0.228510	0.565562	0.091943	0.149512	-0.812744	0.217529	0.304688	0.095022	0.032924	0.000415	0.228151	-0.667807	-0.248403	-0.663533	121.611017	-88.322851	97.778703
49397		9.471646	0.649757	0.023426	0.398070	-0.226542	-0.329810	0.126345	0.113627	0.300372	-0.802734	0.210205	0.302979	0.094707	0.006640	0.000185	0.229697	-0.667677	-0.247703	-0.663393	123.113671	-88.500246	96.347970
49398		9.525991	-2.210498	-0.291280	-1.653460	1.750348	-0.330184	0.220975	0.132916	0.343479	-0.805176	0.223877	0.298096	0.095296	-0.021938	-0.003000	0.231725	-0.667425	-0.247149	-0.663148	125.291461	-88.703052	94.296159
49399		9.902814	-3.039902	-0.278765	-2.170698	2.369835	0.039027	0.579822	0.087053	0.242351	-0.803711	0.226807	0.297363	0.099064	-0.030271	-0.002919	0.234556	-0.666779	-0.248174	-0.662419	127.716584	-88.841378	92.202826
49400		9.927782	-2.165696	-0.398581	-1.706517	1.591577	0.085018	0.877115	0.041648	0.136043	-0.810059	0.235840	0.298340	0.099292	-0.021572	-0.004101	0.237967	-0.665794	-0.250587	-0.661284	129.874930	-88.914103	90.546689
49401		9.691728	-0.273751	-0.534652	-0.583414	0.039798	-0.119988	1.043864	0.001441	0.068873	-0.809082	0.236328	0.295654	0.096918	-0.002676	-0.005361	0.241655	-0.664643	-0.253817	-0.659871	131.936675	-88.941387	89.082775
49402		9.689966	1.163471	-0.441867	0.441473	-0.988698	-0.103316	0.932058	-0.017429	0.072431	-0.812256	0.246094	0.293945	0.096896	0.011690	-0.004356	0.244953	-0.663678	-0.256682	-0.658516	134.528579	-88.961641	87.024534
49403		9.849217	1.870332	-0.401376	0.959455	-1.486676	0.063320	0.735914	-0.020064	0.093118	-0.805420	0.245361	0.293457	0.098484	0.018764	-0.003935	0.247661	-0.662977	-0.258832	-0.657367	137.648428	-88.987087	84.325913
49404		9.971385	1.515893	-0.396959	0.744377	-1.220300	0.179348	0.466671	-0.005444	0.142920	-0.806641	0.246582	0.296387	0.099703	0.015239	-0.003931	0.249656	-0.662618	-0.259912	-0.656548	141.742041	-89.034358	80.499089
49405		9.863290	0.216465	-0.571076	-0.243188	-0.387089	0.058912	0.305254	0.002606	0.177016	-0.805664	0.250977	0.287598	0.098631	0.002261	-0.005709	0.251238	-0.662476	-0.260337	-0.655918	146.987251	-89.091158	75.428152
49406		9.822496	-0.911489	-0.125023	-0.662630	0.730155	0.003403	0.365203	0.013361	0.206161	-0.798340	0.245117	0.287109	0.098234	-0.009011	-0.001273	0.253127	-0.662259	-0.260848	-0.655208	153.712803	-89.152762	68.911059
49407		9.586143	-1.516248	0.615781	-0.519595	1.655924	-0.243976	0.541226	-0.007044	0.215310	-0.809814	0.253174	0.287842	0.095877	-0.015076	0.006120	0.255601	-0.661894	-0.261930	-0.654185	162.080787	-89.191757	60.852385
49408		9.737238	-1.721030	1.214962	-0.214356	2.201044	-0.098712	0.744505	-0.065072	0.210739	-0.797852	0.259277	0.285400	0.097387	-0.017153	0.012117	0.258653	-0.661445	-0.263762	-0.652701	171.378467	-89.179444	51.980359
49409		9.870728	-1.171435	1.511346	0.383476	2.000418	0.033071	1.027943	-0.147867	0.186475	-0.794434	0.262939	0.284180	0.098707	-0.011700	0.015126	0.262449	-0.660853	-0.266701	-0.650587	179.473932	-89.099627	44.473008
49410		9.781722	0.035190	1.401442	1.152871	1.062248	-0.056160	1.096849	-0.247407	0.188810	-0.798828	0.264648	0.282471	0.097799	0.000367	0.014137	0.266339	-0.660478	-0.269979	-0.648030	-174.012037	-88.949150	38.586555
49411		9.854323	0.812437	0.995668	1.439482	0.242658	0.017264	0.949303	-0.337975	0.221999	-0.800293	0.271484	0.284668	0.098517	0.008186	0.010162	0.269720	-0.660618	-0.272781	-0.645310	-168.749857	-88.735024	33.867274
49412		9.921390	0.814985	0.402823	1.068333	-0.159606	0.091524	0.749269	-0.408133	0.271899	-0.797852	0.270996	0.286621	0.099194	0.008269	0.004261	0.272499	-0.661307	-0.274862	-0.642548	-164.407958	-88.467989	29.953498
49413		9.941790	0.504606	-0.279004	0.422015	-0.414193	0.128226	0.558291	-0.430969	0.291917	-0.791748	0.282227	0.285400	0.099416	0.005199	-0.002561	0.274675	-0.662345	-0.276289	-0.639935	-161.188936	-88.179416	27.053060
49414		9.649049	-0.088575	-1.008804	-0.466539	-0.518682	-0.135769	0.389066	-0.437703	0.289602	-0.788574	0.280273	0.294678	0.096513	-0.000727	-0.009878	0.276269	-0.663625	-0.277189	-0.637529	-158.974101	-87.884016	25.059952
49415		9.537448	0.223267	-1.431573	-0.485817	-1.031610	-0.233455	0.295153	-0.451686	0.282650	-0.782959	0.286621	0.292969	0.095403	0.002388	-0.014097	0.277509	-0.665064	-0.277828	-0.635209	-157.485769	-87.580612	23.739654
49416		9.828118	0.906772	-1.168712	0.252719	-1.297720	0.037787	0.093221	-0.440555	0.273842	-0.784424	0.284668	0.297852	0.098294	0.009208	-0.011466	0.278061	-0.666729	-0.277838	-0.633214	-156.464642	-87.283998	22.770947
49417		10.146920	0.811703	-1.260766	0.184911	-1.280851	0.362448	-0.204253	-0.424072	0.309387	-0.795410	0.285400	0.303711	0.101483	0.008261	-0.012401	0.277756	-0.668801	-0.276762	-0.631633	-155.375113	-86.986914	21.562870
49418		9.864386	0.219264	-1.535000	-0.397873	-1.063379	0.108056	-0.361651	-0.395805	0.318393	-0.783447	0.290039	0.295654	0.098670	0.002322	-0.015159	0.276989	-0.671008	-0.275118	-0.630346	-154.376252	-86.701280	20.354947
49419		9.383495	-0.005454	-1.378011	-0.432949	-0.794943	-0.371851	-0.416553	-0.356181	0.318842	-0.786377	0.283936	0.309082	0.093859	0.000067	-0.013613	0.276091	-0.673160	-0.273242	-0.629260	-153.417832	-86.434782	19.155732
49420		9.252619	0.133381	-1.187034	-0.169188	-0.751685	-0.515159	-0.434077	-0.315326	0.308567	-0.780762	0.296143	0.309082	0.092543	0.001451	-0.011728	0.275154	-0.675187	-0.271285	-0.628344	-152.534825	-86.190739	18.021649
49421		9.481255	0.272894	-0.772735	0.270794	-0.546971	-0.315679	-0.494503	-0.278989	0.305519	-0.781494	0.289795	0.309570	0.094819	0.002855	-0.007602	0.274051	-0.677173	-0.269098	-0.627630	-151.689679	-85.964782	16.890567
49422		9.599196	0.204710	-0.417135	0.514648	-0.245567	-0.219189	-0.508350	-0.224928	0.289499	-0.778320	0.293701	0.327393	0.095993	0.002176	-0.004069	0.272921	-0.678979	-0.266843	-0.627134	-150.860438	-85.769355	15.767120
49423		9.469092	0.014949	-0.463872	0.370142	-0.150264	-0.340652	-0.432146	-0.188064	0.276735	-0.771240	0.294189	0.321533	0.094695	0.000271	-0.004550	0.272056	-0.680542	-0.264819	-0.626673	-150.020907	-85.594703	14.676945
49424		9.347445	-0.390824	-0.261114	0.250049	0.273460	-0.460774	-0.276024	-0.163361	0.278178	-0.772461	0.288574	0.327148	0.093482	-0.003782	-0.002530	0.271758	-0.681814	-0.263243	-0.626083	-149.066487	-85.430616	13.560931
49425		9.698152	-0.878878	-0.045786	0.118354	0.772351	-0.106088	-0.087552	-0.144437	0.266688	-0.764893	0.293457	0.325684	0.096993	-0.008660	-0.000384	0.272090	-0.682753	-0.262271	-0.625324	-148.077221	-85.277724	12.518124
49426		9.658103	-1.176452	0.048499	0.000745	1.041291	-0.138960	0.136268	-0.109892	0.249139	-0.762939	0.299072	0.323975	0.096595	-0.011645	0.000530	0.273176	-0.683254	-0.262010	-0.624411	-146.997331	-85.145463	11.512778
49427		9.433866	-1.704866	0.402707	-0.114392	1.650140	-0.361207	0.288122	-0.077126	0.265382	-0.763916	0.303223	0.324463	0.094360	-0.016929	0.004039	0.274874	-0.683465	-0.262122	-0.623387	-145.678634	-85.021917	10.354925
49428		9.165434	-1.673256	0.045685	-0.351333	1.357100	-0.601723	0.445625	-0.056246	0.237135	-0.776855	0.303711	0.316162	0.091674	-0.016625	0.000446	0.277048	-0.683354	-0.262791	-0.622264	-144.400458	-84.915257	9.328095
49429		9.500902	-1.474263	-0.137008	-0.297031	1.076475	-0.262175	0.497693	-0.056933	0.200920	-0.757813	0.314453	0.322021	0.095024	-0.014644	-0.001380	0.279284	-0.683121	-0.263745	-0.621116	-143.326546	-84.818670	8.536145
49430		9.812379	-1.446720	-1.477386	-1.173623	0.095400	0.145822	0.582425	-0.099634	0.162403	-0.770508	0.302734	0.322021	0.098143	-0.014345	-0.014767	0.281631	-0.682845	-0.265152	-0.619758	-142.589257	-84.714763	8.130849
49431		10.363359	-0.114221	-1.695020	-0.305331	-0.999303	0.636880	0.815335	-0.101850	0.109206	-0.764648	0.312500	0.311768	0.103643	-0.001017	-0.016902	0.284603	-0.682169	-0.267461	-0.618152	-142.005286	-84.628030	8.013490
49432		10.063793	0.126013	-1.963466	-0.320210	-1.372169	0.344357	0.608886	-0.115946	0.133128	-0.760254	0.318604	0.310303	0.100648	0.001387	-0.019572	0.286921	-0.681853	-0.269066	-0.616730	-141.489938	-84.526411	7.846237
49433		9.952126	-0.079883	-2.290085	-0.676094	-1.477326	0.269773	0.493965	-0.102893	0.165471	-0.760986	0.321045	0.313965	0.099534	-0.000660	-0.022851	0.288962	-0.681699	-0.270187	-0.615456	-140.856697	-84.418786	7.494379
49434		10.042119	-0.335837	-2.055493	-0.666333	-1.142049	0.357546	0.350816	-0.081622	0.198405	-0.756348	0.322510	0.310303	0.100433	-0.003223	-0.020520	0.290644	-0.681727	-0.270722	-0.614397	-140.099285	-84.308210	6.935244
49435		9.805298	-1.392139	-2.084783	-1.455030	-0.458009	0.192377	0.209923	-0.024842	0.208243	-0.765869	0.331543	0.313232	0.098070	-0.013797	-0.020850	0.291952	-0.681797	-0.270708	-0.613705	-139.196620	-84.217904	6.148952
49436		9.654237	-1.787895	-2.277096	-1.872905	-0.347979	0.084642	0.232602	0.021620	0.182725	-0.754883	0.322754	0.321533	0.096556	-0.017764	-0.022802	0.293321	-0.681655	-0.270782	-0.613178	-138.240512	-84.156073	5.321839
49437		9.731190	-1.467621	-2.460105	-1.745262	-0.718227	0.154271	0.237512	0.053891	0.124216	-0.759277	0.321533	0.316406	0.097314	-0.014587	-0.024645	0.294570	-0.681326	-0.271022	-0.612837	-137.419265	-84.129014	4.633127
49438		9.907802	-0.500064	-2.296703	-0.906501	-1.270238	0.249826	0.183982	0.097187	0.053032	-0.754883	0.324463	0.308105	0.099068	-0.004953	-0.023020	0.295477	-0.680846	-0.271277	-0.612822	-136.758360	-84.147132	4.074693
49439		9.944764	0.210078	-1.913371	-0.128133	-1.481557	0.206894	-0.034083	0.121211	0.026755	-0.761475	0.332031	0.314941	0.099436	0.002111	-0.019194	0.295594	-0.680579	-0.270918	-0.613221	-136.233152	-84.184814	3.527194
49440		9.853376	-0.246531	-1.751991	-0.370521	-1.063501	0.134721	-0.244850	0.149137	0.042440	-0.765137	0.329590	0.307129	0.098521	-0.002466	-0.017590	0.295079	-0.680558	-0.269817	-0.613978	-135.646899	-84.227396	2.796899
49441		10.128763	-0.974649	-1.548462	-0.745540	-0.428062	0.444039	-0.304014	0.173846	0.060502	-0.762207	0.337891	0.308594	0.101277	-0.009739	-0.015558	0.294451	-0.680571	-0.268437	-0.614868	-134.913862	-84.271703	1.885192
49442		9.831650	-1.867812	-1.411822	-1.341233	0.268987	0.200905	-0.237695	0.202348	0.048984	-0.764893	0.328369	0.305176	0.098307	-0.018671	-0.014195	0.294050	-0.680381	-0.267256	-0.615784	-134.056378	-84.331089	0.886561
49443		9.584400	-2.308188	-1.380608	-1.675238	0.579954	-0.017191	-0.061835	0.218623	0.010650	-0.758545	0.329590	0.297607	0.095830	-0.023081	-0.013904	0.294151	-0.679831	-0.266724	-0.616574	-133.163606	-84.411057	-0.046028
49444		9.509868	-1.648389	-0.807621	-0.828583	0.530821	-0.177405	0.155738	0.226109	-0.024983	-0.755371	0.321533	0.303223	0.095087	-0.016489	-0.008197	0.294892	-0.678888	-0.266971	-0.617152	-132.226667	-84.507697	-0.897738
49445		9.554031	-1.311033	-0.190354	-0.176989	0.735328	-0.196946	0.105173	0.235413	-0.037463	-0.764893	0.331055	0.300293	0.095536	-0.013127	-0.002023	0.295434	-0.677975	-0.267090	-0.617844	-131.296475	-84.611597	-1.771511
49446		9.598254	-1.741562	0.144222	-0.276476	1.258497	-0.142112	0.115357	0.229908	-0.019986	-0.770264	0.332520	0.299561	0.095982	-0.017426	0.001322	0.296056	-0.677084	-0.267190	-0.618480	-130.279395	-84.704702	-2.726668
49447		9.726990	-1.767127	0.580564	-0.004895	1.577983	-0.035979	0.254181	0.223490	-0.002884	-0.765869	0.333496	0.294434	0.097276	-0.017680	0.005674	0.297193	-0.676031	-0.267669	-0.618880	-129.111919	-84.785931	-3.752753
49448		9.645052	-1.619462	0.679884	0.145282	1.535001	-0.131026	0.304926	0.179112	-0.001357	-0.772705	0.330811	0.294189	0.096456	-0.016206	0.006688	0.298445	-0.675038	-0.268366	-0.619059	-128.095745	-84.849077	-4.597695
49449		9.627906	-1.117445	0.454163	0.344574	1.016413	-0.169054	0.383347	0.128548	0.002725	-0.770996	0.331787	0.289063	0.096282	-0.011182	0.004458	0.299906	-0.674089	-0.269365	-0.618953	-127.255097	-84.891147	-5.221173
49450		9.467194	-0.297872	0.220690	0.765927	0.283953	-0.373518	0.420247	0.084917	0.002904	-0.759277	0.337158	0.290283	0.094673	-0.002982	0.002160	0.301432	-0.673215	-0.270543	-0.618649	-126.605474	-84.917657	-5.631657
49451		9.596108	0.137875	-0.273644	0.762592	-0.381518	-0.249629	0.373893	0.073594	0.001109	-0.765625	0.326660	0.286133	0.095960	0.001384	-0.002769	0.302780	-0.672443	-0.271599	-0.618368	-126.043728	-84.940512	-5.980536
49452		9.599143	-0.139718	-0.926786	0.121022	-0.687332	-0.193180	0.300321	0.045640	0.037690	-0.770020	0.337646	0.290283	0.095990	-0.001365	-0.009292	0.303954	-0.671915	-0.272346	-0.618037	-125.528666	-84.936961	-6.324893
49453		9.778508	-0.198558	-0.962244	0.071937	-0.683538	-0.009006	0.280337	0.035932	0.046218	-0.764404	0.338135	0.297363	0.097784	-0.001949	-0.009643	0.305074	-0.671458	-0.273017	-0.617685	-125.046192	-84.925710	-6.647989
49454		9.976239	-0.064504	-0.960009	0.194191	-0.779556	0.177593	0.194230	0.018120	0.055855	-0.771484	0.335205	0.281006	0.099762	-0.000608	-0.009610	0.305909	-0.671199	-0.273417	-0.617377	-124.672765	-84.904116	-6.911190
49455		9.631827	-0.061900	-0.918320	0.198176	-0.751244	-0.168229	0.079004	0.001285	0.060401	-0.769531	0.342041	0.293701	0.096318	-0.000586	-0.009184	0.306349	-0.671175	-0.273471	-0.617161	-124.441466	-84.874558	-7.097926
49456		9.544193	0.324235	-0.524335	0.743127	-0.714584	-0.304333	-0.039781	-0.000947	0.056620	-0.767090	0.332764	0.285645	0.095441	0.003268	-0.005244	0.306375	-0.671334	-0.273175	-0.617107	-124.304461	-84.846237	-7.258392
49457		9.634009	-0.255139	-0.604220	0.270390	-0.394306	-0.168221	-0.184391	0.014270	0.059726	-0.764648	0.340088	0.287598	0.096340	-0.002528	-0.006047	0.305946	-0.671672	-0.272399	-0.617295	-124.162586	-84.821112	-7.506868
49458		9.598429	-1.075418	-1.243308	-0.763135	-0.328073	-0.109998	-0.184058	0.005836	0.048655	-0.771973	0.334473	0.283203	0.095987	-0.010742	-0.012426	0.305473	-0.672018	-0.271674	-0.617472	-124.103892	-84.798689	-7.671718
49459		9.900866	-0.595546	-1.029076	-0.235323	-0.490528	0.144462	-0.117774	-0.007202	0.011728	-0.771729	0.331299	0.280273	0.099009	-0.005956	-0.010284	0.305090	-0.672255	-0.271297	-0.617569	-124.207477	-84.789378	-7.635396
49460		9.777331	-0.276513	-0.792577	0.147670	-0.523477	-0.014473	-0.193685	-0.001501	-0.003054	-0.770508	0.338379	0.282959	0.097773	-0.002774	-0.007922	0.304414	-0.672567	-0.270727	-0.617813	-124.375391	-84.789106	-7.578243
49461		9.701797	-0.447873	-0.260821	0.367463	-0.010931	-0.104014	-0.255433	0.020014	-0.004854	-0.770752	0.338623	0.296875	0.097018	-0.004484	-0.002612	0.303553	-0.672906	-0.269939	-0.618212	-124.475358	-84.796435	-7.624741
49462		9.666702	-1.338694	-0.352469	-0.354196	0.518537	-0.067579	-0.313861	0.034438	0.033633	-0.771973	0.335693	0.288574	0.096669	-0.013376	-0.003520	0.302633	-0.673337	-0.268818	-0.618682	-124.395347	-84.790457	-7.885681
49463		9.476467	-2.119334	-0.450331	-1.009619	0.972624	-0.193307	-0.192048	0.045033	0.033379	-0.766357	0.339355	0.294678	0.094767	-0.021182	-0.004504	0.302137	-0.673551	-0.268059	-0.619020	-124.193555	-84.787755	-8.198730
49464		9.606897	-2.097261	-0.773761	-1.199072	0.716607	-0.048550	-0.122846	0.045868	-0.005452	-0.772461	0.341797	0.290527	0.096067	-0.020980	-0.007747	0.301754	-0.673605	-0.267643	-0.619329	-124.082794	-84.803864	-8.380650
49465		9.810755	-0.903432	-0.926268	-0.411475	-0.203350	0.072372	-0.077757	0.056098	-0.054529	-0.773438	0.331055	0.287109	0.098102	-0.009065	-0.009287	0.301386	-0.673494	-0.267516	-0.619684	-124.066794	-84.846283	-8.441399
49466		9.892480	0.249511	-1.053432	0.346465	-1.075551	0.074490	-0.241529	0.074353	-0.070496	-0.767090	0.331787	0.289795	0.098922	0.002447	-0.010574	0.300439	-0.673550	-0.266908	-0.620344	-124.103224	-84.902389	-8.543787
49467		9.865525	0.493081	-1.068615	0.498631	-1.251285	0.031056	-0.463410	0.096569	-0.052427	-0.769287	0.329346	0.286865	0.098651	0.004880	-0.010745	0.298831	-0.673893	-0.265516	-0.621344	-124.083324	-84.956815	-8.830256
49468		10.003967	0.096723	-1.168322	0.138564	-1.059128	0.202936	-0.584547	0.135696	-0.016370	-0.769043	0.329834	0.285889	0.100032	0.000925	-0.011754	0.296976	-0.674338	-0.263566	-0.622581	-123.783152	-85.006786	-9.467816
49469		9.923911	-1.114759	-1.267975	-0.827270	-0.304632	0.215138	-0.545305	0.152080	0.027861	-0.767822	0.332031	0.293701	0.099231	-0.011168	-0.012725	0.295410	-0.674727	-0.261564	-0.623747	-123.202553	-85.040154	-10.364134
49470		9.624489	-1.833170	-1.191632	-1.326824	0.246854	-0.035680	-0.372347	0.155467	0.016963	-0.777344	0.331543	0.292236	0.096237	-0.018346	-0.011957	0.294396	-0.674830	-0.260130	-0.624714	-122.530097	-85.079185	-11.253255
49471		9.769219	-1.939814	-1.101114	-1.337964	0.380560	0.110921	-0.265121	0.154405	-0.028575	-0.778809	0.330566	0.293457	0.097681	-0.019427	-0.011061	0.293600	-0.674719	-0.259186	-0.625600	-121.953513	-85.138871	-11.984309
49472		9.808933	-1.812598	-1.091719	-1.249275	0.294685	0.139447	-0.118238	0.160725	-0.050442	-0.776367	0.330078	0.287354	0.098076	-0.018157	-0.010985	0.293238	-0.674342	-0.258765	-0.626351	-121.314066	-85.210709	-12.694039
49473		9.647915	-0.748790	-1.143100	-0.550549	-0.482067	-0.095995	-0.066839	0.151007	-0.076879	-0.777100	0.324951	0.287354	0.096468	-0.007529	-0.011501	0.292954	-0.673887	-0.258609	-0.627038	-120.779019	-85.291743	-13.269268
49474		9.593669	0.093492	-1.169696	0.013155	-1.087493	-0.208909	-0.249954	0.136209	-0.093825	-0.774902	0.322510	0.291748	0.095929	0.000875	-0.011763	0.291980	-0.673721	-0.257956	-0.627938	-120.478701	-85.376753	-13.714297
49475		9.725678	1.132608	-1.381541	0.597784	-1.963196	-0.139594	-0.589773	0.067930	-0.129856	-0.772461	0.316650	0.290771	0.097259	0.011222	-0.013882	0.289659	-0.674218	-0.256457	-0.629093	-120.920659	-85.459295	-13.609814
49476		10.041746	2.716370	-0.446135	2.375438	-2.412027	0.033820	-0.778752	0.042171	-0.122607	-0.780762	0.315918	0.294922	0.100433	0.027084	-0.004588	0.286687	-0.675068	-0.254372	-0.630387	-121.612625	-85.530834	-13.363301
49477		9.704549	1.270448	0.136428	1.720088	-0.981667	-0.226837	-1.096082	0.056941	-0.031940	-0.775146	0.327148	0.297607	0.097048	0.012696	0.001267	0.282941	-0.676429	-0.250956	-0.631989	-122.058281	-85.562287	-13.546044
49478		9.473127	-1.207344	0.250745	0.056551	0.866069	-0.299150	-1.074084	0.029027	0.068164	-0.778809	0.309814	0.302002	0.094736	-0.012028	0.002558	0.279543	-0.677950	-0.247301	-0.633310	-122.271142	-85.536976	-13.949827
49479		9.404399	-3.183898	0.016277	-1.460589	2.138507	-0.227616	-0.896816	0.014457	0.074546	-0.779053	0.317139	0.303711	0.094056	-0.031803	0.000299	0.276741	-0.679262	-0.244202	-0.634336	-122.452926	-85.504029	-14.282732
49480		9.620160	-3.547529	-0.462022	-2.018993	2.087662	0.031660	-0.617981	-0.033849	0.003963	-0.778564	0.309326	0.303467	0.096203	-0.035487	-0.004494	0.274599	-0.680244	-0.242289	-0.634948	-123.043342	-85.490489	-14.045684
49481		9.811172	-2.322908	-0.353181	-1.082058	1.280248	0.135670	-0.415882	-0.066025	-0.059677	-0.776611	0.307373	0.306641	0.098106	-0.023266	-0.003451	0.272902	-0.680971	-0.241277	-0.635286	-123.969057	-85.496666	-13.356009
49482		9.839954	-0.806042	-0.233033	0.037001	0.261654	0.059438	-0.393336	-0.059881	-0.072763	-0.787842	0.304932	0.305176	0.098397	-0.008101	-0.002285	0.271246	-0.681626	-0.240370	-0.635636	-124.898460	-85.510409	-12.649821
49483		9.712255	-0.292792	-0.154824	0.430756	-0.051712	-0.104476	-0.462923	-0.030345	-0.048056	-0.780029	0.309082	0.308838	0.097122	-0.002955	-0.001527	0.269466	-0.682311	-0.239118	-0.636131	-125.594471	-85.521276	-12.217635
49484		9.641187	-0.787363	-0.171801	0.082244	0.310367	-0.143207	-0.488310	0.005592	-0.020475	-0.780518	0.302246	0.311523	0.096411	-0.007888	-0.001701	0.267728	-0.682942	-0.237641	-0.636740	-125.972968	-85.531342	-12.118640
49485		9.639874	-1.642926	-0.018364	-0.372119	1.054078	-0.097897	-0.421781	0.033231	-0.024823	-0.786377	0.302246	0.308594	0.096397	-0.016442	-0.000165	0.266235	-0.683390	-0.236352	-0.637365	-126.171670	-85.552418	-12.161645
49486		9.581026	-2.403148	0.047080	-0.829934	1.671013	-0.112567	-0.314590	0.038708	-0.028233	-0.781006	0.302734	0.308594	0.095807	-0.024044	0.000490	0.265103	-0.683669	-0.235408	-0.637887	-126.289049	-85.577224	-12.224724
49487		9.574578	-2.541740	0.085171	-0.894313	1.805178	-0.113111	-0.155358	0.037741	-0.061809	-0.778809	0.302979	0.312012	0.095738	-0.025446	0.000853	0.264407	-0.683702	-0.235088	-0.638259	-126.471681	-85.616886	-12.130762
49488		9.492063	-2.243502	-0.069318	-0.824516	1.486647	-0.208136	-0.030751	0.017310	-0.095995	-0.774658	0.299072	0.321289	0.094910	-0.022481	-0.000698	0.264003	-0.683592	-0.235309	-0.638462	-126.860990	-85.665549	-11.758016
49489		9.699474	-1.457937	0.069896	-0.195167	0.994193	-0.056472	0.034140	0.011577	-0.126488	-0.788086	0.303223	0.315430	0.096986	-0.014641	0.000691	0.263718	-0.683382	-0.235848	-0.638607	-127.399415	-85.725564	-11.198471
49490		9.845171	-1.179928	-0.221169	-0.228512	0.599782	0.084614	0.065276	0.013379	-0.130750	-0.787109	0.302734	0.312256	0.098444	-0.011863	-0.002222	0.263526	-0.683117	-0.236499	-0.638728	-127.943376	-85.788108	-10.615534
49491		9.632385	-0.852857	-0.385970	-0.160057	0.257776	-0.139679	0.106538	-0.010565	-0.132667	-0.781006	0.300781	0.314941	0.096318	-0.008590	-0.003859	0.263442	-0.682873	-0.237320	-0.638719	-128.638470	-85.842171	-9.857374
49492		9.786578	-0.029162	-0.255213	0.484755	-0.263008	-0.038286	0.082009	-0.012480	-0.150590	-0.787109	0.296631	0.305176	0.097866	-0.000364	-0.002546	0.263213	-0.682644	-0.238126	-0.638759	-129.468650	-85.903151	-8.977948
49493		9.693686	0.132147	-0.372129	0.489836	-0.447920	-0.133694	-0.005577	-0.022355	-0.143822	-0.785400	0.296143	0.312744	0.096938	0.001252	-0.003710	0.262696	-0.682571	-0.238641	-0.638857	-130.401243	-85.956176	-8.046206
49494		9.545679	0.130390	-0.465490	0.401702	-0.495303	-0.276076	-0.052874	-0.020151	-0.129480	-0.792480	0.293213	0.308350	0.095458	0.001241	-0.004646	0.262065	-0.682568	-0.238954	-0.639002	-131.293592	-86.003120	-7.182048
49495		9.609763	-0.374140	-0.811822	-0.192319	-0.336478	-0.169225	-0.102493	-0.024871	-0.121115	-0.786133	0.298096	0.315186	0.096096	-0.003804	-0.008104	0.261286	-0.682657	-0.239086	-0.639176	-132.218480	-86.043372	-6.313796
49496		9.806399	-0.719443	-1.006846	-0.558909	-0.196269	0.053714	-0.139051	-0.019495	-0.125273	-0.794922	0.291260	0.309326	0.098060	-0.007263	-0.010054	0.260375	-0.682769	-0.239108	-0.639420	-133.172760	-86.086821	-5.437142
49497		10.031304	-0.753472	-1.031294	-0.591395	-0.175099	0.280772	-0.160221	-0.015964	-0.135202	-0.789795	0.289063	0.310547	0.100309	-0.007611	-0.010299	0.259364	-0.682887	-0.239092	-0.639712	-134.197538	-86.134371	-4.501993
49498		9.900640	-0.444977	-0.597060	-0.078987	-0.105418	0.115041	-0.168146	-0.026034	-0.145212	-0.789307	0.288574	0.317627	0.099004	-0.004527	-0.005954	0.258282	-0.683032	-0.239097	-0.639992	-135.372052	-86.181067	-3.421413
49499		9.761678	-0.293425	-0.064079	0.403780	0.146098	-0.055835	-0.213790	-0.012865	-0.155483	-0.795898	0.292725	0.318848	0.097615	-0.003011	-0.000631	0.257026	-0.683183	-0.238973	-0.640383	-136.587183	-86.235384	-2.326395
49500		9.460720	-0.753494	0.182114	0.260159	0.668872	-0.347432	-0.280037	-0.014391	-0.155966	-0.794434	0.282959	0.318115	0.094601	-0.007606	0.001839	0.255540	-0.683420	-0.238641	-0.640849	-137.885351	-86.288022	-1.186274
49501		9.398276	-1.251312	0.211403	-0.053231	1.079093	-0.390863	-0.343625	-0.015119	-0.174867	-0.790039	0.282471	0.319824	0.093972	-0.012592	0.002143	0.253766	-0.683721	-0.238161	-0.641411	-139.388196	-86.345302	0.120964
49502		9.705041	-1.977442	0.053360	-0.631549	1.545392	-0.049808	-0.466557	-0.008477	-0.207923	-0.790039	0.276611	0.323242	0.097030	-0.019874	0.000584	0.251481	-0.684108	-0.237399	-0.642180	-141.201235	-86.415528	1.669752
49503		9.874344	-2.261390	-0.073525	-0.907569	1.702599	0.132130	-0.469564	0.011629	-0.229722	-0.796875	0.280762	0.324463	0.098717	-0.022729	-0.000688	0.249128	-0.684410	-0.236664	-0.643046	-143.131182	-86.498897	3.332065
49504		9.579268	-2.354964	-0.327514	-1.187526	1.632951	-0.151492	-0.391197	0.009839	-0.227615	-0.801025	0.267090	0.326416	0.095766	-0.023665	-0.003234	0.247055	-0.684613	-0.236185	-0.643805	-145.094833	-86.577574	5.074733
49505		9.803851	-1.792878	-0.347125	-0.839351	1.214119	0.049957	-0.237184	-0.000566	-0.256479	-0.802002	0.273926	0.318115	0.098015	-0.018059	-0.003450	0.245394	-0.684628	-0.236301	-0.644381	-147.345934	-86.656161	7.191705
49506		10.183254	-1.172563	0.111637	-0.084222	1.055586	0.383617	-0.044559	0.020099	-0.251679	-0.808105	0.260254	0.327148	0.101818	-0.011854	0.001109	0.244441	-0.684339	-0.237007	-0.644792	-149.441955	-86.739001	9.265614
49507		9.921961	-0.624999	-0.033613	0.123748	0.557830	0.112560	0.162498	0.002251	-0.231590	-0.799316	0.271240	0.325195	0.099212	-0.006365	-0.000342	0.244232	-0.683882	-0.238323	-0.644871	-151.426650	-86.802576	11.345008
49508		9.888326	-0.411440	-0.267583	0.067376	0.263114	0.084083	0.126114	-0.069229	-0.230477	-0.795410	0.267334	0.322021	0.098879	-0.004227	-0.002644	0.243825	-0.683694	-0.239615	-0.644746	-153.833689	-86.825320	13.828119
49509		9.678361	0.280471	-0.796282	0.089760	-0.587449	-0.115770	0.283925	-0.106514	-0.220900	-0.802979	0.263916	0.325195	0.096791	0.002709	-0.007907	0.243936	-0.683449	-0.241418	-0.644291	-156.240933	-86.820159	16.400603
49510		9.647199	1.569573	-0.769324	0.938833	-1.531776	-0.174427	0.270018	-0.142181	-0.210627	-0.799805	0.262695	0.326172	0.096494	0.015604	-0.007604	0.243995	-0.683340	-0.243194	-0.643716	-158.682291	-86.788221	19.000689
49511		9.665398	2.118340	-0.748882	1.311655	-1.912748	-0.164422	0.015426	-0.139428	-0.170202	-0.806641	0.265381	0.320801	0.096677	0.021102	-0.007420	0.243308	-0.683587	-0.243996	-0.643410	-160.816546	-86.743620	21.145318
49512		9.595018	1.891810	-1.169124	0.840946	-1.993509	-0.203896	-0.195365	-0.131376	-0.126753	-0.805908	0.262939	0.334961	0.095970	0.018846	-0.011647	0.242059	-0.684110	-0.243973	-0.643334	-162.578365	-86.691853	22.797886
49513		9.664651	0.901808	-1.655164	-0.167939	-1.531554	-0.087235	-0.449625	-0.117689	-0.098153	-0.799805	0.260010	0.332275	0.096661	0.008933	-0.016515	0.240040	-0.684934	-0.243008	-0.643578	-164.123301	-86.639856	24.085964
49514		9.685651	-0.175785	-2.283476	-1.343561	-1.088112	-0.011268	-0.542547	-0.093059	-0.069361	-0.803467	0.253418	0.335938	0.096866	-0.001853	-0.022785	0.237832	-0.685816	-0.241624	-0.643980	-165.351848	-86.595671	25.005232
49515		9.759184	-0.497042	-2.449156	-1.676349	-0.922989	0.077964	-0.463938	-0.067388	-0.082899	-0.808105	0.254883	0.337646	0.097598	-0.005068	-0.024447	0.235868	-0.686507	-0.240494	-0.644388	-166.573974	-86.566092	25.961245
49516		10.014805	-0.114911	-1.851224	-0.965079	-0.813397	0.293921	-0.437456	-0.044954	-0.096576	-0.796875	0.251709	0.334961	0.100152	-0.001238	-0.018487	0.233988	-0.687069	-0.239482	-0.644853	-167.845193	-86.549940	26.983640
49517		10.245084	0.508652	-1.153255	-0.027081	-0.834941	0.475782	-0.555535	-0.039642	-0.101003	-0.801270	0.252930	0.344727	0.102456	0.005003	-0.011526	0.231684	-0.687747	-0.238086	-0.645478	-169.202314	-86.535438	28.022685
49518		10.131153	0.690975	-0.368013	0.684373	-0.477266	0.314355	-0.842474	-0.061018	-0.065955	-0.798584	0.253906	0.335938	0.101315	0.006861	-0.003678	0.228486	-0.688853	-0.235675	-0.646322	-170.424092	-86.504353	28.763101
49519		9.903325	0.345998	-0.122513	0.649466	-0.053463	0.075988	-1.045770	-0.100277	-0.021771	-0.807617	0.247803	0.342773	0.099034	0.003443	-0.001194	0.224674	-0.690360	-0.232487	-0.647205	-171.392643	-86.445761	29.132103
49520		9.932464	0.194648	0.240182	0.852386	0.294966	0.083566	-1.093795	-0.145295	0.008127	-0.802246	0.243164	0.341309	0.099323	0.001964	0.002463	0.220740	-0.692076	-0.229092	-0.647936	-172.158573	-86.359293	29.271585
49521		10.084423	0.531795	0.552255	1.326744	0.222403	0.210967	-1.091511	-0.193171	0.022310	-0.798340	0.237305	0.355225	0.100838	0.005360	0.005591	0.216795	-0.693943	-0.225697	-0.648462	-172.831350	-86.244125	29.318477
49522		10.173194	0.493639	0.633979	1.394786	0.305132	0.291812	-1.161428	-0.238292	0.073813	-0.805176	0.232178	0.358398	0.101722	0.005011	0.006432	0.212719	-0.696065	-0.221942	-0.648835	-173.139295	-86.100011	28.960148
49523		10.031334	-0.191697	0.179865	0.646136	0.593326	0.183670	-1.010793	-0.265038	0.125538	-0.804932	0.228516	0.356689	0.100312	-0.001844	0.001941	0.209289	-0.698153	-0.218507	-0.648872	-172.975353	-85.936747	28.213568
49524		10.051491	-0.543238	-0.215183	0.155406	0.659403	0.232950	-0.609479	-0.265510	0.154501	-0.805176	0.227539	0.364502	0.100522	-0.005361	-0.002002	0.207359	-0.699835	-0.216279	-0.648426	-172.399705	-85.771153	27.286262
49525		9.965906	-0.811688	-0.723702	-0.386756	0.593053	0.187337	-0.304104	-0.273504	0.152003	-0.803223	0.229492	0.369873	0.099675	-0.008052	-0.007088	0.206472	-0.701223	-0.215048	-0.647619	-171.735720	-85.600250	26.444305
49526		9.930903	-0.708733	-0.889934	-0.436367	0.417565	0.164901	0.100492	-0.250681	0.133359	-0.789551	0.221191	0.364258	0.099325	-0.007017	-0.008778	0.206974	-0.702092	-0.215177	-0.646473	-171.007558	-85.443379	25.771642
49527		10.225809	-0.202231	-0.413498	0.289968	0.284804	0.415402	0.489433	-0.210312	0.105184	-0.799072	0.227783	0.371094	0.102263	-0.001959	-0.004032	0.208783	-0.702400	-0.216607	-0.645078	-170.252546	-85.310969	25.293663
49528		10.506759	0.047425	-0.088956	0.741652	0.277688	0.664667	0.555816	-0.166269	0.102076	-0.799805	0.235352	0.374512	0.105068	0.000530	-0.000801	0.210871	-0.702482	-0.218226	-0.643763	-169.461275	-85.203532	24.819201
49529		9.774171	-0.509228	-0.963932	-0.324022	0.200046	0.014715	0.521943	-0.195191	0.120645	-0.795410	0.236816	0.367676	0.097754	-0.005008	-0.009557	0.212855	-0.702712	-0.219687	-0.642359	-168.632216	-85.076929	24.285276
49530		8.814475	-1.138551	-1.836707	-1.444921	0.165911	-0.854487	0.444460	-0.287239	0.155156	-0.796631	0.233887	0.384033	0.088180	-0.011276	-0.018266	0.214586	-0.703348	-0.220887	-0.640674	-167.787951	-84.894345	23.693378
49531		8.502539	-1.022846	-2.362650	-1.788677	-0.251320	-1.114481	0.394943	-0.436266	0.248358	-0.797852	0.246826	0.375977	0.085089	-0.010076	-0.023461	0.216262	-0.704617	-0.221743	-0.638416	-166.669906	-84.615448	22.795474
49532		8.473194	-0.786122	-2.673947	-1.847838	-0.627537	-1.108990	0.164546	-0.605604	0.355624	-0.791260	0.248291	0.383301	0.084826	-0.007689	-0.026489	0.217292	-0.706781	-0.221681	-0.635691	-165.425991	-84.226302	21.640346
49533		8.354006	-0.976214	-3.113993	-2.255173	-0.731132	-1.162919	-0.108267	-0.750621	0.466110	-0.785889	0.257813	0.387207	0.083679	-0.009584	-0.030821	0.217536	-0.709817	-0.220506	-0.632625	-164.131297	-83.737541	20.274551
49534		7.858611	-1.665652	-3.479163	-2.925673	-0.393216	-1.571213	-0.272854	-0.868000	0.538829	-0.781738	0.248779	0.397705	0.078781	-0.016492	-0.034427	0.217300	-0.713461	-0.218684	-0.629230	-162.952146	-83.169917	18.930291
49535		7.468935	-2.359747	-3.958646	-3.676823	-0.106977	-1.844436	-0.240977	-0.941899	0.549373	-0.786865	0.257568	0.402588	0.074939	-0.023439	-0.039206	0.217114	-0.717300	-0.216987	-0.625506	-162.005652	-82.556844	17.835505
49536		7.556823	-2.672920	-3.879119	-3.697644	0.218307	-1.714749	-0.164633	-0.971227	0.514648	-0.779053	0.259277	0.412842	0.075824	-0.026566	-0.038401	0.217064	-0.721082	-0.215690	-0.621613	-161.344181	-81.932765	17.072714
49537		7.892004	-2.525840	-3.929820	-3.520262	0.101313	-1.344877	0.056164	-0.940786	0.438499	-0.761719	0.266113	0.422607	0.079159	-0.025074	-0.038933	0.217590	-0.724432	-0.215302	-0.617655	-160.894900	-81.337731	16.649266
49538		8.460930	-1.213089	-3.282529	-2.073071	-0.551085	-0.911450	0.308338	-0.858287	0.311291	-0.766357	0.267578	0.420654	0.084768	-0.011949	-0.032480	0.218730	-0.727092	-0.216070	-0.613847	-160.689199	-80.811595	16.619848
49539		8.962457	-0.016306	-2.361009	-0.487613	-0.945425	-0.605721	0.205666	-0.730998	0.228101	-0.759033	0.274414	0.426758	0.089710	-0.000037	-0.023282	0.219366	-0.729376	-0.216670	-0.610691	-160.675000	-80.369293	16.723072
49540		9.076795	0.245916	-1.780811	0.208579	-0.795305	-0.596198	0.018202	-0.590078	0.210815	-0.761963	0.264648	0.435791	0.090817	0.002556	-0.017540	0.219423	-0.731400	-0.216616	-0.608264	-160.664677	-80.007212	16.723153
49541		9.179262	0.224095	-1.321996	0.626296	-0.490110	-0.570170	-0.102792	-0.434548	0.175578	-0.749756	0.271973	0.427246	0.091819	0.002315	-0.013022	0.219088	-0.733048	-0.216137	-0.606570	-160.664892	-79.735164	16.661529
49542		9.736231	0.866454	-0.497540	1.784919	-0.493221	-0.202109	-0.156494	-0.261735	0.137561	-0.754883	0.278320	0.436523	0.097363	0.008728	-0.004855	0.218636	-0.734178	-0.215457	-0.605607	-160.630908	-79.564489	16.535808
49543		10.356748	1.553432	0.197224	2.862856	-0.615291	0.244138	-0.273757	-0.083303	0.101583	-0.761475	0.277344	0.435059	0.103559	0.015590	0.001994	0.217833	-0.734861	-0.214352	-0.605460	-160.587220	-79.496391	16.330905
49544		10.711025	1.713423	0.698341	3.416030	-0.448342	0.496495	-0.405480	0.121294	0.044460	-0.757813	0.277344	0.437500	0.107111	0.017172	0.006884	0.216595	-0.734998	-0.212841	-0.606270	-160.575981	-79.550401	16.083185
49545		10.800867	2.291878	0.729100	3.766684	-0.920163	0.551107	-0.500889	0.313735	-0.011762	-0.765137	0.277100	0.441162	0.108021	0.022930	0.007064	0.215036	-0.734596	-0.211033	-0.607942	-160.582176	-79.718522	15.797031
49546		10.461241	1.700959	0.123090	2.852286	-0.828476	0.361982	-0.700339	0.294920	0.058979	-0.754639	0.268555	0.438477	0.104609	0.017044	0.001017	0.212941	-0.734527	-0.208382	-0.609675	-160.505605	-79.863531	15.311481
49547		9.895675	-0.762650	-0.410239	0.918102	0.846758	0.041976	-0.960575	0.152927	0.178202	-0.769775	0.272461	0.443359	0.098960	-0.007558	-0.004142	0.210096	-0.735282	-0.204639	-0.611018	-160.364198	-79.908350	14.607665
49548		10.565046	-1.607719	-0.625737	0.389253	1.442416	0.787520	-0.544142	0.101543	0.152744	-0.765137	0.259766	0.437500	0.105660	-0.016014	-0.006267	0.208653	-0.735714	-0.202321	-0.611764	-160.113897	-79.930463	14.036752
49549		10.328476	-3.092269	-0.515867	-0.373863	2.713374	0.627784	-0.289865	0.107739	0.199820	-0.760254	0.266113	0.440918	0.103313	-0.030827	-0.005170	0.208289	-0.735910	-0.200591	-0.612222	-159.566577	-79.945471	13.311025
49550		8.436426	-4.910951	-1.392427	-2.411589	3.644570	-0.973523	0.346848	0.100262	0.182285	-0.765869	0.260010	0.443604	0.084402	-0.049008	-0.014052	0.210212	-0.735441	-0.200890	-0.612031	-158.713822	-79.958951	12.646784
49551		8.746278	-2.283009	-0.051132	0.169036	2.191387	-1.044492	1.263688	0.107683	0.003249	-0.761719	0.280029	0.424072	0.087463	-0.022825	-0.000703	0.214952	-0.733795	-0.204628	-0.611121	-157.862874	-80.012126	12.516027
49552		11.060114	2.692290	-0.010613	3.387994	-1.790802	0.905944	1.588435	0.089771	-0.179404	-0.762695	0.283691	0.424072	0.110625	0.026824	0.000058	0.220305	-0.731624	-0.210049	-0.609977	-157.396006	-80.095858	12.966001
49553		12.124505	3.078466	0.216015	3.979328	-1.899961	1.895526	0.589063	0.001992	-0.189214	-0.763672	0.284668	0.426758	0.121274	0.030663	0.002249	0.221872	-0.730786	-0.212545	-0.609548	-157.643033	-80.135030	13.559215
49554		10.252750	0.351784	-1.564434	0.667486	-0.786223	0.513319	0.521860	-0.007869	-0.060788	-0.765869	0.283691	0.424316	0.102529	0.003527	-0.015631	0.223572	-0.730182	-0.214379	-0.609009	-157.552068	-80.141183	13.770345
49555		9.983819	-0.611921	-2.320776	-0.536647	-0.473044	0.430617	0.856753	0.029247	0.007516	-0.769043	0.289063	0.423584	0.099835	-0.006016	-0.023248	0.226737	-0.729157	-0.216933	-0.608162	-157.013913	-80.151707	13.721529
49556		9.790748	-1.283953	-3.203103	-1.657103	-0.497953	0.423183	1.127035	0.085007	0.016938	-0.754883	0.289551	0.418945	0.097895	-0.012650	-0.032144	0.230974	-0.727645	-0.220211	-0.607200	-156.218445	-80.189647	13.569545
49557		9.485868	-0.432875	-3.849356	-1.693210	-1.622541	0.161621	1.336650	0.133995	-0.078127	-0.766113	0.305176	0.411133	0.094831	-0.004108	-0.038585	0.235724	-0.725613	-0.224400	-0.606271	-155.521073	-80.274753	13.637935
49558		9.474634	0.896881	-3.689572	-0.746381	-2.609461	0.027006	1.113824	0.182602	-0.124636	-0.758789	0.306396	0.407959	0.094718	0.009115	-0.036932	0.239576	-0.723613	-0.228023	-0.605800	-155.020669	-80.396796	13.777659
49559		9.715458	0.392268	-3.848109	-1.140208	-2.329896	0.317633	0.533000	0.236788	-0.068200	-0.768555	0.299561	0.402832	0.097110	0.003992	-0.038585	0.241554	-0.722196	-0.229612	-0.606105	-154.596298	-80.532927	13.656863
49560		9.634741	-1.123515	-3.974211	-2.211353	-1.260408	0.356188	0.325236	0.333033	-0.020456	-0.765869	0.308594	0.398926	0.096280	-0.011180	-0.039921	0.243036	-0.720785	-0.230282	-0.606937	-153.987412	-80.707120	13.228569
49561		9.173287	-2.464472	-3.833989	-3.043698	-0.184845	-0.033946	0.411822	0.413563	-0.020318	-0.773438	0.312012	0.392822	0.091651	-0.024575	-0.038580	0.244918	-0.719025	-0.231112	-0.607952	-153.179770	-80.921235	12.648906
49562		9.100934	-2.845411	-3.526513	-3.096752	0.252965	-0.132534	0.784714	0.486323	-0.103153	-0.779785	0.306152	0.390381	0.090908	-0.028362	-0.035598	0.247973	-0.716476	-0.233283	-0.608893	-152.268321	-81.193230	12.181355
49563		9.566259	-1.612363	-2.835120	-1.763575	-0.294772	0.134843	1.239180	0.549549	-0.203671	-0.782715	0.317871	0.383301	0.095568	-0.016044	-0.028713	0.252413	-0.713033	-0.237110	-0.609631	-151.272019	-81.522534	11.891427
49564		9.906866	0.403424	-1.776979	0.337836	-1.176411	0.185718	1.400428	0.579154	-0.242716	-0.784668	0.315918	0.380615	0.099022	0.004040	-0.018028	0.257332	-0.709209	-0.241520	-0.610304	-150.207188	-81.877333	11.626179
49565		10.047942	2.195685	-0.461350	2.475935	-1.671344	0.039789	1.317473	0.566085	-0.191330	-0.785156	0.321289	0.360596	0.100487	0.021892	-0.004754	0.262081	-0.705559	-0.245494	-0.610928	-148.973794	-82.209297	11.142303
49566		9.743401	2.839620	0.775627	3.744659	-1.331670	-0.442361	0.986418	0.484690	-0.121866	-0.788818	0.323486	0.350342	0.097470	0.028299	0.007660	0.265766	-0.702643	-0.248312	-0.611558	-147.787807	-82.479833	10.515883
49567		9.555197	1.935958	1.708838	3.764500	-0.043155	-0.658647	0.643520	0.410380	-0.001427	-0.784180	0.321045	0.349121	0.095587	0.019304	0.016954	0.268518	-0.700546	-0.249753	-0.612174	-146.467154	-82.674754	9.556069
49568		9.374364	0.026706	1.641913	2.376651	1.287346	-0.687476	0.470427	0.301545	0.134516	-0.793945	0.333740	0.341553	0.093768	0.000292	0.016278	0.270940	-0.699173	-0.250330	-0.612440	-144.958649	-82.771664	8.307012
49569		9.981024	-1.155083	1.590035	1.595973	2.100289	0.012019	0.503585	0.185942	0.178345	-0.794922	0.330566	0.341797	0.099835	-0.011502	0.015779	0.273465	-0.698162	-0.251011	-0.612193	-143.547687	-82.795682	7.175723
49570		10.005942	-1.675537	1.551089	1.206034	2.429630	0.085520	0.514030	0.108317	0.168304	-0.789795	0.333984	0.333740	0.100082	-0.016711	0.015414	0.275897	-0.697353	-0.251862	-0.611674	-142.372245	-82.784842	6.287750
49571		9.640119	-1.470264	1.401094	1.191376	2.157561	-0.274229	0.466083	0.015272	0.152270	-0.796387	0.336182	0.341797	0.096413	-0.014662	0.013969	0.277993	-0.696872	-0.252750	-0.610907	-141.546110	-82.735402	5.724244
49572		9.339347	-0.920142	1.417904	1.550492	1.763314	-0.616645	0.365994	-0.067324	0.148084	-0.794434	0.341309	0.336914	0.093395	-0.009158	0.014194	0.279622	-0.696772	-0.253459	-0.609983	-141.031518	-82.650036	5.416826
49573		9.564136	-0.795918	1.229823	1.544897	1.543909	-0.386751	0.206207	-0.139025	0.154143	-0.792725	0.347168	0.333496	0.095639	-0.007898	0.012357	0.280620	-0.697121	-0.253758	-0.609001	-140.796000	-82.530065	5.298159
49574		9.813771	-1.620116	0.638470	0.606778	1.721208	-0.014130	0.108278	-0.193363	0.181039	-0.793213	0.345459	0.336670	0.098146	-0.016116	0.006471	0.281290	-0.697804	-0.253742	-0.607915	-140.679684	-82.376465	5.243378
49575		9.679084	-2.523739	-0.520466	-0.832056	1.551470	0.047605	0.195677	-0.237471	0.184740	-0.791748	0.355469	0.339844	0.096820	-0.025143	-0.005114	0.282222	-0.698501	-0.254042	-0.606556	-140.622312	-82.201741	5.299003
49576		9.764784	-2.594085	-1.202942	-1.323867	1.123006	0.212957	0.341933	-0.261003	0.138340	-0.784668	0.352051	0.341064	0.097681	-0.025853	-0.011946	0.283490	-0.699001	-0.254978	-0.604994	-140.690166	-82.033669	5.565257
49577		9.791206	-2.412968	-1.500887	-1.378803	0.784882	0.258341	0.419951	-0.252505	0.090749	-0.792969	0.359863	0.343262	0.097942	-0.024054	-0.014936	0.284899	-0.699300	-0.256304	-0.603423	-140.833118	-81.886290	5.952980
49578		9.843493	-2.263246	-1.803590	-1.457263	0.466811	0.332658	0.426779	-0.235936	0.038976	-0.788086	0.351807	0.350098	0.098461	-0.022575	-0.017968	0.286192	-0.699469	-0.257805	-0.601975	-141.081504	-81.765043	6.450923
49579		9.637523	-1.823864	-2.119560	-1.379693	-0.067446	0.126767	0.456531	-0.203360	-0.018944	-0.785889	0.353027	0.336426	0.096395	-0.018199	-0.021139	0.287455	-0.699420	-0.259548	-0.600680	-141.399431	-81.678470	7.036251
49580		9.652863	-1.218784	-2.165370	-0.967401	-0.518709	0.094233	0.417629	-0.177040	-0.051244	-0.780273	0.363525	0.345947	0.096545	-0.012167	-0.021594	0.288518	-0.699300	-0.261250	-0.599571	-141.766340	-81.615018	7.648915
49581		9.794432	-0.907772	-2.328078	-0.826909	-0.841887	0.226353	0.327293	-0.151119	-0.071279	-0.784912	0.361816	0.339355	0.097959	-0.009075	-0.023222	0.289240	-0.699204	-0.262713	-0.598695	-142.176707	-81.569388	8.253506
49582		9.791874	-0.907932	-2.338752	-0.826585	-0.841331	0.226426	0.267242	-0.121991	-0.067137	-0.783203	0.359131	0.338867	0.097930	-0.009081	-0.023340	0.289799	-0.699111	-0.263938	-0.597994	-142.535933	-81.535277	8.771441
49583		9.812454	-0.753856	-2.177425	-0.596799	-0.823414	0.215251	0.245154	-0.109706	-0.070265	-0.784912	0.359863	0.333008	0.098134	-0.007546	-0.021730	0.290291	-0.699007	-0.265092	-0.597366	-142.884855	-81.507008	9.266739
49584		9.556115	-0.697136	-1.941218	-0.428293	-0.689817	-0.070286	0.192375	-0.090788	-0.075654	-0.785156	0.347412	0.339600	0.095567	-0.006989	-0.019376	0.290604	-0.698915	-0.266077	-0.596883	-143.235034	-81.489186	9.732227
49585		9.530929	-0.323216	-1.298277	0.276746	-0.473750	-0.203964	0.155030	-0.093491	-0.071202	-0.788818	0.361084	0.344971	0.095314	-0.003256	-0.012941	0.290797	-0.698892	-0.266940	-0.596431	-143.596889	-81.467777	10.188147
49586		9.686195	-0.213022	-0.955916	0.613622	-0.287172	-0.100709	0.096944	-0.090989	-0.063684	-0.798828	0.357422	0.336914	0.096866	-0.002156	-0.009516	0.290811	-0.698954	-0.267598	-0.596057	-143.961560	-81.444948	10.613049
49587		9.398894	-0.213898	-0.847364	0.647789	-0.205398	-0.397744	0.061626	-0.101413	-0.047999	-0.784424	0.358887	0.344971	0.093993	-0.002159	-0.008427	0.290737	-0.699120	-0.268113	-0.595667	-144.318652	-81.411236	11.010212
49588		9.353388	-0.173766	-0.611045	0.835383	-0.052236	-0.475191	0.048052	-0.128560	-0.028420	-0.785400	0.363281	0.339844	0.093538	-0.001749	-0.006051	0.290634	-0.699411	-0.268557	-0.595175	-144.679810	-81.358357	11.403308
49589		9.428548	-0.433090	-0.407115	0.805798	0.286632	-0.404216	0.038619	-0.147041	0.006227	-0.794922	0.361084	0.342041	0.094289	-0.004327	-0.004003	0.290580	-0.699818	-0.268881	-0.594577	-144.974836	-81.284699	11.724582
49590		9.567564	-1.084238	-0.636640	0.212692	0.581056	-0.182720	0.073318	-0.166935	0.024134	-0.786865	0.362061	0.348633	0.095682	-0.010829	-0.006291	0.290670	-0.700256	-0.269271	-0.593839	-145.232720	-81.195941	12.027984
49591		9.685764	-1.018859	-0.607719	0.310019	0.571360	-0.076218	0.180419	-0.186718	0.009718	-0.787354	0.363281	0.343262	0.096864	-0.010178	-0.005996	0.291068	-0.700578	-0.270061	-0.592905	-145.508041	-81.102008	12.411641
49592		9.649810	-0.996200	-0.731025	0.251474	0.476345	-0.099013	0.168024	-0.201215	0.011589	-0.784424	0.351074	0.346191	0.096506	-0.009950	-0.007222	0.291406	-0.700961	-0.270826	-0.591937	-145.807819	-81.000645	12.812541
49593		9.608583	-1.264034	-1.100796	-0.182631	0.400433	-0.068937	0.167197	-0.215435	0.010836	-0.782715	0.364746	0.350342	0.096098	-0.012626	-0.010915	0.291720	-0.701387	-0.271611	-0.590917	-146.130315	-80.892120	13.236270
49594		9.771609	-1.256346	-1.536495	-0.429056	0.095701	0.148752	0.132209	-0.210546	-0.002758	-0.781982	0.366699	0.351074	0.097732	-0.012555	-0.015270	0.291876	-0.701828	-0.272333	-0.589983	-146.494981	-80.790162	13.682345
49595		9.732638	-1.086101	-2.166817	-0.719539	-0.468127	0.180413	0.070233	-0.201727	-0.031435	-0.786865	0.359863	0.350342	0.097346	-0.010869	-0.021574	0.291744	-0.702295	-0.272961	-0.589203	-146.952690	-80.700617	14.187243
49596		9.854685	-0.687386	-2.497011	-0.620890	-0.958622	0.312425	-0.050737	-0.187830	-0.063797	-0.781982	0.350830	0.346680	0.098568	-0.006912	-0.024876	0.291108	-0.702851	-0.273324	-0.588686	-147.539586	-80.627383	14.752529
49597		9.897720	-0.602604	-2.417741	-0.493516	-0.936469	0.338810	-0.184754	-0.157265	-0.069822	-0.779053	0.365723	0.357910	0.098994	-0.006083	-0.024094	0.290026	-0.703504	-0.273269	-0.588465	-148.155534	-80.569505	15.269646
49598		9.638922	-1.002140	-2.330107	-0.762121	-0.590672	0.107632	-0.280431	-0.138602	-0.047741	-0.783691	0.360840	0.361328	0.096403	-0.010077	-0.023220	0.288695	-0.704269	-0.272827	-0.588409	-148.721750	-80.513597	15.680747
49599		9.500890	-1.286259	-2.053479	-0.800162	-0.181667	-0.042075	-0.235094	-0.132944	-0.051635	-0.777588	0.356689	0.352295	0.095019	-0.012911	-0.020456	0.287522	-0.704946	-0.272524	-0.588313	-149.257449	-80.460594	16.087558
49600		9.666583	-1.306212	-1.416962	-0.356034	0.319932	0.032497	-0.182868	-0.128454	-0.068317	-0.774902	0.359863	0.358887	0.096670	-0.013108	-0.014096	0.286488	-0.705509	-0.272426	-0.588188	-149.799699	-80.414401	16.531168
49601		9.687290	-1.209021	-0.989370	0.009209	0.581661	-0.017498	-0.149200	-0.133158	-0.081986	-0.783691	0.361084	0.358643	0.096874	-0.012137	-0.009820	0.285530	-0.706019	-0.272486	-0.588014	-150.365348	-80.368683	17.018884
49602		9.455988	-0.714452	-0.780491	0.473596	0.398969	-0.317856	-0.112654	-0.159826	-0.085038	-0.776367	0.363770	0.359131	0.094563	-0.007189	-0.007725	0.284651	-0.706550	-0.272697	-0.587705	-150.958189	-80.310065	17.554750
49603		9.518335	0.090039	-0.316486	1.381822	0.201118	-0.391591	-0.131984	-0.179873	-0.072340	-0.782959	0.367676	0.364014	0.095186	0.000864	-0.003080	0.283720	-0.707182	-0.272842	-0.587327	-151.549133	-80.236591	18.078849
49604		9.440015	-0.084389	-0.373311	1.213822	0.293623	-0.447819	-0.255405	-0.195479	-0.029814	-0.785156	0.355225	0.361572	0.094404	-0.000863	-0.003640	0.282449	-0.708093	-0.272489	-0.587006	-152.103032	-80.143212	18.492431
49605		9.527025	-0.608321	-0.599597	0.711600	0.515703	-0.287909	-0.251556	-0.231871	-0.002393	-0.782227	0.359863	0.364746	0.095277	-0.006092	-0.005878	0.281230	-0.709139	-0.272109	-0.586505	-152.620187	-80.023110	18.872501
49606		9.514043	-1.117373	-0.844343	0.196022	0.712732	-0.224571	-0.227047	-0.269915	0.005219	-0.775635	0.349854	0.371338	0.095152	-0.011181	-0.008302	0.280059	-0.710272	-0.271818	-0.585829	-153.147090	-79.881337	19.275468
49607		9.493540	-1.052599	-1.095576	0.087758	0.509070	-0.212238	-0.167742	-0.298877	0.006163	-0.781982	0.353516	0.382813	0.094952	-0.010532	-0.010805	0.279067	-0.711405	-0.271742	-0.584962	-153.664672	-79.723560	19.704693
49608		9.615256	-0.890036	-1.365113	0.061807	0.234874	-0.063341	-0.195817	-0.322140	0.005365	-0.781250	0.351563	0.376709	0.096175	-0.008911	-0.013488	0.277935	-0.712643	-0.271614	-0.584054	-154.218516	-79.553594	20.153636
49609		9.518799	-0.624765	-1.445817	0.201295	0.012122	-0.166575	-0.238477	-0.335365	0.011474	-0.781494	0.346680	0.378906	0.095212	-0.006259	-0.014291	0.276652	-0.713984	-0.271359	-0.583142	-154.780178	-79.374219	20.586387
49610		9.396238	-0.550042	-1.572719	0.169325	-0.110860	-0.272027	-0.330631	-0.360856	0.017765	-0.777344	0.357178	0.385498	0.093991	-0.005518	-0.015549	0.275019	-0.715531	-0.270844	-0.582256	-155.393327	-79.179562	21.017601
49611		9.399114	-0.756183	-1.611208	0.022045	0.036861	-0.246645	-0.414082	-0.384318	0.030022	-0.773438	0.349854	0.396973	0.094023	-0.007581	-0.015916	0.273096	-0.717273	-0.270078	-0.581375	-156.029877	-78.968632	21.425227
49612		9.491788	-0.799632	-1.576326	0.058589	0.131482	-0.158809	-0.454688	-0.412934	0.028229	-0.769287	0.345947	0.398193	0.094951	-0.008018	-0.015549	0.270975	-0.719145	-0.269232	-0.580446	-156.708320	-78.742489	21.851156
49613		9.647902	-0.498333	-1.567058	0.332247	-0.028879	-0.031346	-0.479399	-0.426012	0.012411	-0.766113	0.341553	0.395020	0.096512	-0.005015	-0.015453	0.268701	-0.721060	-0.268386	-0.579517	-157.433793	-78.511709	22.311215
49614		9.564427	-0.119407	-1.361574	0.750813	-0.125622	-0.181138	-0.562632	-0.444128	0.018033	-0.761963	0.337158	0.417969	0.095674	-0.001223	-0.013400	0.266114	-0.723139	-0.267300	-0.578623	-158.188259	-78.269222	22.752312
49615		9.800815	-0.430848	-0.742821	1.039392	0.582211	-0.046733	-0.720665	-0.488677	0.021114	-0.763184	0.346924	0.415039	0.098026	-0.004324	-0.007173	0.262901	-0.725550	-0.265799	-0.577763	-159.043317	-78.000844	23.204018
49616		10.503964	-1.533416	-0.515754	0.613791	1.635466	0.670572	-0.838012	-0.554118	0.016691	-0.758057	0.335449	0.421143	0.105055	-0.015346	-0.004802	0.259156	-0.728281	-0.264057	-0.576817	-160.007607	-77.697040	23.699226
49617		10.456716	-1.895862	-0.641131	0.318570	1.862905	0.664711	-0.647785	-0.606627	-0.011073	-0.758301	0.336426	0.430664	0.104585	-0.018984	-0.006033	0.255952	-0.730864	-0.263029	-0.575449	-160.939918	-77.368313	24.274513
49618		9.837060	-0.702536	0.908644	2.148723	2.033084	-0.360907	-0.505602	-0.612828	-0.022093	-0.753906	0.330322	0.436523	0.098341	-0.007013	0.009406	0.253220	-0.733256	-0.262451	-0.573877	-161.785436	-77.036549	24.844471
49619		9.631735	-2.627522	1.594475	1.348773	3.927524	-0.594696	-0.688338	-0.616333	0.080675	-0.757080	0.330566	0.445068	0.096278	-0.026181	0.016332	0.250105	-0.736010	-0.260972	-0.572390	-162.463365	-76.683023	25.135832
49620		9.674236	-5.017339	-0.111725	-1.396948	4.599566	-0.031630	-0.159693	-0.668326	0.089492	-0.754883	0.329346	0.452393	0.096768	-0.050131	-0.000754	0.248887	-0.738250	-0.261033	-0.570003	-162.834725	-76.299093	25.423629
49621		9.569201	-2.669211	-0.235233	0.114959	2.806153	-0.280548	0.648818	-0.727580	0.061949	-0.745605	0.338623	0.455566	0.095708	-0.026655	-0.002091	0.250495	-0.739604	-0.263568	-0.566365	-162.829459	-75.887108	25.801207
49622		9.565243	1.454732	-0.095827	3.046768	-0.092739	-0.629701	0.861436	-0.802176	0.094593	-0.738525	0.343262	0.455322	0.095648	0.014595	-0.000512	0.252874	-0.740924	-0.266671	-0.562114	-162.674187	-75.428951	26.150356
49623		9.082352	3.762268	-0.366149	4.390690	-1.961592	-1.230667	0.479339	-0.836926	0.196267	-0.742920	0.343018	0.461670	0.090801	0.037720	-0.003191	0.254074	-0.742938	-0.268361	-0.558097	-162.541688	-74.934622	26.297856
49624		8.601107	3.192244	-1.124656	3.440753	-2.076100	-1.488941	0.085956	-0.880248	0.349269	-0.733154	0.333740	0.466553	0.086003	0.032077	-0.010854	0.254171	-0.745760	-0.268432	-0.554241	-162.358513	-74.390277	26.158957
49625		9.657535	2.100436	-1.810591	2.563619	-1.589537	-0.228409	0.024430	-0.963776	0.445175	-0.733154	0.346436	0.476318	0.096614	0.021222	-0.017638	0.254185	-0.749002	-0.268072	-0.550021	-162.090064	-73.783548	25.894121
49626		10.845208	1.583393	-2.265878	2.303507	-1.338706	1.057468	0.028502	-1.042996	0.464236	-0.722412	0.345703	0.484863	0.108531	0.016089	-0.022091	0.254154	-0.752459	-0.267747	-0.545456	-161.851691	-73.129857	25.662467
49627		11.483637	1.356165	-2.144869	2.520444	-0.965066	1.634059	-0.066123	-1.108178	0.456624	-0.712402	0.351074	0.496826	0.114922	0.013817	-0.020817	0.253648	-0.756178	-0.267263	-0.540766	-161.733804	-72.442010	25.499067
49628		11.119598	1.100228	-1.956504	2.502270	-0.646730	1.232793	-0.148201	-1.173447	0.463394	-0.704834	0.352295	0.491455	0.111282	0.011246	-0.018921	0.252755	-0.760158	-0.266607	-0.535907	-161.697701	-71.717215	25.371853
49629		10.935256	1.055806	-1.650263	2.755963	-0.378550	0.942663	-0.239032	-1.254068	0.486242	-0.696777	0.355957	0.517578	0.109427	0.010805	-0.015829	0.251458	-0.764464	-0.265710	-0.530812	-161.724850	-70.944681	25.255764
49630		10.949788	1.644224	-0.742539	3.899957	-0.147628	0.575743	-0.319431	-1.281962	0.491824	-0.680908	0.366699	0.520752	0.109502	0.016700	-0.006750	0.249821	-0.768917	-0.264601	-0.525683	-161.806545	-70.155771	25.148277
49631		10.822666	1.254648	-0.425889	3.942030	0.379747	0.346055	-0.560615	-1.304206	0.553906	-0.674561	0.361816	0.522949	0.108216	0.012836	-0.003589	0.247375	-0.773769	-0.262631	-0.520685	-161.945686	-69.344080	24.953887
49632		10.742293	0.036140	-0.597237	3.126839	1.203188	0.411208	-0.563662	-1.328427	0.634242	-0.671143	0.365967	0.529785	0.107458	0.000687	-0.005260	0.245080	-0.778747	-0.260359	-0.515463	-161.988645	-68.504724	24.653791
49633		11.330000	-0.738247	-0.925700	2.742548	1.705853	1.111449	-0.455375	-1.380843	0.670347	-0.655029	0.358643	0.552002	0.113384	-0.007022	-0.008458	0.243222	-0.783721	-0.258280	-0.509820	-161.955506	-67.630923	24.337799
49634		11.413227	-0.467412	-0.900366	3.128156	1.585375	1.095539	-0.189191	-1.426074	0.669002	-0.638672	0.359375	0.559570	0.114207	-0.004300	-0.008185	0.242324	-0.788439	-0.256916	-0.503624	-161.806799	-66.732039	24.058841
49635		11.672664	0.553959	-0.662249	4.210683	1.066621	1.055891	-0.145196	-1.494401	0.668311	-0.629883	0.367676	0.570557	0.116752	0.005925	-0.005754	0.241491	-0.793223	-0.255726	-0.497076	-161.677762	-65.796393	23.826160
49636		11.953445	1.419303	-0.417205	5.208989	0.672224	1.026340	-0.235748	-1.559494	0.704418	-0.614014	0.366699	0.578613	0.119511	0.014610	-0.003257	0.240291	-0.798268	-0.254234	-0.490300	-161.596394	-64.818112	23.587911
49637		12.453073	1.688980	-0.460008	5.727600	0.579229	1.367588	-0.476035	-1.617850	0.755321	-0.610352	0.371094	0.587891	0.124498	0.017351	-0.003634	0.238162	-0.803743	-0.251995	-0.483503	-161.627586	-63.799582	23.319250
49638		12.896169	1.581833	-0.567552	5.958944	0.721832	1.724258	-0.674490	-1.665023	0.811126	-0.584717	0.357422	0.601807	0.128938	0.016324	-0.004657	0.235291	-0.809567	-0.249089	-0.476649	-161.737351	-62.744766	23.009431
49639		13.199319	1.583975	-0.905822	6.069085	0.613347	2.033694	-0.750630	-1.698772	0.890804	-0.584717	0.377197	0.619385	0.131992	0.016396	-0.007998	0.232230	-0.815575	-0.245687	-0.469621	-161.829261	-61.658578	22.625879
49640		12.771882	0.833353	-1.213680	5.427611	0.969740	1.801284	-0.660093	-1.682909	0.970411	-0.556641	0.364502	0.621826	0.127773	0.008916	-0.011091	0.229726	-0.821455	-0.242135	-0.462394	-161.799199	-60.565861	22.159568
49641		11.972205	-0.223415	-2.230556	3.978054	1.068601	1.649745	-0.152460	-1.696139	1.047836	-0.550293	0.363770	0.631592	0.119915	-0.001623	-0.021288	0.229443	-0.826788	-0.239425	-0.454372	-161.434055	-59.452335	21.636468
49642		11.067796	-2.170183	-3.872053	1.554826	1.475069	1.917621	-0.218467	-1.729464	1.174560	-0.534180	0.369141	0.644287	0.111132	-0.021092	-0.037738	0.229114	-0.832340	-0.236058	-0.446087	-161.035316	-58.294503	21.024436
49643		10.494013	-5.112703	-5.842068	-1.472259	2.545381	2.905037	-0.066360	-1.750152	1.302358	-0.496338	0.378174	0.649902	0.105776	-0.050459	-0.057481	0.229641	-0.837817	-0.232482	-0.437356	-160.485922	-57.100324	20.326977
49644		10.175816	-5.196486	-6.227695	-1.640632	2.356754	2.879117	0.186075	-1.829519	1.286672	-0.484619	0.379395	0.657715	0.102654	-0.051249	-0.061389	0.231082	-0.843058	-0.229599	-0.427946	-159.872058	-55.861146	19.718554
49645		8.914119	-5.174024	-7.576392	-2.851177	1.338967	2.585128	0.162579	-1.735462	1.142533	-0.474121	0.398438	0.669434	0.090088	-0.051166	-0.075027	0.232187	-0.847863	-0.227119	-0.419088	-159.395820	-54.698936	19.249899
49646		7.168295	-4.485443	-8.421315	-3.676343	0.010441	1.540812	0.066880	-1.737359	0.946503	-0.448242	0.391357	0.686035	0.072622	-0.044484	-0.083600	0.232459	-0.852470	-0.225267	-0.410503	-159.146276	-53.572975	18.989239
49647		6.638320	-3.684775	-7.460893	-2.748342	-0.097437	0.470491	-0.492423	-1.597379	0.790984	-0.437988	0.391602	0.686523	0.067121	-0.036766	-0.073984	0.230155	-0.857187	-0.222726	-0.403301	-159.299482	-52.554460	18.825230
49648		7.590402	-1.939238	-5.558778	0.052176	-0.127757	-0.207777	-0.724665	-1.215484	0.685680	-0.422607	0.392334	0.697754	0.076306	-0.019331	-0.055055	0.227060	-0.861220	-0.219732	-0.398072	-159.558997	-51.761383	18.628043
49649		8.052935	1.242369	-4.029138	3.080047	-1.667701	-1.424659	-0.904752	-0.764336	0.491346	-0.418701	0.388184	0.700195	0.080652	0.012440	-0.040040	0.223278	-0.864303	-0.216671	-0.395197	-159.938517	-51.251071	18.447627
49650		6.878486	3.356206	-4.400174	3.338579	-3.783126	-2.568318	-1.274053	-0.347024	0.197483	-0.412354	0.374268	0.705566	0.068828	0.033349	-0.044095	0.217772	-0.866616	-0.213697	-0.394823	-160.622208	-51.022670	18.388144
49651		4.925903	1.258698	-4.287749	1.060294	-2.369041	-3.689239	-1.879891	0.042030	0.275285	-0.405029	0.363525	0.718018	0.049233	0.012251	-0.043004	0.210185	-0.868847	-0.208731	-0.396685	-161.508046	-50.992314	18.139169
49652		4.775928	-0.976988	-4.676383	-0.498781	-0.715361	-3.114061	-1.744226	0.449454	0.261341	-0.407471	0.346191	0.720215	0.047667	-0.010116	-0.046784	0.203576	-0.870036	-0.203669	-0.400142	-162.234382	-51.187344	17.788248
49653		5.524265	-1.196577	-4.594629	-0.175029	-0.307378	-2.537088	-1.455939	0.840656	0.167069	-0.409180	0.340576	0.723389	0.055059	-0.012255	-0.046089	0.198401	-0.869989	-0.199151	-0.405087	-162.775580	-51.615899	17.409196
49654		5.772714	-2.014989	-4.519340	-0.474497	0.487096	-2.239990	-1.278397	1.220040	0.027759	-0.410645	0.336670	0.726563	0.057453	-0.020432	-0.045414	0.194094	-0.868791	-0.195236	-0.411598	-163.230107	-52.276595	17.056183
49655		5.639032	-3.201190	-4.734933	-1.382577	1.369339	-2.023066	-0.858286	1.582370	-0.184502	-0.419434	0.327881	0.711914	0.055984	-0.032268	-0.047655	0.191498	-0.866165	-0.192712	-0.419461	-163.516907	-53.173486	16.794525
49656		5.487739	-3.909171	-4.876639	-2.039876	1.854180	-1.965556	-0.118165	1.935255	-0.427230	-0.443604	0.318848	0.709717	0.054319	-0.039237	-0.049271	0.191936	-0.861777	-0.192465	-0.428319	-163.477840	-54.302997	16.662075
49657		5.347901	-3.744133	-5.040914	-2.303350	1.542885	-2.044787	0.582908	2.223009	-0.654932	-0.456543	0.317871	0.697510	0.052791	-0.037467	-0.051108	0.195161	-0.855774	-0.194399	-0.437919	-163.137343	-55.628724	16.653848
49658		5.270603	-3.188495	-5.276179	-2.403914	0.842270	-2.112592	0.919354	2.452825	-0.850585	-0.477295	0.323975	0.678467	0.051917	-0.031862	-0.053548	0.199588	-0.848611	-0.197653	-0.448283	-162.693174	-57.112097	16.753021
49659		5.697006	-2.393135	-5.165377	-1.895271	0.189189	-1.987628	0.922625	2.655846	-1.036195	-0.490967	0.319336	0.678711	0.056152	-0.023983	-0.052514	0.203772	-0.840627	-0.201456	-0.459607	-162.341583	-58.739729	16.961678
49660		6.439338	-1.515230	-5.214311	-1.319263	-0.561740	-1.512782	0.885692	2.838866	-1.225188	-0.518555	0.313232	0.646240	0.063551	-0.015310	-0.053117	0.207502	-0.831871	-0.205735	-0.471811	-162.131396	-60.499776	17.306243
49661		7.099898	-0.533168	-5.369565	-0.837218	-1.456516	-1.055052	0.614106	2.964049	-1.404185	-0.545898	0.324463	0.635254	0.070154	-0.005659	-0.054757	0.209754	-0.822692	-0.209931	-0.484882	-162.235310	-62.360617	17.824882
49662		7.141699	-0.256039	-5.638653	-1.131783	-1.901923	-0.983295	0.204326	3.067764	-1.517854	-0.560059	0.305664	0.614502	0.070519	-0.003040	-0.057476	0.210093	-0.813340	-0.213435	-0.498783	-162.719687	-64.295495	18.497830
49663		6.829073	-0.472414	-6.026006	-1.953158	-2.038518	-1.141263	-0.202159	3.133375	-1.574165	-0.582764	0.296143	0.587646	0.067295	-0.005318	-0.061314	0.208645	-0.803943	-0.216019	-0.513301	-163.584631	-66.272930	19.322069
49664		7.199564	-0.965842	-6.400096	-2.675077	-1.835578	-0.691679	-0.449873	3.149862	-1.528083	-0.597412	0.283447	0.578125	0.070899	-0.010349	-0.065101	0.206274	-0.794568	-0.217700	-0.527939	-164.678980	-68.245156	20.228978
49665		8.258675	-1.559808	-6.835673	-3.306934	-1.493578	0.394497	-0.575169	3.126859	-1.449076	-0.621094	0.271240	0.553467	0.081388	-0.016390	-0.069589	0.203524	-0.785221	-0.218692	-0.542384	-165.932057	-70.186359	21.216356
49666		9.010484	-2.253213	-6.930126	-3.897768	-0.917055	1.061389	-0.733836	3.079097	-1.407166	-0.652100	0.266113	0.543457	0.088862	-0.023418	-0.070591	0.200152	-0.775977	-0.219073	-0.556602	-167.466305	-72.085540	22.393125
49667		9.295276	-3.056919	-7.025916	-4.716019	-0.299107	1.267316	-0.701485	2.995744	-1.421872	-0.667236	0.240723	0.522461	0.091666	-0.031473	-0.071529	0.196714	-0.766686	-0.219620	-0.570319	-169.357130	-73.928130	23.949530
49668		9.373163	-3.447985	-6.741420	-5.052088	0.165764	1.124770	-0.464133	2.854983	-1.447801	-0.679688	0.236084	0.508789	0.092504	-0.035311	-0.068659	0.193904	-0.757328	-0.221022	-0.583100	-171.647078	-75.675279	26.046592
49669		9.420222	-2.749871	-6.389274	-4.706982	-0.244128	0.906419	-0.117511	2.665780	-1.493518	-0.696045	0.219238	0.486816	0.093131	-0.028235	-0.065122	0.192016	-0.747946	-0.223734	-0.594685	-174.487477	-77.292313	28.898120
49670		9.861527	-1.364886	-5.775561	-3.661322	-1.037787	1.049122	0.058728	2.427487	-1.438555	-0.704346	0.211670	0.477539	0.097803	-0.014337	-0.058950	0.190642	-0.739005	-0.226948	-0.604997	-177.898446	-78.731975	32.419180
49671		9.821555	-0.630044	-5.486907	-3.299147	-1.519487	0.853449	-0.024012	2.165169	-1.244947	-0.725830	0.203369	0.456787	0.097572	-0.006916	-0.055927	0.189218	-0.731024	-0.229404	-0.614145	178.311747	-79.972538	36.260920
49672		9.255381	-0.728341	-5.331602	-3.542491	-1.438560	0.187096	-0.099492	1.861330	-0.976606	-0.732910	0.192139	0.443848	0.092015	-0.007760	-0.054170	0.187967	-0.724259	-0.230906	-0.621932	174.519689	-80.998854	40.047846
49673		8.593629	-1.211388	-5.104784	-3.890698	-1.008026	-0.581179	-0.119695	1.516171	-0.683899	-0.743408	0.188721	0.433594	0.085504	-0.012438	-0.051690	0.187138	-0.718859	-0.231588	-0.628162	171.159245	-81.808809	43.376856
49674		8.343174	-1.473991	-4.832389	-3.971956	-0.689258	-0.931219	-0.103207	1.144012	-0.439849	-0.743164	0.182129	0.436768	0.083121	-0.014948	-0.048792	0.186695	-0.714858	-0.231782	-0.632772	168.472421	-82.405858	46.029601
49675		8.730188	-1.009432	-4.444159	-3.444924	-0.840708	-0.625152	-0.009868	0.803156	-0.263055	-0.748047	0.184814	0.421387	0.087109	-0.010211	-0.044791	0.186744	-0.712033	-0.231949	-0.635874	166.564160	-82.819019	47.948005
49676		9.112096	-0.748480	-3.965145	-2.932108	-0.771495	-0.319521	-0.089492	0.510280	-0.092046	-0.747314	0.188721	0.418701	0.091016	-0.007545	-0.039880	0.186711	-0.710403	-0.231527	-0.637857	165.528071	-83.086347	48.940281
49677		9.332614	-1.243742	-3.756368	-3.056762	-0.241156	-0.150758	-0.168577	0.257387	0.051543	-0.750488	0.181152	0.412354	0.093281	-0.012445	-0.037673	0.186562	-0.709817	-0.230576	-0.638897	165.362009	-83.232785	49.010172
49678		9.472107	-1.834908	-4.061534	-3.638999	0.075932	0.002386	-0.018427	0.056466	0.133629	-0.743408	0.188965	0.414063	0.094722	-0.018290	-0.040640	0.186976	-0.709826	-0.230002	-0.638973	165.910540	-83.279415	48.447157
49679		9.007457	-1.778963	-3.567115	-3.226820	0.253256	-0.509637	0.162844	-0.103459	0.169716	-0.749512	0.182861	0.415039	0.090108	-0.017684	-0.035639	0.187965	-0.710218	-0.230026	-0.638237	166.922914	-83.240821	47.521623
49680		8.349234	-1.594273	-3.756626	-3.306659	-0.076924	-1.128009	0.372049	-0.215544	0.194644	-0.744873	0.187256	0.417969	0.083548	-0.015792	-0.037506	0.189646	-0.710796	-0.230736	-0.636839	168.269085	-83.140453	46.380541
49681		8.218942	-0.930962	-3.333965	-2.560972	-0.412363	-1.280147	0.603789	-0.295468	0.200331	-0.744385	0.196777	0.419434	0.082248	-0.009127	-0.033246	0.192076	-0.711412	-0.232235	-0.634876	169.807117	-82.992173	45.179616
49682		8.639193	-0.386975	-3.193692	-2.057201	-0.756795	-0.858354	0.645421	-0.345004	0.181822	-0.742920	0.200439	0.427246	0.086450	-0.003688	-0.031800	0.194535	-0.712111	-0.233979	-0.632699	171.260343	-82.810627	44.087792
49683		8.823029	0.004993	-3.159769	-1.740690	-1.051641	-0.664252	0.715095	-0.344778	0.135971	-0.743164	0.196533	0.418457	0.088284	0.000223	-0.031445	0.197094	-0.712680	-0.236100	-0.630474	172.491445	-82.622101	43.259694
49684		8.791087	0.268693	-3.008424	-1.422748	-1.187476	-0.703815	0.709089	-0.329818	0.090366	-0.741699	0.209961	0.423096	0.087959	0.002833	-0.029929	0.199502	-0.713140	-0.238349	-0.628347	173.461971	-82.437204	42.690586
49685		8.752930	0.584933	-2.897325	-1.108104	-1.382978	-0.745728	0.672456	-0.325196	0.055308	-0.732910	0.205078	0.419189	0.087575	0.005971	-0.028811	0.201673	-0.713572	-0.240598	-0.626303	174.228908	-82.251317	42.305506
49686		8.815073	0.839747	-2.449437	-0.553660	-1.314319	-0.736546	0.575522	-0.316572	0.035288	-0.735352	0.209229	0.430176	0.088188	0.008483	-0.024330	0.203442	-0.714039	-0.242604	-0.624422	174.826061	-82.069032	42.035550
49687		8.909741	0.712825	-2.290017	-0.458882	-1.102268	-0.663363	0.477248	-0.288448	0.027606	-0.741943	0.210938	0.422607	0.089129	0.007195	-0.022755	0.204870	-0.714506	-0.244299	-0.622758	175.310329	-81.901652	41.822684
49688		9.024678	0.289440	-2.300606	-0.681748	-0.753913	-0.550498	0.419459	-0.243470	0.024426	-0.735352	0.213135	0.427002	0.090274	0.002954	-0.022890	0.206133	-0.714879	-0.245779	-0.621329	175.719190	-81.760030	41.652397
49689		8.953088	-0.050345	-2.414694	-0.961843	-0.555542	-0.606317	0.437651	-0.191021	0.007870	-0.733887	0.214600	0.423340	0.089554	-0.000447	-0.024062	0.207475	-0.715050	-0.247318	-0.620074	176.052242	-81.647074	41.569293
49690		9.058556	0.076454	-2.416090	-0.855304	-0.645211	-0.498563	0.539003	-0.132597	-0.036380	-0.729980	0.216553	0.420654	0.090602	0.000813	-0.024099	0.209111	-0.714872	-0.249268	-0.618948	176.249873	-81.566235	41.681661
49691		9.311950	0.509419	-2.263189	-0.427727	-0.867815	-0.265023	0.578941	-0.067567	-0.075317	-0.738281	0.214355	0.423828	0.093129	0.005125	-0.022586	0.210851	-0.714399	-0.251411	-0.618036	176.306372	-81.520654	41.959978
49692		9.625902	0.862021	-2.281900	-0.180387	-1.123429	0.052073	0.493759	-0.009805	-0.087985	-0.731689	0.218018	0.423096	0.096264	0.008634	-0.022793	0.212316	-0.713813	-0.253273	-0.617451	176.249730	-81.508138	42.303249
49693		9.791674	0.984540	-2.010428	0.126806	-1.035225	0.177320	0.345679	0.058308	-0.069465	-0.730713	0.231689	0.429688	0.097914	0.009846	-0.020116	0.213397	-0.713198	-0.254538	-0.617269	176.164015	-81.534661	42.590266
49694		9.806406	0.854507	-1.439784	0.481424	-0.582457	0.106875	0.121580	0.132077	-0.043557	-0.734619	0.222168	0.419922	0.098056	0.008532	-0.014457	0.213851	-0.712622	-0.254940	-0.617611	176.026144	-81.604822	42.800033
49695		9.738137	-0.111603	-2.618535	-1.057243	-0.578361	0.199713	-0.019635	0.279967	-0.000536	-0.738037	0.215332	0.421387	0.097345	-0.001119	-0.026322	0.214124	-0.711798	-0.254594	-0.618609	175.933188	-81.760624	42.882732
49696		9.129004	-1.906157	-5.407545	-4.424664	-0.987740	-0.032080	-0.062120	0.384551	0.011442	-0.742188	0.219971	0.414307	0.091187	-0.019073	-0.054245	0.214414	-0.710705	-0.253962	-0.620023	175.827735	-81.977215	42.953270
49697		8.753898	-2.009244	-7.902051	-6.472761	-2.508268	-0.069889	0.077716	0.168240	0.035868	-0.736572	0.213623	0.410889	0.087476	-0.020046	-0.079102	0.215002	-0.710167	-0.253908	-0.620458	175.966931	-82.070544	42.857828
49698		10.661578	-2.044446	-6.585702	-5.282693	-1.502025	1.635348	0.076427	-0.009693	0.149269	-0.742432	0.215820	0.416504	0.106634	-0.020340	-0.065860	0.215711	-0.710321	-0.253637	-0.620145	176.620745	-82.066893	42.241880
49699		10.674994	1.987959	-6.056863	-2.320970	-4.325382	1.610848	0.617690	0.007435	-0.089100	-0.746094	0.218994	0.417236	0.106757	0.020019	-0.060511	0.217625	-0.709538	-0.255873	-0.619454	176.605114	-82.063629	42.615211
49700		10.265333	6.189969	-3.975338	1.866504	-6.314997	0.963789	-0.552052	0.237547	-0.387965	-0.745117	0.217285	0.410156	0.102726	0.061590	-0.040046	0.214755	-0.708920	-0.255292	-0.621401	174.606953	-82.178670	44.313062
49701		9.556230	4.790576	-3.824974	0.909013	-5.203189	0.237175	-2.594614	0.188361	0.100740	-0.752197	0.211914	0.415039	0.095502	0.047452	-0.038957	0.206081	-0.711212	-0.246665	-0.625192	173.457140	-82.287342	43.973499
49702		8.556472	-2.189321	-4.597366	-4.132926	-0.173898	-0.755663	-3.463226	0.198377	0.700861	-0.742920	0.199951	0.426758	0.085597	-0.022386	-0.045674	0.196156	-0.714930	-0.233117	-0.629328	174.356872	-82.439362	41.063651
49703		7.981710	-4.884640	-4.917028	-6.004559	1.892294	-1.321027	-1.986673	0.295472	0.453423	-0.756836	0.199219	0.422607	0.079856	-0.049151	-0.048801	0.190803	-0.716463	-0.224959	-0.632193	175.070327	-82.627102	39.196485
49704		9.556066	-2.280393	-2.330207	-2.259933	1.363184	-0.066775	-0.902762	0.396763	-0.025994	-0.759521	0.179932	0.425049	0.095511	-0.022922	-0.023388	0.187919	-0.716050	-0.221829	-0.634626	174.266130	-82.848407	39.485725
49705		10.274879	-1.009916	-1.640444	-0.951773	0.755932	0.570309	-1.359559	0.433768	-0.141797	-0.746094	0.185547	0.418213	0.102706	-0.010284	-0.016558	0.183066	-0.715800	-0.217624	-0.637775	172.601442	-83.081138	40.378530
49706		9.295586	-2.033857	-1.612931	-1.615020	1.561298	-0.426526	-1.161455	0.505880	-0.003830	-0.758057	0.182373	0.419189	0.092914	-0.020434	-0.016246	0.179432	-0.715250	-0.213478	-0.640819	171.578263	-83.364246	40.738728
49707		8.455633	-2.827389	-1.235226	-1.820420	2.366815	-1.321405	-0.793251	0.497750	0.064813	-0.762207	0.180420	0.412598	0.084535	-0.028296	-0.012450	0.177321	-0.714454	-0.210270	-0.643351	171.068714	-83.646872	40.794476
49708		9.479903	-2.596515	-1.298472	-1.689289	2.200850	-0.294339	-0.351388	0.431835	0.031982	-0.751709	0.163574	0.410645	0.094775	-0.025973	-0.013144	0.176610	-0.713425	-0.208653	-0.645211	170.670112	-83.890379	40.992889
49709		9.583823	-1.560906	-0.951946	-0.871128	1.492577	-0.210315	-0.109576	0.362340	-0.006831	-0.766357	0.186279	0.409424	0.095820	-0.015618	-0.009685	0.176564	-0.712371	-0.208016	-0.646593	170.245887	-84.089570	41.356615
49710		8.791822	-0.561189	-0.838761	-0.335639	0.633292	-0.992209	-0.138334	0.265087	0.012395	-0.768799	0.180908	0.409180	0.087907	-0.005612	-0.008500	0.176375	-0.711666	-0.207302	-0.647649	169.976774	-84.236724	41.547427
49711		8.659327	0.124519	-0.621403	0.186140	0.140093	-1.133327	-0.244849	0.141765	0.138404	-0.779541	0.176758	0.409180	0.086588	0.001297	-0.006277	0.176088	-0.711592	-0.205904	-0.648254	170.482026	-84.325346	40.898916
49712		9.288997	-0.123606	-0.466728	0.239933	0.454131	-0.525345	-0.542333	0.005803	0.308924	-0.768555	0.176758	0.420654	0.092892	-0.001105	-0.004667	0.175153	-0.712384	-0.203052	-0.648538	171.926801	-84.352013	39.134773
49713		9.847476	-0.527675	-0.394210	0.157069	0.848355	0.019003	-0.586586	-0.072682	0.394392	-0.774414	0.180176	0.402588	0.098486	-0.005094	-0.003891	0.174257	-0.713555	-0.199820	-0.648495	173.906936	-84.333667	36.807456
49714		10.065377	-0.363273	0.277144	0.864071	1.032821	0.172656	-0.523082	-0.111829	0.422307	-0.774658	0.170654	0.415039	0.100660	-0.003413	0.002837	0.173636	-0.714810	-0.196724	-0.648226	176.076599	-84.287298	34.325837
49715		9.875070	-0.201541	0.593412	1.236534	1.010609	-0.047483	-0.491105	-0.126022	0.429177	-0.773438	0.175537	0.413330	0.098751	-0.001789	0.006001	0.173136	-0.716089	-0.193719	-0.647853	178.268860	-84.222458	31.839915
49716		9.802781	-0.429741	0.749941	1.283967	1.251509	-0.136603	-0.377238	-0.108351	0.396973	-0.772217	0.183350	0.413330	0.098032	-0.004089	0.007560	0.172954	-0.717167	-0.191180	-0.647463	-179.712801	-84.159640	29.593874
49717		10.008275	0.047219	1.078779	1.849800	0.983875	0.033210	-0.137893	-0.047284	0.307529	-0.776123	0.182129	0.415039	0.100079	0.000634	0.010811	0.173400	-0.717758	-0.189683	-0.647130	-178.085956	-84.124426	27.879236
49718		10.189450	0.808600	1.201223	2.363555	0.369718	0.197235	0.025652	0.048697	0.205446	-0.774658	0.184082	0.424072	0.101889	0.008189	0.011988	0.174191	-0.717791	-0.188998	-0.647081	-176.925534	-84.143639	26.727450
49719		11.174266	1.539793	3.810466	5.062806	1.049559	0.912105	0.018597	0.261063	0.098543	-0.773926	0.195068	0.410889	0.111785	0.015449	0.037960	0.174784	-0.717056	-0.188459	-0.647892	-176.281614	-84.284875	26.086177
49720		13.108632	5.823603	1.858371	5.653809	-3.547748	3.018988	0.862843	0.509903	-0.167044	-0.777588	0.186279	0.400879	0.131182	0.058047	0.018500	0.177803	-0.714503	-0.191416	-0.649024	-176.592877	-84.578898	26.895600
49721		12.765835	4.096467	2.080632	4.909281	-1.953888	2.683620	-0.277540	0.260207	-0.101249	-0.784180	0.193604	0.407959	0.127706	0.040929	0.020583	0.176722	-0.713831	-0.190658	-0.650281	-177.295950	-84.726418	27.442266
49722		8.534806	-1.167215	-1.212416	-0.937725	0.760478	-1.197724	-0.018811	0.130366	0.035520	-0.779785	0.181396	0.405029	0.085342	-0.011658	-0.012179	0.176883	-0.713476	-0.190366	-0.650711	-177.057168	-84.796485	27.191628
49723		10.016385	2.292226	-0.095897	1.883316	-1.607350	0.160324	1.683579	0.174240	-0.081139	-0.789063	0.194336	0.406006	0.100172	0.022889	-0.000853	0.182751	-0.711347	-0.195963	-0.649758	-176.558489	-84.894264	27.655898
49724		10.297670	0.584547	0.760686	1.765327	0.309967	0.373080	0.839154	0.058840	0.197731	-0.785156	0.200195	0.395752	0.102973	0.005915	0.007601	0.186423	-0.710595	-0.197942	-0.648937	-174.795759	-84.915840	26.368853
49725		8.389577	-2.935331	-1.680798	-2.305095	1.921554	-1.279223	1.511351	0.085264	0.247140	-0.783936	0.214355	0.390137	0.083925	-0.029121	-0.017064	0.192641	-0.709164	-0.201874	-0.647475	-172.298335	-84.944120	24.727547
49726		7.213688	-0.889596	-0.625974	-0.434536	0.664587	-2.560798	2.643797	0.155572	0.044661	-0.789307	0.219238	0.379639	0.072134	-0.008796	-0.006433	0.202288	-0.706115	-0.210119	-0.645237	-170.359044	-85.024976	24.301377
49727		8.634769	0.828412	-0.208626	0.979240	-0.494472	-1.205388	1.847306	0.030020	0.027558	-0.791260	0.229736	0.381836	0.086346	0.008315	-0.002023	0.208896	-0.704176	-0.215940	-0.643326	-169.104344	-85.034911	24.102039
49728		9.840052	0.496214	-1.417882	-0.088244	-0.881373	0.101877	1.337457	0.087178	0.077273	-0.787598	0.236328	0.368652	0.098392	0.005095	-0.014188	0.213931	-0.702585	-0.219886	-0.642073	-167.740148	-85.071637	23.501882
49729		9.824410	0.923026	-1.613856	0.016138	-1.365879	0.092341	1.307177	0.144701	0.079936	-0.789551	0.239014	0.364502	0.098229	0.009375	-0.016149	0.218908	-0.700822	-0.223642	-0.641024	-166.272971	-85.138004	22.778818
49730		10.182898	1.630153	-1.440511	0.619140	-1.841177	0.417198	1.051983	0.148367	0.096430	-0.781494	0.231445	0.361816	0.101810	0.016426	-0.014394	0.223054	-0.699311	-0.226523	-0.640233	-164.807237	-85.203289	21.912719
49731		10.984045	1.440026	-1.272164	0.713974	-1.585153	1.201793	0.748619	0.169577	0.158731	-0.795898	0.248779	0.364014	0.109818	0.014535	-0.012761	0.226340	-0.698137	-0.228171	-0.639776	-163.032847	-85.267473	20.559813
49732		10.748689	0.262531	-1.361976	-0.083326	-0.742568	0.999332	0.692759	0.176423	0.202846	-0.791504	0.252930	0.366211	0.107472	0.002782	-0.013705	0.229595	-0.697033	-0.229490	-0.639348	-160.937207	-85.324547	18.855321
49733		10.148465	-0.613460	-1.173907	-0.516041	0.013718	0.408816	0.808782	0.166837	0.180338	-0.788818	0.258545	0.357910	0.101480	-0.005995	-0.011848	0.233150	-0.695801	-0.231252	-0.638768	-158.906518	-85.374870	17.280139
49734		10.169337	-0.742435	-0.351320	0.044086	0.593096	0.372413	1.087677	0.173970	0.138482	-0.793457	0.263672	0.347412	0.101695	-0.007334	-0.003642	0.237561	-0.694145	-0.234050	-0.637925	-156.930063	-85.434446	15.922480
49735		9.813514	-1.194373	0.446678	0.340157	1.410528	-0.023626	1.150180	0.144240	0.169777	-0.786621	0.265137	0.345947	0.098148	-0.011886	0.004328	0.242235	-0.692533	-0.236956	-0.636845	-154.762802	-85.466305	14.407498
49736		9.534589	-2.080096	0.250292	-0.410913	1.931722	-0.252494	1.226609	0.110815	0.201703	-0.789063	0.274902	0.346436	0.095368	-0.020719	0.002323	0.247238	-0.690938	-0.240038	-0.635499	-152.428807	-85.468991	12.771149
49737		9.341761	-2.195696	-0.018609	-0.721812	1.806166	-0.415532	1.428160	0.088183	0.178556	-0.796143	0.276611	0.335205	0.093437	-0.021871	-0.000384	0.252812	-0.689117	-0.243843	-0.633833	-150.208755	-85.460645	11.362524
49738		9.454995	-1.005356	-0.060817	0.022901	0.852507	-0.342523	1.604768	0.081520	0.112145	-0.797852	0.279297	0.329346	0.094555	-0.009995	-0.000727	0.258775	-0.686963	-0.248445	-0.631975	-148.325837	-85.465359	10.396008
49739		9.712373	0.395471	0.222176	1.185220	-0.008935	-0.162241	1.484775	0.078483	0.089721	-0.804688	0.291748	0.331299	0.097123	0.003982	0.002213	0.264222	-0.684913	-0.252721	-0.630249	-146.661144	-85.472527	9.577150
49740		9.962191	0.877037	0.121173	1.464680	-0.432403	0.071484	1.215489	0.074410	0.131655	-0.799072	0.297607	0.315918	0.099617	0.008829	0.001228	0.268875	-0.683244	-0.256011	-0.628763	-144.910703	-85.462935	8.519792
49741		9.780533	0.540204	-0.279008	0.943310	-0.476846	-0.070448	1.008471	0.051670	0.197879	-0.804932	0.305664	0.319336	0.097799	0.005513	-0.002788	0.272981	-0.681996	-0.258436	-0.627354	-143.003983	-85.417104	7.184849
49742		9.532501	0.039720	-0.226753	0.629471	-0.100478	-0.298740	0.848313	0.015817	0.240167	-0.793701	0.304443	0.313232	0.095324	0.000521	-0.002273	0.276631	-0.681110	-0.260268	-0.625959	-141.143133	-85.337420	5.805526
49743		9.870709	-0.519542	-0.044447	0.411078	0.409291	0.054746	0.743494	-0.010828	0.263548	-0.799805	0.316162	0.312256	0.098714	-0.005064	-0.000458	0.279949	-0.680479	-0.261715	-0.624566	-139.397338	-85.233247	4.479493
49744		9.934209	-1.167552	-0.092069	-0.057797	0.812542	0.157094	0.633670	-0.025604	0.269732	-0.788086	0.316162	0.310059	0.099358	-0.011539	-0.000945	0.282898	-0.680038	-0.262825	-0.623249	-137.812112	-85.117978	3.252955
49745		9.685494	-1.865370	-0.344628	-0.734165	1.098367	-0.032008	0.566864	-0.047089	0.272483	-0.795166	0.318604	0.312256	0.096881	-0.018512	-0.003476	0.285590	-0.679763	-0.263736	-0.621936	-136.417277	-84.989260	2.177413
49746		9.629420	-1.812321	-0.281176	-0.640028	1.085703	-0.091532	0.572370	-0.088191	0.244078	-0.792480	0.321045	0.307373	0.096317	-0.017998	-0.002821	0.288163	-0.679556	-0.264825	-0.620511	-135.390614	-84.853738	1.475906
49747		9.856196	-1.579847	-0.218376	-0.391667	0.954746	0.118236	0.477644	-0.101105	0.210650	-0.795654	0.326172	0.298096	0.098580	-0.015689	-0.002171	0.290280	-0.679485	-0.265738	-0.619210	-134.668071	-84.724871	1.023129
49748		9.888971	-1.178392	-0.519081	-0.286558	0.448856	0.145534	0.406146	-0.115082	0.200162	-0.792480	0.329102	0.310547	0.098904	-0.011674	-0.005158	0.292112	-0.679533	-0.266497	-0.617969	-134.115650	-84.594960	0.701985
49749		9.733240	-0.726460	-0.876222	-0.196905	-0.129254	-0.015956	0.300742	-0.127550	0.185013	-0.791016	0.331055	0.298828	0.097345	-0.007161	-0.008711	0.293514	-0.679758	-0.266989	-0.616843	-133.761138	-84.465387	0.517458
49750		9.874088	-0.037150	-1.199251	0.118300	-0.840039	0.097787	0.180592	-0.140548	0.142867	-0.795898	0.332764	0.300049	0.098749	-0.000290	-0.011923	0.294367	-0.680134	-0.267281	-0.615895	-133.707150	-84.348776	0.567144
49751		9.676009	-0.230757	-0.999127	0.115253	-0.562489	-0.099452	-0.028870	-0.125692	0.160229	-0.794922	0.336426	0.308105	0.096768	-0.002231	-0.009930	0.294576	-0.680801	-0.266840	-0.615249	-133.645450	-84.230129	0.487503
49752		9.606292	-0.877799	-1.410691	-0.622610	-0.420087	-0.092745	-0.154606	-0.113470	0.150762	-0.785889	0.338867	0.310059	0.096077	-0.008716	-0.014046	0.294348	-0.681596	-0.266033	-0.614828	-133.642671	-84.120959	0.395632
49753		10.201035	-1.584582	-1.639356	-1.211987	-0.099573	0.569059	-0.250618	-0.094172	0.138824	-0.787354	0.338867	0.305176	0.102029	-0.015795	-0.016326	0.293774	-0.682463	-0.264934	-0.614615	-133.667519	-84.023625	0.274751
49754		9.870972	-1.607168	-1.762865	-1.333301	-0.170739	0.253092	-0.179199	-0.055800	0.087617	-0.786133	0.339600	0.304443	0.098722	-0.016044	-0.017587	0.293344	-0.683030	-0.264180	-0.614514	-133.691335	-83.963446	0.195423
49755		9.843692	-1.065366	-1.632180	-0.848572	-0.444827	0.176273	-0.206152	-0.036828	0.029160	-0.787842	0.343262	0.300049	0.098441	-0.010656	-0.016293	0.292664	-0.683508	-0.263511	-0.614595	-133.877086	-83.934201	0.262740
49756		9.887219	-0.811978	-1.462739	-0.542434	-0.492146	0.188291	-0.256814	-0.016923	0.020951	-0.783691	0.330811	0.315430	0.098874	-0.008128	-0.014609	0.291814	-0.683980	-0.262690	-0.614826	-134.041979	-83.917021	0.280554
49757		9.730948	-0.806379	-1.309362	-0.448012	-0.381130	0.021440	-0.305263	-0.003445	0.022311	-0.793457	0.338623	0.306396	0.097311	-0.008073	-0.013080	0.290816	-0.684488	-0.261689	-0.615159	-134.179756	-83.903837	0.242306
49758		9.643097	-1.099482	-1.404539	-0.731752	-0.242426	-0.036355	-0.294438	0.001146	0.025539	-0.788574	0.342041	0.314209	0.096432	-0.011003	-0.014030	0.289875	-0.684963	-0.260708	-0.615492	-134.278823	-83.891986	0.172240
49759		9.598993	-1.043363	-1.079818	-0.469561	-0.044483	-0.108420	-0.279369	-0.009371	0.025880	-0.793945	0.330811	0.305420	0.095992	-0.010436	-0.010779	0.288969	-0.685453	-0.259784	-0.615762	-134.410710	-83.874962	0.143360
49760		9.585640	-0.950634	-0.869782	-0.257067	0.045081	-0.144357	-0.257839	-0.010875	0.007082	-0.790771	0.340332	0.312500	0.095857	-0.009514	-0.008680	0.288080	-0.685885	-0.258996	-0.616030	-134.603358	-83.865861	0.188499
49761		9.757097	-0.730166	-0.797055	-0.030224	-0.052386	0.003917	-0.299426	-0.016344	-0.007458	-0.800781	0.335449	0.307617	0.097571	-0.007317	-0.007952	0.286993	-0.686379	-0.258134	-0.616348	-134.897185	-83.859602	0.310988
49762		9.676698	-0.331689	-0.846475	0.208368	-0.361428	-0.102334	-0.337603	-0.016715	-0.028413	-0.799805	0.330566	0.316162	0.096767	-0.003345	-0.008451	0.285712	-0.686895	-0.257229	-0.616747	-135.290480	-83.862439	0.511967
49763		9.733816	-0.170041	-0.714758	0.419771	-0.374121	-0.067391	-0.501003	-0.043773	-0.029621	-0.796387	0.338135	0.311768	0.097339	-0.001733	-0.007122	0.283826	-0.687729	-0.255859	-0.617258	-135.885526	-83.853655	0.821163
49764		9.902724	-0.206583	-0.742691	0.392399	-0.358047	0.105782	-0.602343	-0.058965	-0.027035	-0.794922	0.333008	0.322510	0.099029	-0.002102	-0.007391	0.281582	-0.688745	-0.254189	-0.617842	-136.580506	-83.838036	1.173017
49765		9.612521	-0.644600	-0.913005	-0.062711	-0.153139	-0.136829	-0.778650	-0.084929	-0.010515	-0.802490	0.324463	0.318604	0.096129	-0.006486	-0.009064	0.278744	-0.690108	-0.251951	-0.618525	-137.405325	-83.803754	1.553753
49766		9.990894	-0.662179	-1.509472	-0.456359	-0.534439	0.288847	-0.864560	-0.125537	-0.035390	-0.789307	0.323242	0.333252	0.099917	-0.006704	-0.015003	0.275477	-0.691667	-0.249586	-0.619205	-138.509607	-83.761886	2.166245
49767		9.697520	-0.275914	-1.755490	-0.399385	-0.956287	-0.008317	-1.124995	-0.176544	-0.045719	-0.799805	0.321777	0.332031	0.096990	-0.002880	-0.017453	0.271202	-0.693720	-0.246509	-0.620029	-139.966563	-83.699425	2.982572
49768		9.825429	0.792173	-1.592472	0.452270	-1.595256	0.033789	-1.333868	-0.224016	-0.064180	-0.796875	0.314697	0.338623	0.098275	0.007784	-0.015867	0.266081	-0.696145	-0.242909	-0.620949	-141.743800	-83.620909	4.001755
49769		10.092084	0.815165	-1.016044	0.913609	-1.198975	0.250849	-1.635337	-0.206182	-0.012909	-0.792969	0.314941	0.339844	0.100932	0.008062	-0.010123	0.260073	-0.698946	-0.238153	-0.622189	-143.399301	-83.528462	4.724194
49770		9.896312	-0.633207	-0.920463	0.016156	-0.024693	0.146441	-1.874449	-0.183785	0.032952	-0.798340	0.304688	0.354004	0.098973	-0.006401	-0.009054	0.253382	-0.701981	-0.232449	-0.623689	-144.904022	-83.429699	5.157703
49771		9.611475	-1.997630	-0.771927	-0.756876	1.146092	-0.061778	-1.750382	-0.162819	0.029424	-0.795410	0.301025	0.349854	0.096124	-0.020028	-0.007466	0.247117	-0.704736	-0.227098	-0.625065	-146.268410	-83.339948	5.521456
49772		9.706353	-2.327618	-0.473448	-0.691976	1.629498	0.021995	-1.370793	-0.146300	-0.006057	-0.796631	0.289795	0.359375	0.097066	-0.023311	-0.004504	0.242083	-0.706881	-0.223024	-0.626079	-147.492197	-83.269152	5.962810
49773		9.477038	-2.251169	-0.217721	-0.445536	1.754812	-0.239210	-0.927122	-0.111203	-0.021667	-0.797119	0.284912	0.369385	0.094769	-0.022532	-0.002020	0.238600	-0.708343	-0.220344	-0.626713	-148.422234	-83.218330	6.364429
49774		8.955919	-1.266728	-0.151461	0.165795	1.031269	-0.826866	-0.658812	-0.144722	-0.018338	-0.798828	0.293945	0.381836	0.089559	-0.012680	-0.001408	0.236036	-0.709576	-0.218529	-0.626925	-149.256249	-83.150230	6.824185
49775		9.229015	-0.044709	0.467200	1.439138	0.455044	-0.695846	-0.445784	-0.153861	-0.019606	-0.803711	0.290527	0.371094	0.092286	-0.000446	0.004744	0.234206	-0.710586	-0.217389	-0.626863	-149.984460	-83.076370	7.299392
49776		9.524641	-0.323148	0.174367	1.090650	0.513857	-0.357530	-0.519864	-0.200201	0.016827	-0.799316	0.286865	0.363037	0.095245	-0.003219	0.001847	0.232181	-0.711855	-0.215946	-0.626675	-150.698916	-82.969270	7.719059
49777		9.554539	-0.201603	0.001397	1.050406	0.325623	-0.319509	-0.389242	-0.259168	0.027980	-0.795166	0.280029	0.377930	0.095546	-0.002002	0.000142	0.230594	-0.713169	-0.214943	-0.626112	-151.407511	-82.828087	8.208884
49778		9.620614	0.206775	0.152152	1.445779	0.103026	-0.298427	-0.422079	-0.307035	0.053910	-0.794922	0.286377	0.393066	0.096203	0.002097	0.001665	0.228915	-0.714690	-0.213796	-0.625386	-152.109201	-82.655780	8.672418
49779		9.265598	0.235514	0.214919	1.496490	0.123072	-0.664013	-0.450049	-0.352102	0.080544	-0.797363	0.284668	0.389893	0.092651	0.002398	0.002307	0.227165	-0.716413	-0.212511	-0.624490	-152.788179	-82.452066	9.096376
49780		9.239438	0.336312	0.414335	1.744463	0.171396	-0.725369	-0.483896	-0.404849	0.101950	-0.790283	0.291016	0.383057	0.092384	0.003421	0.004322	0.225307	-0.718349	-0.211106	-0.623414	-153.475496	-82.215972	9.510100
49781		8.953612	-0.449574	0.129159	1.057509	0.647752	-0.933054	-0.516263	-0.452712	0.126369	-0.793213	0.281982	0.401367	0.089536	-0.004435	0.001506	0.223358	-0.720492	-0.209568	-0.622161	-154.145211	-81.947780	9.888139
49782		9.490786	-1.152751	-0.136359	0.557236	1.095955	-0.330569	-0.450754	-0.515149	0.139227	-0.785889	0.277344	0.396729	0.094919	-0.011464	-0.001093	0.221615	-0.722757	-0.208251	-0.620597	-154.803054	-81.644225	10.291812
49783		9.832869	-1.704124	-0.540555	0.015027	1.342997	0.090717	-0.280759	-0.514380	0.125843	-0.788086	0.286621	0.395752	0.098353	-0.016987	-0.005129	0.220441	-0.724814	-0.207505	-0.618864	-155.373032	-81.343051	10.705177
49784		9.889666	-1.954531	-1.053428	-0.483574	1.277385	0.230699	-0.134123	-0.497401	0.093931	-0.784424	0.285889	0.411377	0.098932	-0.019506	-0.010275	0.219717	-0.726613	-0.207310	-0.617074	-155.907690	-81.058354	11.168403
49785		9.552619	-1.720485	-1.583495	-0.782132	0.794693	-0.041475	-0.062747	-0.489652	0.075205	-0.782715	0.279541	0.407959	0.095571	-0.017174	-0.015596	0.219206	-0.728289	-0.207397	-0.615249	-156.420548	-80.780787	11.652130
49786		9.531451	-1.231557	-1.728247	-0.579718	0.335116	-0.070842	-0.048870	-0.486880	0.043257	-0.789063	0.286377	0.419434	0.095359	-0.012299	-0.017047	0.218643	-0.729900	-0.207635	-0.613456	-156.993957	-80.511837	12.204849
49787		9.505045	-1.137092	-1.615911	-0.398272	0.346853	-0.118828	-0.145605	-0.477122	0.048978	-0.769287	0.278320	0.428223	0.095091	-0.011359	-0.015924	0.217757	-0.731592	-0.207544	-0.611785	-157.560504	-80.245239	12.695130
49788		9.651496	-1.128493	-1.508090	-0.241037	0.433998	0.008338	-0.194735	-0.486978	0.039729	-0.777344	0.285889	0.422119	0.096554	-0.011280	-0.014835	0.216648	-0.733350	-0.207345	-0.610139	-158.166996	-79.975241	13.197475
49789		9.370369	-1.101943	-1.156962	0.050158	0.628914	-0.328046	-0.210758	-0.479112	0.038097	-0.778320	0.281494	0.432129	0.093733	-0.011014	-0.011333	0.215483	-0.735098	-0.207092	-0.608532	-158.748793	-79.708227	13.665799
49790		9.070101	-1.152548	-0.850312	0.257409	0.858859	-0.674087	-0.185544	-0.516688	0.043656	-0.770752	0.277832	0.430908	0.090725	-0.011513	-0.008258	0.214386	-0.736930	-0.206936	-0.606754	-159.315262	-79.419826	14.133661
49791		9.315861	-0.889604	-0.294100	0.941085	0.995982	-0.550651	-0.092193	-0.547594	0.036595	-0.760010	0.284668	0.432861	0.093168	-0.008880	-0.002682	0.213579	-0.738745	-0.207119	-0.604765	-159.852444	-79.114785	14.626663
49792		9.497377	-1.146935	0.431026	1.459210	1.654217	-0.494135	-0.106135	-0.578790	0.056950	-0.765869	0.286377	0.438721	0.094964	-0.011440	0.004591	0.212747	-0.740682	-0.207218	-0.602652	-160.345106	-78.788805	15.066630
49793		9.747100	-1.743956	0.037392	0.902657	1.964704	-0.149686	0.047538	-0.612265	0.049876	-0.765137	0.281494	0.448975	0.097474	-0.017415	0.000668	0.212433	-0.742543	-0.207844	-0.600253	-160.773178	-78.444855	15.532010
49794		9.408751	-1.250846	-0.239054	0.944059	1.414152	-0.471649	0.270455	-0.662843	0.046713	-0.758789	0.281982	0.453125	0.094098	-0.012484	-0.002096	0.212876	-0.744306	-0.209197	-0.597436	-161.103274	-78.074072	16.027392
49795		9.121873	-0.108599	-0.024938	1.758410	0.612624	-0.882218	0.359787	-0.735966	0.049002	-0.753174	0.290039	0.453369	0.091219	-0.001064	0.000084	0.213579	-0.746186	-0.210882	-0.594238	-161.412111	-77.662113	16.554114
49796		9.244824	-0.302089	0.233173	1.939175	0.960196	-0.816601	0.191764	-0.797616	0.106483	-0.755859	0.291260	0.462402	0.092440	-0.002974	0.002698	0.213756	-0.748474	-0.211917	-0.590920	-161.700383	-77.206177	16.961991
49797		9.660086	-0.935526	-0.101316	1.469078	1.350456	-0.314254	0.200212	-0.868884	0.132208	-0.741943	0.296875	0.470947	0.096610	-0.009291	-0.000603	0.213967	-0.750977	-0.212956	-0.587283	-161.952624	-76.706016	17.339348
49798		9.914907	-0.826809	-0.370368	1.450886	1.162873	-0.031677	0.375696	-0.919566	0.144406	-0.743896	0.297607	0.477295	0.099171	-0.008190	-0.003263	0.214808	-0.753437	-0.214510	-0.583246	-162.093660	-76.176206	17.705818
49799		9.768615	-0.035085	-0.653857	1.732745	0.383196	-0.184367	0.429711	-0.979678	0.164958	-0.735840	0.300781	0.480957	0.097717	-0.000257	-0.006061	0.215847	-0.756015	-0.216205	-0.578884	-162.181225	-75.609491	18.050503
49800		9.504975	0.108826	-1.383982	1.272123	-0.135851	-0.292487	0.375647	-1.001451	0.186554	-0.731689	0.305420	0.486572	0.095116	0.001202	-0.013361	0.216709	-0.758715	-0.217678	-0.574460	-162.254013	-75.027343	18.348204
49801		10.190250	-0.218789	-2.175710	0.733461	-0.233233	0.581030	0.299117	-1.051110	0.218874	-0.729736	0.300537	0.489258	0.102017	-0.002044	-0.021224	0.217319	-0.761653	-0.218857	-0.569876	-162.322093	-74.412093	18.597123
49802		11.523137	-0.357367	-2.260585	1.038752	-0.013303	1.889455	0.323672	-1.045531	0.229723	-0.727295	0.307617	0.499512	0.115351	-0.003405	-0.022009	0.218047	-0.764536	-0.220050	-0.565260	-162.341721	-73.798225	18.810317
49803		12.886219	0.663042	-1.998074	2.321817	-0.512581	3.025973	0.438997	-1.065057	0.213058	-0.722656	0.307861	0.510498	0.128959	0.006811	-0.019279	0.219143	-0.767305	-0.221648	-0.560439	-162.328154	-73.176351	19.058953
49804		12.256959	1.342576	-1.524381	3.040932	-0.785827	2.207827	0.215807	-1.117110	0.230826	-0.699219	0.313477	0.513672	0.122637	0.013583	-0.014544	0.219365	-0.770457	-0.222600	-0.555629	-162.430378	-72.523155	19.295296
49805		11.146486	1.411396	-0.678103	3.533671	-0.399937	0.866623	0.024229	-1.193800	0.280424	-0.695801	0.317871	0.518066	0.111483	0.014271	-0.006114	0.218894	-0.774061	-0.222904	-0.550662	-162.584762	-71.819207	19.472083
49806		10.811699	1.358468	0.117391	4.127390	0.125584	0.271915	-0.010937	-1.286666	0.333029	-0.681396	0.322021	0.536621	0.108084	0.013765	0.001869	0.218318	-0.777985	-0.223002	-0.545295	-162.709353	-71.055501	19.596861
49807		10.720608	1.008909	0.679553	4.446514	0.776474	-0.012960	-0.037550	-1.404612	0.404758	-0.677002	0.316406	0.535156	0.107134	0.010307	0.007546	0.217695	-0.782300	-0.222867	-0.539394	-162.784940	-70.215016	19.654629
49808		10.804803	1.507316	1.095935	5.215843	0.679125	-0.192501	0.074952	-1.543836	0.477060	-0.664063	0.328125	0.559082	0.107923	0.015326	0.011798	0.217536	-0.786903	-0.222889	-0.532712	-162.750026	-69.286048	19.663150
49809		10.878088	2.141094	1.409200	5.994357	0.411990	-0.389435	0.019815	-1.669258	0.563831	-0.654541	0.335938	0.552490	0.108597	0.021716	0.015001	0.217236	-0.791939	-0.222544	-0.525466	-162.680867	-68.273907	19.601232
49810		11.282954	2.552918	1.233077	6.413646	0.079885	-0.107139	-0.112033	-1.819252	0.662551	-0.641113	0.329590	0.576904	0.112626	0.025910	0.013341	0.216487	-0.797555	-0.221605	-0.517620	-162.624094	-67.162633	19.470473
49811		11.777769	2.681538	0.945191	6.648536	-0.076393	0.315790	-0.248178	-1.941282	0.769184	-0.633057	0.331543	0.586426	0.117574	0.027280	0.010560	0.215318	-0.803666	-0.220002	-0.509271	-162.568016	-65.966800	19.255122
49812		12.721445	3.017253	0.614807	7.176360	-0.361741	1.127144	-0.447923	-2.036840	0.805371	-0.609863	0.338379	0.600586	0.127021	0.030700	0.007374	0.213303	-0.810185	-0.217818	-0.500657	-162.630092	-64.712045	19.040994
49813		13.725498	2.701564	-0.044289	7.164376	-0.285112	2.198685	-0.575527	-2.056861	0.839238	-0.590332	0.342529	0.612061	0.137135	0.027593	0.000889	0.210808	-0.816818	-0.215172	-0.492006	-162.741207	-63.441444	18.798009
49814		14.263958	1.733507	-0.508025	6.779099	0.385386	2.860542	-0.684958	-2.116764	0.848273	-0.576416	0.333740	0.630859	0.142608	0.017926	-0.003631	0.207794	-0.823615	-0.212251	-0.483145	-162.930463	-62.136062	18.569482
49815		14.458180	2.198873	0.205029	7.893874	0.484451	2.490135	-0.728107	-2.184644	0.806538	-0.562256	0.337646	0.635498	0.144458	0.022583	0.003547	0.204400	-0.830452	-0.209440	-0.474030	-163.208865	-60.801893	18.411529
49816		13.114811	1.287550	-0.980823	6.201734	0.462107	1.846479	-0.918860	-2.166055	0.756641	-0.539551	0.331787	0.654053	0.131195	0.013331	-0.008448	0.200083	-0.837267	-0.206331	-0.465165	-163.631842	-59.485564	18.292141
49817		11.650134	-0.900661	-3.669945	2.703728	0.722821	2.110678	-0.735459	-2.087486	0.717875	-0.520752	0.326172	0.667480	0.116907	-0.008719	-0.035448	0.196497	-0.843548	-0.203707	-0.456420	-163.955619	-58.220417	18.178331
49818		10.729759	-2.359188	-6.428168	-0.172381	0.471715	2.905653	-0.568113	-2.030322	0.736253	-0.510010	0.320313	0.681885	0.108029	-0.023375	-0.063121	0.193691	-0.849449	-0.201300	-0.447659	-164.148664	-56.982805	18.021405
49819		10.028552	-2.502814	-8.127791	-1.514249	-0.281428	3.245577	-0.372819	-2.016324	0.625851	-0.480957	0.329590	0.692139	0.101176	-0.024863	-0.080214	0.191450	-0.854913	-0.199753	-0.438827	-164.318886	-55.771699	17.967613
49820		9.645308	-2.855496	-8.183695	-1.692691	0.035365	3.043696	-0.322608	-1.934232	0.443476	-0.473389	0.325684	0.697266	0.097301	-0.028471	-0.080853	0.189092	-0.859878	-0.199004	-0.430409	-164.581715	-54.632711	18.062530
49821		9.175838	-3.257935	-8.040791	-1.837364	0.455448	2.672382	0.134586	-1.756977	0.361622	-0.453857	0.324463	0.696777	0.092519	-0.032359	-0.079619	0.188680	-0.863865	-0.199401	-0.422347	-164.601113	-53.605146	18.180803
49822		8.479724	-3.302901	-7.830905	-1.914027	0.520795	2.027922	0.447802	-1.635816	0.308463	-0.437744	0.328125	0.713379	0.085485	-0.032723	-0.077685	0.189618	-0.867183	-0.200563	-0.414503	-164.453337	-52.651506	18.316759
49823		7.742296	-4.781858	-8.048293	-3.047006	1.570318	1.841992	0.186929	-1.537467	0.244525	-0.431152	0.329346	0.712646	0.078097	-0.047648	-0.079929	0.189372	-0.870420	-0.201347	-0.407390	-164.479231	-51.763245	18.483571
49824		6.453423	-7.462369	-8.938948	-5.563340	3.191377	1.853527	0.301133	-1.460674	0.145259	-0.411621	0.323242	0.716797	0.065239	-0.074442	-0.089027	0.189493	-0.873243	-0.202718	-0.400555	-164.488720	-50.931372	18.716607
49825		5.568844	-9.143715	-9.267696	-7.012085	4.266768	1.725640	0.896217	-1.415839	0.027315	-0.401611	0.334229	0.726807	0.056357	-0.091014	-0.092688	0.192008	-0.875234	-0.205739	-0.393409	-164.225008	-50.143867	19.039749
49826		5.259407	-8.462125	-8.935650	-6.534889	3.715483	1.259908	1.468918	-1.322787	-0.017915	-0.387207	0.340332	0.737061	0.053179	-0.083968	-0.089624	0.197021	-0.876375	-0.209980	-0.386081	-163.645319	-49.415222	19.382759
49827		5.301231	-6.320846	-7.376417	-4.369392	2.634116	0.007492	1.411181	-1.195977	-0.009737	-0.387207	0.359375	0.716309	0.053451	-0.062690	-0.073889	0.201902	-0.877259	-0.213905	-0.379338	-163.071550	-48.757862	19.690235
49828		5.545860	-3.764426	-5.172904	-1.510654	1.655676	-1.647972	1.153780	-0.915823	-0.007122	-0.368408	0.364746	0.723145	0.055694	-0.037348	-0.051690	0.205954	-0.877810	-0.217057	-0.374058	-162.592246	-48.254573	19.932858
49829		5.597142	-0.744710	-3.953582	0.882430	-0.195628	-2.979219	0.946109	-0.490708	-0.083646	-0.357910	0.367432	0.729980	0.056065	-0.007284	-0.039433	0.209407	-0.877657	-0.219706	-0.370939	-162.197663	-47.998726	20.130927
49830		5.521591	2.465003	-3.281352	2.976011	-2.475188	-4.125135	0.548625	-0.059182	-0.302721	-0.368408	0.376709	0.725830	0.055263	0.024656	-0.032730	0.211177	-0.876866	-0.222126	-0.370366	-162.080532	-48.016524	20.396216
49831		5.630929	3.496268	-2.307069	4.144016	-2.757528	-4.865277	-0.143688	0.401141	-0.385556	-0.371338	0.379395	0.712891	0.056330	0.034837	-0.023209	0.210269	-0.875850	-0.223137	-0.372671	-162.321156	-48.300580	20.608553
49832		5.095501	1.806168	-2.765553	2.591361	-1.758408	-4.610067	-0.320876	0.811165	-0.231679	-0.373535	0.365967	0.723145	0.050863	0.017958	-0.027891	0.209325	-0.874419	-0.222712	-0.376795	-162.491501	-48.780593	20.590484
49833		4.776301	0.309801	-3.205015	1.268099	-0.865218	-4.260747	-0.461846	1.163145	-0.229384	-0.376465	0.369385	0.717529	0.047579	0.002969	-0.032334	0.208155	-0.872445	-0.221634	-0.382609	-162.672654	-49.453601	20.479890
49834		4.778738	-1.067320	-3.453274	0.294970	0.105489	-3.829232	-0.522174	1.543634	-0.293321	-0.391113	0.354736	0.708252	0.047503	-0.010834	-0.034872	0.207009	-0.869691	-0.220315	-0.390188	-162.853602	-50.344970	20.325265
49835		5.004881	-2.006329	-4.134412	-0.588168	0.531271	-3.064503	-0.347971	1.887577	-0.425535	-0.411865	0.358643	0.702881	0.049613	-0.020242	-0.041779	0.206726	-0.865865	-0.219533	-0.399184	-162.950762	-51.448158	20.193332
49836		5.165659	-2.115129	-4.447082	-0.879476	0.448164	-2.744601	-0.289673	2.205609	-0.626221	-0.419434	0.349609	0.700684	0.051096	-0.021377	-0.045006	0.206619	-0.861028	-0.219385	-0.409646	-163.085963	-52.758416	20.154287
49837		5.272675	-2.194374	-4.652918	-1.158485	0.378154	-2.547855	-0.302676	2.539121	-0.798078	-0.433594	0.345703	0.683594	0.052042	-0.022223	-0.047159	0.206438	-0.855196	-0.219570	-0.421679	-163.284640	-54.281070	20.185474
49838		5.364429	-2.239562	-4.890321	-1.480761	0.251208	-2.366340	-0.240198	2.804189	-0.916040	-0.454590	0.331787	0.680420	0.052848	-0.022698	-0.049621	0.206525	-0.848444	-0.220075	-0.434807	-163.487580	-55.967578	20.265026
49839		5.709905	-2.124540	-4.888010	-1.457643	0.163262	-2.141131	-0.281181	3.037264	-1.007064	-0.479004	0.329590	0.666504	0.056240	-0.021600	-0.049708	0.206448	-0.840923	-0.220582	-0.448967	-163.747573	-57.797595	20.382856
49840		6.054609	-1.855696	-5.033861	-1.482091	-0.143323	-1.861710	-0.192038	3.273209	-1.090910	-0.505127	0.316895	0.642578	0.059609	-0.018933	-0.051301	0.206760	-0.832458	-0.221340	-0.463975	-163.991838	-59.769646	20.539739
49841		6.451957	-1.674400	-5.202657	-1.584631	-0.397624	-1.516794	-0.132337	3.471251	-1.167784	-0.530762	0.312012	0.622803	0.063505	-0.017152	-0.053123	0.207297	-0.823120	-0.222278	-0.479681	-164.248631	-61.863331	20.746766
49842		6.959833	-2.050554	-5.418924	-2.031484	-0.218507	-0.990894	-0.225732	3.645967	-1.214440	-0.553711	0.316406	0.615234	0.068469	-0.020986	-0.055421	0.207458	-0.813121	-0.222928	-0.496082	-164.595821	-64.059246	20.991251
49843		7.538609	-2.510293	-5.824783	-2.688377	-0.081492	-0.335680	-0.197572	3.757504	-1.251851	-0.581787	0.302734	0.585205	0.074115	-0.025628	-0.059623	0.207687	-0.802463	-0.223597	-0.512761	-164.988220	-66.322428	21.298548
49844		8.251308	-2.621692	-5.920381	-2.929589	-0.055790	0.257447	-0.033190	3.829328	-1.339205	-0.600586	0.289063	0.565918	0.081182	-0.026774	-0.060762	0.208347	-0.791033	-0.224875	-0.529424	-165.451143	-68.636417	21.778960
49845		8.894437	-2.518475	-5.789113	-2.956631	-0.106987	0.684812	0.186261	3.860398	-1.474199	-0.629883	0.287842	0.542969	0.087616	-0.025779	-0.059615	0.209467	-0.778807	-0.227139	-0.545886	-166.097210	-70.985438	22.580657
49846		9.335490	-2.206578	-5.463456	-2.815191	-0.249630	0.858046	0.305166	3.826922	-1.623932	-0.651855	0.272461	0.516357	0.092104	-0.022732	-0.056439	0.210512	-0.766045	-0.230251	-0.562001	-167.165300	-73.330697	23.886102
49847		9.464869	-1.488405	-5.061316	-2.469157	-0.703717	0.713838	0.350159	3.742080	-1.703031	-0.676514	0.258789	0.503418	0.093549	-0.015593	-0.052397	0.211319	-0.753052	-0.233780	-0.577584	-168.799220	-75.628438	25.789486
49848		9.447829	-0.869446	-4.630538	-2.170593	-1.061914	0.463793	0.300150	3.594723	-1.625036	-0.695557	0.257568	0.475830	0.093551	-0.009386	-0.048006	0.211905	-0.740324	-0.236934	-0.592350	-170.987125	-77.816607	28.213702
49849		9.890255	-0.692632	-4.556241	-2.302361	-1.223562	0.781888	0.273531	3.384817	-1.493451	-0.717529	0.239014	0.438965	0.098057	-0.007597	-0.047237	0.212456	-0.728129	-0.239655	-0.606017	-173.836546	-79.849683	31.277140
49850		10.251930	-0.385957	-4.532568	-2.406612	-1.524486	1.034766	0.223495	3.153351	-1.418262	-0.732178	0.231201	0.420898	0.101757	-0.004531	-0.046939	0.212706	-0.716546	-0.242122	-0.618623	-177.908741	-81.707981	35.531746
49851		10.104214	0.363222	-4.240412	-2.079425	-2.043275	0.756095	-0.002469	2.920991	-1.366490	-0.748535	0.219727	0.404053	0.100430	0.002944	-0.043874	0.211967	-0.705783	-0.243882	-0.630446	175.878223	-83.366640	41.795461
49852		9.613033	0.595646	-3.852856	-1.984201	-2.099509	0.150088	-0.405673	2.679020	-1.194590	-0.762695	0.213867	0.374756	0.095636	0.005304	-0.039823	0.210000	-0.696253	-0.243965	-0.641571	166.898108	-84.782274	50.589228
49853		9.254059	-0.151632	-3.863464	-2.738652	-1.593381	-0.297333	-0.703534	2.402743	-0.944381	-0.772705	0.205811	0.365479	0.092059	-0.002090	-0.039736	0.207421	-0.688088	-0.242461	-0.651709	154.635402	-85.906439	62.487057
49854		9.628087	-0.752760	-3.498120	-3.031732	-0.914937	-0.041786	-0.884542	2.084015	-0.735270	-0.772217	0.192871	0.350586	0.095881	-0.008038	-0.035947	0.204481	-0.681293	-0.239942	-0.660648	138.531402	-86.674702	78.116188
49855		10.112965	-0.980866	-3.357491	-3.252789	-0.654494	0.360538	-0.970214	1.751498	-0.589523	-0.786621	0.185547	0.348633	0.100801	-0.010272	-0.034410	0.201306	-0.675774	-0.236952	-0.668326	119.862045	-87.049009	96.256154
49856		9.743929	-1.007349	-3.303679	-3.391207	-0.643136	-0.068088	-0.983346	1.429697	-0.429248	-0.787354	0.177246	0.342041	0.097178	-0.010447	-0.033681	0.198222	-0.671470	-0.233679	-0.674707	102.571377	-87.114709	113.004767
49857		8.769206	-1.516864	-3.132926	-3.650694	-0.186841	-1.114889	-0.964938	1.098643	-0.251277	-0.795898	0.179443	0.331787	0.087499	-0.015431	-0.031736	0.195401	-0.668429	-0.230182	-0.679734	89.513808	-87.036256	125.525514
49858		8.170501	-1.729028	-3.072116	-3.781105	-0.009800	-1.757421	-0.646165	0.768937	-0.108840	-0.799561	0.171143	0.318848	0.081577	-0.017435	-0.030979	0.193741	-0.666332	-0.227607	-0.683126	80.964461	-86.936646	133.715882
49859		8.136941	-1.540247	-2.771335	-3.468884	-0.005792	-1.798377	-0.247066	0.459917	0.023740	-0.800049	0.159180	0.324951	0.081307	-0.015427	-0.027881	0.193509	-0.665047	-0.226247	-0.684893	76.048293	-86.897604	138.497286
49860		8.187191	-1.424583	-2.710554	-3.371226	-0.082294	-1.748280	0.044120	0.158578	0.175006	-0.796631	0.166260	0.318115	0.081863	-0.014168	-0.027174	0.194422	-0.664679	-0.225674	-0.685181	74.020257	-86.971035	140.553505
49861		8.423171	-1.334696	-2.812010	-3.402062	-0.227253	-1.505289	0.239849	-0.122015	0.312663	-0.801025	0.175049	0.316162	0.084270	-0.013182	-0.028085	0.196140	-0.665238	-0.225584	-0.684178	74.602744	-87.162979	140.107744
49862		8.713177	-1.253734	-3.040963	-3.517666	-0.439158	-1.200392	0.443991	-0.365709	0.430500	-0.791016	0.184326	0.326904	0.087214	-0.012282	-0.030278	0.198663	-0.666554	-0.226039	-0.682015	78.024570	-87.452252	136.936782
49863		8.846277	-1.052915	-3.309092	-3.564427	-0.780503	-1.037699	0.612100	-0.566840	0.530529	-0.785889	0.184082	0.323975	0.088583	-0.010193	-0.032872	0.201858	-0.668494	-0.226928	-0.678876	85.157734	-87.801224	130.148448
49864		8.792870	-0.866208	-3.526066	-3.549314	-1.089999	-1.054183	0.774929	-0.711280	0.607301	-0.787842	0.191406	0.320068	0.088079	-0.008259	-0.034980	0.205686	-0.670823	-0.228253	-0.674975	97.446482	-88.140617	118.296342
49865		8.719116	-0.472453	-3.548954	-3.236589	-1.455952	-1.080859	0.866652	-0.838006	0.669485	-0.792969	0.194092	0.328125	0.087354	-0.004280	-0.035143	0.209880	-0.673532	-0.229798	-0.670446	116.921013	-88.366722	99.309675
49866		8.782384	-0.185971	-3.440743	-2.866700	-1.649245	-0.977288	0.820664	-0.918982	0.730156	-0.779297	0.207275	0.337402	0.087986	-0.001399	-0.034010	0.214017	-0.676592	-0.231061	-0.665606	141.150735	-88.356854	75.540689
49867		8.710363	-0.272074	-3.710282	-3.012408	-1.769417	-1.009068	0.775769	-0.974450	0.786735	-0.775146	0.214844	0.342285	0.087292	-0.002235	-0.036687	0.218117	-0.679920	-0.232028	-0.660528	162.909955	-88.066121	54.215845
49868		8.409803	-0.587498	-3.493918	-2.912620	-1.416946	-1.281278	0.438062	-1.045063	0.850564	-0.772705	0.226074	0.348877	0.084303	-0.005441	-0.034511	0.221184	-0.683882	-0.231729	-0.655503	178.300089	-87.546706	39.065850
49869		8.430075	-1.195232	-3.688813	-3.314089	-1.066271	-1.211491	0.250330	-1.042287	0.887992	-0.764160	0.226318	0.352295	0.084543	-0.011531	-0.036463	0.223727	-0.688059	-0.230671	-0.650625	-171.759194	-86.914656	29.257323
49870		8.612050	-1.345849	-3.428437	-3.068899	-0.796310	-0.999105	0.177484	-1.043181	0.906335	-0.760010	0.233643	0.357910	0.086358	-0.013037	-0.033846	0.226064	-0.692301	-0.229304	-0.645782	-165.188921	-86.220817	22.777225
49871		8.977337	-1.582578	-2.497349	-2.329613	-0.038834	-0.652783	-0.246623	-1.032636	0.936927	-0.750244	0.239502	0.374023	0.089974	-0.015435	-0.024490	0.227036	-0.696996	-0.226436	-0.641387	-160.664985	-85.492636	18.099894
49872		8.969298	-2.619452	-3.185608	-3.380542	0.367399	-0.544811	-0.299348	-0.946613	0.880720	-0.747803	0.246582	0.376953	0.089957	-0.025846	-0.031392	0.227728	-0.701372	-0.223489	-0.637393	-157.584109	-84.802762	14.835832
49873		8.422499	-1.053186	-3.730994	-2.807044	-1.227266	-1.061601	0.564770	-0.834064	0.540305	-0.743896	0.254883	0.390381	0.084408	-0.010199	-0.036987	0.230484	-0.704005	-0.224351	-0.633183	-156.265221	-84.237439	13.836001
49874		9.629540	2.073087	3.324289	4.840913	0.625638	-0.633882	0.244112	-0.529423	0.124698	-0.744873	0.251709	0.382568	0.096194	0.020750	0.033523	0.231131	-0.705555	-0.225307	-0.630879	-156.683730	-83.927881	14.397329
