// General information: 
//  MT Manager version: 2019.2.0 
//  XDA version: 2019.2.0 build 3853 rev 94535 built on 2019-09-09
// Device information: 
//  DeviceId: 00B47787
//  ProductCode: MTW2-3A7G6
//  Firmware Version: 4.6.0
//  Hardware Version: 2.0.0
// Device settings: 
//  Filter Profile: human(46.1)
//  Option Flags: Orientation Smoother Disabled, AHS Disabled, ICC Disabled
// Coordinate system: ENU
PacketCounter	SampleTimeFine	Acc_X	Acc_Y	Acc_Z	FreeAcc_E	FreeAcc_N	FreeAcc_U	Gyr_X	Gyr_Y	Gyr_Z	Mag_X	Mag_Y	Mag_Z	VelInc_X	VelInc_Y	VelInc_Z	Quat_q0	Quat_q1	Quat_q2	Quat_q3	Roll	Pitch	Yaw
49335		7.109652	2.127431	6.704213	0.006294	-0.067205	0.188064	-0.061487	-0.021503	0.010756	-0.775635	0.188965	-0.384033	0.071088	0.021299	0.067043	0.364794	-0.309718	-0.258489	-0.839157	17.127267	-45.104389	-140.166182
49336		7.065557	2.060766	6.678830	-0.023497	-0.025688	0.125844	-0.058930	-0.021727	0.009891	-0.777832	0.187256	-0.375732	0.070647	0.020631	0.066790	0.364840	-0.309964	-0.258289	-0.839107	17.085309	-45.125576	-140.144311
49337		7.000380	2.179016	6.734509	0.127537	-0.032404	0.141694	-0.059186	-0.013768	0.011047	-0.781982	0.184326	-0.376221	0.069998	0.021814	0.067343	0.364822	-0.310205	-0.258042	-0.839102	17.041261	-45.142725	-140.130512
49338		7.016740	2.143259	6.735861	0.097220	-0.019830	0.146739	-0.058232	-0.010866	0.013203	-0.787354	0.180176	-0.379395	0.070162	0.021457	0.067356	0.364801	-0.310440	-0.257784	-0.839103	16.996013	-45.158638	-140.116574
49339		6.990689	2.276012	6.636370	0.186251	-0.156490	0.088433	-0.055802	0.001838	0.023161	-0.770264	0.186523	-0.379150	0.069905	0.022787	0.066357	0.364859	-0.310624	-0.257505	-0.839096	16.944565	-45.169244	-140.089613
49340		6.907205	2.290207	6.741246	0.282298	-0.062736	0.102720	-0.055575	0.022645	0.029402	-0.780029	0.187012	-0.379395	0.069076	0.022931	0.067398	0.364966	-0.310729	-0.257177	-0.839111	16.886372	-45.169350	-140.053444
49341		6.926669	2.099602	6.663209	0.102923	-0.014263	0.024722	-0.048842	0.036612	0.041163	-0.775391	0.180176	-0.385010	0.069275	0.021027	0.066614	0.365155	-0.310778	-0.256835	-0.839115	16.823150	-45.163839	-140.004256
49342		6.953152	1.935688	6.696404	-0.023225	0.088330	0.032448	-0.033296	0.033201	0.034338	-0.775879	0.194336	-0.385010	0.069539	0.019380	0.066949	0.365357	-0.310795	-0.256583	-0.839098	16.773287	-45.158852	-139.958196
49343		7.019124	1.925828	6.685241	-0.067171	0.052357	0.069727	-0.026946	0.026984	0.025681	-0.776855	0.185303	-0.376709	0.070198	0.019276	0.066840	0.365503	-0.310825	-0.256375	-0.839087	16.732771	-45.156006	-139.923330
49344		7.059774	1.962721	6.702033	-0.052278	0.019055	0.117410	-0.020037	0.021725	0.023212	-0.778320	0.189453	-0.374512	0.070603	0.019642	0.067011	0.365704	-0.310841	-0.256231	-0.839038	16.698375	-45.155539	-139.883094
49345		7.073219	1.966421	6.685373	-0.059665	-0.003397	0.116455	-0.017481	0.021491	0.022362	-0.781738	0.195313	-0.387939	0.070737	0.019678	0.066844	0.365843	-0.310872	-0.256077	-0.839012	16.666027	-45.155131	-139.852097
49346		7.038517	1.966682	6.694099	-0.035422	0.014960	0.097814	-0.011219	0.022248	0.025087	-0.778320	0.191650	-0.378662	0.070390	0.019679	0.066932	0.366062	-0.310874	-0.255965	-0.838951	16.635531	-45.154701	-139.810941
49347		7.022202	1.995393	6.695079	-0.002036	0.002933	0.092714	-0.006521	0.025444	0.022881	-0.779785	0.187744	-0.385010	0.070228	0.019964	0.066941	0.366226	-0.310869	-0.255849	-0.838917	16.608527	-45.152185	-139.778622
49348		7.077998	1.947671	6.821584	-0.024717	0.086540	0.208160	-0.013540	0.020140	0.020218	-0.777100	0.187744	-0.385498	0.070785	0.019488	0.068207	0.366392	-0.310885	-0.255729	-0.838875	16.579843	-45.152033	-139.745289
49349		7.145505	1.956469	6.719616	-0.085773	-0.019067	0.188889	-0.012356	0.015426	0.025182	-0.779297	0.192139	-0.379639	0.071458	0.019578	0.067189	0.366543	-0.310935	-0.255603	-0.838828	16.549872	-45.155372	-139.713501
49350		7.054546	2.101934	6.735365	0.083972	-0.057477	0.164263	-0.021602	0.018931	0.026745	-0.772461	0.190430	-0.378418	0.070549	0.021036	0.067345	0.366727	-0.310978	-0.255443	-0.838780	16.513170	-45.156910	-139.674758
49351		7.007628	2.036845	6.711957	0.053969	-0.016010	0.102088	-0.023230	0.028012	0.029202	-0.783203	0.193604	-0.379883	0.070083	0.020386	0.067107	0.366894	-0.311001	-0.255243	-0.838760	16.472684	-45.153960	-139.636928
49352		6.996038	2.047976	6.743674	0.082470	-0.000724	0.117523	-0.023054	0.026699	0.035408	-0.773926	0.192871	-0.374023	0.069966	0.020500	0.067425	0.367102	-0.311031	-0.255042	-0.838719	16.429042	-45.152677	-139.592335
49353		7.077705	2.006617	6.733105	0.006777	-0.024465	0.159999	-0.028945	0.022977	0.041121	-0.778320	0.194092	-0.381592	0.070781	0.020090	0.067320	0.367304	-0.311101	-0.254808	-0.838676	16.379522	-45.154382	-139.546378
49354		7.063751	1.920235	6.792471	-0.028734	0.068462	0.173104	-0.025004	0.021618	0.038987	-0.780273	0.193115	-0.372314	0.070641	0.019225	0.067915	0.367516	-0.311162	-0.254601	-0.838623	16.333581	-45.156446	-139.500319
49355		7.096188	1.950350	6.768247	-0.026900	0.015606	0.185710	-0.031049	0.018873	0.034513	-0.776855	0.186768	-0.386719	0.070965	0.019526	0.067673	0.367682	-0.311244	-0.254377	-0.838588	16.287165	-45.159291	-139.460444
49356		7.100781	1.892520	6.819677	-0.053237	0.078140	0.212370	-0.027280	0.018830	0.026173	-0.770508	0.196045	-0.380371	0.071012	0.018944	0.068188	0.367787	-0.311317	-0.254169	-0.838578	16.247610	-45.160705	-139.431396
49357		7.110718	1.873877	6.791865	-0.078686	0.063359	0.196956	-0.029384	0.009113	0.024097	-0.776855	0.191895	-0.381348	0.071108	0.018757	0.067913	0.367899	-0.311424	-0.253986	-0.838545	16.209473	-45.167211	-139.401855
49358		7.098187	1.806348	6.760404	-0.131457	0.086621	0.153527	-0.021676	0.007699	0.013643	-0.784180	0.190430	-0.386475	0.070983	0.018076	0.067599	0.368016	-0.311496	-0.253867	-0.838502	16.181721	-45.172719	-139.375394
49359		7.064283	1.807713	6.767864	-0.107281	0.105018	0.134843	-0.007878	0.002738	0.004239	-0.782227	0.195313	-0.375732	0.070643	0.018081	0.067677	0.368071	-0.311565	-0.253816	-0.838468	16.167909	-45.179545	-139.362782
49360		7.071156	1.925745	6.751184	-0.023608	0.019988	0.151612	-0.001533	0.002104	-0.008896	-0.772949	0.192383	-0.376709	0.070713	0.019255	0.067511	0.368050	-0.311616	-0.253804	-0.838462	16.165175	-45.184545	-139.364461
49361		7.103394	1.998409	6.705959	0.001236	-0.067836	0.158127	-0.002917	0.003230	-0.007614	-0.776611	0.192627	-0.378662	0.071036	0.019982	0.067058	0.368063	-0.311658	-0.253791	-0.838444	16.160688	-45.189207	-139.360989
49362		7.112318	1.966424	6.766656	-0.006989	-0.012985	0.199270	-0.003130	0.005237	-0.005886	-0.778076	0.193115	-0.379639	0.071126	0.019663	0.067664	0.368070	-0.311699	-0.253765	-0.838434	16.154816	-45.192972	-139.357868
49363		7.081602	1.836425	6.761407	-0.091988	0.075642	0.148436	-0.007814	0.001709	-0.007669	-0.774414	0.200195	-0.382080	0.070817	0.018364	0.067613	0.368073	-0.311756	-0.253735	-0.838421	16.147795	-45.198462	-139.354782
49364		7.133525	1.861772	6.747305	-0.103870	0.027333	0.180709	-0.005642	0.004797	-0.012989	-0.781494	0.198975	-0.379150	0.071338	0.018615	0.067471	0.368106	-0.311777	-0.253733	-0.838399	16.144390	-45.201347	-139.348990
49365		7.072444	1.794681	6.740383	-0.125180	0.091454	0.119537	0.005153	0.004437	-0.014129	-0.778809	0.197266	-0.381836	0.070727	0.017940	0.067403	0.368105	-0.311791	-0.253762	-0.838385	16.147940	-45.204305	-139.350329
49366		7.064201	1.715894	6.738195	-0.182894	0.141963	0.096748	0.006390	0.004295	-0.025593	-0.781982	0.196533	-0.384766	0.070646	0.017148	0.067381	0.368092	-0.311779	-0.253826	-0.838376	16.158473	-45.205500	-139.355980
49367		6.937909	1.791415	6.697311	-0.071916	0.129849	-0.005767	0.022195	-0.001854	-0.042016	-0.780518	0.200928	-0.375977	0.069382	0.017892	0.066976	0.367994	-0.311752	-0.253982	-0.838382	16.188258	-45.207469	-139.380527
49368		6.950344	2.170206	6.775776	0.238693	-0.048488	0.130596	0.034970	0.002552	-0.050731	-0.781494	0.195557	-0.370117	0.069510	0.021673	0.067761	0.367920	-0.311662	-0.254209	-0.838379	16.229354	-45.205612	-139.405851
49369		6.951348	2.309169	6.728295	0.327356	-0.160720	0.126651	0.020718	0.006255	-0.029385	-0.775879	0.189697	-0.371582	0.069519	0.023075	0.067283	0.367882	-0.311621	-0.254324	-0.838376	16.249987	-45.205125	-139.418695
49370		7.046067	2.010626	6.631179	0.011160	-0.086649	0.069346	0.021320	0.000921	-0.026631	-0.777832	0.191895	-0.368164	0.070464	0.020090	0.066314	0.367764	-0.311631	-0.254415	-0.838397	16.270286	-45.208074	-139.442401
49371		6.952123	2.010668	6.781867	0.111030	0.057397	0.104616	0.023450	-0.000909	-0.019494	-0.785156	0.193604	-0.375000	0.069523	0.020092	0.067821	0.367763	-0.311627	-0.254539	-0.838361	16.288165	-45.213110	-139.449159
49372		7.091859	1.948617	6.803749	-0.005688	0.047293	0.206309	0.026216	0.002453	-0.026588	-0.782959	0.192139	-0.365234	0.070922	0.019468	0.068039	0.367651	-0.311623	-0.254647	-0.838379	16.311008	-45.215220	-139.472870
49373		7.114563	2.056695	6.697023	0.028949	-0.095111	0.171662	0.029406	-0.009067	-0.024118	-0.780518	0.186279	-0.367920	0.071145	0.020549	0.066976	0.367629	-0.311636	-0.254818	-0.838331	16.336191	-45.223993	-139.485112
49374		7.116270	1.940073	6.493602	-0.131568	-0.156338	0.012296	0.029949	-0.002501	-0.022468	-0.787598	0.190674	-0.364990	0.071164	0.019383	0.064940	0.367462	-0.311673	-0.254917	-0.838361	16.359774	-45.229516	-139.516739
49375		7.074968	2.028090	6.781382	0.053789	0.000901	0.194939	0.027331	0.009638	-0.022742	-0.787354	0.191895	-0.364990	0.070755	0.020264	0.067813	0.367466	-0.311614	-0.255043	-0.838343	16.379970	-45.228222	-139.523632
49376		7.041281	2.150783	6.830584	0.182356	-0.023606	0.228656	0.018262	0.006217	-0.010442	-0.780273	0.196045	-0.358154	0.070416	0.021498	0.068306	0.367319	-0.311658	-0.255050	-0.838388	16.388725	-45.230964	-139.546953
49377		7.246705	1.847540	6.754809	-0.188310	0.015904	0.263020	0.017287	0.003669	-0.008641	-0.792480	0.190186	-0.364990	0.072469	0.018466	0.067548	0.367360	-0.311661	-0.255123	-0.838348	16.396326	-45.235229	-139.544214
49378		7.023163	2.050955	6.877078	0.130307	0.077228	0.227357	0.009046	0.003768	-0.008332	-0.790527	0.201416	-0.355713	0.070234	0.020504	0.068770	0.367215	-0.311732	-0.255097	-0.838392	16.398950	-45.239689	-139.564903
49379		7.267405	2.182914	6.633499	0.021073	-0.274051	0.262433	-0.010555	0.015547	0.011919	-0.786865	0.193848	-0.360840	0.072678	0.021837	0.066328	0.367314	-0.311762	-0.254999	-0.838368	16.377265	-45.240749	-139.543390
49380		7.069918	2.106582	6.745398	0.107469	-0.067750	0.182596	-0.025052	0.032458	0.025954	-0.786133	0.186279	-0.356445	0.070707	0.021083	0.067440	0.367365	-0.311798	-0.254748	-0.838408	16.336621	-45.234907	-139.521275
49381		7.150106	1.911270	6.713356	-0.095404	-0.013568	0.179151	-0.027749	0.051243	0.033057	-0.786377	0.197021	-0.351318	0.071515	0.019134	0.067113	0.367571	-0.311737	-0.254480	-0.838422	16.287583	-45.219720	-139.475106
49382		7.001570	1.779711	6.750734	-0.103860	0.152168	0.073050	-0.019810	0.047838	0.020859	-0.789307	0.195557	-0.355713	0.070030	0.017811	0.067489	0.367700	-0.311670	-0.254258	-0.838458	16.250421	-45.204411	-139.443838
49383		7.090867	2.054908	6.828569	0.088791	-0.007743	0.243378	-0.015265	0.041144	0.021497	-0.781250	0.200684	-0.361084	0.070921	0.020562	0.068270	0.367863	-0.311613	-0.254078	-0.838462	16.216622	-45.192882	-139.409044
49384		7.123348	1.720119	6.708754	-0.227479	0.095472	0.119453	-0.012871	0.042230	0.014435	-0.783447	0.192139	-0.355713	0.071246	0.017211	0.067071	0.368003	-0.311538	-0.253917	-0.838477	16.187917	-45.179574	-139.379514
49385		7.197785	1.964882	6.633626	-0.101862	-0.138410	0.169514	-0.009469	0.028695	0.015192	-0.788818	0.192871	-0.364990	0.071986	0.019657	0.066325	0.368133	-0.311515	-0.253795	-0.838466	16.162960	-45.173865	-139.352490
49386		7.344943	1.840548	6.548090	-0.303985	-0.190516	0.191541	-0.011674	0.025952	0.024486	-0.783936	0.198730	-0.355713	0.073456	0.018418	0.065470	0.368295	-0.311519	-0.253653	-0.838436	16.132012	-45.171097	-139.318929
49387		7.280004	1.995224	6.426534	-0.187715	-0.336266	0.093442	-0.010126	0.023510	0.029418	-0.784180	0.194092	-0.365234	0.072805	0.019966	0.064256	0.368477	-0.311536	-0.253516	-0.838391	16.099642	-45.170484	-139.281979
49388		7.104962	2.068121	6.672546	0.047909	-0.141198	0.150156	-0.011462	0.012731	0.031809	-0.788086	0.200928	-0.354248	0.071051	0.020696	0.066720	0.368654	-0.311604	-0.253388	-0.838327	16.066872	-45.176141	-139.245598
49389		7.059236	1.849275	6.623816	-0.109975	-0.021985	0.042006	-0.004264	-0.012419	0.029331	-0.788086	0.203857	-0.360352	0.070586	0.018505	0.066242	0.368799	-0.311762	-0.253341	-0.838219	16.043625	-45.195270	-139.216785
49390		7.044262	1.707552	6.687623	-0.186642	0.113542	0.047026	0.015042	-0.038760	0.006322	-0.792480	0.194092	-0.354736	0.070429	0.017073	0.066891	0.368845	-0.311964	-0.253459	-0.838087	16.048357	-45.225228	-139.211901
49391		7.082033	1.668690	6.696173	-0.230653	0.130615	0.072057	0.028249	-0.067160	-0.013234	-0.794922	0.202148	-0.356445	0.070799	0.016673	0.066988	0.368793	-0.312237	-0.253716	-0.837931	16.076089	-45.267752	-139.228672
49392		7.064428	1.723240	6.818534	-0.134594	0.195733	0.152837	0.046403	-0.100314	-0.036179	-0.786865	0.200439	-0.351074	0.070613	0.017204	0.068225	0.368631	-0.312586	-0.254145	-0.837742	16.132328	-45.324845	-139.271014
49393		7.211655	1.756392	6.703450	-0.222551	0.046072	0.186186	0.052898	-0.130661	-0.046602	-0.793457	0.201660	-0.350342	0.072077	0.017529	0.067086	0.368397	-0.313037	-0.254674	-0.837516	16.203163	-45.396967	-139.328482
49394		7.229795	1.786294	6.643778	-0.225105	-0.003727	0.164781	0.054611	-0.146328	-0.056533	-0.792480	0.201904	-0.354980	0.072254	0.017824	0.066496	0.368104	-0.313537	-0.255253	-0.837281	16.283241	-45.476039	-139.397560
49395		7.324754	2.024754	6.524671	-0.126292	-0.252588	0.199466	0.043541	-0.137283	-0.046346	-0.786865	0.196533	-0.343262	0.073207	0.020216	0.065301	0.367848	-0.314033	-0.255754	-0.837055	16.350068	-45.551739	-139.456772
49396		7.122307	2.258974	6.689607	0.223730	-0.179061	0.212228	0.029356	-0.105479	-0.025526	-0.797607	0.198486	-0.349121	0.071191	0.022571	0.066937	0.367697	-0.314448	-0.256105	-0.836858	16.391979	-45.613258	-139.492498
49397		7.094060	2.109864	6.666831	0.120234	-0.082879	0.147359	0.013259	-0.079485	-0.009002	-0.785645	0.187988	-0.347656	0.070915	0.021091	0.066698	0.367623	-0.314805	-0.256314	-0.836693	16.411204	-45.663170	-139.509271
49398		7.054502	2.128759	6.698078	0.171359	-0.049384	0.143721	0.007017	-0.057080	0.000226	-0.788574	0.198730	-0.349365	0.070526	0.021285	0.067002	0.367606	-0.315092	-0.256441	-0.836553	16.417940	-45.702239	-139.513658
49399		7.158309	1.948284	6.740400	-0.004761	0.043901	0.210697	0.003600	-0.048462	0.011960	-0.788330	0.194580	-0.351563	0.071566	0.019486	0.067422	0.367645	-0.315363	-0.256520	-0.836410	16.414713	-45.738492	-139.506777
49400		7.153660	1.904664	6.715309	-0.039615	0.059434	0.181955	0.000101	-0.051457	0.006654	-0.794678	0.203613	-0.343750	0.071519	0.019049	0.067172	0.367651	-0.315647	-0.256597	-0.836276	16.412933	-45.775510	-139.504783
49401		7.168802	2.060697	6.614752	0.044974	-0.102846	0.156291	0.001332	-0.062097	0.012149	-0.794189	0.200195	-0.343750	0.071666	0.020611	0.066170	0.367669	-0.315980	-0.256691	-0.836113	16.410553	-45.819287	-139.500906
49402		7.263172	2.103214	6.599100	0.029050	-0.176895	0.221911	-0.000658	-0.060539	0.023138	-0.798828	0.204102	-0.343018	0.072609	0.021041	0.066013	0.367731	-0.316324	-0.256756	-0.835936	16.400513	-45.863965	-139.488024
49403		7.333174	2.032358	6.429479	-0.113600	-0.274859	0.145006	-0.004236	-0.055852	0.037150	-0.792480	0.202881	-0.341064	0.073310	0.020339	0.064315	0.367853	-0.316674	-0.256776	-0.835744	16.379701	-45.908350	-139.462923
49404		7.305740	1.919724	6.491551	-0.158499	-0.151621	0.144787	-0.006678	-0.039798	0.034630	-0.792725	0.202881	-0.335693	0.073041	0.019212	0.064929	0.367980	-0.316957	-0.256759	-0.835586	16.356176	-45.943480	-139.436072
49405		7.226017	1.761707	6.499610	-0.230784	-0.014654	0.062047	-0.009316	-0.022439	0.025906	-0.790527	0.207031	-0.344482	0.072251	0.017629	0.065003	0.368090	-0.317161	-0.256714	-0.835474	16.333195	-45.967668	-139.412033
49406		7.115105	1.749609	6.729390	-0.099661	0.194619	0.133303	-0.011424	0.006709	0.010372	-0.784668	0.199707	-0.343506	0.071152	0.017504	0.067291	0.368168	-0.317228	-0.256630	-0.835440	16.312941	-45.973308	-139.393530
49407		7.229939	1.724712	6.621411	-0.214974	0.082871	0.139029	-0.018522	0.048296	0.017558	-0.795898	0.199463	-0.339111	0.072314	0.017260	0.066195	0.368318	-0.317143	-0.256430	-0.835467	16.277645	-45.957240	-139.359702
49408		7.083595	1.845801	6.655977	-0.032243	0.093336	0.080572	-0.027313	0.081068	0.006733	-0.785400	0.205322	-0.341553	0.070862	0.018469	0.066529	0.368452	-0.316924	-0.256149	-0.835578	16.238030	-45.921382	-139.326932
49409		7.185705	1.706506	6.730278	-0.171897	0.171251	0.176520	-0.022690	0.101394	-0.005075	-0.783447	0.204590	-0.344971	0.071892	0.017071	0.067264	0.368569	-0.316596	-0.255868	-0.835736	16.204504	-45.872449	-139.298855
49410		7.226641	1.972917	6.517355	-0.063055	-0.156402	0.115263	-0.024907	0.115469	-0.009363	-0.791748	0.198975	-0.341797	0.072305	0.019734	0.065129	0.368683	-0.316207	-0.255559	-0.835928	16.169849	-45.815063	-139.271022
49411		7.254937	1.753025	6.286791	-0.333363	-0.201123	-0.061823	-0.026459	0.152285	-0.011412	-0.790771	0.204346	-0.343994	0.072598	0.017534	0.062810	0.368832	-0.315665	-0.255179	-0.836183	16.129561	-45.737087	-139.236465
49412		7.007449	1.856847	6.569563	-0.034721	0.023055	-0.029558	-0.006201	0.191692	-0.026080	-0.791016	0.197021	-0.343262	0.070140	0.018561	0.065628	0.369002	-0.314902	-0.254834	-0.836501	16.102815	-45.635068	-139.204643
49413		7.022701	1.762871	6.764095	-0.061797	0.187204	0.093882	0.003713	0.187502	-0.041459	-0.784912	0.205566	-0.348633	0.070294	0.017613	0.067575	0.369118	-0.314118	-0.254563	-0.836827	16.091225	-45.532911	-139.185948
49414		7.106273	1.811543	6.705864	-0.099891	0.070715	0.123832	0.016511	0.151998	-0.048651	-0.783936	0.199219	-0.343018	0.071118	0.018093	0.067006	0.369179	-0.313450	-0.254421	-0.837094	16.096738	-45.449149	-139.181002
49415		6.921743	1.930078	6.939765	0.158580	0.231342	0.173172	0.024860	0.105307	-0.054744	-0.783203	0.201660	-0.346680	0.069259	0.019273	0.069364	0.369167	-0.312954	-0.254410	-0.837288	16.118001	-45.390128	-139.191368
49416		6.999754	2.087225	6.776626	0.176042	-0.009625	0.149472	0.022594	0.080445	-0.045479	-0.785400	0.198242	-0.344727	0.070030	0.020849	0.067740	0.369159	-0.312578	-0.254420	-0.837429	16.136729	-45.346254	-139.200095
49417		7.090558	1.944564	6.708176	-0.012827	-0.013605	0.140031	0.020734	0.063109	-0.044741	-0.798340	0.197998	-0.345703	0.070931	0.019423	0.067061	0.369130	-0.312279	-0.254454	-0.837543	16.156796	-45.312045	-139.212119
49418		7.052067	2.260831	6.764005	0.266825	-0.150280	0.212330	0.015055	0.051762	-0.036217	-0.790527	0.197510	-0.356689	0.070542	0.022590	0.067623	0.369112	-0.312049	-0.254472	-0.837631	16.170636	-45.285428	-139.220058
49419		7.017145	2.270490	6.874220	0.326639	-0.069666	0.263959	0.001222	0.039872	-0.013213	-0.795410	0.193359	-0.344238	0.070187	0.022700	0.068728	0.369154	-0.311923	-0.254418	-0.837676	16.165721	-45.269034	-139.212667
49420		7.103645	2.080476	6.782162	0.101283	-0.058465	0.225948	-0.000613	0.028189	0.005140	-0.789307	0.207031	-0.351318	0.071045	0.020807	0.067812	0.369255	-0.311873	-0.254348	-0.837671	16.151410	-45.261980	-139.193602
49421		7.181791	2.075770	6.651892	0.013297	-0.179447	0.192423	-0.012015	0.022638	0.012572	-0.794434	0.201172	-0.350830	0.071824	0.020766	0.066510	0.369363	-0.311876	-0.254230	-0.837658	16.127370	-45.259175	-139.169962
49422		7.252185	2.089376	6.651321	-0.011740	-0.223131	0.244639	-0.015622	0.021016	0.023157	-0.789063	0.205078	-0.338135	0.072526	0.020907	0.066504	0.369507	-0.311907	-0.254083	-0.837628	16.095617	-45.258925	-139.138432
49423		7.327913	2.023186	6.529600	-0.140978	-0.301614	0.203121	-0.024725	0.017589	0.035445	-0.786133	0.201660	-0.346191	0.073281	0.020253	0.065287	0.369684	-0.311984	-0.253886	-0.837581	16.052399	-45.262509	-139.098045
49424		7.180657	2.027530	6.676506	-0.005069	-0.143736	0.198695	-0.034400	0.007938	0.050059	-0.787354	0.197510	-0.342529	0.071804	0.020305	0.066759	0.369895	-0.312138	-0.253643	-0.837504	15.997019	-45.273688	-139.048400
49425		7.246164	2.110775	6.695384	0.038303	-0.214785	0.274078	-0.037353	-0.010929	0.064540	-0.784424	0.200928	-0.346436	0.072451	0.021144	0.066954	0.370138	-0.312395	-0.253399	-0.837374	15.934885	-45.297514	-138.991593
49426		6.909384	2.152899	6.831013	0.304545	0.002117	0.134400	-0.039833	-0.034157	0.071589	-0.779785	0.205078	-0.343750	0.069074	0.021567	0.068318	0.370377	-0.312763	-0.253178	-0.837199	15.871001	-45.335196	-138.934394
49427		6.857993	2.222631	7.134640	0.499805	0.182838	0.316083	-0.039776	-0.068836	0.086855	-0.786133	0.204834	-0.342529	0.068546	0.022270	0.071366	0.370636	-0.313295	-0.252996	-0.836940	15.804025	-45.394339	-138.872812
49428		7.051783	1.968010	6.832055	0.112398	0.049894	0.200431	-0.038778	-0.129394	0.096862	-0.794678	0.204346	-0.354004	0.070464	0.019727	0.068362	0.370862	-0.314090	-0.252916	-0.836566	15.741399	-45.488370	-138.816647
49429		7.041627	1.853716	6.926885	0.080795	0.192806	0.235136	-0.041257	-0.204447	0.106530	-0.779053	0.215820	-0.343506	0.070336	0.018589	0.069337	0.371029	-0.315217	-0.252948	-0.836058	15.683539	-45.625268	-138.769224
49430		5.465780	-0.896481	7.231026	-1.108217	2.775078	-1.208218	0.009027	-0.339206	0.121051	-0.792725	0.202148	-0.338135	0.054540	-0.008935	0.072402	0.371164	-0.316830	-0.253418	-0.835246	15.667361	-45.838714	-138.739954
49431		6.926874	4.710727	7.232121	2.545882	-1.203377	0.889929	-0.008502	-0.677780	0.206783	-0.790771	0.208984	-0.344727	0.068974	0.047182	0.072553	0.371198	-0.319997	-0.254304	-0.833753	15.646092	-46.252219	-138.717682
49432		6.303272	1.363863	7.565072	0.434370	1.349276	0.026606	0.016332	-0.921105	0.264665	-0.788818	0.215332	-0.337158	0.062665	0.013716	0.075941	0.371196	-0.324199	-0.255648	-0.831717	15.644647	-46.808872	-138.703380
49433		6.444402	1.751022	7.271891	0.644337	0.929234	-0.004680	-0.051972	-1.147610	0.321745	-0.794922	0.219238	-0.324219	0.063997	0.017632	0.073082	0.371020	-0.329533	-0.257029	-0.829269	15.607384	-47.499354	-138.693667
49434		6.650253	2.388680	7.152495	1.096219	0.460693	0.171017	-0.025336	-1.305599	0.373988	-0.789551	0.220215	-0.318359	0.065989	0.024020	0.071954	0.370886	-0.335526	-0.258716	-0.826397	15.579743	-48.284998	-138.676572
49435		7.071612	1.971534	6.909180	0.581367	0.449069	0.241657	-0.067029	-1.441369	0.424927	-0.804932	0.229248	-0.302979	0.070174	0.019888	0.069592	0.370698	-0.342206	-0.260384	-0.823212	15.518915	-49.153470	-138.647220
49436		7.227941	1.860857	6.534793	0.402584	0.288472	0.094985	-0.105187	-1.554360	0.467847	-0.796631	0.221436	-0.284668	0.071725	0.018811	0.065897	0.370451	-0.349456	-0.262013	-0.819753	15.426549	-50.090777	-138.605691
49437		7.320578	1.617693	6.554717	0.306582	0.508726	0.127977	-0.123298	-1.663591	0.489382	-0.806396	0.223145	-0.274658	0.072617	0.016396	0.066143	0.370091	-0.357191	-0.263716	-0.816028	15.326535	-51.091744	-138.568153
49438		7.573200	1.858659	6.456952	0.483664	0.304248	0.295272	-0.135611	-1.753452	0.521940	-0.805176	0.226807	-0.268799	0.075113	0.018827	0.065217	0.369692	-0.365328	-0.265453	-0.812033	15.210404	-52.147151	-138.519804
49439		7.484820	1.905539	6.248758	0.629459	0.281584	0.098016	-0.126508	-1.836796	0.568351	-0.813477	0.238770	-0.243896	0.074216	0.019307	0.063159	0.369355	-0.373817	-0.267274	-0.807714	15.077635	-53.255627	-138.444485
49440		8.013061	1.794459	5.804808	0.282122	-0.059436	0.239105	-0.156851	-1.897822	0.618397	-0.817627	0.241943	-0.240234	0.079519	0.018237	0.058790	0.369046	-0.382637	-0.268965	-0.803151	14.895251	-54.405019	-138.330456
49441		8.157019	1.709328	5.569972	0.220682	-0.112357	0.208211	-0.175210	-1.966012	0.660206	-0.816895	0.257080	-0.223145	0.080960	0.017410	0.056482	0.368740	-0.391782	-0.270600	-0.798319	14.673675	-55.598201	-138.182972
49442		8.148365	1.466791	5.573689	0.205251	0.157788	0.164410	-0.196370	-2.026232	0.695487	-0.819336	0.254639	-0.209717	0.080862	0.015005	0.056544	0.368410	-0.401207	-0.272162	-0.793243	14.410371	-56.829283	-138.001926
49443		8.287972	1.616327	5.594035	0.457071	0.161153	0.304487	-0.188298	-2.069354	0.712442	-0.815186	0.261475	-0.199951	0.082237	0.016510	0.056778	0.368060	-0.410766	-0.273768	-0.787943	14.130185	-58.086420	-137.797985
49444		8.466495	1.555830	5.539055	0.499431	0.220536	0.408904	-0.219958	-2.071743	0.746779	-0.812988	0.257324	-0.177246	0.084026	0.015934	0.056246	0.367734	-0.420385	-0.275151	-0.782522	13.780952	-59.348579	-137.537014
49445		8.577567	1.260402	5.047275	0.183671	0.114265	0.216635	-0.261096	-2.073030	0.774347	-0.822266	0.272705	-0.160156	0.085197	0.013001	0.051341	0.367380	-0.430073	-0.276282	-0.777005	13.355635	-60.614649	-137.219028
49446		8.181096	0.621952	4.485047	-0.270727	0.313907	-0.471518	-0.271179	-2.048022	0.749989	-0.827393	0.278564	-0.141846	0.081322	0.006587	0.045676	0.366897	-0.439593	-0.277346	-0.771507	12.911762	-61.861939	-136.890407
49447		7.725275	0.255393	4.851733	-0.071484	1.058712	-0.748725	-0.290080	-1.970124	0.622436	-0.821533	0.283691	-0.130127	0.076761	0.002864	0.049271	0.365947	-0.448623	-0.278443	-0.766349	12.542435	-63.048847	-136.661746
49448		8.707651	-0.553931	3.969283	-1.327489	0.667149	-0.342997	-0.285645	-1.866926	0.438158	-0.828125	0.281006	-0.115723	0.086713	-0.005292	0.040511	0.364407	-0.456943	-0.279752	-0.761675	12.335511	-64.154313	-136.613802
49449		9.593359	-1.074286	3.217600	-2.265349	0.255980	0.103941	-0.180606	-1.756931	0.214645	-0.826416	0.288086	-0.101318	0.095657	-0.010611	0.033027	0.362378	-0.464303	-0.281748	-0.757445	12.419742	-65.171159	-136.821890
49450		9.865457	-0.471946	2.740256	-1.987369	-0.405237	0.234348	-0.105302	-1.590665	0.028728	-0.817627	0.291016	-0.088379	0.098433	-0.004691	0.028189	0.360026	-0.470597	-0.284138	-0.753781	12.747810	-66.070850	-137.248673
49451		10.154940	0.050245	2.261603	-1.804702	-1.030022	0.381456	-0.069285	-1.378946	-0.081314	-0.822021	0.279297	-0.082031	0.101390	0.000469	0.023315	0.357626	-0.475850	-0.286526	-0.750715	13.204078	-66.837603	-137.790066
49452		10.509949	1.066109	2.333631	-0.981483	-1.546484	0.849646	-0.057166	-1.105718	-0.123414	-0.826416	0.285400	-0.066162	0.104975	0.010603	0.023914	0.355476	-0.479973	-0.288560	-0.748329	13.667768	-67.444277	-138.328989
49453		10.209782	1.418221	1.792298	-0.836903	-2.006380	0.421411	-0.114267	-0.829030	-0.069867	-0.820313	0.281006	-0.052246	0.102027	0.014157	0.018338	0.353778	-0.483231	-0.289752	-0.746574	13.957107	-67.903383	-138.712943
49454		10.043329	1.292724	1.680783	-0.910304	-1.918575	0.229959	-0.095060	-0.593657	-0.039101	-0.826660	0.274170	-0.064697	0.100385	0.012916	0.017100	0.352575	-0.485615	-0.290521	-0.745296	14.145447	-68.235359	-138.975348
49455		9.751674	1.594495	1.881239	-0.453080	-1.827339	0.068206	-0.000236	-0.394814	-0.010622	-0.821777	0.281250	-0.050049	0.097480	0.015940	0.019005	0.351997	-0.487128	-0.291222	-0.744308	14.283693	-68.460593	-139.124626
49456		9.656151	1.973442	2.370476	0.154711	-1.620421	0.192568	0.058852	-0.228309	0.052557	-0.823486	0.273682	-0.054199	0.096529	0.019753	0.023821	0.352039	-0.488009	-0.291695	-0.743525	14.308793	-68.602206	-139.115789
49457		9.653778	1.666584	2.587681	0.039094	-1.262398	0.240860	0.056853	-0.103663	0.143883	-0.822754	0.284912	-0.050781	0.096512	0.016728	0.025932	0.352597	-0.488562	-0.291719	-0.742888	14.157699	-68.687491	-138.918971
49458		9.735600	1.232159	3.073579	-0.064623	-0.652403	0.449729	0.088040	-0.027606	0.171928	-0.823486	0.282715	-0.055664	0.097341	0.012392	0.030755	0.353447	-0.488818	-0.291656	-0.742341	13.955992	-68.734217	-138.648724
49459		9.391023	0.795806	3.378243	-0.153794	-0.085287	0.197618	0.126426	0.032877	0.146470	-0.827393	0.280518	-0.060059	0.093910	0.008005	0.033772	0.354383	-0.488744	-0.291690	-0.741930	13.790590	-68.743456	-138.393905
49460		9.477389	0.500426	3.412681	-0.393915	0.084516	0.264783	0.148909	0.068153	0.098262	-0.824463	0.286133	-0.058838	0.094783	0.005025	0.034098	0.355247	-0.488428	-0.291862	-0.741656	13.694664	-68.726322	-138.199764
49461		9.664941	0.400802	3.639802	-0.410344	0.266810	0.511086	0.161965	0.103643	0.035161	-0.821533	0.291504	-0.047607	0.096668	0.003996	0.036351	0.355960	-0.487865	-0.292174	-0.741562	13.684324	-68.680777	-138.089456
49462		9.696977	0.505405	3.926723	-0.196045	0.415866	0.651277	0.168745	0.149553	-0.020017	-0.821045	0.286865	-0.054688	0.097000	0.005011	0.039199	0.356551	-0.487039	-0.292563	-0.741667	13.740697	-68.602250	-138.046538
49463		9.505921	0.552212	3.654557	-0.262419	0.215366	0.380839	0.159544	0.189201	-0.068273	-0.818604	0.291992	-0.050049	0.095096	0.005461	0.036460	0.356999	-0.486011	-0.292965	-0.741968	13.846303	-68.495041	-138.062179
49464		9.913579	0.757238	3.698886	-0.204363	0.023209	0.793531	0.142124	0.219066	-0.078850	-0.825684	0.296875	-0.056641	0.099179	0.007507	0.036886	0.357408	-0.484888	-0.293274	-0.742384	13.945781	-68.369806	-138.081975
49465		9.853382	0.922864	3.692317	-0.079364	-0.075235	0.749603	0.127485	0.275716	-0.077199	-0.822510	0.282715	-0.065918	0.098588	0.009167	0.036793	0.357871	-0.483581	-0.293422	-0.742955	14.014339	-68.213242	-138.077539
49466		9.434890	0.992692	3.494354	-0.030959	-0.183239	0.295650	0.114706	0.294799	-0.056290	-0.818848	0.286377	-0.065186	0.094403	0.009880	0.034810	0.358407	-0.482256	-0.293438	-0.743551	14.039664	-68.049011	-138.034376
49467		9.647096	0.962090	3.426118	-0.171249	-0.290874	0.464295	0.129140	0.292140	-0.033289	-0.818604	0.284180	-0.074219	0.096522	0.009583	0.034126	0.359059	-0.480947	-0.293456	-0.744077	14.042866	-67.889423	-137.958402
49468		9.999514	1.190810	3.685007	0.026029	-0.328067	0.905484	0.159148	0.313668	-0.015140	-0.818848	0.288330	-0.073975	0.100054	0.011871	0.036703	0.359881	-0.479530	-0.293503	-0.744575	14.031759	-67.720432	-137.848293
49469		9.883304	1.204909	3.682408	0.044857	-0.331093	0.797680	0.223996	0.354935	-0.010292	-0.815674	0.290283	-0.073486	0.098899	0.012003	0.036662	0.360936	-0.477848	-0.293704	-0.745067	14.038303	-67.529132	-137.716974
49470		9.891123	1.095968	3.560627	-0.134488	-0.390432	0.748699	0.306677	0.383395	-0.001688	-0.823730	0.294434	-0.079346	0.098979	0.010904	0.035433	0.362261	-0.475921	-0.294140	-0.745485	14.072162	-67.323288	-137.563702
49471		9.802436	1.175726	3.588253	-0.060553	-0.416097	0.683440	0.387314	0.436307	0.006638	-0.824463	0.292480	-0.082031	0.098102	0.011691	0.035691	0.363883	-0.473659	-0.294759	-0.745891	14.124841	-67.089188	-137.380524
49472		9.587518	1.017693	3.437506	-0.238639	-0.416495	0.411892	0.465368	0.499267	-0.015114	-0.822266	0.294922	-0.093994	0.095961	0.010090	0.034159	0.365699	-0.470985	-0.295603	-0.746362	14.231144	-66.817227	-137.206627
49473		9.343193	0.868503	3.308873	-0.394609	-0.398695	0.121258	0.515583	0.552643	-0.033235	-0.820068	0.291992	-0.094971	0.093524	0.008585	0.032853	0.367640	-0.467986	-0.296576	-0.746909	14.372902	-66.513148	-137.039686
49474		9.032216	0.594688	3.289570	-0.584999	-0.209557	-0.201786	0.532620	0.598699	-0.061704	-0.817383	0.290283	-0.097412	0.090422	0.005832	0.032641	0.369577	-0.464734	-0.297590	-0.747579	14.545817	-66.179692	-136.895601
49475		8.754614	0.678421	3.127120	-0.558143	-0.340201	-0.514577	0.499959	0.621534	-0.075212	-0.813965	0.286621	-0.111816	0.087645	0.006674	0.031016	0.371416	-0.461431	-0.298466	-0.748365	14.709357	-65.831728	-136.761457
49476		8.429689	0.100051	2.954842	-1.068053	-0.103123	-0.944254	0.429075	0.602467	-0.081568	-0.817871	0.288330	-0.115723	0.084386	0.000903	0.029296	0.373034	-0.458314	-0.299123	-0.749213	14.846145	-65.493633	-136.642114
49477		8.108325	-1.162836	2.551368	-2.249090	0.319291	-1.539476	0.397524	0.549307	0.000954	-0.816895	0.304443	-0.116699	0.081153	-0.011678	0.025268	0.374804	-0.455573	-0.299568	-0.749823	14.882800	-65.197090	-136.432234
49478		8.476532	-1.273743	2.533348	-2.492067	0.220671	-1.231744	0.391772	0.480996	0.075822	-0.818359	0.290527	-0.119873	0.084831	-0.012755	0.025105	0.376736	-0.453206	-0.299946	-0.750138	14.850748	-64.949507	-136.149671
49479		8.938654	-0.909195	2.627348	-2.308426	-0.074277	-0.741050	0.369472	0.437257	0.133846	-0.816162	0.298340	-0.125488	0.089450	-0.009080	0.026061	0.378766	-0.451128	-0.300188	-0.750271	14.754536	-64.734392	-135.809899
49480		8.922083	-0.451102	2.575792	-1.957991	-0.392187	-0.732264	0.292201	0.407078	0.172662	-0.814453	0.294922	-0.129883	0.089277	-0.004471	0.025570	0.380718	-0.449366	-0.300107	-0.750373	14.581613	-64.541459	-135.433698
49481		8.652301	-0.120983	2.469504	-1.653094	-0.605773	-0.987971	0.180190	0.355416	0.205194	-0.810547	0.294678	-0.131592	0.086568	-0.001143	0.024540	0.382462	-0.448055	-0.299630	-0.750461	14.326578	-64.381080	-135.037029
49482		8.412946	0.457437	2.551224	-1.056513	-0.805015	-1.110314	0.049907	0.282938	0.215420	-0.821289	0.297607	-0.135498	0.084160	0.004659	0.025394	0.383842	-0.447281	-0.298778	-0.750558	14.009895	-64.261735	-134.654328
49483		8.352683	1.147806	2.935138	-0.280986	-0.873085	-0.932455	-0.082622	0.206294	0.179467	-0.809082	0.306152	-0.134766	0.083547	0.011565	0.029260	0.384675	-0.446992	-0.297656	-0.750750	13.683624	-64.178982	-134.344972
49484		8.353302	1.721554	3.477203	0.448450	-0.769599	-0.645413	-0.192726	0.151265	0.082749	-0.812988	0.298340	-0.132568	0.083552	0.017284	0.034692	0.384817	-0.446978	-0.296441	-0.751165	13.422231	-64.113426	-134.177566
49485		8.267540	1.921926	4.067261	0.905599	-0.401196	-0.452798	-0.239078	0.128684	-0.068116	-0.814941	0.298584	-0.139160	0.082708	0.019240	0.040596	0.384253	-0.446912	-0.295433	-0.751890	13.314604	-64.040017	-134.210608
49486		7.744749	1.847699	4.498994	1.186313	0.128658	-0.745596	-0.228249	0.135955	-0.212408	-0.808350	0.302490	-0.136230	0.077498	0.018446	0.044916	0.383181	-0.446586	-0.294774	-0.752889	13.375913	-63.943686	-134.424802
49487		7.142534	1.778169	5.086863	1.560079	0.805837	-1.039399	-0.222576	0.156213	-0.296164	-0.806885	0.300293	-0.133789	0.071491	0.017732	0.050793	0.381835	-0.446046	-0.294283	-0.754084	13.528997	-63.824518	-134.737725
49488		6.490061	1.795719	5.998807	2.168003	1.703628	-1.226154	-0.219994	0.203489	-0.319010	-0.798584	0.292969	-0.124756	0.064990	0.017919	0.059902	0.380479	-0.445288	-0.293761	-0.755419	13.693856	-63.675761	-135.062262
49489		5.932659	1.871762	7.269099	2.957840	2.811493	-1.159000	-0.213685	0.320019	-0.309205	-0.809570	0.298340	-0.131348	0.059472	0.018703	0.072576	0.379342	-0.444090	-0.293018	-0.756984	13.816608	-63.462928	-135.336472
49490		5.626838	1.570755	6.868212	2.600067	2.728508	-1.621495	-0.183221	0.468737	-0.278968	-0.806885	0.293945	-0.135010	0.056451	0.015692	0.068536	0.378601	-0.442313	-0.292039	-0.758771	13.879227	-63.171465	-135.524569
49491		4.650691	0.833383	2.571777	0.348058	0.069993	-4.445061	-0.209367	0.343107	-0.131414	-0.796631	0.294189	-0.132080	0.046556	0.008330	0.025629	0.378177	-0.441274	-0.290870	-0.760036	13.797631	-62.969976	-135.568005
49492		10.696220	1.667613	4.616186	-0.014496	-0.741404	1.932493	-0.222922	0.233054	-0.148294	-0.802246	0.288818	-0.140137	0.107028	0.016648	0.046019	0.377497	-0.440653	-0.289895	-0.761106	13.755950	-62.827509	-135.665107
49493		15.595603	0.424356	4.805057	-2.614183	-1.517950	6.229521	-0.050580	0.580163	-0.300204	-0.795410	0.284424	-0.137939	0.156101	0.004021	0.047597	0.377120	-0.438162	-0.289252	-0.762973	13.883594	-62.471034	-135.841852
49494		13.346362	1.771414	3.642669	-1.377330	-2.496717	3.840146	0.101137	0.975448	-0.425348	-0.801514	0.278564	-0.149170	0.133676	0.017412	0.035784	0.377162	-0.433689	-0.288712	-0.765708	14.120743	-61.877291	-136.044920
49495		9.575538	1.936751	4.021514	0.100707	-1.138211	0.690056	0.075045	1.081782	-0.405630	-0.792236	0.283447	-0.153320	0.096010	0.019158	0.039704	0.377365	-0.428872	-0.287820	-0.768651	14.286766	-61.226838	-136.185252
49496		9.108306	1.247012	4.695402	-0.104248	-0.163311	0.508371	0.086221	1.157688	-0.339945	-0.803467	0.278076	-0.166748	0.091374	0.012295	0.046431	0.377942	-0.423823	-0.286678	-0.771589	14.368432	-60.543552	-136.222533
49497		9.527923	1.300760	4.457567	-0.409978	-0.601939	0.761396	0.121580	1.246499	-0.322157	-0.791748	0.275146	-0.175537	0.095575	0.012827	0.043988	0.378774	-0.418373	-0.285454	-0.774603	14.428735	-59.813358	-136.212166
49498		9.061973	0.987916	4.765495	-0.469404	-0.124470	0.461931	0.126674	1.322027	-0.368156	-0.789307	0.274170	-0.180176	0.090950	0.009682	0.047061	0.379530	-0.412538	-0.284192	-0.777820	14.515455	-59.034826	-136.228927
49499		7.916568	0.677056	4.607604	-0.472159	0.250306	-0.643529	0.207911	1.343176	-0.430844	-0.792725	0.271484	-0.190918	0.079487	0.006552	0.045550	0.380222	-0.406357	-0.283321	-0.781047	14.697359	-58.235349	-136.302873
49500		8.095095	1.289645	5.657977	0.294417	0.561542	0.127271	0.302156	1.303320	-0.490627	-0.785889	0.265381	-0.202881	0.081349	0.012612	0.056070	0.380796	-0.400048	-0.283001	-0.784134	14.987978	-57.449172	-136.442016
49501		8.255341	1.340343	6.228515	0.385534	0.828148	0.575059	0.331403	1.281724	-0.541624	-0.781494	0.265137	-0.210693	0.082986	0.013076	0.061776	0.381179	-0.393675	-0.282925	-0.787195	15.333714	-56.666744	-136.628156
49502		8.153852	0.943496	5.803129	-0.197221	0.697338	0.213526	0.307176	1.246988	-0.563905	-0.776855	0.256348	-0.221924	0.081924	0.009116	0.057535	0.381360	-0.387435	-0.282850	-0.790224	15.680262	-55.899616	-136.833585
49503		7.974082	0.722381	5.997346	-0.350392	0.968560	0.137867	0.315673	1.177933	-0.626332	-0.781738	0.253906	-0.228271	0.080114	0.006879	0.059513	0.381194	-0.381344	-0.283047	-0.793191	16.085543	-55.159889	-137.106226
49504		8.005911	0.913760	5.859615	-0.381487	0.694077	0.118874	0.309391	1.105189	-0.670248	-0.782471	0.243652	-0.237061	0.080411	0.008778	0.058166	0.380722	-0.375476	-0.283429	-0.796076	16.524235	-54.452108	-137.426575
49505		7.787758	1.279861	5.812531	-0.125532	0.496067	-0.024454	0.301716	1.050009	-0.715484	-0.782715	0.247559	-0.256592	0.078226	0.012432	0.057734	0.379961	-0.369761	-0.283958	-0.798921	16.991149	-53.765564	-137.789971
49506		7.458541	1.392244	5.971810	0.052718	0.642210	-0.178675	0.333933	0.975454	-0.758489	-0.787598	0.228027	-0.254395	0.074927	0.013539	0.059376	0.378967	-0.364207	-0.284826	-0.801631	17.510082	-53.110821	-138.198332
49507		7.497240	1.812454	6.574935	0.481342	0.805285	0.278986	0.352846	0.900689	-0.778679	-0.773926	0.235352	-0.259521	0.075337	0.017716	0.065442	0.377805	-0.358873	-0.285937	-0.804185	18.056190	-52.490982	-138.630573
49508		7.743973	2.331737	6.240154	0.553282	0.147583	0.386165	0.327138	0.826786	-0.730786	-0.770508	0.221924	-0.270020	0.077781	0.022932	0.062118	0.376670	-0.353942	-0.286987	-0.806525	18.556326	-51.917708	-139.026839
49509		7.457151	2.741965	6.393328	0.967118	0.121777	0.338717	0.248200	0.775506	-0.656475	-0.776367	0.217529	-0.272705	0.074908	0.027095	0.063677	0.375611	-0.349462	-0.287677	-0.808724	18.960460	-51.383943	-139.361282
49510		7.721492	3.054266	5.980220	0.855863	-0.489544	0.372601	0.189788	0.745897	-0.538040	-0.772217	0.211182	-0.275879	0.077519	0.030278	0.059542	0.374877	-0.345374	-0.287972	-0.810713	19.249522	-50.887264	-139.593419
49511		7.680707	2.933963	5.968062	0.692644	-0.450396	0.313316	0.118901	0.716031	-0.429284	-0.777100	0.210693	-0.288818	0.077083	0.029139	0.059422	0.374412	-0.341688	-0.287842	-0.812534	19.427744	-50.426687	-139.736249
49512		7.690592	2.133079	5.921708	-0.044582	-0.082652	0.124742	0.093712	0.709449	-0.381568	-0.772217	0.208008	-0.281982	0.077156	0.021156	0.058954	0.374081	-0.338141	-0.287536	-0.814277	19.558760	-49.978628	-139.837408
49513		7.464647	2.167047	6.128803	0.094130	0.101578	0.084763	0.078979	0.729050	-0.389612	-0.766602	0.207764	-0.295166	0.074911	0.021501	0.061024	0.373715	-0.334524	-0.287143	-0.816076	19.679690	-49.518220	-139.937040
49514		7.687424	2.286418	5.970818	-0.042921	-0.213951	0.183645	0.068537	0.752084	-0.374650	-0.765137	0.197754	-0.298584	0.077141	0.022699	0.059426	0.373420	-0.330848	-0.286634	-0.817887	19.777737	-49.048243	-140.015117
49515		7.599564	2.381715	6.083706	0.044981	-0.195111	0.207129	0.051535	0.773363	-0.350292	-0.770508	0.199219	-0.303223	0.076272	0.023668	0.060549	0.373219	-0.327146	-0.285970	-0.819697	19.844648	-48.571369	-140.065277
49516		5.420634	3.443065	6.631734	2.112311	0.480972	-0.839162	0.013766	0.808148	-0.279815	-0.755859	0.197754	-0.313232	0.054522	0.034350	0.066100	0.373290	-0.323467	-0.284966	-0.821473	19.838648	-48.089523	-140.047210
49517		7.999299	3.900749	6.034141	0.920424	-1.356817	0.814024	-0.066507	0.633468	-0.031964	-0.759033	0.201172	-0.310791	0.080190	0.039015	0.060075	0.373994	-0.321004	-0.283554	-0.822607	19.677160	-47.749771	-139.881464
49518		7.863319	2.528764	6.110621	-0.108410	-0.532573	0.447449	-0.091296	0.617021	0.072472	-0.755859	0.207764	-0.323486	0.078812	0.025344	0.060852	0.375061	-0.318800	-0.281901	-0.823546	19.445830	-47.438620	-139.639493
49519		7.217985	3.026796	6.485550	0.717543	-0.321639	0.321638	-0.096281	0.599328	0.121106	-0.758057	0.206299	-0.325928	0.072355	0.030343	0.064624	0.376292	-0.316744	-0.280180	-0.824365	19.190133	-47.145497	-139.367090
49520		7.127874	2.270187	6.581869	0.173493	0.154207	0.148597	-0.105815	0.562280	0.152007	-0.753662	0.206299	-0.336914	0.071446	0.022791	0.065606	0.377580	-0.314898	-0.278438	-0.825072	18.921840	-46.877443	-139.083648
49521		6.815174	1.409987	7.005664	-0.235515	1.021941	0.006374	-0.080635	0.473629	0.105180	-0.746826	0.204590	-0.332031	0.068310	0.014164	0.069889	0.378588	-0.313304	-0.277039	-0.825688	18.715399	-46.647949	-138.864196
49522		6.991307	1.202845	6.909631	-0.536397	0.954375	0.029546	-0.038779	0.347148	0.028121	-0.751465	0.205811	-0.331787	0.070031	0.012052	0.068972	0.379167	-0.312044	-0.276171	-0.826190	18.603370	-46.472627	-138.740999
49523		6.918274	1.476054	7.065320	-0.246540	0.919622	0.139874	-0.002160	0.211451	-0.039515	-0.751709	0.206543	-0.342773	0.069260	0.014748	0.070580	0.379336	-0.311181	-0.275817	-0.826557	18.577659	-46.358485	-138.707714
49524		7.160438	1.514325	6.648643	-0.480467	0.489480	0.051341	0.012914	0.104707	-0.083226	-0.750977	0.202637	-0.341553	0.071645	0.015109	0.066450	0.379199	-0.310671	-0.275795	-0.826818	18.605881	-46.294376	-138.737061
49525		7.124959	1.904850	6.778228	-0.120579	0.374736	0.196453	0.021638	0.043921	-0.106724	-0.748535	0.204102	-0.341553	0.071275	0.019003	0.067769	0.378895	-0.310362	-0.275962	-0.827018	18.664051	-46.258903	-138.800902
49526		7.241509	2.113256	6.584593	-0.082512	0.073325	0.199804	0.022124	0.017285	-0.113548	-0.739014	0.191895	-0.344482	0.072433	0.021084	0.065842	0.378527	-0.310154	-0.276191	-0.827188	18.731312	-46.236631	-138.877059
49527		7.183425	2.445344	6.608757	0.212429	-0.066096	0.247505	0.015314	0.005180	-0.105033	-0.746094	0.196289	-0.339600	0.071849	0.024411	0.066088	0.378167	-0.310020	-0.276401	-0.827333	18.792196	-46.222389	-138.949725
49528		7.322551	2.451761	6.432213	0.085137	-0.251412	0.233893	0.021079	0.006049	-0.082481	-0.748779	0.200439	-0.335693	0.073238	0.024481	0.064322	0.377909	-0.309903	-0.276599	-0.827428	18.843339	-46.211841	-139.004423
49529		7.408218	2.456106	6.340563	0.011286	-0.353037	0.236797	0.018805	0.004838	-0.061123	-0.743408	0.198486	-0.344971	0.074091	0.024532	0.063406	0.377736	-0.309824	-0.276757	-0.827485	18.881391	-46.205830	-139.042716
49530		7.222399	2.457905	6.482857	0.149708	-0.168639	0.196354	0.020887	0.004114	-0.046005	-0.746338	0.190186	-0.332764	0.072231	0.024556	0.064830	0.377626	-0.309766	-0.276901	-0.827508	18.912153	-46.203051	-139.069323
49531		7.196423	2.353774	6.493880	0.081245	-0.088292	0.161521	0.021261	0.001352	-0.037446	-0.750488	0.201660	-0.343750	0.071969	0.023517	0.064941	0.377549	-0.309729	-0.277038	-0.827511	18.938893	-46.203300	-139.089996
49532		7.127302	2.351395	6.596865	0.144949	0.018555	0.178547	0.024890	-0.007765	-0.034820	-0.745850	0.202393	-0.341553	0.071275	0.023493	0.065974	0.377476	-0.309728	-0.277204	-0.827489	18.967936	-46.209021	-139.111033
49533		7.476103	2.037955	6.259081	-0.390618	-0.193020	0.138776	0.033412	-0.031458	-0.032422	-0.745117	0.204102	-0.341309	0.074754	0.020357	0.062606	0.377393	-0.309812	-0.277446	-0.827414	19.005188	-46.227968	-139.136619
49534		7.067710	2.233409	6.599067	0.081410	0.124946	0.110321	0.049355	-0.059394	-0.044531	-0.743896	0.194580	-0.338867	0.070662	0.022302	0.066017	0.377246	-0.309964	-0.277826	-0.827297	19.063845	-46.259821	-139.179234
49535		7.121124	2.218580	6.498736	0.010964	0.049010	0.079913	0.050119	-0.071445	-0.048896	-0.755859	0.195557	-0.343262	0.071193	0.022152	0.065018	0.377066	-0.310159	-0.278238	-0.827168	19.127911	-46.297296	-139.228649
49536		6.903921	2.273498	6.779293	0.253795	0.322137	0.118251	0.056725	-0.095095	-0.051427	-0.758301	0.196777	-0.339844	0.069013	0.022698	0.067832	0.376852	-0.310435	-0.278725	-0.826997	19.201891	-46.347104	-139.286561
49537		7.035484	2.179162	6.645920	0.070480	0.236595	0.104675	0.063937	-0.118489	-0.055778	-0.740967	0.200439	-0.335449	0.070322	0.021751	0.066508	0.376598	-0.310789	-0.279294	-0.826789	19.287327	-46.408638	-139.354480
49538		7.354051	2.135700	6.445633	-0.189621	-0.005337	0.194983	0.071232	-0.147786	-0.059449	-0.750488	0.196045	-0.341309	0.073499	0.021312	0.064518	0.376299	-0.311244	-0.279953	-0.826530	19.385031	-46.485284	-139.433550
49539		7.277417	2.122276	6.455571	-0.154031	0.061762	0.142797	0.067979	-0.168244	-0.058603	-0.744873	0.198975	-0.340576	0.072726	0.021179	0.064624	0.375970	-0.311791	-0.280636	-0.826242	19.484876	-46.573007	-139.517961
49540		7.444491	2.181339	6.323288	-0.230032	-0.118711	0.192092	0.064854	-0.183915	-0.052214	-0.753174	0.189209	-0.335449	0.074392	0.021773	0.063308	0.375640	-0.312417	-0.281324	-0.825922	19.582742	-46.670362	-139.602059
49541		7.123261	2.310197	6.533763	0.110751	0.119809	0.124176	0.051845	-0.208040	-0.055165	-0.742920	0.193115	-0.345459	0.071171	0.023065	0.065418	0.375243	-0.313163	-0.282009	-0.825586	19.680249	-46.780023	-139.695683
49542		7.282079	2.384472	6.426962	0.062068	-0.045305	0.188026	0.061075	-0.219277	-0.038022	-0.748047	0.197510	-0.337891	0.072755	0.023811	0.064357	0.374915	-0.313962	-0.282726	-0.825186	19.775898	-46.898999	-139.779410
49543		7.139299	2.459598	6.563194	0.247269	0.094037	0.188547	0.056474	-0.238531	-0.035982	-0.754639	0.197754	-0.342041	0.071319	0.024565	0.065724	0.374561	-0.314851	-0.283456	-0.824758	19.872294	-47.028607	-139.867522
49544		7.223558	2.316036	6.425659	0.057483	0.064371	0.128409	0.053279	-0.258434	-0.031296	-0.748047	0.199951	-0.338135	0.072156	0.023132	0.064356	0.374192	-0.315834	-0.284202	-0.824293	19.968794	-47.169793	-139.958152
49545		7.161919	2.368229	6.516867	0.171519	0.151839	0.153185	0.051944	-0.283060	-0.027372	-0.754395	0.199951	-0.333740	0.071530	0.023656	0.065276	0.373801	-0.316926	-0.284983	-0.823782	20.068145	-47.324855	-140.053419
49546		7.259783	2.315165	6.472728	0.078839	0.135059	0.184118	0.047928	-0.312199	-0.028183	-0.745850	0.192627	-0.331299	0.072500	0.023126	0.064846	0.373358	-0.318144	-0.285801	-0.823229	20.172547	-47.495360	-140.158496
49547		7.457106	2.301514	6.291058	-0.074722	-0.041366	0.211055	0.045653	-0.349889	-0.027427	-0.759766	0.196533	-0.327148	0.074464	0.022991	0.063046	0.372859	-0.319521	-0.286679	-0.822616	20.284289	-47.686103	-140.274903
49548		7.335272	2.358661	6.390318	0.083168	0.082652	0.196898	0.036133	-0.391863	-0.035403	-0.755615	0.188232	-0.332520	0.073231	0.023562	0.064051	0.372251	-0.321076	-0.287607	-0.821962	20.405482	-47.897686	-140.411139
49549		7.414362	2.208054	6.258888	-0.097960	0.075708	0.137512	0.043267	-0.441525	-0.025777	-0.752197	0.194336	-0.330078	0.074008	0.022057	0.062757	0.371621	-0.322834	-0.288641	-0.821196	20.537474	-48.137612	-140.555842
49550		6.975318	2.087248	6.470027	0.121969	0.521075	-0.087138	0.095312	-0.497187	-0.011480	-0.758789	0.186279	-0.321045	0.069593	0.020838	0.064883	0.371051	-0.324743	-0.289966	-0.820233	20.704883	-48.410057	-140.707548
49551		6.806645	4.043265	6.392784	1.776127	-0.507501	0.193990	0.025100	-0.599935	0.118302	-0.757080	0.197266	-0.325439	0.067850	0.040465	0.064137	0.370747	-0.327389	-0.290982	-0.818958	20.778839	-48.763640	-140.787470
49552		6.851683	2.889845	6.716584	0.985549	0.396916	0.151245	0.026114	-0.734730	0.196958	-0.756348	0.197754	-0.320313	0.068241	0.028957	0.067421	0.370566	-0.330695	-0.292119	-0.817305	20.837748	-49.205386	-140.846258
49553		6.830172	2.663796	6.755801	0.891272	0.618043	0.097450	0.003553	-0.906210	0.258440	-0.761719	0.199951	-0.305664	0.067960	0.026725	0.067867	0.370342	-0.334827	-0.293374	-0.815272	20.887480	-49.751428	-140.909480
49554		6.950834	2.896180	6.636799	1.056458	0.423845	0.159885	-0.006057	-1.105083	0.339685	-0.763672	0.200439	-0.301758	0.069091	0.029081	0.066750	0.370130	-0.339898	-0.294814	-0.812747	20.929856	-50.420488	-140.969802
49555		6.848984	2.878605	6.757802	1.230395	0.646632	0.133628	-0.022561	-1.335753	0.418345	-0.770020	0.205566	-0.291260	0.067976	0.028936	0.068030	0.369855	-0.346038	-0.296468	-0.809674	20.970996	-51.229066	-141.040013
49556		6.851617	2.909669	6.753746	1.370800	0.725134	0.117903	-0.036333	-1.608005	0.519556	-0.760254	0.205566	-0.278564	0.067894	0.029286	0.068080	0.369539	-0.353434	-0.298376	-0.805914	21.008874	-52.203990	-141.115336
49557		6.717476	2.954935	6.902803	1.666172	0.980479	0.074874	-0.064966	-1.931026	0.629605	-0.771484	0.221924	-0.266846	0.066411	0.029782	0.069662	0.369101	-0.362318	-0.300545	-0.801351	21.043469	-53.374295	-141.205966
49558		6.696478	3.259147	7.061669	2.153475	1.081164	0.163304	-0.099341	-2.329342	0.784319	-0.766357	0.223633	-0.249512	0.066008	0.032887	0.071373	0.368575	-0.373046	-0.302991	-0.795730	21.061537	-54.789328	-141.299114
49559		6.625762	3.195367	7.138329	2.374318	1.366256	0.064311	-0.132337	-2.812760	0.968369	-0.776367	0.224121	-0.228271	0.065089	0.032318	0.072283	0.367918	-0.385967	-0.305798	-0.788767	21.067334	-56.500796	-141.398417
49560		6.401690	3.208832	7.807604	2.998424	2.147366	0.118228	-0.192130	-3.397950	1.192143	-0.777100	0.237793	-0.204102	0.062486	0.032540	0.079115	0.367031	-0.401541	-0.308928	-0.780139	21.045874	-58.571102	-141.504027
49561		6.442459	3.361727	7.993152	3.498356	2.428460	0.114204	-0.275146	-4.030386	1.479075	-0.779785	0.250732	-0.174805	0.062546	0.034196	0.081158	0.365975	-0.420018	-0.312197	-0.769532	20.940537	-61.038809	-141.564984
49562		6.483947	3.605043	8.437021	4.250517	2.899436	0.173369	-0.397865	-4.652637	1.815712	-0.785889	0.252441	-0.136963	0.062523	0.036795	0.085770	0.364783	-0.441408	-0.315253	-0.756775	20.651588	-63.908149	-141.496920
49563		7.987478	3.131084	8.218745	3.709456	2.875150	1.100032	-0.499768	-5.197828	2.115339	-0.780762	0.277100	-0.093750	0.077366	0.032347	0.084140	0.363382	-0.465203	-0.318032	-0.741887	20.136895	-67.130051	-141.246599
49564		11.920563	0.525812	8.362034	0.990370	3.810516	4.213927	-0.332381	-5.067672	2.214143	-0.778809	0.288086	-0.047363	0.116968	0.006704	0.086593	0.362656	-0.488002	-0.320715	-0.726276	19.386904	-70.299255	-140.647085
49565		10.975371	0.069968	7.046862	0.825215	3.596805	2.695864	-0.231088	-5.023258	1.909411	-0.769775	0.299805	-0.021729	0.107924	0.001819	0.073193	0.360872	-0.509603	-0.324189	-0.710617	18.968847	-73.385004	-140.346987
49566		17.596307	0.222616	5.844116	-0.419191	1.867151	8.628452	-0.262817	-5.544238	1.618220	-0.761719	0.313721	0.019043	0.174227	0.003722	0.063283	0.356844	-0.532240	-0.328976	-0.693655	19.429159	-76.697435	-140.979966
49567		17.814304	-0.096881	3.472103	-1.149039	0.743439	8.282904	-0.111048	-5.607249	1.300388	-0.750977	0.317627	0.062744	0.177078	0.000206	0.039696	0.351718	-0.553858	-0.334976	-0.676259	21.382828	-79.976930	-143.039324
49568		15.137921	-0.708094	2.646411	-1.058872	1.324820	5.475434	0.070295	-5.358139	1.098913	-0.757568	0.335449	0.099121	0.150634	-0.006262	0.030504	0.346550	-0.573539	-0.341439	-0.659072	25.748830	-83.052792	-147.412223
49569		14.064542	-0.311702	1.885498	-0.479841	1.106375	4.328305	0.169440	-4.901093	0.951444	-0.747803	0.334961	0.138916	0.140140	-0.002467	0.022291	0.341723	-0.590897	-0.347628	-0.642823	35.682838	-85.764400	-157.293537
49570		14.793193	1.045332	2.621101	1.468632	1.497770	5.099243	0.238436	-4.248589	0.854907	-0.736816	0.341309	0.160645	0.147284	0.011050	0.029357	0.337734	-0.605546	-0.353014	-0.628197	63.248319	-87.785893	175.238891
49571		14.364750	2.333401	1.698394	2.506226	0.462238	4.614959	0.271879	-3.522405	0.840429	-0.739258	0.349121	0.202148	0.143219	0.023911	0.019541	0.334948	-0.617589	-0.357186	-0.615477	124.733022	-88.189923	113.878919
49572		13.166982	3.471239	2.043298	4.016704	0.440329	3.349832	0.040340	-2.855566	1.064691	-0.736084	0.361572	0.213135	0.131173	0.035407	0.022315	0.333231	-0.628194	-0.358729	-0.604684	161.980090	-87.189469	76.627085
49573		13.260484	5.072126	1.951586	5.642349	-0.281906	3.357371	-0.353291	-2.127736	1.325926	-0.729980	0.373291	0.227295	0.132048	0.051634	0.020832	0.332309	-0.637598	-0.356983	-0.596324	178.317965	-86.102791	60.059164
49574		9.236862	6.198235	6.974191	9.322748	3.203267	-1.141015	-0.672455	-1.229997	1.195906	-0.730713	0.376953	0.238525	0.091564	0.062767	0.070097	0.331541	-0.644544	-0.353160	-0.591542	-173.206156	-85.360539	51.172637
49575		10.885983	4.648021	15.001581	12.470932	10.841957	-0.216752	-0.449740	0.160763	0.762580	-0.737793	0.391602	0.240967	0.108801	0.047232	0.149823	0.332650	-0.646209	-0.349071	-0.591530	-167.871363	-85.372700	45.561489
49576		4.817981	3.871613	11.844646	9.843105	8.158263	-5.933039	0.031080	1.454531	0.579814	-0.742188	0.385498	0.231445	0.048927	0.038839	0.118098	0.337012	-0.642899	-0.344824	-0.595147	-160.447209	-86.078514	38.133444
49577		2.833327	6.491074	9.738034	10.810813	4.851155	-7.672379	0.227519	2.065221	0.370452	-0.757568	0.397217	0.217041	0.029217	0.064854	0.097155	0.342410	-0.637028	-0.340781	-0.600682	-148.534900	-87.051648	26.330501
49578		-0.101229	6.769695	7.204054	9.553031	2.490008	-10.337079	0.169151	2.230840	0.173397	-0.764893	0.386475	0.209961	-0.000267	0.067636	0.072104	0.347268	-0.630345	-0.336859	-0.607121	-126.922324	-87.937778	4.793918
49579		-0.946168	7.225006	6.035566	9.296259	1.270789	-11.032221	-0.064445	2.121662	-0.014405	-0.773682	0.388672	0.183350	-0.008816	0.072270	0.060428	0.350599	-0.624011	-0.332978	-0.613854	-91.052609	-88.351871	-31.130488
49580		0.179531	7.048872	6.161775	9.252259	1.441482	-9.765544	-0.322780	2.034671	-0.315676	-0.779297	0.395264	0.181885	0.002533	0.070584	0.061481	0.352011	-0.617822	-0.329352	-0.621218	-52.671001	-88.143450	-69.715164
49581		1.282417	6.602482	6.422075	9.023994	1.813051	-8.486872	-0.525816	2.041095	-0.714979	-0.788330	0.387451	0.157471	0.013714	0.066145	0.063910	0.351530	-0.611248	-0.326287	-0.629555	-25.402236	-87.473109	-97.304534
49582		2.535547	6.002204	6.735329	8.655075	2.260057	-7.020317	-0.683210	2.144469	-1.152845	-0.795410	0.367432	0.140137	0.026420	0.060101	0.066869	0.349304	-0.603817	-0.323831	-0.639160	-7.343716	-86.469415	-115.780673
49583		3.576476	5.142470	6.937544	7.958618	2.731921	-5.743713	-0.807823	2.319186	-1.562215	-0.806152	0.356445	0.121582	0.036966	0.051418	0.068744	0.345618	-0.595279	-0.321855	-0.650077	4.746234	-85.158836	-128.366356
49584		4.787681	4.203905	7.178550	7.144598	3.244408	-4.285761	-0.895178	2.542295	-1.895568	-0.816895	0.329834	0.110352	0.049180	0.041896	0.070978	0.340857	-0.585480	-0.320117	-0.662235	12.791561	-83.554210	-136.966867
49585		6.011782	3.406869	7.358184	6.329480	3.600891	-2.823245	-0.973435	2.806159	-2.121020	-0.828613	0.321289	0.094971	0.061500	0.033776	0.072561	0.335449	-0.574412	-0.318242	-0.675461	17.945966	-81.687046	-142.726297
49586		7.148859	2.869434	7.431835	5.584230	3.697761	-1.463922	-1.060139	3.101959	-2.231718	-0.846191	0.300537	0.057129	0.072945	0.028275	0.073044	0.329759	-0.562098	-0.315773	-0.689632	21.022590	-79.589895	-146.461171
49587		8.097247	2.345224	7.430257	4.743878	3.705560	-0.324664	-1.157162	3.393201	-2.235284	-0.839844	0.280029	0.037354	0.082474	0.022960	0.072778	0.324115	-0.548710	-0.312376	-0.704477	22.616222	-77.316770	-148.764421
49588		8.790226	1.864867	7.261610	3.815527	3.544550	0.499262	-1.227655	3.645162	-2.153616	-0.847656	0.265625	0.000732	0.089402	0.018130	0.070883	0.318799	-0.534411	-0.307945	-0.719682	23.201346	-74.918607	-150.093382
49589		9.668280	1.387548	7.056469	2.765735	3.296975	1.441394	-1.229798	3.841592	-2.019626	-0.854004	0.248047	-0.031494	0.098150	0.013315	0.068606	0.314113	-0.519363	-0.302692	-0.734829	23.153400	-72.448065	-150.777951
49590		10.684925	0.917460	6.844480	1.610145	2.983379	2.448587	-1.140904	4.005163	-1.857336	-0.841553	0.229248	-0.053711	0.108272	0.008556	0.066236	0.310331	-0.503541	-0.296923	-0.749652	22.734723	-69.925964	-151.028306
49591		12.007571	0.464048	6.445362	0.187188	2.429149	3.602798	-0.934929	4.118942	-1.715117	-0.838867	0.218994	-0.095459	0.121404	0.003897	0.061943	0.307620	-0.486937	-0.291247	-0.763831	22.201054	-67.377858	-151.030946
49592		13.350043	-0.058873	5.889065	-1.479223	1.761752	4.595038	-0.626744	4.192660	-1.621605	-0.824951	0.193359	-0.127441	0.134686	-0.001499	0.056079	0.305953	-0.469450	-0.286247	-0.777221	21.745385	-64.808327	-150.927581
49593		14.649372	-0.343745	5.089878	-3.173122	0.744653	5.351968	-0.252765	4.205123	-1.578394	-0.813477	0.192139	-0.145508	0.147488	-0.004537	0.047810	0.305206	-0.451179	-0.282445	-0.789627	21.495018	-62.243463	-150.810138
49594		15.756953	-0.557900	3.952658	-4.981162	-0.532885	5.649454	0.121052	4.131342	-1.553827	-0.804443	0.182129	-0.166992	0.158291	-0.006830	0.036258	0.305132	-0.432428	-0.280026	-0.800928	21.484207	-59.720607	-150.720761
49595		17.204857	-0.667845	2.534887	-7.031449	-2.162262	5.958029	0.444711	3.984887	-1.553937	-0.801025	0.162842	-0.185303	0.172449	-0.008069	0.021899	0.305421	-0.413577	-0.279005	-0.811066	21.709471	-57.278208	-150.686511
49596		18.468014	-0.528720	1.055902	-8.848674	-3.952227	5.951007	0.628461	3.810680	-1.544297	-0.793457	0.145508	-0.202881	0.184788	-0.006740	0.007019	0.305737	-0.394971	-0.278842	-0.820226	22.071431	-54.928389	-150.691031
49597		18.753302	-0.418492	-0.431081	-10.160450	-5.443238	4.990630	0.637156	3.628097	-1.517027	-0.790527	0.144775	-0.207275	0.187375	-0.005586	-0.007727	0.305814	-0.376986	-0.278835	-0.828620	22.452077	-52.683565	-150.710731
49598		17.825256	0.073466	-1.555803	-10.287645	-6.533189	3.287381	0.460106	3.396041	-1.408724	-0.798584	0.133057	-0.215576	0.177954	-0.000479	-0.018582	0.305558	-0.360236	-0.278133	-0.836365	22.706165	-50.583351	-150.700742
49599		16.853950	0.702127	-2.352427	-10.012465	-7.415074	1.798673	0.110637	3.093052	-1.168238	-0.800049	0.120117	-0.237305	0.168186	0.006052	-0.026124	0.305175	-0.345521	-0.275924	-0.843415	22.685111	-48.698425	-150.590411
49600		17.092086	0.643737	-3.149820	-10.804432	-8.195127	1.075737	-0.262734	2.796627	-0.803140	-0.805420	0.114502	-0.247803	0.170482	0.005709	-0.033892	0.305194	-0.333037	-0.271889	-0.849717	22.320170	-47.048601	-150.303321
49601		17.372178	-0.654868	-4.280234	-12.539626	-8.370239	-0.157592	-0.428705	2.543898	-0.442663	-0.816406	0.108154	-0.263428	0.173144	-0.007027	-0.044992	0.306077	-0.322315	-0.266889	-0.855103	21.742151	-45.610575	-149.844354
49602		17.014609	-1.980664	-5.524727	-13.860873	-8.351815	-1.935379	-0.292198	2.302300	-0.147365	-0.817627	0.110352	-0.273682	0.169481	-0.020014	-0.057172	0.308065	-0.312755	-0.262320	-0.859342	21.165174	-44.358879	-149.266659
49603		15.836960	-3.099742	-6.694946	-14.411509	-8.094891	-4.154846	0.114125	1.997142	0.071807	-0.828369	0.111816	-0.289551	0.157702	-0.030902	-0.068544	0.311202	-0.304139	-0.259600	-0.862126	20.794688	-43.313315	-148.637880
49604		14.686585	-3.892354	-7.586819	-14.565495	-7.866025	-6.021795	0.691769	1.582529	0.161131	-0.832031	0.097900	-0.302246	0.146290	-0.038540	-0.077161	0.315032	-0.296495	-0.259852	-0.863320	20.805955	-42.505761	-148.073604
49605		13.884796	-3.727667	-8.030588	-14.052480	-8.118555	-7.022484	1.260182	1.094922	0.127770	-0.831543	0.099854	-0.309570	0.138428	-0.036678	-0.081297	0.318910	-0.290001	-0.263361	-0.863039	21.256308	-41.954623	-147.669926
49606		13.088774	-2.642445	-7.858052	-12.653834	-8.567243	-7.257805	1.607866	0.581072	0.087793	-0.827881	0.091797	-0.307129	0.130670	-0.025732	-0.079169	0.322417	-0.285095	-0.269226	-0.861560	22.020639	-41.671518	-147.435631
49607		12.184685	-1.989364	-7.246595	-11.341895	-8.360366	-7.282596	1.669444	0.053549	0.088140	-0.835693	0.089600	-0.300781	0.121836	-0.019234	-0.072661	0.325283	-0.282344	-0.276189	-0.859181	22.920164	-41.670744	-147.350456
49608		11.558284	-1.221865	-6.236048	-10.013761	-8.014755	-6.736598	1.499250	-0.453992	0.121672	-0.834473	0.091797	-0.303955	0.115731	-0.011682	-0.062187	0.327331	-0.282078	-0.283181	-0.856210	23.809176	-41.945545	-147.396177
49609		12.101456	-0.654216	-4.515216	-9.369111	-7.461716	-4.934006	1.188117	-0.888278	0.165608	-0.833252	0.084961	-0.296387	0.121219	-0.006176	-0.044651	0.328493	-0.284226	-0.289473	-0.852944	24.595761	-42.457083	-147.554282
49610		12.935188	-0.448550	-2.595903	-9.116875	-6.581283	-2.897019	0.872267	-1.107555	0.153485	-0.830811	0.101807	-0.280762	0.129496	-0.004275	-0.025261	0.328822	-0.287797	-0.294781	-0.849796	25.264275	-43.078447	-147.803137
49611		12.845130	0.358185	-1.143091	-7.991118	-5.964043	-1.627170	0.551565	-1.130576	0.101747	-0.825928	0.096924	-0.264893	0.128511	0.003677	-0.010695	0.328419	-0.291902	-0.298824	-0.847135	25.789553	-43.696652	-148.108284
49612		11.546842	1.076589	-0.319077	-6.375205	-5.244349	-1.661452	0.163984	-1.077855	0.069181	-0.816406	0.099365	-0.257568	0.115480	0.010808	-0.002560	0.327383	-0.296365	-0.301178	-0.845151	26.105007	-44.278531	-148.427289
49613		0.104077	10.172530	7.527563	9.707593	-0.900311	-1.743847	-0.485297	-1.023367	0.320394	-0.808594	0.102783	-0.255615	0.000493	0.101909	0.075032	0.326515	-0.302024	-0.300315	-0.843789	25.912758	-44.894577	-148.550046
49614		4.875847	20.110398	16.586132	17.190910	-2.522233	10.221565	-2.243938	-0.896465	1.169259	-0.798828	0.117920	-0.231445	0.046837	0.203227	0.163802	0.326731	-0.311265	-0.290515	-0.843779	24.229015	-45.652847	-147.989655
49615		-3.026727	29.098736	32.588993	34.343331	5.383593	16.821506	-2.385614	-0.445119	1.400634	-0.798096	0.145264	-0.239258	-0.033042	0.294621	0.322319	0.328292	-0.319107	-0.278961	-0.844142	22.198388	-46.211896	-147.066416
49616		-0.638167	-4.958382	8.745938	-0.100147	9.282255	-5.899710	-1.739472	-0.225118	1.583385	-0.792480	0.155273	-0.238281	-0.006092	-0.048870	0.087880	0.331909	-0.325158	-0.269439	-0.843511	20.356522	-46.669512	-145.899582
49617		15.216991	-20.930099	17.152819	-17.595190	18.807695	7.522252	-0.844455	-0.204029	1.657677	-0.794922	0.169922	-0.232422	0.153718	-0.207304	0.172563	0.337283	-0.329700	-0.263500	-0.841490	18.952833	-47.107090	-144.640099
49618		14.212655	-1.855667	9.360577	-5.763397	1.732024	6.213681	0.314094	0.860529	0.600003	-0.791748	0.172607	-0.239746	0.142583	-0.018276	0.092964	0.341498	-0.326397	-0.262368	-0.841432	18.608192	-46.758907	-143.922570
49619		8.973263	9.988172	3.251138	3.685440	-7.752431	1.011832	0.034249	0.271976	0.106814	-0.794434	0.175293	-0.241943	0.089723	0.099924	0.032406	0.342405	-0.325395	-0.261865	-0.841608	18.507121	-46.638556	-143.757230
49620		10.397494	-1.863956	6.846312	-4.619240	1.492742	1.801465	-0.156328	-0.058462	0.045151	-0.796387	0.175781	-0.238770	0.103959	-0.018563	0.068508	0.342309	-0.326028	-0.261226	-0.841600	18.396300	-46.686502	-143.728391
49621		8.416410	-1.973354	6.008823	-3.909034	1.812552	-0.206953	0.091396	-0.005671	-0.068675	-0.787354	0.180176	-0.239014	0.084156	-0.019790	0.060082	0.342207	-0.325867	-0.261723	-0.841550	18.482829	-46.685026	-143.775847
49622		8.200111	2.201993	4.964233	-1.066471	-1.407054	-0.137099	0.097277	-0.056744	-0.165507	-0.782959	0.181396	-0.242920	0.082005	0.021928	0.049676	0.341639	-0.325785	-0.262490	-0.841573	18.638272	-46.693728	-143.913444
49623		7.634904	1.135301	7.024055	-0.798699	0.880859	0.555732	0.098455	-0.121546	-0.228816	-0.786865	0.174316	-0.242920	0.076319	0.011231	0.070292	0.340722	-0.325888	-0.263476	-0.841597	18.843745	-46.725473	-144.118734
49624		7.215967	1.799183	7.322388	0.025820	0.855804	0.588824	0.157447	-0.092126	-0.263758	-0.784424	0.160400	-0.248291	0.072150	0.017839	0.073271	0.339792	-0.325723	-0.264716	-0.841648	19.097407	-46.734397	-144.343784
49625		6.933380	2.498854	6.811392	0.498166	0.215134	0.208118	0.182541	-0.098662	-0.289385	-0.788086	0.170166	-0.240234	0.069336	0.024826	0.068171	0.338785	-0.325505	-0.266114	-0.841697	19.381717	-46.741101	-144.591082
49626		6.936692	2.638051	6.971928	0.639892	0.264023	0.346323	0.208198	-0.128890	-0.307188	-0.785156	0.163086	-0.240723	0.069362	0.026201	0.069791	0.337704	-0.325348	-0.267699	-0.841690	19.697068	-46.760007	-144.860856
49627		7.412034	3.626429	5.921273	0.703168	-1.219321	0.245614	0.197526	-0.082045	-0.255756	-0.780518	0.163818	-0.238525	0.074142	0.036111	0.059279	0.336883	-0.325078	-0.269076	-0.841684	19.967467	-46.762539	-145.077176
49628		7.499902	3.843382	5.613062	0.686306	-1.576047	0.165870	0.122549	-0.034146	-0.169344	-0.780273	0.161621	-0.251709	0.075022	0.038336	0.056167	0.336369	-0.324851	-0.269915	-0.841709	20.135323	-46.755870	-145.211762
49629		7.224511	3.008575	5.727574	0.253794	-0.856961	-0.156012	0.059687	0.025156	-0.084074	-0.781494	0.158936	-0.239502	0.072265	0.030038	0.057276	0.336190	-0.324592	-0.270252	-0.841772	20.206022	-46.733791	-145.262381
49630		7.097914	2.564488	6.278879	0.192894	-0.157310	0.001555	-0.014418	0.046816	0.004857	-0.771240	0.172607	-0.244629	0.070993	0.025651	0.062770	0.336296	-0.324489	-0.270096	-0.841820	20.178822	-46.717819	-145.236832
49631		7.481177	2.546284	6.114087	-0.093714	-0.416803	0.169852	-0.100601	0.096514	0.098812	-0.772461	0.166748	-0.257568	0.074829	0.025531	0.061092	0.336723	-0.324446	-0.269341	-0.841907	20.038299	-46.693410	-145.123460
49632		7.118450	2.639725	6.421057	0.300212	-0.146457	0.125060	-0.153364	0.118771	0.157893	-0.778809	0.171631	-0.261719	0.071202	0.026503	0.064148	0.337344	-0.324480	-0.268231	-0.842000	19.829285	-46.668501	-144.957396
49633		6.941119	1.612368	6.842008	-0.197585	0.827648	0.029459	-0.161685	0.128425	0.182121	-0.773193	0.171631	-0.251465	0.069440	0.016242	0.068362	0.338065	-0.324517	-0.267029	-0.842079	19.599944	-46.642447	-144.769925
49634		7.088903	1.797933	6.673441	-0.192686	0.512470	0.072660	-0.181417	0.166275	0.205370	-0.767578	0.168945	-0.257568	0.070926	0.018113	0.066659	0.338902	-0.324460	-0.265642	-0.842203	19.338574	-46.600015	-144.553801
49635		7.447082	2.609444	6.414555	0.126751	-0.343733	0.350011	-0.184768	0.171717	0.198941	-0.766113	0.176514	-0.261230	0.074500	0.026228	0.064057	0.339712	-0.324375	-0.264241	-0.842350	19.078394	-46.552573	-144.341834
49636		7.453079	2.609849	6.323756	0.100962	-0.436521	0.294180	-0.168427	0.172837	0.175055	-0.761963	0.172607	-0.265381	0.074562	0.026217	0.063151	0.340450	-0.324226	-0.262946	-0.842515	18.841426	-46.499623	-144.148747
49637		7.316472	2.130982	6.404013	-0.142345	-0.053733	0.140203	-0.134134	0.177054	0.142845	-0.768066	0.179443	-0.271973	0.073206	0.021405	0.063961	0.341111	-0.323957	-0.261839	-0.842695	18.642251	-46.437774	-143.980532
49638		7.256514	1.701624	6.269872	-0.475134	0.129222	-0.085338	-0.086631	0.173640	0.090578	-0.758545	0.169189	-0.270508	0.072612	0.017076	0.062628	0.341625	-0.323554	-0.261022	-0.842895	18.501169	-46.368079	-143.854725
49639		7.135495	1.352166	6.759207	-0.488477	0.706345	0.071289	-0.050589	0.099126	0.035861	-0.770752	0.186035	-0.270752	0.071386	0.013552	0.067553	0.341869	-0.323330	-0.260573	-0.843021	18.426457	-46.328606	-143.792034
49640		7.100963	1.353983	6.871480	-0.427726	0.787637	0.120634	-0.003352	0.021922	-0.033979	-0.757080	0.172119	-0.280518	0.071019	0.013529	0.068707	0.341795	-0.323261	-0.260568	-0.843079	18.433186	-46.318610	-143.804495
49641		7.108465	1.581675	6.649152	-0.346632	0.498392	0.029804	0.044399	-0.037476	-0.090336	-0.765381	0.168213	-0.283203	0.071079	0.015770	0.066508	0.341482	-0.323286	-0.260957	-0.843076	18.510729	-46.330468	-143.877042
49642		7.071411	2.009679	6.536351	-0.052938	0.179567	0.022581	0.074041	-0.056795	-0.108346	-0.762939	0.169434	-0.281250	0.070706	0.020034	0.065391	0.341116	-0.323320	-0.261533	-0.843033	18.619122	-46.349639	-143.968784
49643		7.066586	2.244009	6.747562	0.196117	0.187309	0.208701	0.090941	-0.071722	-0.128498	-0.747070	0.175049	-0.284424	0.070656	0.022364	0.067511	0.340672	-0.323360	-0.262238	-0.842978	18.751758	-46.372893	-144.080565
49644		7.353899	1.899594	6.250581	-0.408951	-0.023670	0.015344	0.116067	-0.102843	-0.147950	-0.752930	0.169189	-0.280762	0.073521	0.018905	0.062555	0.340147	-0.323464	-0.263132	-0.842871	18.915925	-46.409407	-144.216012
49645		7.355446	2.019584	6.313623	-0.304607	-0.037452	0.084226	0.121965	-0.112354	-0.175778	-0.754395	0.175049	-0.283691	0.073537	0.020093	0.063190	0.339500	-0.323560	-0.264113	-0.842789	19.101553	-46.445413	-144.376277
49646		7.518300	2.255714	6.222879	-0.261623	-0.289796	0.196550	0.134734	-0.112284	-0.172178	-0.750488	0.169678	-0.276123	0.075167	0.022450	0.062286	0.338889	-0.323639	-0.265141	-0.842681	19.292567	-46.481887	-144.533845
49647		7.486561	2.621485	6.298618	0.046792	-0.433445	0.306761	0.149609	-0.121862	-0.183546	-0.753174	0.164307	-0.282227	0.074851	0.026099	0.063051	0.338241	-0.323717	-0.266266	-0.842557	19.500919	-46.520805	-144.703406
49648		7.392284	2.568323	6.404765	0.089915	-0.266015	0.295935	0.168131	-0.134064	-0.184847	-0.753662	0.171387	-0.281006	0.073904	0.025561	0.064119	0.337601	-0.323814	-0.267491	-0.842389	19.723310	-46.565821	-144.877606
49649		7.401131	2.389319	6.245569	-0.114160	-0.238007	0.158420	0.156649	-0.128885	-0.159709	-0.757813	0.169189	-0.285645	0.073990	0.023785	0.062522	0.337054	-0.323940	-0.268618	-0.842201	19.924237	-46.612284	-145.031149
49650		7.308134	2.375499	6.434047	-0.010231	-0.042436	0.209629	0.152611	-0.122860	-0.147715	-0.757813	0.164795	-0.285400	0.073059	0.023652	0.064403	0.336559	-0.324064	-0.269698	-0.842006	20.114995	-46.657704	-145.173788
49651		7.278015	2.678658	6.516862	0.256287	-0.143937	0.312912	0.125419	-0.106719	-0.111708	-0.751953	0.164795	-0.283447	0.072760	0.026705	0.065224	0.336192	-0.324213	-0.270578	-0.841812	20.266674	-46.701063	-145.284005
49652		7.471178	2.559357	6.238141	-0.045159	-0.315351	0.246224	0.086272	-0.087528	-0.072958	-0.756348	0.160400	-0.283691	0.074694	0.025539	0.062425	0.335952	-0.324401	-0.271198	-0.841637	20.369871	-46.741859	-145.358370
49653		7.295609	2.416243	6.132589	-0.091183	-0.214941	0.016771	0.074011	-0.085885	-0.058008	-0.748779	0.160400	-0.287109	0.072937	0.024119	0.061366	0.335756	-0.324620	-0.271739	-0.841456	20.457414	-46.784468	-145.420830
49654		7.602976	2.425827	6.057646	-0.283096	-0.379765	0.195339	0.051446	-0.078853	-0.025277	-0.746582	0.170654	-0.285156	0.076009	0.024233	0.060613	0.335671	-0.324895	-0.272120	-0.841261	20.511842	-46.830028	-145.455549
49655		7.424328	2.665319	6.273678	0.078165	-0.307475	0.261187	0.002933	-0.057013	0.011297	-0.742920	0.164795	-0.294434	0.074224	0.026656	0.062758	0.335690	-0.325206	-0.272201	-0.841107	20.513021	-46.870984	-145.455363
49656		7.479754	2.549465	6.101425	-0.095253	-0.370114	0.163675	-0.013405	-0.041585	0.033927	-0.754150	0.165039	-0.294678	0.074781	0.025511	0.061028	0.335799	-0.325513	-0.272150	-0.840961	20.488460	-46.908425	-145.432713
49657		7.294417	2.512883	6.204910	0.026721	-0.205204	0.085857	-0.022345	-0.025019	0.047413	-0.746338	0.159912	-0.292480	0.072930	0.025153	0.062055	0.335972	-0.325782	-0.272012	-0.840832	20.447531	-46.939443	-145.394708
49658		7.350288	2.703275	6.293333	0.176687	-0.289370	0.228503	-0.044438	0.002719	0.074898	-0.752930	0.166016	-0.301270	0.073494	0.027074	0.062926	0.336264	-0.326010	-0.271690	-0.840731	20.372071	-46.961262	-145.326742
49659		7.374600	2.667823	6.397313	0.184328	-0.214451	0.304013	-0.079330	0.031766	0.119214	-0.743896	0.161377	-0.286621	0.073740	0.026748	0.063951	0.336723	-0.326233	-0.271100	-0.840651	20.244932	-46.975973	-145.215493
49660		7.247088	2.467193	6.138681	0.023829	-0.226311	-0.002543	-0.102719	0.043932	0.144937	-0.750977	0.159424	-0.302246	0.072466	0.024756	0.061358	0.337269	-0.326481	-0.270349	-0.840578	20.086844	-46.989264	-145.080202
49661		7.333692	2.181960	6.283316	-0.171036	0.002830	0.086542	-0.101209	0.030277	0.138115	-0.752197	0.175049	-0.299561	0.073331	0.021902	0.062811	0.337769	-0.326772	-0.269638	-0.840492	19.936404	-47.008089	-144.954289
49662		7.588246	2.177125	6.156709	-0.351501	-0.191095	0.190629	-0.082710	0.033127	0.115231	-0.748291	0.160156	-0.304688	0.075880	0.021840	0.061546	0.338209	-0.326991	-0.269038	-0.840423	19.809032	-47.020948	-144.845380
49663		7.497006	2.253976	6.386459	-0.148967	-0.059452	0.289126	-0.067643	0.034224	0.107475	-0.747803	0.166504	-0.320801	0.074969	0.022602	0.063844	0.338640	-0.327167	-0.268511	-0.840349	19.694559	-47.031323	-144.742395
49664		7.656292	2.313762	6.155264	-0.269329	-0.326112	0.270997	-0.068262	0.054325	0.105814	-0.738770	0.165283	-0.308838	0.076567	0.023199	0.061524	0.339091	-0.327259	-0.267951	-0.840310	19.576433	-47.030632	-144.634837
49665		7.391501	2.245653	6.330696	-0.100297	-0.074271	0.174272	-0.081696	0.079741	0.118597	-0.739990	0.166748	-0.323486	0.073927	0.022526	0.063268	0.339607	-0.327283	-0.267269	-0.840310	19.438073	-47.018252	-144.510205
49666		7.518165	2.486486	6.127240	-0.058422	-0.428580	0.190380	-0.098539	0.114880	0.131194	-0.753174	0.178467	-0.315918	0.075200	0.024944	0.061217	0.340196	-0.327206	-0.266437	-0.840366	19.275634	-46.989300	-144.365721
49667		7.287144	2.601209	6.475710	0.290939	-0.195237	0.271001	-0.115901	0.137031	0.140202	-0.750488	0.164795	-0.324463	0.072898	0.026101	0.064692	0.340822	-0.327075	-0.265479	-0.840466	19.093848	-46.949508	-144.208381
49668		7.391183	2.341360	6.179489	-0.062108	-0.293658	0.097283	-0.115931	0.129707	0.152842	-0.746582	0.173584	-0.321533	0.073934	0.023506	0.061733	0.341492	-0.326993	-0.264512	-0.840531	18.906410	-46.915952	-144.043130
49669		7.595722	1.823397	6.101556	-0.582407	-0.123215	0.081470	-0.105373	0.106460	0.142534	-0.746582	0.167236	-0.331055	0.075977	0.018320	0.060965	0.342104	-0.326974	-0.263646	-0.840561	18.735877	-46.892490	-143.892773
49670		7.210899	1.929605	6.554467	-0.115512	0.249326	0.117365	-0.090785	0.102187	0.122569	-0.741455	0.173096	-0.325195	0.072131	0.019370	0.065499	0.342652	-0.326924	-0.262881	-0.840597	18.586218	-46.867670	-143.759393
49671		7.388954	1.660506	6.428790	-0.454745	0.247242	0.107762	-0.075937	0.075243	0.100168	-0.747559	0.175537	-0.337891	0.073905	0.016666	0.064254	0.343092	-0.326931	-0.262261	-0.840609	18.463477	-46.852925	-143.651310
49672		6.955741	1.741681	6.732469	-0.037912	0.562555	0.006885	-0.057266	0.060242	0.058191	-0.745850	0.172363	-0.338867	0.069573	0.017456	0.067299	0.343368	-0.326915	-0.261813	-0.840642	18.378660	-46.838871	-143.580436
49673		6.931743	1.983956	6.793579	0.182629	0.453236	0.081709	-0.041829	0.037549	0.031768	-0.748291	0.173584	-0.342285	0.069327	0.019865	0.067919	0.343527	-0.326931	-0.261512	-0.840664	18.322487	-46.832062	-143.536783
49674		7.136598	1.998858	6.604024	0.013494	0.230179	0.111345	-0.026973	0.018752	0.008962	-0.744873	0.175049	-0.332764	0.071371	0.020001	0.066031	0.343591	-0.326973	-0.261344	-0.840674	18.291572	-46.831610	-143.516034
49675		7.529024	1.804068	6.300858	-0.458601	-0.009893	0.158836	-0.010164	-0.004493	-0.010575	-0.746094	0.175293	-0.340820	0.075290	0.018040	0.063009	0.343568	-0.327056	-0.261318	-0.840659	18.286171	-46.840026	-143.517114
49676		7.644593	1.689275	6.015213	-0.713007	-0.172486	0.033028	0.013218	-0.020801	-0.033724	-0.742432	0.179688	-0.346436	0.076443	0.016876	0.060161	0.343467	-0.327140	-0.261456	-0.840625	18.310623	-46.853414	-143.540711
49677		7.654227	1.840435	6.048198	-0.593674	-0.243554	0.094044	0.034939	-0.043084	-0.065506	-0.746582	0.174561	-0.349609	0.076535	0.018369	0.060502	0.343237	-0.327236	-0.261775	-0.840582	18.370380	-46.872915	-143.595670
49678		7.577261	1.945288	6.250337	-0.399580	-0.134544	0.191710	0.044368	-0.063634	-0.082502	-0.741455	0.180176	-0.351074	0.075761	0.019408	0.062532	0.342926	-0.327382	-0.262198	-0.840521	18.449323	-46.900753	-143.669446
49679		7.139845	2.182506	6.655357	0.166612	0.175506	0.186108	0.066315	-0.087058	-0.103885	-0.748291	0.170410	-0.352783	0.071381	0.021766	0.066592	0.342528	-0.327559	-0.262787	-0.840430	18.558045	-46.937060	-143.766781
49680		7.103263	1.950661	6.544813	-0.031417	0.278921	0.037043	0.106834	-0.111705	-0.145589	-0.749512	0.171875	-0.347656	0.071010	0.019420	0.065498	0.341990	-0.327717	-0.263657	-0.840315	18.719128	-46.979245	-143.903894
49681		7.216648	1.815557	6.546938	-0.201433	0.342594	0.090880	0.153701	-0.140812	-0.206952	-0.750000	0.173584	-0.350830	0.072139	0.018031	0.065534	0.341231	-0.327833	-0.264874	-0.840196	18.948954	-47.025254	-144.098220
49682		7.780573	1.807645	6.095811	-0.696074	-0.150984	0.210107	0.174865	-0.154653	-0.233867	-0.755371	0.173828	-0.350342	0.077780	0.017932	0.061034	0.340376	-0.327937	-0.266247	-0.840068	19.209655	-47.073438	-144.317999
49683		7.733128	2.244075	6.091316	-0.355036	-0.383244	0.270383	0.109514	-0.103963	-0.160013	-0.755859	0.159668	-0.358398	0.077318	0.022346	0.060966	0.339789	-0.328036	-0.267137	-0.839984	19.380184	-47.107339	-144.465656
49684		7.591046	2.711937	5.916069	0.003619	-0.723752	0.160006	0.035815	-0.044223	-0.065472	-0.756592	0.171387	-0.358154	0.075906	0.027084	0.059182	0.339559	-0.328136	-0.267461	-0.839935	19.441265	-47.127065	-144.521483
49685		7.116154	2.540160	6.482448	0.346997	-0.042970	0.136781	0.007770	-0.006097	-0.029116	-0.748535	0.165527	-0.360596	0.071163	0.025389	0.064828	0.339486	-0.328171	-0.267543	-0.839925	19.457451	-47.132795	-144.537993
49686		7.070647	2.720311	6.684712	0.580874	-0.001389	0.274041	-0.004283	0.022463	-0.015813	-0.753418	0.166260	-0.357910	0.070716	0.027199	0.066839	0.339488	-0.328126	-0.267504	-0.839954	19.453002	-47.125945	-144.535715
49687		7.379688	2.359097	6.410518	0.038231	-0.083712	0.242729	-0.008371	0.041051	0.001775	-0.763428	0.165527	-0.363281	0.073810	0.023594	0.064089	0.339581	-0.328032	-0.267388	-0.839990	19.432280	-47.112094	-144.514479
49688		7.555474	2.141773	6.262097	-0.277741	-0.120793	0.226959	-0.006988	0.064153	-0.009441	-0.760010	0.165771	-0.359375	0.075576	0.021416	0.062596	0.339662	-0.327825	-0.267257	-0.840080	19.414046	-47.083922	-144.495487
49689		7.625502	2.204428	6.125327	-0.323257	-0.285158	0.204378	-0.007081	0.081361	0.001775	-0.760742	0.167725	-0.368652	0.076280	0.022047	0.061221	0.339811	-0.327559	-0.267077	-0.840181	19.385856	-47.048276	-144.463025
49690		7.495214	2.489913	6.131444	-0.038301	-0.416669	0.177178	-0.017247	0.110792	0.036500	-0.760254	0.165771	-0.372803	0.074982	0.024918	0.061271	0.340130	-0.327235	-0.266748	-0.840283	19.325652	-47.003615	-144.394675
49691		7.204004	2.317110	6.373731	0.081668	-0.042280	0.080878	-0.025676	0.137014	0.063913	-0.766602	0.159424	-0.370361	0.072076	0.023202	0.063685	0.340583	-0.326849	-0.266294	-0.840393	19.239670	-46.949582	-144.297687
49692		6.993740	2.515474	6.674454	0.456023	0.104039	0.165766	-0.039449	0.148487	0.087731	-0.760254	0.166748	-0.369629	0.069976	0.025199	0.066688	0.341131	-0.326472	-0.265723	-0.840498	19.129840	-46.894034	-144.178682
49693		7.037326	2.573732	6.591853	0.446574	-0.021846	0.157300	-0.054966	0.138817	0.124524	-0.759766	0.177246	-0.366211	0.070403	0.025799	0.065863	0.341793	-0.326209	-0.265044	-0.840546	18.992157	-46.850110	-144.033683
49694		7.369279	2.493706	6.278935	0.093418	-0.332389	0.178840	-0.081761	0.123435	0.146127	-0.763184	0.169434	-0.373047	0.073713	0.025017	0.062734	0.342483	-0.326086	-0.264242	-0.840565	18.829857	-46.818585	-143.875803
49695		7.291271	2.313655	6.358779	0.038695	-0.154099	0.133389	-0.089191	0.122441	0.154986	-0.767334	0.165283	-0.370605	0.072934	0.023221	0.063533	0.343195	-0.325990	-0.263396	-0.840577	18.658686	-46.788608	-143.711605
49696		7.571638	2.139677	6.128649	-0.322385	-0.331328	0.149969	-0.086638	0.110212	0.156826	-0.770508	0.174805	-0.380371	0.075733	0.021483	0.061235	0.343904	-0.325945	-0.262580	-0.840560	18.490418	-46.765587	-143.549204
49697		7.302583	2.231964	6.469642	0.029228	-0.071619	0.195291	-0.095155	0.112046	0.158771	-0.761475	0.165283	-0.385010	0.073044	0.022408	0.064645	0.344608	-0.325907	-0.261720	-0.840555	18.316043	-46.741277	-143.385163
49698		7.404652	2.396604	6.475811	0.108197	-0.232188	0.308728	-0.106240	0.118266	0.163327	-0.769775	0.169189	-0.378418	0.074065	0.024061	0.064702	0.345322	-0.325869	-0.260795	-0.840564	18.131611	-46.714367	-143.215847
49699		7.327693	2.294701	6.556726	0.114560	-0.103095	0.283233	-0.098801	0.094576	0.182670	-0.772461	0.171875	-0.378174	0.073287	0.023046	0.065521	0.346097	-0.325941	-0.259911	-0.840492	17.944971	-46.703100	-143.037704
49700		7.631160	2.166048	6.169234	-0.278399	-0.423812	0.223679	-0.092969	0.094092	0.197581	-0.772461	0.177490	-0.386719	0.076319	0.021765	0.061646	0.346944	-0.326026	-0.259027	-0.840382	17.753148	-46.694633	-142.847692
49701		7.556587	2.324548	6.328482	-0.046271	-0.406588	0.305993	-0.097606	0.095586	0.209514	-0.778809	0.181641	-0.387451	0.075572	0.023356	0.063237	0.347833	-0.326125	-0.258101	-0.840261	17.551623	-46.686655	-142.648100
49702		7.742503	2.047359	6.145380	-0.408736	-0.452280	0.263624	-0.100114	0.086948	0.229295	-0.775146	0.184326	-0.381836	0.077428	0.020593	0.061410	0.348792	-0.326293	-0.257148	-0.840091	17.338757	-46.686637	-142.434734
49703		7.100936	2.101039	6.637516	0.177111	0.087378	0.129910	-0.094505	0.083842	0.209237	-0.783447	0.190918	-0.391602	0.071015	0.021116	0.066335	0.349669	-0.326434	-0.256255	-0.839944	17.141377	-46.684054	-142.238379
49704		7.347299	1.600636	6.339508	-0.430657	0.082043	0.012890	-0.086996	0.071991	0.190745	-0.784668	0.176025	-0.382324	0.073480	0.016104	0.063362	0.350467	-0.326591	-0.255445	-0.839797	16.961107	-46.684754	-142.059467
49705		7.413378	1.186507	6.457307	-0.724769	0.374367	0.056320	-0.065727	0.070664	0.143063	-0.767578	0.190430	-0.392090	0.074148	0.011939	0.064543	0.351095	-0.326652	-0.254803	-0.839706	16.821056	-46.677559	-141.919232
49706		7.486163	1.292975	6.214435	-0.766093	0.104996	-0.028225	-0.043925	0.065609	0.095992	-0.781006	0.188965	-0.395508	0.074876	0.012979	0.062117	0.351557	-0.326639	-0.254339	-0.839659	16.721715	-46.665507	-141.817642
49707		7.188530	1.477794	6.398761	-0.393615	0.228129	-0.086640	-0.021946	0.054808	0.053593	-0.778809	0.193848	-0.394531	0.071899	0.014804	0.063966	0.351860	-0.326576	-0.254055	-0.839642	16.661652	-46.651956	-141.752847
49708		6.972651	1.577660	6.736552	-0.076152	0.474228	-0.001606	0.003550	0.046194	0.004505	-0.770020	0.179932	-0.396973	0.069742	0.015777	0.067350	0.351990	-0.326444	-0.253974	-0.839663	16.646148	-46.635409	-141.729128
49709		7.076101	1.816402	6.628457	0.007092	0.208760	0.049530	0.020673	0.029012	-0.017059	-0.781250	0.198730	-0.394043	0.070772	0.018151	0.066276	0.352034	-0.326325	-0.254029	-0.839674	16.656099	-46.624387	-141.727026
49710		6.899946	1.703290	6.737641	0.053849	0.427659	-0.029004	0.039588	0.004047	-0.051607	-0.789063	0.196533	-0.391357	0.069005	0.017002	0.067378	0.351934	-0.326235	-0.254265	-0.839680	16.701161	-46.621747	-141.758242
49711		7.192526	1.255012	6.214945	-0.641198	0.247290	-0.249177	0.086169	-0.044881	-0.114663	-0.791504	0.191895	-0.390869	0.071918	0.012482	0.062171	0.351581	-0.326186	-0.254885	-0.839659	16.818220	-46.635141	-141.851862
49712		6.871440	1.336469	6.700536	-0.236573	0.669213	-0.148519	0.157852	-0.090805	-0.205426	-0.784180	0.187500	-0.377930	0.068698	0.013241	0.067047	0.350907	-0.326091	-0.256034	-0.839628	17.037091	-46.658738	-142.028939
49713		7.125273	1.469019	6.698336	-0.288739	0.504364	0.059363	0.202587	-0.126211	-0.264626	-0.795410	0.189209	-0.396973	0.071230	0.014528	0.067043	0.350009	-0.325987	-0.257529	-0.839586	17.322693	-46.690801	-142.262478
49714		7.136043	1.909539	6.859825	0.080592	0.365063	0.261376	0.228902	-0.152967	-0.294206	-0.794189	0.173828	-0.385254	0.071336	0.018912	0.068675	0.348995	-0.325912	-0.259228	-0.839514	17.645632	-46.731899	-142.526456
49715		7.743305	1.808664	6.435310	-0.499057	-0.071427	0.404404	0.222312	-0.155012	-0.285377	-0.791992	0.177979	-0.384277	0.077409	0.017905	0.064433	0.348003	-0.325865	-0.260888	-0.839430	17.960761	-46.774293	-142.784716
49716		7.881049	2.313383	6.107302	-0.329237	-0.628763	0.397992	0.178778	-0.114387	-0.228582	-0.800049	0.180176	-0.386719	0.078802	0.022989	0.061139	0.347231	-0.325799	-0.262202	-0.839366	18.210590	-46.804151	-142.987461
49717		7.643032	2.580910	6.212452	0.028149	-0.604109	0.351259	0.132837	-0.058251	-0.157204	-0.799072	0.179688	-0.380615	0.076432	0.025708	0.062164	0.346756	-0.325667	-0.263108	-0.839330	18.382393	-46.815437	-143.119213
49718		7.619169	2.699439	6.007291	0.046490	-0.790922	0.227160	0.088381	-0.016569	-0.100393	-0.800049	0.174316	-0.372070	0.076200	0.026930	0.060091	0.346503	-0.325515	-0.263663	-0.839320	18.487653	-46.814522	-143.194593
49719		6.988580	2.794873	6.632113	0.684463	-0.167408	0.194309	0.056756	0.024176	-0.051924	-0.795654	0.184082	-0.382813	0.069901	0.027912	0.066321	0.346454	-0.325308	-0.263935	-0.839335	18.539001	-46.799838	-143.220922
49720		7.336002	2.356840	6.292293	0.036039	-0.263212	0.131859	0.031526	0.035286	-0.025169	-0.800293	0.172607	-0.387695	0.073374	0.023549	0.062914	0.346492	-0.325135	-0.264040	-0.839353	18.558109	-46.784364	-143.222782
49721		7.347165	2.392473	6.446516	0.109711	-0.187010	0.247895	0.017833	0.033273	-0.018972	-0.805420	0.179688	-0.376709	0.073485	0.023912	0.064455	0.346530	-0.325001	-0.264080	-0.839377	18.566314	-46.770733	-143.220521
49722		7.653145	2.084889	6.067430	-0.428792	-0.375575	0.157577	0.004982	0.017397	-0.013435	-0.798828	0.169922	-0.377441	0.076538	0.020842	0.060668	0.346551	-0.324965	-0.264084	-0.839381	18.566911	-46.767119	-143.217833
49723		7.373680	2.089356	6.343260	-0.172658	-0.079033	0.134044	0.006195	0.005294	-0.022327	-0.806641	0.175781	-0.368896	0.073741	0.020883	0.063431	0.346519	-0.324963	-0.264129	-0.839380	18.575814	-46.768072	-143.225682
49724		7.313418	2.238242	6.391465	-0.010187	-0.112785	0.153948	0.006536	-0.009425	-0.029365	-0.809082	0.175537	-0.377686	0.073134	0.022370	0.063919	0.346440	-0.325016	-0.264213	-0.839366	18.591714	-46.776130	-143.242765
49725		7.242532	2.573066	6.122174	0.183401	-0.468680	0.000704	0.011366	-0.020187	-0.030479	-0.807373	0.185791	-0.373779	0.072423	0.025716	0.061231	0.346348	-0.325102	-0.264337	-0.839332	18.613251	-46.789427	-143.263884
49726		7.402623	2.570900	6.203665	0.125853	-0.474447	0.169941	0.005947	-0.051293	-0.001775	-0.813477	0.176514	-0.376465	0.074011	0.025706	0.062056	0.346329	-0.325368	-0.264446	-0.839202	18.621050	-46.825262	-143.270286
49727		7.215571	2.043222	6.477380	-0.064385	0.118792	0.095764	0.007991	-0.093709	-0.010167	-0.811279	0.181152	-0.370117	0.072126	0.020426	0.064808	0.346220	-0.325795	-0.264650	-0.839017	18.643292	-46.882188	-143.294996
49728		6.978307	2.408141	6.726863	0.439078	0.166260	0.163592	0.013048	-0.139069	-0.006663	-0.809814	0.180908	-0.378418	0.069737	0.024075	0.067319	0.346075	-0.326411	-0.264949	-0.838743	18.675263	-46.964775	-143.328895
49729		6.756285	2.800152	7.025258	0.976433	0.226668	0.278777	0.007167	-0.191668	0.014965	-0.812256	0.176025	-0.370850	0.067493	0.028004	0.070318	0.345940	-0.327283	-0.265278	-0.838355	18.701862	-47.079465	-143.360137
49730		6.914701	2.617506	6.846324	0.704857	0.172595	0.237681	0.000446	-0.279969	0.036526	-0.804199	0.165283	-0.365967	0.069046	0.026188	0.068560	0.345768	-0.328567	-0.265696	-0.837791	18.729586	-47.246405	-143.397955
49731		7.249748	1.795093	6.806048	-0.086937	0.545025	0.276849	0.007250	-0.415018	0.032116	-0.820557	0.179932	-0.353516	0.072353	0.017960	0.068211	0.345407	-0.330396	-0.266382	-0.837002	18.791262	-47.485400	-143.476639
49732		6.783405	0.035096	6.853781	-1.111624	1.897438	-0.423661	0.097568	-0.644252	-0.052356	-0.818604	0.178955	-0.343506	0.067613	0.000300	0.068756	0.344535	-0.332916	-0.267980	-0.835853	19.002754	-47.833217	-143.687507
49733		6.235036	0.604142	7.846378	0.017193	2.517259	-0.093208	0.527796	-1.051837	-0.128958	-0.815674	0.177734	-0.339111	0.061940	0.005794	0.078806	0.343503	-0.336285	-0.272199	-0.833562	19.598286	-48.385561	-144.081755
49734		4.472392	5.586245	7.796757	4.778990	0.207626	-0.372662	0.097975	-1.548933	0.189983	-0.820801	0.177490	-0.332520	0.044065	0.055866	0.078338	0.342386	-0.342884	-0.274930	-0.830431	19.872918	-49.266014	-144.372546
49735		5.884763	3.204053	7.831829	2.358597	1.283156	0.138238	0.245934	-1.967043	0.362429	-0.822021	0.175537	-0.311523	0.058015	0.032049	0.078931	0.341634	-0.351172	-0.278673	-0.826018	20.233621	-50.403976	-144.660619
49736		6.462084	2.403473	7.278180	1.394604	1.330277	0.025362	0.129105	-2.467658	0.525308	-0.828857	0.182617	-0.284180	0.063653	0.024155	0.073587	0.340608	-0.361909	-0.282467	-0.820500	20.561566	-51.842379	-144.987302
49737		5.968562	4.149738	7.691384	3.345884	0.918336	0.185076	0.127711	-2.878972	0.683993	-0.840088	0.186768	-0.270020	0.058428	0.041649	0.077788	0.339584	-0.374490	-0.286613	-0.813814	20.912660	-53.531930	-145.337154
49738		6.759068	3.261712	7.816199	2.578398	1.485761	0.606047	0.033165	-3.260825	0.889444	-0.845459	0.188232	-0.242676	0.066159	0.032900	0.079254	0.338585	-0.388984	-0.290566	-0.805992	21.197868	-55.466851	-145.664578
49739		7.842503	3.070217	7.718716	2.183874	1.417169	1.310134	-0.030893	-3.545589	1.064444	-0.854736	0.202148	-0.211914	0.076876	0.031126	0.078554	0.337646	-0.404864	-0.294310	-0.797159	21.429098	-57.589234	-145.963389
49740		9.253827	1.589494	7.664585	0.733995	2.103394	2.100511	-0.019708	-3.701979	1.162997	-0.854004	0.212646	-0.188477	0.091004	0.016435	0.078338	0.336769	-0.421348	-0.298056	-0.787537	21.670609	-59.814998	-146.259702
49741		10.558159	1.353615	6.798981	-0.018374	1.517336	2.725682	0.098765	-3.695329	1.143144	-0.858398	0.224609	-0.153320	0.104222	0.014100	0.069931	0.335947	-0.437416	-0.302187	-0.777489	22.041583	-62.032143	-146.619765
49742		10.944164	-0.234877	5.940885	-1.469367	2.007195	2.390546	0.404496	-3.610732	0.943607	-0.853271	0.225098	-0.127930	0.108355	-0.001959	0.061367	0.335023	-0.452181	-0.307689	-0.767215	22.833827	-64.158927	-147.248729
49743		12.695057	1.302506	5.827616	-0.619475	0.945868	4.170288	0.925264	-3.399299	0.713348	-0.857666	0.234619	-0.103516	0.125888	0.013199	0.060483	0.334604	-0.464755	-0.315252	-0.756742	24.221937	-66.116253	-148.194542
49744		12.150131	3.718906	4.698925	1.251475	-0.860630	3.648801	1.106157	-3.125029	0.682754	-0.846191	0.235596	-0.083252	0.120618	0.037334	0.049085	0.334819	-0.475798	-0.323013	-0.746442	25.792207	-67.912794	-149.212271
49745		12.027985	4.477064	4.333988	2.015251	-1.219447	3.526566	1.093195	-2.949115	0.803536	-0.851318	0.241211	-0.055420	0.119440	0.045007	0.045351	0.335646	-0.486269	-0.330056	-0.736170	27.290003	-69.638837	-150.147352
49746		14.008844	5.019672	6.475752	3.224209	0.208690	6.090861	1.055209	-2.565687	0.923331	-0.849121	0.248047	-0.040283	0.139007	0.050491	0.066811	0.337373	-0.495473	-0.335944	-0.726517	28.500499	-71.194244	-150.790930
49747		13.318678	5.814823	10.487906	6.327578	3.481616	6.589261	0.972857	-1.737219	0.978126	-0.850098	0.255615	-0.038818	0.131983	0.058281	0.106312	0.340430	-0.501815	-0.339944	-0.718837	29.006516	-72.345252	-150.737192
49748		9.016628	6.378709	12.027805	8.853655	5.291867	2.846738	0.846403	-0.794646	1.021089	-0.850830	0.264404	-0.027344	0.089361	0.063734	0.120904	0.344893	-0.505010	-0.341745	-0.713600	28.534723	-73.034480	-149.735698
49749		5.114603	6.824258	11.984955	10.251436	5.697478	-0.934926	0.685386	-0.127481	1.087866	-0.845215	0.272705	-0.036621	0.050699	0.068108	0.120116	0.350311	-0.506191	-0.341635	-0.710167	27.198473	-73.399168	-147.930227
49750		3.135069	6.253647	11.897167	10.218400	6.277007	-2.981681	0.537396	0.337620	1.126237	-0.849609	0.282715	-0.044678	0.031200	0.062393	0.119087	0.356268	-0.506021	-0.340071	-0.708073	25.253057	-73.518709	-145.580490
49751		3.016535	6.070102	11.097155	9.701049	5.743642	-3.332514	0.460369	0.681625	1.050934	-0.849854	0.294434	-0.046387	0.030225	0.060604	0.111008	0.362336	-0.504623	-0.337800	-0.707078	23.109862	-73.417497	-143.070143
49752		4.357069	6.769396	11.104472	9.968938	5.162815	-1.933396	0.448880	1.065095	0.722866	-0.841309	0.301270	-0.055420	0.043917	0.067603	0.110963	0.367841	-0.501307	-0.335602	-0.707641	21.313090	-73.016106	-140.925880
49753		3.119538	6.940911	9.958598	9.818883	4.321226	-3.332191	0.414997	1.341868	0.308757	-0.844238	0.297852	-0.072266	0.031756	0.069251	0.099518	0.372247	-0.496360	-0.333801	-0.709672	20.128937	-72.367659	-139.436921
49754		3.000746	6.724105	9.217086	9.257389	3.802798	-3.566860	0.306581	1.481938	-0.111644	-0.839844	0.296875	-0.092041	0.030727	0.067083	0.092048	0.375101	-0.490382	-0.332375	-0.712988	19.586941	-71.553752	-138.683372
49755		3.536584	5.913943	8.630731	8.087481	3.556200	-3.185842	0.197442	1.588496	-0.557623	-0.839111	0.296387	-0.110352	0.036215	0.058954	0.086080	0.376255	-0.483464	-0.331437	-0.717526	19.669264	-70.597182	-138.651194
49756		4.183059	4.985328	7.884028	6.691177	3.184559	-2.770476	0.080479	1.703414	-0.977623	-0.837158	0.278076	-0.106201	0.042743	0.049614	0.078499	0.375772	-0.475607	-0.330846	-0.723280	20.233664	-69.494718	-139.203846
49757		4.390351	3.966881	7.239978	5.356387	3.028634	-2.772687	-0.052968	1.784113	-1.298854	-0.841553	0.274170	-0.133789	0.044803	0.039399	0.071992	0.373911	-0.467138	-0.330355	-0.729958	21.058937	-68.283820	-140.121361
49758		4.755535	2.812302	6.838056	3.956853	3.103022	-2.601975	-0.191520	1.821604	-1.536376	-0.835205	0.265137	-0.139404	0.048390	0.027819	0.067916	0.370863	-0.458324	-0.329793	-0.737317	21.996447	-66.995807	-141.255082
49759		5.277232	1.793531	6.544669	2.662195	3.163472	-2.276069	-0.298993	1.845871	-1.671360	-0.835693	0.241211	-0.163330	0.053521	0.017587	0.064929	0.367065	-0.449343	-0.329057	-0.745034	22.910316	-65.660841	-142.440278
49760		5.992981	0.916327	6.406769	1.474545	3.234174	-1.740216	-0.371090	1.876634	-1.743676	-0.827881	0.237061	-0.168213	0.060605	0.008755	0.063485	0.362818	-0.440174	-0.328098	-0.752969	23.740116	-64.283771	-143.592215
49761		6.901601	0.352378	6.261115	0.453460	3.085721	-1.024801	-0.419681	1.931466	-1.743219	-0.831543	0.216309	-0.184814	0.069644	0.003049	0.061934	0.358504	-0.430828	-0.326807	-0.760960	24.415888	-62.874294	-144.615651
49762		7.853836	0.060878	6.138211	-0.383148	2.790094	-0.250871	-0.465089	2.025272	-1.689274	-0.827393	0.203125	-0.184814	0.079157	0.000083	0.060582	0.354377	-0.421204	-0.324995	-0.769014	24.888753	-61.421839	-145.453594
49763		8.921381	-0.088633	5.890785	-1.238082	2.266998	0.561452	-0.536706	2.151448	-1.583461	-0.816406	0.201172	-0.204346	0.089831	-0.001440	0.057947	0.350659	-0.411333	-0.322410	-0.777107	25.108669	-59.929710	-146.058923
49764		10.070060	-0.038996	5.616657	-2.016513	1.558583	1.432403	-0.635600	2.315449	-1.436347	-0.812744	0.188477	-0.201172	0.101336	-0.000940	0.054998	0.347495	-0.401143	-0.318780	-0.785309	25.042591	-58.385234	-146.408100
49765		10.760531	-0.207260	5.179106	-2.870078	0.935370	1.743037	-0.750402	2.503113	-1.250672	-0.813721	0.173340	-0.221436	0.108227	-0.002557	0.050448	0.345071	-0.390646	-0.313947	-0.793574	24.678949	-56.791188	-146.487102
49766		11.055058	-0.807700	4.417532	-4.022609	0.401929	1.413617	-0.811626	2.659213	-1.066547	-0.800537	0.167725	-0.214844	0.111081	-0.008493	0.042735	0.343417	-0.379825	-0.308165	-0.801768	24.098375	-55.157125	-146.349866
49767		11.096620	-1.224531	3.567304	-4.929049	-0.220049	0.817826	-0.768743	2.748888	-0.913711	-0.806396	0.164063	-0.233887	0.111386	-0.012620	0.034192	0.342531	-0.368738	-0.302052	-0.809611	23.433650	-53.513103	-146.074342
49768		11.403138	-1.435520	2.617697	-5.824307	-1.108202	0.374823	-0.659441	2.769837	-0.791174	-0.808350	0.158447	-0.244385	0.114322	-0.014724	0.024643	0.342288	-0.357469	-0.296043	-0.816954	22.778060	-51.881471	-145.727451
49769		11.829013	-1.156211	1.740267	-6.360104	-2.260968	0.123061	-0.556720	2.725439	-0.710134	-0.803223	0.156982	-0.261719	0.118471	-0.011937	0.015822	0.342433	-0.346264	-0.290333	-0.823740	22.178356	-50.291260	-145.367195
49770		12.443534	-0.625901	0.788152	-6.819220	-3.677532	-0.023955	-0.528413	2.629410	-0.608744	-0.814209	0.153320	-0.266602	0.124505	-0.006620	0.006262	0.342828	-0.335473	-0.284661	-0.829997	21.589664	-48.769359	-144.993640
49771		13.031134	0.005014	-0.093770	-7.146702	-5.090469	-0.178278	-0.579709	2.504023	-0.477307	-0.813721	0.147217	-0.288086	0.130286	-0.000267	-0.002569	0.343452	-0.325429	-0.278731	-0.835731	20.955468	-47.341353	-144.588098
49772		13.379578	0.703738	-0.883084	-7.236335	-6.382123	-0.475473	-0.701919	2.335254	-0.287291	-0.818848	0.139893	-0.294678	0.133690	0.006811	-0.010416	0.344373	-0.316504	-0.272217	-0.840911	20.211096	-46.037190	-144.119964
49773		13.362588	1.046589	-1.512187	-7.300246	-7.186369	-1.037942	-0.843466	2.112089	-0.068810	-0.820313	0.137939	-0.302246	0.133460	0.010352	-0.016576	0.345646	-0.309023	-0.265117	-0.845427	19.343259	-44.893105	-143.581034
49774		12.977606	0.923128	-1.861393	-7.370300	-7.336364	-1.776113	-0.883399	1.828989	0.130423	-0.822510	0.146973	-0.306641	0.129592	0.009230	-0.019840	0.347276	-0.303029	-0.257993	-0.849124	18.429190	-43.932310	-142.999960
49775		12.233186	0.758466	-1.951838	-7.140136	-7.102408	-2.559621	-0.778871	1.495008	0.279397	-0.828125	0.152100	-0.326416	0.122171	0.007677	-0.020462	0.349244	-0.298445	-0.251650	-0.851840	17.580506	-43.174998	-142.416478
49776		11.453814	0.742401	-1.827632	-6.677909	-6.773858	-3.134364	-0.545512	1.139053	0.366204	-0.824219	0.148682	-0.337646	0.114418	0.007583	-0.018949	0.351457	-0.295055	-0.246775	-0.853536	16.895924	-42.620650	-141.871358
49777		10.955227	0.918907	-1.382902	-6.107629	-6.463212	-3.202331	-0.229017	0.762812	0.401669	-0.821045	0.147461	-0.336426	0.109480	0.009393	-0.014257	0.353817	-0.292755	-0.243856	-0.854191	16.442485	-42.275675	-141.394486
49778		10.980531	1.098071	-0.576823	-5.707530	-6.146878	-2.618923	0.120418	0.409620	0.368512	-0.827881	0.159180	-0.326660	0.109773	0.011187	-0.005986	0.356109	-0.291298	-0.243096	-0.853953	16.261897	-42.116998	-141.023971
49779		11.657694	1.719039	0.502046	-5.260074	-6.218095	-1.281814	0.432675	0.152525	0.274540	-0.831787	0.157471	-0.332275	0.116557	0.017340	0.004969	0.358142	-0.290269	-0.244266	-0.853119	16.345343	-42.084946	-140.779219
49780		12.105267	2.383450	1.530524	-4.669812	-6.210396	-0.107810	0.629490	0.031937	0.143805	-0.829102	0.162354	-0.338867	0.121038	0.023873	0.015361	0.359752	-0.289238	-0.246677	-0.852098	16.624083	-42.098219	-140.657731
49781		11.754704	2.803149	2.253011	-3.919469	-5.838998	0.269504	0.680827	0.006387	-0.008218	-0.832031	0.156250	-0.327148	0.117549	0.027950	0.022622	0.360753	-0.288035	-0.249572	-0.851238	17.011476	-42.101074	-140.654263
49782		10.852425	2.929135	2.576204	-3.218233	-5.261736	-0.068521	0.611505	-0.010266	-0.158384	-0.824219	0.149170	-0.336182	0.108546	0.029126	0.025857	0.360992	-0.286837	-0.252416	-0.850703	17.436046	-42.087642	-140.765352
49783		9.519906	2.830528	2.653281	-2.526452	-4.494987	-0.919299	0.446072	-0.069147	-0.291448	-0.825684	0.156494	-0.337402	0.095231	0.028107	0.026629	0.360350	-0.286018	-0.254850	-0.850525	17.840480	-42.082605	-140.987991
49784		8.417354	2.567015	2.760421	-2.081382	-3.716348	-1.632357	0.209172	-0.205912	-0.353915	-0.823486	0.150879	-0.326660	0.084190	0.025492	0.027718	0.358928	-0.286127	-0.256614	-0.850559	18.162144	-42.140269	-141.289050
49785		8.132976	2.285373	3.135968	-2.031552	-3.135714	-1.612536	-0.049783	-0.359318	-0.363886	-0.819336	0.147949	-0.329346	0.081315	0.022714	0.031500	0.356893	-0.287338	-0.257562	-0.850721	18.366076	-42.278302	-141.635594
49786		8.172805	1.807495	3.803743	-2.213164	-2.394340	-1.216226	-0.282276	-0.482405	-0.332371	-0.823242	0.151855	-0.317383	0.081666	0.017993	0.038209	0.354499	-0.289527	-0.257696	-0.850939	18.443506	-42.488763	-141.990269
49787		8.611089	1.187188	4.467321	-2.714156	-1.745120	-0.587453	-0.428880	-0.546774	-0.287626	-0.804932	0.143311	-0.309326	0.086005	0.011844	0.044883	0.351993	-0.292302	-0.257250	-0.851166	18.427058	-42.741738	-142.329449
49788		9.203561	0.972511	4.921191	-3.048742	-1.547826	0.095826	-0.510233	-0.518913	-0.234729	-0.813965	0.155762	-0.311035	0.091919	0.009743	0.049426	0.349627	-0.295168	-0.256331	-0.851429	18.334736	-42.989936	-142.623257
49789		9.175551	0.921081	5.024394	-3.002252	-1.408583	0.151542	-0.570174	-0.443940	-0.116002	-0.812256	0.153809	-0.302734	0.091649	0.009301	0.050421	0.347766	-0.297965	-0.254843	-0.851663	18.135803	-43.218590	-142.810751
49790		-0.088434	2.947420	12.200099	6.326604	5.985621	-0.774840	-0.836292	-0.499911	0.100374	-0.800049	0.154541	-0.304932	-0.001204	0.029983	0.121874	0.346356	-0.301737	-0.251997	-0.851757	17.682507	-43.517377	-142.848166
49791		4.043691	2.543752	17.268606	5.486045	7.607072	5.453629	-0.802104	-0.357245	0.247423	-0.791260	0.163818	-0.297607	0.040096	0.026180	0.172654	0.345792	-0.305017	-0.248817	-0.851753	17.146328	-43.762891	-142.737694
49792		-3.782409	-3.207735	3.313364	0.949699	5.797205	-10.844638	-0.287376	-1.053114	0.324362	-0.796631	0.172363	-0.291016	-0.037946	-0.032091	0.032980	0.345467	-0.310459	-0.248911	-0.849889	16.975047	-44.402337	-142.728289
49793		3.079584	-1.334323	5.614862	-0.689239	3.129989	-4.110258	-0.299645	-1.984985	0.593538	-0.799316	0.171875	-0.264648	0.030276	-0.013168	0.056471	0.345081	-0.320194	-0.250123	-0.846070	16.801974	-45.597121	-142.726852
49794		22.496610	-2.172656	14.674594	-8.519135	1.408393	15.713442	-0.160297	-1.640970	0.783063	-0.790283	0.178711	-0.253906	0.223834	-0.020730	0.148602	0.346116	-0.328439	-0.251005	-0.842216	16.536956	-46.634436	-142.487033
49795		22.243108	1.220232	10.570408	-7.202421	-3.249279	13.544214	0.318034	0.390408	0.325565	-0.788574	0.187256	-0.260986	0.222617	0.012397	0.105289	0.348543	-0.326712	-0.251124	-0.841851	16.456482	-46.480611	-142.125733
49796		5.583356	4.878316	1.968110	1.367224	-4.159009	-3.513590	0.120397	0.149292	0.080637	-0.792236	0.187256	-0.261475	0.055829	0.048794	0.019669	0.349314	-0.326039	-0.251230	-0.841761	16.446302	-46.419853	-142.017076
49797		5.926417	4.695388	6.423135	2.710572	-1.290488	-0.356833	-0.027679	-0.056889	-0.001018	-0.776367	0.193848	-0.256592	0.059246	0.046962	0.064242	0.349238	-0.326386	-0.251207	-0.841665	16.433980	-46.458631	-142.022462
49798		7.269786	-0.425343	8.108383	-1.228415	2.467461	0.731467	0.023092	-0.138960	0.095423	-0.779297	0.193604	-0.253662	0.072644	-0.004228	0.081134	0.349550	-0.327114	-0.251384	-0.841200	16.408788	-46.558651	-141.969813
49799		10.139629	-0.720234	9.062146	-2.646628	2.062869	3.385541	0.214274	0.058378	0.075846	-0.775391	0.192871	-0.260742	0.101425	-0.007261	0.090584	0.350338	-0.326649	-0.252050	-0.840853	16.470785	-46.546550	-141.886609
49800		7.407573	2.034297	5.626416	-0.389040	-0.746617	-0.328057	0.259480	0.160433	-0.063315	-0.774170	0.193359	-0.267822	0.074127	0.020247	0.056231	0.350745	-0.325504	-0.252955	-0.840856	16.621473	-46.456316	-141.889921
49801		7.290968	3.491001	6.445722	1.055651	-1.073181	0.416021	0.152790	0.197986	-0.057443	-0.768555	0.182861	-0.270508	0.072983	0.034840	0.064412	0.351047	-0.324391	-0.253336	-0.841045	16.701260	-46.345909	-141.879718
49802		7.172237	2.242986	6.671956	0.244238	-0.096747	0.233105	0.104459	0.125591	-0.050536	-0.769043	0.187988	-0.271973	0.071770	0.022377	0.066686	0.351210	-0.323680	-0.253629	-0.841163	16.761539	-46.276907	-141.880769
49803		7.755961	1.856869	6.479534	-0.449793	-0.232408	0.450398	0.098194	0.130242	-0.062317	-0.766846	0.185303	-0.269775	0.077608	0.018513	0.064754	0.351317	-0.322940	-0.253906	-0.841319	16.824323	-46.202868	-141.890308
49804		7.483819	1.804685	6.281430	-0.424947	-0.212752	0.111775	0.065786	0.041939	-0.071228	-0.749512	0.187012	-0.278809	0.074858	0.018000	0.062805	0.351224	-0.322622	-0.254216	-0.841386	16.888602	-46.176304	-141.927599
49805		7.273431	1.602769	6.680315	-0.324118	0.270730	0.183307	0.061075	-0.038594	-0.098500	-0.752686	0.189209	-0.282227	0.072729	0.015971	0.066822	0.350905	-0.322613	-0.254692	-0.841379	16.979947	-46.188752	-142.006206
49806		7.564480	2.181253	6.428698	-0.143076	-0.367977	0.343665	0.065881	-0.052424	-0.111812	-0.743164	0.193359	-0.274414	0.075640	0.021749	0.064314	0.350521	-0.322640	-0.255234	-0.841365	17.083883	-46.207006	-142.098373
49807		7.795154	2.135065	5.956298	-0.481338	-0.736322	0.188639	0.062668	-0.028479	-0.092400	-0.746338	0.183594	-0.290039	0.077953	0.021296	0.059581	0.350242	-0.322592	-0.255689	-0.841361	17.170976	-46.214762	-142.169787
49808		7.653294	2.136746	6.428878	-0.236429	-0.358381	0.399302	0.055633	-0.015455	-0.094753	-0.740479	0.189453	-0.278564	0.076538	0.021313	0.064301	0.349961	-0.322503	-0.256095	-0.841388	17.252875	-46.215500	-142.239503
49809		7.560876	2.430480	6.317785	-0.010910	-0.569942	0.319614	0.033008	0.022627	-0.071156	-0.735840	0.192871	-0.298096	0.075625	0.024267	0.063173	0.349789	-0.322320	-0.256301	-0.841468	17.301794	-46.198781	-142.281580
49810		7.281768	2.224302	6.732825	0.131647	-0.049404	0.350129	0.013803	0.046651	-0.048973	-0.733643	0.184814	-0.290039	0.072839	0.022221	0.067313	0.349712	-0.322101	-0.256350	-0.841568	17.322558	-46.173285	-142.299789
49811		7.463649	2.347872	6.410926	0.004344	-0.417702	0.293946	-0.015569	0.061374	-0.016393	-0.739258	0.183350	-0.297119	0.074658	0.023478	0.064085	0.349742	-0.321910	-0.256195	-0.841676	17.305511	-46.144691	-142.289029
49812		7.295812	2.414661	6.581420	0.206867	-0.283078	0.299267	-0.040685	0.081514	0.015723	-0.731445	0.188721	-0.304443	0.072983	0.024166	0.065780	0.349894	-0.321723	-0.255849	-0.841790	17.252070	-46.111143	-142.247609
49813		7.273589	2.519040	6.591205	0.301962	-0.343195	0.310833	-0.070451	0.094200	0.052381	-0.725586	0.192627	-0.306885	0.072760	0.025233	0.065869	0.350167	-0.321577	-0.255296	-0.841900	17.158765	-46.076225	-142.174639
49814		7.136227	2.323722	6.447655	0.181498	-0.270997	0.076259	-0.093913	0.103341	0.086054	-0.730713	0.186279	-0.304688	0.071386	0.023298	0.064429	0.350558	-0.321481	-0.254574	-0.841993	17.031254	-46.042477	-142.072629
49815		6.863003	1.820771	6.818302	0.091323	0.387121	0.023319	-0.091310	0.090725	0.084031	-0.734131	0.191162	-0.320068	0.068653	0.018268	0.068144	0.350925	-0.321426	-0.253888	-0.842068	16.908890	-46.014549	-141.975808
49816		7.297497	1.479412	6.532830	-0.502787	0.215325	0.077753	-0.069534	0.070876	0.062752	-0.725098	0.190674	-0.320801	0.072993	0.014840	0.065297	0.351215	-0.321394	-0.253363	-0.842117	16.814453	-45.994437	-141.900268
49817		7.449047	1.379324	6.422205	-0.697659	0.131346	0.093451	-0.048049	0.048691	0.041564	-0.721191	0.185059	-0.324707	0.074503	0.013824	0.064201	0.351420	-0.321386	-0.253001	-0.842144	16.748380	-45.982319	-141.847186
49818		6.878234	1.776885	6.977201	0.118516	0.483091	0.132227	-0.039800	0.042860	0.016871	-0.728760	0.179932	-0.325928	0.068796	0.017789	0.069754	0.351529	-0.321362	-0.252724	-0.842191	16.701878	-45.969907	-141.814611
49819		7.088693	2.018268	6.895587	0.157130	0.183075	0.277599	-0.034678	0.043865	0.004701	-0.717773	0.188721	-0.331787	0.070902	0.020196	0.068937	0.351594	-0.321304	-0.252485	-0.842257	16.665266	-45.954312	-141.791830
49820		7.266828	2.138405	6.736073	0.092640	-0.078639	0.323361	-0.045042	0.062440	0.000278	-0.725586	0.187988	-0.334717	0.072689	0.021399	0.067333	0.351649	-0.321185	-0.252179	-0.842371	16.621888	-45.928382	-141.767785
49821		7.661571	1.951239	6.119494	-0.488955	-0.540247	0.158484	-0.043572	0.072739	0.010571	-0.720703	0.187500	-0.345947	0.076637	0.019530	0.061163	0.351760	-0.321029	-0.251842	-0.842485	16.572026	-45.897870	-141.733634
49822		7.105682	2.179913	6.681744	0.191064	-0.086378	0.179533	-0.047035	0.079780	0.002058	-0.722412	0.188721	-0.339355	0.071083	0.021816	0.066784	0.351842	-0.320843	-0.251494	-0.842626	16.523669	-45.862695	-141.704202
49823		7.263090	2.086959	6.513153	-0.027393	-0.213583	0.161412	-0.039219	0.069643	0.006635	-0.727539	0.190430	-0.349121	0.072653	0.020885	0.065102	0.351940	-0.320687	-0.251188	-0.842735	16.479156	-45.833204	-141.673992
49824		7.416178	1.792643	6.414645	-0.369134	-0.165686	0.147093	-0.033988	0.048293	0.000431	-0.723145	0.178467	-0.352539	0.074177	0.017937	0.064125	0.351996	-0.320609	-0.250952	-0.842812	16.444563	-45.815037	-141.653288
49825		7.376173	1.828589	6.405320	-0.323507	-0.181512	0.119190	-0.029560	0.036627	-0.006913	-0.726074	0.183594	-0.349854	0.073774	0.018293	0.064037	0.352010	-0.320558	-0.250766	-0.842881	16.418814	-45.801468	-141.641509
49826		6.948872	2.028310	6.786228	0.199734	0.121995	0.106939	-0.023893	0.024388	-0.007355	-0.721924	0.181152	-0.345215	0.069498	0.020289	0.067851	0.352020	-0.320552	-0.250628	-0.842920	16.398409	-45.795184	-141.632516
49827		6.981252	2.251154	6.882438	0.385889	0.028237	0.238373	-0.020042	0.019426	-0.003002	-0.732178	0.188965	-0.368408	0.069820	0.022517	0.068815	0.352045	-0.320562	-0.250506	-0.842942	16.378777	-45.791696	-141.621659
49828		7.071800	2.197363	6.702042	0.232380	-0.096492	0.171941	-0.024602	0.009194	0.018473	-0.723389	0.184814	-0.363525	0.070719	0.021988	0.067014	0.352142	-0.320655	-0.250350	-0.842912	16.345903	-45.797917	-141.595837
49829		7.283247	1.975451	6.609043	-0.080709	-0.111469	0.217697	-0.027500	-0.001296	0.019952	-0.718018	0.186035	-0.355713	0.072830	0.019771	0.066088	0.352226	-0.320794	-0.250197	-0.842870	16.312451	-45.809512	-141.571667
49830		7.541003	1.793465	6.271423	-0.477491	-0.329314	0.141083	-0.021583	-0.006961	0.021206	-0.735107	0.187500	-0.362549	0.075406	0.017949	0.062715	0.352320	-0.320952	-0.250078	-0.842806	16.282420	-45.825036	-141.547399
49831		7.262297	1.874594	6.582462	-0.146356	-0.059707	0.165232	-0.029058	-0.000011	0.025327	-0.735352	0.191650	-0.378662	0.072621	0.018765	0.065822	0.352426	-0.321095	-0.249907	-0.842758	16.244791	-45.836768	-141.518659
49832		7.295376	1.929857	6.569925	-0.122820	-0.119526	0.191382	-0.035299	0.007628	0.025832	-0.735352	0.183594	-0.369873	0.072954	0.019320	0.065693	0.352535	-0.321222	-0.249697	-0.842726	16.201838	-45.845002	-141.487337
49833		7.359285	1.882187	6.537255	-0.201363	-0.142130	0.206128	-0.037619	0.014335	0.028328	-0.732910	0.189453	-0.373535	0.073595	0.018845	0.065364	0.352658	-0.321323	-0.249460	-0.842706	16.155214	-45.849289	-141.452905
49834		7.074715	1.835407	6.723253	-0.009783	0.126954	0.117380	-0.038597	0.021496	0.023119	-0.736328	0.183105	-0.383301	0.070752	0.018375	0.067221	0.352768	-0.321394	-0.249215	-0.842705	16.109615	-45.849433	-141.420529
49835		7.118978	1.876924	6.683034	-0.014033	0.051254	0.130290	-0.037180	0.024729	0.023553	-0.746582	0.190918	-0.384766	0.071196	0.018790	0.066818	0.352884	-0.321445	-0.248969	-0.842710	16.064242	-45.847203	-141.387492
49836		7.179898	1.808205	6.639925	-0.111809	0.035780	0.131927	-0.026983	0.024465	0.024405	-0.738525	0.190430	-0.380859	0.071805	0.018100	0.066388	0.353022	-0.321485	-0.248767	-0.842697	16.024081	-45.845879	-141.353427
49837		7.309044	1.739746	6.584901	-0.251115	-0.016750	0.174626	-0.025498	0.019153	0.021377	-0.736328	0.192627	-0.391602	0.073095	0.017414	0.065840	0.353140	-0.321536	-0.248583	-0.842682	15.987548	-45.846343	-141.323380
49838		7.241201	1.815342	6.501608	-0.185112	-0.091685	0.084721	-0.017184	0.023392	0.018881	-0.742432	0.182861	-0.381348	0.072418	0.018166	0.065006	0.353269	-0.321556	-0.248433	-0.842665	15.956304	-45.844716	-141.293925
49839		6.979289	2.031756	6.923472	0.277208	0.155927	0.220847	-0.020484	0.024678	0.015074	-0.743896	0.190186	-0.385498	0.069800	0.020330	0.069224	0.353376	-0.321567	-0.248271	-0.842664	15.925326	-45.841120	-141.267615
49840		7.235337	1.988230	6.483668	-0.053972	-0.215896	0.101524	-0.020626	0.029185	0.020892	-0.750000	0.184814	-0.394287	0.072361	0.019897	0.064824	0.353515	-0.321571	-0.248092	-0.842656	15.890039	-45.836591	-141.235272
49841		7.176272	1.896401	6.666048	-0.022588	-0.018871	0.163812	-0.020040	0.033804	0.020813	-0.749756	0.185059	-0.399170	0.071772	0.018978	0.066646	0.353658	-0.321549	-0.247907	-0.842659	15.854598	-45.828843	-141.202382
49842		7.028391	1.924142	6.531433	0.030723	-0.062920	-0.027222	-0.019375	0.042466	0.018376	-0.751465	0.199219	-0.389648	0.070296	0.019254	0.065298	0.353805	-0.321492	-0.247714	-0.842676	15.819341	-45.816577	-141.169065
49843		7.094119	2.007660	6.728177	0.131027	-0.021247	0.167692	-0.014369	0.035403	0.010976	-0.754883	0.194580	-0.398193	0.070952	0.020085	0.067268	0.353918	-0.321442	-0.247565	-0.842691	15.792498	-45.806386	-141.143623
49844		7.349647	1.687721	6.396678	-0.370403	-0.149369	0.067783	-0.006312	0.033058	0.006796	-0.754883	0.189941	-0.395996	0.073506	0.016882	0.063954	0.354025	-0.321387	-0.247463	-0.842697	15.772834	-45.797479	-141.121601
49845		7.137521	1.792957	6.709091	-0.061525	0.076503	0.145283	-0.004700	0.028782	-0.010813	-0.759033	0.201172	-0.398438	0.071386	0.017927	0.067080	0.354053	-0.321321	-0.247402	-0.842729	15.764961	-45.787535	-141.114886
49846		6.874330	1.926317	6.925310	0.260702	0.245913	0.127060	-0.000459	0.025875	-0.010580	-0.764404	0.194092	-0.398438	0.068753	0.019260	0.069244	0.354088	-0.321264	-0.247365	-0.842747	15.759652	-45.779887	-141.108211
49847		7.086255	1.950440	6.844989	0.133832	0.084773	0.229624	-0.004161	0.025087	-0.010264	-0.765137	0.184814	-0.389648	0.070872	0.019502	0.068441	0.354115	-0.321213	-0.247312	-0.842771	15.752374	-45.772065	-141.101892
49848		7.413777	1.788836	6.308235	-0.363086	-0.304820	0.073318	-0.004488	0.027054	-0.008501	-0.764404	0.200439	-0.388916	0.074147	0.017887	0.063072	0.354153	-0.321161	-0.247252	-0.842792	15.743395	-45.764076	-141.093324
49849		7.453087	1.737505	6.454192	-0.370387	-0.197758	0.189699	-0.005026	0.030755	-0.009061	-0.771240	0.192139	-0.402832	0.074542	0.017373	0.064530	0.354190	-0.321089	-0.247183	-0.842824	15.734040	-45.753314	-141.084795
49850		7.164053	1.674307	6.627869	-0.198707	0.078567	0.087310	-0.000797	0.033398	-0.017598	-0.770264	0.190674	-0.399902	0.071653	0.016737	0.066267	0.354204	-0.320993	-0.247142	-0.842866	15.731318	-45.740433	-141.081999
49851		7.177756	1.789169	6.728583	-0.084973	0.063751	0.186505	0.007511	0.043189	-0.028853	-0.774658	0.189697	-0.393066	0.071795	0.017879	0.067271	0.354194	-0.320821	-0.247136	-0.842938	15.738368	-45.719738	-141.086345
49852		7.300820	1.740402	6.544167	-0.259172	-0.079827	0.141385	0.007430	0.039150	-0.026502	-0.779785	0.196777	-0.405762	0.073023	0.017392	0.065428	0.354191	-0.320675	-0.247134	-0.842995	15.744466	-45.702304	-141.089295
49853		7.090834	1.945831	6.670715	0.052842	-0.036549	0.115077	0.014168	0.050224	-0.032391	-0.780273	0.197754	-0.394287	0.070928	0.019442	0.066691	0.354185	-0.320458	-0.247149	-0.843076	15.756197	-45.677179	-141.094857
49854		6.961500	1.857341	6.764052	0.086392	0.134018	0.068566	0.009013	0.050485	-0.030808	-0.776123	0.192871	-0.398193	0.069635	0.018560	0.067624	0.354180	-0.320256	-0.247141	-0.843157	15.763817	-45.652829	-141.098666
49855		6.911810	1.815203	6.809378	0.093537	0.210122	0.055586	0.020524	0.047914	-0.045768	-0.781738	0.194092	-0.389893	0.069139	0.018129	0.068079	0.354124	-0.320021	-0.247208	-0.843250	15.787083	-45.626892	-141.115272
49856		7.390375	1.472708	6.445916	-0.563442	-0.018073	0.087744	0.035409	0.022909	-0.061449	-0.782227	0.191650	-0.385742	0.073916	0.014693	0.064453	0.353999	-0.319851	-0.247409	-0.843309	15.831455	-45.612949	-141.149358
49857		7.429937	1.426810	6.490177	-0.609838	0.025387	0.136664	0.050254	0.020345	-0.083122	-0.788818	0.199707	-0.386963	0.074312	0.014221	0.064898	0.353799	-0.319633	-0.247710	-0.843386	15.897135	-45.596338	-141.201493
49858		6.942759	1.763356	6.844473	0.030976	0.261190	0.091299	0.060736	0.020932	-0.100975	-0.792480	0.194824	-0.396973	0.069444	0.017578	0.068443	0.353545	-0.319378	-0.248084	-0.843480	15.978478	-45.577234	-141.267055
49859		6.957171	1.967077	6.845295	0.167769	0.134331	0.141381	0.076560	0.011234	-0.117473	-0.792236	0.183350	-0.387451	0.069587	0.019604	0.068457	0.353231	-0.319109	-0.248567	-0.843571	16.079901	-45.560101	-141.348170
49860		7.250554	1.604164	6.514895	-0.397113	0.028548	0.057935	0.074479	0.016042	-0.141960	-0.791016	0.187988	-0.388184	0.072522	0.015966	0.065149	0.352819	-0.318798	-0.249072	-0.843712	16.192768	-45.536992	-141.446918
49861		7.406776	1.632055	6.414206	-0.510086	-0.111599	0.106653	0.103110	-0.014878	-0.158838	-0.796387	0.190918	-0.390625	0.074076	0.016229	0.064156	0.352340	-0.318542	-0.249779	-0.843800	16.336704	-45.527350	-141.566339
49862		6.974110	1.908763	6.777843	0.055024	0.151775	0.096634	0.114803	-0.023098	-0.169264	-0.792969	0.193359	-0.381836	0.069749	0.018990	0.067797	0.351828	-0.318290	-0.250567	-0.843875	16.494221	-45.521012	-141.695330
49863		7.378688	2.101864	6.482637	-0.140766	-0.321956	0.225437	0.111454	-0.024278	-0.152149	-0.790039	0.188232	-0.386230	0.073795	0.020926	0.064847	0.351378	-0.318066	-0.251314	-0.843924	16.640668	-45.517183	-141.811598
49864		7.178021	2.126597	6.654558	0.039122	-0.126592	0.202899	0.101203	-0.009888	-0.133388	-0.798584	0.187256	-0.390625	0.071791	0.021184	0.066560	0.351012	-0.317828	-0.251964	-0.843973	16.768068	-45.509052	-141.909314
49865		7.010882	2.468735	6.735305	0.407664	-0.207427	0.207404	0.080944	0.021089	-0.095732	-0.804932	0.181885	-0.386230	0.070128	0.024627	0.067356	0.350809	-0.317537	-0.252413	-0.844033	16.857823	-45.489341	-141.970643
49866		6.827596	2.503311	7.035685	0.633862	0.049042	0.285793	0.058138	0.056187	-0.059623	-0.798096	0.189697	-0.381836	0.068303	0.024992	0.070345	0.350769	-0.317188	-0.252648	-0.844110	16.908150	-45.457040	-141.994908
49867		6.959522	2.321357	6.797855	0.330935	-0.048091	0.183444	0.050797	0.071223	-0.035166	-0.800049	0.186523	-0.382324	0.069624	0.023184	0.067960	0.350836	-0.316814	-0.252786	-0.844182	16.938299	-45.419867	-141.996887
49868		7.373354	2.139251	6.357343	-0.199481	-0.400394	0.145146	0.048166	0.078411	-0.024510	-0.805908	0.192383	-0.379639	0.073761	0.021368	0.063550	0.350956	-0.316433	-0.252884	-0.844245	16.959571	-45.381210	-141.988389
49869		7.345613	2.027626	6.324226	-0.286649	-0.342081	0.080035	0.050692	0.074284	-0.022950	-0.800537	0.184570	-0.383545	0.073482	0.020252	0.063220	0.351079	-0.316062	-0.252996	-0.844300	16.982327	-45.344402	-141.980065
49870		7.229408	2.032927	6.504152	-0.160271	-0.179280	0.119246	0.053651	0.055576	-0.024154	-0.803223	0.185059	-0.383545	0.072315	0.020303	0.065027	0.351180	-0.315768	-0.253157	-0.844319	17.010405	-45.318341	-141.976686
49871		7.151995	1.895358	6.581562	-0.198786	-0.008794	0.087857	0.055628	0.035692	-0.029933	-0.799805	0.181396	-0.370850	0.071535	0.018925	0.065808	0.351232	-0.315542	-0.253369	-0.844318	17.046375	-45.301510	-141.982964
49872		7.112531	2.227928	6.700343	0.111455	-0.120209	0.208264	0.053566	0.019729	-0.025437	-0.800049	0.185059	-0.369385	0.071135	0.022252	0.067002	0.351282	-0.315398	-0.253594	-0.844284	17.081173	-45.294880	-141.989103
49873		7.027856	2.279628	6.620238	0.165938	-0.165080	0.104985	0.047516	0.008945	-0.021248	-0.799561	0.188721	-0.363037	0.070284	0.022773	0.066205	0.351324	-0.315310	-0.253805	-0.844236	17.112219	-45.294154	-141.994995
49874		7.090856	2.483384	6.595545	0.274290	-0.333189	0.175425	0.038109	0.009273	-0.002851	-0.802979	0.184814	-0.367432	0.070912	0.024820	0.065957	0.351432	-0.315266	-0.253948	-0.844164	17.127454	-45.297053	-141.986056
49875		7.015236	2.426314	6.773820	0.337215	-0.147451	0.229708	0.018890	-0.006073	0.022506	-0.806152	0.190430	-0.362305	0.070148	0.024265	0.067743	0.351595	-0.315347	-0.253996	-0.844052	17.120446	-45.311929	-141.961486
49876		7.148567	2.654122	6.948861	0.502554	-0.232234	0.489086	-0.001471	-0.040253	0.059391	-0.801270	0.179932	-0.361572	0.071464	0.026563	0.069503	0.351840	-0.315660	-0.253961	-0.843843	17.086981	-45.352430	-141.915937
49877		7.192705	3.062607	6.663599	0.696343	-0.690831	0.412574	-0.022462	-0.063619	0.105509	-0.803223	0.187256	-0.353271	0.071890	0.030671	0.066655	0.352214	-0.316163	-0.253804	-0.843546	17.019936	-45.412754	-141.840342
49878		7.235013	2.948733	6.639063	0.595892	-0.653577	0.401778	-0.044818	-0.106828	0.152542	-0.805908	0.195068	-0.352051	0.072292	0.029557	0.066423	0.352699	-0.316951	-0.253556	-0.843122	16.920891	-45.505233	-141.737675
