// General information: 
//  MT Manager version: 2019.2.0 
//  XDA version: 2019.2.0 build 3853 rev 94535 built on 2019-09-09
// Device information: 
//  DeviceId: 00B47786
//  ProductCode: MTW2-3A7G6
//  Firmware Version: 4.6.0
//  Hardware Version: 2.0.0
// Device settings: 
//  Filter Profile: human(46.1)
//  Option Flags: Orientation Smoother Disabled, AHS Disabled, ICC Disabled
// Coordinate system: ENU
PacketCounter	SampleTimeFine	Acc_X	Acc_Y	Acc_Z	FreeAcc_E	FreeAcc_N	FreeAcc_U	Gyr_X	Gyr_Y	Gyr_Z	Mag_X	Mag_Y	Mag_Z	VelInc_X	VelInc_Y	VelInc_Z	Quat_q0	Quat_q1	Quat_q2	Quat_q3	Roll	Pitch	Yaw
01732		9.632401	1.340517	-0.956474	0.003732	-0.020466	-0.040556	0.011256	0.017770	-0.014013	-0.880859	0.012939	0.428467	0.096324	0.013399	-0.009573	-0.045513	0.725487	0.150041	0.670138	125.877892	-80.404931	70.074745
01733		9.635157	1.319310	-0.945367	0.007866	0.003114	-0.041788	0.012735	0.016919	-0.010615	-0.868164	0.012939	0.428223	0.096351	0.013189	-0.009461	-0.045568	0.725451	0.150098	0.670160	125.857489	-80.407010	70.104352
01734		9.606799	1.348998	-0.931260	0.027389	-0.025812	-0.067114	0.011390	0.016657	-0.012315	-0.871094	0.010742	0.433838	0.096068	0.013485	-0.009320	-0.045602	0.725418	0.150147	0.670183	125.833762	-80.408073	70.134861
01735		9.610941	1.318295	-0.942656	0.007468	0.001056	-0.066066	0.011389	0.016655	-0.012313	-0.866455	0.014404	0.435303	0.096109	0.013178	-0.009434	-0.045641	0.725385	0.150201	0.670204	125.810730	-80.408997	70.165444
01736		9.632398	1.344692	-0.950633	0.007743	-0.022783	-0.040563	0.008897	0.015758	-0.011204	-0.869385	0.007568	0.428223	0.096324	0.013442	-0.009513	-0.045669	0.725356	0.150237	0.670225	125.790242	-80.410272	70.191220
01737		9.629677	1.367769	-0.958717	0.005630	-0.047517	-0.039340	0.003757	0.017649	-0.006734	-0.872803	0.005127	0.424805	0.096296	0.013675	-0.009595	-0.045697	0.725326	0.150244	0.670254	125.771321	-80.414056	70.212984
01738		9.632467	1.346305	-0.947643	0.009775	-0.023915	-0.040568	0.007690	0.014387	-0.011210	-0.873291	0.005859	0.430664	0.096325	0.013458	-0.009483	-0.045720	0.725303	0.150277	0.670271	125.753886	-80.414865	70.234962
01739		9.632504	1.347034	-0.946233	0.010756	-0.024445	-0.040570	0.009008	0.017221	-0.005558	-0.868164	0.015869	0.426270	0.096325	0.013468	-0.009470	-0.045765	0.725273	0.150293	0.670296	125.739406	-80.419022	70.254460
01740		9.635316	1.325513	-0.935008	0.014902	-0.000843	-0.041796	0.008676	0.018702	-0.011761	-0.864502	0.009521	0.427734	0.096353	0.013250	-0.009359	-0.045793	0.725234	0.150330	0.670328	125.709535	-80.421017	70.289621
01741		9.609697	1.332864	-0.911246	0.037567	-0.005574	-0.068369	0.010234	0.016012	-0.009490	-0.870605	0.005127	0.431152	0.096097	0.013325	-0.009119	-0.045837	0.725205	0.150371	0.670347	125.692882	-80.423097	70.313251
01742		9.608404	1.346341	-0.941838	0.011328	-0.027078	-0.064853	0.007662	0.016957	-0.007256	-0.876953	0.011963	0.430176	0.096084	0.013460	-0.009426	-0.045875	0.725176	0.150389	0.670372	125.676145	-80.426601	70.334504
01743		9.632659	1.350203	-0.940114	0.014774	-0.026713	-0.040581	0.002489	0.015538	-0.009558	-0.872803	0.015625	0.424805	0.096327	0.013498	-0.009408	-0.045885	0.725150	0.150401	0.670396	125.655607	-80.428353	70.356806
01744		9.634114	1.341583	-0.961088	-0.008313	-0.024038	-0.038280	0.002488	0.015537	-0.009556	-0.874023	0.011719	0.431885	0.096341	0.013411	-0.009618	-0.045895	0.725125	0.150410	0.670421	125.635245	-80.430310	70.378729
01745		9.638223	1.307380	-0.917996	0.023077	0.020490	-0.043023	-0.002491	0.013746	-0.007348	-0.868164	0.016846	0.425781	0.096382	0.013070	-0.009187	-0.045900	0.725108	0.150402	0.670441	125.621581	-80.432691	70.392160
01746		9.636895	1.321093	-0.948795	-0.003158	-0.001014	-0.039497	0.000023	0.012065	-0.012397	-0.871826	0.014160	0.428711	0.096369	0.013205	-0.009494	-0.045889	0.725092	0.150414	0.670456	125.603767	-80.432164	70.410066
01747		9.655424	1.366556	-0.912045	0.045331	-0.031389	-0.018634	0.001281	0.014167	-0.009564	-0.872070	0.009277	0.424561	0.096554	0.013661	-0.009127	-0.045904	0.725071	0.150428	0.670475	125.587110	-80.433693	70.429033
01748		9.635445	1.332516	-0.923665	0.022942	-0.005434	-0.041813	-0.003917	0.015323	-0.007921	-0.876709	0.006348	0.421875	0.096354	0.013321	-0.009244	-0.045896	0.725049	0.150410	0.670503	125.566879	-80.436336	70.447101
01749		9.636790	1.320447	-0.890217	0.051134	0.014941	-0.045346	-0.002358	0.012636	-0.005652	-0.871094	0.003174	0.419922	0.096368	0.013202	-0.008908	-0.045900	0.725036	0.150392	0.670521	125.557723	-80.439074	70.455111
01750		9.611289	1.330784	-0.921317	0.022438	-0.007458	-0.066091	-0.002413	0.011901	-0.008470	-0.864014	0.011963	0.427979	0.096113	0.013304	-0.009219	-0.045893	0.725024	0.150382	0.670536	125.546723	-80.440319	70.464692
01751		9.635492	1.334746	-0.919941	0.025881	-0.007104	-0.041821	-0.003617	0.010532	-0.008482	-0.870361	0.009521	0.427246	0.096355	0.013343	-0.009205	-0.045880	0.725018	0.150370	0.670547	125.537820	-80.440940	70.471538
01752		9.657100	1.364178	-0.982704	-0.025125	-0.048638	-0.010480	0.000212	0.011689	-0.007879	-0.866699	0.016357	0.422119	0.096571	0.013638	-0.009833	-0.045885	0.725007	0.150366	0.670559	125.530076	-80.442390	70.479342
01753		9.636968	1.326746	-0.940130	0.003795	-0.005003	-0.039499	-0.001074	0.012161	-0.006763	-0.876953	0.012939	0.427246	0.096370	0.013264	-0.009407	-0.045895	0.724995	0.150361	0.670573	125.522444	-80.444513	70.487372
01754		9.612777	1.324248	-0.939293	0.002325	-0.006471	-0.063772	-0.009883	0.009211	-0.005162	-0.868652	0.004639	0.429932	0.096128	0.013240	-0.009398	-0.045871	0.724997	0.150314	0.670583	125.521147	-80.446405	70.482772
01755		9.612818	1.324777	-0.938131	0.003323	-0.007016	-0.063773	-0.003648	0.013105	-0.004532	-0.872070	0.012451	0.429443	0.096128	0.013245	-0.009388	-0.045874	0.724985	0.150287	0.670602	125.513556	-80.449709	70.488442
01756		9.587142	1.331941	-0.914701	0.025928	-0.011735	-0.090382	-0.006383	0.011846	-0.010758	-0.871582	0.013184	0.423340	0.095872	0.013314	-0.009153	-0.045845	0.724973	0.150272	0.670620	125.495891	-80.449868	70.502473
01757		9.634259	1.351770	-0.945232	0.004643	-0.031459	-0.038298	-0.009663	0.006262	-0.004598	-0.872559	0.000488	0.433838	0.096343	0.013515	-0.009456	-0.045827	0.724984	0.150231	0.670618	125.504004	-80.451029	70.489524
01758		9.610062	1.349196	-0.944574	0.003163	-0.032922	-0.062573	-0.008683	0.010577	-0.005145	-0.872803	0.010254	0.430176	0.096100	0.013489	-0.009451	-0.045808	0.724981	0.150188	0.670632	125.499642	-80.453383	70.488731
01759		9.611571	1.340317	-0.965911	-0.019907	-0.030181	-0.060230	-0.007396	0.010104	-0.006259	-0.869385	0.010498	0.427246	0.096116	0.013400	-0.009664	-0.045785	0.724980	0.150152	0.670643	125.494952	-80.454697	70.488543
01760		9.662769	1.324992	-0.954721	-0.010787	-0.004815	-0.012889	-0.008600	0.008735	-0.006272	-0.866943	0.007568	0.425049	0.096628	0.013246	-0.009552	-0.045761	0.724983	0.150114	0.670650	125.493516	-80.455913	70.484831
01761		9.632813	1.363726	-0.918774	0.032737	-0.036940	-0.040658	-0.007260	0.008996	-0.004567	-0.864502	0.000000	0.425781	0.096328	0.013635	-0.009193	-0.045748	0.724985	0.150077	0.670657	125.495183	-80.457850	70.479075
01762		9.637091	1.332587	-0.930558	0.012809	-0.010081	-0.039511	-0.004909	0.010999	-0.007357	-0.860596	0.001221	0.439941	0.096371	0.013322	-0.009311	-0.045735	0.724979	0.150054	0.670670	125.487432	-80.459313	70.483910
01763		9.637306	1.336598	-0.984129	-0.037468	-0.028221	-0.033604	0.004344	0.008058	-0.007831	-0.866943	0.011719	0.426025	0.096373	0.013362	-0.009845	-0.045740	0.724983	0.150059	0.670664	125.492388	-80.458942	70.479697
01764		9.468724	1.545247	-1.508727	-0.490372	-0.392954	-0.121150	0.026205	-0.012020	-0.014399	-0.861816	0.011475	0.423584	0.094689	0.015448	-0.015080	-0.045799	0.725041	0.150171	0.670572	125.552360	-80.449458	70.433935
01765		9.098699	1.574225	-1.840617	-0.816966	-0.564208	-0.449642	0.021969	-0.063407	-0.048865	-0.860840	0.008057	0.437256	0.090997	0.015722	-0.018376	-0.045693	0.725246	0.150412	0.670303	125.683603	-80.406675	70.314249
01766		9.163622	1.454929	-2.030922	-1.021426	-0.485297	-0.382173	0.039798	-0.104834	-0.062760	-0.856934	0.010986	0.439209	0.091651	0.014525	-0.020258	-0.045570	0.725576	0.150766	0.669875	125.909497	-80.343575	70.108086
01767		9.522143	1.516668	-2.015712	-0.958751	-0.475968	-0.020403	0.062354	-0.111820	-0.059650	-0.861328	0.007813	0.438721	0.095237	0.015145	-0.020099	-0.045532	0.725929	0.151188	0.669400	126.173260	-80.278923	69.876629
01768		9.736670	1.724650	-1.806996	-0.677309	-0.576231	0.199885	0.053948	-0.102780	-0.058526	-0.860840	-0.007080	0.441162	0.097381	0.017223	-0.018015	-0.045476	0.726251	0.151574	0.668967	126.404246	-80.218182	69.673446
01769		9.728437	1.748854	-1.399495	-0.272034	-0.483796	0.154835	0.019552	-0.073312	-0.057688	-0.857178	0.003174	0.447754	0.097295	0.017462	-0.013958	-0.045308	0.726487	0.151829	0.668664	126.537338	-80.167044	69.548167
01770		9.752782	1.724694	-1.046126	0.066614	-0.356663	0.139903	-0.022534	-0.047858	-0.029937	-0.855225	-0.000244	0.442871	0.097533	0.017231	-0.010440	-0.045111	0.726664	0.151843	0.668482	126.631380	-80.138034	69.439442
01771		9.680852	1.704820	-1.017991	0.087407	-0.338844	0.063504	-0.047342	-0.035560	-0.013836	-0.851074	0.002441	0.449463	0.096812	0.017039	-0.010167	-0.044879	0.726822	0.151709	0.668356	126.711689	-80.119935	69.329247
01772		9.420458	1.429756	-0.839703	0.168372	-0.069439	-0.249155	-0.055077	-0.038649	-0.017812	-0.853271	0.006348	0.451660	0.094207	0.014287	-0.008383	-0.044611	0.726985	0.151568	0.668229	126.785725	-80.099594	69.221888
01773		9.434107	1.329922	-0.958517	0.031268	-0.002014	-0.237258	-0.041208	-0.047799	-0.010361	-0.855225	-0.002930	0.443115	0.094344	0.013292	-0.009565	-0.044410	0.727183	0.151448	0.668054	126.907379	-80.079083	69.074107
01774		9.590870	1.449373	-1.109640	-0.065381	-0.128566	-0.050722	-0.019787	-0.058676	-0.011298	-0.848877	-0.009521	0.451660	0.095913	0.014487	-0.011070	-0.044277	0.727409	0.151406	0.667826	127.065847	-80.054744	68.901544
01775		9.547607	1.216213	-1.151256	-0.167038	0.078086	-0.121075	-0.012150	-0.067435	-0.028647	-0.853760	0.006348	0.447998	0.095482	0.012148	-0.011481	-0.044103	0.727651	0.151453	0.667563	127.216202	-80.019102	68.741214
01776		9.606373	1.140111	-1.173663	-0.199661	0.158305	-0.071291	0.022369	-0.067266	-0.039084	-0.848877	-0.001465	0.456543	0.096070	0.011384	-0.011703	-0.044025	0.727876	0.151654	0.667278	127.364424	-79.978957	68.603546
01777		9.574060	1.375920	-1.254527	-0.206198	-0.087296	-0.061817	0.042064	-0.076953	-0.047900	-0.851807	-0.005371	0.450195	0.095749	0.013739	-0.012506	-0.043981	0.728122	0.151957	0.666944	127.530249	-79.931173	68.459576
01778		9.539921	1.437318	-1.181857	-0.114596	-0.125968	-0.094469	0.032123	-0.067784	-0.053004	-0.851318	-0.004639	0.455811	0.095407	0.014350	-0.011784	-0.043891	0.728335	0.152241	0.666652	127.655600	-79.884402	68.350776
01779		9.574801	1.537132	-1.227219	-0.121183	-0.221512	-0.041203	0.028707	-0.069708	-0.044552	-0.847412	-0.006592	0.456543	0.095756	0.015352	-0.012237	-0.043813	0.728562	0.152484	0.666353	127.799246	-79.840536	68.221220
01780		9.599643	1.709442	-1.224617	-0.061876	-0.375257	0.007210	-0.006867	-0.075000	-0.036271	-0.835205	0.001221	0.455811	0.096004	0.017077	-0.012211	-0.043631	0.728820	0.152579	0.666061	127.950977	-79.798701	68.062892
01781		9.649172	1.519389	-1.199302	-0.081168	-0.174976	0.026833	-0.038079	-0.071478	-0.033043	-0.841797	0.001953	0.458740	0.096499	0.015176	-0.011961	-0.043347	0.729076	0.152558	0.665804	128.081037	-79.759285	67.908251
01782		9.702682	1.481839	-1.317873	-0.195457	-0.157512	0.087397	-0.039152	-0.071390	-0.027398	-0.848633	-0.003418	0.462402	0.097034	0.014803	-0.013147	-0.043080	0.729336	0.152512	0.665547	128.220300	-79.722591	67.743755
01783		9.695220	1.351217	-1.135076	-0.051290	0.018187	0.041677	-0.050901	-0.069398	-0.025736	-0.854492	-0.008545	0.456299	0.096958	0.013497	-0.011321	-0.042775	0.729593	0.152422	0.665305	128.350024	-79.687070	67.582056
01784		9.609745	1.249269	-1.234240	-0.174506	0.078923	-0.045675	-0.035591	-0.069897	-0.031263	-0.844238	-0.005859	0.463623	0.096104	0.012475	-0.012311	-0.042509	0.729844	0.152402	0.665052	128.478009	-79.649039	67.431060
01785		9.600286	1.313361	-1.160645	-0.080369	0.041129	-0.054135	-0.035477	-0.078816	-0.041295	-0.834961	-0.005127	0.459961	0.096010	0.013112	-0.011571	-0.042201	0.730118	0.152420	0.664767	128.607165	-79.603047	67.278707
01786		9.529961	1.279565	-1.234822	-0.159245	0.047833	-0.119671	-0.032055	-0.076195	-0.046873	-0.844971	-0.004150	0.458984	0.095307	0.012771	-0.012314	-0.041892	0.730376	0.152470	0.664491	128.719920	-79.555660	67.145213
01787		9.548160	1.319994	-1.229059	-0.134785	0.020692	-0.096633	-0.030981	-0.080785	-0.057471	-0.838623	-0.007568	0.464600	0.095490	0.013171	-0.012254	-0.041545	0.730642	0.152564	0.664199	128.822626	-79.501633	67.022435
01788		9.573075	1.309986	-1.281266	-0.179383	0.027505	-0.067508	-0.025802	-0.076761	-0.051267	-0.840820	-0.008545	0.472412	0.095739	0.013074	-0.012778	-0.041243	0.730898	0.152651	0.663916	128.929560	-79.451993	66.898461
01789		9.421970	1.498979	-1.373937	-0.219685	-0.194842	-0.178274	-0.026606	-0.089295	-0.057890	-0.835449	-0.005615	0.475586	0.094230	0.014961	-0.013699	-0.040904	0.731191	0.152761	0.663589	129.051923	-79.394616	66.757989
01790		9.488412	1.540859	-1.446101	-0.265507	-0.234705	-0.098274	-0.022229	-0.082331	-0.064045	-0.832764	-0.014648	0.478271	0.094895	0.015377	-0.014424	-0.040568	0.731454	0.152907	0.663286	129.147174	-79.337194	66.647941
01791		9.488345	1.700112	-1.597336	-0.359519	-0.418011	-0.057352	-0.021855	-0.083838	-0.057820	-0.840576	-0.007568	0.469482	0.094895	0.016972	-0.015935	-0.040250	0.731728	0.153030	0.662975	129.256932	-79.281716	66.522832
01792		9.637347	1.687942	-1.509482	-0.261418	-0.350848	0.077444	-0.030302	-0.072913	-0.055593	-0.836182	-0.016113	0.477051	0.096384	0.016850	-0.015062	-0.039920	0.731967	0.153117	0.662710	129.339537	-79.231389	66.420907
01793		9.732012	1.707686	-1.516424	-0.250133	-0.348049	0.174508	-0.038700	-0.066444	-0.058384	-0.833984	-0.010498	0.477051	0.097330	0.017046	-0.015135	-0.039551	0.732186	0.153184	0.662476	129.396148	-79.181907	66.340135
01794		9.828625	1.546574	-1.446427	-0.216045	-0.152702	0.237980	-0.055245	-0.056444	-0.063419	-0.834229	-0.013672	0.475342	0.098295	0.015431	-0.014441	-0.039117	0.732370	0.153213	0.662292	129.410115	-79.134070	66.293512
01795		9.728800	1.560791	-1.273834	-0.050473	-0.131141	0.121523	-0.051107	-0.057496	-0.059457	-0.839355	-0.019287	0.473633	0.097296	0.015576	-0.012714	-0.038706	0.732560	0.153241	0.662099	129.436053	-79.087346	66.236702
01796		9.641455	1.482955	-1.194639	0.001056	-0.044882	0.014924	-0.053909	-0.053627	-0.057753	-0.839844	-0.017822	0.481201	0.096422	0.014798	-0.011925	-0.038297	0.732738	0.153253	0.661923	129.454429	-79.043035	66.186353
01797		9.571717	1.458821	-1.058127	0.124198	0.008249	-0.073587	-0.059352	-0.070250	-0.058710	-0.838867	-0.016357	0.472412	0.095725	0.014557	-0.010552	-0.037848	0.732973	0.153252	0.661689	129.505366	-78.991975	66.099082
01798		9.533971	1.378333	-1.003796	0.156787	0.099454	-0.129221	-0.047117	-0.080034	-0.060323	-0.843750	-0.018799	0.481201	0.095348	0.013752	-0.010003	-0.037435	0.733235	0.153301	0.661411	129.581800	-78.936879	65.993529
01799		9.567691	1.317531	-0.928970	0.221205	0.189900	-0.114513	-0.023114	-0.089163	-0.059759	-0.833496	-0.021240	0.469238	0.095685	0.013146	-0.009249	-0.037102	0.733523	0.153428	0.661080	129.692529	-78.878409	65.866599
01800		9.559335	1.374060	-0.879833	0.291223	0.155305	-0.120727	0.003293	-0.102574	-0.068135	-0.836426	-0.021484	0.477539	0.095603	0.013708	-0.008749	-0.036831	0.733844	0.153677	0.660682	129.831469	-78.811536	65.726733
01801		9.430724	1.244738	-0.787510	0.343881	0.288341	-0.278187	0.037935	-0.125843	-0.080382	-0.839600	-0.018555	0.481934	0.094317	0.012411	-0.007813	-0.036625	0.734226	0.154088	0.660172	130.017101	-78.730400	65.558958
01802		9.416156	1.337791	-0.784664	0.383461	0.208671	-0.279652	0.077018	-0.154990	-0.089201	-0.827881	-0.009766	0.478027	0.094174	0.013339	-0.007769	-0.036514	0.734689	0.154666	0.659528	130.269864	-78.634759	65.346010
01803		9.357910	1.377277	-0.896273	0.297527	0.143793	-0.317350	0.094592	-0.173441	-0.096789	-0.839600	-0.015137	0.483887	0.093593	0.013732	-0.008875	-0.036427	0.735203	0.155334	0.658802	130.554381	-78.528535	65.110623
01804		9.314552	1.324839	-0.917640	0.275587	0.193225	-0.365740	0.092902	-0.198018	-0.106917	-0.828613	-0.018311	0.477539	0.093162	0.013203	-0.009078	-0.036283	0.735790	0.156038	0.657989	130.866763	-78.408712	64.845957
01805		9.406760	1.358256	-0.917766	0.311022	0.192678	-0.271179	0.080773	-0.218554	-0.112469	-0.837402	-0.014404	0.492676	0.094085	0.013533	-0.009069	-0.036057	0.736441	0.156725	0.657109	131.198832	-78.278251	64.553699
01806		9.491482	1.405743	-1.137745	0.141222	0.121621	-0.152252	0.062133	-0.235681	-0.114036	-0.823486	-0.019531	0.489502	0.094936	0.014007	-0.011261	-0.035748	0.737148	0.157360	0.656180	131.545740	-78.140500	64.235506
01807		9.526315	1.486865	-1.136416	0.189196	0.067788	-0.106378	0.024811	-0.245995	-0.116032	-0.821533	-0.012695	0.487305	0.095286	0.014815	-0.011245	-0.035282	0.737894	0.157881	0.655241	131.880714	-77.997366	63.907128
01808		9.457346	1.573069	-1.273924	0.096874	-0.045458	-0.141735	0.001767	-0.256592	-0.118098	-0.823486	-0.019043	0.486816	0.094599	0.015675	-0.012618	-0.034720	0.738675	0.158336	0.654281	132.212143	-77.849108	63.569059
01809		9.491337	1.630194	-1.395912	0.021342	-0.107061	-0.082343	-0.023757	-0.268165	-0.118937	-0.819336	-0.020996	0.502441	0.094942	0.016244	-0.013834	-0.034049	0.739496	0.158713	0.653297	132.541728	-77.695418	63.217541
01810		9.504332	1.661327	-1.507965	-0.053622	-0.145330	-0.048352	-0.040332	-0.266861	-0.108911	-0.817871	-0.024658	0.496582	0.095072	0.016558	-0.014956	-0.033352	0.740322	0.158997	0.652328	132.868888	-77.546233	62.858760
01811		9.444744	1.827350	-1.652368	-0.128827	-0.333533	-0.058467	-0.046728	-0.274970	-0.111083	-0.817627	-0.026367	0.497070	0.094480	0.018217	-0.016398	-0.032615	0.741173	0.159268	0.651332	133.195411	-77.392314	62.496150
01812		9.357801	1.837092	-1.837957	-0.289631	-0.389346	-0.112899	-0.041684	-0.275617	-0.109654	-0.814453	-0.029297	0.497803	0.093613	0.018316	-0.018254	-0.031904	0.742023	0.159552	0.650329	133.520423	-77.238509	62.138351
01813		9.257803	1.819472	-1.827097	-0.271885	-0.372192	-0.213564	-0.039988	-0.277066	-0.101486	-0.821533	-0.018799	0.507080	0.092612	0.018144	-0.018146	-0.031220	0.742884	0.159809	0.649315	133.854816	-77.086836	61.771183
01814		9.323790	1.831261	-1.877402	-0.287129	-0.367052	-0.138289	-0.023381	-0.265632	-0.091672	-0.812744	-0.026855	0.507080	0.093271	0.018268	-0.018652	-0.030644	0.743710	0.160083	0.648329	134.187437	-76.943516	61.415910
01815		9.284864	2.017226	-1.976170	-0.311631	-0.561000	-0.129132	-0.015444	-0.259182	-0.081087	-0.820801	-0.029297	0.509033	0.092882	0.020133	-0.019643	-0.030133	0.744522	0.160342	0.647356	134.523836	-76.806423	61.060949
01816		9.288985	1.995550	-1.881059	-0.204869	-0.502173	-0.142546	-0.018432	-0.243383	-0.069979	-0.799316	-0.034180	0.513672	0.092920	0.019921	-0.018699	-0.029663	0.745290	0.160548	0.646442	134.843509	-76.679991	60.721499
01817		9.388964	1.944726	-1.956237	-0.259206	-0.441271	-0.040302	-0.016041	-0.219518	-0.050917	-0.813232	-0.025879	0.506104	0.093916	0.019422	-0.019461	-0.029278	0.745996	0.160683	0.645611	135.150175	-76.570267	60.396034
01818		9.384495	2.048174	-2.122921	-0.370973	-0.572953	0.000805	-0.006419	-0.199717	-0.027008	-0.809326	-0.032471	0.516357	0.093869	0.020468	-0.021136	-0.029026	0.746653	0.160761	0.644843	135.465009	-76.478097	60.068328
01819		9.232752	2.001722	-2.255149	-0.509290	-0.585976	-0.131080	-0.004441	-0.194534	-0.013139	-0.805664	-0.025146	0.505859	0.092351	0.020011	-0.022462	-0.028827	0.747305	0.160791	0.644089	135.791375	-76.392915	59.729416
01820		9.201431	1.964579	-2.415662	-0.658527	-0.591757	-0.139142	0.015665	-0.180128	-0.009451	-0.809326	-0.029053	0.515381	0.092037	0.019643	-0.024072	-0.028730	0.747909	0.160870	0.643372	136.108095	-76.314955	59.412556
01821		9.257535	2.004629	-2.554514	-0.755454	-0.649247	-0.052883	0.037575	-0.168140	0.013645	-0.808838	-0.022949	0.518066	0.092595	0.020057	-0.025464	-0.028796	0.748490	0.160932	0.642677	136.453388	-76.250394	59.078862
01822		9.374300	2.020828	-2.577234	-0.741291	-0.645836	0.068444	0.062396	-0.140932	0.035635	-0.807129	-0.023926	0.513916	0.093758	0.020233	-0.025700	-0.029051	0.748996	0.160988	0.642062	136.803860	-76.205619	58.754649
01823		9.435412	2.089697	-2.568606	-0.690630	-0.698911	0.138499	0.072964	-0.113533	0.057970	-0.808594	-0.022705	0.519043	0.094363	0.020934	-0.025625	-0.029436	0.749431	0.160990	0.641536	137.152761	-76.180280	58.438110
01824		9.543209	2.030483	-2.557442	-0.669499	-0.623781	0.232155	0.080204	-0.076912	0.077867	-0.802246	-0.017334	0.519043	0.095434	0.020352	-0.025530	-0.029944	0.749763	0.160935	0.641139	137.481289	-76.177950	58.146934
01825		9.558981	2.077725	-2.562671	-0.648161	-0.675155	0.256194	0.098933	-0.042984	0.093050	-0.806885	-0.013184	0.524658	0.095586	0.020834	-0.025596	-0.030596	0.749995	0.160878	0.640850	137.793375	-76.195132	57.883671
01826		9.547752	2.122915	-2.618064	-0.680806	-0.744960	0.262139	0.104289	-0.014715	0.099885	-0.800049	-0.017334	0.521729	0.095469	0.021290	-0.026163	-0.031315	0.750140	0.160808	0.640663	138.077145	-76.226959	57.652831
01827		9.441150	2.142872	-2.687306	-0.748098	-0.814551	0.173587	0.101369	0.008692	0.097636	-0.801270	-0.023193	0.523193	0.094400	0.021488	-0.026866	-0.032033	0.750210	0.160735	0.640565	138.319868	-76.267324	57.462526
01828		9.407955	2.066461	-2.633916	-0.718793	-0.747434	0.119183	0.097481	0.027667	0.096098	-0.792969	-0.019531	0.521973	0.094066	0.020723	-0.026342	-0.032749	0.750216	0.160650	0.640542	138.529493	-76.315406	57.304069
01829		9.375129	2.008626	-2.533784	-0.641353	-0.686839	0.059728	0.094176	0.042784	0.114157	-0.799072	-0.017822	0.516113	0.093734	0.020152	-0.025348	-0.033517	0.750191	0.160484	0.640574	138.746835	-76.376294	57.135302
01830		9.399259	1.903265	-2.438414	-0.576292	-0.573094	0.049046	0.098940	0.068146	0.127236	-0.811279	-0.016357	0.520996	0.093972	0.019105	-0.024407	-0.034370	0.750092	0.160280	0.640696	138.952655	-76.453300	56.981701
01831		9.504036	1.801896	-2.236349	-0.400584	-0.421786	0.098740	0.096134	0.093679	0.143327	-0.806396	-0.016113	0.519043	0.095017	0.018098	-0.022399	-0.035281	0.749925	0.160003	0.640911	139.147896	-76.546863	56.837117
01832		9.536797	1.669145	-2.071925	-0.280997	-0.266294	0.080720	0.098046	0.116462	0.152182	-0.806396	-0.012207	0.523926	0.095343	0.016774	-0.020767	-0.036249	0.749690	0.159694	0.641209	139.327107	-76.653922	56.710463
01833		9.510075	1.664388	-2.146601	-0.361203	-0.306023	0.066354	0.109635	0.132656	0.148227	-0.811523	-0.006104	0.531250	0.095074	0.016726	-0.021520	-0.037257	0.749398	0.159434	0.641557	139.482341	-76.766044	56.614983
01834		9.414070	1.548504	-2.013604	-0.285413	-0.199463	-0.068155	0.106520	0.129206	0.141367	-0.808594	-0.004883	0.533936	0.094117	0.015562	-0.020189	-0.038233	0.749110	0.159190	0.641897	139.630718	-76.874476	56.525098
01835		9.418120	1.387035	-1.966172	-0.291937	-0.052356	-0.096583	0.119762	0.140744	0.138679	-0.813721	-0.011475	0.519287	0.094158	0.013947	-0.019720	-0.039254	0.748780	0.158996	0.642267	139.764987	-76.986473	56.457223
01836		9.471145	1.368642	-1.980013	-0.309657	-0.048060	-0.045498	0.130557	0.137556	0.144394	-0.815674	-0.004883	0.519775	0.094688	0.013768	-0.019856	-0.040336	0.748461	0.158816	0.642617	139.923412	-77.099576	56.371241
01837		9.410272	1.346770	-1.833394	-0.189993	-0.019008	-0.133233	0.130917	0.137534	0.134557	-0.816650	-0.000244	0.517090	0.094081	0.013543	-0.018390	-0.041383	0.748135	0.158673	0.642965	140.065068	-77.208557	56.302335
01838		9.436805	1.208916	-1.741882	-0.145754	0.122207	-0.142490	0.125708	0.134741	0.134414	-0.811768	-0.002686	0.520020	0.094348	0.012164	-0.017475	-0.042412	0.747816	0.158515	0.643309	140.209925	-77.316656	56.227491
01839		9.516086	1.221844	-1.635705	-0.037260	0.134992	-0.081054	0.116334	0.129203	0.128249	-0.815186	-0.001709	0.517090	0.095142	0.012289	-0.016411	-0.043379	0.747512	0.158351	0.643637	140.348061	-77.419584	56.153783
01840		9.506304	1.148293	-1.572091	-0.005293	0.202902	-0.111211	0.100480	0.124597	0.122116	-0.813721	0.003418	0.515869	0.095046	0.011549	-0.015774	-0.044266	0.747220	0.158160	0.643963	140.474261	-77.518634	56.083303
01841		9.460414	1.168381	-1.469843	0.086577	0.187667	-0.169957	0.090860	0.115669	0.109259	-0.814209	0.005371	0.524658	0.094589	0.011742	-0.014748	-0.045065	0.746949	0.157987	0.644264	140.585283	-77.608591	56.022414
01842		9.538639	1.174488	-1.387565	0.171002	0.203670	-0.106007	0.063241	0.098743	0.109211	-0.820068	0.010986	0.516357	0.095373	0.011801	-0.013919	-0.045751	0.746736	0.157729	0.644525	140.709842	-77.691433	55.931822
01843		9.534446	1.188202	-1.443936	0.117525	0.161430	-0.098648	0.049211	0.080198	0.098883	-0.819336	0.001465	0.520508	0.095333	0.011933	-0.014475	-0.046333	0.746580	0.157469	0.644728	140.837501	-77.761844	55.829636
01844		9.446551	1.140966	-1.368399	0.162249	0.199577	-0.203032	0.031310	0.064288	0.090157	-0.815430	0.006836	0.515137	0.094456	0.011454	-0.013713	-0.046811	0.746470	0.157188	0.644890	140.964907	-77.822394	55.717462
01845		9.493419	1.003492	-1.305610	0.185203	0.344909	-0.185468	0.024651	0.050387	0.077264	-0.824951	0.009766	0.511475	0.094927	0.010073	-0.013079	-0.047207	0.746399	0.156935	0.645005	141.086078	-77.871638	55.607306
01846		9.585330	1.014052	-1.415629	0.094386	0.312265	-0.075930	0.032410	0.033046	0.064857	-0.817383	0.014404	0.512939	0.095848	0.010174	-0.014170	-0.047584	0.746369	0.156758	0.645055	141.215974	-77.909050	55.493270
01847		9.533223	1.073474	-1.309608	0.207069	0.269538	-0.136209	0.024309	0.012454	0.044289	-0.819092	0.010498	0.523438	0.095329	0.010757	-0.013101	-0.047845	0.746393	0.156638	0.645037	141.333335	-77.929443	55.387216
01848		9.524475	0.928614	-1.380570	0.097933	0.381479	-0.152004	0.026677	-0.005216	0.027991	-0.815430	0.015381	0.521973	0.095244	0.009301	-0.013802	-0.048050	0.746459	0.156590	0.644957	141.447865	-77.936444	55.285553
01849		9.486076	1.030992	-1.375623	0.131532	0.276905	-0.176975	0.026716	-0.021110	0.016719	-0.819336	0.013184	0.518311	0.094861	0.010320	-0.013745	-0.048204	0.746570	0.156587	0.644818	141.565260	-77.931867	55.180658
01850		9.610115	1.023535	-1.374704	0.149293	0.304296	-0.056825	0.011634	-0.036360	0.011218	-0.823486	0.008057	0.511719	0.096103	0.010242	-0.013729	-0.048275	0.746727	0.156561	0.644638	141.687804	-77.918825	55.061983
01851		9.572072	1.088069	-1.461433	0.086689	0.212955	-0.071467	0.007382	-0.043655	0.000272	-0.816162	0.014160	0.518311	0.095724	0.010881	-0.014593	-0.048286	0.746901	0.156563	0.644434	141.796614	-77.898192	54.954565
01852		9.529769	1.195998	-1.514336	0.068931	0.090768	-0.090181	-0.008509	-0.059032	-0.017007	-0.811279	0.011719	0.519043	0.095303	0.011951	-0.015116	-0.048173	0.747114	0.156582	0.644191	141.885113	-77.864851	54.858888
01853		9.512058	1.111199	-1.588685	-0.022533	0.151121	-0.106268	-0.025196	-0.071583	-0.024795	-0.816650	0.014893	0.525391	0.095128	0.011098	-0.015854	-0.047960	0.747367	0.156579	0.643915	141.967699	-77.822698	54.759161
01854		9.562296	1.098748	-1.588587	-0.012881	0.176244	-0.058861	-0.026281	-0.086234	-0.032116	-0.810791	0.011719	0.517822	0.095632	0.010970	-0.015846	-0.047711	0.747659	0.156604	0.643587	142.057695	-77.771685	54.651503
01855		9.611845	1.116631	-1.522609	0.068961	0.191475	-0.019254	-0.027637	-0.092222	-0.036908	-0.815430	0.013428	0.521729	0.096128	0.011146	-0.015183	-0.047433	0.747969	0.156644	0.643238	142.145715	-77.715879	54.544763
01856		9.630539	1.146383	-1.542741	0.069484	0.167487	0.006102	-0.030354	-0.102285	-0.045462	-0.823975	0.008057	0.519531	0.096316	0.011440	-0.015380	-0.047114	0.748303	0.156709	0.642857	142.229824	-77.652844	54.440696
01857		9.579539	1.175007	-1.483494	0.137210	0.155555	-0.050212	-0.036857	-0.121114	-0.058686	-0.820557	0.018066	0.525635	0.095808	0.011719	-0.014779	-0.046709	0.748690	0.156807	0.642412	142.311884	-77.576251	54.334619
01858		9.541999	1.165923	-1.275211	0.337976	0.223709	-0.123983	-0.048276	-0.143668	-0.070536	-0.814697	0.009033	0.527832	0.095433	0.011623	-0.012686	-0.046209	0.749141	0.156919	0.641895	142.397649	-77.485602	54.218278
01859		9.684699	1.094580	-1.093945	0.519451	0.376245	-0.026125	-0.071677	-0.167310	-0.069740	-0.814697	0.006592	0.526611	0.096860	0.010908	-0.010862	-0.045603	0.749675	0.156958	0.641305	142.506992	-77.384106	54.063839
01860		9.779466	1.027458	-0.890053	0.719494	0.523920	0.020604	-0.090195	-0.189503	-0.088644	-0.810303	0.007568	0.530273	0.097808	0.010227	-0.008812	-0.044852	0.750267	0.157012	0.640652	142.599811	-77.266212	53.915557
01861		9.820748	0.880228	-0.546907	1.023627	0.777027	-0.021397	-0.109734	-0.225387	-0.094566	-0.809082	-0.004395	0.537598	0.098218	0.008753	-0.005363	-0.043976	0.750973	0.157034	0.639879	142.721831	-77.129525	53.725390
01862		9.811519	0.750025	-0.215550	1.319032	1.004428	-0.110826	-0.128177	-0.287648	-0.135247	-0.807373	0.001221	0.526123	0.098123	0.007433	-0.002019	-0.042856	0.751848	0.157163	0.638895	142.842946	-76.950571	53.525574
01863		9.842305	0.421527	0.249694	1.694721	1.466978	-0.216502	-0.146211	-0.368730	-0.178800	-0.800781	0.004883	0.540771	0.098422	0.004129	0.002675	-0.041460	0.752951	0.157412	0.637627	142.983260	-76.719110	53.294600
01864		9.900545	0.021997	0.524726	1.880770	1.956762	-0.276955	-0.157224	-0.455090	-0.229651	-0.801758	-0.002686	0.544434	0.098993	0.000111	0.005472	-0.039798	0.754284	0.157838	0.636049	143.137532	-76.430755	53.043204
01865		9.958986	-0.379132	0.713285	1.991519	2.432339	-0.328428	-0.154185	-0.529103	-0.300337	-0.792969	0.001709	0.549316	0.099565	-0.003935	0.007399	-0.037859	0.755791	0.158551	0.634198	143.255895	-76.083824	52.829739
01866		10.214303	-0.910847	0.549637	1.766832	2.987702	-0.147533	-0.132814	-0.616358	-0.383137	-0.797363	-0.008545	0.566406	0.102108	-0.009300	0.005817	-0.035673	0.757496	0.159661	0.632010	143.346011	-75.668586	52.658170
01867		10.262334	-1.070315	0.302045	1.546352	3.141915	-0.102445	-0.058180	-0.705740	-0.484535	-0.789795	-0.019531	0.555908	0.102585	-0.010951	0.003386	-0.033373	0.759377	0.161402	0.629430	143.409299	-75.177406	52.557594
01868		10.258262	-0.834430	0.147306	1.524431	2.948628	-0.069446	-0.005006	-0.794841	-0.594067	-0.784912	-0.010254	0.562012	0.102550	-0.008649	0.001881	-0.030862	0.761424	0.163740	0.626475	143.424514	-74.607941	52.538686
01869		10.377541	-0.665336	0.119077	1.629065	2.890004	0.043431	0.027266	-0.897554	-0.696652	-0.774170	-0.027100	0.576904	0.103745	-0.007015	0.001655	-0.028064	0.763682	0.166578	0.623100	143.414145	-73.956155	52.564920
01870		10.651614	-0.307668	-0.031106	1.709193	2.671249	0.360518	0.025323	-0.999283	-0.764350	-0.767578	-0.026611	0.568359	0.106503	-0.003484	0.000221	-0.024965	0.766174	0.169679	0.619325	143.416314	-73.234482	52.577606
01871		10.955095	0.040136	-0.136140	1.846685	2.494853	0.694353	0.015126	-1.079103	-0.815113	-0.763916	-0.032471	0.578613	0.109557	-0.000045	-0.000770	-0.021597	0.768838	0.172941	0.615234	143.425477	-72.458801	52.576144
01872		11.199274	0.410785	-0.258851	1.975448	2.292818	0.980732	0.013332	-1.151510	-0.859185	-0.748047	-0.041016	0.588135	0.112021	0.003627	-0.001943	-0.018027	0.771650	0.176372	0.610840	143.446740	-71.634706	52.561642
01873		11.391603	0.586148	-0.463288	1.971046	2.253550	1.203703	0.026402	-1.208042	-0.895064	-0.750732	-0.047363	0.604492	0.113966	0.005352	-0.003944	-0.014344	0.774559	0.179972	0.606187	143.481666	-70.772485	52.539899
01874		11.551320	0.926154	-0.478459	2.194638	2.107789	1.379173	0.075471	-1.252043	-0.923856	-0.720947	-0.052002	0.607178	0.115581	0.008729	-0.004058	-0.010727	0.777527	0.183829	0.601285	143.546575	-69.880040	52.516708
01875		11.646709	1.142428	-0.574788	2.299402	2.048943	1.491870	0.123368	-1.277504	-0.949593	-0.728271	-0.051270	0.609131	0.116553	0.010874	-0.004997	-0.007191	0.780497	0.187914	0.596206	143.626214	-68.967308	52.506119
01876		11.630469	1.209848	-1.029316	2.007987	2.017072	1.575353	0.163811	-1.296820	-0.944027	-0.711182	-0.065186	0.626221	0.116424	0.011557	-0.009529	-0.003814	0.783478	0.192092	0.590973	143.747824	-68.047327	52.476111
01877		11.354450	1.423165	-1.528358	1.665268	1.761875	1.474678	0.248179	-1.302745	-0.929702	-0.705811	-0.064453	0.642578	0.113705	0.013722	-0.014526	-0.000802	0.786437	0.196447	0.585599	143.931364	-67.129728	52.430586
01878		10.995182	1.832915	-1.866129	1.513935	1.330336	1.308084	0.366737	-1.289718	-0.909774	-0.700684	-0.072021	0.649170	0.110151	0.017862	-0.017918	0.001671	0.789325	0.201062	0.580119	144.184327	-66.224509	52.383756
01879		10.630839	2.157702	-2.247576	1.296834	0.957117	1.147311	0.472557	-1.293064	-0.900002	-0.677246	-0.072754	0.650635	0.106546	0.021150	-0.021737	0.003704	0.792181	0.205925	0.574483	144.498601	-65.321274	52.335060
01880		10.367415	2.304324	-2.453666	1.210960	0.813140	0.989327	0.546647	-1.297646	-0.885194	-0.676514	-0.082520	0.653076	0.103931	0.022649	-0.023801	0.005402	0.795012	0.210935	0.568711	144.860329	-64.420344	52.281284
01881		10.115934	2.321145	-2.818958	0.941947	0.744866	0.874778	0.679322	-1.261871	-0.849475	-0.672119	-0.077881	0.666260	0.101432	0.022875	-0.027472	0.006437	0.797728	0.216159	0.562906	145.293528	-63.548193	52.231253
01882		9.459366	3.133377	-3.022015	0.979763	-0.162579	0.552718	0.851766	-1.218856	-0.822003	-0.647705	-0.080566	0.667969	0.094903	0.031071	-0.029510	0.006656	0.800302	0.221753	0.557044	145.807941	-62.704729	52.201489
01883		9.358828	3.323203	-3.061858	1.109157	-0.280620	0.516651	0.877431	-1.177313	-0.769519	-0.639404	-0.079590	0.679443	0.093893	0.033003	-0.029921	0.006582	0.802762	0.227186	0.551285	146.343443	-61.898127	52.163441
01884		9.340488	3.075752	-2.915909	1.264902	0.061241	0.365822	0.871993	-1.064128	-0.722934	-0.644287	-0.077393	0.687500	0.093668	0.030545	-0.028528	0.006271	0.804912	0.232414	0.545950	146.836843	-61.159815	52.170323
01885		9.087534	2.658371	-3.262986	0.834349	0.331316	0.161792	0.898713	-0.877523	-0.659396	-0.640137	-0.066162	0.689697	0.091104	0.026429	-0.032111	0.005464	0.806582	0.237445	0.541310	147.285144	-60.531509	52.245480
01886		8.738583	2.716332	-3.995316	0.198202	0.022142	0.170463	0.971729	-0.665374	-0.599273	-0.628174	-0.060791	0.694580	0.087599	0.027094	-0.039530	0.003944	0.807713	0.242432	0.537411	147.705178	-60.024093	52.402723
01887		8.941953	2.850609	-3.730681	0.616668	0.093232	0.267643	1.027039	-0.423688	-0.495490	-0.622803	-0.059570	0.705322	0.089569	0.028475	-0.036971	0.001629	0.808288	0.247141	0.534405	148.112824	-59.666627	52.611326
01888		9.103151	2.313759	-3.060557	1.084005	0.830718	-0.028897	1.013572	-0.175345	-0.375663	-0.621338	-0.060059	0.700684	0.091102	0.023121	-0.030409	-0.001258	0.808321	0.251327	0.532400	148.482991	-59.466553	52.855342
01889		8.920129	1.723752	-2.659997	1.157582	1.390430	-0.520632	1.001248	0.054138	-0.273391	-0.620850	-0.048340	0.710449	0.089218	0.017249	-0.026538	-0.004654	0.807849	0.255052	0.531325	148.813725	-59.410481	53.136572
01890		8.518525	1.730312	-2.714977	0.997123	1.200258	-0.840762	1.017654	0.276293	-0.191318	-0.619385	-0.046631	0.712646	0.085164	0.017360	-0.027179	-0.008620	0.806869	0.258483	0.531106	149.110577	-59.488033	53.468732
01891		8.156096	2.387573	-2.843903	1.054278	0.424202	-0.923444	1.009871	0.488976	-0.073908	-0.623291	-0.036621	0.702148	0.081500	0.023989	-0.028517	-0.013138	0.805452	0.261396	0.531739	149.394008	-59.706067	53.809906
01892		7.863169	3.088916	-2.754129	1.337421	-0.309418	-1.033652	0.889715	0.695606	0.059599	-0.634766	-0.032227	0.704102	0.078526	0.031035	-0.027677	-0.017799	0.803643	0.263436	0.533331	149.617182	-60.065187	54.141021
01893		7.781654	3.448790	-2.682385	1.508943	-0.678468	-1.043086	0.657574	0.894984	0.182565	-0.636963	-0.021973	0.698730	0.077664	0.034648	-0.027058	-0.022116	0.801459	0.264331	0.536006	149.709196	-60.559471	54.467809
01894		7.764440	3.592739	-2.699092	1.510583	-0.874909	-1.013172	0.385869	1.064523	0.289028	-0.640381	-0.023438	0.693359	0.077447	0.036092	-0.027334	-0.025854	0.798966	0.264051	0.539687	149.646132	-61.167914	54.792924
01895		7.830221	3.507573	-2.675927	1.445292	-0.840442	-0.982070	0.118431	1.239021	0.385788	-0.657715	-0.017090	0.685547	0.078067	0.035242	-0.027223	-0.029011	0.796133	0.262622	0.544389	149.413144	-61.890757	55.134025
01896		7.968369	3.428002	-2.670353	1.364543	-0.800477	-0.875536	-0.136943	1.409483	0.475384	-0.668213	-0.015869	0.670654	0.079411	0.034450	-0.027287	-0.031621	0.792953	0.260112	0.550062	149.005432	-62.722334	55.505664
01897		8.038987	3.309574	-2.752249	1.151417	-0.793501	-0.801802	-0.365339	1.571612	0.541856	-0.675537	-0.012939	0.664307	0.080080	0.033262	-0.028213	-0.033715	0.789397	0.256662	0.556632	148.408077	-63.652057	55.939466
01898		8.059003	3.331944	-2.893310	0.915591	-0.955657	-0.720577	-0.569487	1.731526	0.580900	-0.690186	-0.017822	0.656982	0.080238	0.033469	-0.029724	-0.035317	0.785418	0.252447	0.564040	147.592756	-64.668328	56.482599
01899		8.123748	3.345285	-3.009711	0.685755	-1.092991	-0.616140	-0.767338	1.873493	0.629857	-0.705811	-0.021729	0.642822	0.080844	0.033590	-0.030984	-0.036452	0.781055	0.247425	0.572194	146.559181	-65.764683	57.135599
01900		8.270237	3.302433	-3.103987	0.447453	-1.153021	-0.463675	-0.975481	2.000896	0.685360	-0.717285	-0.022217	0.623535	0.082272	0.033152	-0.032026	-0.037089	0.776338	0.241543	0.581017	145.291598	-66.933098	57.909003
01901		8.404511	3.178063	-3.154654	0.189162	-1.138577	-0.360124	-1.188484	2.119518	0.755259	-0.731689	-0.019043	0.607910	0.083583	0.031905	-0.032623	-0.037236	0.771284	0.234707	0.590463	143.773364	-68.172699	58.813589
01902		8.536782	2.960907	-3.246844	-0.161409	-1.062974	-0.272016	-1.359383	2.220588	0.833859	-0.749268	-0.023438	0.589600	0.084875	0.029738	-0.033614	-0.037072	0.765923	0.227010	0.600378	142.014076	-69.474810	59.864711
01903		8.581272	2.633827	-3.154183	-0.413386	-0.859913	-0.346524	-1.478582	2.305699	0.926631	-0.768066	-0.027832	0.579346	0.085317	0.026495	-0.032723	-0.036817	0.760281	0.218535	0.610622	140.025419	-70.835619	61.077231
01904		8.581787	2.192309	-2.811795	-0.482293	-0.489730	-0.545456	-1.516897	2.361809	1.023659	-0.778320	-0.028809	0.554688	0.085364	0.022142	-0.029295	-0.036769	0.754419	0.209522	0.620968	137.838234	-72.240872	62.466469
01905		8.531470	1.885414	-2.502568	-0.522852	-0.271323	-0.743435	-1.471987	2.382549	1.128442	-0.800293	-0.029297	0.539307	0.084900	0.019144	-0.026179	-0.037224	0.748422	0.200196	0.631190	135.493435	-73.677893	64.035586
01906		8.619561	1.812384	-2.512852	-0.748396	-0.337444	-0.690374	-1.401613	2.389535	1.232091	-0.818115	-0.026367	0.519043	0.085773	0.018472	-0.026284	-0.038273	0.742324	0.190663	0.641200	132.963544	-75.139071	65.827997
01907		8.735100	1.860218	-2.609734	-1.011974	-0.543891	-0.579730	-1.351570	2.384136	1.320401	-0.822510	-0.029297	0.495361	0.086906	0.018995	-0.027263	-0.039773	0.736146	0.180915	0.650982	130.146138	-76.612432	67.933498
01908		8.936747	1.933034	-2.495736	-1.064880	-0.702762	-0.421364	-1.327481	2.361069	1.390995	-0.833008	-0.023193	0.473633	0.088927	0.019779	-0.026139	-0.041565	0.729933	0.170953	0.660489	126.913066	-78.079795	70.467075
01909		9.116240	2.005779	-2.461125	-1.199339	-0.900559	-0.276938	-1.316582	2.326633	1.439917	-0.847412	-0.024170	0.455811	0.090720	0.020545	-0.025803	-0.043513	0.723703	0.160810	0.669702	123.062640	-79.522130	73.621699
01910		9.220303	2.096914	-2.278853	-1.194822	-1.096466	-0.222687	-1.333329	2.285912	1.485485	-0.862305	-0.011230	0.444336	0.091775	0.021495	-0.023981	-0.045516	0.717485	0.150424	0.678613	118.320824	-80.925189	77.657617
01911		9.378710	2.156816	-2.103497	-1.205440	-1.263495	-0.118313	-1.366461	2.237571	1.509514	-0.878418	-0.013184	0.410156	0.093377	0.022125	-0.022231	-0.047429	0.711291	0.139810	0.687218	112.231354	-82.258621	83.019964
01912		9.614513	2.188274	-1.931077	-1.228111	-1.401027	0.060451	-1.405962	2.180331	1.513568	-0.873779	0.001709	0.402588	0.095757	0.022467	-0.020513	-0.049171	0.705146	0.129034	0.695487	104.147096	-83.478123	90.354626
01913		9.735823	2.001629	-1.871224	-1.416563	-1.373942	0.106676	-1.463468	2.109445	1.484017	-0.891846	0.000000	0.376465	0.097001	0.020594	-0.019886	-0.050543	0.699083	0.118144	0.703399	93.205939	-84.509150	100.511006
01914		9.643519	1.738833	-1.663324	-1.467308	-1.251607	-0.062679	-1.488561	2.028998	1.437036	-0.902588	0.006104	0.363281	0.096131	0.017950	-0.017742	-0.051612	0.693134	0.107332	0.710902	78.772594	-85.259731	114.144760
01915		9.453835	1.518501	-1.582583	-1.611545	-1.194269	-0.317565	-1.486563	1.929304	1.395373	-0.913330	0.017822	0.343262	0.094271	0.015721	-0.016852	-0.052466	0.687374	0.096668	0.717927	61.404262	-85.644978	130.711157
01916		9.177669	1.228587	-1.460402	-1.703203	-1.049007	-0.654813	-1.406810	1.808809	1.346196	-0.926514	0.017090	0.322021	0.091554	0.012796	-0.015522	-0.053359	0.681874	0.086480	0.724376	43.607552	-85.632840	147.750231
01917		8.881618	0.679888	-1.253321	-1.731677	-0.616995	-1.007353	-1.221901	1.660478	1.279642	-0.928955	0.033447	0.311035	0.088662	0.007287	-0.013313	-0.054560	0.676722	0.077208	0.730143	28.325313	-85.297145	162.376183
01918		8.530232	0.431379	-0.821916	-1.447164	-0.424947	-1.365831	-0.948486	1.488987	1.223552	-0.929199	0.036133	0.293701	0.085210	0.004794	-0.008876	-0.056416	0.672013	0.069167	0.735141	16.518569	-84.779725	173.681270
01919		8.512685	0.734881	-0.576012	-1.252032	-0.797634	-1.378711	-0.782867	1.272593	1.185618	-0.937256	0.034912	0.290771	0.085042	0.007829	-0.006331	-0.058601	0.667968	0.061910	0.739292	7.550384	-84.212086	-177.761205
01920		8.662121	0.967497	-0.624272	-1.360886	-1.148050	-1.257777	-0.712532	1.064837	1.134454	-0.942383	0.053467	0.282471	0.086530	0.010143	-0.006739	-0.060771	0.664601	0.055145	0.742679	0.587760	-83.653862	-171.170256
01921		8.737297	0.868551	-0.884506	-1.712403	-1.198695	-1.239085	-0.656910	0.889209	1.069888	-0.947021	0.055908	0.266113	0.087284	0.009123	-0.009263	-0.062821	0.661807	0.048844	0.745439	-4.951437	-83.125249	-165.974733
01922		8.755903	0.753812	-0.823716	-1.732312	-1.171774	-1.237277	-0.554728	0.750414	0.974355	-0.943115	0.060791	0.268066	0.087489	0.007941	-0.008587	-0.064828	0.659440	0.043288	0.747705	-9.320944	-82.633112	-161.891811
01923		8.707076	0.346482	-0.960662	-1.971278	-0.871926	-1.315086	-0.442944	0.623803	0.849831	-0.951904	0.073486	0.254883	0.087025	0.003813	-0.009886	-0.066697	0.657457	0.038592	0.749541	-12.692706	-82.192769	-158.748102
01924		8.615117	-0.055343	-1.065495	-2.161772	-0.555380	-1.423620	-0.289150	0.537414	0.684028	-0.961182	0.076660	0.259521	0.086123	-0.000274	-0.010886	-0.068442	0.655698	0.035054	0.751097	-15.081733	-81.803190	-156.503078
01925		8.602007	-0.217692	-1.069986	-2.222851	-0.449764	-1.443510	-0.072560	0.483748	0.498258	-0.956787	0.084717	0.238525	0.085999	-0.001967	-0.010907	-0.070179	0.654022	0.032948	0.752492	-16.517501	-81.461949	-155.095554
01926		8.580033	-0.113953	-1.001493	-2.169261	-0.582020	-1.470726	0.171734	0.430638	0.312123	-0.945313	0.085693	0.242676	0.085780	-0.000997	-0.010201	-0.072015	0.652423	0.032396	0.753729	-17.113092	-81.177189	-154.393702
01927		8.591202	0.126482	-0.941695	-2.105167	-0.837778	-1.471354	0.393966	0.373629	0.117795	-0.945801	0.088379	0.239990	0.085893	0.001334	-0.009575	-0.073825	0.650923	0.033329	0.754810	-16.936855	-80.955879	-154.345105
01928		8.572629	0.525241	-0.758617	-1.886003	-1.213914	-1.487382	0.547613	0.294539	-0.061177	-0.960693	0.088867	0.242188	0.085717	0.005247	-0.007698	-0.075455	0.649629	0.035460	0.755666	-16.152527	-80.807285	-154.821871
01929		8.591424	0.781955	-0.578906	-1.689461	-1.436903	-1.455645	0.626908	0.201900	-0.202088	-0.952148	0.085205	0.244141	0.085916	0.007751	-0.005851	-0.076782	0.648624	0.038376	0.756253	-14.951990	-80.730246	-155.675888
01930		8.575215	1.008056	-0.485286	-1.567451	-1.626958	-1.465110	0.657656	0.090324	-0.318772	-0.941162	0.091064	0.229492	0.085766	0.009960	-0.004859	-0.077756	0.647998	0.041836	0.756507	-13.449377	-80.728325	-156.816766
01931		8.710506	0.923190	-0.546804	-1.662406	-1.534921	-1.333034	0.655598	-0.038662	-0.398635	-0.952881	0.089600	0.238770	0.087124	0.009076	-0.005421	-0.078382	0.647835	0.045590	0.756364	-11.767044	-80.803522	-158.142215
01932		8.827127	0.945435	-0.631762	-1.749282	-1.543676	-1.223853	0.674879	-0.167901	-0.451449	-0.950195	0.086914	0.236816	0.088298	0.009276	-0.006212	-0.078852	0.648131	0.049644	0.755807	-9.947268	-80.950519	-159.593847
01933		8.814381	1.044458	-0.629308	-1.706966	-1.599293	-1.227320	0.692025	-0.302734	-0.488941	-0.943359	0.082520	0.244141	0.088178	0.010250	-0.006124	-0.079190	0.648910	0.053931	0.754809	-7.997747	-81.169688	-161.167383
01934		8.755423	1.148150	-0.571552	-1.592203	-1.641567	-1.264461	0.684797	-0.425675	-0.524951	-0.948486	0.085938	0.247070	0.087596	0.011271	-0.005490	-0.079344	0.650130	0.058361	0.753412	-5.880488	-81.452335	-162.912475
01935		8.941217	1.279914	-0.681968	-1.659389	-1.748409	-1.081269	0.658633	-0.545335	-0.554410	-0.940674	0.078125	0.245361	0.089465	0.012573	-0.006534	-0.079255	0.651789	0.062830	0.751627	-3.561819	-81.794495	-164.876062
01936		9.088644	1.705740	-0.573099	-1.437569	-2.091939	-0.902131	0.599090	-0.646733	-0.577773	-0.940186	0.075195	0.254395	0.090953	0.016811	-0.005386	-0.078861	0.653825	0.067193	0.749519	-1.009828	-82.182627	-167.106724
01937		11.524779	1.704167	3.887447	2.618895	-1.182410	2.127975	0.312349	-0.552066	-0.519437	-0.937988	0.080566	0.264160	0.115183	0.016681	0.039219	-0.077768	0.655627	0.070249	0.747777	1.356103	-82.503134	-169.314654
01938		15.198319	-0.405978	5.404158	3.223566	1.164964	5.954682	-0.173061	-0.248305	-0.230897	-0.944580	0.073242	0.269775	0.151911	-0.004188	0.054234	-0.076278	0.656575	0.070429	0.747081	2.269192	-82.646108	-170.335634
01939		14.259170	-0.809087	2.787581	0.752142	1.050850	4.681417	-0.576408	-0.132535	0.023166	-0.931641	0.069092	0.266357	0.142574	-0.007994	0.027993	-0.074446	0.657331	0.068221	0.746806	1.822302	-82.727569	-170.219071
01940		11.148275	0.277936	1.722282	0.354939	-0.165677	1.464458	-1.016346	-0.318154	-0.139036	-0.933594	0.062744	0.275391	0.111457	0.002790	0.017386	-0.070505	0.658875	0.064974	0.746118	1.880630	-82.912150	-170.864961
01941		9.358694	-1.619863	1.734538	0.265962	1.743545	-0.320227	-0.972974	-0.390593	-0.233162	-0.937500	0.066162	0.272949	0.093534	-0.016222	0.017607	-0.066320	0.660625	0.062219	0.745188	2.447410	-83.135835	-171.998874
01942		9.480171	-1.115807	2.147559	0.799781	1.332524	-0.152710	-0.771468	-0.480771	-0.188496	-0.930420	0.054443	0.266602	0.094739	-0.011164	0.021746	-0.062948	0.662640	0.060099	0.743864	2.990795	-83.410903	-172.991281
01943		11.041245	-0.901729	1.389264	-0.019240	0.986353	1.308397	-0.805285	-0.599710	-0.218643	-0.937256	0.055420	0.277100	0.110360	-0.009081	0.014260	-0.059307	0.665084	0.057986	0.742148	3.782891	-83.751677	-174.253711
01944		11.716401	-2.501279	-0.017441	-1.651590	2.362292	1.815795	-0.865183	-0.683732	-0.304878	-0.937744	0.047119	0.282471	0.117125	-0.025191	0.000335	-0.055128	0.667812	0.055964	0.740173	5.173622	-84.133815	-176.150912
01945		11.209429	-2.997751	-0.933505	-2.482619	2.769806	1.217859	-0.746892	-0.703067	-0.373570	-0.930176	0.044434	0.297363	0.112070	-0.030220	-0.008829	-0.051075	0.670540	0.054609	0.738096	7.285521	-84.516503	-178.704292
01946		10.783747	-2.976675	-0.880646	-2.299399	2.825551	0.801142	-0.546004	-0.679281	-0.521334	-0.921387	0.032227	0.292969	0.107788	-0.030071	-0.008358	-0.047163	0.673069	0.054487	0.736061	10.758206	-84.859753	177.493712
01947		10.567419	-2.649924	-0.723749	-2.005647	2.604176	0.599368	-0.261491	-0.641599	-0.728122	-0.927734	0.027344	0.306641	0.105599	-0.026893	-0.006864	-0.043448	0.675319	0.056093	0.734105	16.178993	-85.126321	171.900635
01948		10.023752	-1.202178	-0.627142	-1.606180	1.270791	0.092788	0.067122	-0.604786	-0.911569	-0.928223	0.020508	0.314697	0.100200	-0.012476	-0.005973	-0.040187	0.677292	0.059519	0.732201	23.442585	-85.281820	164.650015
01949		9.784731	0.098684	-0.383453	-1.118577	0.111872	-0.084738	0.269540	-0.596890	-0.971423	-0.916748	0.011719	0.316650	0.097861	0.000516	-0.003542	-0.037385	0.679158	0.063880	0.730251	31.519267	-85.335162	156.699997
01950		9.774753	1.452404	-0.029716	-0.529844	-1.074695	-0.003541	0.388856	-0.595875	-0.968469	-0.918213	0.007080	0.316895	0.097817	0.014051	0.000022	-0.035006	0.680973	0.068670	0.728241	39.665528	-85.296521	148.749895
01951		9.773444	2.516887	-0.167047	-0.458591	-2.043871	0.061213	0.414167	-0.626594	-0.961628	-0.916016	0.003174	0.328857	0.097858	0.024702	-0.001313	-0.032720	0.682874	0.073527	0.726089	47.670849	-85.182461	140.953970
01952		9.818282	3.064682	-0.514715	-0.664580	-2.530793	0.147632	0.372846	-0.675356	-0.966216	-0.912598	0.000488	0.324463	0.098346	0.030181	-0.004759	-0.030264	0.684930	0.078260	0.723761	55.431439	-84.995960	133.379118
01953		9.841606	2.973637	-0.267897	-0.375656	-2.296880	0.204970	0.239028	-0.691547	-0.945206	-0.906494	-0.015137	0.337891	0.098564	0.029274	-0.002303	-0.027413	0.687050	0.082433	0.721398	62.484176	-84.742521	126.434888
01954		9.725566	2.086552	-0.691957	-0.866288	-1.400224	0.021289	0.180044	-0.664027	-0.848258	-0.904297	-0.022949	0.343750	0.097365	0.020459	-0.006578	-0.024724	0.689095	0.086057	0.719118	68.415359	-84.464645	120.580805
01955		9.419556	1.725785	-1.072723	-1.227359	-1.045012	-0.312275	0.259802	-0.667522	-0.761679	-0.897217	-0.023682	0.350098	0.094295	0.016913	-0.010390	-0.022613	0.691162	0.089664	0.716760	73.664114	-84.181981	115.454835
01956		9.436951	0.980058	-0.867773	-1.087815	-0.203006	-0.349898	0.362262	-0.635705	-0.670230	-0.889648	-0.031250	0.353027	0.094429	0.009500	-0.008360	-0.021203	0.693124	0.093319	0.714438	78.186436	-83.903831	111.116509
01957		9.478196	0.930386	-0.708684	-0.886963	-0.056225	-0.304081	0.513842	-0.610541	-0.635377	-0.891602	-0.032227	0.357910	0.094832	0.009020	-0.006774	-0.020449	0.694981	0.097387	0.712109	82.236980	-83.609916	107.337165
01958		9.533823	1.385980	-0.493635	-0.547388	-0.393987	-0.189648	0.576560	-0.605823	-0.628990	-0.885986	-0.040771	0.369873	0.095396	0.013573	-0.004608	-0.019944	0.696798	0.101656	0.709747	85.935830	-83.292480	103.946388
01959		9.655666	2.118861	-0.486303	-0.361484	-1.027336	0.024546	0.528131	-0.605940	-0.622820	-0.885010	-0.041260	0.370117	0.096636	0.020900	-0.004515	-0.019284	0.698606	0.105726	0.707389	89.279576	-82.955221	100.882334
01960		9.629698	2.719082	-0.622021	-0.330642	-1.572140	0.083260	0.389568	-0.602951	-0.595606	-0.875000	-0.049561	0.370605	0.096395	0.026916	-0.005877	-0.018244	0.700413	0.109211	0.705097	92.234263	-82.614206	98.128896
01961		9.621149	3.211234	-0.849421	-0.410003	-2.027505	0.153282	0.174899	-0.607540	-0.565665	-0.880859	-0.048340	0.387207	0.096327	0.031847	-0.008174	-0.016549	0.702261	0.111830	0.702887	94.843582	-82.273474	95.596891
01962		9.668931	3.024391	-1.030511	-0.571943	-1.807248	0.192477	-0.051087	-0.600734	-0.534838	-0.874268	-0.056396	0.380615	0.096800	0.029983	-0.010022	-0.014178	0.704106	0.113547	0.700815	97.091433	-81.937256	93.297821
01963		9.652452	2.079560	-1.212949	-0.875725	-0.859628	0.059461	-0.145474	-0.580902	-0.515378	-0.867676	-0.069580	0.389404	0.096612	0.020538	-0.011864	-0.011548	0.705890	0.114859	0.698851	99.039806	-81.601982	91.244122
01964		9.599042	1.584369	-1.102230	-0.811323	-0.306651	-0.060044	-0.131049	-0.560484	-0.482443	-0.861816	-0.064697	0.396729	0.096059	0.015605	-0.010763	-0.009102	0.707609	0.116104	0.696941	100.787204	-81.278398	89.400943
01965		9.608526	1.110537	-1.093451	-0.843486	0.212736	-0.117555	-0.043573	-0.529957	-0.465257	-0.875977	-0.073486	0.401123	0.096139	0.010879	-0.010682	-0.007035	0.709220	0.117587	0.695076	102.362056	-80.959717	87.780606
01966		9.567507	1.337046	-1.126609	-0.793483	0.032741	-0.119232	0.079500	-0.515669	-0.451706	-0.866943	-0.062256	0.402100	0.095734	0.013159	-0.011014	-0.005468	0.710774	0.119451	0.693183	103.857810	-80.644333	86.311344
01967		9.647186	1.553710	-0.831881	-0.421001	-0.063353	-0.015105	0.150973	-0.495030	-0.436190	-0.862793	-0.071777	0.408203	0.096526	0.015333	-0.008068	-0.004215	0.712258	0.121505	0.691309	105.245116	-80.334328	84.991749
01968		9.673524	1.826916	-0.896933	-0.392592	-0.286610	0.060638	0.176423	-0.482625	-0.421848	-0.855957	-0.081299	0.409912	0.096795	0.018073	-0.008720	-0.003116	0.713696	0.123595	0.689458	106.534997	-80.029570	83.785110
01969		9.501694	2.472122	-0.844661	-0.184969	-0.884839	0.000036	0.139668	-0.478115	-0.411624	-0.855957	-0.077393	0.415283	0.095087	0.024531	-0.008202	-0.001917	0.715121	0.125519	0.687636	107.727737	-79.726344	82.653984
01970		9.430856	2.615939	-0.700532	0.022446	-0.964813	-0.048301	0.045854	-0.477719	-0.398943	-0.851318	-0.081055	0.428955	0.094377	0.025973	-0.006774	-0.000433	0.716544	0.127075	0.685870	108.810453	-79.426654	81.579642
01971		9.479900	2.609187	-0.827733	-0.063326	-0.926603	0.010683	-0.031506	-0.475299	-0.371880	-0.845947	-0.082520	0.435547	0.094867	0.025914	-0.008056	0.001240	0.717971	0.128266	0.684152	109.812082	-79.138103	80.541138
01972		9.441551	2.481826	-0.798841	-0.021431	-0.762586	-0.047533	-0.080219	-0.478311	-0.353250	-0.844238	-0.084717	0.424805	0.094478	0.024648	-0.007772	0.003020	0.719411	0.129225	0.682451	110.759109	-78.856201	79.529381
01973		9.392956	1.988593	-0.684678	0.036744	-0.234221	-0.190087	-0.084766	-0.469943	-0.343449	-0.833984	-0.087158	0.430908	0.093979	0.019722	-0.006634	0.004783	0.720826	0.130130	0.680774	111.644758	-78.577722	78.576097
01974		9.391727	1.983945	-0.767087	-0.007072	-0.203961	-0.185274	-0.036363	-0.479291	-0.338109	-0.836426	-0.092041	0.443359	0.093969	0.019679	-0.007449	0.006354	0.722267	0.131181	0.679030	112.542176	-78.297696	77.638651
01975		9.376899	2.373713	-0.588771	0.278852	-0.512680	-0.139709	-0.004826	-0.511313	-0.344775	-0.838623	-0.093262	0.440186	0.093824	0.023575	-0.005648	0.007861	0.723810	0.132359	0.677140	113.487838	-78.003482	76.668894
01976		9.598901	2.439927	-0.418747	0.511764	-0.462255	0.076277	-0.002809	-0.514315	-0.336851	-0.838623	-0.104248	0.450684	0.096040	0.024237	-0.003941	0.009329	0.725359	0.133515	0.675234	114.403376	-77.710043	75.730581
01977		9.600827	2.932683	-0.581128	0.486375	-0.923298	0.188556	-0.011524	-0.527873	-0.325369	-0.832520	-0.097412	0.452881	0.096071	0.029170	-0.005559	0.010806	0.726957	0.134597	0.673276	115.315733	-77.415657	74.788782
01978		9.518166	3.069112	-0.669177	0.464829	-1.045982	0.144837	-0.042407	-0.532465	-0.331252	-0.828613	-0.102539	0.455811	0.095250	0.030532	-0.006445	0.012411	0.728554	0.135596	0.671318	116.171078	-77.114544	73.886780
01979		9.546587	2.815989	-1.064314	0.077736	-0.820489	0.163301	-0.057068	-0.536386	-0.311847	-0.825684	-0.104980	0.466797	0.095538	0.028008	-0.010395	0.014012	0.730173	0.136474	0.669348	117.008920	-76.818915	72.992651
01980		9.504891	2.748763	-1.240275	-0.064830	-0.753661	0.130372	-0.060976	-0.537765	-0.310732	-0.831543	-0.109863	0.468018	0.095124	0.027336	-0.012155	0.015620	0.731787	0.137333	0.667371	117.809914	-76.521189	72.133400
01981		9.522774	2.382443	-1.244512	-0.089302	-0.358461	0.075250	-0.068041	-0.522228	-0.309256	-0.815430	-0.106689	0.466309	0.095296	0.023673	-0.012204	0.017243	0.733345	0.138162	0.665447	118.541473	-76.225195	71.339873
01982		9.558472	2.655339	-1.463244	-0.208467	-0.609305	0.194375	-0.050076	-0.509362	-0.284024	-0.815430	-0.116943	0.480225	0.095659	0.026414	-0.014395	0.018702	0.734869	0.138959	0.663557	119.253064	-75.943689	70.577031
01983		9.361666	2.951128	-1.781065	-0.439998	-0.951551	0.108141	-0.056894	-0.505131	-0.279977	-0.807129	-0.112305	0.474854	0.093702	0.029375	-0.017582	0.020175	0.736379	0.139718	0.661678	119.928753	-75.662587	69.845761
01984		9.335726	2.677044	-1.864885	-0.532001	-0.671055	0.039549	-0.092049	-0.499114	-0.273396	-0.816406	-0.118896	0.470947	0.093440	0.026634	-0.018428	0.021745	0.737860	0.140335	0.659845	120.552905	-75.385076	69.146495
01985		9.475382	2.452542	-1.901370	-0.554711	-0.393394	0.134691	-0.097981	-0.481995	-0.242876	-0.807861	-0.127441	0.487793	0.094829	0.024401	-0.018797	0.023230	0.739303	0.140822	0.658074	121.152042	-75.125146	68.468414
01986		9.507106	2.604740	-1.902038	-0.485863	-0.499274	0.202399	-0.109081	-0.465581	-0.228529	-0.809082	-0.126221	0.489258	0.095145	0.025928	-0.018813	0.024692	0.740692	0.141220	0.656371	121.708960	-74.876020	67.826969
01987		9.408905	2.659937	-2.032608	-0.575885	-0.563831	0.141433	-0.120422	-0.450472	-0.219717	-0.799316	-0.115479	0.495361	0.094164	0.026484	-0.020130	0.026163	0.742034	0.141547	0.654725	122.223680	-74.633531	67.221107
01988		9.327422	2.655156	-1.939266	-0.457524	-0.534713	0.052199	-0.122450	-0.443221	-0.222624	-0.796143	-0.126953	0.496582	0.093346	0.026436	-0.019202	0.027638	0.743343	0.141879	0.653107	122.703706	-74.391184	66.650012
01989		9.384959	2.484628	-1.891834	-0.399872	-0.320585	0.064915	-0.112675	-0.416364	-0.208335	-0.796387	-0.127441	0.495117	0.093915	0.024738	-0.018737	0.029016	0.744573	0.142195	0.651575	123.144203	-74.162200	66.124894
01990		9.431207	2.482252	-1.791138	-0.263007	-0.264604	0.095798	-0.089087	-0.398016	-0.202443	-0.794678	-0.129883	0.495850	0.094373	0.024719	-0.017735	0.030269	0.745744	0.142566	0.650096	123.559961	-73.941416	65.639227
01991		9.463882	2.516247	-1.904221	-0.331238	-0.278116	0.154027	-0.066764	-0.377336	-0.194399	-0.799316	-0.133301	0.506592	0.094699	0.025064	-0.018872	0.031403	0.746856	0.142983	0.648673	123.951787	-73.729442	65.190958
01992		9.424722	2.428902	-2.010292	-0.422534	-0.193794	0.114548	-0.035440	-0.366842	-0.189610	-0.786377	-0.132324	0.508789	0.094307	0.024196	-0.019934	0.032392	0.747936	0.143484	0.647267	124.338773	-73.522944	64.766269
01993		9.516004	2.140246	-1.927661	-0.348339	0.141183	0.122576	-0.016539	-0.358437	-0.176555	-0.783691	-0.135498	0.507568	0.095213	0.021317	-0.019108	0.033267	0.749001	0.143998	0.645875	124.727973	-73.323830	64.349759
01994		9.526812	2.151782	-2.086054	-0.467655	0.133819	0.162542	0.018761	-0.344342	-0.170591	-0.776611	-0.142334	0.508789	0.095322	0.021438	-0.020694	0.033975	0.750025	0.144606	0.644513	125.112109	-73.132047	63.959601
01995		9.214856	2.397473	-1.964311	-0.314274	-0.144282	-0.096707	0.027561	-0.344000	-0.171739	-0.782471	-0.142334	0.518311	0.092203	0.023898	-0.019481	0.034660	0.751049	0.145245	0.643139	125.491185	-72.938374	63.579023
01996		9.156377	2.304875	-1.966734	-0.309370	-0.049841	-0.173112	0.020333	-0.344520	-0.183012	-0.778076	-0.136475	0.512695	0.091619	0.022967	-0.019507	0.035402	0.752059	0.145902	0.641768	125.845927	-72.739295	63.219762
01997		9.150286	2.498635	-2.024315	-0.301420	-0.221935	-0.121014	0.015705	-0.353538	-0.179017	-0.777588	-0.143799	0.527588	0.091561	0.024906	-0.020079	0.036161	0.753100	0.146528	0.640361	126.207874	-72.537657	62.849332
01998		9.238196	2.355595	-1.882875	-0.144723	-0.020971	-0.095856	0.010046	-0.355397	-0.177447	-0.774170	-0.141846	0.526611	0.092436	0.023475	-0.018663	0.036931	0.754142	0.147129	0.638952	126.562305	-72.336138	62.483427
01999		9.288438	2.304329	-2.023283	-0.251000	0.044831	-0.034469	0.029550	-0.359866	-0.172588	-0.774170	-0.143799	0.531494	0.092940	0.022966	-0.020062	0.037622	0.755204	0.147772	0.637506	126.931667	-72.133891	62.112604
02000		9.214117	2.573884	-2.029899	-0.187185	-0.211127	-0.036923	0.050319	-0.370557	-0.184635	-0.770264	-0.155518	0.531250	0.092202	0.025659	-0.020122	0.038274	0.756290	0.148525	0.636004	127.306418	-71.922448	61.748757
02001		9.331377	2.210538	-1.955129	-0.126968	0.199744	-0.028647	0.055229	-0.363125	-0.188560	-0.773438	-0.140625	0.532715	0.093370	0.022023	-0.019376	0.038923	0.757350	0.149307	0.634519	127.661376	-71.710348	61.407506
02002		9.441457	2.407281	-2.118387	-0.199692	0.043699	0.156352	0.096405	-0.364148	-0.181795	-0.766846	-0.149902	0.543701	0.094475	0.023997	-0.021000	0.039386	0.758419	0.150195	0.633001	128.040167	-71.501027	61.066346
02003		9.420143	2.294879	-2.041909	-0.113039	0.176923	0.093408	0.129817	-0.354886	-0.195210	-0.761230	-0.150879	0.544922	0.094260	0.022870	-0.020237	0.039764	0.759456	0.151241	0.631484	128.403955	-71.287542	60.760385
02004		9.425225	2.304986	-2.204769	-0.232331	0.169592	0.133465	0.170520	-0.363101	-0.197124	-0.757080	-0.149170	0.545898	0.094315	0.022976	-0.021857	0.039994	0.760518	0.152420	0.629906	128.791847	-71.070345	60.453617
02005		9.312600	2.372508	-2.054720	-0.055043	0.115607	0.013738	0.200876	-0.362794	-0.208187	-0.768311	-0.151367	0.552490	0.093188	0.023649	-0.020354	0.040150	0.761576	0.153734	0.628296	129.177594	-70.846917	60.166420
02006		9.307115	2.386095	-2.016486	0.021133	0.128910	0.003872	0.217637	-0.360195	-0.216900	-0.755859	-0.145020	0.550537	0.093133	0.023782	-0.019971	0.040260	0.762615	0.155136	0.626682	129.552670	-70.620710	59.901002
02007		9.185672	2.723137	-2.023245	0.095912	-0.203394	-0.023161	0.238380	-0.374792	-0.218497	-0.747559	-0.155762	0.554688	0.091924	0.027155	-0.020028	0.040312	0.763702	0.156604	0.624988	129.948927	-70.387162	59.624908
02008		8.999351	2.684800	-1.893654	0.222660	-0.180197	-0.236667	0.229527	-0.396285	-0.222075	-0.750488	-0.165527	0.564209	0.090061	0.026770	-0.018727	0.040421	0.764843	0.158054	0.623218	130.354443	-70.144175	59.333619
02009		9.125568	2.523010	-1.782847	0.361956	0.048864	-0.185303	0.235488	-0.410245	-0.221052	-0.741211	-0.140625	0.566895	0.091320	0.025150	-0.017612	0.040524	0.766028	0.159510	0.621382	130.772760	-69.894931	59.030726
02010		9.124542	2.625571	-1.726031	0.479235	-0.016655	-0.174226	0.243269	-0.423071	-0.215848	-0.747314	-0.152588	0.570068	0.091310	0.026178	-0.017035	0.040581	0.767250	0.160970	0.619491	131.206958	-69.643157	58.716342
02011		9.154214	2.757364	-1.783077	0.500180	-0.115801	-0.100929	0.244897	-0.439611	-0.217429	-0.741699	-0.148438	0.569580	0.091611	0.027496	-0.017596	0.040656	0.768519	0.162437	0.617527	131.650538	-69.382900	58.391953
02012		9.218927	2.593738	-1.802730	0.506698	0.080806	-0.081170	0.238082	-0.458084	-0.230339	-0.734619	-0.149414	0.581787	0.092260	0.025852	-0.017785	0.040806	0.769824	0.163928	0.615494	132.088238	-69.109914	58.069572
02013		9.335019	2.488095	-1.689925	0.663436	0.258055	-0.030967	0.232475	-0.482338	-0.229794	-0.723145	-0.146240	0.570068	0.093419	0.024793	-0.016645	0.041001	0.771200	0.165392	0.613363	132.540211	-68.826211	57.727277
02014		9.464000	2.515931	-1.596399	0.833719	0.311931	0.069267	0.230385	-0.503949	-0.230555	-0.731201	-0.153320	0.589355	0.094709	0.025068	-0.015696	0.041218	0.772632	0.166848	0.611149	133.002896	-68.533524	57.372114
02015		9.460141	2.600678	-1.621606	0.879128	0.256679	0.089249	0.226010	-0.537583	-0.242922	-0.728760	-0.142822	0.593994	0.094676	0.025910	-0.015932	0.041524	0.774150	0.168328	0.608797	133.475140	-68.220734	57.002599
02016		9.449371	2.394619	-1.376184	1.123359	0.513350	-0.045759	0.205559	-0.574869	-0.270838	-0.717285	-0.157715	0.591797	0.094565	0.023832	-0.013466	0.042019	0.775743	0.169846	0.606308	133.934619	-67.881221	56.634007
02017		9.656481	2.289856	-1.226816	1.344113	0.733519	0.069167	0.203716	-0.612861	-0.299249	-0.710938	-0.153809	0.609619	0.096636	0.022766	-0.011949	0.042645	0.777420	0.171457	0.603658	134.390804	-67.513108	56.266281
02018		9.636205	2.423117	-1.120868	1.530274	0.657176	0.046836	0.186333	-0.659017	-0.340753	-0.708984	-0.159912	0.607666	0.096439	0.024077	-0.010869	0.043496	0.779183	0.173166	0.600829	134.828869	-67.109084	55.907001
02019		9.579851	2.119049	-1.103740	1.531838	0.971222	-0.107441	0.176005	-0.709241	-0.387108	-0.704346	-0.149658	0.610107	0.095878	0.021014	-0.010679	0.044578	0.781046	0.175008	0.597790	135.250562	-66.664248	55.556947
02020		9.548801	1.979689	-1.119009	1.546704	1.138253	-0.186556	0.191546	-0.762959	-0.416487	-0.695801	-0.159424	0.618652	0.095571	0.019608	-0.010807	0.045725	0.783029	0.176998	0.594513	135.688612	-66.185304	55.198560
02021		9.691760	1.660138	-1.064922	1.631368	1.545578	-0.181000	0.206665	-0.828670	-0.478040	-0.679199	-0.155029	0.625000	0.097000	0.016380	-0.010230	0.047059	0.785142	0.179254	0.590936	136.121179	-65.653139	54.853544
02022		9.756381	1.433207	-1.170639	1.572999	1.824426	-0.179014	0.255279	-0.900798	-0.525355	-0.677002	-0.160156	0.630615	0.097652	0.014090	-0.011249	0.048399	0.787414	0.181819	0.587008	136.584118	-65.071842	54.504965
02023		9.519143	1.257470	-0.756711	1.947581	2.027680	-0.600612	0.299997	-0.995352	-0.568935	-0.672119	-0.161621	0.641357	0.095263	0.012315	-0.007075	0.049783	0.789911	0.184656	0.582636	137.093227	-64.432227	54.131028
02024		9.921635	1.288515	-0.401070	2.481654	2.257818	-0.378587	0.330794	-1.105269	-0.601113	-0.665039	-0.166016	0.648438	0.099275	0.012593	-0.003441	0.051231	0.792674	0.187677	0.577772	137.657754	-63.732830	53.713915
02025		10.264179	1.682316	-0.077570	3.071357	2.136810	-0.107606	0.315793	-1.216398	-0.631992	-0.648926	-0.163818	0.651855	0.102696	0.016499	-0.000125	0.052936	0.795690	0.190737	0.572446	138.246306	-62.972087	53.256681
02026		10.382804	1.595637	0.008160	3.276689	2.354251	-0.113848	0.250789	-1.325478	-0.660796	-0.640381	-0.166504	0.661377	0.103876	0.015613	0.000790	0.055077	0.798930	0.193690	0.566711	138.825184	-62.151949	52.766155
02027		10.467717	1.215134	0.141659	3.452061	2.841506	-0.269291	0.178498	-1.432511	-0.729671	-0.632813	-0.174072	0.670166	0.104707	0.011768	0.002177	0.057809	0.802339	0.196667	0.560564	139.351300	-61.257189	52.283634
02028		10.710485	0.842575	0.504992	3.893317	3.416753	-0.386957	0.132316	-1.541524	-0.799589	-0.611816	-0.176758	0.677490	0.107094	0.007994	0.005881	0.061018	0.805913	0.199755	0.553967	139.838929	-60.287205	51.811556
02029		11.200505	0.761170	0.686567	4.327859	3.808651	-0.155454	0.098098	-1.662349	-0.879596	-0.606445	-0.174805	0.679443	0.111975	0.007116	0.007800	0.064709	0.809666	0.203010	0.546846	140.292228	-59.232699	51.350521
02030		11.521168	0.353083	0.706913	4.494029	4.426840	-0.139847	0.062978	-1.788072	-0.992452	-0.580566	-0.187744	0.699219	0.115158	0.002957	0.008100	0.068966	0.813557	0.206572	0.539163	140.689261	-58.079942	50.927713
02031		12.177972	-0.581878	0.689139	4.612611	5.671593	-0.031716	0.052603	-1.882095	-1.116504	-0.570313	-0.184082	0.710449	0.121673	-0.006500	0.008035	0.073694	0.817479	0.210549	0.531005	141.018944	-56.839208	50.571006
02032		12.616620	-0.631262	0.709030	4.938734	6.051483	0.140277	0.095783	-1.969917	-1.257397	-0.549805	-0.191650	0.723389	0.126045	-0.007109	0.008329	0.078697	0.821396	0.215163	0.522322	141.302786	-55.507607	50.295200
02033		13.403438	-0.600368	0.316911	5.061141	6.501579	0.780617	0.096960	-2.036798	-1.420840	-0.524170	-0.197021	0.722656	0.133946	-0.006957	0.004530	0.084187	0.825193	0.220385	0.513225	141.497681	-54.087290	50.123224
02034		14.017433	-1.297776	-1.303140	3.857313	7.461287	1.558771	0.125552	-2.079097	-1.593661	-0.506104	-0.205078	0.736084	0.140190	-0.014087	-0.011583	0.090031	0.828784	0.226349	0.503763	141.612928	-52.585882	50.069021
02035		13.519374	-2.456904	-0.568403	4.155071	8.525797	0.145633	0.401092	-2.100184	-1.762841	-0.488281	-0.209229	0.746826	0.135020	-0.025750	-0.004316	0.095171	0.832212	0.233644	0.493737	141.791314	-51.015359	50.132637
02036		13.554835	-0.130895	-0.616117	4.984934	6.734747	0.860258	0.850340	-2.157991	-1.852758	-0.466553	-0.206299	0.754883	0.135585	-0.002543	-0.004707	0.098707	0.835718	0.242360	0.482798	142.196437	-49.386726	50.239282
02037		13.255030	1.403009	-1.089562	5.129336	5.470692	1.259793	0.990205	-2.267890	-1.848092	-0.446045	-0.211182	0.768555	0.132784	0.012853	-0.009325	0.101762	0.839374	0.251269	0.471126	142.717047	-47.711194	50.299785
02038		12.327375	2.238767	-3.010374	3.620709	4.390425	1.747632	1.157279	-2.377282	-1.758214	-0.408936	-0.209473	0.774170	0.123810	0.021469	-0.028508	0.104012	0.843278	0.260092	0.458711	143.401624	-46.016250	50.270143
02039		11.189594	5.241463	-3.653803	3.900249	1.439020	2.382947	1.423271	-2.433824	-1.634575	-0.396484	-0.195801	0.798828	0.112751	0.051747	-0.034800	0.104909	0.847395	0.268887	0.445662	144.290437	-44.337775	50.164259
02040		10.395185	6.431819	-4.984835	3.221285	0.149297	2.988209	1.393032	-2.484474	-1.518590	-0.376953	-0.198242	0.799316	0.105043	0.063862	-0.048102	0.105710	0.851540	0.277045	0.432378	145.200425	-42.672067	50.001644
02041		10.078287	6.995041	-5.901945	2.917123	-0.333683	3.480124	1.389025	-2.505703	-1.433690	-0.345703	-0.178467	0.816406	0.102008	0.069624	-0.057262	0.106351	0.855627	0.284734	0.418949	146.119752	-41.023154	49.814383
02042		10.223747	7.847584	-5.857618	3.725612	-0.730160	3.825238	1.195033	-2.409724	-1.312231	-0.311523	-0.182373	0.827393	0.103443	0.078143	-0.056867	0.107401	0.859376	0.291496	0.406163	146.923866	-39.455529	49.629344
02043		10.269368	6.152547	-6.257944	3.068081	0.846442	3.314960	0.884434	-2.236549	-1.194454	-0.299316	-0.177979	0.829834	0.103749	0.061180	-0.061152	0.109278	0.862606	0.297136	0.394562	147.530232	-38.007328	49.467306
02044		9.946314	3.454518	-6.243501	2.026327	2.985877	1.884136	0.859926	-2.025536	-1.130594	-0.284424	-0.177246	0.835693	0.100282	0.034245	-0.061274	0.110797	0.865355	0.302536	0.383869	148.081440	-36.678654	49.370606
02045		7.143879	2.940915	-6.190132	0.584103	1.806320	-0.097009	1.140262	-1.670594	-0.874712	-0.268555	-0.161377	0.846436	0.072080	0.029445	-0.061133	0.110066	0.867850	0.307502	0.374385	148.793035	-35.600400	49.268618
02046		4.818255	6.066369	-8.631664	-0.791851	-2.133902	1.559981	1.358442	-1.208610	-0.502122	-0.254395	-0.150391	0.845947	0.048854	0.061125	-0.085609	0.106963	0.870078	0.311502	0.366728	149.651614	-34.856634	49.129217
02047		3.771434	9.988454	-8.047833	1.089571	-5.828494	2.170560	1.360795	-0.802260	-0.278707	-0.244141	-0.138184	0.846680	0.038175	0.100375	-0.079644	0.102802	0.871846	0.314712	0.360934	150.498047	-34.378101	49.009064
02048		4.659268	9.611278	-5.528763	3.301803	-4.861380	0.680959	0.733755	-0.615383	-0.167722	-0.243408	-0.130127	0.851563	0.046842	0.096275	-0.054791	0.100873	0.873088	0.316404	0.356975	150.982947	-34.021750	48.894020
02049		6.101477	6.224474	-3.773555	3.741904	-1.217505	-1.168182	0.139182	-0.482851	-0.159607	-0.233643	-0.135254	0.854736	0.061155	0.062222	-0.037545	0.101317	0.873794	0.317048	0.354542	151.102575	-33.734732	48.819813
02050		7.382348	4.256490	-3.699306	3.569091	1.144578	-1.312505	-0.278835	-0.320538	-0.140891	-0.236328	-0.150635	0.852295	0.073913	0.042461	-0.036934	0.103292	0.874024	0.316963	0.353480	150.959250	-33.533146	48.789821
02051		7.134592	3.629907	-4.510923	2.572256	1.463913	-1.113983	-0.486776	-0.058791	-0.009447	-0.245361	-0.145020	0.855713	0.071361	0.036186	-0.045176	0.105536	0.873890	0.316049	0.353965	150.691506	-33.500429	48.765814
02052		5.515771	3.432769	-4.680473	1.444277	0.604154	-1.960083	-0.499836	0.266133	0.153833	-0.240967	-0.142578	0.854980	0.055069	0.034253	-0.046964	0.107026	0.873423	0.314589	0.355966	150.410552	-33.674787	48.755679
02053		4.498939	3.074603	-4.641289	0.700419	0.237392	-2.693135	-0.409786	0.579423	0.316491	-0.251953	-0.147217	0.854004	0.044806	0.030722	-0.046606	0.107344	0.872693	0.312728	0.359286	150.174600	-34.052555	48.754962
02054		4.288208	2.821052	-4.811905	0.294997	0.266151	-2.788216	-0.295593	0.854724	0.514665	-0.244629	-0.155762	0.850342	0.042603	0.028249	-0.048343	0.106370	0.871820	0.310363	0.363717	150.017456	-34.622385	48.732987
02055		4.385420	2.726897	-4.946243	0.147091	0.340428	-2.671615	-0.188980	1.120600	0.714808	-0.265137	-0.156006	0.852539	0.043478	0.027378	-0.049733	0.104158	0.870801	0.307431	0.369245	149.936201	-35.382763	48.682518
02056		4.701985	2.462162	-5.090787	0.018996	0.661198	-2.488187	-0.147229	1.373681	0.858048	-0.279297	-0.153076	0.845459	0.046563	0.024784	-0.051247	0.101098	0.869507	0.304086	0.375856	149.878693	-36.308561	48.636366
02057		4.912136	2.200022	-5.264021	-0.201031	0.894887	-2.340323	-0.123751	1.617754	0.940902	-0.296143	-0.152344	0.832520	0.048589	0.022197	-0.053048	0.097409	0.867827	0.300506	0.383514	149.812160	-37.380406	48.625713
02058		4.939373	2.021179	-5.421121	-0.484815	0.937138	-2.279051	-0.078866	1.883805	0.996479	-0.316895	-0.149658	0.824219	0.048779	0.020434	-0.054681	0.093002	0.865654	0.296890	0.392238	149.732912	-38.598759	48.680757
02059		4.900204	2.016328	-5.366216	-0.586256	0.801181	-2.337021	-0.057224	2.144808	1.045885	-0.335938	-0.151611	0.820557	0.048317	0.020402	-0.054189	0.088010	0.862941	0.293169	0.402043	149.620222	-39.961708	48.804150
02060		4.766459	2.361890	-5.443632	-0.695749	0.302049	-2.239572	-0.033959	2.413816	1.118092	-0.357910	-0.142822	0.817627	0.046870	0.023873	-0.055009	0.082359	0.859666	0.289271	0.412932	149.478390	-41.476984	48.991450
02061		4.668333	2.733260	-5.445274	-0.736784	-0.208081	-2.175627	-0.032302	2.674026	1.201826	-0.378906	-0.143555	0.797607	0.045784	0.027601	-0.055073	0.076142	0.855808	0.285051	0.424901	149.294185	-43.145870	49.234780
02062		4.632973	3.077073	-5.319841	-0.677988	-0.660593	-2.175116	-0.090250	2.908450	1.291214	-0.406738	-0.135254	0.803955	0.045350	0.031041	-0.053877	0.069626	0.851357	0.280365	0.437880	149.037002	-44.954352	49.530005
02063		4.722013	3.382956	-5.256090	-0.644358	-1.031960	-2.074325	-0.207081	3.125778	1.350908	-0.435303	-0.141602	0.785156	0.046161	0.034089	-0.053323	0.063159	0.846242	0.275152	0.451860	148.651336	-46.887111	49.898885
02064		4.987264	3.493529	-5.342617	-0.758895	-1.179801	-1.834835	-0.349534	3.325871	1.389785	-0.462646	-0.139404	0.765381	0.048731	0.035182	-0.054304	0.056905	0.840422	0.269448	0.466745	148.102829	-48.925776	50.367834
02065		5.223031	3.570689	-5.483345	-0.976094	-1.338214	-1.606292	-0.453145	3.515075	1.402027	-0.498291	-0.135254	0.748535	0.051004	0.035942	-0.055818	0.050794	0.833858	0.263392	0.482416	147.378466	-51.057375	50.971308
02066		5.397829	3.556629	-5.387665	-1.085071	-1.420998	-1.590331	-0.559956	3.685124	1.421099	-0.527832	-0.131836	0.730957	0.052718	0.035791	-0.054956	0.044830	0.826565	0.256962	0.498750	146.460655	-53.269674	51.726782
02067		5.756811	3.646979	-5.502910	-1.289204	-1.553975	-1.290042	-0.695428	3.822266	1.452305	-0.563232	-0.125977	0.718506	0.056235	0.036687	-0.056240	0.039160	0.818597	0.249973	0.515634	145.316713	-55.549479	52.640696
02068		6.131342	3.800552	-5.780026	-1.644394	-1.785317	-0.894070	-0.818197	3.951614	1.476079	-0.589111	-0.131348	0.692383	0.059872	0.038211	-0.059149	0.033745	0.809938	0.242501	0.532967	143.910975	-57.884121	53.760947
02069		6.492188	4.003779	-5.981203	-1.965138	-2.072874	-0.550963	-0.946252	4.063133	1.519270	-0.626709	-0.123291	0.660400	0.063381	0.040235	-0.061300	0.028591	0.800626	0.234402	0.550669	142.204072	-60.268185	55.115796
02070		6.795377	4.086269	-6.188353	-2.390559	-2.300163	-0.318103	-1.043470	4.173973	1.615206	-0.643555	-0.130615	0.632080	0.066309	0.041074	-0.063493	0.023410	0.790700	0.225562	0.568653	140.186943	-62.711370	56.730217
02071		7.196088	4.214569	-6.178149	-2.614466	-2.506891	-0.087692	-1.136743	4.277127	1.757147	-0.684814	-0.129395	0.606445	0.070243	0.042410	-0.063537	0.018073	0.780197	0.215771	0.586864	137.811264	-65.222132	58.646325
02072		7.663263	4.117256	-6.012950	-2.786112	-2.476502	0.082518	-1.267330	4.344797	1.909689	-0.713379	-0.114258	0.576172	0.074903	0.041504	-0.062032	0.012706	0.769193	0.204896	0.605143	134.973395	-67.779712	60.948075
02073		8.154736	4.085598	-5.901113	-3.013225	-2.534813	0.310828	-1.390534	4.373125	2.054221	-0.747803	-0.114258	0.548584	0.079805	0.041262	-0.061055	0.007349	0.757768	0.192955	0.623300	131.528602	-70.355498	63.780023
02074		8.794436	4.338003	-5.923063	-3.300381	-2.872246	0.773745	-1.506230	4.369028	2.195539	-0.769775	-0.112305	0.501709	0.086138	0.043875	-0.061455	0.001979	0.746003	0.180007	0.641150	127.262092	-72.918324	67.364755
02075		9.473414	4.564696	-5.837618	-3.536373	-3.192557	1.229501	-1.594081	4.323036	2.342273	-0.795410	-0.100342	0.469971	0.092898	0.046264	-0.060765	-0.003483	0.734021	0.166099	0.658492	121.856209	-75.432319	72.030516
02076		10.165179	4.462058	-5.434752	-3.586224	-3.173171	1.580909	-1.644718	4.251588	2.491868	-0.822510	-0.091797	0.437988	0.099898	0.045412	-0.056855	-0.009200	0.721910	0.151378	0.675164	114.756601	-77.850102	78.356876
02077		10.771426	4.049177	-5.043601	-3.741061	-2.920765	1.819069	-1.644824	4.121941	2.612449	-0.851318	-0.076904	0.408447	0.106103	0.041456	-0.052972	-0.015208	0.709842	0.136115	0.690917	105.061907	-80.071363	87.269501
02078		11.193702	3.639229	-4.685738	-3.925221	-2.743480	1.914758	-1.542346	3.969739	2.709618	-0.854492	-0.066406	0.364014	0.110471	0.037522	-0.049346	-0.021813	0.697900	0.120795	0.705598	91.354653	-81.948806	100.249109
02079		11.218300	3.641279	-4.613769	-4.278472	-3.096113	1.697068	-1.409094	3.796713	2.766669	-0.880615	-0.041992	0.334961	0.110762	0.037615	-0.048512	-0.028954	0.686154	0.105681	0.719157	72.197961	-83.228237	118.746947
02080		10.441860	3.036825	-4.292876	-4.408665	-2.869742	0.627073	-1.233528	3.585521	2.710365	-0.904541	-0.030029	0.302490	0.103203	0.031499	-0.044978	-0.036379	0.674721	0.091371	0.731491	49.279042	-83.592375	141.102711
02081		9.815130	3.249910	-2.991789	-3.356246	-3.194601	-0.098665	-0.936640	3.276178	2.600819	-0.909180	-0.007568	0.274170	0.097210	0.033622	-0.031671	-0.044232	0.663976	0.078518	0.742304	28.628372	-83.067584	161.348686
02082		10.249948	3.832633	-2.106834	-2.712814	-3.890802	0.270767	-0.908559	2.834349	2.494009	-0.920898	0.008789	0.246338	0.101698	0.039497	-0.022691	-0.051604	0.654546	0.066197	0.751348	13.362480	-82.061268	176.216855
02083		10.309329	3.844883	-2.863952	-3.698692	-4.301500	0.039816	-1.082963	2.377693	2.328887	-0.920166	0.024170	0.233398	0.102286	0.039483	-0.030071	-0.057600	0.646597	0.053849	0.758746	2.618430	-80.898095	-173.549826
02084		9.171256	2.940150	-4.878330	-5.821321	-3.909370	-1.604411	-1.254833	2.024459	2.123232	-0.932129	0.045410	0.213135	0.090894	0.030059	-0.049893	-0.062166	0.639802	0.041608	0.764891	-5.107571	-79.714461	-166.442165
02085		7.764746	1.857698	-4.093077	-5.118230	-2.801219	-2.997352	-1.180099	1.753789	1.794044	-0.936523	0.051270	0.195801	0.077115	0.019026	-0.041720	-0.065623	0.633806	0.030774	0.770088	-10.415863	-78.583079	-161.728188
02086		7.351366	0.495084	-3.184333	-4.450624	-1.401907	-3.281786	-0.895078	1.405724	1.345502	-0.939941	0.062988	0.188965	0.073252	0.005300	-0.032382	-0.068210	0.628892	0.022575	0.774166	-13.737112	-77.637567	-158.858530
02087		6.870865	-0.060406	-2.662101	-3.991795	-0.815292	-3.672695	-0.524312	0.995728	0.801248	-0.950195	0.066895	0.175049	0.068577	-0.000400	-0.026961	-0.069785	0.625326	0.017653	0.777037	-15.396159	-76.973505	-157.468279
02088		6.505463	0.329578	-2.414532	-3.667608	-1.170886	-4.030199	-0.190309	0.554063	0.206780	-0.945801	0.070068	0.174561	0.064984	0.003340	-0.024329	-0.070073	0.623288	0.016048	0.778681	-15.655614	-76.639226	-157.313969
02089		6.578679	1.560581	-2.638184	-3.760333	-2.418675	-4.095667	0.028141	0.098753	-0.276459	-0.945313	0.072021	0.168457	0.065795	0.015519	-0.026412	-0.069102	0.622905	0.016952	0.779055	-14.955475	-76.630167	-158.019604
02090		6.527306	3.092306	-3.067233	-3.965007	-3.952239	-4.314116	0.076358	-0.332189	-0.612406	-0.953613	0.065430	0.177002	0.065418	0.030735	-0.030552	-0.066957	0.624151	0.019246	0.778192	-13.691713	-76.904835	-159.273069
02091		6.621865	3.861143	-3.786655	-4.563375	-4.757175	-4.368382	0.009245	-0.715735	-0.817837	-0.945801	0.067871	0.180176	0.066511	0.038342	-0.037627	-0.063743	0.626880	0.022042	0.776191	-12.106005	-77.413313	-160.896471
02092		6.719241	3.822612	-4.240215	-4.994061	-4.717823	-4.286363	-0.045704	-1.012002	-0.934113	-0.939941	0.057129	0.195801	0.067583	0.037901	-0.042070	-0.059893	0.630738	0.025089	0.773274	-10.258284	-78.089778	-162.814171
02093		7.032830	3.149158	-4.041842	-4.896840	-3.975048	-3.818294	-0.010203	-1.213769	-1.019134	-0.936279	0.040283	0.201904	0.070731	0.031130	-0.039992	-0.055777	0.635323	0.028595	0.769698	-7.998959	-78.873818	-165.128055
02094		10.849880	1.461946	5.770082	3.823532	-1.269957	1.888474	-0.166429	-0.894726	-0.992519	-0.939697	0.026611	0.211182	0.108310	0.014130	0.058174	-0.051330	0.638690	0.031330	0.767110	-5.486883	-79.454024	-167.782958
02095		19.822293	-5.299123	5.099733	0.826295	5.093529	10.690585	-0.252557	-0.145227	-0.245046	-0.927979	0.036133	0.216797	0.198121	-0.053169	0.051208	-0.049564	0.639310	0.031148	0.766718	-4.939433	-79.554621	-168.489733
02096		19.189412	-2.810170	-0.552011	-4.254808	2.008549	9.010098	-0.382417	-0.122305	0.310119	-0.936279	0.037598	0.213135	0.191941	-0.027814	-0.005349	-0.049542	0.639953	0.028694	0.766278	-6.186909	-79.611443	-167.444316
02097		10.645777	-1.373760	1.124756	-0.912515	1.072855	0.887829	-0.646299	-0.221868	-0.117625	-0.929443	0.031982	0.214600	0.106437	-0.013764	0.011410	-0.047002	0.640980	0.026618	0.765654	-6.289744	-79.750025	-167.718220
02098		8.145041	-3.660726	2.357723	0.510498	3.580285	-1.314314	-0.054751	-0.143951	-0.265916	-0.933350	0.026855	0.209473	0.081385	-0.036709	0.023646	-0.045821	0.641541	0.027268	0.765233	-5.556299	-79.852054	-168.495496
02099		10.758850	-2.298766	1.824116	-0.302257	2.103584	1.134827	0.241291	-0.255122	-0.167079	-0.935547	0.035400	0.209961	0.107546	-0.023100	0.018351	-0.045931	0.642475	0.028753	0.764388	-4.981765	-80.011361	-168.940802
02100		10.773036	-1.569426	1.898080	-0.127795	1.412097	1.146948	0.142722	-0.317079	-0.218940	-0.933838	0.023926	0.215088	0.107683	-0.015826	0.019140	-0.045538	0.643655	0.030047	0.763369	-4.297815	-80.206975	-169.552245
02101		11.646250	-3.392373	2.956810	0.597372	3.343507	2.201884	0.042995	-0.280033	-0.325608	-0.932861	0.029541	0.226563	0.116366	-0.034120	0.029724	-0.044404	0.644701	0.031291	0.762503	-3.272449	-80.384461	-170.569485
02102		11.251183	-0.423835	1.708314	-0.204682	0.326105	1.568804	0.163503	-0.420227	-0.525917	-0.935303	0.028564	0.222168	0.112464	-0.004548	0.017316	-0.042890	0.646214	0.033676	0.761206	-1.467469	-80.642110	-172.304687
02103		10.044200	6.264940	-1.501901	-2.365744	-6.555990	-0.127069	0.573159	-0.762051	-0.987096	-0.926514	0.012207	0.231689	0.100806	0.062194	-0.014457	-0.040871	0.648847	0.039177	0.758810	2.372470	-81.079828	-175.863107
02104		11.563188	7.749049	-2.497830	-3.304994	-8.024423	1.353070	0.486377	-1.075335	-1.436177	-0.922852	0.009766	0.241211	0.116316	0.076716	-0.024167	-0.036817	0.652552	0.045872	0.755458	8.389801	-81.621998	178.332228
02105		14.710177	2.351078	-4.694377	-6.428123	-2.718701	4.160022	-0.044405	-1.000057	-1.290317	-0.926758	0.000244	0.249512	0.147482	0.022550	-0.046212	-0.031579	0.656058	0.050066	0.752385	14.181590	-82.045916	172.453706
02106		13.851664	-2.305095	-4.212636	-6.251930	2.135252	3.274669	-0.349583	-0.886873	-1.039413	-0.915771	-0.014893	0.261230	0.138579	-0.023844	-0.041471	-0.026329	0.659207	0.052271	0.749680	19.192878	-82.368004	167.193444
02107		10.751852	-2.365441	-1.900037	-3.479284	2.506572	0.503215	-0.338343	-0.814580	-0.878997	-0.915283	-0.020996	0.264404	0.107489	-0.024158	-0.018522	-0.021718	0.662102	0.053975	0.747152	23.845262	-82.624441	162.303708
02108		9.223962	-1.010614	-0.720080	-1.910366	1.323702	-0.800542	-0.006947	-0.811703	-0.757631	-0.913330	-0.028320	0.274902	0.092229	-0.010456	-0.006826	-0.018674	0.664954	0.056516	0.744509	28.492999	-82.857077	157.614274
02109		8.680001	0.400953	-0.053994	-0.979055	0.042088	-1.178739	0.394277	-0.781042	-0.720840	-0.913330	-0.030273	0.283691	0.086815	0.003697	-0.000193	-0.017092	0.667651	0.060420	0.741822	33.439520	-83.035481	152.855971
02110		8.446574	2.286092	0.392121	-0.248591	-1.717881	-1.227189	0.723650	-0.697308	-0.779521	-0.905762	-0.035645	0.291260	0.084539	0.022516	0.004298	-0.016434	0.669960	0.065735	0.739298	38.750839	-83.102041	147.923090
02111		8.210557	3.895874	0.613703	0.243026	-3.222155	-1.296506	0.626419	-0.677495	-0.818569	-0.902832	-0.043457	0.294678	0.082242	0.038602	0.006537	-0.015296	0.672172	0.070815	0.736842	44.143668	-83.089580	142.850835
02112		8.694447	3.699134	1.282709	0.897974	-2.828805	-0.751063	0.215925	-0.686704	-0.771325	-0.902344	-0.055176	0.307861	0.087041	0.036642	0.013166	-0.012964	0.674437	0.074225	0.734477	49.117763	-83.045346	137.964596
02113		9.537997	3.285178	1.401478	0.943426	-2.264662	0.072181	-0.193777	-0.655791	-0.630773	-0.904297	-0.045898	0.301025	0.095436	0.032565	0.014296	-0.009759	0.676658	0.075649	0.732336	53.270379	-83.005784	133.667263
02114		9.542688	2.627324	1.147074	0.661819	-1.585803	0.002011	-0.389810	-0.650277	-0.569363	-0.898438	-0.055908	0.310547	0.095463	0.026024	0.011730	-0.006137	0.678869	0.076149	0.730274	57.054573	-82.957632	129.629311
02115		9.188057	2.306128	0.903428	0.456580	-1.274221	-0.393438	-0.405504	-0.632404	-0.610736	-0.897949	-0.066895	0.317383	0.091921	0.022799	0.009278	-0.002303	0.680990	0.076730	0.728258	60.790880	-82.851250	125.628932
02116		9.212724	1.793708	0.125722	-0.327875	-0.794912	-0.465623	-0.290598	-0.609193	-0.617221	-0.900146	-0.067627	0.329102	0.092178	0.017655	0.001512	0.001140	0.683002	0.077750	0.726266	64.370694	-82.704583	121.852500
02117		9.559265	0.892569	-0.798188	-1.314550	0.092860	-0.269307	-0.029494	-0.591879	-0.601788	-0.896973	-0.078125	0.327393	0.095642	0.008637	-0.007700	0.003645	0.684951	0.079662	0.724212	67.854694	-82.532381	118.320961
02118		9.945525	0.459516	-0.907068	-1.440890	0.615073	0.061135	0.277857	-0.557782	-0.583878	-0.887939	-0.085205	0.328125	0.099493	0.004317	-0.008787	0.005003	0.686771	0.082626	0.722145	71.170719	-82.337087	115.136255
02119		9.924716	0.866318	-0.871813	-1.310529	0.276525	0.097716	0.465318	-0.529068	-0.589991	-0.887451	-0.074707	0.345947	0.099295	0.008390	-0.008436	0.005744	0.688483	0.086286	0.720079	74.324307	-82.109422	112.220926
02120		9.708804	1.907745	-0.675417	-0.938111	-0.692517	0.035987	0.530680	-0.495127	-0.602653	-0.880127	-0.082275	0.332764	0.097161	0.018802	-0.006464	0.006275	0.690047	0.090225	0.718091	77.207026	-81.850382	109.616628
02121		9.568841	2.776645	-0.398442	-0.504024	-1.470626	0.036876	0.506777	-0.471025	-0.573976	-0.888184	-0.087158	0.352051	0.095777	0.027501	-0.003689	0.006786	0.691529	0.093980	0.716177	79.799245	-81.586881	107.289558
02122		9.636556	3.238794	-0.286019	-0.288897	-1.842507	0.185114	0.381633	-0.449389	-0.510330	-0.885254	-0.083496	0.351074	0.096454	0.032147	-0.002582	0.007479	0.692940	0.097064	0.714393	82.045977	-81.344361	105.238605
02123		9.621168	3.284936	0.122637	0.170301	-1.784913	0.195181	0.231563	-0.449634	-0.431656	-0.877930	-0.092529	0.350098	0.096279	0.032640	0.001481	0.008423	0.694383	0.099339	0.712666	84.067485	-81.134520	103.326515
02124		9.707983	2.963856	0.288826	0.335735	-1.388182	0.240804	0.105037	-0.459195	-0.406215	-0.877686	-0.085205	0.362549	0.097133	0.029440	0.003127	0.009709	0.695852	0.101073	0.710971	85.944535	-80.930871	101.486989
02125		9.621274	3.088957	0.486105	0.593323	-1.452126	0.181603	0.042349	-0.491123	-0.411511	-0.869385	-0.104248	0.363525	0.096264	0.030690	0.005104	0.011259	0.697430	0.102602	0.709181	87.822821	-80.714864	99.608147
02126		9.707835	2.440440	0.401553	0.468871	-0.769219	0.164646	-0.016701	-0.511595	-0.399004	-0.874268	-0.099365	0.370605	0.097116	0.024211	0.004262	0.012969	0.699068	0.103873	0.707351	89.643465	-80.497800	97.752882
02127		9.885724	1.952776	0.213193	0.261912	-0.243206	0.259961	0.006251	-0.511723	-0.376847	-0.873535	-0.099365	0.364014	0.098888	0.019341	0.002386	0.014536	0.700721	0.105148	0.705495	91.402372	-80.282807	95.971358
02128		9.759424	1.950402	0.175240	0.273551	-0.224998	0.134943	0.059789	-0.524316	-0.352567	-0.866211	-0.104004	0.379395	0.097623	0.019331	0.002014	0.015821	0.702420	0.106524	0.703569	93.152903	-80.073738	94.229378
02129		9.581731	1.458542	0.252001	0.337857	0.274880	-0.127111	0.112227	-0.528771	-0.346247	-0.872314	-0.104492	0.386230	0.095835	0.014418	0.002781	0.016913	0.704141	0.108064	0.701585	94.881554	-79.857962	92.538472
02130		9.473483	1.412071	0.150515	0.281100	0.327902	-0.243121	0.208367	-0.534121	-0.355903	-0.868164	-0.117432	0.385742	0.094755	0.013950	0.001773	0.017692	0.705870	0.109970	0.699529	96.600003	-79.628863	90.913265
02131		9.368863	1.636210	0.004788	0.217024	0.112580	-0.305182	0.251449	-0.553495	-0.367539	-0.859131	-0.109131	0.395020	0.093718	0.016190	0.000328	0.018383	0.707662	0.112067	0.697365	98.328200	-79.381778	89.301215
02132		9.349015	1.873491	-0.055656	0.241416	-0.088119	-0.281124	0.257019	-0.570247	-0.380425	-0.863281	-0.110840	0.398926	0.093527	0.018557	-0.000266	0.019095	0.709490	0.114224	0.695135	100.020348	-79.118587	87.728557
02133		9.347106	2.015964	-0.371377	0.002801	-0.225836	-0.246130	0.245274	-0.588994	-0.377719	-0.853760	-0.115479	0.402588	0.093519	0.019987	-0.003414	0.019861	0.711380	0.116330	0.692828	101.687294	-78.845107	86.172787
02134		9.369158	1.992492	-0.385889	0.041358	-0.157301	-0.227638	0.206513	-0.602969	-0.391472	-0.855469	-0.115967	0.409180	0.093741	0.019745	-0.003556	0.020809	0.713291	0.118345	0.690491	103.279740	-78.555190	84.669349
02135		9.402039	2.140017	-0.623168	-0.115283	-0.280828	-0.154854	0.201762	-0.615698	-0.399005	-0.849854	-0.111328	0.414795	0.094081	0.021219	-0.005921	0.021819	0.715237	0.120370	0.688093	104.824801	-78.249982	83.209343
02136		9.502514	2.152077	-0.484584	0.083775	-0.208127	-0.060085	0.173122	-0.620532	-0.394287	-0.835938	-0.125977	0.418213	0.095082	0.021337	-0.004532	0.022907	0.717182	0.122274	0.685693	106.289354	-77.940437	81.813793
02137		9.651886	1.972083	-0.416621	0.187620	0.051557	0.045471	0.150740	-0.616767	-0.376435	-0.844727	-0.118408	0.428711	0.096568	0.019542	-0.003854	0.024021	0.719119	0.124040	0.683304	107.677364	-77.632827	80.481313
02138		9.547902	2.134075	-0.601856	0.082382	-0.108554	-0.011670	0.155027	-0.619676	-0.364812	-0.843018	-0.130127	0.432373	0.095536	0.021171	-0.005706	0.025071	0.721057	0.125773	0.680903	109.014835	-77.325828	79.202070
02139		9.179007	2.254644	-0.477853	0.265153	-0.245165	-0.355674	0.102442	-0.640166	-0.367011	-0.832764	-0.122803	0.436279	0.091846	0.022380	-0.004473	0.026342	0.723054	0.127334	0.678443	110.309171	-77.005964	77.934087
02140		9.184323	2.009466	-0.614388	0.150379	0.016319	-0.392288	0.043761	-0.642290	-0.360330	-0.831055	-0.133789	0.440186	0.091898	0.019930	-0.005844	0.027792	0.725038	0.128667	0.676012	111.516385	-76.684629	76.719912
02141		9.156795	2.493389	-0.898883	-0.003595	-0.452120	-0.290764	0.015803	-0.659451	-0.375153	-0.827881	-0.133057	0.456055	0.091643	0.024763	-0.008685	0.029415	0.727062	0.129958	0.673518	112.676857	-76.344628	75.535197
02142		9.078300	2.576132	-0.928149	0.031443	-0.508821	-0.344154	-0.020773	-0.668021	-0.397417	-0.820068	-0.129395	0.457764	0.090864	0.025580	-0.008981	0.031240	0.729079	0.131200	0.671010	113.754548	-75.987110	74.412874
02143		9.323801	2.278276	-1.176860	-0.185964	-0.150609	-0.145677	-0.050823	-0.668801	-0.385694	-0.821533	-0.137695	0.466064	0.093320	0.022600	-0.011462	0.033146	0.731096	0.132300	0.668503	114.775426	-75.629181	73.329259
02144		9.505228	2.319856	-1.195198	-0.127207	-0.104108	0.042876	-0.042121	-0.668304	-0.365386	-0.815674	-0.140137	0.467285	0.095134	0.023022	-0.011639	0.034941	0.733110	0.133349	0.665994	115.766051	-75.278799	72.280716
02145		9.484390	2.071289	-1.335147	-0.245137	0.157313	-0.017728	-0.020406	-0.661841	-0.363268	-0.805664	-0.144287	0.470947	0.094925	0.020539	-0.013040	0.036655	0.735102	0.134467	0.663476	116.713179	-74.925219	71.287932
02146		9.514392	2.323996	-1.400558	-0.210645	-0.042501	0.078700	0.028813	-0.650406	-0.352259	-0.808105	-0.149170	0.477051	0.095230	0.023074	-0.013693	0.038133	0.737056	0.135702	0.660968	117.631512	-74.577668	70.353018
02147		9.456324	2.414908	-1.405941	-0.148140	-0.102226	0.046201	0.050576	-0.649774	-0.344336	-0.800781	-0.144287	0.485352	0.094650	0.023990	-0.013746	0.039515	0.739014	0.136983	0.658432	118.529394	-74.228870	69.450113
02148		9.495770	2.425520	-1.686851	-0.359302	-0.094542	0.125108	0.070315	-0.649711	-0.345005	-0.792236	-0.150879	0.487061	0.095053	0.024097	-0.016551	0.040814	0.740959	0.138325	0.655881	119.397426	-73.877634	68.589057
02149		9.396491	2.569652	-1.558449	-0.160099	-0.200024	0.049351	0.111615	-0.658041	-0.359801	-0.798096	-0.146973	0.497314	0.094062	0.025536	-0.015261	0.042024	0.742925	0.139859	0.653251	120.253176	-73.511603	67.763519
02150		9.592120	2.071189	-1.570791	-0.164799	0.369875	0.117143	0.167186	-0.661457	-0.360813	-0.791016	-0.156006	0.504395	0.096010	0.020552	-0.015373	0.043023	0.744896	0.141570	0.650567	121.107076	-73.142215	66.971955
02151		9.626871	2.291815	-1.483272	0.023883	0.221384	0.191265	0.230021	-0.656882	-0.360431	-0.787598	-0.151123	0.505859	0.096358	0.022761	-0.014490	0.043791	0.746860	0.143488	0.647837	121.956201	-72.769505	66.221208
02152		9.535579	2.435380	-1.181135	0.397325	0.139098	0.090629	0.281217	-0.656895	-0.382995	-0.786865	-0.152588	0.514648	0.095440	0.024187	-0.011464	0.044432	0.748802	0.145649	0.645064	122.777158	-72.384260	65.529464
02153		9.738252	2.339327	-1.002274	0.648364	0.353708	0.225466	0.317459	-0.645255	-0.401882	-0.775391	-0.153809	0.515381	0.097461	0.023213	-0.009671	0.044996	0.750693	0.148004	0.642285	123.552310	-71.989300	64.906090
02154		9.765050	2.414725	-0.981191	0.751774	0.339339	0.260492	0.346345	-0.658433	-0.414588	-0.770020	-0.165771	0.524658	0.097732	0.023961	-0.009449	0.045494	0.752605	0.150487	0.639429	124.319258	-71.583019	64.307412
02155		9.876605	2.081173	-1.099752	0.664935	0.722728	0.292903	0.369491	-0.695795	-0.428867	-0.764160	-0.166260	0.536621	0.098848	0.020620	-0.010616	0.045989	0.754623	0.153091	0.636391	125.108637	-71.153723	63.697058
02156		9.921235	1.708045	-1.288368	0.495977	1.115713	0.262865	0.385519	-0.736134	-0.424162	-0.759766	-0.157715	0.537354	0.099295	0.016894	-0.012486	0.046427	0.756754	0.155711	0.633184	125.933625	-70.712088	63.057705
02157		9.691064	1.817958	-1.167348	0.674721	1.008481	0.041825	0.389460	-0.778019	-0.417590	-0.750732	-0.169189	0.544434	0.096993	0.017999	-0.011261	0.046872	0.759013	0.158309	0.629794	126.789406	-70.254613	62.385749
02158		9.514172	1.729937	-1.141699	0.734072	1.091458	-0.164643	0.359711	-0.824657	-0.430130	-0.743896	-0.161865	0.555176	0.095225	0.017115	-0.010994	0.047494	0.761377	0.160844	0.626242	127.638862	-69.773600	61.700980
02159		9.442388	1.905307	-1.065702	0.909193	0.965624	-0.212440	0.307437	-0.873439	-0.447074	-0.729980	-0.167725	0.557861	0.094511	0.018858	-0.010215	0.048418	0.763855	0.163265	0.622516	128.466227	-69.262694	61.004862
02160		9.446721	1.980527	-1.064428	1.009193	0.950979	-0.201636	0.244893	-0.926332	-0.469300	-0.732666	-0.173096	0.565186	0.094561	0.019596	-0.010182	0.049680	0.766436	0.165557	0.618626	129.260966	-68.721114	60.303656
02161		9.381163	2.058680	-0.990264	1.170878	0.925013	-0.273429	0.184222	-0.978510	-0.501416	-0.730713	-0.168701	0.572510	0.093910	0.020360	-0.009425	0.051329	0.769121	0.167767	0.614551	130.012677	-68.141332	59.607682
02162		9.230302	2.221779	-0.994318	1.260249	0.784656	-0.383028	0.144024	-1.045963	-0.522807	-0.719971	-0.171387	0.579102	0.092411	0.021983	-0.009444	0.053240	0.771953	0.169912	0.610233	130.755951	-67.525506	58.894011
02163		9.129933	2.358344	-1.070101	1.288293	0.679850	-0.435079	0.112064	-1.105287	-0.565105	-0.706543	-0.184814	0.584229	0.091423	0.023331	-0.010183	0.055460	0.774897	0.172104	0.605673	131.465187	-66.864437	58.193684
02164		9.298909	2.490826	-0.875588	1.634545	0.707203	-0.311774	0.078017	-1.180170	-0.614663	-0.692627	-0.183594	0.598633	0.093115	0.024625	-0.008197	0.058016	0.777979	0.174354	0.600819	132.145070	-66.151634	57.500915
02165		9.719603	2.237877	-0.786980	1.866131	1.175136	-0.053944	0.076844	-1.250201	-0.660780	-0.693604	-0.188232	0.609619	0.097316	0.022060	-0.007253	0.060787	0.781199	0.176750	0.595644	132.809872	-65.387498	56.818756
02166		9.719269	2.040323	-0.348025	2.356826	1.491430	-0.275003	0.114253	-1.312796	-0.687875	-0.682617	-0.187744	0.621094	0.097282	0.020070	-0.002830	0.063531	0.784547	0.179336	0.590160	133.488361	-64.585841	56.142102
02167		10.046351	2.174767	-0.166626	2.754874	1.589001	-0.036689	0.145706	-1.379225	-0.720518	-0.671387	-0.191650	0.627441	0.100549	0.021386	-0.000957	0.066314	0.788030	0.182112	0.584335	134.172904	-63.739703	55.473323
02168		10.355728	2.289887	-0.171428	2.981904	1.687197	0.225895	0.168734	-1.456450	-0.771911	-0.652100	-0.196045	0.636963	0.103653	0.022500	-0.000941	0.069212	0.791643	0.185119	0.578137	134.849560	-62.839433	54.823883
02169		10.419090	2.623673	0.146487	3.508964	1.536309	0.226560	0.187986	-1.559475	-0.825213	-0.632813	-0.200684	0.650635	0.104282	0.025805	0.002302	0.072288	0.795457	0.188344	0.571445	135.531936	-61.871227	54.174130
02170		10.738665	2.715122	-0.165302	3.476365	1.650063	0.575133	0.143100	-1.654818	-0.852775	-0.626953	-0.198486	0.661377	0.107510	0.026694	-0.000745	0.075695	0.799431	0.191500	0.564366	136.193321	-60.850489	53.513793
02171		10.705238	2.278745	-0.565751	3.157597	2.111902	0.467417	0.108217	-1.724459	-0.905132	-0.605957	-0.208252	0.673584	0.107197	0.022305	-0.004721	0.079459	0.803468	0.194721	0.556965	136.800061	-59.775756	52.885531
02172		10.913072	1.795164	-0.236651	3.581286	2.784214	0.276519	0.137950	-1.789013	-0.969674	-0.593262	-0.211426	0.681152	0.109231	0.017423	-0.001378	0.083328	0.807550	0.198241	0.549199	137.378834	-58.646560	52.303631
02173		11.493534	1.965905	-0.057283	4.144252	3.010217	0.662422	0.150836	-1.884176	-1.032168	-0.576904	-0.218994	0.691406	0.115033	0.019065	0.000525	0.087412	0.811750	0.201983	0.540947	137.940450	-57.449268	51.742152
02174		12.226125	1.593557	0.123374	4.654522	3.808315	0.951075	0.121205	-1.957558	-1.095718	-0.552490	-0.223877	0.700684	0.122326	0.015264	0.002440	0.091842	0.815971	0.205851	0.532336	138.448039	-56.194416	51.218485
02175		13.027453	0.942317	-0.160646	4.721743	4.871642	1.349433	0.112209	-2.003063	-1.152647	-0.540283	-0.222168	0.718018	0.130333	0.008673	-0.000296	0.096505	0.820146	0.209873	0.523451	138.903112	-54.895545	50.742858
02176		13.245365	0.672354	-0.246028	4.864981	5.366798	1.299171	0.123287	-2.021508	-1.250163	-0.521240	-0.223877	0.717529	0.132508	0.005896	-0.001117	0.101373	0.824157	0.214291	0.514362	139.284376	-53.550716	50.359790
02177		13.775354	-0.152243	-0.364770	4.959644	6.511540	1.273734	0.097735	-2.036718	-1.401097	-0.494385	-0.232910	0.730225	0.137766	-0.002486	-0.002246	0.106744	0.827911	0.219222	0.505085	139.545966	-52.141629	50.100401
02178		14.201908	-1.475938	-1.691988	3.822062	8.016102	1.494760	0.148323	-2.061278	-1.553388	-0.479004	-0.244873	0.730469	0.142063	-0.015851	-0.015467	0.112292	0.831454	0.224867	0.495489	139.747695	-50.664848	49.950811
02179		13.509904	-2.917839	-1.766030	3.282773	9.138976	0.179440	0.360015	-2.045095	-1.700936	-0.458252	-0.244385	0.746094	0.135016	-0.030297	-0.016333	0.117295	0.834767	0.231610	0.485554	139.973636	-49.140498	49.923162
02180		12.844199	-1.269222	0.008021	5.143082	7.628561	-0.761285	0.897907	-2.092071	-1.859276	-0.440674	-0.251221	0.758789	0.128307	-0.013890	0.001362	0.120461	0.838159	0.240256	0.474611	140.437980	-47.537155	49.990043
02181		12.803127	0.019909	-0.385302	5.322469	6.703086	-0.283943	1.049833	-2.248188	-1.938386	-0.413086	-0.245605	0.770752	0.128058	-0.001027	-0.002417	0.123344	0.841725	0.249431	0.462676	140.999387	-45.836920	50.043070
02182		12.380126	1.310325	-1.909702	4.451845	5.572267	0.567564	1.247828	-2.455351	-1.909387	-0.390137	-0.243408	0.786133	0.124141	0.012032	-0.017497	0.125546	0.845705	0.258762	0.449514	141.744585	-44.054291	50.000085
02183		11.588559	5.046107	-2.515177	5.076126	2.235965	1.819229	1.427999	-2.574578	-1.799050	-0.370605	-0.235352	0.797852	0.116642	0.049585	-0.023297	0.126862	0.849966	0.267865	0.435560	142.652726	-42.257094	49.866186
02184		11.103096	6.091517	-4.466468	3.974031	1.295697	2.948402	1.456352	-2.673813	-1.629354	-0.341064	-0.229248	0.809326	0.112104	0.060321	-0.042730	0.127777	0.854433	0.276182	0.421118	143.644312	-40.470448	49.628226
02185		11.335287	7.084156	-4.511745	4.797494	0.843501	3.426781	1.437676	-2.682440	-1.483812	-0.312500	-0.228516	0.816162	0.114463	0.070310	-0.043080	0.128444	0.858858	0.283735	0.406643	144.647737	-38.726943	49.343982
02186		11.571127	6.927978	-4.540992	5.210893	1.323353	3.362563	1.207117	-2.562777	-1.353047	-0.280273	-0.222656	0.826416	0.116743	0.068759	-0.043502	0.129627	0.862848	0.290276	0.392977	145.504133	-37.078089	49.075581
02187		11.127953	5.884261	-5.326837	4.301915	2.085760	2.992076	0.874780	-2.363837	-1.234996	-0.256836	-0.209473	0.831787	0.112258	0.058380	-0.051689	0.131703	0.866214	0.295696	0.380648	146.138328	-35.560079	48.847234
02188		10.884785	4.656693	-5.207059	4.025822	3.085052	2.084528	0.693135	-2.068443	-1.126027	-0.226807	-0.203125	0.834961	0.109638	0.046129	-0.050779	0.133890	0.868905	0.300464	0.369864	146.622949	-34.214700	48.694007
02189		9.908785	2.175509	-6.490252	1.731858	4.578162	1.190789	0.873868	-1.754210	-1.055181	-0.234619	-0.193848	0.846436	0.099765	0.021511	-0.063935	0.134678	0.871127	0.305402	0.360180	147.155420	-33.042611	48.632303
02190		6.341906	3.653338	-8.568146	-0.861791	1.285171	1.348891	1.697559	-1.428599	-0.777334	-0.212891	-0.189453	0.853027	0.064171	0.037008	-0.084912	0.130855	0.873623	0.310818	0.350787	148.171500	-32.111380	48.551310
02191		5.250140	8.267807	-6.793084	2.083407	-2.993443	1.534551	1.941092	-0.938569	-0.437225	-0.202881	-0.166016	0.858887	0.052998	0.083215	-0.066877	0.124597	0.875837	0.315436	0.343344	149.327248	-31.521795	48.465479
02192		6.048103	8.814874	-5.064508	4.168111	-2.926008	0.864100	1.340453	-0.546230	-0.206551	-0.199951	-0.158691	0.864258	0.060709	0.088422	-0.049887	0.119939	0.877288	0.318250	0.338670	150.133011	-31.190181	48.392605
02193		6.855290	6.067426	-3.869313	4.227034	-0.296379	-0.822463	0.605144	-0.434752	-0.132496	-0.184082	-0.150879	0.863525	0.068677	0.060745	-0.038360	0.118206	0.878200	0.319529	0.335699	150.517238	-30.936055	48.316192
02194		7.951905	4.561030	-3.773100	4.237966	1.572735	-0.990096	0.114319	-0.320732	-0.107671	-0.190674	-0.146484	0.862793	0.079604	0.045589	-0.037577	0.118397	0.878660	0.319960	0.334013	150.608377	-30.743934	48.265823
02195		7.701229	4.285610	-4.405595	3.555584	1.629992	-0.769149	-0.150384	-0.067356	-0.010884	-0.195557	-0.152832	0.868164	0.077029	0.042819	-0.044062	0.119192	0.878696	0.319651	0.333933	150.532931	-30.707204	48.240379
02196		6.035871	4.082931	-4.569975	2.379672	0.716612	-1.577988	-0.264683	0.268958	0.117302	-0.198242	-0.155273	0.861572	0.060273	0.040804	-0.045835	0.119729	0.878302	0.318810	0.335575	150.374624	-30.872660	48.253022
02197		5.215341	3.527025	-4.484885	1.663059	0.602624	-2.287746	-0.269124	0.579967	0.252829	-0.204102	-0.163086	0.860352	0.051978	0.035276	-0.045047	0.119568	0.877594	0.317529	0.338685	150.199717	-31.233239	48.289027
02198		5.279525	3.000964	-4.351036	1.487713	1.014956	-2.562392	-0.211325	0.866928	0.456961	-0.206543	-0.166992	0.854736	0.052537	0.030084	-0.043770	0.118343	0.876742	0.315637	0.343062	150.070101	-31.792654	48.305005
02199		5.546037	2.686387	-4.547025	1.292494	1.369757	-2.389548	-0.192413	1.147071	0.648342	-0.218018	-0.162842	0.858643	0.055111	0.026999	-0.045813	0.116272	0.875695	0.313066	0.348753	149.958278	-32.547679	48.302751
02200		5.563264	2.567432	-4.794544	0.996265	1.393842	-2.223710	-0.160759	1.427987	0.778570	-0.234863	-0.160645	0.855713	0.055188	0.025851	-0.048361	0.113379	0.874329	0.310153	0.355667	149.854543	-33.477562	48.323750
02201		5.295504	2.501276	-4.983896	0.588413	1.181951	-2.236876	-0.122712	1.710466	0.862316	-0.255371	-0.160156	0.846680	0.052418	0.025209	-0.050304	0.109733	0.872545	0.307051	0.363791	149.742648	-34.573357	48.393142
02202		5.041887	2.450757	-5.208183	0.156743	0.950009	-2.221735	-0.032609	1.997595	0.922273	-0.260010	-0.156738	0.843262	0.049782	0.024730	-0.052585	0.105123	0.870285	0.304003	0.373009	149.642875	-35.826477	48.533490
02203		4.910073	2.559108	-5.112673	0.076270	0.662829	-2.306082	0.039212	2.304923	1.010551	-0.296387	-0.155273	0.838379	0.048377	0.025847	-0.051682	0.099563	0.867504	0.300798	0.383465	149.543441	-37.258849	48.733524
02204		4.685574	2.966432	-5.122896	-0.009301	0.059422	-2.263453	0.052158	2.617787	1.132147	-0.318604	-0.150146	0.829346	0.046011	0.029940	-0.051827	0.093217	0.864154	0.297218	0.395234	149.419491	-38.878721	48.982689
02205		4.522846	3.245578	-5.335791	-0.289101	-0.438114	-2.119826	-0.028992	2.922729	1.251658	-0.338379	-0.152344	0.817627	0.044238	0.032727	-0.054014	0.086518	0.860144	0.293013	0.408423	149.208865	-40.685315	49.282028
02206		4.387381	3.597937	-5.280620	-0.347178	-0.973186	-2.131183	-0.167243	3.235670	1.362376	-0.370117	-0.140869	0.809326	0.042765	0.036229	-0.053534	0.079697	0.855358	0.288126	0.423078	148.865534	-42.675062	49.653888
02207		4.259982	3.832823	-5.167476	-0.429174	-1.409004	-2.238769	-0.353768	3.517808	1.445458	-0.407715	-0.151611	0.799072	0.041403	0.038538	-0.052478	0.073076	0.849731	0.282480	0.439114	148.338941	-44.827395	50.117963
02208		4.193769	3.772899	-5.206634	-0.744868	-1.587411	-2.339491	-0.550490	3.778976	1.508888	-0.446533	-0.158447	0.777832	0.040657	0.037894	-0.052947	0.066744	0.843217	0.276142	0.456373	147.600416	-47.120061	50.705991
02209		4.251030	3.526093	-5.302315	-1.148127	-1.554153	-2.404836	-0.715149	4.020098	1.574567	-0.485596	-0.149170	0.755371	0.041153	0.035397	-0.053986	0.060607	0.835807	0.269083	0.474708	146.642294	-49.544653	51.435368
02210		4.408362	3.304826	-5.644268	-1.724880	-1.538237	-2.272075	-0.787128	4.247721	1.652221	-0.519775	-0.149414	0.741211	0.042596	0.033179	-0.057488	0.054236	0.827519	0.261486	0.493858	145.496146	-52.091221	52.331614
02211		4.684963	3.118813	-5.700088	-2.028188	-1.466336	-2.204102	-0.761072	4.477090	1.723865	-0.556396	-0.152100	0.709961	0.045287	0.031363	-0.058146	0.047260	0.818296	0.253554	0.513681	144.163591	-54.757857	53.444187
02212		5.228271	3.102885	-5.861544	-2.296449	-1.464068	-1.819699	-0.706016	4.702385	1.809134	-0.587158	-0.144775	0.684326	0.050602	0.031282	-0.059929	0.039516	0.808114	0.245331	0.534044	142.613646	-57.537991	54.822673
02213		5.862734	3.304741	-6.039319	-2.525053	-1.660960	-1.291391	-0.638718	4.927098	1.859092	-0.630371	-0.131836	0.656006	0.056805	0.033385	-0.061914	0.031078	0.796859	0.236943	0.554895	140.734428	-60.414294	56.584251
02214		6.294311	3.403196	-6.126875	-2.819259	-1.880677	-1.024571	-0.599341	5.132433	1.951642	-0.664063	-0.137451	0.618652	0.061007	0.034447	-0.062954	0.021947	0.784570	0.228177	0.576112	138.426864	-63.378157	58.809844
02215		6.928649	3.486883	-6.315559	-3.208701	-2.080531	-0.571541	-0.522188	5.330924	2.125543	-0.700439	-0.116455	0.590332	0.067195	0.035422	-0.065057	0.011781	0.771287	0.218772	0.597592	135.592299	-66.444791	61.605039
02216		7.746394	3.673663	-6.556930	-3.638997	-2.392341	0.061285	-0.428846	5.512595	2.311607	-0.741943	-0.104492	0.545166	0.075186	0.037471	-0.067743	0.000479	0.757009	0.208770	0.619154	131.984047	-69.588305	65.229423
02217		8.443646	3.901867	-6.580429	-3.937748	-2.803755	0.503022	-0.344250	5.646510	2.445194	-0.774902	-0.089600	0.501709	0.082049	0.039916	-0.068212	-0.011686	0.741753	0.198316	0.640575	127.101842	-72.733010	70.174719
02218		9.614412	4.315526	-6.616248	-4.211312	-3.328442	1.411004	-0.442310	5.705525	2.545727	-0.812744	-0.072021	0.468262	0.093645	0.044208	-0.068955	-0.023867	0.725704	0.186997	0.661677	120.071738	-75.763538	77.212426
02219		10.592200	4.669523	-6.454118	-4.424698	-3.869904	2.063489	-0.667305	5.652789	2.582664	-0.843750	-0.057129	0.423340	0.103426	0.047819	-0.067647	-0.035270	0.709175	0.174610	0.682156	109.552190	-78.479771	87.604442
02220		11.482054	5.528766	-5.895130	-4.186690	-4.850740	2.678751	-0.891465	5.515472	2.719638	-0.871582	-0.044434	0.364502	0.112369	0.056554	-0.062323	-0.046203	0.692592	0.160842	0.701649	93.929236	-80.671739	102.964104
02221		12.296902	5.964695	-4.999107	-3.805911	-5.412896	3.146167	-1.132691	5.280076	2.894756	-0.889404	-0.022705	0.324463	0.120709	0.061109	-0.053541	-0.056668	0.676367	0.145511	0.719822	72.175310	-81.979603	124.303870
02222		13.232641	5.535640	-4.420767	-4.013543	-5.293265	3.644486	-1.297044	4.952364	3.049783	-0.909180	-0.001221	0.294678	0.130311	0.057052	-0.047818	-0.066858	0.660868	0.129036	0.736297	47.480631	-82.072878	148.481976
02223		13.161884	5.854936	-3.923428	-3.982886	-6.026271	3.251314	-1.485553	4.590070	3.136993	-0.919922	0.024414	0.246094	0.129729	0.060286	-0.042670	-0.076439	0.646251	0.111581	0.751044	26.201916	-81.034908	169.125456
02224		11.046062	4.391063	-3.337140	-3.932144	-4.997129	0.768650	-1.750834	4.114598	2.984925	-0.941650	0.039795	0.208984	0.109069	0.045238	-0.036017	-0.084285	0.632938	0.093724	0.763872	11.386112	-79.347770	-176.860920
02225		10.124671	6.608067	-2.110450	-2.412473	-7.204788	-0.175754	-1.895574	3.478401	2.877764	-0.946533	0.062988	0.183105	0.099889	0.067309	-0.023484	-0.090891	0.621645	0.075854	0.774302	1.186186	-77.546075	-167.562829
02226		10.571199	5.350908	-4.384310	-5.285364	-6.836093	-0.597934	-2.483556	2.910522	2.836398	-0.958984	0.079102	0.156494	0.104285	0.054432	-0.046040	-0.095259	0.612441	0.056056	0.782751	-6.773124	-75.802909	-160.847216
02227		8.524807	1.819595	-3.359982	-4.855769	-3.228273	-2.514431	-2.655872	2.391924	2.529882	-0.959961	0.101563	0.133301	0.084601	0.018812	-0.034861	-0.097682	0.604941	0.036737	0.789402	-12.776970	-74.208762	-156.210101
02228		6.878088	-0.056844	-3.635048	-5.212851	-1.372927	-4.203373	-2.257360	1.746750	1.986981	-0.961426	0.119385	0.108398	0.068464	-0.000302	-0.036945	-0.099034	0.599457	0.020936	0.793980	-16.954073	-72.952354	-153.204273
02229		4.060727	0.071488	-2.164602	-3.117351	-0.942360	-6.560920	-1.675127	1.017057	1.161609	-0.960205	0.126953	0.104980	0.040492	0.000768	-0.021858	-0.098734	0.596365	0.010274	0.796552	-19.365242	-72.194493	-151.685160
02230		2.507715	-0.564392	-1.990173	-2.658132	-0.064492	-7.942372	-1.297011	0.211726	0.015271	-0.962646	0.118896	0.105469	0.025057	-0.005771	-0.019891	-0.094969	0.596184	0.004935	0.797196	-20.026694	-72.080191	-151.771172
02231		3.652902	0.526575	-3.309298	-4.051120	-1.418144	-7.332907	-0.904250	-0.531488	-0.952181	-0.953369	0.109863	0.123779	0.036641	0.004942	-0.033019	-0.088470	0.598727	0.004396	0.796040	-19.269263	-72.553824	-153.112274
02232		5.339216	2.508140	-5.624351	-6.415455	-3.780573	-6.499292	-0.463032	-1.134954	-1.456814	-0.950684	0.099854	0.127930	0.053891	0.024560	-0.055996	-0.081290	0.603423	0.007393	0.793232	-17.638894	-73.438005	-155.094726
02233		5.826297	3.606452	-6.653020	-7.357196	-4.940979	-6.253251	-0.105718	-1.531170	-1.672890	-0.957764	0.080322	0.138916	0.059069	0.035538	-0.066099	-0.074277	0.609474	0.012616	0.789218	-15.379770	-74.555713	-157.510418
02234		5.675415	3.888083	-6.715654	-7.306884	-5.121240	-6.234238	0.124166	-1.769932	-1.774384	-0.948975	0.063965	0.162598	0.057688	0.038413	-0.066625	-0.067569	0.616286	0.019145	0.784385	-12.527564	-75.788888	-160.387263
02235		6.791362	4.629487	-0.405953	-1.319524	-5.124300	-3.510573	0.159663	-1.752272	-1.824948	-0.945557	0.052979	0.172363	0.068364	0.045675	-0.003425	-0.060727	0.622918	0.025957	0.779494	-8.983390	-76.975834	-163.942640
02236		16.993761	0.696335	9.050844	5.234080	-0.587086	8.719573	-0.267415	-0.866114	-1.342331	-0.941650	0.040527	0.179688	0.169586	0.005946	0.091235	-0.054580	0.626215	0.029332	0.777185	-6.072390	-77.572898	-167.084134
02237		28.787615	-4.565422	0.253343	-6.261006	3.176862	18.477572	-0.777454	-0.486968	0.054902	-0.940674	0.049072	0.185791	0.287881	-0.045563	0.003412	-0.052288	0.628358	0.026246	0.775721	-6.820439	-77.851673	-166.776854
02238		15.006728	-1.255180	-2.578891	-5.671805	0.278099	4.371106	-1.750418	-0.632482	-0.005944	-0.940430	0.044922	0.186768	0.150147	-0.012779	-0.025203	-0.046711	0.631275	0.019614	0.773903	-8.054956	-78.215570	-166.540302
02239		7.427611	-6.388124	0.685919	-1.371313	6.083323	-2.225886	-1.080548	-0.525304	-0.481168	-0.942139	0.034424	0.190674	0.074103	-0.064021	0.007400	-0.041396	0.633538	0.017049	0.772415	-7.563253	-78.556389	-167.675971
02240		9.930712	-4.770056	0.150224	-2.148069	4.364676	0.073151	-0.343211	-0.614210	-0.390079	-0.932861	0.030518	0.192383	0.099208	-0.047891	0.001889	-0.038781	0.635976	0.017059	0.770545	-6.895921	-78.937789	-168.557068
02241		14.377128	0.129308	-1.494431	-4.105787	-0.758970	4.026284	0.046859	-0.755251	-0.364173	-0.934326	0.018555	0.204102	0.143828	0.001035	-0.014401	-0.037472	0.638879	0.018517	0.768171	-6.061969	-79.396590	-169.380691
02242		14.731417	-3.120376	0.304262	-2.566495	2.661820	4.787675	-0.243015	-0.694461	-0.336100	-0.934570	0.020020	0.217529	0.147250	-0.031447	0.003592	-0.035371	0.641589	0.018760	0.766003	-5.402796	-79.816029	-170.192604
02243		13.387998	0.473726	-0.730782	-2.963582	-0.880332	3.242484	-0.270552	-0.819873	-0.658045	-0.934326	0.010742	0.220947	0.133923	0.004287	-0.006765	-0.031912	0.644746	0.019949	0.763470	-3.644508	-80.319725	-172.137298
02244		11.317293	4.486626	-1.637098	-3.108283	-4.775277	1.069531	0.247297	-1.052380	-1.315015	-0.932373	0.012451	0.228027	0.113549	0.044140	-0.015719	-0.027614	0.648602	0.025272	0.760207	0.947689	-80.945424	-176.648011
02245		11.279291	5.711145	-4.050306	-5.256081	-5.992262	0.803426	0.721822	-1.403150	-2.027124	-0.927490	-0.001709	0.239990	0.113644	0.056106	-0.039504	-0.022078	0.653567	0.034753	0.755748	9.380194	-81.649663	175.238196
02246		13.446095	1.289692	-4.053590	-5.758247	-1.310080	2.993893	0.270733	-1.495946	-2.078817	-0.912354	-0.019287	0.258301	0.134884	0.011550	-0.039512	-0.014876	0.658808	0.042702	0.750951	19.142908	-82.194753	165.534708
02247		11.635976	0.629242	-3.778654	-5.148432	-0.438305	1.294327	-0.124927	-1.360919	-1.715964	-0.913818	-0.047852	0.267822	0.116661	0.005269	-0.036997	-0.007740	0.663565	0.047958	0.746540	28.121642	-82.523211	156.402237
02248		8.525439	1.242960	-2.078450	-2.933940	-0.901107	-1.498494	-0.197103	-1.297103	-1.283277	-0.906006	-0.053711	0.272949	0.085464	0.011862	-0.020243	-0.002013	0.668112	0.051499	0.742274	35.886445	-82.771045	148.459221
02249		8.605464	1.595170	-0.528983	-1.284070	-1.016720	-1.199075	0.090795	-1.216212	-0.942152	-0.910400	-0.062500	0.287109	0.086159	0.015548	-0.004759	0.001491	0.672408	0.054964	0.738136	42.830661	-82.974874	141.511388
02250		8.814817	4.260651	0.454167	-0.035843	-3.485799	-0.652624	0.254358	-1.146968	-0.821445	-0.898438	-0.063232	0.287842	0.088294	0.042238	0.005102	0.003954	0.676433	0.058624	0.734157	49.530214	-83.097388	134.908789
02251		8.849575	4.331843	1.392580	0.999447	-3.390407	-0.510867	0.165370	-1.098681	-0.891131	-0.903320	-0.069580	0.300781	0.088609	0.042912	0.014448	0.006983	0.680236	0.062194	0.730317	56.338990	-83.075753	128.144027
02252		9.135389	3.411995	1.531930	1.144196	-2.344507	-0.292374	0.154875	-1.066611	-0.967032	-0.888916	-0.077148	0.311035	0.091434	0.033666	0.015833	0.010291	0.683851	0.065979	0.726560	63.013721	-82.912445	121.508420
02253		7.969830	2.779952	1.708559	1.435962	-1.731559	-1.499807	0.167513	-1.043388	-1.003567	-0.887207	-0.088623	0.329102	0.079746	0.027385	0.017525	0.013702	0.687345	0.069938	0.722826	69.296341	-82.633157	115.271027
02254		7.637673	1.766592	1.046537	0.795717	-0.735824	-1.978499	0.151510	-1.019303	-0.969798	-0.884521	-0.093750	0.332764	0.076406	0.017287	0.010868	0.017015	0.690716	0.073715	0.719158	74.898386	-82.289704	109.707620
02255		8.626509	1.525724	-0.133924	-0.362889	-0.387884	-1.067454	0.380080	-0.997505	-0.867510	-0.880127	-0.103516	0.341064	0.086335	0.014885	-0.000880	0.019185	0.694044	0.077964	0.715442	79.966288	-81.932761	104.809722
02256		9.643789	2.417238	-0.834267	-0.930977	-1.110850	0.058465	0.632354	-0.960784	-0.711709	-0.874023	-0.104980	0.347168	0.096562	0.023854	-0.007803	0.019884	0.697281	0.082570	0.711748	84.509899	-81.608384	100.584792
02257		10.057968	3.304810	-1.373452	-1.295032	-1.905038	0.611475	0.721728	-0.915317	-0.592193	-0.872559	-0.095703	0.365479	0.100738	0.032798	-0.013155	0.019850	0.700395	0.087084	0.708145	88.587850	-81.304252	96.877773
02258		10.033686	3.568233	-1.942355	-1.726825	-2.160721	0.652871	0.671070	-0.877897	-0.571367	-0.871582	-0.108398	0.375732	0.100522	0.035459	-0.018863	0.019879	0.703341	0.091340	0.704679	92.216107	-80.978128	93.594698
02259		9.442731	3.908060	-2.217249	-1.859436	-2.550160	0.156879	0.510179	-0.838858	-0.683089	-0.864502	-0.107910	0.377441	0.094652	0.038813	-0.021677	0.020869	0.706068	0.095429	0.701374	95.343527	-80.558167	90.721342
02260		9.249325	3.963902	-2.336701	-1.883867	-2.575866	0.012662	0.325613	-0.818589	-0.752523	-0.866455	-0.105957	0.384033	0.092736	0.039328	-0.022924	0.022724	0.708635	0.099108	0.698210	97.998558	-80.079665	88.217059
02261		9.728983	3.508937	-2.259180	-1.774746	-1.962940	0.437473	0.165074	-0.771619	-0.663257	-0.849365	-0.111328	0.392090	0.097492	0.034785	-0.022187	0.024830	0.711055	0.101922	0.695267	100.237567	-79.635967	86.037830
02262		9.969015	2.921364	-1.934390	-1.441491	-1.243970	0.581130	0.092988	-0.716894	-0.495682	-0.851563	-0.115479	0.407715	0.099831	0.028975	-0.018973	0.026563	0.713332	0.103885	0.692574	102.189624	-79.281360	84.106283
02263		9.635154	2.519677	-1.363503	-0.858425	-0.799959	0.170636	0.083079	-0.670351	-0.394764	-0.853027	-0.122070	0.402588	0.096446	0.025012	-0.013301	0.027977	0.715500	0.105467	0.690039	103.957833	-78.975168	82.353466
02264		9.384966	2.177554	-0.865837	-0.347394	-0.417305	-0.154854	0.080978	-0.646587	-0.365674	-0.843750	-0.127441	0.408447	0.093917	0.021607	-0.008346	0.029265	0.717578	0.106931	0.687598	105.577485	-78.681657	80.749643
02265		9.394780	2.541128	-0.572164	0.045021	-0.696858	-0.088567	0.074144	-0.635333	-0.377908	-0.836426	-0.116455	0.418457	0.094013	0.025236	-0.005414	0.030636	0.719612	0.108423	0.685175	107.078368	-78.371946	79.260468
02266		9.501264	2.645685	-0.455840	0.234718	-0.722648	0.031280	0.075826	-0.623979	-0.381707	-0.841309	-0.123291	0.421631	0.095076	0.026277	-0.004252	0.031985	0.721583	0.109927	0.682797	108.462670	-78.057773	77.890555
02267		9.546866	2.579842	-0.358388	0.384319	-0.596401	0.057615	0.054149	-0.626336	-0.363197	-0.840576	-0.129639	0.430420	0.095526	0.025626	-0.003278	0.033365	0.723570	0.111300	0.680401	109.792798	-77.743916	76.561706
02268		9.451199	2.399497	-0.682859	0.095152	-0.432957	-0.047846	0.048153	-0.636423	-0.358519	-0.832764	-0.129639	0.434570	0.094576	0.023827	-0.006522	0.034741	0.725572	0.112620	0.677979	111.074978	-77.427043	75.276895
02269		9.231933	2.248442	-0.802025	0.006577	-0.302802	-0.281940	0.060867	-0.660183	-0.373686	-0.829590	-0.135254	0.450439	0.092387	0.022314	-0.007709	0.036153	0.727650	0.114044	0.675435	112.347104	-77.088043	74.007845
02270		9.199123	2.013279	-0.803535	0.036484	-0.038437	-0.361787	0.087458	-0.694673	-0.408065	-0.825195	-0.134766	0.445557	0.092059	0.019948	-0.007707	0.037585	0.729806	0.115664	0.672750	113.607207	-76.720060	72.765360
02271		9.413215	2.019042	-0.786593	0.132687	0.051531	-0.154372	0.096340	-0.709547	-0.433636	-0.817383	-0.135742	0.456787	0.094203	0.019990	-0.007522	0.039098	0.731999	0.117412	0.669973	114.815901	-76.326210	71.578552
02272		9.584332	2.218869	-0.799131	0.223381	-0.055708	0.054825	0.111920	-0.718788	-0.445901	-0.816406	-0.140869	0.464844	0.095920	0.021979	-0.007634	0.040581	0.734193	0.119243	0.667154	115.968577	-75.921185	70.457095
02273		9.532475	2.514431	-0.859541	0.263483	-0.308322	0.074889	0.106565	-0.725902	-0.455689	-0.818604	-0.142578	0.468262	0.095412	0.024931	-0.008236	0.042137	0.736402	0.121100	0.664283	117.062826	-75.501129	69.390451
02274		9.479137	2.400957	-0.997859	0.176139	-0.173982	0.013424	0.083196	-0.728350	-0.439203	-0.796143	-0.148926	0.471924	0.094879	0.023805	-0.009623	0.043707	0.738599	0.122805	0.661423	118.100645	-75.086992	68.366581
02275		9.596413	2.130583	-1.385559	-0.160802	0.126418	0.112427	0.107400	-0.717838	-0.411826	-0.807617	-0.149902	0.475098	0.096057	0.021115	-0.013500	0.045109	0.740781	0.124499	0.658566	119.108436	-74.681864	67.385851
02276		9.596396	2.294694	-1.486249	-0.170807	0.005260	0.164065	0.143728	-0.716422	-0.404366	-0.800537	-0.150635	0.479736	0.096062	0.022763	-0.014502	0.046331	0.742947	0.126273	0.655697	120.087665	-74.279572	66.454848
02277		9.578042	2.314622	-1.326984	0.056109	0.044058	0.129727	0.159649	-0.706660	-0.412865	-0.792725	-0.154541	0.490234	0.095874	0.022959	-0.012913	0.047531	0.745077	0.128142	0.652825	121.006041	-73.868855	65.594655
02278		9.689542	2.624724	-1.380253	0.125071	-0.184048	0.318029	0.159577	-0.694717	-0.412706	-0.794189	-0.154297	0.496338	0.096996	0.026058	-0.013445	0.048707	0.747145	0.129999	0.650002	121.858153	-73.461208	64.801789
