// General information: 
//  MT Manager version: 2019.2.0 
//  XDA version: 2019.2.0 build 3853 rev 94535 built on 2019-09-09
// Device information: 
//  DeviceId: 00B47793
//  ProductCode: MTW2-3A7G6
//  Firmware Version: 4.6.0
//  Hardware Version: 2.0.0
// Device settings: 
//  Filter Profile: human(46.1)
//  Option Flags: Orientation Smoother Disabled, AHS Disabled, ICC Disabled
// Coordinate system: ENU
PacketCounter	SampleTimeFine	Acc_X	Acc_Y	Acc_Z	FreeAcc_E	FreeAcc_N	FreeAcc_U	Gyr_X	Gyr_Y	Gyr_Z	Mag_X	Mag_Y	Mag_Z	VelInc_X	VelInc_Y	VelInc_Z	Quat_q0	Quat_q1	Quat_q2	Quat_q3	Roll	Pitch	Yaw
01732		5.435891	1.881240	8.034920	-0.009258	-0.037664	0.068932	0.004749	-0.000576	-0.005660	-0.904541	0.225830	-0.715088	0.054359	0.018809	0.080350	0.940400	0.055877	-0.301031	-0.148006	13.442213	-33.342216	-21.930745
01733		5.423955	1.886456	8.002679	0.001508	-0.028568	0.037188	0.004493	-0.001655	-0.006826	-0.896484	0.222900	-0.712646	0.054240	0.018861	0.080028	0.940399	0.055883	-0.301034	-0.148005	13.443172	-33.342484	-21.931015
01734		5.408520	1.864658	8.023643	-0.028063	-0.044923	0.041504	0.004937	-0.000597	-0.007842	-0.900635	0.220459	-0.710938	0.054086	0.018642	0.080237	0.940398	0.055891	-0.301034	-0.148011	13.444427	-33.342159	-21.932092
01735		5.460805	1.904881	7.991083	0.041355	-0.022662	0.051599	0.003099	0.000738	-0.007119	-0.895996	0.223145	-0.709961	0.054609	0.019046	0.079911	0.940400	0.055894	-0.301025	-0.148013	13.444484	-33.341056	-21.932175
01736		5.413880	1.889769	8.024739	-0.018252	-0.022964	0.050218	0.004751	-0.000576	-0.005660	-0.897461	0.220459	-0.719482	0.054139	0.018894	0.080248	0.940399	0.055896	-0.301026	-0.148017	13.444901	-33.341041	-21.932760
01737		5.413857	1.890339	8.024620	-0.018063	-0.022380	0.050220	0.002213	-0.001377	-0.005087	-0.900879	0.219238	-0.718750	0.054138	0.018901	0.080247	0.940400	0.055889	-0.301027	-0.148012	13.443891	-33.341387	-21.931825
01738		5.433252	1.888649	7.979846	0.022740	-0.029349	0.024171	0.003287	0.000717	-0.009300	-0.898926	0.215088	-0.710205	0.054334	0.018883	0.079799	0.940401	0.055897	-0.301017	-0.148019	13.444814	-33.339943	-21.932746
01739		5.413670	1.891581	8.024454	-0.017673	-0.021209	0.050223	0.001958	-0.002455	-0.006252	-0.897217	0.226807	-0.717529	0.054136	0.018913	0.080245	0.940400	0.055890	-0.301022	-0.148019	13.444180	-33.340734	-21.932761
01740		5.429055	1.914748	8.003189	0.012260	-0.003620	0.045901	0.004752	-0.000576	-0.005660	-0.893555	0.219727	-0.714844	0.054291	0.019144	0.080032	0.940400	0.055895	-0.301022	-0.148016	13.444644	-33.340620	-21.932441
01741		5.423330	1.891843	8.001830	0.003002	-0.023797	0.037200	0.005127	-0.000618	-0.010023	-0.898682	0.215576	-0.713623	0.054234	0.018914	0.080019	0.940398	0.055910	-0.301020	-0.148029	13.447047	-33.339885	-21.934678
01742		5.440749	1.911831	8.035056	0.002069	-0.010944	0.077654	0.002658	-0.000319	-0.006102	-0.903564	0.223389	-0.711670	0.054408	0.019116	0.080351	0.940399	0.055907	-0.301016	-0.148031	13.446571	-33.339502	-21.934676
01743		5.423172	1.893229	8.001610	0.003380	-0.022629	0.037203	0.004497	-0.001654	-0.006825	-0.903320	0.228027	-0.719971	0.054232	0.018929	0.080017	0.940398	0.055914	-0.301020	-0.148030	13.447531	-33.339770	-21.934946
01744		5.423108	1.893932	8.001486	0.003559	-0.021998	0.037204	0.002846	-0.000340	-0.008284	-0.901123	0.222900	-0.713867	0.054232	0.018936	0.080015	0.940397	0.055912	-0.301017	-0.148042	13.447692	-33.339261	-21.936323
01745		5.422984	1.894470	8.001443	0.003748	-0.021414	0.037206	0.000564	-0.000063	-0.006545	-0.896240	0.227783	-0.716309	0.054230	0.018943	0.080015	0.940399	0.055901	-0.301010	-0.148045	13.446157	-33.338681	-21.936151
01746		5.434687	1.890676	8.033519	-0.006623	-0.029275	0.068963	0.007990	0.002362	-0.006083	-0.898926	0.225586	-0.711182	0.054348	0.018902	0.080335	0.940405	0.055926	-0.300997	-0.148027	13.448205	-33.336880	-21.934318
01747		5.434545	1.891266	8.033476	-0.006434	-0.028689	0.068964	-0.002229	-0.001944	-0.007137	-0.900146	0.222168	-0.715820	0.054345	0.018912	0.080335	0.940404	0.055902	-0.300997	-0.148038	13.445452	-33.337269	-21.934841
01748		5.417009	1.872186	8.000120	-0.005131	-0.040347	0.028519	0.000188	-0.000021	-0.002182	-0.904053	0.216797	-0.719971	0.054170	0.018721	0.080001	0.940410	0.055880	-0.300992	-0.148024	13.441866	-33.337368	-21.931972
01749		5.422498	1.896437	8.001306	0.004500	-0.018993	0.037210	0.005386	0.000461	-0.008856	-0.899170	0.213623	-0.721924	0.054226	0.018960	0.080013	0.940410	0.055895	-0.300985	-0.148031	13.443895	-33.336188	-21.933258
01750		5.422365	1.897236	8.001207	0.004694	-0.018437	0.037211	0.004754	-0.000575	-0.005659	-0.894775	0.219971	-0.711426	0.054224	0.018969	0.080013	0.940410	0.055901	-0.300984	-0.148031	13.444650	-33.335919	-21.933481
01751		5.424454	1.894531	8.055560	-0.025977	-0.022556	0.081999	0.002660	-0.000319	-0.006101	-0.898438	0.220459	-0.715576	0.054245	0.018943	0.080556	0.940411	0.055899	-0.300980	-0.148029	13.444176	-33.335541	-21.933055
01752		5.416594	1.874665	7.999821	-0.004371	-0.038024	0.028528	0.002660	-0.000319	-0.006101	-0.895508	0.228271	-0.719727	0.054166	0.018744	0.079999	0.940413	0.055896	-0.300977	-0.148029	13.443598	-33.335204	-21.932817
01753		5.412357	1.900090	8.023329	-0.015041	-0.012889	0.050242	0.002660	-0.000319	-0.006101	-0.906982	0.223145	-0.713623	0.054124	0.018998	0.080234	0.940414	0.055894	-0.300973	-0.148028	13.443123	-33.334826	-21.932391
01754		5.453511	1.892602	7.988278	0.035489	-0.032073	0.042921	0.002029	-0.001355	-0.002904	-0.897949	0.215332	-0.711914	0.054535	0.018924	0.079883	0.940418	0.055882	-0.300974	-0.148008	13.440922	-33.335535	-21.929354
01755		5.427694	1.923467	8.002021	0.015075	0.005321	0.045896	0.002472	-0.000298	-0.003920	-0.896973	0.224854	-0.709473	0.054277	0.019233	0.080021	0.940421	0.055876	-0.300971	-0.147996	13.439538	-33.335435	-21.927469
01756		5.443682	1.894387	8.010533	0.015552	-0.027100	0.055952	-0.001717	0.000213	-0.004806	-0.897217	0.223633	-0.718262	0.054437	0.018943	0.080105	0.940424	0.055847	-0.300963	-0.148007	13.435932	-33.335069	-21.927556
01757		5.412208	1.901580	8.023077	-0.014302	-0.010484	0.050246	0.004501	-0.001653	-0.006824	-0.901123	0.212891	-0.709473	0.054122	0.019012	0.080232	0.940422	0.055853	-0.300967	-0.148006	13.436894	-33.335338	-21.927824
01758		5.428236	1.872872	8.031478	-0.013818	-0.042922	0.060306	0.002661	-0.000319	-0.006101	-0.904785	0.221680	-0.708008	0.054283	0.018726	0.080315	0.940422	0.055847	-0.300964	-0.148017	13.436421	-33.335031	-21.928926
01759		5.410664	1.854166	7.998068	-0.012512	-0.054646	0.019869	0.002407	-0.001398	-0.007266	-0.906006	0.223389	-0.714600	0.054107	0.018539	0.079981	0.940421	0.055845	-0.300965	-0.148021	13.436323	-33.335098	-21.929449
01760		5.416152	1.878509	7.999219	-0.002927	-0.033245	0.028546	0.003105	0.000738	-0.007117	-0.906006	0.221924	-0.709473	0.054162	0.018782	0.079992	0.940418	0.055836	-0.300960	-0.148052	13.436231	-33.334293	-21.932996
01761		5.437716	1.873495	8.008895	0.007008	-0.044907	0.047286	0.004568	-0.000553	-0.003477	-0.905518	0.214844	-0.712891	0.054377	0.018732	0.080090	0.940421	0.055839	-0.300959	-0.148035	13.435908	-33.334394	-21.930857
01762		5.426509	1.826599	8.006342	-0.011727	-0.085866	0.029947	0.002408	-0.001398	-0.007266	-0.906494	0.218018	-0.696045	0.054265	0.018263	0.080064	0.940413	0.055824	-0.300965	-0.148077	13.435832	-33.334742	-21.936100
01763		5.619164	2.219338	7.803239	0.351869	0.230165	0.047040	0.001327	-0.006814	-0.015272	-0.914795	0.229980	-0.706787	0.056191	0.022189	0.078034	0.940399	0.055825	-0.300988	-0.148123	13.438524	-33.336762	-21.942827
01764		8.405727	2.670494	6.327848	3.480130	-0.189541	0.467498	0.016944	-0.015367	-0.023081	-0.911133	0.227783	-0.708740	0.084055	0.026690	0.063287	0.940349	0.055879	-0.301070	-0.148252	13.453551	-33.343178	-21.964498
01765		5.658952	2.227509	7.044655	0.824126	0.235487	-0.545646	0.005018	-0.016145	-0.016718	-0.915039	0.228271	-0.700684	0.056586	0.022269	0.070452	0.940318	0.055892	-0.301139	-0.148301	13.459709	-33.350203	-21.973681
01766		6.282971	2.296278	7.285472	1.182896	0.101008	0.006542	0.012884	-0.005992	-0.017270	-0.914307	0.232178	-0.700928	0.062830	0.022953	0.072858	0.940290	0.055930	-0.301174	-0.148393	13.469365	-33.352104	-21.988318
01767		6.140759	2.019144	7.503422	0.876583	-0.122106	0.051586	0.009722	-0.014495	-0.013501	-0.916748	0.229492	-0.700439	0.061404	0.020184	0.075040	0.940263	0.055961	-0.301240	-0.148419	13.476896	-33.358637	-21.995095
01768		5.595810	2.105816	7.847614	0.274560	0.124688	0.048432	0.004625	0.003889	-0.012347	-0.922607	0.217529	-0.695068	0.055961	0.021053	0.078476	0.940258	0.055965	-0.301222	-0.148484	13.479178	-33.355570	-22.003123
01769		5.480126	1.845821	8.077512	-0.012567	-0.089903	0.120932	0.001012	0.000992	-0.007559	-0.916748	0.224121	-0.694336	0.054802	0.018456	0.080775	0.940261	0.055958	-0.301210	-0.148491	13.478178	-33.354267	-22.003461
01770		5.264206	1.868715	8.142243	-0.211849	-0.001676	0.059253	0.004697	-0.001673	-0.009003	-0.919922	0.222656	-0.701172	0.052642	0.018683	0.081423	0.940256	0.055964	-0.301216	-0.148512	13.479973	-33.354451	-22.006585
01771		5.350706	1.828590	8.048605	-0.100126	-0.065304	0.022939	-0.002222	-0.001949	-0.007133	-0.921387	0.225830	-0.691162	0.053507	0.018285	0.080486	0.940256	0.055940	-0.301215	-0.148522	13.477223	-33.354844	-22.007110
01772		5.645204	1.916534	7.932368	0.217338	-0.071973	0.107569	0.004761	-0.000572	-0.005657	-0.927002	0.232666	-0.688965	0.056452	0.019162	0.079324	0.940257	0.055945	-0.301215	-0.148516	13.477702	-33.354784	-22.006454
01773		5.699411	1.935306	7.821625	0.328445	-0.069542	0.051074	0.004698	-0.001673	-0.009002	-0.933350	0.222412	-0.696045	0.056994	0.019349	0.078217	0.940253	0.055956	-0.301218	-0.148525	13.479577	-33.354774	-22.008181
01774		5.741039	2.028992	7.781510	0.406965	0.006644	0.059626	0.005079	-0.001717	-0.013364	-0.926025	0.218262	-0.689453	0.057411	0.020284	0.077816	0.940247	0.055974	-0.301222	-0.148554	13.483168	-33.354325	-22.012815
01775		5.552682	1.918018	7.891674	0.169458	-0.042032	0.023934	0.006986	-0.001948	-0.010740	-0.929932	0.231689	-0.696533	0.055527	0.019174	0.078918	0.940241	0.055998	-0.301227	-0.148568	13.487016	-33.354236	-22.015746
01776		5.419969	1.873634	7.916012	0.041429	-0.043505	-0.037913	0.005081	-0.001717	-0.013363	-0.927979	0.224365	-0.688965	0.054200	0.018731	0.079161	0.940234	0.056017	-0.301231	-0.148598	13.490611	-33.353793	-22.020377
01777		5.387605	1.933509	7.898690	0.040983	0.023108	-0.058107	0.009274	-0.002222	-0.012478	-0.933838	0.225342	-0.692627	0.053876	0.019328	0.078988	0.940227	0.056054	-0.301239	-0.148617	13.496431	-33.353624	-22.024510
01778		5.259800	1.882538	8.031642	-0.148725	0.012321	-0.030334	0.003323	-0.012610	-0.009297	-0.935547	0.226318	-0.689941	0.052594	0.018822	0.080320	0.940207	0.056049	-0.301293	-0.148632	13.498487	-33.359794	-22.028173
01779		5.396604	1.855820	7.957560	-0.008045	-0.054948	-0.020492	0.010149	-0.027862	-0.017855	-0.936035	0.222656	-0.685791	0.053957	0.018549	0.079584	0.940156	0.056080	-0.301421	-0.148682	13.509041	-33.373189	-22.040002
01780		5.574699	1.892190	7.950484	0.139849	-0.076669	0.078845	0.014865	-0.032871	-0.014640	-0.922119	0.230469	-0.688477	0.055735	0.018912	0.079515	0.940099	0.056123	-0.301578	-0.148711	13.521462	-33.389928	-22.050482
01781		5.325594	1.928988	7.917039	-0.027840	0.036701	-0.078196	0.008218	-0.038733	-0.011601	-0.931396	0.235596	-0.687744	0.053242	0.019284	0.079181	0.940037	0.056127	-0.301757	-0.148738	13.529585	-33.410213	-22.059893
01782		5.694815	1.973532	7.857745	0.298936	-0.035676	0.085761	0.010237	-0.054514	-0.017839	-0.938721	0.227295	-0.681641	0.056928	0.019726	0.078594	0.939946	0.056136	-0.302011	-0.148795	13.542459	-33.438576	-22.075998
01783		5.624091	1.993135	7.847597	0.249558	0.005365	0.042537	0.010967	-0.059038	-0.017684	-0.947510	0.224609	-0.687012	0.056219	0.019922	0.078494	0.939848	0.056147	-0.302286	-0.148852	13.556213	-33.469352	-22.092753
01784		5.855640	2.121199	7.775852	0.496070	0.055515	0.137323	0.014050	-0.062734	-0.015925	-0.943359	0.229492	-0.679443	0.058534	0.021202	0.077778	0.939744	0.056166	-0.302582	-0.148897	13.571330	-33.502550	-22.108933
01785		5.746125	2.044612	7.860094	0.337544	0.016320	0.130414	0.006299	-0.057362	-0.010888	-0.937256	0.227539	-0.685303	0.057440	0.020441	0.078618	0.939655	0.056146	-0.302848	-0.148928	13.579785	-33.533300	-22.120906
01786		5.724037	1.975391	7.875773	0.289132	-0.041656	0.117531	0.005700	-0.051737	-0.003242	-0.945557	0.229736	-0.684814	0.057220	0.019751	0.078773	0.939580	0.056114	-0.303090	-0.148923	13.584486	-33.562083	-22.126862
01787		5.655250	1.990759	7.920824	0.208919	-0.005261	0.119118	0.005348	-0.043924	-0.011084	-0.940186	0.230957	-0.680176	0.056536	0.019902	0.079221	0.939511	0.056100	-0.303291	-0.148953	13.591286	-33.585320	-22.136811
01788		5.647481	1.874106	7.813380	0.233361	-0.111590	0.005067	0.011070	-0.037948	-0.009889	-0.943604	0.225098	-0.670410	0.056461	0.018734	0.078146	0.939450	0.056114	-0.303470	-0.148966	13.600303	-33.605533	-22.144993
01789		5.826117	2.010739	7.800240	0.409247	-0.037808	0.120165	0.005838	-0.029554	-0.016530	-0.942871	0.232666	-0.668701	0.058251	0.020100	0.078012	0.939398	0.056121	-0.303603	-0.149017	13.608125	-33.620031	-22.156271
01790		5.511131	1.881014	7.882006	0.083776	-0.063404	-0.013414	0.007306	-0.026399	-0.015115	-0.942139	0.221680	-0.663086	0.055102	0.018803	0.078828	0.939352	0.056134	-0.303724	-0.149058	13.615895	-33.633113	-22.166088
01791		5.555371	1.923384	7.869828	0.132878	-0.037210	0.009568	0.009835	-0.027810	-0.015696	-0.953857	0.232178	-0.674805	0.055544	0.019226	0.078707	0.939303	0.056160	-0.303852	-0.149098	13.625551	-33.646750	-22.176534
01792		5.403400	1.884689	7.883688	-0.004937	-0.026617	-0.070994	0.009701	-0.034449	-0.013502	-0.947510	0.224121	-0.665771	0.054022	0.018839	0.078847	0.939245	0.056175	-0.304012	-0.149130	13.634828	-33.664532	-22.186587
01793		5.332017	1.822038	8.012536	-0.154788	-0.065703	-0.018675	0.011374	-0.042415	-0.016478	-0.949219	0.227783	-0.667480	0.053305	0.018211	0.080138	0.939172	0.056199	-0.304210	-0.149176	13.646981	-33.686192	-22.199938
01794		5.389835	1.860741	8.031291	-0.116233	-0.047896	0.036095	0.016324	-0.048552	-0.023211	-0.950684	0.229004	-0.669678	0.053881	0.018595	0.080328	0.939084	0.056250	-0.304439	-0.149247	13.664943	-33.710507	-22.218795
01795		5.448361	1.859680	7.839203	0.036537	-0.065441	-0.086921	0.018482	-0.054355	-0.028305	-0.957764	0.220215	-0.672363	0.054465	0.018582	0.078409	0.938982	0.056315	-0.304694	-0.149341	13.686666	-33.737205	-22.242030
01796		5.604933	1.955646	7.789823	0.204074	-0.024761	-0.020910	0.027628	-0.057663	-0.041934	-0.959473	0.218994	-0.666260	0.056031	0.019534	0.077917	0.938862	0.056441	-0.304969	-0.149485	13.718928	-33.764037	-22.274944
01797		5.637637	2.026558	7.821222	0.222009	0.029847	0.036740	0.017217	-0.065292	-0.035207	-0.960938	0.223389	-0.669922	0.056354	0.020249	0.078232	0.938739	0.056503	-0.305273	-0.149617	13.743535	-33.795866	-22.304637
01798		5.662436	1.976014	7.802042	0.233395	-0.027137	0.025222	0.021081	-0.066856	-0.039949	-0.968018	0.223877	-0.664795	0.056602	0.019741	0.078041	0.938608	0.056589	-0.305587	-0.149764	13.772207	-33.828062	-22.337784
01799		5.785275	1.981807	7.715281	0.373784	-0.061266	0.024947	0.026420	-0.065265	-0.043280	-0.958008	0.224854	-0.674316	0.057832	0.019795	0.077174	0.938476	0.056706	-0.305895	-0.149919	13.805159	-33.858748	-22.372942
01800		5.804193	2.079415	7.792424	0.360534	0.021778	0.117269	0.021888	-0.056964	-0.045328	-0.961914	0.217285	-0.666016	0.058024	0.020772	0.077943	0.938356	0.056811	-0.306161	-0.150088	13.835461	-33.884680	-22.408129
01801		5.602061	2.002953	7.838633	0.153522	0.010425	0.026794	0.019395	-0.055548	-0.038078	-0.967285	0.221680	-0.665283	0.056003	0.020011	0.078404	0.938244	0.056895	-0.306420	-0.150227	13.861609	-33.910644	-22.438256
01802		5.654653	2.019558	7.855257	0.182656	0.007475	0.072926	0.019187	-0.053301	-0.038121	-0.957520	0.232422	-0.663086	0.056529	0.020177	0.078570	0.938135	0.056979	-0.306669	-0.150365	13.887387	-33.935506	-22.468057
01803		5.601207	2.029741	7.986795	0.061091	0.030818	0.151126	0.011837	-0.051316	-0.029652	-0.973633	0.227783	-0.662598	0.055995	0.020284	0.079884	0.938038	0.057017	-0.306905	-0.150474	13.905704	-33.960254	-22.491876
01804		5.476185	1.990833	7.878860	0.014940	0.034528	-0.013349	0.010102	-0.046669	-0.025577	-0.963623	0.221436	-0.666016	0.054746	0.019897	0.078802	0.937952	0.057044	-0.307120	-0.150565	13.921004	-33.983141	-22.512202
01805		5.811785	2.096384	7.797936	0.341150	0.028645	0.130263	0.013344	-0.057022	-0.026005	-0.973633	0.227295	-0.656738	0.058098	0.020951	0.077997	0.937848	0.057080	-0.307384	-0.150657	13.939383	-34.011554	-22.534555
01806		5.894089	2.186500	7.663630	0.500743	0.089786	0.086479	0.006190	-0.057278	-0.017489	-0.963867	0.223145	-0.664795	0.058921	0.021857	0.076654	0.937752	0.057068	-0.307648	-0.150719	13.950428	-34.041450	-22.551250
01807		5.649640	2.087729	7.799757	0.203136	0.072707	0.039556	-0.000041	-0.056540	-0.012110	-0.961670	0.228516	-0.665039	0.056476	0.020874	0.078014	0.937664	0.057020	-0.307904	-0.150766	13.955906	-34.071508	-22.564226
01808		5.844742	2.045929	7.772523	0.352913	-0.027095	0.118760	-0.001039	-0.060846	-0.007871	-0.970947	0.222656	-0.665527	0.058425	0.020457	0.077743	0.937572	0.056957	-0.308182	-0.150796	13.959557	-34.104720	-22.575081
01809		5.896393	2.040695	7.656374	0.454566	-0.045445	0.053581	0.002564	-0.063484	-0.011564	-0.966797	0.224609	-0.647217	0.058941	0.020403	0.076583	0.937472	0.056915	-0.308472	-0.150838	13.966992	-34.138713	-22.588867
01810		5.664880	2.038060	7.819239	0.174307	0.024518	0.054129	0.003278	-0.060244	-0.014746	-0.970215	0.220459	-0.657959	0.056627	0.020375	0.078210	0.937374	0.056883	-0.308749	-0.150892	13.975678	-34.170645	-22.604261
01811		5.444678	1.881735	7.995338	-0.142859	-0.054827	0.040609	-0.000783	-0.056436	-0.010034	-0.973389	0.220215	-0.657715	0.054425	0.018815	0.079969	0.937287	0.056829	-0.309004	-0.150930	13.979981	-34.200928	-22.615860
01812		5.655035	1.941278	7.863028	0.106204	-0.062139	0.064562	0.000049	-0.058749	-0.012076	-0.971924	0.219238	-0.656250	0.056528	0.019409	0.078647	0.937194	0.056779	-0.309272	-0.150977	13.985691	-34.232395	-22.629227
01813		5.700391	2.012915	7.740779	0.226314	-0.005865	0.006411	0.001950	-0.056750	-0.011693	-0.986816	0.227783	-0.646973	0.056983	0.020125	0.077424	0.937105	0.056739	-0.309530	-0.151019	13.992236	-34.262621	-22.642010
01814		5.667807	1.996549	7.749727	0.186992	-0.010108	-0.007921	0.002423	-0.054589	-0.013815	-0.976563	0.220703	-0.650146	0.056658	0.019961	0.077513	0.937016	0.056706	-0.309780	-0.151069	13.999595	-34.291536	-22.655868
01815		5.741216	2.056977	7.745647	0.255278	0.024826	0.042361	0.002340	-0.057898	-0.012716	-0.988525	0.218018	-0.650879	0.057391	0.020565	0.077473	0.936924	0.056669	-0.310043	-0.151115	14.006881	-34.322255	-22.669550
01816		5.750680	2.081273	7.743486	0.264853	0.046270	0.050948	-0.004226	-0.052692	-0.007400	-0.971191	0.216553	-0.643799	0.057487	0.020812	0.077450	0.936845	0.056597	-0.310281	-0.151145	14.007839	-34.351007	-22.678788
01817		5.831782	2.090636	7.692612	0.354898	0.031990	0.057963	-0.008335	-0.052203	-0.001579	-0.981445	0.221191	-0.656982	0.058298	0.020909	0.076940	0.936772	0.056497	-0.310513	-0.151154	14.004253	-34.380103	-22.684025
01818		5.776526	2.099557	7.770875	0.264111	0.059946	0.091329	-0.012869	-0.045006	0.010789	-0.987549	0.217285	-0.641602	0.057747	0.021004	0.077720	0.936721	0.056361	-0.310713	-0.151110	13.992620	-34.407110	-22.679720
01819		5.763863	2.026506	7.765729	0.236073	-0.001929	0.065554	-0.013652	-0.039374	0.011731	-0.980225	0.224854	-0.654053	0.057622	0.020274	0.077667	0.936680	0.056225	-0.310885	-0.151061	13.979699	-34.430919	-22.673824
01820		5.717269	2.033425	7.822258	0.165577	0.022230	0.085888	-0.015342	-0.034739	0.015815	-0.988037	0.218750	-0.645020	0.057157	0.020345	0.078231	0.936650	0.056078	-0.311036	-0.150994	13.963749	-34.452914	-22.664392
01821		5.638382	1.975998	7.789700	0.108179	-0.003176	0.003811	-0.017274	-0.036728	0.015433	-0.988525	0.225586	-0.646240	0.056368	0.019771	0.077906	0.936617	0.055922	-0.311194	-0.150933	13.947075	-34.475761	-22.655537
01822		5.929272	2.066259	7.610756	0.456510	-0.004407	0.043319	-0.015359	-0.034733	0.015814	-0.989258	0.222168	-0.647461	0.059278	0.020673	0.076116	0.936586	0.055774	-0.311345	-0.150866	13.931100	-34.497750	-22.646085
01823		5.851174	2.079151	7.680990	0.355961	0.035683	0.057912	-0.021660	-0.028455	0.020082	-0.991699	0.221924	-0.644531	0.058499	0.020806	0.076816	0.936570	0.055596	-0.311462	-0.150788	13.909333	-34.516633	-22.632687
01824		5.690911	2.036157	7.720783	0.197787	0.049760	-0.009561	-0.025760	-0.027966	0.025908	-0.986816	0.224854	-0.645020	0.056896	0.020379	0.077213	0.936560	0.055390	-0.311577	-0.150688	13.882881	-34.536249	-22.615268
01825		5.909683	2.060516	7.674622	0.396187	0.008815	0.082406	-0.022900	-0.028290	0.030910	-0.994873	0.230957	-0.635986	0.059083	0.020623	0.076752	0.936553	0.055189	-0.311695	-0.150560	13.856218	-34.556517	-22.594503
01826		5.794790	2.054853	7.757825	0.256115	0.044028	0.082682	-0.029728	-0.020848	0.029540	-0.990723	0.227295	-0.635742	0.057937	0.020569	0.077581	0.936558	0.054964	-0.311774	-0.150448	13.825406	-34.572662	-22.573416
01827		5.800876	1.946804	7.816724	0.197693	-0.055419	0.111990	-0.033907	-0.023670	0.036464	-0.991699	0.220703	-0.637207	0.057996	0.019492	0.078171	0.936566	0.054706	-0.311864	-0.150310	13.789840	-34.591101	-22.548095
01828		5.603728	1.885454	7.869451	0.000028	-0.046276	0.030220	-0.028734	-0.019848	0.033062	-0.986084	0.219482	-0.636475	0.056026	0.018875	0.078697	0.936574	0.054481	-0.311940	-0.150179	13.758125	-34.607154	-22.524430
01829		5.813100	1.888640	7.768079	0.219827	-0.103447	0.068766	-0.023292	-0.023809	0.030828	-0.991211	0.222656	-0.640869	0.058119	0.018904	0.077686	0.936574	0.054282	-0.312037	-0.150052	13.730788	-34.624880	-22.502909
01830		5.668169	1.938421	7.889820	0.048185	-0.006858	0.093498	-0.026174	-0.009074	0.029134	-1.000732	0.227051	-0.634033	0.056675	0.019403	0.078898	0.936596	0.054082	-0.312064	-0.149932	13.701011	-34.634384	-22.480094
01831		5.708531	1.856680	7.750994	0.141912	-0.091526	-0.010444	-0.023990	-0.014865	0.030681	-0.996582	0.220459	-0.633057	0.057077	0.018585	0.077512	0.936610	0.053887	-0.312118	-0.149804	13.672468	-34.647093	-22.457170
01832		6.114798	2.069253	7.561822	0.616632	-0.011592	0.110686	-0.023006	-0.010554	0.026445	-0.995850	0.223145	-0.629150	0.061141	0.020709	0.075619	0.936626	0.053706	-0.312153	-0.149692	13.645662	-34.657041	-22.436402
01833		5.614004	1.894377	7.814499	0.041121	-0.017884	-0.006053	-0.026535	-0.004597	0.029063	-1.002441	0.229980	-0.621338	0.056135	0.018962	0.078144	0.936655	0.053509	-0.312157	-0.149573	13.615309	-34.663795	-22.412867
01834		5.816495	1.873938	7.712851	0.251499	-0.095822	0.023922	-0.021922	-0.006248	0.028873	-0.997314	0.229980	-0.617188	0.058160	0.018756	0.077128	0.936680	0.053332	-0.312174	-0.149447	13.587777	-34.671661	-22.389735
01835		5.730980	1.962879	7.779111	0.169341	0.018885	0.045435	-0.021686	0.003690	0.025593	-1.002686	0.222656	-0.627930	0.057309	0.019645	0.077788	0.936718	0.053169	-0.312141	-0.149334	13.560756	-34.673314	-22.367184
01836		5.841474	1.888978	7.669510	0.301837	-0.081346	0.006412	-0.021855	-0.002933	0.027778	-1.004883	0.224121	-0.625000	0.058411	0.018906	0.076694	0.936747	0.052997	-0.312142	-0.149212	13.533369	-34.679172	-22.344241
01837		5.737525	1.958838	7.703063	0.220760	0.020860	-0.012471	-0.018428	0.005519	0.021811	-1.005859	0.226074	-0.629150	0.057375	0.019602	0.077027	0.936784	0.052856	-0.312103	-0.149111	13.509499	-34.679283	-22.323950
01838		5.970247	1.954127	7.666404	0.419571	-0.052874	0.089705	-0.016246	-0.000276	0.023354	-1.002441	0.223633	-0.620117	0.059700	0.019554	0.076663	0.936812	0.052719	-0.312094	-0.149001	13.486781	-34.683058	-22.303566
01839		5.585688	1.882715	7.830270	0.012089	0.001646	-0.011794	-0.020955	0.006929	0.022417	-1.005859	0.223145	-0.623535	0.055857	0.018842	0.078299	0.936852	0.052567	-0.312046	-0.148901	13.461098	-34.682450	-22.282634
01840		5.590822	1.824694	7.914976	-0.047809	-0.052318	0.047771	-0.018441	0.005523	0.021810	-1.005127	0.224854	-0.621094	0.055908	0.018260	0.079147	0.936889	0.052426	-0.312008	-0.148800	13.437182	-34.682776	-22.262353
01841		5.695574	1.828405	7.799394	0.103125	-0.077898	0.015663	-0.014255	-0.000513	0.017105	-1.005371	0.229736	-0.610352	0.056954	0.018294	0.077993	0.936912	0.052309	-0.311999	-0.148716	13.418071	-34.685596	-22.246226
01842		5.937811	1.902187	7.657109	0.391692	-0.079957	0.053792	-0.014521	0.001733	0.010407	-1.009521	0.233643	-0.614990	0.059378	0.019031	0.076569	0.936933	0.052201	-0.311979	-0.148663	13.401145	-34.686508	-22.234285
01843		5.730670	1.894201	7.758219	0.172245	-0.021734	0.015252	-0.007409	0.005315	0.007389	-1.009766	0.223389	-0.614990	0.057308	0.018947	0.077580	0.936956	0.052135	-0.311945	-0.148612	13.389167	-34.684782	-22.223801
01844		6.002135	1.913797	7.577575	0.492405	-0.085171	0.028968	-0.004607	-0.006095	0.005730	-1.004639	0.225586	-0.616211	0.060018	0.019141	0.075777	0.936959	0.052075	-0.311967	-0.148568	13.380446	-34.689438	-22.216294
01845		5.578960	1.922260	7.879653	-0.008650	0.054526	0.031385	-0.010758	0.002393	0.005617	-1.011963	0.228760	-0.617432	0.055790	0.019228	0.078795	0.936977	0.051994	-0.311944	-0.148532	13.367501	-34.689103	-22.207482
01846		5.448587	1.744248	8.019825	-0.235468	-0.072987	0.035476	-0.009143	-0.005554	0.009260	-1.006836	0.230713	-0.618652	0.054483	0.017449	0.080199	0.936984	0.051908	-0.311962	-0.148478	13.354769	-34.693927	-22.197493
01847		5.837944	1.866106	7.749885	0.252761	-0.075374	0.064311	-0.003856	-0.005077	0.000341	-1.010986	0.225586	-0.607422	0.058377	0.018663	0.077500	0.936985	0.051862	-0.311977	-0.148457	13.348498	-34.697055	-22.193460
01848		5.763379	1.883599	7.744626	0.203205	-0.034601	0.020990	-0.003941	-0.006174	-0.002998	-1.003906	0.229736	-0.606689	0.057632	0.018837	0.077448	0.936981	0.051819	-0.311999	-0.148453	13.343530	-34.700600	-22.191879
01849		5.745477	1.885882	7.789412	0.162824	-0.026416	0.047069	0.002113	-0.008005	-0.002904	-1.012451	0.225342	-0.608643	0.057452	0.018857	0.077897	0.936973	0.051803	-0.312031	-0.148439	13.342200	-34.704931	-22.190517
01850		5.892932	1.933301	7.661567	0.362603	-0.026139	0.037782	0.001109	-0.012314	-0.007534	-1.015381	0.224609	-0.613281	0.058925	0.019330	0.076619	0.936955	0.051787	-0.312084	-0.148449	13.342441	-34.711304	-22.193000
01851		5.780094	1.928935	7.799356	0.191769	0.004395	0.082940	0.002459	-0.015797	-0.010589	-1.010498	0.225342	-0.605225	0.057796	0.019285	0.077998	0.936929	0.051779	-0.312151	-0.148473	13.344990	-34.718962	-22.198104
01852		5.491286	1.789278	7.951318	-0.154757	-0.039097	0.013488	0.001529	-0.011256	-0.008558	-1.009033	0.223877	-0.598145	0.054909	0.017890	0.079516	0.936912	0.051767	-0.312199	-0.148487	13.345774	-34.724614	-22.201113
01853		5.853583	1.894734	7.670010	0.314271	-0.050109	0.014938	0.004997	-0.022744	-0.014517	-1.011963	0.225098	-0.597168	0.058528	0.018941	0.076707	0.936871	0.051772	-0.312300	-0.148527	13.351934	-34.735625	-22.210001
01854		5.853559	2.048461	7.634197	0.371418	0.096080	0.015544	0.006937	-0.022975	-0.011917	-1.011475	0.223389	-0.600830	0.058528	0.020478	0.076349	0.936832	0.051781	-0.312406	-0.148552	13.358192	-34.747366	-22.217178
01855		5.895495	1.941528	7.601225	0.394263	-0.018550	-0.007116	0.008895	-0.030959	-0.012637	-1.016113	0.226563	-0.598877	0.058944	0.019408	0.076022	0.936779	0.051796	-0.312548	-0.148579	13.366620	-34.763204	-22.226120
01856		5.714121	1.900400	7.817202	0.113646	-0.002450	0.054350	0.010155	-0.025571	-0.015709	-1.026367	0.221191	-0.598389	0.057133	0.018996	0.078180	0.936732	0.051824	-0.312668	-0.148617	13.376441	-34.775895	-22.236297
01857		5.301972	1.709096	8.105251	-0.422644	-0.057863	0.013046	0.011930	-0.029104	-0.016464	-1.021729	0.228760	-0.595459	0.053009	0.017082	0.081061	0.936678	0.051861	-0.312803	-0.148657	13.387927	-34.790189	-22.247547
01858		5.459890	1.778586	8.031269	-0.244238	-0.041211	0.057151	0.013334	-0.034806	-0.019508	-1.016357	0.221436	-0.592285	0.054587	0.017775	0.080323	0.936612	0.051903	-0.312967	-0.148710	13.401900	-34.807515	-22.261804
01859		5.557695	1.867270	7.852410	-0.044203	0.012467	-0.013050	0.018774	-0.038772	-0.021754	-1.017334	0.218262	-0.590820	0.055564	0.018659	0.078537	0.936538	0.051972	-0.313152	-0.148766	13.420265	-34.826490	-22.278223
01860		5.946967	1.944295	7.553726	0.445509	-0.035158	-0.014435	0.019248	-0.054325	-0.019440	-1.020996	0.221436	-0.584229	0.059451	0.019430	0.075555	0.936440	0.052028	-0.313411	-0.148815	13.439426	-34.854692	-22.295619
01861		5.985418	2.037731	7.586167	0.472773	0.040594	0.051508	0.020392	-0.052245	-0.023642	-1.018066	0.210205	-0.580322	0.059837	0.020363	0.075879	0.936343	0.052098	-0.313659	-0.148881	13.460728	-34.880914	-22.315534
01862		5.616023	1.818440	7.759155	0.028500	-0.054729	-0.063476	0.024539	-0.058269	-0.028356	-1.020508	0.213379	-0.588867	0.056140	0.018167	0.077610	0.936231	0.052189	-0.313939	-0.148964	13.486794	-34.910121	-22.339668
01863		5.607598	1.769516	7.884515	-0.071864	-0.101093	0.022277	0.031938	-0.062465	-0.036860	-1.022217	0.221680	-0.573730	0.056055	0.017672	0.078865	0.936104	0.052326	-0.314240	-0.149077	13.520851	-34.940253	-22.370276
01864		5.831101	1.956454	7.722208	0.234602	0.004779	0.056805	0.036065	-0.068483	-0.041576	-1.021484	0.217285	-0.571777	0.058289	0.019538	0.077246	0.935963	0.052484	-0.314573	-0.149207	13.559679	-34.973353	-22.405126
01865		5.678584	1.945803	7.760468	0.085775	0.039293	-0.002059	0.032969	-0.074754	-0.044385	-1.020020	0.219727	-0.572510	0.056761	0.019433	0.077629	0.935811	0.052629	-0.314930	-0.149356	13.598488	-35.009283	-22.442941
01866		5.824590	1.995757	7.703998	0.234510	0.038965	0.046520	0.030320	-0.085495	-0.040458	-1.025635	0.214111	-0.556641	0.058217	0.019934	0.077068	0.935645	0.052746	-0.315338	-0.149494	13.635286	-35.051971	-22.479918
01867		5.801846	2.076944	7.814573	0.161412	0.121143	0.137284	0.025622	-0.090456	-0.031403	-1.022949	0.206543	-0.570068	0.057986	0.020750	0.078175	0.935479	0.052824	-0.315767	-0.149598	13.666400	-35.098360	-22.511590
01868		5.637325	1.840970	7.884113	-0.072521	-0.052549	0.052393	0.020245	-0.094247	-0.034650	-1.025879	0.217285	-0.564209	0.056339	0.018392	0.078870	0.935306	0.052878	-0.316210	-0.149727	13.696095	-35.146675	-22.546166
01869		5.995828	1.921239	7.725007	0.305357	-0.089351	0.148016	0.023951	-0.092476	-0.047203	-1.018311	0.206543	-0.558838	0.059927	0.019189	0.077280	0.935125	0.052971	-0.316642	-0.149908	13.732742	-35.192014	-22.589032
01870		6.039930	2.053975	7.438219	0.536252	0.022238	-0.028077	0.025417	-0.098160	-0.043585	-1.024170	0.209473	-0.567627	0.060367	0.020517	0.074414	0.934937	0.053061	-0.317105	-0.150071	13.769397	-35.241258	-22.630458
01871		6.136238	2.085623	7.492424	0.574224	0.020049	0.077182	0.026331	-0.091615	-0.041201	-1.028564	0.208252	-0.559814	0.061332	0.020834	0.074955	0.934761	0.053156	-0.317536	-0.150220	13.805091	-35.286893	-22.669210
01872		5.989784	1.970175	7.590116	0.366912	-0.045530	0.047955	0.023456	-0.085741	-0.040655	-1.022949	0.202637	-0.553467	0.059869	0.019681	0.075929	0.934595	0.053242	-0.317940	-0.150370	13.838395	-35.329596	-22.706679
01873		5.887891	1.971551	7.647748	0.247103	-0.014371	0.035209	0.028675	-0.078606	-0.045190	-1.035156	0.199707	-0.545166	0.058853	0.019691	0.076503	0.934436	0.053364	-0.318311	-0.150530	13.875849	-35.367409	-22.746072
01874		5.811037	1.942437	7.691371	0.147986	-0.019950	0.019713	0.019760	-0.068711	-0.040283	-1.016113	0.202881	-0.547119	0.058088	0.019405	0.076936	0.934298	0.053444	-0.318633	-0.150679	13.905325	-35.400660	-22.780513
01875		5.884308	2.005714	7.685215	0.216255	0.015323	0.069797	0.017894	-0.056322	-0.037349	-1.030762	0.208984	-0.552002	0.058825	0.020039	0.076871	0.934183	0.053521	-0.318894	-0.150814	13.931401	-35.427126	-22.810868
01876		5.851530	1.991985	7.694457	0.176915	0.010945	0.055526	0.022728	-0.054651	-0.032005	-1.021973	0.200439	-0.539307	0.058497	0.019902	0.076963	0.934072	0.053612	-0.319154	-0.150916	13.957986	-35.453678	-22.837339
01877		5.666120	1.958362	7.803092	-0.042170	0.035860	0.027296	0.012789	-0.045763	-0.030605	-1.029297	0.207520	-0.533691	0.056646	0.019570	0.078045	0.933980	0.053662	-0.319364	-0.151025	13.977475	-35.475184	-22.861344
01878		6.115331	1.972423	7.501027	0.478603	-0.093213	0.052169	0.020673	-0.051093	-0.033508	-1.034424	0.201172	-0.531738	0.061137	0.019706	0.075028	0.933874	0.053749	-0.319606	-0.151136	14.003170	-35.499533	-22.888279
01879		5.919533	2.018662	7.549098	0.308544	0.010883	-0.014247	0.017669	-0.051843	-0.030760	-1.025879	0.199219	-0.532959	0.059179	0.020171	0.075508	0.933771	0.053817	-0.319847	-0.151239	14.026155	-35.524381	-22.913462
01880		5.974088	2.083727	7.588928	0.336193	0.053799	0.061904	0.016938	-0.046227	-0.029807	-1.036621	0.192871	-0.532227	0.059726	0.020822	0.075905	0.933677	0.053885	-0.320064	-0.151337	14.047803	-35.546529	-22.937079
01881		5.795629	1.999705	7.650901	0.138928	0.029332	-0.009410	0.015402	-0.047139	-0.024569	-1.042725	0.197510	-0.526367	0.057941	0.019984	0.076524	0.933586	0.053936	-0.320284	-0.151414	14.066599	-35.569610	-22.957264
01882		5.820843	1.996603	7.656835	0.148911	0.017883	0.009393	0.007412	-0.045108	-0.020563	-1.027832	0.191406	-0.531006	0.058193	0.019957	0.076582	0.933503	0.053945	-0.320491	-0.151484	14.079039	-35.592415	-22.974404
01883		5.667041	1.950029	7.883915	-0.121814	0.021722	0.089775	0.008777	-0.048565	-0.016977	-1.030762	0.193604	-0.523926	0.056653	0.019492	0.078854	0.933418	0.053952	-0.320714	-0.151536	14.091190	-35.617338	-22.989671
01884		5.875870	1.959563	7.776137	0.098093	-0.034854	0.128299	0.010057	-0.055323	-0.012293	-1.041504	0.191650	-0.520752	0.058738	0.019588	0.077779	0.933324	0.053952	-0.320973	-0.151566	14.102899	-35.646967	-23.002933
01885		5.849635	1.999146	7.601490	0.190020	0.012114	-0.016709	0.011056	-0.065380	-0.013176	-1.041748	0.198730	-0.522949	0.058473	0.019983	0.076035	0.933213	0.053951	-0.321278	-0.151602	14.116553	-35.681761	-23.018516
01886		6.012949	2.066243	7.576280	0.337691	0.024576	0.072164	0.011496	-0.072054	-0.013068	-1.040527	0.198975	-0.516602	0.060104	0.020654	0.075786	0.933091	0.053947	-0.321616	-0.151638	14.131108	-35.720574	-23.035218
01887		6.030421	2.041971	7.525177	0.369089	-0.003289	0.037575	0.013045	-0.076656	-0.017178	-1.037109	0.195801	-0.508545	0.060277	0.020410	0.075276	0.932959	0.053953	-0.321973	-0.151692	14.148676	-35.761065	-23.055522
01888		5.946886	1.979977	7.776499	0.127844	-0.035620	0.174409	0.018878	-0.093858	-0.010497	-1.038574	0.187744	-0.507080	0.059433	0.019789	0.077795	0.932801	0.053962	-0.322419	-0.151709	14.168685	-35.812351	-23.074279
01889		5.671349	1.888773	7.954911	-0.220173	-0.034174	0.135308	0.018451	-0.100443	-0.014966	-1.037109	0.190186	-0.495361	0.056675	0.018876	0.079579	0.932631	0.053972	-0.322892	-0.151751	14.190938	-35.866355	-23.097246
01890		5.663877	1.819839	7.945839	-0.248121	-0.096221	0.109855	0.017836	-0.121373	-0.022728	-1.041260	0.187500	-0.488525	0.056593	0.018185	0.079494	0.932419	0.053975	-0.323462	-0.151834	14.218142	-35.931189	-23.129242
01891		5.806221	1.823397	7.805145	-0.067036	-0.137473	0.083466	0.031517	-0.141721	-0.034450	-1.039551	0.188232	-0.490967	0.058010	0.018212	0.078095	0.932163	0.054046	-0.324131	-0.151956	14.260059	-36.005352	-23.172872
01892		6.178627	1.906703	7.535681	0.382163	-0.176934	0.108001	0.033037	-0.172834	-0.047277	-1.043213	0.186279	-0.484131	0.061726	0.019040	0.075413	0.931844	0.054120	-0.324946	-0.152144	14.311357	-36.095249	-23.230899
01893		5.912732	2.016673	7.753262	0.058655	0.011225	0.144061	0.023142	-0.194924	-0.061132	-1.040527	0.188721	-0.480225	0.059058	0.020140	0.077593	0.931482	0.054155	-0.325849	-0.152418	14.365069	-36.195098	-23.302477
01894		5.948229	1.969224	7.724107	0.070206	-0.045774	0.132866	0.052163	-0.231252	-0.062240	-1.034912	0.183838	-0.474365	0.059399	0.019654	0.077315	0.931050	0.054298	-0.326945	-0.152659	14.439913	-36.315189	-23.381504
01895		5.927848	2.133296	7.764277	0.046048	0.115673	0.185251	0.051393	-0.263025	-0.045643	-1.041992	0.189209	-0.468262	0.059181	0.021299	0.077726	0.930578	0.054387	-0.328191	-0.152833	14.511215	-36.454898	-23.455041
01896		5.835280	2.063524	7.787279	-0.081645	0.080264	0.134029	0.052720	-0.290636	-0.037496	-1.049805	0.184082	-0.467041	0.058243	0.020604	0.077963	0.930064	0.054447	-0.329570	-0.152974	14.583246	-36.611323	-23.528286
01897		5.899154	2.111020	7.755368	-0.032591	0.106815	0.156746	0.054151	-0.311631	-0.031557	-1.045410	0.183838	-0.454346	0.058874	0.021080	0.077651	0.929518	0.054488	-0.331045	-0.153091	14.656306	-36.779867	-23.601584
01898		5.724677	2.009618	7.773316	-0.228833	0.069526	0.045185	0.063164	-0.326775	-0.015473	-1.049072	0.181885	-0.444092	0.057121	0.020067	0.077833	0.928953	0.054532	-0.332605	-0.153121	14.729945	-36.959368	-23.666956
01899		6.302288	2.152549	7.423134	0.418375	0.022506	0.151226	0.062999	-0.343221	-0.020844	-1.051270	0.176758	-0.437256	0.062898	0.021496	0.074346	0.928356	0.054572	-0.334235	-0.153181	14.807981	-37.146825	-23.739492
01900		6.315142	2.163848	7.291489	0.479964	0.032045	0.061399	0.062902	-0.351914	-0.020732	-1.046875	0.181641	-0.435547	0.063025	0.021609	0.073033	0.927740	0.054604	-0.335907	-0.153242	14.887395	-37.339336	-23.814090
01901		5.995968	1.989567	7.520177	0.023796	-0.026828	0.008803	0.064794	-0.348666	-0.014852	-1.047119	0.186279	-0.432861	0.059830	0.019867	0.075313	0.927132	0.054638	-0.337564	-0.153271	14.965538	-37.530532	-23.884477
01902		5.823736	1.860234	7.669864	-0.263521	-0.090161	-0.008325	0.066153	-0.346504	-0.014567	-1.047363	0.185059	-0.425781	0.058106	0.018573	0.076806	0.926523	0.054678	-0.339213	-0.153296	15.044606	-37.720803	-23.954804
01903		6.074896	1.946381	7.436719	0.055850	-0.087023	-0.015404	0.070575	-0.341477	-0.025901	-1.050781	0.183105	-0.411133	0.060624	0.019430	0.074478	0.925911	0.054763	-0.340836	-0.153364	15.130980	-37.906217	-24.032611
01904		6.417468	2.062993	7.180464	0.464011	-0.085744	0.024800	0.073371	-0.332935	-0.032045	-1.049316	0.184326	-0.408691	0.064058	0.020593	0.071919	0.925305	0.054876	-0.342421	-0.153452	15.221160	-38.086193	-24.113692
01905		6.402702	2.078318	7.195892	0.413797	-0.065490	0.032070	0.078487	-0.334541	-0.036617	-1.057129	0.177002	-0.399170	0.063910	0.020743	0.072074	0.924689	0.055021	-0.344013	-0.153554	15.316988	-38.265961	-24.198834
01906		6.127370	2.024537	7.310171	0.095938	-0.026887	-0.062200	0.079937	-0.321427	-0.038645	-1.059814	0.182373	-0.392090	0.061160	0.020204	0.073208	0.924090	0.055185	-0.345546	-0.153657	15.413549	-38.438374	-24.283493
01907		6.523635	2.154738	7.043594	0.553496	-0.032534	0.011030	0.077819	-0.322311	-0.048815	-1.050781	0.178467	-0.388672	0.065128	0.021504	0.070549	0.923480	0.055356	-0.347076	-0.153812	15.514016	-38.609296	-24.376047
01908		6.274122	2.219415	7.238684	0.231418	0.109923	0.017024	0.078331	-0.315562	-0.037755	-1.046875	0.176514	-0.386719	0.062631	0.022154	0.072494	0.922888	0.055515	-0.348579	-0.153912	15.609665	-38.778385	-24.460082
01909		6.122257	2.037497	7.455522	-0.095404	-0.011753	0.046771	0.077499	-0.305413	-0.030256	-1.047852	0.174805	-0.378418	0.061112	0.020337	0.074656	0.922317	0.055666	-0.350034	-0.153976	15.700751	-38.942611	-24.537301
01910		6.174776	2.113839	7.389263	-0.026620	0.043996	0.046047	0.076641	-0.309608	-0.028089	-1.047852	0.182861	-0.365967	0.061636	0.021101	0.073996	0.921738	0.055804	-0.351509	-0.154032	15.791431	-39.109708	-24.614376
01911		6.427007	2.172862	7.180740	0.272968	0.018102	0.062324	0.078508	-0.316312	-0.027656	-1.053955	0.175293	-0.371338	0.064159	0.021692	0.071917	0.921146	0.055946	-0.353013	-0.154084	15.884325	-39.280156	-24.692987
01912		6.590494	2.300986	6.964439	0.531502	0.085950	0.033255	0.082898	-0.321111	-0.029051	-1.040771	0.181152	-0.351074	0.065796	0.022971	0.069760	0.920539	0.056106	-0.354545	-0.154136	15.981551	-39.453244	-24.774167
01913		6.738900	2.231352	6.984210	0.572147	-0.027355	0.129279	0.083960	-0.334365	-0.033037	-1.046387	0.176025	-0.351318	0.067276	0.022273	0.069964	0.919904	0.056269	-0.356133	-0.154208	16.083470	-39.632573	-24.861467
01914		6.163874	2.142698	7.296302	-0.094985	0.077474	-0.024664	0.082451	-0.336371	-0.037562	-1.048584	0.175781	-0.337891	0.061520	0.021385	0.073075	0.919258	0.056430	-0.357730	-0.154303	16.187522	-39.812492	-24.953112
01915		6.501940	2.108458	7.241955	0.134299	-0.064217	0.144444	0.081088	-0.350442	-0.040783	-1.046387	0.182861	-0.335205	0.064897	0.021042	0.072542	0.918584	0.056580	-0.359385	-0.154419	16.294780	-39.999178	-25.050636
01916		6.320009	2.136367	7.308435	-0.065612	0.022439	0.082508	0.080453	-0.350278	-0.040809	-1.052246	0.177246	-0.335938	0.063076	0.021321	0.073203	0.917905	0.056727	-0.361041	-0.154536	16.402415	-40.185954	-25.148917
01917		6.480103	2.140462	7.094381	0.156063	-0.026273	0.029995	0.078161	-0.363095	-0.040869	-1.048584	0.186279	-0.329346	0.064676	0.021364	0.071070	0.917202	0.056853	-0.362750	-0.154660	16.511214	-40.379296	-25.250658
01918		6.613303	2.250661	7.041851	0.273124	0.035289	0.102601	0.086912	-0.381465	-0.041417	-1.044678	0.182129	-0.319336	0.066003	0.022462	0.070554	0.916459	0.057006	-0.364551	-0.154775	16.628676	-40.582808	-25.357590
01919		6.552202	2.253244	7.041092	0.193828	0.058650	0.063765	0.082701	-0.387529	-0.044023	-1.045898	0.173828	-0.303711	0.065390	0.022489	0.070547	0.915701	0.057140	-0.366372	-0.154912	16.746633	-40.788726	-25.468555
01920		6.563096	2.266134	7.160606	0.082157	0.070096	0.160881	0.086463	-0.408433	-0.033177	-1.049316	0.181641	-0.297363	0.065488	0.022619	0.071750	0.914908	0.057255	-0.368296	-0.154997	16.865554	-41.008061	-25.577200
01921		6.168542	2.166200	7.352762	-0.384325	0.108952	0.018219	0.079296	-0.412871	-0.024139	-1.049316	0.179199	-0.300781	0.061536	0.021625	0.073663	0.914112	0.057316	-0.370233	-0.155054	16.977583	-41.230842	-25.681152
01922		6.523606	2.203510	7.207139	-0.076014	0.030752	0.154702	0.087700	-0.440983	-0.023457	-1.040039	0.178223	-0.284912	0.065080	0.021996	0.072225	0.913257	0.057393	-0.372306	-0.155100	17.099259	-41.469300	-25.791916
01923		6.478702	2.127174	7.110273	-0.102238	-0.023861	0.038364	0.089616	-0.466221	-0.023691	-1.045166	0.185059	-0.286621	0.064624	0.021232	0.071263	0.912350	0.057459	-0.374491	-0.155150	17.226977	-41.721030	-25.909618
01924		6.758221	2.279789	6.853266	0.254994	0.030267	0.075291	0.094572	-0.486387	-0.029072	-1.051514	0.185059	-0.269043	0.067419	0.022756	0.068708	0.911394	0.057541	-0.376771	-0.155220	17.364531	-41.982992	-26.037191
01925		6.718563	2.206254	6.930247	0.106540	-0.021747	0.087965	0.104254	-0.520180	-0.035726	-1.048096	0.190674	-0.275879	0.067009	0.022014	0.069488	0.910361	0.057654	-0.379205	-0.155312	17.517528	-42.261720	-26.178875
01926		6.473331	2.154833	7.129448	-0.262347	0.015960	0.051745	0.107782	-0.535697	-0.036979	-1.037598	0.185303	-0.258789	0.064546	0.021498	0.071479	0.909290	0.057773	-0.381712	-0.155405	17.677324	-42.548741	-26.326849
01927		6.611301	2.091343	6.944526	-0.109266	-0.087868	0.000035	0.115741	-0.563686	-0.038478	-1.038574	0.186035	-0.247314	0.065921	0.020860	0.069643	0.908155	0.057909	-0.384346	-0.155497	17.848691	-42.850132	-26.484363
01928		6.772897	2.199060	6.800338	0.068637	-0.037634	0.033438	0.124529	-0.582029	-0.045549	-1.047363	0.186523	-0.238770	0.067536	0.021933	0.068214	0.906968	0.058083	-0.387068	-0.155608	18.033787	-43.160231	-26.653693
01929		6.807873	2.215060	6.881657	-0.022680	-0.029976	0.117525	0.136371	-0.600558	-0.047876	-1.041504	0.185547	-0.233887	0.067877	0.022087	0.069036	0.905733	0.058300	-0.389877	-0.155710	18.232177	-43.479269	-26.831548
01930		7.038813	2.282622	6.623842	0.267016	-0.043644	0.114900	0.147394	-0.636607	-0.056410	-1.029541	0.194824	-0.235596	0.070183	0.022757	0.066479	0.904407	0.058555	-0.392853	-0.155839	18.450079	-43.816220	-27.027427
01931		6.820038	2.183320	6.827535	-0.110643	-0.059841	0.080686	0.147997	-0.654758	-0.048003	-1.042725	0.195313	-0.218018	0.067982	0.021766	0.068514	0.903043	0.058782	-0.395907	-0.155932	18.669923	-44.163702	-27.224413
01932		6.836101	2.281044	6.865757	-0.173433	0.030795	0.139329	0.163758	-0.688926	-0.051657	-1.041016	0.197021	-0.210449	0.068130	0.022736	0.068911	0.901593	0.059060	-0.399125	-0.156019	18.910034	-44.528789	-27.436192
01933		6.826743	2.308437	6.851141	-0.233522	0.063031	0.127760	0.165135	-0.720044	-0.038368	-1.037354	0.193359	-0.197266	0.068025	0.023015	0.068776	0.900079	0.059293	-0.402480	-0.156050	19.152971	-44.912255	-27.649488
01934		7.191677	2.372974	6.554367	0.155445	0.002761	0.201616	0.175942	-0.766737	-0.042138	-1.042969	0.195068	-0.185791	0.071670	0.023657	0.065840	0.898451	0.059544	-0.406050	-0.156088	19.416870	-45.319896	-27.882133
01935		7.369715	2.531243	6.380246	0.352091	0.094905	0.251798	0.188240	-0.819725	-0.034610	-1.035645	0.196777	-0.188965	0.073439	0.025239	0.064128	0.896704	0.059793	-0.409860	-0.156080	19.698385	-45.756493	-28.127926
01936		6.944963	2.390928	6.788452	-0.334905	0.116946	0.182594	0.193987	-0.858614	-0.017200	-1.033936	0.200195	-0.177734	0.069159	0.023837	0.068205	0.894872	0.060001	-0.413849	-0.155991	19.986397	-46.216889	-28.376274
01937		6.809043	2.204236	6.880193	-0.619453	-0.005101	0.095608	0.216465	-0.903903	-0.013252	-1.034912	0.206055	-0.162598	0.067780	0.021963	0.069133	0.892925	0.060265	-0.418048	-0.155849	20.299893	-46.701198	-28.640089
01938		7.294059	2.354213	6.717713	-0.265388	-0.018687	0.375622	0.235725	-0.972748	-0.008738	-1.042969	0.202148	-0.142090	0.072614	0.023459	0.067559	0.890810	0.060550	-0.422564	-0.155663	20.643038	-47.222621	-28.927169
01939		7.097020	2.016858	6.903232	-0.706318	-0.260026	0.263152	0.276797	-1.033769	-0.001561	-1.032471	0.201172	-0.134521	0.070612	0.020072	0.069426	0.888536	0.060954	-0.427372	-0.155373	21.026609	-47.776626	-29.234708
01940		7.204786	1.751073	6.728667	-0.677891	-0.544549	0.161930	0.310080	-1.107795	-0.043455	-1.036621	0.193359	-0.119629	0.071677	0.017390	0.067711	0.886034	0.061535	-0.432511	-0.155215	21.480410	-48.360222	-29.608236
01941		7.454118	1.836131	6.557674	-0.499911	-0.547284	0.256455	0.325111	-1.183323	-0.085416	-1.039063	0.209473	-0.108643	0.074159	0.018222	0.066046	0.883300	0.062214	-0.437966	-0.155229	21.997882	-48.972680	-30.051659
01942		7.014048	2.103684	6.919872	-1.106027	-0.139542	0.200442	0.372056	-1.258664	-0.101207	-1.030273	0.199219	-0.111328	0.069714	0.020872	0.069677	0.880338	0.063072	-0.443770	-0.155226	22.585387	-49.619083	-30.547761
01943		7.191732	2.248549	6.866515	-1.070009	-0.062545	0.325135	0.411423	-1.352930	-0.095929	-1.041504	0.208252	-0.092773	0.071461	0.022309	0.069196	0.877118	0.064017	-0.449998	-0.155136	23.234406	-50.312600	-31.089834
01944		7.453022	2.322425	6.420574	-0.699176	-0.091337	0.270257	0.459768	-1.459168	-0.098173	-1.042969	0.201904	-0.074219	0.074070	0.023039	0.064800	0.873594	0.065093	-0.456706	-0.154972	23.963248	-51.057407	-31.693671
01945		7.279495	2.537391	6.305816	-0.811354	0.165294	0.112274	0.492875	-1.570330	-0.098555	-1.040039	0.205322	-0.045410	0.072309	0.025182	0.063689	0.869750	0.066224	-0.463894	-0.154761	24.769778	-51.854686	-32.366037
01946		7.503552	2.731019	6.211687	-0.746812	0.272244	0.272565	0.519561	-1.687802	-0.086626	-1.029785	0.199463	-0.039063	0.074519	0.027115	0.062818	0.865570	0.067347	-0.471586	-0.154463	25.651687	-52.709767	-33.106808
01947		7.438185	2.652687	6.072266	-0.861926	0.219137	0.109100	0.571929	-1.806410	-0.053973	-1.038330	0.203613	-0.013428	0.073836	0.026332	0.061467	0.861047	0.068524	-0.479802	-0.153928	26.618554	-53.626429	-33.907546
01948		7.341283	2.718377	6.229278	-1.223072	0.323259	0.111230	0.610896	-1.916759	-0.031701	-1.038086	0.207520	0.003662	0.072815	0.026980	0.063075	0.856179	0.069722	-0.488485	-0.153227	27.676744	-54.596784	-34.783805
01949		7.514732	2.745503	5.845680	-1.011260	0.286613	0.039845	0.651876	-2.042826	-0.030907	-1.028809	0.210938	0.021484	0.074549	0.027251	0.059309	0.850898	0.070991	-0.497686	-0.152449	28.860595	-55.620514	-35.773842
01950		7.717145	2.827731	5.537486	-0.852019	0.295143	0.056301	0.686541	-2.152066	-0.027688	-1.029053	0.212891	0.041260	0.076573	0.028074	0.056298	0.845232	0.072306	-0.507321	-0.151592	30.173427	-56.687255	-36.882992
01951		8.091451	2.760013	5.425343	-0.831936	0.112838	0.277602	0.705766	-2.262340	-0.023933	-1.028564	0.216797	0.071045	0.080296	0.027397	0.055261	0.839170	0.073601	-0.517367	-0.150690	31.623359	-57.793922	-38.128305
01952		8.260745	2.662858	5.805984	-1.362380	-0.011075	0.540021	0.723174	-2.327378	0.005033	-1.023682	0.221191	0.083740	0.081923	0.026418	0.059112	0.832833	0.074834	-0.527638	-0.149623	33.186130	-58.923047	-39.479238
01953		8.316255	2.213222	5.303845	-1.216279	-0.456445	0.212089	0.709235	-2.418306	0.006933	-1.015869	0.214844	0.110596	0.082512	0.021944	0.054117	0.826136	0.075924	-0.538195	-0.148596	34.896086	-60.075089	-40.994121
01954		8.438425	2.100311	5.058379	-1.221687	-0.600960	0.154563	0.813530	-2.490915	-0.058038	-1.012939	0.219971	0.130127	0.083751	0.020770	0.051714	0.819019	0.077553	-0.549016	-0.147560	36.890075	-61.213756	-42.748992
01955		8.912176	2.479936	4.740542	-0.973646	-0.404931	0.528057	0.865498	-2.594506	-0.108202	-1.002930	0.230469	0.160400	0.088509	0.024543	0.048663	0.811414	0.079443	-0.560182	-0.146601	39.175923	-62.348423	-44.782207
01956		9.082207	2.840413	5.020075	-1.414939	-0.109160	0.851931	0.878322	-2.649073	-0.115813	-0.992676	0.229004	0.182617	0.090162	0.028127	0.051522	0.803491	0.081351	-0.571469	-0.145630	41.694184	-63.462965	-47.047444
01957		9.026495	2.938410	4.952660	-1.654930	0.004985	0.765310	0.754583	-2.770706	-0.101938	-0.991455	0.228027	0.209961	0.089581	0.029148	0.050881	0.795119	0.082617	-0.583045	-0.144978	44.430942	-64.585289	-49.612542
01958		10.516186	2.210315	4.865130	-1.578423	-1.161511	1.818933	0.664258	-2.861402	-0.151238	-0.979004	0.221436	0.241943	0.104467	0.021859	0.050222	0.786317	0.083584	-0.594773	-0.144791	47.475094	-65.665568	-52.550191
01959		9.856716	3.259746	4.271234	-1.376319	0.027211	1.328226	0.763077	-2.874700	-0.216184	-0.970703	0.228027	0.254883	0.097974	0.032324	0.044247	0.777215	0.085106	-0.606467	-0.144540	50.908699	-66.651038	-55.827767
01960		8.845961	4.510372	3.767087	-1.286745	1.524652	0.617868	0.681731	-3.054932	-0.138425	-0.955566	0.226563	0.277832	0.087900	0.044911	0.039170	0.767475	0.085925	-0.618695	-0.144276	54.714541	-67.649066	-59.535456
01961		9.858870	4.023722	3.711160	-1.432439	0.758396	1.346263	0.500112	-3.285671	0.009274	-0.953369	0.233887	0.318115	0.097958	0.040146	0.038825	0.757007	0.085402	-0.631578	-0.144069	58.919599	-68.687328	-63.758160
01962		10.377723	1.412704	4.740893	-3.016424	-1.780037	1.136681	0.619088	-3.371281	-0.040388	-0.931396	0.233643	0.338867	0.102961	0.013956	0.049193	0.745967	0.085399	-0.644671	-0.143669	63.745172	-69.597517	-68.543959
01963		12.527611	3.185030	4.621024	-2.865090	-0.777848	3.589030	0.734510	-3.447832	-0.168628	-0.912842	0.225830	0.372314	0.124480	0.031570	0.048477	0.734312	0.086160	-0.657882	-0.143365	69.229577	-70.300973	-73.935495
01964		13.325294	3.237019	4.076890	-2.721543	-0.997892	4.195897	0.590476	-3.357101	-0.240803	-0.898193	0.237549	0.399658	0.132581	0.032085	0.043093	0.722746	0.086668	-0.670427	-0.143718	74.860562	-70.766703	-79.550429
01965		12.485457	3.431421	5.591227	-4.725075	-0.409975	3.469228	0.399024	-3.441463	-0.256651	-0.899658	0.231689	0.420898	0.123911	0.034040	0.058118	0.710754	0.086452	-0.682934	-0.144764	80.743281	-71.043500	-85.534983
01966		11.615650	1.885975	6.580574	-6.299495	-1.459748	2.017429	0.216669	-3.458519	-0.259824	-0.870605	0.246826	0.441162	0.115020	0.018637	0.067822	0.698566	0.085559	-0.695162	-0.146407	86.659211	-71.116845	-91.658919
01967		10.639182	1.737115	6.033725	-6.151549	-1.275478	0.823638	0.224134	-3.528876	-0.423831	-0.854980	0.237549	0.471680	0.105341	0.017078	0.062221	0.685795	0.085185	-0.707356	-0.148582	92.664295	-70.889376	-97.875280
01968		11.169701	2.536665	6.135282	-6.594291	-0.638226	1.364486	0.099608	-3.577597	-0.507912	-0.831055	0.226074	0.495117	0.110640	0.025054	0.063351	0.672622	0.084616	-0.719361	-0.151458	98.449525	-70.404611	-103.947866
01969		10.122156	2.367482	4.934484	-5.696795	-0.532516	0.170406	-0.181920	-3.559582	-0.555825	-0.814209	0.220215	0.519287	0.100388	0.023441	0.051115	0.659377	0.083261	-0.730838	-0.155451	103.693142	-69.703403	-109.638220
01970		9.736609	1.917111	4.258685	-5.348293	-0.857729	-0.471261	-0.488416	-3.537156	-0.608656	-0.794678	0.215088	0.548584	0.096651	0.018983	0.044254	0.646087	0.081077	-0.741741	-0.160678	108.304210	-68.812833	-114.869646
01971		9.846443	0.924763	3.751812	-5.259912	-1.837585	-0.822117	-0.767272	-3.348158	-0.665572	-0.773926	0.206299	0.567627	0.097849	0.009069	0.039125	0.633359	0.078331	-0.751554	-0.166996	112.060836	-67.796037	-119.387256
01972		15.903315	3.890907	9.080278	-11.642941	-0.167480	4.846839	-1.157970	-2.842978	-0.736140	-0.761475	0.194336	0.568848	0.157866	0.038860	0.092827	0.622450	0.075010	-0.759202	-0.174761	114.571571	-66.767705	-122.830398
01973		22.603157	0.190792	15.010687	-19.447415	-4.665170	8.525553	-1.720824	-0.630310	-0.756912	-0.751465	0.177002	0.574219	0.225565	0.002349	0.150799	0.620022	0.071940	-0.759335	-0.183868	113.933601	-66.227643	-123.211797
01974		16.625023	-5.458064	13.113445	-16.963731	-8.159463	1.313718	-1.315525	1.165878	-0.797928	-0.768799	0.152832	0.568359	0.166795	-0.054386	0.130521	0.624176	0.071922	-0.754181	-0.190899	111.385928	-66.067502	-121.252773
01975		10.540231	-6.148897	10.533301	-13.137565	-7.279864	-3.959808	-0.469929	2.386906	-0.837556	-0.796143	0.141602	0.539063	0.106392	-0.061687	0.104212	0.632506	0.075853	-0.745916	-0.194401	107.849356	-66.078384	-117.680405
01976		6.644394	-3.052733	8.867932	-10.213277	-3.540093	-5.906858	0.095236	2.987204	-0.696920	-0.826172	0.125732	0.512695	0.067651	-0.030804	0.087660	0.642878	0.081608	-0.736200	-0.195084	103.934022	-66.167777	-113.341919
01977		4.628901	-0.021756	7.799867	-8.322669	-0.385547	-6.229042	0.085335	3.217802	-0.345570	-0.847656	0.128662	0.480713	0.047535	-0.000332	0.077240	0.654278	0.086249	-0.725699	-0.194532	99.784672	-66.356844	-108.757997
01978		3.639451	0.939114	6.869605	-7.053490	0.593329	-6.464591	-0.267601	3.288928	0.099278	-0.870605	0.120117	0.453125	0.037513	0.009501	0.068073	0.666355	0.088160	-0.714612	-0.193723	95.343498	-66.666225	-104.085998
01979		2.972628	0.745102	6.389177	-6.445528	0.531172	-6.917588	-0.633711	3.300894	0.499629	-0.896240	0.116943	0.426514	0.030756	0.007728	0.063366	0.678827	0.087416	-0.703114	-0.192828	90.591230	-67.054112	-99.315221
01980		2.737113	0.107802	6.229372	-6.269248	-0.016733	-7.166914	-0.850372	3.283797	0.806642	-0.929688	0.109131	0.392578	0.028383	0.001455	0.061828	0.691438	0.084806	-0.691383	-0.191604	85.572337	-67.457809	-94.404893
01981		2.557956	-1.023297	5.810640	-5.929943	-1.062546	-7.564064	-0.866253	3.277494	0.962396	-0.945801	0.114746	0.346191	0.026576	-0.009856	0.057720	0.703960	0.081579	-0.679519	-0.189839	80.380041	-67.779403	-89.328821
01982		2.589761	-0.935238	5.706951	-5.725837	-1.029737	-7.302481	-0.716399	3.285938	1.003415	-0.967529	0.109619	0.320557	0.026877	-0.009016	0.056666	0.716281	0.078715	-0.667564	-0.187359	75.135379	-67.946130	-84.113450
01983		3.010468	0.265280	5.776486	-5.475383	-0.098756	-6.276114	-0.614438	3.303565	1.026134	-0.985840	0.120361	0.276611	0.031038	0.002987	0.057248	0.728410	0.076140	-0.655454	-0.184393	69.883512	-67.941386	-78.829198
01984		3.480368	1.568592	6.076883	-5.378453	0.949965	-5.157902	-0.666271	3.340515	1.074271	-1.017578	0.121094	0.230469	0.035726	0.016077	0.060124	0.740506	0.073220	-0.642963	-0.181349	64.565734	-67.771073	-73.503759
01985		4.277777	2.227502	6.309487	-5.227392	1.294845	-3.976384	-0.828882	3.399910	1.129593	-1.031738	0.121338	0.202393	0.043713	0.022779	0.062263	0.752649	0.069559	-0.629924	-0.178541	59.173411	-67.426047	-68.187521
01986		5.285876	2.266261	6.396096	-4.931531	0.994450	-2.836343	-0.970427	3.517311	1.149900	-1.055176	0.129883	0.151855	0.053839	0.023277	0.062908	0.764973	0.065373	-0.616090	-0.176000	53.753269	-66.863680	-62.912811
01987		6.200545	2.212684	6.477359	-4.573067	0.656764	-1.816188	-1.040013	3.680564	1.130740	-1.067139	0.151611	0.105225	0.063054	0.022814	0.063502	0.777503	0.061107	-0.601340	-0.173625	48.447236	-66.045385	-57.777585
01988		6.770913	2.451466	6.528478	-4.118860	0.714501	-1.038424	-1.057005	3.850878	1.082270	-1.080566	0.153076	0.057129	0.068812	0.025225	0.063835	0.790197	0.057035	-0.585636	-0.171367	43.401561	-64.956619	-52.902280
01989		6.819676	2.896809	6.502672	-3.624919	1.134538	-0.716355	-1.073860	4.001106	1.029607	-1.091309	0.165039	0.003906	0.069326	0.029667	0.063489	0.802929	0.053163	-0.569064	-0.169246	38.725446	-63.616685	-48.397929
01990		6.638176	3.313328	6.579719	-3.277947	1.614934	-0.594820	-1.133064	4.081319	0.983922	-1.101074	0.174316	-0.052002	0.067538	0.033831	0.064236	0.815505	0.049217	-0.551828	-0.167379	34.462182	-62.074920	-44.340355
01991		6.942031	3.648817	6.815777	-2.914629	1.878696	-0.018809	-1.215828	4.103405	0.933832	-1.107422	0.185303	-0.101563	0.070623	0.037224	0.066492	0.827720	0.045076	-0.534172	-0.165857	30.631661	-60.381665	-40.767855
01992		7.847524	3.870236	7.133231	-2.364073	1.856221	1.068093	-1.305988	4.130890	0.883073	-1.099854	0.199219	-0.155762	0.079749	0.039510	0.069438	0.839595	0.040690	-0.516041	-0.164702	27.180576	-58.553418	-37.634139
01993		8.648118	3.857907	7.520344	-1.877487	1.661324	2.016111	-1.372112	4.184298	0.816651	-1.097168	0.209961	-0.211914	0.087865	0.039442	0.073106	0.851140	0.036230	-0.497378	-0.163901	24.089452	-56.594977	-34.906205
01994		9.217928	3.779142	7.777032	-1.315378	1.464323	2.670630	-1.406064	4.243621	0.738783	-1.090820	0.219238	-0.267578	0.093656	0.038672	0.075524	0.862352	0.031842	-0.478150	-0.163424	21.335249	-54.514276	-32.547576
01995		9.750129	3.700896	8.122660	-0.783891	1.283106	3.319286	-1.403450	4.280044	0.640701	-1.085449	0.232178	-0.311768	0.099085	0.037884	0.078854	0.873116	0.027720	-0.458522	-0.163272	18.921945	-52.338523	-30.546629
01996		10.492313	3.694045	8.399134	-0.004182	1.088325	4.081999	-1.385436	4.303973	0.551710	-1.066895	0.248047	-0.375977	0.106591	0.037803	0.081449	0.883415	0.023878	-0.438537	-0.163381	16.803369	-50.086806	-28.851390
01997		10.938561	3.770705	8.792094	0.604750	1.069088	4.665796	-1.384020	4.299239	0.505260	-1.051270	0.253174	-0.410889	0.111141	0.038583	0.085279	0.893199	0.020136	-0.418358	-0.163606	14.911573	-47.796647	-27.396998
01998		11.892517	3.347538	9.259177	1.382255	0.426276	5.557330	-1.383386	4.275273	0.502415	-1.030518	0.265625	-0.459717	0.120779	0.034405	0.089787	0.902478	0.016366	-0.398053	-0.163763	13.185429	-45.488432	-26.117575
01999		12.991679	2.797977	9.747260	2.281474	-0.378196	6.503786	-1.325802	4.277107	0.531455	-1.007568	0.274170	-0.497803	0.131883	0.028961	0.094476	0.911312	0.012798	-0.377605	-0.163588	11.615620	-43.160499	-24.961016
02000		13.950458	2.552637	10.081827	3.367699	-0.867633	7.235153	-1.194168	4.311607	0.605222	-0.978027	0.274902	-0.540527	0.141553	0.026542	0.097625	0.919805	0.009705	-0.356900	-0.162745	10.197350	-40.798354	-23.868331
02001		14.487369	2.445768	10.186926	4.416547	-1.116966	7.474045	-1.037707	4.345200	0.729938	-0.954346	0.297119	-0.578369	0.146947	0.025509	0.098561	0.927975	0.007139	-0.336011	-0.160963	8.914431	-38.412639	-22.791731
02002		14.873833	2.251406	9.853704	5.625803	-1.435790	7.205807	-0.846028	4.357683	0.884935	-0.923340	0.299316	-0.603760	0.150734	0.023585	0.095169	0.935813	0.005200	-0.315032	-0.158058	7.767330	-36.013687	-21.701724
02003		15.075696	2.229363	9.076128	6.978399	-1.556520	6.418470	-0.618460	4.296330	1.059640	-0.888184	0.309326	-0.634277	0.152537	0.023373	0.087426	0.943206	0.004008	-0.294384	-0.153897	6.772588	-33.648454	-20.583973
02004		15.076772	2.859303	8.039132	8.421702	-0.986460	5.292573	-0.373527	4.159142	1.240917	-0.856201	0.319092	-0.664307	0.152213	0.029681	0.077181	0.950077	0.003589	-0.274414	-0.148451	5.934706	-31.356580	-19.428593
02005		14.958881	3.818622	6.786677	9.840781	-0.037125	3.881437	-0.195045	3.939871	1.398338	-0.839844	0.325439	-0.687744	0.150614	0.039301	0.064868	0.956322	0.003645	-0.255512	-0.141946	5.225305	-29.187450	-18.246818
02006		14.992995	4.760670	5.318773	11.323195	0.894648	2.299185	-0.090005	3.628653	1.484292	-0.803467	0.336914	-0.712646	0.150503	0.048745	0.050439	0.961838	0.003864	-0.238053	-0.134845	4.619078	-27.186927	-17.078652
02007		14.797463	4.708319	3.799191	12.210069	0.971596	0.459304	0.013484	3.254403	1.468767	-0.773193	0.334961	-0.731201	0.148216	0.048169	0.035585	0.966554	0.004352	-0.222395	-0.127654	4.138276	-25.391579	-15.979796
02008		14.735050	4.674476	2.589860	12.941346	1.066474	-1.035072	0.149878	2.855507	1.352963	-0.756592	0.332520	-0.738770	0.147380	0.047723	0.023830	0.970476	0.005367	-0.208672	-0.120844	3.813711	-23.811296	-15.000252
02009		15.054034	5.059281	1.874182	13.803434	1.499606	-1.879477	0.222505	2.480104	1.167436	-0.728760	0.358398	-0.750977	0.150459	0.051452	0.016933	0.973676	0.006706	-0.196777	-0.114841	3.613461	-22.436194	-14.170278
02010		15.174222	5.447488	1.061253	14.457860	1.971384	-2.874965	0.153442	2.167651	0.946052	-0.716553	0.345703	-0.762451	0.151586	0.055185	0.009011	0.976285	0.007741	-0.186313	-0.109976	3.449985	-21.228377	-13.500936
02011		14.520402	5.084107	0.163394	14.224170	1.852454	-4.249315	0.014799	1.904964	0.672587	-0.702881	0.354980	-0.774414	0.145039	0.051329	0.000256	0.978384	0.008213	-0.177032	-0.106570	3.285713	-20.161018	-13.017123
02012		13.829928	4.811265	-0.779550	13.939532	1.785841	-5.627162	-0.114267	1.582453	0.373282	-0.687744	0.353027	-0.770508	0.138142	0.048366	-0.008917	0.979961	0.008142	-0.169225	-0.104749	3.121907	-19.266439	-12.732441
02013		13.375153	4.940289	-1.678663	13.894104	2.020279	-6.814558	-0.243945	1.224378	0.086812	-0.668457	0.356934	-0.791260	0.133624	0.049440	-0.017665	0.981038	0.007495	-0.163091	-0.104448	2.949314	-18.568106	-12.636666
02014		12.942577	5.089156	-2.334148	13.764559	2.236241	-7.716803	-0.401026	0.838309	-0.119769	-0.673096	0.350830	-0.780029	0.129357	0.050766	-0.023986	0.981668	0.006040	-0.158752	-0.105301	2.730947	-18.084026	-12.679821
02015		12.388070	4.594102	-2.814520	13.317582	1.823887	-8.468670	-0.497968	0.425648	-0.243620	-0.670898	0.364990	-0.780029	0.123876	0.045719	-0.028523	0.981892	0.003994	-0.156385	-0.106849	2.484236	-17.833587	-12.810765
02016		11.916612	3.888225	-2.865113	12.758075	1.184840	-8.735546	-0.457083	0.004027	-0.308424	-0.664307	0.349609	-0.785400	0.119225	0.038633	-0.028742	0.981740	0.001971	-0.156106	-0.108691	2.275862	-17.823294	-12.992172
02017		11.491036	2.884154	-2.360319	11.995935	0.260920	-8.411794	-0.252716	-0.389106	-0.361384	-0.670410	0.357422	-0.774414	0.115008	0.028604	-0.023416	0.981243	0.000782	-0.157867	-0.110636	2.197838	-18.037497	-13.214811
02018		11.473829	2.582459	-1.438451	11.618906	-0.046981	-7.492116	0.038150	-0.689547	-0.419743	-0.676758	0.348633	-0.774414	0.114841	0.025586	-0.013984	0.980462	0.000897	-0.161263	-0.112637	2.300784	-18.422494	-13.480174
02019		11.447884	3.011022	-0.088864	11.237698	0.374366	-6.111211	0.276684	-0.885704	-0.460918	-0.682373	0.355957	-0.776367	0.114550	0.029847	-0.000340	0.979479	0.002107	-0.165749	-0.114647	2.552683	-18.917855	-13.777372
02020		11.319848	3.415573	1.078243	10.790005	0.787326	-4.921665	0.355154	-0.987109	-0.443966	-0.688721	0.347168	-0.772217	0.113219	0.033885	0.011402	0.978391	0.003627	-0.170776	-0.116505	2.850753	-19.470798	-14.070650
02021		10.584110	3.173285	2.112632	9.661551	0.708899	-4.093697	0.321330	-1.019747	-0.404440	-0.689697	0.350342	-0.766357	0.105795	0.031484	0.021717	0.977268	0.004930	-0.175935	-0.118197	3.125790	-20.041759	-14.344879
02022		2.327618	-4.279825	9.981531	-2.384455	-4.409315	0.098693	0.786959	-1.278016	-0.509314	-0.707275	0.343262	-0.762695	0.022529	-0.043249	0.099791	0.975796	0.008447	-0.182625	-0.119991	3.698076	-20.755646	-14.698132
02023		-5.846770	-11.287629	20.621261	-15.442132	-9.113972	6.474812	1.715858	-1.305655	-0.917136	-0.717773	0.329102	-0.760986	-0.060330	-0.114364	0.204846	0.973920	0.016852	-0.189967	-0.122917	4.901920	-21.461874	-15.315873
02024		-7.410435	-6.971250	10.079766	-12.110108	-4.835051	-3.890533	2.129238	-1.324952	-1.083185	-0.731689	0.304443	-0.751953	-0.075147	-0.070372	0.099555	0.971730	0.027410	-0.197616	-0.126240	6.395445	-22.156510	-16.057464
02025		-5.811656	3.262210	3.066971	-5.625556	4.620389	-8.903001	1.869490	-2.611141	-0.238311	-0.746582	0.295166	-0.744873	-0.058474	0.032408	0.030211	0.968624	0.035056	-0.211417	-0.125863	7.597440	-23.624623	-16.398242
02026		7.348704	4.341837	10.276535	2.921173	2.153261	3.043183	1.335001	-3.206305	0.922054	-0.771240	0.297607	-0.720215	0.071625	0.043059	0.104212	0.965430	0.038499	-0.227908	-0.120500	8.235025	-25.517135	-16.096888
02027		9.176345	5.276227	10.006343	4.373421	2.616406	3.832099	1.366432	-2.838469	0.664363	-0.795166	0.293701	-0.706299	0.090153	0.052372	0.101709	0.962214	0.042601	-0.242525	-0.116239	8.948243	-27.181997	-15.943754
02028		5.091773	11.403640	9.448467	1.971625	9.546641	2.443060	1.127159	-2.915565	0.006040	-0.807129	0.291992	-0.693115	0.049524	0.113500	0.095854	0.958330	0.046292	-0.257176	-0.115421	9.732492	-28.831267	-16.242617
02029		9.858224	7.440243	9.922225	4.545703	4.476738	4.687992	0.888958	-2.961448	-0.256028	-0.833984	0.291260	-0.677246	0.097190	0.073831	0.100997	0.954059	0.049144	-0.271783	-0.116149	10.489754	-30.475988	-16.747173
02030		19.600223	1.389100	12.292470	9.656508	-3.932607	10.886564	0.800167	-2.521398	-0.171685	-0.840088	0.280762	-0.653076	0.194443	0.013225	0.125436	0.950258	0.051702	-0.284207	-0.116462	11.166898	-31.876943	-17.172878
02031		27.256150	1.390821	12.262514	15.457622	-5.906997	15.114409	0.805842	-1.123806	0.076635	-0.855225	0.288574	-0.647461	0.271861	0.013514	0.124209	0.948481	0.054743	-0.290023	-0.115214	11.677642	-32.516900	-17.268208
02032		8.362519	7.992482	7.702102	3.864340	5.333039	2.424915	0.420873	-0.344291	-0.149338	-0.857666	0.281250	-0.642334	0.083552	0.079700	0.077333	0.947781	0.056732	-0.291858	-0.115378	11.994050	-32.693373	-17.411165
02033		6.708577	5.087849	8.830422	1.306967	2.873107	1.973086	0.139753	-0.371559	0.005712	-0.856201	0.279053	-0.650391	0.066920	0.050819	0.088464	0.947207	0.057148	-0.293695	-0.115225	12.096467	-32.902420	-17.455684
02034		8.162579	4.063791	7.377769	3.071675	1.576529	1.396811	0.048172	-0.249296	0.048913	-0.866943	0.280518	-0.641846	0.081524	0.040640	0.073889	0.946858	0.057137	-0.294919	-0.114966	12.121675	-33.048968	-17.454281
02035		5.882299	3.229325	7.834530	0.810514	1.335352	0.383866	-0.049491	-0.178994	0.134168	-0.874756	0.282715	-0.643555	0.058731	0.032352	0.078390	0.946691	0.056579	-0.295771	-0.114428	12.054058	-33.165515	-17.385642
02036		6.541890	2.406299	7.445901	1.392376	0.406716	0.283047	-0.064634	-0.174343	0.144158	-0.874512	0.289307	-0.647461	0.065337	0.024134	0.074508	0.946538	0.055936	-0.296602	-0.113863	11.973721	-33.281462	-17.309476
02037		5.759252	1.379825	8.289625	0.084224	-0.406240	0.366637	-0.089791	-0.098159	0.142778	-0.880127	0.287842	-0.645264	0.057542	0.013877	0.082918	0.946504	0.055220	-0.297050	-0.113321	11.873029	-33.353547	-17.223045
02038		5.161813	0.956163	8.298751	-0.481898	-0.652178	-0.026460	-0.079567	-0.089791	0.130387	-0.874756	0.289795	-0.650146	0.051575	0.009628	0.083007	0.946470	0.054576	-0.297469	-0.112819	11.782181	-33.420279	-17.143647
02039		5.710022	0.921006	8.028473	0.098843	-0.797796	0.049499	-0.051466	-0.064262	0.101501	-0.885498	0.301270	-0.639893	0.057070	0.009260	0.080301	0.946452	0.054121	-0.297766	-0.112406	11.715756	-33.468314	-17.079837
02040		5.856642	1.256912	7.891191	0.350489	-0.493608	0.075916	-0.031967	-0.059972	0.064413	-0.891357	0.295898	-0.652100	0.058539	0.012601	0.078927	0.946411	0.053817	-0.298052	-0.112138	11.674081	-33.510505	-17.040387
02041		5.269382	1.236435	8.298228	-0.360109	-0.377519	0.080924	-0.021157	-0.042972	0.043035	-0.887695	0.303955	-0.645508	0.052673	0.012384	0.082992	0.946383	0.053605	-0.298250	-0.111950	11.644966	-33.539741	-17.012825
02042		5.277066	0.913820	7.846976	-0.156870	-0.672015	-0.337387	0.000504	-0.068694	0.030389	-0.881348	0.299072	-0.642090	0.052742	0.009146	0.078488	0.946301	0.053500	-0.298586	-0.111797	11.635132	-33.582872	-16.997414
02043		6.255853	1.452298	7.439706	0.948100	-0.372173	-0.037377	0.019835	-0.070724	0.013446	-0.890625	0.299561	-0.648193	0.062531	0.014520	0.074421	0.946204	0.053510	-0.298930	-0.111696	11.642617	-33.624252	-16.993601
02044		5.779338	1.661209	7.817914	0.381126	-0.065726	0.042797	0.016426	-0.056932	0.007987	-0.898926	0.297852	-0.649658	0.057770	0.016608	0.078197	0.946122	0.053521	-0.299214	-0.111621	11.649330	-33.658214	-16.991645
02045		5.586017	1.916649	8.102339	0.102540	0.220023	0.210590	0.011840	-0.064143	0.003782	-0.899414	0.307129	-0.649414	0.055834	0.019163	0.081042	0.946031	0.053511	-0.299520	-0.111576	11.655341	-33.694784	-16.993442
02046		5.941164	1.720562	7.763792	0.539404	-0.043300	0.098992	0.008517	-0.064589	0.013112	-0.899414	0.306885	-0.649414	0.059385	0.017206	0.077658	0.945943	0.053472	-0.299836	-0.111491	11.656201	-33.733648	-16.989102
02047		5.620089	2.189339	8.103771	0.165203	0.479800	0.276525	-0.002017	-0.055169	0.016230	-0.901123	0.312500	-0.658447	0.056177	0.021899	0.081053	0.945876	0.053384	-0.300095	-0.111405	11.648914	-33.766623	-16.981251
02048		5.503365	1.816896	8.059062	0.026127	0.152400	0.112669	-0.016008	-0.062841	0.032314	-0.907959	0.315674	-0.650391	0.055005	0.018184	0.080606	0.945808	0.053201	-0.300395	-0.111265	11.628376	-33.806738	-16.963690
02049		5.604818	1.761375	7.996343	0.127788	0.081043	0.108756	-0.017343	-0.059236	0.035307	-0.902344	0.312744	-0.654785	0.056021	0.017631	0.079978	0.945749	0.053009	-0.300670	-0.111113	11.605422	-33.844193	-16.943485
02050		5.876866	1.737920	7.709793	0.499888	0.006553	0.023414	-0.008036	-0.074197	0.024220	-0.910645	0.303223	-0.658691	0.058738	0.017389	0.077119	0.945657	0.052870	-0.301026	-0.111003	11.593336	-33.889746	-16.932924
02051		5.491089	1.359788	8.055942	-0.081493	-0.275021	0.026875	-0.002348	-0.067436	0.013052	-0.921143	0.314209	-0.650391	0.054883	0.013602	0.080578	0.945569	0.052778	-0.301341	-0.110936	11.587958	-33.929233	-16.928867
02052		5.813804	1.119513	7.813674	0.265750	-0.576687	-0.029849	0.020417	-0.075621	-0.006427	-0.919678	0.320068	-0.649902	0.058109	0.011185	0.078160	0.945450	0.052818	-0.301712	-0.110928	11.603844	-33.972067	-16.939227
02053		5.824507	1.376777	7.784884	0.329363	-0.330549	-0.004167	0.040867	-0.069133	-0.034496	-0.926270	0.322266	-0.651611	0.058221	0.013742	0.077872	0.945322	0.053001	-0.302047	-0.111021	11.641357	-34.007021	-16.967611
02054		5.663578	1.529448	7.933432	0.134683	-0.151989	0.052069	0.043744	-0.071808	-0.036051	-0.915039	0.315430	-0.650879	0.056610	0.015267	0.079358	0.945185	0.053199	-0.302404	-0.111117	11.681572	-34.044293	-16.997560
02055		5.609983	1.679034	7.968645	0.090883	0.000716	0.075796	0.049967	-0.065039	-0.042651	-0.929688	0.318359	-0.644531	0.056077	0.016758	0.079709	0.945056	0.053439	-0.302723	-0.111234	11.727147	-34.075969	-17.030977
02056		6.194591	1.829360	7.531106	0.828428	0.014951	0.074201	0.047317	-0.074615	-0.039675	-0.930420	0.321777	-0.649170	0.061921	0.018263	0.075338	0.944911	0.053658	-0.303095	-0.111342	11.771088	-34.114364	-17.063869
02057		5.688046	1.977452	7.878929	0.243769	0.266100	0.097483	0.033293	-0.051288	-0.035331	-0.931396	0.321533	-0.661621	0.056864	0.019751	0.078807	0.944811	0.053816	-0.303341	-0.111445	11.803314	-34.139143	-17.090463
02058		5.239009	1.652976	8.035496	-0.266669	0.053142	-0.082590	0.027423	-0.057863	-0.017496	-0.943604	0.322754	-0.659424	0.052368	0.016514	0.080372	0.944710	0.053916	-0.303628	-0.111474	11.826169	-34.170735	-17.106030
02059		5.566729	1.790523	8.023475	0.018230	0.105302	0.115009	0.026442	-0.054584	-0.027800	-0.940918	0.321289	-0.659180	0.055648	0.017887	0.080252	0.944610	0.054029	-0.303888	-0.111554	11.851912	-34.198227	-17.128032
02060		6.134373	1.711380	7.710311	0.630692	-0.101265	0.167304	0.030274	-0.050665	-0.027063	-0.943359	0.324219	-0.654785	0.061327	0.017094	0.077121	0.944513	0.054161	-0.304141	-0.111622	11.879512	-34.224644	-17.149106
02061		5.201091	1.723688	8.292437	-0.450531	0.115803	0.115583	0.022075	-0.036184	-0.031332	-0.942139	0.325439	-0.665283	0.051999	0.017220	0.082936	0.944441	0.054268	-0.304310	-0.111719	11.902662	-34.241387	-17.170919
02062		5.465297	1.380914	7.797879	-0.017400	-0.266536	-0.194374	0.038584	-0.051965	-0.031953	-0.949951	0.328369	-0.645264	0.054635	0.013785	0.077996	0.944337	0.054446	-0.304572	-0.111798	11.937034	-34.267946	-17.195538
02063		6.223784	1.754597	7.544877	0.791367	-0.084371	0.092154	0.030590	-0.045431	-0.041581	-0.953857	0.320801	-0.650391	0.062224	0.017521	0.075466	0.944242	0.054605	-0.304787	-0.111934	11.969759	-34.288637	-17.225666
02064		5.304948	1.614489	7.936961	-0.193988	-0.012598	-0.132470	0.033531	-0.042570	-0.044359	-0.953613	0.318359	-0.652832	0.053036	0.016120	0.079384	0.944147	0.054783	-0.304999	-0.112076	12.005260	-34.308448	-17.257398
02065		5.582858	1.643199	7.835326	0.085119	-0.053348	-0.053043	0.038230	-0.052273	-0.049837	-0.960205	0.320557	-0.653076	0.055812	0.016403	0.078371	0.944035	0.054986	-0.305248	-0.112241	12.046123	-34.331956	-17.294163
02066		5.691833	1.570413	7.671547	0.248350	-0.149290	-0.136334	0.040443	-0.060489	-0.054756	-0.966797	0.319824	-0.650879	0.056899	0.015673	0.076736	0.943904	0.055203	-0.305545	-0.112426	12.091083	-34.360527	-17.335602
02067		5.581895	1.757329	7.972871	0.011011	0.043317	0.077228	0.040359	-0.063929	-0.060262	-0.975586	0.326416	-0.639648	0.055799	0.017540	0.079750	0.943768	0.055425	-0.305848	-0.112640	12.138188	-34.389265	-17.381210
02068		5.172505	1.497265	8.274630	-0.542745	-0.122993	0.044108	0.032977	-0.065168	-0.064010	-0.969727	0.319092	-0.640381	0.051703	0.014942	0.082766	0.943626	0.055618	-0.306160	-0.112882	12.182889	-34.419294	-17.429700
02069		5.955757	1.745739	7.694980	0.452716	-0.060461	0.062673	0.051604	-0.081340	-0.070863	-0.979736	0.322021	-0.646973	0.059532	0.017416	0.076979	0.943453	0.055900	-0.306548	-0.113134	12.242048	-34.456433	-17.485157
02070		5.559045	1.838905	8.016742	-0.040969	0.110609	0.113983	0.038477	-0.071698	-0.072711	-0.970947	0.310791	-0.639404	0.055568	0.018353	0.080191	0.943295	0.056129	-0.306892	-0.113410	12.293899	-34.488988	-17.540627
02071		5.538650	1.675659	8.018835	-0.096066	-0.047729	0.075421	0.039442	-0.095309	-0.077533	-0.985840	0.311523	-0.637207	0.055355	0.016719	0.080218	0.943100	0.056356	-0.307337	-0.113716	12.349966	-34.533043	-17.602823
02072		5.866779	1.823585	7.760300	0.331001	0.017187	0.079579	0.047834	-0.104506	-0.087801	-0.981934	0.320068	-0.635742	0.058635	0.018192	0.077638	0.942879	0.056633	-0.307836	-0.114058	12.415918	-34.582015	-17.673578
02073		5.918331	1.821960	7.586248	0.462921	0.002550	-0.030918	0.049409	-0.122546	-0.089268	-0.991455	0.312988	-0.625244	0.059145	0.018174	0.075903	0.942631	0.056909	-0.308411	-0.114411	12.484749	-34.639744	-17.748034
02074		5.402748	1.671057	7.961116	-0.203960	-0.034308	-0.049558	0.047086	-0.129132	-0.100707	-0.991943	0.304199	-0.634521	0.053984	0.016665	0.079650	0.942364	0.057189	-0.309022	-0.114822	12.557640	-34.700762	-17.831527
02075		6.153391	1.704593	7.487622	0.656573	-0.180676	0.004164	0.064390	-0.168365	-0.106190	-0.990967	0.302490	-0.629150	0.061480	0.016989	0.074933	0.942031	0.057535	-0.309817	-0.115245	12.645900	-34.781834	-17.924770
02076		5.534095	1.941010	7.854955	-0.020405	0.182708	-0.011656	0.063048	-0.157286	-0.117822	-0.996094	0.303955	-0.621094	0.055291	0.019353	0.078599	0.941704	0.057900	-0.310565	-0.115720	12.737447	-34.856243	-18.024604
02077		5.373268	1.516111	8.138693	-0.410250	-0.205173	0.046242	0.056533	-0.186238	-0.112875	-1.009033	0.301758	-0.610107	0.053665	0.015108	0.081441	0.941339	0.058210	-0.311436	-0.116191	12.825887	-34.946213	-18.125655
02078		5.379311	1.631470	8.086558	-0.372722	-0.100740	0.028146	0.069453	-0.196031	-0.124405	-0.990234	0.292725	-0.616455	0.053724	0.016253	0.080924	0.940944	0.058592	-0.312367	-0.116698	12.927681	-35.041154	-18.236520
02079		5.878934	1.764131	7.861918	0.153867	-0.101099	0.159766	0.075056	-0.222607	-0.137011	-0.997803	0.299805	-0.610107	0.058714	0.017572	0.078691	0.940500	0.059005	-0.313413	-0.117264	13.040132	-35.148030	-18.360390
02080		5.203847	1.688480	8.238153	-0.634228	-0.022977	0.056220	0.064227	-0.235622	-0.142161	-1.014160	0.286377	-0.606445	0.051953	0.016821	0.082448	0.940031	0.059368	-0.314520	-0.117874	13.150304	-35.262414	-18.490400
02081		5.908259	1.995753	7.780260	0.218811	0.099885	0.155516	0.077127	-0.289576	-0.145904	-1.007568	0.287354	-0.597900	0.058984	0.019884	0.077896	0.939472	0.059765	-0.315878	-0.118498	13.274610	-35.405075	-18.631987
02082		6.058420	2.100667	7.644909	0.406745	0.158923	0.155819	0.059751	-0.304674	-0.137812	-1.013916	0.281982	-0.599609	0.060482	0.020942	0.076548	0.938893	0.060058	-0.317307	-0.119114	13.388100	-35.558090	-18.771245
02083		5.762583	2.022561	7.798040	0.039245	0.149113	0.091033	0.058070	-0.342887	-0.127073	-1.006348	0.275391	-0.587158	0.057505	0.020166	0.078085	0.938261	0.060304	-0.318908	-0.119695	13.500417	-35.732498	-18.909918
02084		5.866509	2.013779	7.966365	-0.022448	0.102260	0.283010	0.059429	-0.398451	-0.129665	-1.018555	0.279297	-0.579834	0.058519	0.020076	0.079786	0.937532	0.060527	-0.320777	-0.120301	13.621060	-35.938394	-19.060496
02085		5.482020	1.911512	8.474329	-0.692326	0.084770	0.435922	0.026305	-0.483987	-0.141430	-1.022705	0.268311	-0.575439	0.054628	0.019065	0.084878	0.936666	0.060561	-0.323013	-0.121042	13.736692	-36.188946	-19.234322
02086		5.153649	1.341396	8.574248	-1.165443	-0.380902	0.205971	0.078342	-0.599076	-0.139161	-1.020020	0.264893	-0.564941	0.051289	0.013345	0.085902	0.935590	0.060766	-0.325827	-0.121721	13.894604	-36.504612	-19.427660
02087		5.571121	2.494066	8.316799	-0.537051	0.627332	0.470528	0.092483	-0.710737	-0.081023	-1.036377	0.256348	-0.559814	0.055425	0.024880	0.083377	0.934355	0.060873	-0.329176	-0.122138	14.049851	-36.888872	-19.601738
02088		6.016306	2.298753	7.912931	-0.059637	0.337004	0.384225	0.105403	-0.787310	-0.048383	-1.035400	0.255859	-0.542480	0.059856	0.022931	0.079377	0.932994	0.060940	-0.332905	-0.122403	14.209543	-37.320937	-19.768927
02089		5.787391	2.337907	8.013301	-0.370342	0.440184	0.328375	0.096191	-0.865039	-0.008592	-1.041748	0.256592	-0.537109	0.057528	0.023338	0.080394	0.931518	0.060848	-0.336989	-0.122519	14.357677	-37.800347	-19.924418
02090		6.051572	2.368692	7.892556	-0.181376	0.413982	0.401010	0.096937	-0.939446	0.030824	-1.055664	0.252441	-0.523682	0.060140	0.023658	0.079220	0.929917	0.060647	-0.341433	-0.122470	14.500449	-38.327427	-20.068412
02091		6.290888	2.125985	7.652485	0.006700	0.137040	0.318249	0.112862	-1.031783	0.047079	-1.057129	0.258545	-0.510010	0.062508	0.021231	0.076860	0.928145	0.060434	-0.346304	-0.122344	14.658331	-38.906685	-20.220602
02092		5.884047	2.045084	8.000882	-0.642221	0.174639	0.305340	0.121001	-1.113487	0.047476	-1.059570	0.251709	-0.487305	0.058389	0.020416	0.080347	0.926198	0.060206	-0.351559	-0.122222	14.834219	-39.531988	-20.391562
02093		6.356477	1.644064	7.757429	-0.330808	-0.315737	0.339898	0.146294	-1.237989	0.046823	-1.063721	0.243164	-0.479492	0.063079	0.016399	0.077978	0.923996	0.060019	-0.357383	-0.122093	15.044225	-40.224605	-20.591124
02094		6.105620	1.935308	7.997116	-0.749909	0.042987	0.405536	0.172079	-1.342843	0.034753	-1.078613	0.233154	-0.456787	0.060514	0.019295	0.080395	0.921548	0.059906	-0.363698	-0.121999	15.294253	-40.973826	-20.826189
02095		6.079100	2.134886	8.509200	-1.229682	0.249373	0.786524	0.202552	-1.477343	0.062142	-1.070557	0.239746	-0.433838	0.060154	0.021281	0.085559	0.918820	0.059797	-0.370633	-0.121759	15.573466	-41.799625	-21.075640
02096		5.865659	1.543761	8.617582	-1.722213	-0.245501	0.580730	0.257978	-1.609806	0.072371	-1.084961	0.234131	-0.414307	0.057955	0.015347	0.086664	0.915777	0.059841	-0.378198	-0.121400	15.907479	-42.700066	-21.354864
02097		6.330831	1.298147	7.965212	-1.161553	-0.577529	0.361969	0.301393	-1.773882	0.041884	-1.085205	0.231934	-0.395996	0.062596	0.012874	0.080229	0.912328	0.060037	-0.386495	-0.121139	16.318017	-43.683601	-21.704941
02098		6.257678	1.876873	8.128073	-1.418609	0.014186	0.518366	0.325324	-1.924730	0.048327	-1.097656	0.226563	-0.376221	0.061786	0.018651	0.081908	0.908500	0.060233	-0.395472	-0.120837	16.779148	-44.750039	-22.101124
02099		6.621010	2.462571	7.738995	-1.003738	0.506116	0.604910	0.389502	-2.086601	0.106531	-1.105469	0.233154	-0.347168	0.065385	0.024509	0.078123	0.904277	0.060501	-0.405190	-0.120180	17.292029	-45.911503	-22.510948
02100		6.983818	2.407660	7.552720	-0.872445	0.380109	0.708884	0.452448	-2.278274	0.145643	-1.110840	0.220459	-0.322754	0.068954	0.023955	0.076370	0.899555	0.060852	-0.415782	-0.119262	17.878229	-47.182534	-22.963479
02101		6.563361	1.547685	8.169189	-1.998864	-0.319469	0.584680	0.453595	-2.473759	0.143670	-1.108154	0.228760	-0.282959	0.064605	0.015337	0.082530	0.894296	0.061087	-0.427185	-0.118392	18.535356	-48.555240	-23.501445
02102		6.539877	1.463590	7.999486	-2.164011	-0.368218	0.389203	0.521731	-2.680334	0.110906	-1.118164	0.229248	-0.255127	0.064311	0.014462	0.080899	0.888398	0.061564	-0.439474	-0.117566	19.338003	-50.029979	-24.167948
02103		6.388287	1.745258	8.178279	-2.640825	-0.037442	0.373429	0.641623	-2.884466	0.098640	-1.116211	0.218506	-0.218018	0.062686	0.017219	0.082748	0.881830	0.062467	-0.452642	-0.116570	20.321937	-51.604542	-24.965219
02104		6.754281	1.831254	8.097312	-2.673517	-0.034066	0.549816	0.773201	-3.129979	0.126045	-1.118652	0.225586	-0.183105	0.066253	0.018039	0.082087	0.874468	0.063731	-0.466874	-0.115204	21.503946	-53.307114	-25.899139
02105		7.048111	1.081962	8.457132	-3.273585	-0.825759	0.721010	0.920947	-3.403863	0.077050	-1.124268	0.226563	-0.141357	0.069024	0.010453	0.085803	0.866145	0.065579	-0.482235	-0.113762	22.992681	-55.129824	-27.085768
02106		7.278179	1.260367	8.992529	-3.980241	-0.715868	1.098547	1.054200	-3.644348	0.011453	-1.114258	0.224365	-0.093994	0.071126	0.012129	0.091296	0.856868	0.068003	-0.498534	-0.112323	24.840197	-57.043030	-28.585860
02107		7.232596	2.613809	7.586868	-3.028691	0.610998	0.538184	0.935642	-3.985353	-0.001083	-1.114258	0.224121	-0.058105	0.070794	0.025778	0.077411	0.846444	0.069733	-0.516024	-0.111306	26.970762	-59.098067	-30.466245
02108		8.588245	1.850339	7.909790	-3.265369	-0.464043	1.538350	0.822334	-4.315326	-0.040371	-1.112061	0.220459	-0.006592	0.084152	0.018156	0.081001	0.834803	0.070869	-0.534605	-0.110812	29.511705	-61.267513	-32.853186
02109		8.714132	2.926844	8.562396	-4.206656	0.562614	2.010075	0.942097	-4.447536	-0.059989	-1.106445	0.225098	0.041992	0.085215	0.028833	0.087670	0.822340	0.072449	-0.553526	-0.110072	32.609554	-63.434696	-35.742269
02110		10.225062	5.920088	8.042773	-3.451014	3.082794	3.709084	0.887864	-4.553638	0.059848	-1.094971	0.231201	0.089111	0.100363	0.058866	0.082989	0.809235	0.073377	-0.572609	-0.108969	36.142743	-65.610321	-39.093574
02111		12.659217	4.154674	7.472204	-2.954943	0.805743	5.151489	0.563943	-4.735542	0.265363	-1.083008	0.230225	0.131348	0.124719	0.041497	0.077807	0.795393	0.072268	-0.592005	-0.107969	40.072480	-67.842155	-43.020548
02112		8.804305	1.996232	5.958827	-3.353747	-0.233336	0.467555	0.768260	-4.783989	0.200373	-1.067139	0.231934	0.189941	0.086563	0.019815	0.061747	0.780837	0.072095	-0.611341	-0.106577	45.090873	-69.942268	-47.928559
02113		12.312611	7.219089	7.838800	-4.576617	4.051295	5.278778	0.429861	-5.116240	0.374241	-1.053711	0.252197	0.227783	0.120930	0.072245	0.081656	0.764993	0.069848	-0.631471	-0.105595	51.260345	-72.062284	-54.193033
02114		16.120230	3.456306	7.118802	-4.227796	-0.381987	7.634490	-0.342625	-4.834131	0.531485	-1.031982	0.249512	0.270508	0.159327	0.035114	0.074995	0.749912	0.064255	-0.649774	-0.106284	57.859388	-73.922672	-61.299292
02115		13.326607	-0.725798	7.457197	-5.980947	-3.532286	3.805042	-0.435556	-4.701607	0.379505	-1.013672	0.253906	0.318848	0.131477	-0.006840	0.077692	0.734778	0.058840	-0.667106	-0.107742	65.893540	-75.391281	-69.889203
02116		9.943471	-0.140803	6.877282	-6.215873	-2.036345	0.354905	-0.274898	-4.591879	0.015199	-0.996094	0.253418	0.364990	0.097821	-0.001304	0.071033	0.719366	0.055258	-0.683651	-0.109911	75.567792	-76.274521	-80.029367
02117		7.797391	-0.665486	6.965370	-6.858524	-1.922577	-2.131381	-0.234447	-4.717659	-0.222316	-0.977539	0.251221	0.395020	0.076295	-0.006657	0.071474	0.702991	0.052534	-0.700233	-0.112771	86.585968	-76.573027	-91.502145
02118		6.340650	1.185794	6.540761	-6.596466	0.274843	-3.426137	-0.331463	-4.652234	-0.343441	-0.943359	0.241699	0.428955	0.061883	0.011861	0.066839	0.686416	0.049899	-0.716110	-0.116317	97.417542	-76.285847	-102.840072
02119		4.524186	2.419272	6.327495	-6.404129	1.973319	-5.182195	-0.693211	-4.651665	-0.346853	-0.918945	0.250977	0.478027	0.043798	0.024337	0.064221	0.669551	0.046009	-0.731381	-0.121105	107.235230	-75.523376	-113.371951
02120		12.063872	6.011895	10.360683	-11.077601	4.366592	2.320341	-1.443483	-4.391534	-0.366578	-0.894287	0.234619	0.489746	0.118443	0.060659	0.105787	0.653436	0.039811	-0.744919	-0.128577	114.882497	-74.424198	-122.146875
02121		22.752151	5.071294	15.982092	-18.576294	2.142786	11.379446	-2.469687	-2.304252	-0.553306	-0.888672	0.215088	0.511230	0.225808	0.052076	0.161792	0.644903	0.032283	-0.750636	-0.140013	117.122112	-73.563675	-125.950608
02122		18.803473	-3.247351	14.113556	-17.377072	-4.922051	5.585820	-2.648589	-0.105726	-0.819613	-0.890869	0.201416	0.496338	0.187830	-0.031370	0.141655	0.644315	0.026706	-0.748907	-0.152590	115.094218	-73.119657	-125.420078
02123		12.164925	-8.114059	11.657047	-14.635700	-8.333938	-1.685538	-1.710883	1.663498	-1.224728	-0.897949	0.174805	0.472168	0.122121	-0.080892	0.116249	0.649789	0.027013	-0.742007	-0.162696	110.356329	-72.844168	-121.492410
02124		5.988716	-8.245874	9.171289	-11.213337	-7.465082	-7.262620	-0.387437	2.577916	-1.564275	-0.915283	0.171875	0.452148	0.060418	-0.082753	0.091097	0.658079	0.033613	-0.733004	-0.168839	104.756756	-72.439593	-115.861135
02125		2.793954	-4.668263	7.492644	-8.451993	-3.699663	-9.030616	0.591015	2.882645	-1.661674	-0.923828	0.147705	0.422119	0.028624	-0.047139	0.074378	0.667058	0.044043	-0.723630	-0.171621	99.456915	-71.858158	-109.939878
02126		1.814070	-0.408326	6.679940	-6.797849	0.281324	-8.476490	0.820659	2.946206	-1.443383	-0.948486	0.149170	0.396240	0.019090	-0.004492	0.066505	0.676227	0.054484	-0.714070	-0.172781	94.590357	-71.247997	-104.317254
02127		1.637769	2.543683	6.425688	-6.052386	2.922500	-7.517985	0.400994	2.924805	-0.962524	-0.965088	0.141602	0.352051	0.017437	0.025226	0.064058	0.685657	0.061763	-0.704175	-0.173774	89.887435	-70.765694	-99.102849
02128		1.564010	2.892239	6.201758	-5.742293	3.150366	-7.288591	-0.298348	2.856896	-0.357714	-0.974609	0.140381	0.332520	0.016575	0.028986	0.061742	0.695451	0.064435	-0.693918	-0.175139	85.077743	-70.493232	-94.189040
02129		1.852797	0.652851	5.887999	-5.729333	0.885738	-7.595689	-0.815537	2.803269	0.158080	-0.999023	0.136475	0.300537	0.019345	0.006783	0.058585	0.705514	0.063466	-0.683429	-0.176484	80.089357	-70.379270	-89.393151
02130		2.430296	-1.637656	5.688432	-5.837221	-1.479677	-7.649118	-0.861052	2.807263	0.479150	-1.013184	0.130127	0.261475	0.025138	-0.016073	0.056605	0.715751	0.061222	-0.672822	-0.176814	75.018040	-70.304349	-84.535264
02131		3.442374	-2.358318	5.903385	-6.054589	-2.472376	-6.732576	-0.575639	2.899275	0.642873	-1.018311	0.140869	0.234375	0.035350	-0.023301	0.058593	0.726177	0.059523	-0.662052	-0.175528	69.963655	-70.159106	-79.517109
02132		4.466611	-1.231097	6.436967	-6.186467	-1.718259	-5.157515	-0.251452	3.086852	0.772060	-1.042725	0.151611	0.198242	0.045699	-0.012056	0.063685	0.737082	0.058716	-0.650746	-0.172603	64.841369	-69.890565	-74.223901
02133		5.290401	0.423937	6.948492	-6.132715	-0.418665	-3.595221	-0.098966	3.348913	0.927852	-1.049316	0.159912	0.156494	0.054037	0.004522	0.068584	0.748707	0.058182	-0.638488	-0.168482	59.521778	-69.467845	-68.614200
02134		5.923309	1.583462	7.238694	-5.892787	0.456779	-2.393215	-0.138455	3.642188	1.095575	-1.062744	0.169434	0.114746	0.060450	0.016213	0.071282	0.761189	0.057183	-0.624915	-0.163718	53.934422	-68.848881	-62.724625
02135		6.409273	1.946121	7.206243	-5.428884	0.609775	-1.631023	-0.243648	3.932737	1.218646	-1.073730	0.192383	0.073486	0.065372	0.019944	0.070761	0.774391	0.055624	-0.609959	-0.158667	48.242935	-67.978257	-56.756804
02136		6.636117	1.867778	6.995278	-4.859976	0.425910	-1.289419	-0.321325	4.184717	1.256051	-1.073975	0.192139	0.021484	0.067685	0.019211	0.068515	0.788080	0.053815	-0.593676	-0.153567	42.721004	-66.809391	-50.979244
02137		6.772534	2.003859	6.743648	-4.197018	0.478368	-1.009223	-0.351384	4.369091	1.216834	-1.085449	0.213135	-0.026123	0.069052	0.020573	0.065902	0.801882	0.052129	-0.576361	-0.148583	37.665606	-65.347595	-45.672067
02138		6.958137	2.428238	6.634152	-3.572324	0.809501	-0.599027	-0.397392	4.490045	1.125701	-1.091309	0.218506	-0.078613	0.070908	0.024809	0.064711	0.815570	0.050574	-0.558171	-0.143988	33.194665	-63.623117	-40.974917
02139		7.233723	2.840519	6.732718	-3.079122	1.123502	-0.067720	-0.465504	4.557734	0.988641	-1.083008	0.240967	-0.132568	0.073703	0.028921	0.065591	0.828903	0.049154	-0.539343	-0.140046	29.360262	-61.685657	-36.961355
02140		7.664952	3.121912	6.907422	-2.572681	1.275351	0.577005	-0.589743	4.590576	0.831631	-1.080566	0.239990	-0.185303	0.078075	0.031742	0.067200	0.841805	0.047630	-0.519928	-0.137005	26.084240	-59.576367	-33.594528
02141		8.309722	3.129605	7.191488	-2.060975	1.112766	1.370106	-0.712847	4.608962	0.660665	-1.074951	0.252441	-0.231934	0.084619	0.031825	0.069864	0.854182	0.046027	-0.500050	-0.134922	23.309733	-57.335736	-30.821065
02142		9.002719	2.850370	7.437929	-1.470205	0.657705	2.098495	-0.827908	4.612706	0.500424	-1.058838	0.263672	-0.283691	0.091636	0.029033	0.072159	0.866030	0.044302	-0.479733	-0.133737	20.942222	-54.992512	-28.546474
02143		9.708354	2.462526	7.773246	-0.897473	0.095006	2.832301	-0.887317	4.599172	0.367044	-1.048828	0.260010	-0.330566	0.098789	0.025143	0.075363	0.877271	0.042614	-0.459170	-0.133199	18.929342	-52.587409	-26.684623
02144		10.422806	2.165259	8.151081	-0.266222	-0.387167	3.585442	-0.908100	4.579387	0.285367	-1.028564	0.264648	-0.380371	0.106025	0.022166	0.078997	0.887951	0.040978	-0.438378	-0.133000	17.186848	-50.140312	-25.124649
02145		11.343067	1.814211	8.736807	0.383330	-0.970655	4.580428	-0.928514	4.543355	0.271337	-0.998779	0.265381	-0.425537	0.115350	0.018695	0.084676	0.898047	0.039244	-0.417523	-0.132842	15.633975	-47.687445	-23.773015
02146		12.422359	1.193573	9.294694	1.191144	-1.855165	5.589500	-0.927384	4.522813	0.307145	-0.981445	0.266602	-0.466309	0.126263	0.012551	0.090050	0.907655	0.037397	-0.396510	-0.132454	14.212658	-45.225331	-22.550190
02147		13.653888	0.581636	9.870851	2.187132	-2.766194	6.671089	-0.863784	4.527004	0.387471	-0.956543	0.276855	-0.502197	0.138714	0.006501	0.095558	0.916811	0.035671	-0.375356	-0.131502	12.916458	-42.756139	-21.399456
02148		14.809385	0.237260	10.260740	3.429342	-3.394696	7.545717	-0.767599	4.561484	0.525095	-0.927002	0.277588	-0.543457	0.150375	0.003151	0.099184	0.925624	0.034121	-0.353896	-0.129664	11.715244	-40.263316	-20.256046
02149		15.658496	-0.015844	10.239830	4.833301	-3.846491	7.845793	-0.631889	4.614739	0.702826	-0.907471	0.290771	-0.575928	0.158890	0.000713	0.098748	0.934102	0.032910	-0.332147	-0.126681	10.613510	-37.747278	-19.084030
02150		16.177966	0.002185	9.858035	6.316082	-3.928579	7.608954	-0.494900	4.628491	0.902431	-0.878906	0.288086	-0.604980	0.164000	0.000996	0.094800	0.942196	0.031988	-0.310235	-0.122467	9.602192	-35.223622	-17.866272
02151		16.455607	0.540065	9.138928	7.897708	-3.407234	6.936944	-0.401562	4.568396	1.112590	-0.845947	0.301025	-0.643799	0.166552	0.006502	0.087588	0.949770	0.031135	-0.288555	-0.117058	8.663323	-32.740342	-16.601732
02152		16.770350	1.740560	8.074230	9.755381	-2.191577	5.980841	-0.400830	4.424126	1.316309	-0.814941	0.310547	-0.665039	0.169314	0.018673	0.076972	0.956745	0.029879	-0.267404	-0.110641	7.747161	-30.335590	-15.296225
02153		17.200462	3.640528	6.793156	11.824507	-0.243627	4.861121	-0.507564	4.208962	1.473458	-0.778076	0.318848	-0.697266	0.173107	0.037844	0.064201	0.963027	0.027779	-0.247137	-0.103587	6.813662	-28.050199	-13.982611
02154		17.531960	4.558621	5.063858	13.676146	0.840915	3.071269	-0.681325	3.951737	1.549659	-0.748779	0.322754	-0.707764	0.175911	0.047112	0.047008	0.968596	0.024591	-0.227884	-0.096368	5.841564	-25.894474	-12.707686
02155		17.387278	4.460075	2.833363	14.962277	1.052933	0.444790	-0.716552	3.648139	1.464062	-0.717529	0.331543	-0.720215	0.174016	0.045968	0.024997	0.973357	0.021184	-0.210000	-0.089598	4.948628	-23.892030	-11.566232
02156		17.390000	4.481829	0.776532	16.124691	1.328296	-1.983430	-0.568960	3.326333	1.252190	-0.696289	0.351074	-0.738281	0.173710	0.045923	0.004745	0.977321	0.018556	-0.193629	-0.083707	4.249893	-22.047165	-10.619118
02157		16.922051	4.593654	-0.952075	16.573613	1.724653	-4.273741	-0.317462	2.978248	0.953106	-0.668945	0.343750	-0.750244	0.168832	0.046724	-0.012111	0.980516	0.017306	-0.179002	-0.079042	3.806734	-20.382942	-9.902147
02158		16.322078	4.649032	-2.613346	16.724891	2.028087	-6.495813	-0.086254	2.576793	0.600709	-0.647949	0.353271	-0.754395	0.162725	0.046968	-0.028252	0.982987	0.017333	-0.166351	-0.075915	3.596345	-18.929849	-9.432022
02159		15.836589	4.712108	-4.028345	16.793311	2.263104	-8.369745	0.026581	2.105047	0.229425	-0.631592	0.347900	-0.768311	0.157876	0.047308	-0.041941	0.984771	0.018051	-0.156020	-0.074549	3.540204	-17.733865	-9.210748
02160		15.959211	4.651593	-5.357362	17.323098	2.220602	-9.904195	-0.054360	1.570944	-0.188641	-0.628906	0.341797	-0.770264	0.159208	0.046351	-0.054838	0.985905	0.018489	-0.148229	-0.075347	3.521585	-16.827590	-9.261597
02161		15.473235	5.524586	-6.463787	17.317569	3.113808	-11.270484	-0.367174	0.939734	-0.569907	-0.625977	0.347168	-0.776123	0.154582	0.054686	-0.065465	0.986408	0.017436	-0.143397	-0.078310	3.395509	-16.270037	-9.563783
02162		14.268144	5.985056	-6.906039	16.387872	3.627487	-12.130043	-0.824334	0.199199	-0.806249	-0.626709	0.349121	-0.772461	0.142851	0.058989	-0.069447	0.986294	0.014002	-0.142012	-0.082829	3.051892	-16.129653	-10.033376
02163		13.179094	4.662508	-6.247299	14.993122	2.313647	-11.887731	-1.135417	-0.584221	-0.941510	-0.625732	0.343262	-0.775146	0.132190	0.045649	-0.062348	0.985542	0.008809	-0.144346	-0.088286	2.560637	-16.437127	-10.607821
02164		13.374431	3.036441	-4.528181	14.430147	0.491062	-10.165542	-1.100711	-1.226626	-1.031435	-0.629639	0.351074	-0.764160	0.134173	0.029426	-0.044623	0.984206	0.003565	-0.149852	-0.094183	2.113437	-17.115477	-11.250493
02165		12.124967	-13.783659	-3.106318	9.661619	-15.914788	-9.662563	0.803785	-1.842439	-1.234119	-0.654053	0.345703	-0.753906	0.120679	-0.138459	-0.030505	0.982166	0.007558	-0.159258	-0.099650	2.809904	-18.139315	-12.035341
02166		5.279262	3.302553	0.007087	5.522067	2.143738	-7.893472	2.985778	-2.492010	-1.637495	-0.674561	0.321045	-0.742432	0.053050	0.032579	0.001219	0.979037	0.022255	-0.172890	-0.105355	4.868844	-19.502095	-13.121192
02167		2.458186	1.409882	20.288837	-4.691236	0.506838	10.121335	2.342809	-2.222981	-1.179652	-0.685791	0.307861	-0.737305	0.022397	0.011583	0.203291	0.976094	0.033548	-0.184842	-0.109306	6.500419	-20.702294	-13.967654
02168		-2.090383	2.565496	11.323040	-5.684533	2.619906	0.186131	1.785391	-2.300158	-0.302233	-0.696045	0.296143	-0.724365	-0.022168	0.024677	0.113203	0.973403	0.041254	-0.196978	-0.109475	7.650366	-21.990047	-14.322280
02169		-2.681380	1.357427	3.984161	-3.762457	1.764338	-7.049637	1.506767	-3.208377	0.820573	-0.711914	0.295654	-0.704590	-0.027504	0.013164	0.039504	0.970226	0.045995	-0.213548	-0.104612	8.422134	-23.875869	-14.091713
02170		8.164572	7.696414	11.140819	3.621005	5.196301	4.674075	1.329655	-3.632146	1.078734	-0.743164	0.303955	-0.685303	0.079185	0.076646	0.113371	0.966414	0.049359	-0.232071	-0.098744	9.042901	-26.027735	-13.762128
02171		12.234448	11.956814	10.380427	7.634710	8.546000	6.589833	1.017146	-3.173372	0.551126	-0.761230	0.299316	-0.667236	0.120342	0.119365	0.106332	0.962621	0.052038	-0.248004	-0.095642	9.613439	-27.873059	-13.738915
02172		12.190659	9.399575	10.402605	6.646082	6.040191	6.450790	0.798921	-2.917898	-0.122068	-0.783691	0.298340	-0.651367	0.120425	0.093501	0.106164	0.958629	0.054610	-0.262376	-0.095958	10.263076	-29.509113	-14.142055
02173		16.037935	4.270781	11.239330	8.195004	0.090757	8.479077	0.656751	-2.479635	-0.448733	-0.796143	0.292236	-0.641846	0.159063	0.041976	0.114510	0.954905	0.057129	-0.274426	-0.097888	10.934395	-30.858391	-14.732294
02174		19.375857	-1.507649	11.616808	9.448460	-6.371939	9.751523	0.664060	-1.789392	-0.060488	-0.807129	0.288574	-0.635986	0.192705	-0.015524	0.117844	0.952189	0.059482	-0.283274	-0.097744	11.453213	-31.859198	-15.000900
02175		16.692756	3.756754	9.976211	8.678996	-0.607791	7.980239	0.686755	-0.896496	0.116348	-0.822754	0.296875	-0.627441	0.166456	0.037320	0.100637	0.950762	0.062124	-0.287903	-0.096455	11.866720	-32.375864	-15.041892
02176		6.768180	8.196631	8.412871	1.986108	5.961015	2.199412	0.285367	-0.562264	-0.033575	-0.829590	0.301514	-0.635986	0.067458	0.081835	0.084435	0.949843	0.063234	-0.290716	-0.096349	12.081024	-32.689370	-15.139150
02177		5.560627	2.568781	7.536423	0.610408	0.796050	-0.152961	0.122295	-0.580967	0.055212	-0.833984	0.297852	-0.632568	0.055380	0.025657	0.075541	0.948988	0.063431	-0.293545	-0.096065	12.172052	-33.021628	-15.181045
02178		9.352387	2.580251	7.939085	3.393485	-0.048053	2.255269	0.127122	-0.450527	0.083202	-0.845947	0.295898	-0.638184	0.093334	0.025791	0.079618	0.948324	0.063672	-0.295784	-0.095597	12.246451	-33.286403	-15.186333
02179		6.024106	1.253187	7.798871	0.555070	-0.598096	0.087657	0.042545	-0.294504	0.046210	-0.854492	0.301758	-0.635742	0.060123	0.012529	0.078080	0.947902	0.063641	-0.297211	-0.095382	12.273110	-33.457094	-15.193703
02180		6.061710	1.021109	8.119614	0.339082	-0.849079	0.330249	0.056502	-0.258023	0.059218	-0.868896	0.297119	-0.631836	0.060509	0.010206	0.081277	0.947527	0.063675	-0.298494	-0.095071	12.300685	-33.611286	-15.187403
02181		6.607022	2.187258	8.113757	0.923236	0.170903	0.835706	0.040597	-0.181321	0.040515	-0.865723	0.304688	-0.630859	0.065992	0.021869	0.081202	0.947268	0.063697	-0.299381	-0.094849	12.319287	-33.717919	-15.182195
02182		5.383912	2.167640	8.312789	-0.193546	0.409441	0.315615	0.001995	-0.128161	0.047840	-0.876221	0.304443	-0.629395	0.053781	0.021688	0.083163	0.947098	0.063551	-0.300019	-0.094632	12.309294	-33.798078	-15.164540
02183		6.324337	1.586612	7.940292	0.682754	-0.331529	0.433616	-0.008099	-0.114021	0.055142	-0.886963	0.311035	-0.627441	0.063194	0.015887	0.079438	0.946961	0.063352	-0.300568	-0.094392	12.288969	-33.868820	-15.139552
02184		5.921037	1.992987	7.826808	0.472718	0.165287	0.189252	-0.020185	-0.081180	0.046753	-0.889160	0.312256	-0.630127	0.059174	0.019952	0.078290	0.946867	0.063125	-0.300974	-0.094198	12.262753	-33.922560	-15.115649
02185		6.147709	1.533672	7.717138	0.646146	-0.317779	0.146339	-0.037019	-0.082213	0.039747	-0.892090	0.306396	-0.636475	0.061442	0.015363	0.077194	0.946779	0.062827	-0.301354	-0.094065	12.228955	-33.973602	-15.096280
02186		6.096101	1.751501	7.627429	0.680152	-0.082393	0.083699	-0.025169	-0.075249	0.035378	-0.885986	0.307617	-0.635254	0.060929	0.017535	0.076295	0.946689	0.062596	-0.301725	-0.093930	12.203612	-34.022662	-15.079105
02187		5.946091	1.773800	7.846938	0.428473	-0.036521	0.181905	-0.019456	-0.072936	0.030958	-0.890869	0.322510	-0.639404	0.059430	0.017755	0.078489	0.946606	0.062399	-0.302066	-0.093809	12.182373	-34.067430	-15.064242
02188		5.645857	1.869028	8.017287	0.095122	0.115833	0.168464	-0.029432	-0.073711	0.028812	-0.887939	0.325928	-0.642090	0.056426	0.018710	0.080191	0.946516	0.062159	-0.302427	-0.093711	12.156899	-34.114867	-15.051223
02189		5.557065	1.971016	7.929820	0.083084	0.245646	0.065605	-0.029731	-0.069841	0.040897	-0.908203	0.330811	-0.637451	0.055539	0.019733	0.079315	0.946444	0.061900	-0.302752	-0.093557	12.125688	-34.159088	-15.029119
02190		5.546119	2.100630	8.168321	-0.052951	0.367696	0.274708	-0.054082	-0.057577	0.058599	-0.905273	0.326904	-0.638184	0.055432	0.021045	0.081693	0.946400	0.061505	-0.303033	-0.093351	12.073395	-34.201065	-14.993514
02191		5.855537	2.146332	7.805463	0.407069	0.377949	0.162820	-0.062673	-0.081333	0.074409	-0.914063	0.336670	-0.639893	0.058516	0.021510	0.078072	0.946337	0.061034	-0.303407	-0.093092	12.011375	-34.255700	-14.950243
02192		6.042566	2.026728	7.708219	0.589989	0.239204	0.168873	-0.078023	-0.070704	0.085215	-0.916992	0.333740	-0.638428	0.060390	0.020323	0.077096	0.946291	0.060480	-0.303748	-0.092800	11.936149	-34.308149	-14.898337
02193		6.110224	1.714016	7.614239	0.649506	-0.062344	0.077893	-0.073549	-0.081847	0.074327	-0.910156	0.343506	-0.640625	0.061065	0.017191	0.076161	0.946229	0.059957	-0.304119	-0.092558	11.867781	-34.362975	-14.854978
02194		6.083190	1.050466	7.717712	0.467953	-0.699596	0.034309	-0.050707	-0.081742	0.052452	-0.920166	0.348633	-0.644531	0.060798	0.010540	0.077199	0.946143	0.059576	-0.304515	-0.092383	11.821488	-34.417708	-14.826714
02195		5.596580	1.154437	7.995371	-0.075320	-0.504056	0.001621	-0.031655	-0.071338	0.021542	-0.928955	0.347412	-0.641113	0.055936	0.011563	0.079972	0.946059	0.059337	-0.304840	-0.092324	11.796423	-34.460393	-14.817593
02196		5.495846	1.083535	7.874693	-0.102289	-0.541506	-0.164607	-0.006464	-0.091843	-0.003549	-0.935791	0.348877	-0.644287	0.054922	0.010837	0.078772	0.945918	0.059246	-0.305287	-0.092349	11.797747	-34.514242	-14.828772
02197		5.706385	1.070243	7.905179	0.037225	-0.599491	-0.022931	0.007604	-0.086815	-0.019701	-0.938965	0.346680	-0.645752	0.057031	0.010694	0.079077	0.945780	0.059248	-0.305691	-0.092430	11.812323	-34.560772	-14.849919
02198		5.500608	1.475926	7.965573	-0.114728	-0.165264	-0.022645	0.032936	-0.084036	-0.048997	-0.933105	0.344238	-0.647949	0.054976	0.014733	0.079681	0.945617	0.059416	-0.306106	-0.092607	11.853171	-34.604916	-14.890979
02199		5.644406	1.307174	7.669445	0.142260	-0.348286	-0.208165	0.044650	-0.089725	-0.063022	-0.941162	0.349365	-0.640137	0.056414	0.013037	0.076723	0.945443	0.059658	-0.306528	-0.092837	11.906064	-34.647945	-14.942158
02200		5.938862	1.581167	7.586694	0.453463	-0.145260	-0.060695	0.064620	-0.093319	-0.076479	-0.945801	0.353027	-0.640381	0.059359	0.015764	0.075900	0.945244	0.060014	-0.306994	-0.093098	11.976606	-34.693985	-15.003425
02201		5.542089	1.645740	7.937131	-0.069150	-0.025130	0.006469	0.056027	-0.084448	-0.084215	-0.953125	0.352051	-0.647461	0.055394	0.016412	0.079399	0.945064	0.060345	-0.307389	-0.093409	12.043971	-34.731435	-15.068459
02202		5.268620	1.644172	8.161999	-0.429793	0.011636	0.030839	0.059900	-0.106299	-0.085888	-0.947266	0.354004	-0.637451	0.052650	0.016395	0.081653	0.944840	0.060687	-0.307911	-0.093726	12.116739	-34.783519	-15.138235
02203		5.504482	1.734253	8.079293	-0.192377	0.045759	0.114186	0.064609	-0.112832	-0.092432	-0.961914	0.354248	-0.639893	0.055007	0.017291	0.080830	0.944609	0.061057	-0.308441	-0.094071	12.194802	-34.835739	-15.213238
02204		4.944130	1.542696	8.317039	-0.816314	-0.041238	-0.049011	0.053680	-0.115333	-0.085700	-0.964111	0.352051	-0.635498	0.049400	0.015383	0.083203	0.944373	0.061365	-0.309003	-0.094400	12.264952	-34.892746	-15.284474
02205		5.814338	1.735075	7.841490	0.168516	-0.021810	0.100792	0.068445	-0.156813	-0.090978	-0.960693	0.345459	-0.632568	0.058090	0.017297	0.078466	0.944072	0.061731	-0.309743	-0.094745	12.348686	-34.969603	-15.365315
02206		5.997775	1.815955	7.625604	0.436916	0.022059	0.047811	0.062403	-0.164551	-0.085220	-0.965332	0.355469	-0.630127	0.059923	0.018110	0.076311	0.943756	0.062056	-0.310540	-0.095073	12.428217	-35.054041	-15.443926
02207		5.910389	1.831564	7.651952	0.336956	0.048132	0.022139	0.053990	-0.186553	-0.082727	-0.977539	0.339844	-0.618896	0.059040	0.018271	0.076580	0.943415	0.062326	-0.311416	-0.095410	12.503452	-35.148372	-15.524048
02208		5.865481	1.810379	7.806977	0.186532	0.022362	0.116809	0.056439	-0.188901	-0.077628	-0.982666	0.327637	-0.620605	0.058588	0.018059	0.078130	0.943065	0.062599	-0.312327	-0.095719	12.579194	-35.247232	-15.601631
02209		5.794363	1.718622	7.853922	0.069586	-0.059268	0.097106	0.043962	-0.210314	-0.075969	-0.992432	0.334473	-0.618408	0.057868	0.017147	0.078604	0.942691	0.062800	-0.313311	-0.096048	12.648629	-35.355525	-15.681262
02210		5.409211	1.853219	7.951067	-0.293918	0.146875	-0.024661	0.042923	-0.223551	-0.077830	-0.994873	0.330811	-0.606934	0.054010	0.018494	0.079575	0.942288	0.062993	-0.314379	-0.096389	12.720351	-35.473586	-15.764846
02211		5.905089	1.658590	7.788336	0.141681	-0.146788	0.098796	0.049018	-0.263128	-0.071559	-0.995850	0.324951	-0.611816	0.058954	0.016546	0.077965	0.941830	0.063186	-0.315615	-0.096705	12.796304	-35.611785	-15.850236
02212		5.937989	1.916152	7.660498	0.254520	0.099744	0.063536	0.050176	-0.279415	-0.086179	-0.992188	0.324707	-0.602539	0.059281	0.019117	0.076693	0.941329	0.063399	-0.316945	-0.097091	12.881361	-35.759811	-15.948993
02213		5.947736	1.878309	7.697971	0.205709	0.054359	0.092716	0.043405	-0.299350	-0.083307	-1.004883	0.326172	-0.595703	0.059370	0.018742	0.077073	0.940805	0.063566	-0.318344	-0.097483	12.963017	-35.916534	-16.049005
02214		6.163738	2.233404	7.598113	0.454631	0.354169	0.206238	0.032218	-0.329668	-0.078634	-1.002686	0.310303	-0.594238	0.061521	0.022298	0.076086	0.940228	0.063658	-0.319903	-0.097878	13.040436	-36.093379	-16.151488
02215		5.355456	2.231811	8.282483	-0.627032	0.495461	0.268119	-0.007528	-0.379176	-0.075456	-1.008301	0.316650	-0.578857	0.053406	0.022301	0.082925	0.939592	0.063533	-0.321653	-0.098339	13.098336	-36.295462	-16.259838
02216		5.294170	1.044904	8.501773	-1.022358	-0.653008	0.183731	-0.022360	-0.481654	-0.082770	-1.017578	0.314453	-0.580811	0.052741	0.010437	0.085144	0.938779	0.063301	-0.323896	-0.098888	13.162054	-36.556382	-16.390842
02217		5.338951	2.501660	8.368979	-0.745938	0.764562	0.368731	0.068699	-0.557111	-0.034920	-1.018555	0.312012	-0.575928	0.053160	0.024979	0.083847	0.937840	0.063380	-0.326528	-0.099090	13.265741	-36.862804	-16.501414
02218		5.889177	1.958388	7.866467	-0.147952	0.141586	0.205133	0.058828	-0.633497	-0.018793	-1.028320	0.303711	-0.555176	0.058644	0.019555	0.078856	0.936771	0.063348	-0.329538	-0.099254	13.366571	-37.216438	-16.614943
02219		6.114896	2.008798	7.699660	0.071044	0.152962	0.221411	0.055354	-0.693384	-0.013150	-1.033203	0.301270	-0.549316	0.060883	0.020063	0.077214	0.935605	0.063260	-0.332802	-0.099418	13.469725	-37.601384	-16.735449
02220		6.334955	2.263867	7.492636	0.333501	0.368182	0.244602	0.054035	-0.769499	0.005947	-1.042236	0.292236	-0.546143	0.063060	0.022620	0.075175	0.934302	0.063096	-0.336446	-0.099515	13.574210	-38.033769	-16.857401
02221		5.878162	1.983665	7.928005	-0.409044	0.186757	0.244063	0.053952	-0.824960	0.016690	-1.041992	0.291748	-0.531006	0.058452	0.019820	0.079527	0.932903	0.062884	-0.340324	-0.099580	13.680866	-38.495657	-16.982565
02222		5.943682	1.681213	7.867377	-0.449882	-0.108755	0.179037	0.055115	-0.904232	0.016698	-1.048096	0.290771	-0.508057	0.059079	0.016795	0.078946	0.931344	0.062638	-0.344589	-0.099663	13.799781	-39.004122	-17.124063
02223		5.964560	1.823110	7.695170	-0.392995	0.043678	0.084699	0.062433	-0.962300	0.012490	-1.054932	0.288574	-0.496094	0.059273	0.018211	0.077243	0.929668	0.062402	-0.349096	-0.099772	13.933046	-39.541415	-17.280873
02224		6.182460	1.709802	7.670816	-0.330512	-0.104039	0.180647	0.072187	-1.023402	0.018903	-1.068115	0.278076	-0.482666	0.061429	0.017076	0.077029	0.927855	0.062169	-0.353908	-0.099849	14.079940	-40.115899	-17.447568
02225		6.383407	1.977890	7.473004	-0.118115	0.130616	0.210972	0.089289	-1.086838	0.018993	-1.072021	0.273682	-0.457764	0.063425	0.019751	0.075084	0.925905	0.061981	-0.358991	-0.099914	14.246878	-40.722654	-17.628862
02226		6.241811	1.797947	7.437598	-0.332004	0.001145	0.056426	0.099547	-1.142983	0.032077	-1.083252	0.265137	-0.441406	0.061989	0.017952	0.074740	0.923822	0.061788	-0.364354	-0.099912	14.425422	-41.364634	-17.815783
02227		6.743251	1.873959	7.211659	0.075177	-0.018783	0.236389	0.116627	-1.213446	0.040426	-1.085205	0.265137	-0.423584	0.066989	0.018711	0.072535	0.921584	0.061620	-0.370018	-0.099861	14.622487	-42.043812	-18.014209
02228		6.362262	1.951178	7.600175	-0.578418	0.141871	0.271559	0.125646	-1.282763	0.066406	-1.086182	0.265381	-0.409912	0.063127	0.019485	0.076420	0.919184	0.061410	-0.376022	-0.099688	14.827202	-42.767275	-18.212843
02229		6.352438	2.144507	7.532365	-0.643749	0.350529	0.244650	0.147999	-1.363254	0.100530	-1.088867	0.264893	-0.386963	0.062998	0.021421	0.075770	0.916610	0.061194	-0.382378	-0.099340	15.043229	-43.537182	-18.407297
02230		6.216183	2.020863	7.805964	-1.091296	0.269959	0.306218	0.172094	-1.442633	0.154764	-1.095459	0.255859	-0.356201	0.061581	0.020189	0.078523	0.913849	0.060944	-0.389129	-0.098714	15.263189	-44.361140	-18.583921
02231		6.855299	2.239158	7.259936	-0.387525	0.376121	0.406011	0.227080	-1.552957	0.201624	-1.089355	0.252930	-0.323975	0.067964	0.022377	0.073154	0.910836	0.060795	-0.396382	-0.097796	15.511643	-45.250067	-18.754362
02232		6.889357	1.928564	7.350181	-0.638912	0.085173	0.423997	0.251764	-1.678224	0.233864	-1.090820	0.256348	-0.305664	0.068251	0.019273	0.074101	0.907511	0.060630	-0.404221	-0.096713	15.785019	-46.215055	-18.936386
02233		6.870110	1.788056	7.367607	-0.864329	-0.025056	0.381743	0.298971	-1.842118	0.239621	-1.104492	0.249268	-0.273682	0.067997	0.017852	0.074331	0.903779	0.060582	-0.412774	-0.095552	16.118512	-47.268030	-19.161513
02234		6.688161	1.193976	7.847047	-1.617606	-0.556841	0.424632	0.335691	-2.019994	0.206275	-1.097168	0.251953	-0.243652	0.066072	0.011876	0.079160	0.899556	0.060679	-0.422119	-0.094508	16.540164	-48.414878	-19.472509
02235		6.458498	0.869752	7.922762	-2.075829	-0.806968	0.201009	0.386768	-2.217179	0.143437	-1.099854	0.254883	-0.215820	0.063695	0.008589	0.079954	0.894777	0.061037	-0.432286	-0.093690	17.088310	-49.655182	-19.907260
02236		6.958107	1.492174	7.953214	-1.967569	-0.298257	0.672030	0.445863	-2.443750	0.098509	-1.098145	0.253174	-0.181152	0.068595	0.014777	0.080407	0.889333	0.061643	-0.443440	-0.092999	17.779538	-51.010852	-20.474992
02237		6.859561	1.607063	8.418248	-2.661437	-0.168257	0.835505	0.557020	-2.686986	0.103220	-1.099121	0.261963	-0.146973	0.067448	0.015869	0.085138	0.883174	0.062608	-0.455632	-0.092102	18.631088	-52.492392	-21.155090
02238		6.873199	0.328899	8.060816	-2.798130	-1.404839	0.312237	0.636463	-2.981441	0.026900	-1.095947	0.258057	-0.112793	0.067520	0.003039	0.081631	0.876090	0.063950	-0.469060	-0.091431	19.723585	-54.113807	-22.064364
02239		7.122594	-0.192680	7.473679	-2.548210	-1.959424	-0.000373	0.722834	-3.324513	-0.139425	-1.093994	0.252441	-0.077881	0.069969	-0.002249	0.075899	0.867878	0.065885	-0.483836	-0.091375	21.188102	-55.871399	-23.348682
02240		6.319652	1.327896	8.356169	-3.921720	-0.338258	-0.013737	0.876758	-3.650852	-0.176632	-1.080078	0.256592	-0.036133	0.061668	0.012854	0.084754	0.858522	0.068408	-0.499946	-0.091183	23.031969	-57.774344	-24.952873
02241		7.132202	1.682075	8.147468	-3.713111	-0.197152	0.494377	1.083416	-4.007238	-0.181947	-1.077881	0.245850	0.012207	0.069685	0.016310	0.082971	0.847874	0.071643	-0.517467	-0.090586	25.356002	-59.827166	-26.945747
02242		7.525440	1.880791	8.601234	-4.378509	-0.145709	0.908122	1.288683	-4.294505	-0.185276	-1.069336	0.248291	0.061768	0.073400	0.018178	0.087720	0.836003	0.075592	-0.536069	-0.089530	28.251922	-61.978893	-29.415940
02243		6.735983	2.471971	8.240065	-4.806053	0.588149	-0.019015	1.138108	-4.657701	-0.135546	-1.060059	0.245361	0.110840	0.065431	0.024200	0.084078	0.822796	0.078575	-0.555837	-0.088761	31.657191	-64.254394	-32.503802
02244		9.545288	1.771915	7.549489	-3.715962	-0.745058	1.885574	1.049565	-5.098474	-0.144655	-1.047119	0.258545	0.155273	0.093498	0.017246	0.077987	0.807872	0.080974	-0.577038	-0.088391	35.961118	-66.639960	-36.574770
02245		10.434707	3.267443	8.531020	-4.944141	0.450557	3.135016	1.227481	-5.291077	-0.108180	-1.031494	0.263184	0.208740	0.102056	0.032083	0.088229	0.791773	0.083845	-0.598691	-0.087378	41.420795	-68.971512	-41.711941
02246		11.005501	9.011177	7.632225	-4.454076	5.912944	4.530050	1.129230	-5.481557	0.156927	-0.999756	0.268799	0.264160	0.107829	0.089753	0.079806	0.774652	0.085386	-0.620720	-0.085621	47.998296	-71.273487	-48.017610
02247		14.757478	4.368045	9.182856	-6.165540	0.547459	7.003489	0.595183	-5.793443	0.539544	-0.986572	0.266357	0.311523	0.144712	0.043792	0.096179	0.756327	0.083468	-0.643373	-0.084104	55.991641	-73.568956	-56.043742
02248		10.793047	4.494977	7.636982	-6.120915	1.726185	2.617692	1.127430	-5.941110	0.384547	-0.951172	0.282227	0.361328	0.105508	0.044711	0.079781	0.736565	0.083926	-0.666180	-0.081448	67.046103	-75.397334	-66.843715
02249		20.611225	8.447397	9.122061	-7.632568	3.428117	12.753038	0.318879	-6.138455	0.770006	-0.933350	0.290283	0.413818	0.202854	0.085107	0.097616	0.715955	0.079963	-0.688914	-0.080073	80.404762	-76.819665	-80.413727
02250		19.670615	1.559849	10.434294	-10.234306	-2.786326	9.823999	-0.307439	-5.680617	0.797571	-0.892578	0.302979	0.449219	0.193573	0.016541	0.109846	0.696542	0.073777	-0.709158	-0.080502	94.400881	-77.432150	-94.949115
02251		15.437148	0.916717	11.676180	-12.359788	-2.193015	4.945815	-0.308446	-5.401775	0.437033	-0.870361	0.306152	0.489746	0.151123	0.009684	0.120858	0.677432	0.068918	-0.727742	-0.082024	107.899325	-77.080536	-108.968056
02252		10.728275	0.256255	12.997548	-13.989738	-1.558742	-0.545078	-0.481833	-5.291890	0.178551	-0.833984	0.308350	0.527832	0.103792	0.002974	0.132746	0.658188	0.064408	-0.745267	-0.084955	119.403616	-75.955599	-121.081164
02253		4.391500	1.138563	10.685559	-11.199919	0.746450	-6.856686	-0.711150	-5.128099	0.014816	-0.800049	0.301025	0.569336	0.041156	0.011771	0.107893	0.639104	0.059779	-0.761592	-0.089168	128.230494	-74.325360	-130.634511
02254		1.069618	2.348856	8.635280	-8.602153	2.683041	-9.937502	-1.136623	-5.270866	-0.104355	-0.774658	0.296387	0.597656	0.008431	0.023975	0.086460	0.619112	0.054137	-0.777609	-0.095363	134.982730	-72.274932	-138.364040
02255		24.073923	6.213086	15.832154	-21.031413	2.675379	10.662432	-2.052641	-4.279610	-0.595839	-0.746338	0.273682	0.617676	0.237475	0.063076	0.162782	0.602577	0.048010	-0.789490	-0.106309	138.058237	-70.262359	-142.854537
02256		21.525941	0.027555	17.024672	-22.280766	-2.312303	6.043097	-2.764791	-1.558456	-0.938897	-0.743164	0.249512	0.621582	0.213930	0.001638	0.171901	0.596531	0.042514	-0.792368	-0.120405	137.032758	-69.245148	-143.452391
02257		15.435894	-5.545122	16.248480	-20.359529	-6.263992	-0.908875	-2.294557	0.552051	-1.341411	-0.752686	0.236084	0.618164	0.154440	-0.054621	0.162688	0.598352	0.041279	-0.788978	-0.133360	133.708891	-68.933356	-141.303507
02258		8.554342	-6.519833	13.225873	-15.631489	-6.063590	-6.731124	-1.333615	1.855297	-1.663913	-0.772217	0.201660	0.597168	0.086227	-0.065034	0.131895	0.604811	0.045045	-0.782093	-0.143195	129.234831	-68.929176	-137.330847
02259		3.469555	-4.668465	10.417921	-11.380620	-3.567145	-10.158620	-0.531922	2.438077	-1.774618	-0.799561	0.194336	0.567871	0.035549	-0.046721	0.103874	0.613133	0.052082	-0.773844	-0.150067	124.444147	-68.956388	-132.526221
02260		1.654152	-1.690389	8.912959	-9.178872	-0.577452	-10.480255	-0.203822	2.620868	-1.641535	-0.825928	0.184326	0.547363	0.017569	-0.016955	0.088921	0.622062	0.059725	-0.765109	-0.155178	119.712586	-68.963897	-127.585443
02261		1.703803	0.667167	8.037286	-8.104380	1.424961	-9.333042	-0.395496	2.710174	-1.269727	-0.834717	0.171387	0.520508	0.018167	0.006717	0.080119	0.631502	0.065414	-0.755903	-0.159805	115.022191	-69.035325	-122.806332
02262		2.595864	1.355584	7.645977	-7.799998	1.689395	-7.985681	-0.850747	2.844902	-0.764574	-0.864014	0.156494	0.500244	0.027094	0.013778	0.076021	0.641892	0.067838	-0.745869	-0.164476	110.128543	-69.263616	-118.095375
02263		3.890252	0.090374	7.371701	-7.815878	0.028308	-6.916242	-1.236423	3.077792	-0.285972	-0.895264	0.144775	0.456055	0.040032	0.001300	0.073100	0.653475	0.067424	-0.734770	-0.168928	104.799224	-69.640640	-113.162867
02264		4.853162	-1.902528	7.082807	-7.798209	-2.201855	-6.396339	-1.269934	3.410727	0.058828	-0.916504	0.134033	0.421387	0.049737	-0.018564	0.070106	0.666422	0.065883	-0.722415	-0.172214	98.855644	-70.080964	-107.611810
02265		5.213518	-2.828250	6.790572	-7.532817	-3.254001	-6.077584	-0.990662	3.781486	0.283493	-0.938477	0.143066	0.386963	0.053448	-0.027874	0.067042	0.680533	0.064768	-0.708913	-0.173557	92.313827	-70.457827	-101.267707
02266		4.954243	-2.302279	6.548245	-7.030460	-2.766019	-5.858392	-0.633489	4.107884	0.461811	-0.971436	0.142334	0.339844	0.050927	-0.022701	0.064518	0.695599	0.064479	-0.694339	-0.172852	85.237334	-70.677759	-94.153952
02267		4.393491	-0.967850	6.360653	-6.442532	-1.429994	-5.673054	-0.404297	4.322386	0.672447	-0.998047	0.144043	0.297852	0.045328	-0.009400	0.062656	0.711158	0.064426	-0.679002	-0.170469	77.842738	-70.698171	-86.567047
02268		4.314031	0.563127	6.510420	-6.151757	-0.016190	-4.969237	-0.387384	4.431357	0.934381	-1.016357	0.152100	0.245361	0.044541	0.005962	0.064116	0.726989	0.063588	-0.662995	-0.166977	70.233768	-70.517661	-78.741631
02269		5.240384	1.407816	6.757104	-5.953362	0.459304	-3.532890	-0.509247	4.519492	1.228774	-1.042236	0.163574	0.199951	0.053824	0.014576	0.066329	0.742966	0.061387	-0.646345	-0.162702	62.504790	-70.126992	-70.846574
02270		6.592747	1.385073	6.983370	-5.699452	0.015581	-1.961036	-0.629523	4.666373	1.474876	-1.060059	0.184570	0.136963	0.067426	0.014561	0.068227	0.759262	0.058012	-0.628703	-0.157762	54.712356	-69.454892	-62.933685
02271		7.720535	1.227537	7.154017	-5.292829	-0.456401	-0.644962	-0.654289	4.894390	1.614306	-1.067871	0.202148	0.083252	0.078821	0.013137	0.069582	0.775862	0.054263	-0.609860	-0.152202	47.157324	-68.406028	-55.242911
02272		8.319412	1.284896	7.175600	-4.680156	-0.557138	0.192810	-0.606348	5.139178	1.649514	-1.086670	0.219238	0.030762	0.084889	0.013758	0.069548	0.792713	0.050725	-0.589629	-0.146187	40.165336	-66.923526	-48.066257
02273		8.398484	1.778933	7.263165	-4.110658	-0.076029	0.652434	-0.548778	5.327503	1.598238	-1.097168	0.238525	-0.040771	0.085732	0.018665	0.070313	0.809424	0.047682	-0.568284	-0.140045	34.065265	-65.041065	-41.736156
02274		8.516537	2.495654	7.388319	-3.486357	0.611206	1.177603	-0.549286	5.426084	1.496126	-1.080078	0.252197	-0.105469	0.086935	0.025801	0.071470	0.825742	0.044941	-0.546009	-0.134184	28.910991	-62.831026	-36.355559
02275		8.985006	3.075812	7.621489	-2.810922	1.085543	1.984025	-0.628381	5.474944	1.362197	-1.091797	0.270020	-0.170654	0.091676	0.031612	0.073623	0.841417	0.042254	-0.523067	-0.128973	24.637364	-60.381443	-31.910423
02276		9.621544	3.242850	8.055683	-2.232630	1.139569	2.901847	-0.722808	5.498996	1.218193	-1.080322	0.283691	-0.234131	0.098178	0.033307	0.077756	0.856440	0.039511	-0.499448	-0.124506	21.089058	-57.742233	-28.262968
02277		10.359710	3.182955	8.564069	-1.610037	0.956890	3.870949	-0.792582	5.513932	1.070232	-1.066162	0.301270	-0.291748	0.105729	0.032723	0.082617	0.870693	0.036832	-0.475351	-0.120743	18.164084	-54.972338	-25.298341
02278		11.084159	3.072328	9.111794	-0.923791	0.729941	4.811975	-0.821589	5.541872	0.927177	-1.050537	0.308594	-0.356445	0.113162	0.031610	0.087875	0.884263	0.034339	-0.450640	-0.117570	15.738906	-52.082287	-22.874372
02279		11.887550	3.124559	9.813120	-0.175472	0.645647	5.899141	-0.858566	5.566607	0.805982	-1.021729	0.317139	-0.400879	0.121414	0.032143	0.094638	0.897074	0.031958	-0.425477	-0.114916	13.709464	-49.114935	-20.887824
02280		12.692674	2.935910	10.440917	0.713254	0.322115	6.862143	-0.877752	5.575947	0.714996	-0.992920	0.322266	-0.456299	0.129662	0.030267	0.100688	0.909160	0.029650	-0.399834	-0.112617	11.979601	-46.083201	-19.232960
