// General information: 
//  MT Manager version: 2019.2.0 
//  XDA version: 2019.2.0 build 3853 rev 94535 built on 2019-09-09
// Device information: 
//  DeviceId: 00B47796
//  ProductCode: MTW2-3A7G6
//  Firmware Version: 4.6.0
//  Hardware Version: 2.0.0
// Device settings: 
//  Filter Profile: human(46.1)
//  Option Flags: Orientation Smoother Disabled, AHS Disabled, ICC Disabled
// Coordinate system: ENU
PacketCounter	SampleTimeFine	Acc_X	Acc_Y	Acc_Z	FreeAcc_E	FreeAcc_N	FreeAcc_U	Gyr_X	Gyr_Y	Gyr_Z	Mag_X	Mag_Y	Mag_Z	VelInc_X	VelInc_Y	VelInc_Z	Quat_q0	Quat_q1	Quat_q2	Quat_q3	Roll	Pitch	Yaw
06230		4.908044	-1.608825	8.184687	0.007806	0.067992	-0.134793	-0.001742	-0.008285	0.003455	-0.697266	0.196289	-0.611816	0.049077	-0.016087	0.081849	-0.134426	-0.249322	0.119019	-0.951631	-10.659930	-30.432600	166.826641
06231		4.895065	-1.550939	8.185864	0.002074	0.009536	-0.149595	-0.003195	-0.008774	0.001234	-0.698975	0.193115	-0.619141	0.048947	-0.015508	0.081861	-0.134409	-0.249389	0.119080	-0.951609	-10.667685	-30.441084	166.831273
06232		4.941582	-1.560335	8.171991	-0.039126	0.030417	-0.136280	0.001528	-0.004428	-0.001165	-0.705811	0.203125	-0.614502	0.049414	-0.015604	0.081721	-0.134395	-0.249441	0.119111	-0.951593	-10.671684	-30.447443	166.834374
06233		4.898011	-1.592148	8.220788	0.030036	0.036634	-0.111937	0.003370	-0.003924	-0.004859	-0.699463	0.202148	-0.621094	0.048978	-0.015924	0.082209	-0.134394	-0.249493	0.119128	-0.951577	-10.673409	-30.453891	166.835292
06234		4.898383	-1.591500	8.220691	0.030487	0.035782	-0.111936	0.006846	-0.003330	-0.004454	-0.694824	0.195801	-0.622314	0.048982	-0.015919	0.082207	-0.134390	-0.249545	0.119129	-0.951564	-10.673205	-30.459980	166.836111
06235		4.946962	-1.568292	8.193697	-0.028765	0.031480	-0.113882	0.007159	0.001602	-0.006984	-0.698242	0.201416	-0.609863	0.049470	-0.015688	0.081936	-0.134408	-0.249573	0.119124	-0.951555	-10.671696	-30.463369	166.833751
06236		4.930713	-1.540918	8.209107	-0.016463	-0.001798	-0.113434	0.006745	0.004452	-0.004214	-0.695801	0.192871	-0.602295	0.049309	-0.015413	0.082089	-0.134408	-0.249588	0.119121	-0.951552	-10.671143	-30.465051	166.833768
06237		4.923552	-1.562068	8.201017	-0.007028	0.018898	-0.120541	0.005474	0.003564	-0.004555	-0.701416	0.194580	-0.611084	0.049237	-0.015624	0.082009	-0.134407	-0.249607	0.119124	-0.951546	-10.671344	-30.467355	166.834049
06238		4.929941	-1.539464	8.209843	-0.015549	-0.003519	-0.113432	0.003559	0.011652	-0.010298	-0.703125	0.197754	-0.616943	0.049303	-0.015399	0.082095	-0.134444	-0.249589	0.119123	-0.951546	-10.670153	-30.465629	166.829206
06239		4.947844	-1.533411	8.181717	-0.044970	0.002876	-0.129146	0.009105	0.006626	-0.005415	-0.699219	0.192139	-0.616455	0.049481	-0.015339	0.081815	-0.134446	-0.249596	0.119105	-0.951546	-10.667723	-30.466244	166.828342
06240		4.917278	-1.550048	8.180618	-0.014726	0.012733	-0.142920	0.001326	0.011135	-0.000688	-0.697021	0.195313	-0.618652	0.049177	-0.015501	0.081803	-0.134440	-0.249573	0.119128	-0.951550	-10.671026	-30.463789	166.829840
06241		4.898080	-1.554874	8.209747	0.015589	0.004642	-0.127208	0.003607	0.005925	-0.004007	-0.704834	0.202148	-0.614746	0.048983	-0.015551	0.082096	-0.134452	-0.249577	0.119140	-0.951546	-10.672183	-30.464531	166.828671
06242		4.904494	-1.532517	8.218503	0.007070	-0.017777	-0.120108	0.002493	0.007503	-0.005613	-0.706299	0.189941	-0.613281	0.049048	-0.015328	0.082183	-0.134466	-0.249575	0.119153	-0.951543	-10.673413	-30.464644	166.827399
06243		4.876427	-1.517624	8.203795	0.019301	-0.033091	-0.149173	0.003011	0.009173	-0.003119	-0.705811	0.197266	-0.615723	0.048768	-0.015178	0.082035	-0.134462	-0.249565	0.119165	-0.951544	-10.675075	-30.463634	166.828163
06244		4.901179	-1.592192	8.165559	0.005007	0.052480	-0.157108	0.001403	0.006217	-0.004073	-0.699219	0.190918	-0.607422	0.049014	-0.015923	0.081654	-0.134469	-0.249568	0.119186	-0.951540	-10.677520	-30.464308	166.828055
06245		4.907635	-1.569955	8.174268	-0.003497	0.030060	-0.150008	0.003788	0.005527	-0.002127	-0.698730	0.193115	-0.617676	0.049078	-0.015702	0.081741	-0.134462	-0.249575	0.119198	-0.951538	-10.679267	-30.465244	166.829409
06246		4.920880	-1.525768	8.191425	-0.020981	-0.013932	-0.135816	0.001378	0.009080	-0.007221	-0.711914	0.197021	-0.613525	0.049212	-0.015260	0.081912	-0.134485	-0.249566	0.119213	-0.951535	-10.680504	-30.464640	166.826892
06247		4.913454	-1.546980	8.183496	-0.011556	0.006790	-0.142909	0.009466	0.005831	-0.001655	-0.706543	0.188721	-0.608398	0.049137	-0.015474	0.081833	-0.134468	-0.249575	0.119199	-0.951537	-10.679130	-30.465324	166.828654
06248		4.894496	-1.551580	8.212508	0.018777	-0.001319	-0.127213	0.000132	0.005329	-0.004415	-0.700439	0.205322	-0.611572	0.048947	-0.015517	0.082124	-0.134477	-0.249581	0.119226	-0.951530	-10.682245	-30.466534	166.828432
06249		4.937585	-1.592102	8.212925	-0.004373	0.044683	-0.098540	0.006148	0.007701	-0.003328	-0.705322	0.194580	-0.615967	0.049379	-0.015924	0.082127	-0.134469	-0.249581	0.119223	-0.951532	-10.682179	-30.466405	166.829407
06250		4.863640	-1.567779	8.211650	0.049480	0.007692	-0.140996	0.003606	0.005925	-0.004009	-0.705566	0.199951	-0.617188	0.048639	-0.015680	0.082115	-0.134472	-0.249587	0.119234	-0.951529	-10.683400	-30.467236	166.829377
06251		4.879614	-1.492076	8.215043	0.013981	-0.061473	-0.142119	-0.000181	0.000397	-0.001881	-0.712158	0.193115	-0.612305	0.048796	-0.014921	0.082150	-0.134463	-0.249616	0.119268	-0.951518	-10.687858	-30.470978	166.831871
06252		4.914037	-1.586594	8.220164	0.017805	0.031270	-0.105224	-0.003058	-0.003447	-0.003175	-0.703857	0.202393	-0.619629	0.049139	-0.015865	0.082203	-0.134465	-0.249661	0.119318	-0.951500	-10.693760	-30.476998	166.833542
06253		4.866577	-1.536091	8.197814	0.032815	-0.020025	-0.156300	-0.004460	-0.009664	0.000900	-0.707031	0.196533	-0.614990	0.048662	-0.015359	0.081981	-0.134439	-0.249733	0.119383	-0.951476	-10.702233	-30.486153	166.839488
06254		4.910997	-1.577436	8.197281	0.009649	0.025976	-0.127603	-0.007543	-0.010247	-0.005424	-0.708984	0.197266	-0.615479	0.049105	-0.015773	0.081976	-0.134453	-0.249809	0.119456	-0.951445	-10.710387	-30.496239	166.840532
06255		4.907555	-1.567721	8.174744	0.001042	0.021541	-0.149984	0.000184	-0.012700	-0.003619	-0.704590	0.193604	-0.616455	0.049070	-0.015678	0.081751	-0.134442	-0.249902	0.119494	-0.951418	-10.714876	-30.507590	166.843752
06256		4.915665	-1.546082	8.182338	-0.007468	-0.000888	-0.142903	-0.008945	-0.016464	-0.001351	-0.697510	0.194580	-0.614502	0.049150	-0.015457	0.081828	-0.134435	-0.250004	0.119583	-0.951381	-10.725578	-30.520742	166.848230
06257		4.898500	-1.551939	8.210052	0.022869	-0.008995	-0.127226	-0.008765	-0.016862	0.000529	-0.699463	0.195801	-0.615479	0.048978	-0.015516	0.082105	-0.134424	-0.250106	0.119675	-0.951344	-10.736772	-30.533881	166.853332
06258		4.918405	-1.547491	8.180425	-0.006573	-0.002579	-0.142903	-0.008947	-0.016464	-0.001353	-0.701172	0.192871	-0.608398	0.049177	-0.015472	0.081809	-0.134417	-0.250208	0.119764	-0.951307	-10.747478	-30.547032	166.857814
06259		4.915256	-1.538439	8.157581	-0.015195	-0.006997	-0.165285	-0.009699	-0.015682	0.000801	-0.697021	0.198975	-0.617188	0.049146	-0.015380	0.081580	-0.134405	-0.250304	0.119859	-0.951271	-10.759251	-30.559514	166.863126
06260		4.923227	-1.619075	8.146769	0.000377	0.071312	-0.157413	-0.003865	-0.012911	0.000005	-0.709229	0.195313	-0.613281	0.049227	-0.016189	0.081471	-0.134388	-0.250391	0.119923	-0.951243	-10.767279	-30.570519	166.868062
06261		4.908024	-1.592497	8.161387	0.012684	0.038042	-0.157047	0.002878	-0.008457	-0.004211	-0.701904	0.195313	-0.611816	0.049076	-0.015927	0.081616	-0.134385	-0.250465	0.119947	-0.951221	-10.769758	-30.579439	166.869565
06262		4.908485	-1.591888	8.161229	0.013133	0.037193	-0.157045	0.007183	-0.001259	-0.003841	-0.697998	0.198730	-0.610352	0.049084	-0.015923	0.081612	-0.134379	-0.250507	0.119946	-0.951211	-10.769441	-30.584296	166.870540
06263		4.920146	-1.578953	8.191501	0.013700	0.018322	-0.127591	0.007598	-0.004108	-0.006612	-0.706299	0.199951	-0.621826	0.049199	-0.015794	0.081915	-0.134386	-0.250564	0.119942	-0.951195	-10.768166	-30.591044	166.869846
06264		4.902240	-1.583210	8.219993	0.044048	0.010197	-0.111927	0.004537	-0.007555	-0.009789	-0.705566	0.199951	-0.617432	0.049019	-0.015836	0.082201	-0.134407	-0.250637	0.119950	-0.951172	-10.767784	-30.600081	166.867715
06265		4.914720	-1.598854	8.182635	0.023540	0.038204	-0.134655	0.009879	-0.009317	-0.009935	-0.703613	0.202881	-0.614502	0.049143	-0.015995	0.081828	-0.134420	-0.250723	0.119934	-0.951149	-10.764430	-30.610050	166.865856
06266		4.947758	-1.519968	8.237632	-0.002743	-0.045433	-0.084012	0.006066	-0.011982	-0.010956	-0.703125	0.193604	-0.614990	0.049472	-0.015205	0.082379	-0.134443	-0.250819	0.119936	-0.951120	-10.763063	-30.621704	166.863510
06267		4.972153	-1.552498	8.162995	-0.044192	0.011438	-0.129456	0.004044	-0.012089	-0.009141	-0.700439	0.197266	-0.611328	0.049716	-0.015529	0.081633	-0.134459	-0.250913	0.119951	-0.951091	-10.763488	-30.633189	166.862359
06268		4.968622	-1.541799	8.140674	-0.052824	0.007030	-0.151835	0.006740	-0.007846	-0.009728	-0.703857	0.196289	-0.608887	0.049682	-0.015423	0.081408	-0.134478	-0.250990	0.119949	-0.951069	-10.761881	-30.642384	166.860302
06269		4.973908	-1.550633	8.162281	-0.043290	0.009729	-0.129450	0.007104	-0.008641	-0.005966	-0.697510	0.202393	-0.608643	0.049735	-0.015511	0.081624	-0.134477	-0.251068	0.119951	-0.951048	-10.761391	-30.651645	166.860796
06270		4.937587	-1.588522	8.152322	-0.004120	0.041224	-0.150296	0.013401	0.001528	-0.010563	-0.699707	0.200928	-0.608643	0.049376	-0.015893	0.081522	-0.134497	-0.251105	0.119910	-0.951041	-10.755093	-30.655652	166.857026
06271		4.944346	-1.536616	8.228157	0.008458	-0.028145	-0.091090	0.005728	-0.001748	-0.006067	-0.704590	0.199707	-0.612061	0.049442	-0.015370	0.082282	-0.134501	-0.251150	0.119913	-0.951028	-10.755032	-30.660999	166.856914
06272		4.889624	-1.580100	8.246770	0.077531	-0.003929	-0.096293	0.004535	-0.007556	-0.009794	-0.699219	0.205078	-0.612793	0.048892	-0.015805	0.082469	-0.134522	-0.251223	0.119921	-0.951004	-10.754646	-30.670037	166.854776
06273		4.950296	-1.618110	8.298338	0.063594	0.027499	-0.015681	0.003013	-0.019100	-0.001306	-0.701660	0.199707	-0.615479	0.049495	-0.016183	0.082988	-0.134495	-0.251346	0.119955	-0.950972	-10.758819	-30.684622	166.860065
06274		4.895030	-1.751111	8.195057	0.108508	0.170697	-0.109814	0.004562	-0.022720	-0.012157	-0.706787	0.194336	-0.613525	0.048940	-0.017516	0.081956	-0.134519	-0.251493	0.119971	-0.950927	-10.758590	-30.702449	166.858266
06275		5.049184	-1.587367	8.071989	-0.124173	0.083993	-0.161339	0.014099	-0.021801	-0.017212	-0.714600	0.197510	-0.612793	0.050482	-0.015884	0.080724	-0.134557	-0.251645	0.119934	-0.950887	-10.751142	-30.720257	166.852863
06276		4.827538	-1.561455	8.264006	0.141772	-0.039835	-0.116535	0.014741	-0.014802	-0.019133	-0.703369	0.195557	-0.606934	0.048268	-0.015625	0.082642	-0.134605	-0.251765	0.119887	-0.950854	-10.742240	-30.734372	166.845506
06277		4.995241	-1.528486	8.188367	-0.039559	-0.015183	-0.100002	0.012183	-0.029688	-0.015641	-0.706787	0.194824	-0.618164	0.049939	-0.015294	0.081890	-0.134628	-0.251954	0.119865	-0.950803	-10.736932	-30.756588	166.842799
06278		5.062098	-1.530916	8.144847	-0.110652	0.012897	-0.102144	0.009717	-0.024083	-0.014200	-0.698242	0.200439	-0.612549	0.050610	-0.015317	0.081454	-0.134654	-0.252112	0.119854	-0.950759	-10.733144	-30.775399	166.839820
06279		4.876040	-1.483146	8.176210	0.047228	-0.078079	-0.178500	0.001528	-0.029033	-0.012195	-0.702148	0.192871	-0.605469	0.048748	-0.014835	0.081769	-0.134681	-0.252286	0.119889	-0.950705	-10.735043	-30.796674	166.838367
06280		4.986470	-1.498740	8.199641	-0.026350	-0.050165	-0.099706	-0.002513	-0.029247	-0.008558	-0.706299	0.186768	-0.607910	0.049852	-0.014989	0.082004	-0.134693	-0.252458	0.119947	-0.950650	-10.740482	-30.817790	166.839728
06281		4.984776	-1.590760	8.157822	-0.010927	0.046204	-0.121128	-0.005914	-0.034766	-0.012353	-0.709473	0.198242	-0.611084	0.049833	-0.015908	0.081587	-0.134728	-0.252655	0.120020	-0.950583	-10.746849	-30.842485	166.838685
06282		4.978567	-1.571046	8.112262	-0.028668	0.038292	-0.165883	-0.001734	-0.032890	-0.007579	-0.704590	0.199707	-0.613525	0.049772	-0.015712	0.081131	-0.134732	-0.252844	0.120078	-0.950525	-10.752408	-30.865547	166.841148
06283		4.836480	-1.637911	8.192532	0.150790	0.047896	-0.160391	0.001335	-0.028634	-0.014095	-0.701904	0.194092	-0.606201	0.048352	-0.016383	0.081932	-0.134763	-0.253018	0.120110	-0.950471	-10.753796	-30.886883	166.839046
06284		5.031982	-1.648776	8.063956	-0.063404	0.133844	-0.166716	0.010453	-0.024860	-0.016389	-0.707031	0.196777	-0.607910	0.050308	-0.016496	0.080645	-0.134798	-0.253182	0.120094	-0.950424	-10.748894	-30.906366	166.834731
06285		5.040623	-1.595911	8.138845	-0.050766	0.064420	-0.107592	0.018006	-0.013798	-0.020658	-0.712158	0.196045	-0.616211	0.050399	-0.015972	0.081390	-0.134852	-0.253300	0.120029	-0.950393	-10.737526	-30.920094	166.826115
06286		4.865215	-1.665433	8.116211	0.110184	0.103144	-0.205706	0.021443	-0.010335	-0.023412	-0.705322	0.186279	-0.611816	0.048646	-0.016669	0.081163	-0.134915	-0.253407	0.119941	-0.950367	-10.723023	-30.932148	166.815375
06287		4.992700	-1.570923	8.130215	-0.017337	0.037574	-0.143482	0.028428	-0.011189	-0.029165	-0.710693	0.190430	-0.608398	0.049920	-0.015728	0.081303	-0.135001	-0.253525	0.119814	-0.950339	-10.702513	-30.945256	166.800320
06288		5.021529	-1.479793	8.163215	-0.052647	-0.049689	-0.115349	0.024241	-0.013869	-0.024258	-0.703613	0.197510	-0.612549	0.050208	-0.014814	0.081634	-0.135063	-0.253650	0.119714	-0.950309	-10.686336	-30.959385	166.789451
06289		4.959234	-1.472705	8.205028	0.019350	-0.079469	-0.113273	0.022781	-0.027468	-0.022313	-0.708496	0.198730	-0.611328	0.049579	-0.014742	0.082055	-0.135111	-0.253838	0.119634	-0.950263	-10.672493	-30.980945	166.781319
06290		4.842787	-1.510713	8.265309	0.159962	-0.084156	-0.116425	0.010974	-0.035493	-0.019426	-0.710449	0.193604	-0.601318	0.048412	-0.015116	0.082661	-0.135153	-0.254054	0.119618	-0.950201	-10.666918	-31.006731	166.776287
06291		4.998307	-1.522026	8.171231	-0.003493	-0.016350	-0.113803	-0.000681	-0.054157	-0.013636	-0.711182	0.207031	-0.605225	0.049960	-0.015223	0.081726	-0.135168	-0.254349	0.119677	-0.950112	-10.671225	-31.042479	166.777800
06292		4.920985	-1.522874	8.239457	0.098428	-0.053432	-0.096137	-0.008346	-0.069746	-0.014653	-0.706543	0.196289	-0.608154	0.049180	-0.015229	0.082412	-0.135192	-0.254712	0.119782	-0.949998	-10.680522	-31.087046	166.780150
06293		4.916372	-1.506531	8.272386	0.119861	-0.083217	-0.073518	-0.017393	-0.091549	-0.011607	-0.705322	0.191650	-0.604980	0.049125	-0.015061	0.082748	-0.135194	-0.255172	0.119949	-0.949854	-10.697610	-31.143572	166.788034
06294		4.952108	-1.551047	8.214940	0.087448	-0.022746	-0.096403	-0.026409	-0.103107	-0.009591	-0.703125	0.197266	-0.610840	0.049478	-0.015502	0.082177	-0.135197	-0.255678	0.120169	-0.949690	-10.721151	-31.206380	166.797900
06295		5.014170	-1.539913	8.203360	0.037317	-0.023584	-0.075830	-0.027670	-0.119157	-0.012376	-0.714600	0.200684	-0.603516	0.050092	-0.015391	0.082066	-0.135209	-0.256260	0.120403	-0.949501	-10.745523	-31.278411	166.807387
06296		4.972292	-1.656538	8.183982	0.112366	0.076296	-0.095337	-0.032033	-0.136600	-0.011811	-0.714355	0.196777	-0.604248	0.049666	-0.016555	0.081876	-0.135209	-0.256922	0.120669	-0.949288	-10.773769	-31.360302	166.820063
06297		4.941060	-1.589016	8.243925	0.157571	-0.018322	-0.072248	-0.037325	-0.154922	-0.017543	-0.711426	0.197266	-0.603760	0.049345	-0.015879	0.082480	-0.135228	-0.257673	0.120965	-0.949045	-10.804412	-31.453162	166.831955
06298		5.121427	-1.528078	8.145028	-0.041810	-0.018861	-0.070850	-0.041757	-0.169501	-0.020181	-0.723389	0.193848	-0.608643	0.051144	-0.015269	0.081497	-0.135260	-0.258490	0.121289	-0.948777	-10.837613	-31.554457	166.843385
06299		5.010647	-1.593215	8.189692	0.107733	-0.001918	-0.081072	-0.044878	-0.186048	-0.019377	-0.720459	0.191895	-0.594971	0.050029	-0.015919	0.081947	-0.135282	-0.259382	0.121639	-0.948485	-10.874023	-31.664958	166.857595
06300		5.024837	-1.627671	8.192782	0.126228	0.022333	-0.065713	-0.048406	-0.201798	-0.022372	-0.718994	0.193848	-0.588623	0.050164	-0.016262	0.081982	-0.135313	-0.260349	0.122013	-0.948168	-10.912564	-31.784649	166.871864
06301		4.941364	-1.694657	8.148075	0.215762	0.072011	-0.136516	-0.047298	-0.223427	-0.026872	-0.713379	0.186035	-0.585449	0.049320	-0.016934	0.081540	-0.135348	-0.261423	0.122390	-0.947818	-10.950435	-31.917181	166.886424
06302		4.710556	-1.519744	8.381660	0.481545	-0.217410	-0.093018	-0.044551	-0.275262	-0.032349	-0.718750	0.201172	-0.591064	0.046988	-0.015186	0.083885	-0.135377	-0.262745	0.122782	-0.947398	-10.988445	-32.079267	166.903750
06303		4.937452	-1.756810	8.241540	0.333621	0.076965	-0.052028	-0.061448	-0.334739	-0.043373	-0.731689	0.196045	-0.583740	0.049233	-0.017553	0.082503	-0.135444	-0.264345	0.123280	-0.946879	-11.036474	-32.276081	166.921550
06304		4.890195	-1.596366	8.287475	0.375442	-0.111079	-0.066344	-0.075560	-0.377248	-0.057342	-0.728760	0.189453	-0.587402	0.048741	-0.015946	0.082973	-0.135568	-0.266143	0.123854	-0.946282	-11.090758	-32.498238	166.935902
06305		5.040739	-1.590368	8.215053	0.253816	-0.083034	-0.047754	-0.077435	-0.441572	-0.059562	-0.728760	0.193604	-0.587158	0.050221	-0.015887	0.082268	-0.135661	-0.268246	0.124476	-0.945593	-11.150037	-32.756985	166.957920
06306		4.931739	-1.582838	8.286674	0.418196	-0.152524	-0.050617	-0.091245	-0.500818	-0.063188	-0.728271	0.192627	-0.573975	0.049105	-0.015806	0.082997	-0.135756	-0.270619	0.125199	-0.944807	-11.220527	-33.049221	166.985362
06307		4.963323	-1.631276	8.242051	0.436510	-0.110144	-0.064657	-0.101199	-0.577817	-0.070445	-0.732422	0.196533	-0.574219	0.049389	-0.016288	0.082572	-0.135850	-0.273352	0.126011	-0.943899	-11.300067	-33.385547	167.018587
06308		5.004233	-1.651452	8.260468	0.476016	-0.114838	-0.026737	-0.107460	-0.664784	-0.081171	-0.736084	0.195313	-0.562744	0.049761	-0.016490	0.082779	-0.135946	-0.276494	0.126895	-0.942851	-11.386331	-33.771856	167.057262
06309		5.038874	-1.614000	8.276856	0.509372	-0.177060	-0.004002	-0.120288	-0.754145	-0.087679	-0.744385	0.196289	-0.564941	0.050069	-0.016112	0.082967	-0.136032	-0.280050	0.127890	-0.941654	-11.485121	-34.209107	167.104842
06310		5.013455	-1.596058	8.326167	0.623205	-0.246572	0.013674	-0.133378	-0.863903	-0.099507	-0.734863	0.199219	-0.552246	0.049766	-0.015930	0.083488	-0.136119	-0.284116	0.129002	-0.940270	-11.596470	-34.709185	167.160734
06311		5.100166	-1.647976	8.392850	0.690080	-0.240866	0.118698	-0.149894	-0.982809	-0.109585	-0.751953	0.190430	-0.546631	0.050579	-0.016445	0.084190	-0.136198	-0.288729	0.130257	-0.938679	-11.724413	-35.276997	167.228124
06312		5.195061	-1.627665	8.403496	0.711750	-0.288831	0.170579	-0.177545	-1.121518	-0.121935	-0.759766	0.195557	-0.538086	0.051468	-0.016233	0.084339	-0.136280	-0.293975	0.131713	-0.936834	-11.876665	-35.923972	167.309243
06313		5.136538	-1.659000	8.546100	0.954289	-0.366021	0.243458	-0.208599	-1.266816	-0.146391	-0.768066	0.192871	-0.518555	0.050811	-0.016538	0.085801	-0.136423	-0.299886	0.133373	-0.934703	-12.051770	-36.655202	167.397545
06314		5.258390	-1.630413	8.659052	1.036254	-0.464958	0.385167	-0.241385	-1.419158	-0.165500	-0.768066	0.191406	-0.518311	0.051954	-0.016242	0.086980	-0.136595	-0.306484	0.135254	-0.932264	-12.254893	-37.473726	167.499606
06315		5.316080	-1.774331	8.708171	1.210475	-0.401726	0.464095	-0.262630	-1.577691	-0.187164	-0.778809	0.189209	-0.497070	0.052455	-0.017678	0.087521	-0.136787	-0.313804	0.137302	-0.929497	-12.480091	-38.383556	167.615750
06316		5.313481	-1.932552	8.941273	1.555375	-0.404095	0.643355	-0.257192	-1.731061	-0.227812	-0.788086	0.191650	-0.480713	0.052336	-0.019270	0.089893	-0.137043	-0.321845	0.139356	-0.926399	-12.704814	-39.383625	167.733717
06317		5.399968	-2.169252	8.872567	1.714397	-0.218131	0.656195	-0.214899	-1.906064	-0.279801	-0.792725	0.188477	-0.467773	0.053120	-0.021672	0.089258	-0.137339	-0.330738	0.141238	-0.922931	-12.905303	-40.488233	167.849062
06318		5.569082	-2.484337	8.898668	1.916226	0.021013	0.803158	-0.154560	-2.084352	-0.361804	-0.808838	0.181396	-0.447510	0.054714	-0.024874	0.089580	-0.137772	-0.340514	0.142814	-0.919061	-13.057593	-41.702148	167.940987
06319		5.621657	-2.587823	8.633711	1.984174	0.154227	0.621633	-0.078613	-2.271791	-0.473105	-0.823486	0.182373	-0.431152	0.055170	-0.025975	0.086978	-0.138443	-0.351246	0.143961	-0.914732	-13.136240	-43.035608	167.985850
06320		5.805553	-2.842496	8.726968	2.248869	0.324636	0.806876	0.010321	-2.465361	-0.589694	-0.829834	0.190674	-0.401367	0.056890	-0.028598	0.087974	-0.139324	-0.362952	0.144611	-0.909914	-13.128764	-44.491595	167.978817
06321		6.058420	-2.825026	8.557192	2.237682	0.355965	0.806607	0.092871	-2.658840	-0.709382	-0.840576	0.165283	-0.383789	0.059339	-0.028502	0.086353	-0.140431	-0.375628	0.144781	-0.904556	-13.031026	-46.072404	167.911435
06322		6.934614	-2.777731	8.226927	1.719253	0.515684	1.153461	0.148907	-2.801268	-0.846562	-0.852783	0.169678	-0.345947	0.068066	-0.028129	0.083208	-0.141926	-0.389001	0.144507	-0.898695	-12.830789	-47.748879	167.749576
06323		7.827861	-2.958561	7.772125	1.225473	0.941594	1.502643	0.210542	-2.763885	-0.966415	-0.861816	0.153564	-0.326904	0.077051	-0.030042	0.078760	-0.143837	-0.402266	0.143667	-0.892666	-12.497948	-49.420846	167.462139
06324		8.516180	-2.676261	7.308204	0.702366	0.933150	1.664427	0.304904	-2.675705	-1.082705	-0.873779	0.136475	-0.301025	0.084027	-0.027332	0.074170	-0.146109	-0.415189	0.142076	-0.886614	-11.992269	-51.054277	167.027331
06325		9.899728	-2.019852	7.439909	0.040107	0.472949	2.725307	0.289159	-2.513269	-1.130813	-0.882080	0.129150	-0.278809	0.097936	-0.020863	0.075604	-0.148715	-0.427333	0.140308	-0.880672	-11.397676	-52.599851	166.477475
06326		10.631786	-2.498917	7.198327	-0.040740	1.105998	3.220397	0.123862	-2.276473	-1.114623	-0.887939	0.117432	-0.244629	0.105348	-0.025623	0.073170	-0.151740	-0.438222	0.139101	-0.874978	-10.830387	-54.006554	165.854406
06327		10.583941	-2.861802	6.271616	-0.234887	1.785233	2.689064	0.080610	-1.973220	-1.126166	-0.896484	0.101318	-0.236572	0.105050	-0.029237	0.063744	-0.155024	-0.447707	0.137769	-0.869796	-10.188544	-55.239492	165.129685
06328		9.878215	-3.171128	5.659808	0.095708	2.214240	1.795551	0.137491	-1.807719	-1.160221	-0.894043	0.104980	-0.216064	0.098079	-0.032321	0.057465	-0.158499	-0.456473	0.136007	-0.864877	-9.412479	-56.377091	164.282752
06329		10.175139	-3.620525	8.155793	2.224007	1.750058	3.421542	0.127727	-1.414643	-1.101590	-0.900146	0.082275	-0.204834	0.100970	-0.036815	0.082251	-0.161921	-0.463457	0.134056	-0.860824	-8.587251	-57.280056	163.390176
06330		8.038126	-2.861389	8.187876	3.236317	0.752216	1.536272	0.062222	-0.850203	-1.051761	-0.896484	0.071777	-0.191406	0.079880	-0.029060	0.082210	-0.165722	-0.467885	0.132075	-0.858007	-7.729183	-57.851655	162.411864
06331		5.198889	-2.466340	7.059318	3.764615	0.400987	-1.529481	-0.007765	-0.509602	-1.043460	-0.899658	0.059570	-0.184570	0.051679	-0.024931	0.070726	-0.169797	-0.470780	0.130087	-0.855928	-6.850394	-58.220854	161.376640
06332		3.094815	-2.300368	7.458023	5.107391	-0.234584	-3.153036	-0.049060	-0.250297	-1.091757	-0.900635	0.055420	-0.178467	0.030729	-0.023154	0.074624	-0.174412	-0.472537	0.127977	-0.854349	-5.904087	-58.436812	160.227848
06333		4.481839	-0.744926	9.695609	5.501345	-2.233809	-0.902477	-0.225531	0.185777	-1.110765	-0.898926	0.044434	-0.174805	0.044867	-0.007589	0.096923	-0.179725	-0.472282	0.126153	-0.853659	-4.994096	-58.395007	159.013747
06334		5.770110	-2.148604	10.511187	6.062706	-1.011810	0.704685	-0.535627	0.786685	-0.961844	-0.891113	0.023438	-0.179688	0.058011	-0.021483	0.104942	-0.185581	-0.469063	0.125498	-0.854278	-4.363257	-57.994727	157.906458
06335		2.450668	-3.828299	8.387772	6.761687	0.666886	-3.115632	-0.700620	1.337846	-0.817849	-0.904541	0.023682	-0.187744	0.024912	-0.038091	0.083846	-0.191470	-0.463225	0.125328	-0.856186	-3.947185	-57.267831	156.944295
06336		1.266473	-4.426750	7.139901	6.632274	1.422718	-4.697370	-0.643306	1.537769	-0.760587	-0.891113	0.015137	-0.202881	0.013046	-0.044087	0.071442	-0.197164	-0.456507	0.124883	-0.858564	-3.568677	-56.421248	156.047984
06337		2.029253	-4.144221	6.845672	5.846505	1.448716	-4.166934	-0.589174	1.667392	-0.625789	-0.878662	0.007568	-0.213379	0.020734	-0.041305	0.068407	-0.202147	-0.449170	0.124339	-0.861349	-3.299053	-55.492708	155.320725
06338		2.617105	-3.960831	6.931037	5.443412	1.393560	-3.567471	-0.639490	1.861900	-0.385229	-0.880371	0.013428	-0.225342	0.026739	-0.039438	0.069189	-0.206382	-0.440746	0.124380	-0.864684	-3.270584	-54.444390	154.834466
06339		2.513349	-4.120823	6.622651	5.254330	1.635436	-3.740347	-0.714378	2.049803	-0.097510	-0.872559	0.012695	-0.239990	0.025791	-0.040984	0.066111	-0.209635	-0.431200	0.125175	-0.868591	-3.515431	-53.278867	154.626094
06340		2.076703	-4.318677	6.118512	5.124599	1.898170	-4.286982	-0.739929	2.155908	0.204193	-0.856445	0.008789	-0.261719	0.021470	-0.042939	0.061115	-0.211671	-0.420929	0.126602	-0.872918	-3.992845	-52.042675	154.689161
06341		1.977763	-4.375299	6.029934	5.032139	1.955363	-4.311156	-0.705217	2.171837	0.491111	-0.850342	0.016357	-0.280518	0.020539	-0.043491	0.060233	-0.212366	-0.410382	0.128450	-0.877489	-4.638195	-50.784114	154.992820
06342		2.468069	-4.007891	6.267301	4.602244	1.669561	-3.691997	-0.663302	2.163007	0.783862	-0.845703	0.032227	-0.289795	0.025514	-0.039772	0.062532	-0.211652	-0.399679	0.130704	-0.882256	-5.430259	-49.514168	155.525144
06343		3.199089	-3.787115	6.529215	4.075801	1.569341	-2.875205	-0.629959	2.183745	1.052061	-0.834473	0.034912	-0.319580	0.032900	-0.037495	0.065055	-0.209674	-0.388678	0.133309	-0.887240	-6.337711	-48.211074	156.245443
06344		3.658941	-3.512731	6.838643	3.672921	1.330043	-2.247596	-0.571850	2.236022	1.274660	-0.828613	0.042236	-0.326172	0.037574	-0.034695	0.068070	-0.206593	-0.377301	0.136007	-0.892449	-7.297699	-46.856185	157.098084
06345		4.005265	-2.934815	7.147621	3.161220	0.792894	-1.743175	-0.514962	2.279549	1.444885	-0.814941	0.058105	-0.340088	0.041074	-0.028870	0.071087	-0.202640	-0.365596	0.138708	-0.897795	-8.269366	-45.453151	158.030565
06346		4.413407	-2.304207	7.396176	2.521136	0.245250	-1.264617	-0.492261	2.312381	1.558388	-0.799561	0.078613	-0.364990	0.045162	-0.022512	0.073499	-0.198117	-0.353625	0.141450	-0.903156	-9.232088	-44.011630	158.992909
06347		4.887089	-1.774938	7.637502	1.854383	-0.201874	-0.763913	-0.510904	2.336188	1.620694	-0.776367	0.087646	-0.383057	0.049899	-0.017154	0.075840	-0.193325	-0.341404	0.144338	-0.908425	-10.180745	-42.538680	159.943756
06348		5.252499	-1.504430	7.758436	1.287968	-0.410235	-0.420551	-0.534239	2.338811	1.645146	-0.767578	0.091797	-0.399902	0.053548	-0.014400	0.077001	-0.188420	-0.329067	0.147336	-0.913513	-11.099722	-41.051344	160.858277
06349		5.619387	-1.277536	7.835086	0.700109	-0.571435	-0.128923	-0.557973	2.307461	1.651218	-0.748779	0.113525	-0.418945	0.057195	-0.012088	0.077729	-0.183467	-0.316769	0.150456	-0.918347	-11.987767	-39.569544	161.730476
06350		6.139206	-1.176257	7.908852	0.041773	-0.592932	0.250298	-0.561069	2.235379	1.648610	-0.730713	0.135010	-0.430664	0.062364	-0.011031	0.078427	-0.178435	-0.304744	0.153616	-0.922873	-12.836191	-38.119297	162.565260
06351		6.651107	-1.036930	8.073867	-0.592639	-0.697590	0.658962	-0.554331	2.122890	1.645558	-0.711426	0.144775	-0.434082	0.067444	-0.009594	0.080053	-0.173290	-0.293179	0.156816	-0.927052	-13.648996	-36.722093	163.373519
06352		7.152356	-0.727109	8.282332	-1.275030	-0.985568	1.035288	-0.525564	1.986085	1.621271	-0.690430	0.153076	-0.447998	0.072396	-0.006470	0.082125	-0.168074	-0.282248	0.159933	-0.930864	-14.411030	-35.396443	164.150848
06353		7.982951	-0.434939	8.499286	-2.206468	-1.199293	1.582115	-0.483782	1.832941	1.555280	-0.677734	0.160645	-0.448730	0.080634	-0.003520	0.084266	-0.162959	-0.272064	0.162869	-0.934291	-15.106761	-34.156567	164.877681
06354		9.195192	-0.174243	8.893957	-3.358308	-1.383406	2.454582	-0.417471	1.710793	1.448257	-0.661133	0.174561	-0.463379	0.092717	-0.000888	0.088151	-0.158129	-0.262562	0.165423	-0.937386	-15.709512	-32.994595	165.529035
06355		10.372468	0.156760	9.161165	-4.583566	-1.594821	3.148040	-0.346908	1.643641	1.321318	-0.643799	0.177246	-0.460938	0.104459	0.002414	0.090751	-0.153729	-0.253496	0.167515	-0.940237	-16.212034	-31.883645	166.088082
06356		11.089381	0.514231	9.110843	-5.584024	-1.798080	3.295531	-0.277779	1.614338	1.191104	-0.627686	0.179932	-0.458008	0.111591	0.005931	0.090202	-0.149809	-0.244709	0.169119	-0.942907	-16.616006	-30.806979	166.552324
06357		11.175224	0.643420	8.599069	-6.152297	-1.732851	2.772404	-0.220628	1.567285	1.058876	-0.623047	0.176270	-0.464355	0.112385	0.007122	0.085104	-0.146392	-0.236269	0.170313	-0.945378	-16.935831	-29.774789	166.928292
06358		11.006202	0.612567	7.834267	-6.514323	-1.463391	1.947637	-0.147549	1.476557	0.929377	-0.609619	0.182373	-0.481689	0.110606	0.006696	0.077523	-0.143408	-0.228409	0.171058	-0.947630	-17.171922	-28.813216	167.231262
06359		11.056128	0.238473	7.039289	-6.913402	-0.820953	1.294701	-0.054097	1.340695	0.805628	-0.600098	0.186523	-0.473877	0.111019	0.002850	0.069649	-0.140780	-0.221343	0.171307	-0.949654	-17.323330	-27.945495	167.476858
06360		11.140589	-0.030972	6.392327	-7.287535	-0.316369	0.759204	0.077691	1.187966	0.699774	-0.582520	0.180664	-0.481445	0.111783	0.000056	0.063260	-0.138368	-0.215180	0.170909	-0.951495	-17.377635	-27.179626	167.683275
06361		11.170299	-0.125448	5.805354	-7.620351	0.001243	0.208389	0.194689	1.036104	0.615917	-0.572754	0.184082	-0.479492	0.112005	-0.000966	0.057473	-0.136096	-0.209878	0.169963	-0.953175	-17.352030	-26.510585	167.865616
06362		10.942511	-0.206565	5.208748	-7.706740	0.262244	-0.461295	0.269721	0.877859	0.542986	-0.574951	0.179932	-0.483643	0.109658	-0.001838	0.051604	-0.133951	-0.205441	0.168684	-0.954671	-17.274983	-25.941197	168.033496
06363		10.712726	-0.288102	4.728921	-7.723600	0.475449	-1.019084	0.296833	0.698544	0.488875	-0.573486	0.168701	-0.481445	0.107298	-0.002689	0.046911	-0.131884	-0.201916	0.167338	-0.955947	-17.181682	-25.478962	168.202299
06364		10.522491	-0.494919	4.348560	-7.679289	0.766414	-1.427077	0.306057	0.516367	0.451165	-0.572754	0.167236	-0.483643	0.105348	-0.004778	0.043206	-0.129832	-0.199299	0.166025	-0.957006	-17.086741	-25.123474	168.382734
06365		10.308973	-0.704112	4.032893	-7.574838	1.024431	-1.774834	0.321092	0.329871	0.436532	-0.563965	0.168945	-0.479736	0.103171	-0.006881	0.040148	-0.127679	-0.197591	0.164745	-0.957870	-16.993405	-24.872622	168.588939
06366		9.939803	-0.819309	3.791152	-7.321459	1.134921	-2.134675	0.358443	0.138120	0.430906	-0.569580	0.170654	-0.478516	0.099442	-0.008047	0.037828	-0.125356	-0.196831	0.163402	-0.958563	-16.891313	-24.728379	168.827287
06367		9.477012	-0.751406	3.581166	-7.014998	1.044312	-2.539293	0.395661	-0.070343	0.429007	-0.564453	0.163574	-0.479736	0.094773	-0.007382	0.035830	-0.122835	-0.197092	0.162008	-0.959072	-16.783195	-24.699044	169.102627
06368		9.081554	-0.524814	3.457812	-6.770514	0.783853	-2.866312	0.428848	-0.301737	0.408291	-0.569092	0.157715	-0.475586	0.090774	-0.005137	0.034704	-0.120192	-0.198499	0.160574	-0.959358	-16.668498	-24.800706	169.407677
06369		8.863921	-0.376983	3.476316	-6.595281	0.571515	-2.959119	0.461177	-0.539927	0.369485	-0.567139	0.169678	-0.478027	0.088552	-0.003687	0.034994	-0.117510	-0.201097	0.159088	-0.959397	-16.544527	-25.040075	169.732414
06370		8.755427	-0.298560	3.899086	-6.338244	0.297159	-2.623288	0.482032	-0.735502	0.318651	-0.580566	0.165527	-0.466797	0.087415	-0.002941	0.039305	-0.114892	-0.204681	0.157563	-0.959208	-16.411909	-25.395823	170.061621
06371		8.718448	-0.222189	4.463055	-6.073577	-0.011331	-2.125652	0.486186	-0.866505	0.274947	-0.577637	0.162354	-0.463379	0.086993	-0.002211	0.045002	-0.112374	-0.208927	0.156045	-0.958839	-16.277756	-25.831442	170.387812
06372		8.547317	-0.029526	5.145524	-5.659618	-0.485727	-1.611102	0.453480	-0.933140	0.247720	-0.589600	0.172363	-0.458984	0.085232	-0.000307	0.051853	-0.109966	-0.213488	0.154687	-0.958333	-16.162546	-26.308611	170.709361
06373		8.520117	0.192594	5.797465	-5.376530	-0.953212	-1.070626	0.366049	-0.923490	0.223355	-0.586426	0.157959	-0.457275	0.084930	0.001914	0.058371	-0.107772	-0.217970	0.153713	-0.957730	-16.092665	-26.785017	171.014761
06374		8.188592	0.262571	6.188380	-4.875949	-1.230152	-0.861195	0.274361	-0.855026	0.186928	-0.591309	0.165283	-0.453613	0.081618	0.002617	0.062237	-0.105902	-0.222095	0.153098	-0.957089	-16.062003	-27.229545	171.286135
06375		7.409471	0.383575	6.312330	-4.102551	-1.516764	-1.108614	0.204153	-0.794548	0.103451	-0.591309	0.165283	-0.453613	0.073841	0.003809	0.063421	-0.104554	-0.225956	0.152691	-0.956398	-16.045014	-27.654389	171.495913
06376		6.773083	0.533339	6.279144	-3.529915	-1.748255	-1.441928	0.145592	-0.781688	-0.001052	-0.600830	0.167969	-0.442139	0.067485	0.005287	0.063059	-0.103780	-0.229799	0.152437	-0.955607	-16.031722	-28.088454	171.638851
06377		3.848161	-2.587602	8.054016	0.656399	0.176077	-0.543985	0.202517	-0.807703	-0.144491	-0.593506	0.177002	-0.447510	0.038137	-0.025985	0.080668	-0.103603	-0.233903	0.151757	-0.954738	-15.946552	-28.559945	171.697052
06378		1.984003	-5.117036	11.963949	4.670183	1.022776	2.450996	0.816127	-0.721442	-0.274383	-0.604004	0.172852	-0.447510	0.019338	-0.051685	0.119500	-0.103393	-0.238004	0.147947	-0.954346	-15.462318	-29.003898	171.655660
06379		-3.593192	-4.707984	17.840628	11.970001	-1.905793	4.555646	0.780626	-0.391725	-0.206375	-0.598877	0.172852	-0.441650	-0.036330	-0.047738	0.178150	-0.103141	-0.240459	0.144213	-0.954329	-14.989422	-29.255322	171.596277
06380		-6.943343	-8.349850	22.370181	17.815832	-0.275369	7.533044	0.445979	0.085780	-0.023875	-0.598145	0.166748	-0.439453	-0.069348	-0.083989	0.223545	-0.102764	-0.240325	0.142048	-0.954728	-14.724494	-29.214846	171.570266
06381		-3.364022	-1.337825	6.156030	5.907378	-1.143218	-5.965736	0.292387	-0.107329	-0.228624	-0.608154	0.168213	-0.446777	-0.033689	-0.013430	0.061523	-0.103412	-0.241180	0.140468	-0.954676	-14.499747	-29.310976	171.446339
06382		4.433285	1.413613	7.904602	-0.745625	-3.249867	-1.267703	0.400987	-0.830659	-0.608769	-0.604492	0.159668	-0.443848	0.044046	0.013843	0.079257	-0.105233	-0.245805	0.138283	-0.953616	-14.150033	-29.861962	171.196681
06383		15.598187	-1.278121	14.398673	-6.661710	-1.235506	10.345515	0.165006	-0.183834	-0.421101	-0.607666	0.158447	-0.441650	0.155822	-0.013228	0.144119	-0.106896	-0.247089	0.137111	-0.953269	-13.940488	-30.026254	170.959611
06384		7.252966	-2.868206	6.219155	-2.684897	1.735494	-0.363383	0.031964	0.274097	-0.089117	-0.608643	0.159180	-0.442383	0.072602	-0.028724	0.062087	-0.107453	-0.245889	0.136738	-0.953570	-13.876920	-29.889659	170.862372
06385		3.343351	-3.516693	7.082262	1.211309	1.551781	-1.456358	0.193611	-0.017103	-0.097876	-0.612793	0.155762	-0.439941	0.033410	-0.035252	0.070791	-0.107654	-0.246172	0.135740	-0.953617	-13.741098	-29.916213	170.805815
06386		5.697679	-1.664538	8.578090	-0.639707	-0.311863	0.594586	0.196900	-0.054685	-0.086958	-0.608154	0.158203	-0.447998	0.056946	-0.016755	0.085780	-0.107774	-0.246627	0.134759	-0.953625	-13.609729	-29.962022	170.762020
06387		5.638252	-0.547549	7.846813	-1.206482	-1.126786	-0.276603	0.144439	-0.010565	-0.104227	-0.608154	0.154053	-0.440674	0.056375	-0.005562	0.078467	-0.108070	-0.246855	0.133984	-0.953641	-13.499399	-29.985566	170.700189
06388		5.309122	-1.922999	8.568201	-0.228615	-0.088817	0.445900	0.087989	0.035063	-0.061022	-0.609131	0.146973	-0.452637	0.053100	-0.019284	0.085664	-0.108260	-0.246806	0.133506	-0.953699	-13.431727	-29.977767	170.659042
06389		4.533698	-2.211927	8.158936	0.331315	0.209797	-0.228248	0.085504	0.048539	-0.032212	-0.613770	0.158203	-0.444824	0.045353	-0.022161	0.081569	-0.108325	-0.246672	0.133069	-0.953788	-13.373738	-29.958674	170.634418
06390		4.622738	-1.935828	8.243189	0.216098	-0.054510	-0.168123	0.090085	0.034334	-0.031955	-0.602539	0.154785	-0.443848	0.046238	-0.019403	0.082415	-0.108374	-0.246608	0.132617	-0.953862	-13.314292	-29.947362	170.612116
06391		4.696212	-1.702698	8.309639	0.118656	-0.275474	-0.121779	0.080146	0.034480	-0.030789	-0.609131	0.150635	-0.449951	0.046974	-0.017068	0.083081	-0.108429	-0.246537	0.132214	-0.953930	-13.260934	-29.935874	170.590594
06392		4.700969	-1.744565	8.288662	0.116085	-0.222220	-0.128593	0.052854	0.028830	-0.026749	-0.601807	0.155029	-0.447510	0.047019	-0.017474	0.082875	-0.108495	-0.246476	0.131950	-0.953975	-13.224929	-29.926914	170.572504
06393		4.652073	-1.854596	8.136792	0.121098	-0.073855	-0.259229	0.053659	0.009999	-0.033867	-0.606201	0.154785	-0.444336	0.046522	-0.018576	0.081361	-0.108582	-0.246509	0.131683	-0.953993	-13.187614	-29.929455	170.552718
06394		4.732592	-1.799886	8.010537	-0.016498	-0.070101	-0.336373	0.054251	-0.000249	-0.044456	-0.610107	0.154053	-0.452393	0.047322	-0.018031	0.080101	-0.108711	-0.246599	0.131405	-0.953993	-13.147311	-29.939009	170.527621
06395		4.648063	-1.681028	8.158889	0.092040	-0.233667	-0.276716	0.056283	-0.010043	-0.052864	-0.605713	0.152344	-0.450928	0.046472	-0.016846	0.081586	-0.108872	-0.246742	0.131113	-0.953978	-13.103877	-29.955180	170.498603
06396		4.784595	-1.545947	8.058761	-0.101845	-0.305927	-0.319428	0.040441	-0.017454	-0.054222	-0.615723	0.154053	-0.442383	0.047835	-0.015489	0.080589	-0.109054	-0.246912	0.130899	-0.953943	-13.069608	-29.975571	170.469768
06397		4.802887	-1.551593	8.213464	-0.043085	-0.340925	-0.178474	0.033616	-0.023797	-0.056523	-0.614258	0.149902	-0.446777	0.048015	-0.015543	0.082138	-0.109251	-0.247111	0.130718	-0.953894	-13.038969	-29.999861	170.440411
06398		4.836040	-1.560069	8.147035	-0.093740	-0.305270	-0.216162	0.012784	-0.030121	-0.054059	-0.608887	0.158447	-0.437500	0.048344	-0.015619	0.081477	-0.109458	-0.247327	0.130643	-0.953824	-13.021504	-30.027278	170.413534
06399		4.979610	-1.739087	8.337115	-0.078278	-0.172709	0.051007	-0.003500	-0.032615	-0.046282	-0.612305	0.147461	-0.448730	0.049778	-0.017401	0.083380	-0.109646	-0.247541	0.130656	-0.953745	-13.016049	-30.055151	170.392062
06400		4.901066	-1.914047	8.296469	0.023159	-0.007454	0.011509	-0.016150	-0.028882	-0.044286	-0.607666	0.145508	-0.433838	0.048994	-0.019145	0.082973	-0.109843	-0.247728	0.130730	-0.953664	-13.018195	-30.080610	170.371282
06401		5.032921	-1.902349	8.005328	-0.217073	0.087655	-0.170089	-0.022133	-0.039294	-0.043747	-0.606445	0.145752	-0.440186	0.050309	-0.019026	0.080065	-0.110038	-0.247962	0.130839	-0.953566	-13.024710	-30.111886	170.352432
06402		5.151717	-2.052035	8.349229	-0.119756	0.139492	0.208632	-0.019256	-0.033449	-0.036075	-0.614014	0.159180	-0.441895	0.051500	-0.020522	0.083503	-0.110197	-0.248164	0.130941	-0.953481	-13.031616	-30.138837	170.337627
06403		5.168235	-1.999200	7.988565	-0.304767	0.200233	-0.097151	-0.020475	-0.021599	-0.032888	-0.618164	0.148438	-0.445801	0.051670	-0.019992	0.079893	-0.110349	-0.248307	0.131045	-0.953412	-13.039360	-30.158840	170.323143
06404		5.265929	-2.044234	8.085543	-0.329511	0.226351	0.042519	-0.005940	-0.015015	-0.031903	-0.614258	0.152832	-0.440918	0.052650	-0.020448	0.080860	-0.110484	-0.248425	0.131079	-0.953361	-13.038596	-30.174965	170.308274
06405		5.092589	-2.017257	8.181990	-0.144191	0.146454	0.031423	-0.001566	0.000267	-0.033173	-0.606445	0.146484	-0.446777	0.050923	-0.020180	0.081820	-0.110628	-0.248475	0.131081	-0.953331	-13.033764	-30.182806	170.290336
06406		5.028081	-1.996271	8.120957	-0.120876	0.135983	-0.056483	-0.005942	-0.000243	-0.021958	-0.603760	0.149414	-0.444336	0.050279	-0.019966	0.081210	-0.110725	-0.248517	0.131118	-0.953303	-13.035113	-30.189399	170.279676
06407		5.025612	-1.928594	8.233728	-0.086596	0.036860	0.024064	-0.014886	0.006449	-0.020781	-0.613525	0.146484	-0.440918	0.050257	-0.019285	0.082337	-0.110831	-0.248522	0.131196	-0.953279	-13.041471	-30.192191	170.268815
06408		5.036382	-1.905051	8.161367	-0.134550	0.036824	-0.036041	-0.024344	0.010283	-0.010694	-0.610352	0.154297	-0.446045	0.050367	-0.019043	0.081613	-0.110904	-0.248495	0.131329	-0.953259	-13.056229	-30.191453	170.263856
06409		5.030843	-1.967161	8.107622	-0.137484	0.108467	-0.071949	-0.030252	0.017493	-0.003295	-0.605225	0.155273	-0.445313	0.050315	-0.019660	0.081075	-0.110953	-0.248428	0.131496	-0.953248	-13.076237	-30.185823	170.262633
06410		5.231646	-1.940338	8.058235	-0.339198	0.124860	-0.017815	-0.033204	0.013714	-0.004577	-0.614502	0.151855	-0.444336	0.052322	-0.019391	0.080582	-0.111010	-0.248376	0.131677	-0.953230	-13.097799	-30.182380	170.261107
06411		5.092640	-2.033954	8.204638	-0.132028	0.144650	0.053906	-0.037922	0.034889	0.004849	-0.614990	0.153320	-0.442627	0.050941	-0.020323	0.082041	-0.111041	-0.248216	0.131880	-0.953240	-13.123529	-30.165990	170.262523
06412		4.807213	-1.964701	8.071126	0.029285	0.075567	-0.215508	-0.035352	0.036608	0.005516	-0.614746	0.148438	-0.448975	0.048087	-0.019631	0.080706	-0.111068	-0.248047	0.132071	-0.953254	-13.147861	-30.148460	170.264060
06413		4.984247	-1.862162	8.061562	-0.157390	0.005458	-0.154823	-0.028087	0.033125	-0.004649	-0.616455	0.154785	-0.450195	0.049855	-0.018611	0.080610	-0.111131	-0.247907	0.132217	-0.953263	-13.165007	-30.134293	170.259599
06414		4.753051	-1.891056	8.199494	0.105667	-0.045805	-0.149043	-0.028391	0.037642	0.006328	-0.603027	0.157227	-0.443604	0.047547	-0.018897	0.081989	-0.111146	-0.247737	0.132376	-0.953284	-13.185526	-30.116079	170.261489
06415		4.571007	-1.832052	8.069702	0.184120	-0.090419	-0.361310	-0.027471	0.026601	-0.000584	-0.606445	0.150146	-0.446777	0.045721	-0.018310	0.080693	-0.111185	-0.247626	0.132527	-0.953287	-13.204126	-30.105023	170.260626
06416		4.726011	-1.806678	8.137049	0.072835	-0.114696	-0.231854	-0.029282	0.019165	-0.006703	-0.612549	0.159912	-0.445313	0.047267	-0.018056	0.081369	-0.111250	-0.247552	0.132684	-0.953277	-13.222337	-30.098821	170.256898
06417		4.835175	-1.826591	8.082422	-0.039891	-0.065330	-0.219198	-0.023211	0.011561	-0.012251	-0.608643	0.157959	-0.455322	0.048355	-0.018259	0.080824	-0.111329	-0.247522	0.132809	-0.953258	-13.235862	-30.097681	170.250783
06418		4.815358	-1.860724	8.043416	-0.030933	-0.026033	-0.255236	-0.023580	0.004582	-0.016180	-0.619873	0.162842	-0.447510	0.048154	-0.018602	0.080435	-0.111423	-0.247527	0.132935	-0.953228	-13.248850	-30.100858	170.243154
06419		4.930766	-1.791063	8.109751	-0.118662	-0.096731	-0.155308	-0.018947	-0.003476	-0.023919	-0.607178	0.150146	-0.450928	0.049304	-0.017909	0.081100	-0.111543	-0.247579	0.133034	-0.953187	-13.257301	-30.109639	170.231800
06420		4.888774	-1.902227	8.147477	-0.034297	-0.011615	-0.122556	-0.021155	0.001785	-0.020676	-0.615723	0.157959	-0.450928	0.048886	-0.019019	0.081476	-0.111653	-0.247602	0.133144	-0.953152	-13.267658	-30.114969	170.221698
06421		4.877082	-1.984252	8.084418	-0.028420	0.081776	-0.165226	-0.017816	-0.002212	-0.025435	-0.620605	0.155273	-0.447021	0.048767	-0.019842	0.080846	-0.111780	-0.247650	0.133235	-0.953112	-13.274871	-30.123250	170.209176
06422		4.996128	-1.980614	8.037511	-0.150016	0.109419	-0.145669	-0.010301	-0.009354	-0.028793	-0.616455	0.152832	-0.446777	0.049955	-0.019809	0.080378	-0.111908	-0.247737	0.133290	-0.953067	-13.277229	-30.135861	170.195534
06423		4.917156	-2.015563	8.061692	-0.060205	0.123195	-0.158000	0.004463	-0.005210	-0.032330	-0.613037	0.163574	-0.456543	0.049166	-0.020165	0.080618	-0.112037	-0.247816	0.133268	-0.953034	-13.269671	-30.146723	170.179020
06424		4.960441	-2.014361	8.026266	-0.110558	0.140470	-0.166309	0.014111	-0.015557	-0.032517	-0.615967	0.153564	-0.447510	0.049595	-0.020157	0.080265	-0.112149	-0.247949	0.133205	-0.952995	-13.257301	-30.163281	170.163913
06425		4.775447	-2.081343	8.162767	0.129009	0.135595	-0.131127	0.019231	-0.005980	-0.039202	-0.612061	0.152344	-0.446289	0.047748	-0.020831	0.081627	-0.112293	-0.248044	0.133104	-0.952968	-13.239102	-30.175470	170.143074
06426		4.758321	-1.998461	8.120717	0.104883	0.070866	-0.191591	0.031837	-0.017459	-0.041433	-0.618164	0.159668	-0.449219	0.047572	-0.020007	0.081208	-0.112424	-0.248202	0.132947	-0.952933	-13.213813	-30.194249	170.122486
06427		4.882886	-1.888435	8.092911	-0.040525	-0.002290	-0.174102	0.030082	-0.017110	-0.047341	-0.609375	0.150635	-0.448730	0.048817	-0.018908	0.080930	-0.112585	-0.248362	0.132791	-0.952894	-13.187583	-30.213695	170.098058
06428		4.881115	-1.998498	8.176780	0.032661	0.078318	-0.082744	0.033395	-0.011266	-0.045462	-0.615234	0.159424	-0.445801	0.048802	-0.020010	0.081767	-0.112737	-0.248494	0.132618	-0.952866	-13.159596	-30.229529	170.073905
06429		4.958497	-1.962179	7.960029	-0.135866	0.126514	-0.233312	0.041283	-0.016337	-0.048234	-0.615479	0.155518	-0.441162	0.049574	-0.019650	0.079600	-0.112889	-0.248657	0.132407	-0.952835	-13.126572	-30.248639	170.048753
06430		4.980360	-1.977685	8.137279	-0.067640	0.094399	-0.070150	0.049806	-0.009098	-0.051429	-0.610596	0.152588	-0.453857	0.049795	-0.019810	0.081370	-0.113051	-0.248792	0.132147	-0.952816	-13.087047	-30.264014	170.020389
06431		4.974191	-1.909238	8.058684	-0.112944	0.058814	-0.152774	0.055636	-0.009310	-0.049105	-0.615234	0.156982	-0.448730	0.049733	-0.019127	0.080584	-0.113194	-0.248931	0.131862	-0.952803	-13.044954	-30.279288	169.993583
06432		4.987468	-1.932119	8.125185	-0.084756	0.067747	-0.085675	0.063122	-0.006594	-0.045842	-0.610840	0.152100	-0.458008	0.049868	-0.019358	0.081247	-0.113314	-0.249057	0.131545	-0.952799	-12.999403	-30.292508	169.968422
06433		5.025959	-1.861108	7.930970	-0.220569	0.072911	-0.243451	0.063828	-0.001266	-0.056048	-0.609619	0.152100	-0.449463	0.050254	-0.018650	0.079304	-0.113485	-0.249166	0.131208	-0.952797	-12.949719	-30.304149	169.935893
06434		5.088680	-1.804873	8.106192	-0.208874	-0.016969	-0.075200	0.071736	0.006379	-0.055300	-0.610352	0.155518	-0.454590	0.050884	-0.018092	0.081054	-0.113648	-0.249242	0.130830	-0.952809	-12.895149	-30.311298	169.902656
06435		4.761533	-1.894070	8.230891	0.151982	-0.013343	-0.118154	0.065326	0.014771	-0.053480	-0.616943	0.151367	-0.458984	0.047616	-0.018980	0.082299	-0.113816	-0.249274	0.130480	-0.952829	-12.844227	-30.313607	169.869391
06436		5.008666	-1.783583	8.099154	-0.145919	-0.032223	-0.125486	0.065492	0.009450	-0.054974	-0.615234	0.156250	-0.451416	0.050086	-0.017876	0.080983	-0.113987	-0.249331	0.130130	-0.952841	-12.793099	-30.318946	169.835895
06437		5.008958	-1.858892	8.171938	-0.090768	0.023351	-0.049649	0.057039	0.017774	-0.051371	-0.613770	0.159180	-0.451416	0.050092	-0.018625	0.081710	-0.114157	-0.249343	0.129821	-0.952860	-12.747385	-30.319259	169.803547
06438		4.984807	-1.722029	8.073874	-0.151488	-0.072782	-0.170443	0.051720	0.019639	-0.051275	-0.616455	0.156982	-0.454102	0.049852	-0.017254	0.080729	-0.114334	-0.249341	0.129535	-0.952878	-12.704597	-30.318391	169.770945
06439		4.931311	-1.780303	8.218876	-0.024297	-0.064467	-0.064227	0.045202	0.022312	-0.043223	-0.616699	0.154297	-0.459961	0.049318	-0.017832	0.082179	-0.114483	-0.249319	0.129290	-0.952900	-12.667995	-30.315104	169.743213
06440		4.906755	-1.715160	8.088880	-0.079301	-0.084756	-0.198400	0.044987	0.019853	-0.041980	-0.617432	0.159180	-0.460449	0.049072	-0.017180	0.080880	-0.114624	-0.249307	0.129048	-0.952919	-12.632092	-30.312912	169.716602
06441		5.013045	-1.659403	8.148118	-0.158052	-0.133968	-0.105312	0.035643	0.011725	-0.044940	-0.617188	0.152588	-0.459717	0.050131	-0.016620	0.081475	-0.114786	-0.249331	0.128852	-0.952920	-12.601182	-30.315731	169.689298
06442		4.970962	-1.753089	8.085425	-0.122635	-0.029452	-0.161678	0.027322	0.011861	-0.039667	-0.613037	0.169189	-0.461670	0.049711	-0.017552	0.080849	-0.114934	-0.249345	0.128702	-0.952918	-12.576740	-30.317695	169.665344
06443		5.043736	-1.787929	8.191558	-0.126317	-0.014491	-0.028955	0.020992	0.009206	-0.033057	-0.616455	0.159912	-0.464111	0.050438	-0.017896	0.081911	-0.115056	-0.249364	0.128591	-0.952913	-12.558287	-30.320423	169.646098
06444		4.871790	-1.828747	8.176399	0.025018	0.004296	-0.120861	0.019285	0.016136	-0.027364	-0.613281	0.157715	-0.455078	0.048722	-0.018302	0.081758	-0.115157	-0.249345	0.128492	-0.952919	-12.542161	-30.318450	169.629496
06445		5.079952	-1.690188	8.065257	-0.240114	-0.057687	-0.135392	0.020387	0.009614	-0.029087	-0.620605	0.153809	-0.463623	0.050801	-0.016917	0.080648	-0.115261	-0.249360	0.128390	-0.952917	-12.525322	-30.320448	169.612762
06446		4.824493	-1.700379	8.187271	0.034517	-0.122728	-0.159596	0.013714	0.012679	-0.022873	-0.617432	0.155029	-0.455078	0.048248	-0.017015	0.081868	-0.115346	-0.249352	0.128325	-0.952918	-12.514108	-30.319844	169.599568
06447		5.075682	-1.745699	8.013126	-0.242692	0.013236	-0.171052	0.015009	0.000830	-0.026047	-0.616699	0.155518	-0.453613	0.050755	-0.017470	0.080130	-0.115436	-0.249403	0.128257	-0.952902	-12.501979	-30.326373	169.586066
06448		5.068608	-1.735611	8.072315	-0.211751	-0.013534	-0.126596	0.017047	0.000897	-0.027838	-0.618652	0.159668	-0.462158	0.050684	-0.017370	0.080721	-0.115533	-0.249456	0.128177	-0.952887	-12.488082	-30.332970	169.571346
06449		5.103337	-1.726583	8.096452	-0.231627	-0.022212	-0.090366	0.019115	-0.000206	-0.018208	-0.616699	0.153320	-0.456299	0.051032	-0.017278	0.080963	-0.115581	-0.249510	0.128099	-0.952878	-12.476236	-30.339106	169.563070
06450		4.853298	-1.859338	8.243895	0.085315	0.020000	-0.067649	0.008238	-0.001814	-0.013588	-0.613281	0.154541	-0.459717	0.048531	-0.018600	0.082439	-0.115619	-0.249561	0.128080	-0.952862	-12.472244	-30.345452	169.557970
06451		4.929913	-1.811501	8.196767	-0.012748	0.001249	-0.077575	0.003625	-0.011403	-0.012659	-0.614746	0.161133	-0.458740	0.049293	-0.018120	0.081970	-0.115652	-0.249656	0.128090	-0.952832	-12.471898	-30.357166	169.554895
06452		5.090570	-1.708445	8.213501	-0.169218	-0.076639	-0.001481	-0.011124	-0.010687	-0.005725	-0.614258	0.166260	-0.463135	0.050901	-0.017081	0.082139	-0.115671	-0.249734	0.128179	-0.952798	-12.482218	-30.367503	169.556166
06453		5.046029	-1.728184	8.158259	-0.148787	-0.051136	-0.066843	-0.025933	-0.020610	0.004142	-0.616699	0.153320	-0.465332	0.050452	-0.017270	0.081590	-0.115655	-0.249845	0.128356	-0.952747	-12.504985	-30.382287	169.565311
06454		5.173382	-1.746472	8.154346	-0.251837	-0.017193	-0.002301	-0.038282	-0.017763	0.009880	-0.610596	0.167480	-0.464844	0.051727	-0.017447	0.081551	-0.115629	-0.249930	0.128597	-0.952695	-12.536505	-30.394642	169.577729
06455		5.250738	-1.732721	8.038299	-0.371556	0.011728	-0.063398	-0.042582	-0.028140	0.014516	-0.617676	0.162598	-0.466064	0.052497	-0.017306	0.080394	-0.115580	-0.250060	0.128870	-0.952630	-12.572779	-30.412342	169.594711
06456		5.104906	-1.840666	8.151967	-0.164698	0.049914	-0.021208	-0.047976	-0.024212	0.021062	-0.617676	0.162598	-0.469238	0.051041	-0.018382	0.081530	-0.115509	-0.250164	0.129176	-0.952570	-12.614014	-30.426892	169.615336
06457		5.007473	-1.874464	8.100416	-0.093873	0.075858	-0.107504	-0.049185	-0.027153	0.014275	-0.617188	0.158447	-0.459473	0.050065	-0.018721	0.081016	-0.115469	-0.250286	0.129480	-0.952501	-12.653944	-30.444055	169.632053
06458		5.134780	-1.894427	8.095946	-0.196917	0.109776	-0.042921	-0.044965	-0.014699	0.016071	-0.610596	0.162598	-0.458984	0.051343	-0.018922	0.080967	-0.115424	-0.250349	0.129759	-0.952452	-12.691136	-30.453891	169.648085
06459		4.914849	-1.992355	8.037779	-0.007636	0.180044	-0.184674	-0.038739	-0.017748	0.015679	-0.616455	0.162109	-0.463379	0.049143	-0.019904	0.080386	-0.115371	-0.250431	0.130009	-0.952403	-12.724868	-30.465604	169.664369
06460		5.170607	-1.883096	8.013859	-0.265332	0.119769	-0.095773	-0.026376	-0.012808	0.010136	-0.614014	0.159180	-0.465820	0.051702	-0.018818	0.080144	-0.115333	-0.250499	0.130191	-0.952365	-12.749330	-30.475117	169.676291
06461		5.006909	-1.894970	7.902482	-0.171933	0.136567	-0.270095	-0.014377	-0.009933	0.003998	-0.613525	0.173340	-0.468262	0.050066	-0.018943	0.079029	-0.115310	-0.250566	0.130307	-0.952334	-12.764695	-30.483934	169.683869
06462		5.008433	-1.879579	8.071914	-0.100738	0.068449	-0.129807	-0.006819	-0.009259	0.000833	-0.617676	0.162109	-0.452393	0.050081	-0.018793	0.080722	-0.115293	-0.250635	0.130382	-0.952308	-12.774634	-30.492636	169.689246
06463		4.712442	-2.019926	8.061869	0.187068	0.156702	-0.261699	0.007173	-0.009173	-0.003974	-0.627686	0.166260	-0.468262	0.047120	-0.020203	0.080620	-0.115281	-0.250716	0.130385	-0.952288	-12.774977	-30.502038	169.691549
06464		5.021501	-1.936397	8.070080	-0.093645	0.124086	-0.113866	0.025262	-0.001167	-0.012147	-0.614502	0.159180	-0.463135	0.050213	-0.019377	0.080699	-0.115292	-0.250773	0.130286	-0.952285	-12.761660	-30.507862	169.687318
06465		4.732850	-2.023430	8.136743	0.207016	0.142907	-0.187853	0.028261	0.000563	-0.017319	-0.625244	0.168213	-0.464355	0.047327	-0.020250	0.081364	-0.115324	-0.250828	0.130166	-0.952283	-12.744802	-30.513512	169.679532
06466		5.124188	-1.856889	8.004229	-0.230127	0.090202	-0.132196	0.039500	0.004238	-0.021342	-0.615479	0.165283	-0.470215	0.051242	-0.018590	0.080038	-0.115363	-0.250874	0.129985	-0.952291	-12.719892	-30.517475	169.668539
06467		4.860543	-1.862302	7.912997	-0.044805	0.086251	-0.341725	0.047782	0.009043	-0.023320	-0.619141	0.173096	-0.467529	0.048607	-0.018648	0.079123	-0.115405	-0.250904	0.129759	-0.952308	-12.689242	-30.519136	169.655613
06468		4.573909	-1.889325	7.761571	0.139560	0.119440	-0.609512	0.080865	0.008943	-0.046372	-0.618652	0.167725	-0.474609	0.045738	-0.018935	0.077606	-0.115515	-0.250968	0.129347	-0.952334	-12.632030	-30.523599	169.627685
06469		4.198597	-2.283893	7.514953	0.462792	0.517512	-0.933674	0.139211	0.002755	-0.084970	-0.624023	0.169922	-0.465332	0.041977	-0.022909	0.075133	-0.115731	-0.251120	0.128613	-0.952367	-12.529123	-30.536446	169.575641
06470		4.170197	-2.461426	7.843829	0.691226	0.597852	-0.639926	0.218272	-0.005613	-0.144344	-0.619141	0.165771	-0.472412	0.041682	-0.024730	0.078413	-0.116125	-0.251395	0.127431	-0.952406	-12.361867	-30.561061	169.486123
06471		4.177782	-2.640566	8.028789	0.828574	0.737621	-0.450145	0.287022	-0.009364	-0.191702	-0.624756	0.169922	-0.476074	0.041749	-0.026561	0.080252	-0.116656	-0.251758	0.125866	-0.952453	-12.139753	-30.593401	169.366266
06472		4.863382	-1.890378	8.279807	0.159126	0.097978	-0.027690	0.319394	-0.008245	-0.220963	-0.627441	0.165283	-0.481689	0.048609	-0.019090	0.082770	-0.117286	-0.252152	0.124107	-0.952502	-11.889119	-30.628048	169.226953
06473		4.808322	-1.643454	8.360663	0.183750	-0.133194	-0.031584	0.304730	-0.006172	-0.204312	-0.622803	0.162598	-0.470215	0.048064	-0.016611	0.083583	-0.117856	-0.252517	0.122439	-0.952551	-11.652139	-30.659197	169.098047
06474		5.645143	-1.218565	8.324834	-0.648772	-0.353626	0.292229	0.303519	-0.016277	-0.191953	-0.626465	0.159912	-0.475830	0.056433	-0.012366	0.083234	-0.118362	-0.252920	0.120797	-0.952591	-11.420452	-30.694028	168.978314
06475		5.500983	-1.065046	8.352779	-0.547750	-0.500582	0.217934	0.238811	-0.000000	-0.143202	-0.623291	0.153320	-0.472656	0.055002	-0.010790	0.083515	-0.118727	-0.253177	0.119515	-0.952639	-11.240912	-30.713982	168.888173
06476		5.665571	-1.249275	8.182244	-0.703183	-0.227477	0.190425	0.194135	-0.006377	-0.106874	-0.625244	0.158936	-0.476318	0.056646	-0.012602	0.081812	-0.118971	-0.253416	0.118495	-0.952673	-11.099421	-30.733145	168.822479
06477		5.475340	-1.139176	8.258012	-0.533206	-0.367589	0.139819	0.145312	-0.009683	-0.071800	-0.629883	0.155029	-0.476563	0.054745	-0.011471	0.082574	-0.119109	-0.253622	0.117754	-0.952693	-10.997826	-30.750333	168.780147
06478		5.285529	-1.278809	8.256977	-0.328195	-0.255147	0.065421	0.109616	-0.013796	-0.047776	-0.626953	0.156982	-0.476074	0.052847	-0.012846	0.082566	-0.119174	-0.253810	0.117216	-0.952701	-10.924938	-30.767025	168.753973
06479		5.107451	-1.440165	8.219246	-0.144433	-0.113484	-0.030950	0.080630	-0.015339	-0.036319	-0.624512	0.155029	-0.478516	0.051066	-0.014444	0.082191	-0.119221	-0.253983	0.116832	-0.952696	-10.872592	-30.783464	168.735524
06480		5.155428	-1.443025	8.206330	-0.185524	-0.093062	-0.016692	0.067397	-0.024761	-0.023989	-0.625732	0.156494	-0.476074	0.051542	-0.014464	0.082065	-0.119221	-0.254185	0.116531	-0.952679	-10.832539	-30.803717	168.726263
06481		5.253088	-1.457717	8.098860	-0.308012	-0.028504	-0.054833	0.044731	-0.031458	-0.019348	-0.627930	0.157715	-0.475830	0.052517	-0.014600	0.080994	-0.119223	-0.254403	0.116349	-0.952643	-10.807460	-30.827383	168.720920
06482		5.417084	-1.347179	8.031326	-0.504179	-0.083788	-0.045361	0.038665	-0.028830	-0.017071	-0.631104	0.153076	-0.475586	0.054158	-0.013492	0.080318	-0.119224	-0.254603	0.116197	-0.952608	-10.786435	-30.849176	168.716675
06483		5.020671	-1.531624	8.241788	-0.017457	-0.033716	-0.041370	0.028731	-0.023882	-0.012447	-0.637451	0.156006	-0.472412	0.050196	-0.015331	0.082422	-0.119218	-0.254772	0.116095	-0.952576	-10.772341	-30.867843	168.714892
06484		5.103255	-1.593212	8.118626	-0.122360	0.074356	-0.092959	0.027053	-0.021870	-0.010057	-0.635742	0.158936	-0.490234	0.051023	-0.015946	0.081190	-0.119204	-0.254927	0.116003	-0.952547	-10.759874	-30.884965	168.714363
06485		4.752771	-1.646027	8.295559	0.271642	0.016851	-0.115241	0.029538	-0.015133	-0.006156	-0.632324	0.156494	-0.479736	0.047521	-0.016474	0.082957	-0.119172	-0.255051	0.115900	-0.952530	-10.746871	-30.898036	168.715606
06486		5.209868	-1.453247	8.100535	-0.255177	-0.032266	-0.075791	0.025332	-0.012072	-0.007563	-0.633057	0.156006	-0.478027	0.052093	-0.014545	0.081007	-0.119154	-0.255157	0.115814	-0.952515	-10.735599	-30.909376	168.715485
06487		5.105518	-1.514259	8.147679	-0.126512	-0.004065	-0.079859	0.028166	-0.003259	-0.003089	-0.636475	0.161621	-0.483887	0.051054	-0.015155	0.081475	-0.119116	-0.255222	0.115714	-0.952514	-10.723654	-30.915435	168.717259
06488		5.361746	-1.426345	7.974250	-0.445688	0.006059	-0.108422	0.026839	0.000829	-0.000124	-0.631348	0.159180	-0.479980	0.053618	-0.014274	0.079740	-0.119068	-0.255264	0.115622	-0.952520	-10.713201	-30.918721	168.720412
06489		5.041512	-1.574378	8.160913	-0.048238	0.041399	-0.091989	0.029294	0.018168	0.000704	-0.633789	0.158447	-0.483887	0.050423	-0.015756	0.081602	-0.119023	-0.255225	0.115509	-0.952550	-10.700521	-30.912319	168.722014
06490		5.225606	-1.542212	8.059126	-0.259550	0.072605	-0.088375	0.031889	0.014964	-0.001957	-0.634521	0.161377	-0.482910	0.052262	-0.015435	0.080585	-0.118986	-0.255203	0.115383	-0.952576	-10.685655	-30.907843	168.722211
06491		5.008270	-1.585876	8.162575	-0.017663	0.050839	-0.105859	0.031284	0.028831	-0.004206	-0.637451	0.156982	-0.486084	0.050094	-0.015873	0.081616	-0.118968	-0.255118	0.115248	-0.952617	-10.669505	-30.895963	168.719278
06492		5.047984	-1.584173	8.129210	-0.068056	0.068100	-0.113897	0.031757	0.023773	-0.013369	-0.632813	0.157471	-0.484375	0.050488	-0.015858	0.081284	-0.118990	-0.255061	0.115102	-0.952647	-10.650313	-30.887736	168.710902
06493		5.154035	-1.486515	8.069414	-0.213814	0.013288	-0.125410	0.027326	0.032174	-0.013381	-0.629150	0.161621	-0.485596	0.051552	-0.014880	0.080684	-0.119023	-0.254962	0.114972	-0.952685	-10.633136	-30.874944	168.701546
06494		5.292433	-1.483935	8.018183	-0.356148	0.051282	-0.098075	0.026053	0.031291	-0.013698	-0.640137	0.161621	-0.481689	0.052936	-0.014853	0.080172	-0.119058	-0.254866	0.114848	-0.952722	-10.616634	-30.862513	168.692036
06495		4.914420	-1.531384	8.203960	0.058639	-0.016774	-0.127756	0.024828	0.039988	-0.005597	-0.637939	0.162842	-0.487793	0.049160	-0.015325	0.082028	-0.119062	-0.254724	0.114736	-0.952773	-10.603024	-30.844501	168.686839
06496		4.908541	-1.560165	8.220639	0.077226	0.007288	-0.112132	0.023102	0.032421	-0.011629	-0.637451	0.165771	-0.495117	0.049098	-0.015614	0.082197	-0.119092	-0.254620	0.114628	-0.952810	-10.588846	-30.831212	168.678559
06497		4.921695	-1.585078	8.208507	0.065750	0.038822	-0.111692	0.022858	0.034954	-0.007059	-0.636963	0.170654	-0.490479	0.049231	-0.015862	0.082075	-0.119101	-0.254502	0.114526	-0.952852	-10.576198	-30.816186	168.673030
06498		4.932955	-1.529372	8.122625	-0.000592	0.014296	-0.187208	0.024583	0.025152	-0.009543	-0.637939	0.165283	-0.486572	0.049339	-0.015306	0.081218	-0.119115	-0.254431	0.114418	-0.952882	-10.562336	-30.806768	168.667016
06499		4.916433	-1.540025	8.175112	0.039315	0.009110	-0.149675	0.022043	0.023383	-0.010168	-0.635254	0.168213	-0.497070	0.049173	-0.015412	0.081744	-0.119134	-0.254370	0.114323	-0.952908	-10.549842	-30.798582	168.660873
06500		5.050084	-1.457663	8.130751	-0.117941	-0.031948	-0.131659	0.020758	0.019688	-0.007298	-0.637695	0.169922	-0.492676	0.050508	-0.014587	0.081301	-0.119140	-0.254322	0.114240	-0.952930	-10.539272	-30.792005	168.657004
06501		5.139566	-1.436316	8.069489	-0.227988	-0.018353	-0.140952	0.020231	0.015169	-0.006559	-0.637207	0.161865	-0.499756	0.051401	-0.014373	0.080690	-0.119139	-0.254296	0.114162	-0.952946	-10.529544	-30.788067	168.654232
06502		5.207351	-1.450102	8.051355	-0.289856	0.012653	-0.119420	0.020395	0.014803	-0.004686	-0.633545	0.166016	-0.491455	0.052079	-0.014510	0.080508	-0.119129	-0.254270	0.114087	-0.952963	-10.520364	-30.783967	168.652674
06503		4.880984	-1.549060	8.178460	0.070859	0.016906	-0.163569	0.012731	0.017279	-0.006464	-0.645996	0.177246	-0.493408	0.048816	-0.015497	0.081779	-0.119139	-0.254230	0.114044	-0.952978	-10.514833	-30.778835	168.649712
06504		4.981294	-1.484170	8.213458	-0.016880	-0.036013	-0.092844	0.017294	0.019110	-0.007671	-0.637451	0.175293	-0.493164	0.049820	-0.014851	0.082129	-0.119150	-0.254183	0.113977	-0.952997	-10.506163	-30.772620	168.645674
06505		5.040821	-1.479891	8.150786	-0.097349	-0.011271	-0.116004	0.018944	0.011476	-0.003690	-0.645508	0.169189	-0.496826	0.050413	-0.014808	0.081504	-0.119135	-0.254173	0.113912	-0.953009	-10.498364	-30.770466	168.645237
06506		5.137590	-1.437170	8.097102	-0.216222	-0.019438	-0.118554	0.012647	0.019449	-0.000022	-0.644287	0.175781	-0.497070	0.051384	-0.014377	0.080965	-0.119116	-0.254117	0.113877	-0.953031	-10.494902	-30.763261	168.646175
06507		5.068495	-1.460757	8.154041	-0.125937	-0.024111	-0.102106	0.011596	0.010411	0.001468	-0.654541	0.169434	-0.500244	0.050689	-0.014612	0.081537	-0.119085	-0.254105	0.113854	-0.953041	-10.493109	-30.761172	168.649250
06508		4.923526	-1.490997	8.222194	0.035457	-0.038840	-0.113931	0.005366	0.013406	0.001874	-0.643311	0.169434	-0.497070	0.049241	-0.014912	0.082218	-0.119062	-0.254072	0.113859	-0.953052	-10.494830	-30.757174	168.652166
06509		4.953312	-1.504924	8.157764	-0.015444	-0.002934	-0.150960	0.005254	0.005984	-0.000076	-0.645508	0.172852	-0.500000	0.049536	-0.015051	0.081576	-0.119045	-0.254078	0.113867	-0.953051	-10.496426	-30.757741	168.654766
06510		4.919304	-1.552524	8.171603	0.032722	0.032273	-0.149206	0.003010	0.014077	-0.000056	-0.650635	0.171631	-0.495605	0.049199	-0.015526	0.081712	-0.119035	-0.254042	0.113881	-0.953061	-10.498808	-30.753566	168.656334
06511		5.209366	-1.459201	8.022928	-0.306712	0.034308	-0.141137	0.007806	0.010563	-0.002647	-0.644287	0.164551	-0.500000	0.052098	-0.014596	0.080226	-0.119028	-0.254029	0.113871	-0.953066	-10.497797	-30.751821	168.656692
06512		4.997585	-1.554110	8.183860	-0.028101	0.043759	-0.098576	0.005959	0.012946	-0.002136	-0.652100	0.174561	-0.503174	0.049981	-0.015544	0.081835	-0.119024	-0.254001	0.113868	-0.953074	-10.497861	-30.748501	168.657034
06513		5.294624	-1.438494	8.043117	-0.376322	0.024008	-0.083770	0.008511	0.017524	-0.004708	-0.646240	0.174561	-0.500732	0.052953	-0.014390	0.080426	-0.119031	-0.253957	0.113848	-0.953088	-10.495323	-30.743053	168.655197
06514		4.676253	-1.599790	8.385399	0.346134	-0.022428	-0.085341	0.009019	0.019236	-0.002270	-0.647217	0.177246	-0.502441	0.046770	-0.016002	0.083849	-0.119027	-0.253901	0.113827	-0.953106	-10.493199	-30.736203	168.654688
06515		5.136208	-1.449353	8.148790	-0.193102	-0.020824	-0.073780	0.008908	0.011814	-0.004217	-0.659668	0.175781	-0.506348	0.051367	-0.014498	0.081484	-0.119027	-0.253884	0.113809	-0.953112	-10.490952	-30.733921	168.653866
06516		5.092983	-1.438254	8.081238	-0.191039	-0.019812	-0.154708	0.002154	0.010289	-0.003066	-0.653564	0.173584	-0.502197	0.050934	-0.014384	0.080810	-0.119030	-0.253867	0.113825	-0.953114	-10.493051	-30.732195	168.653922
06517		4.952981	-1.518113	8.208410	0.007158	-0.003435	-0.106266	0.003351	0.016155	0.000500	-0.655762	0.176514	-0.509277	0.049536	-0.015182	0.082080	-0.119018	-0.253823	0.113837	-0.953126	-10.495298	-30.726979	168.655665
06518		4.920788	-1.494400	8.170860	0.009754	-0.021076	-0.158165	0.004673	0.009253	0.000739	-0.650391	0.177490	-0.500000	0.049212	-0.014946	0.081706	-0.118999	-0.253811	0.113846	-0.953131	-10.497291	-30.725439	168.658340
06519		4.781542	-1.605315	8.231575	0.186086	0.043251	-0.160614	0.003421	0.011175	-0.002759	-0.655273	0.180176	-0.500977	0.047820	-0.016055	0.082313	-0.119000	-0.253792	0.113856	-0.953135	-10.498714	-30.723369	168.658552
06520		5.192566	-1.444870	8.088373	-0.271632	0.000545	-0.096804	0.002733	0.007021	-0.003886	-0.659180	0.181152	-0.514648	0.051928	-0.014451	0.080882	-0.119004	-0.253792	0.113871	-0.953132	-10.500409	-30.723569	168.658467
06521		5.086507	-1.507894	8.135832	-0.142983	0.028819	-0.101004	0.003005	0.014078	-0.000066	-0.655273	0.177979	-0.508057	0.050871	-0.015080	0.081355	-0.118994	-0.253758	0.113885	-0.953141	-10.502793	-30.719583	168.660090
06522		5.100355	-1.494589	8.085616	-0.181953	0.032388	-0.138472	0.003257	0.011540	-0.004637	-0.653564	0.186523	-0.505859	0.051008	-0.014948	0.080853	-0.119004	-0.253737	0.113893	-0.953144	-10.503655	-30.717316	168.658964
06523		5.189875	-1.443740	8.090302	-0.270129	-0.001998	-0.096762	0.003584	0.010810	-0.000885	-0.659424	0.181885	-0.511475	0.051903	-0.014439	0.080900	-0.118995	-0.253719	0.113905	-0.953149	-10.505635	-30.715260	168.660449
06524		4.909480	-1.554505	8.203586	0.048956	0.023635	-0.126855	0.000306	0.012672	-0.002562	-0.660889	0.189453	-0.507324	0.049100	-0.015546	0.082033	-0.118999	-0.253690	0.113929	-0.953153	-10.508813	-30.712139	168.660544
06525		5.021122	-1.469110	8.164883	-0.087453	-0.028119	-0.115944	-0.002591	0.006016	-0.000552	-0.662109	0.182373	-0.504395	0.050214	-0.014690	0.081648	-0.118994	-0.253691	0.113974	-0.953148	-10.514739	-30.712750	168.662830
06526		5.058330	-1.461641	8.108019	-0.147207	-0.013943	-0.146189	-0.001740	0.009805	0.002450	-0.657227	0.183838	-0.508057	0.050587	-0.014615	0.081078	-0.118975	-0.253671	0.114016	-0.953151	-10.520944	-30.710720	168.666558
06527		4.835357	-1.570819	8.238218	0.130908	0.014200	-0.132861	-0.009943	0.004952	0.004604	-0.657227	0.175781	-0.503174	0.048356	-0.015703	0.082382	-0.118954	-0.253670	0.114103	-0.953143	-10.532874	-30.711393	168.672352
06528		5.047110	-1.516296	8.115299	-0.119314	0.031018	-0.137185	-0.006067	0.002629	0.002274	-0.671631	0.189453	-0.515625	0.050472	-0.015160	0.081153	-0.118938	-0.253682	0.114169	-0.953134	-10.541945	-30.713423	168.676838
06529		4.937133	-1.540238	8.205956	0.021888	0.008245	-0.112956	-0.009888	-0.002836	0.004538	-0.666992	0.180176	-0.507324	0.049371	-0.015397	0.082061	-0.118912	-0.253718	0.114261	-0.953117	-10.554308	-30.718487	168.683539
06530		5.019558	-1.472720	8.165194	-0.084990	-0.032326	-0.115935	-0.012242	-0.002165	0.002605	-0.660645	0.188232	-0.506592	0.050195	-0.014722	0.081653	-0.118900	-0.253749	0.114360	-0.953098	-10.567329	-30.723180	168.688829
06531		5.195651	-1.497649	8.069659	-0.269375	0.045383	-0.102769	-0.013691	-0.005493	0.003609	-0.670166	0.182861	-0.515869	0.051955	-0.014970	0.080699	-0.118882	-0.253796	0.114470	-0.953075	-10.581728	-30.729837	168.695250
06532		5.001697	-1.510348	8.126742	-0.075787	0.006479	-0.151617	-0.015032	-0.001399	0.006556	-0.667480	0.179199	-0.513916	0.050017	-0.015096	0.081269	-0.118854	-0.253820	0.114587	-0.953058	-10.597624	-30.733680	168.703038
06533		5.040705	-1.544243	8.106036	-0.108050	0.048593	-0.143811	-0.012424	-0.004607	0.003916	-0.669434	0.187988	-0.508057	0.050405	-0.015436	0.081062	-0.118834	-0.253863	0.114690	-0.953036	-10.611348	-30.739807	168.709558
06534		4.883972	-1.517754	8.172304	0.047202	-0.023273	-0.172120	-0.009708	-0.000393	0.003222	-0.668457	0.187012	-0.517334	0.048840	-0.015173	0.081724	-0.118816	-0.253887	0.114777	-0.953022	-10.623017	-30.743433	168.715041
06535		5.003800	-1.584935	8.096371	-0.068735	0.079897	-0.164363	-0.007444	-0.005678	0.000019	-0.674072	0.191162	-0.512695	0.050036	-0.015846	0.080966	-0.118807	-0.253941	0.114853	-0.952999	-10.632652	-30.750572	168.719141
06536		5.104814	-1.481658	8.093323	-0.183814	-0.001181	-0.131648	-0.003206	-0.003116	-0.004936	-0.669189	0.191162	-0.511719	0.051047	-0.014817	0.080934	-0.118819	-0.253986	0.114900	-0.952980	-10.638035	-30.756593	168.719616
06537		4.846022	-1.660191	8.147654	0.110702	0.108000	-0.189772	0.001087	-0.001557	0.001622	-0.679932	0.192627	-0.512451	0.048460	-0.016602	0.081477	-0.118794	-0.254024	0.114935	-0.952969	-10.643063	-30.761244	168.724263
06538		4.832254	-1.539221	8.279687	0.148910	-0.046104	-0.104506	0.005904	-0.002263	-0.004151	-0.674561	0.189941	-0.514893	0.048321	-0.015396	0.082797	-0.118790	-0.254071	0.114939	-0.952956	-10.643437	-30.766701	168.725148
06539		5.059116	-1.612937	8.127668	-0.089606	0.103833	-0.105144	0.005379	-0.006782	-0.003402	-0.670654	0.196045	-0.510986	0.050588	-0.016132	0.081278	-0.118781	-0.254139	0.114950	-0.952938	-10.644652	-30.774823	168.727146
06540		4.883192	-1.579332	8.119688	0.046351	0.044597	-0.207218	0.011138	0.000914	-0.001037	-0.673584	0.196777	-0.515137	0.048832	-0.015798	0.081196	-0.118757	-0.254171	0.114931	-0.952935	-10.642871	-30.778162	168.729681
06541		5.248689	-1.550478	8.011038	-0.318549	0.109178	-0.116500	0.009780	-0.004585	-0.006481	-0.671875	0.197998	-0.515869	0.052485	-0.015510	0.080111	-0.118758	-0.254234	0.114916	-0.952920	-10.640396	-30.785373	168.729389
06542		5.078991	-1.454227	7.973882	-0.218861	0.000267	-0.249956	0.013909	-0.002660	-0.001802	-0.676270	0.198975	-0.521729	0.050789	-0.014548	0.079738	-0.118733	-0.254285	0.114885	-0.952913	-10.636996	-30.790806	168.731863
06543		4.941482	-1.573534	8.136989	0.006881	0.044515	-0.163708	0.009254	-0.009105	-0.005733	-0.684082	0.193848	-0.513428	0.049411	-0.015741	0.081371	-0.118729	-0.254369	0.114876	-0.952892	-10.635358	-30.800489	168.732620
06544		5.173540	-1.522132	8.088310	-0.224042	0.048654	-0.094117	0.011643	-0.004161	-0.010182	-0.687744	0.195557	-0.523438	0.051733	-0.015229	0.080883	-0.118745	-0.254431	0.114846	-0.952877	-10.630538	-30.807652	168.729784
06545		4.837685	-1.634342	8.183470	0.135990	0.072016	-0.168012	0.011102	-0.011487	-0.006243	-0.677002	0.197021	-0.515869	0.048372	-0.016349	0.081837	-0.118740	-0.254527	0.114829	-0.952854	-10.627820	-30.818734	168.730498
06546		4.812039	-1.627660	8.270402	0.197327	0.037393	-0.108863	0.015664	-0.009656	-0.007449	-0.681396	0.198486	-0.518066	0.048116	-0.016285	0.082705	-0.118735	-0.254616	0.114787	-0.952836	-10.621960	-30.828703	168.730128
06547		4.696594	-1.702165	8.287122	0.325368	0.084474	-0.142178	0.015932	-0.009387	-0.015212	-0.679688	0.199707	-0.515869	0.046961	-0.017032	0.082872	-0.118767	-0.254710	0.114734	-0.952813	-10.613327	-30.839545	168.724699
06548		5.073843	-1.476335	8.148638	-0.117599	-0.026346	-0.101393	0.013289	-0.018581	-0.017775	-0.693359	0.195801	-0.516357	0.050730	-0.014773	0.081490	-0.118810	-0.254846	0.114696	-0.952776	-10.605915	-30.855629	168.718649
06549		5.244966	-1.377547	8.022452	-0.344385	-0.055592	-0.135634	0.010214	-0.027679	-0.014454	-0.686523	0.194336	-0.516846	0.052438	-0.013783	0.080231	-0.118835	-0.255024	0.114682	-0.952727	-10.601964	-30.876690	168.715958
06550		5.117825	-1.537032	8.059685	-0.171352	0.062978	-0.144192	0.002535	-0.028015	-0.013049	-0.692139	0.193359	-0.519775	0.051166	-0.015375	0.080604	-0.118863	-0.255195	0.114706	-0.952675	-10.602894	-30.897589	168.714164
06551		5.115882	-1.495852	8.102131	-0.158235	0.011011	-0.115823	0.002770	-0.033360	-0.014435	-0.691650	0.189697	-0.518311	0.051144	-0.014963	0.081030	-0.118894	-0.255395	0.114731	-0.952614	-10.603568	-30.921852	168.712184
06552		4.922608	-1.568791	8.106472	0.031471	0.045168	-0.199934	-0.000634	-0.041729	-0.014871	-0.689453	0.196289	-0.518311	0.049208	-0.015691	0.081075	-0.118928	-0.255632	0.114776	-0.952541	-10.606565	-30.950666	168.710880
06553		4.892675	-1.553640	8.249987	0.123610	-0.015783	-0.096782	-0.005554	-0.052430	-0.025824	-0.694824	0.193848	-0.514160	0.048903	-0.015540	0.082513	-0.119013	-0.255924	0.114838	-0.952445	-10.609366	-30.986872	168.703766
06554		4.788642	-1.607390	8.271947	0.242837	0.009538	-0.123475	-0.007870	-0.062353	-0.024650	-0.688965	0.194092	-0.513428	0.047859	-0.016077	0.082735	-0.119090	-0.256260	0.114917	-0.952335	-10.614507	-31.028332	168.698579
06555		4.667103	-1.665212	8.321970	0.392236	0.027326	-0.135117	-0.012409	-0.081569	-0.031941	-0.692383	0.199707	-0.520264	0.046634	-0.016654	0.083240	-0.119196	-0.256691	0.115021	-0.952194	-10.621005	-31.081590	168.691034
06556		4.858914	-1.532454	8.310098	0.197378	-0.065739	-0.067335	-0.014438	-0.104622	-0.032261	-0.694336	0.194336	-0.516357	0.048543	-0.015326	0.083127	-0.119294	-0.257228	0.115147	-0.952021	-10.630012	-31.147659	168.686062
06557		4.951034	-1.494868	8.196997	0.068553	-0.058250	-0.120937	-0.023457	-0.123862	-0.030052	-0.701660	0.192383	-0.514404	0.049457	-0.014946	0.082002	-0.119381	-0.257852	0.115330	-0.951819	-10.646184	-31.224528	168.684999
06558		5.291485	-1.403295	8.084348	-0.281671	-0.061646	-0.053457	-0.032193	-0.156232	-0.029356	-0.700684	0.199463	-0.517090	0.052850	-0.014028	0.080887	-0.119457	-0.258622	0.115575	-0.951571	-10.669685	-31.319352	168.688375
06559		5.009607	-1.418423	8.233702	0.043875	-0.144113	-0.072091	-0.048383	-0.171296	-0.026523	-0.706055	0.201172	-0.514160	0.050024	-0.014171	0.082383	-0.119532	-0.259455	0.115910	-0.951294	-10.704457	-31.422555	168.695616
06560		5.067671	-1.534648	8.276070	0.066610	-0.046325	0.011932	-0.065631	-0.215579	-0.027626	-0.701660	0.193604	-0.510498	0.050585	-0.015326	0.082820	-0.119610	-0.260486	0.116352	-0.950948	-10.751676	-31.550599	168.707700
06561		5.146014	-1.496143	8.161826	-0.041453	-0.049394	-0.048923	-0.084190	-0.255124	-0.035510	-0.705078	0.195557	-0.513916	0.051353	-0.014936	0.081690	-0.119725	-0.261700	0.116895	-0.950534	-10.809520	-31.701936	168.719769
06562		4.751716	-1.624671	8.501450	0.509987	-0.105615	0.047419	-0.119685	-0.302649	-0.054464	-0.707764	0.202881	-0.503662	0.047384	-0.016209	0.085096	-0.119949	-0.263128	0.117610	-0.950023	-10.884408	-31.881849	168.725482
06563		4.452995	-2.032519	8.465539	0.891981	0.221835	-0.077150	-0.127499	-0.381201	-0.076605	-0.717285	0.202393	-0.508789	0.044361	-0.020288	0.084753	-0.120241	-0.264937	0.118380	-0.949387	-10.961499	-32.108543	168.726919
06564		4.472953	-1.523356	8.688058	0.875304	-0.340160	0.032523	-0.119357	-0.526788	-0.067530	-0.709229	0.198486	-0.491943	0.044495	-0.015197	0.087007	-0.120393	-0.267434	0.119210	-0.948564	-11.047403	-32.415932	168.753545
06565		4.828734	-1.677005	8.479464	0.580564	-0.101455	0.070765	-0.144536	-0.643160	-0.078568	-0.723145	0.199707	-0.489258	0.048008	-0.016728	0.084961	-0.120561	-0.270474	0.120214	-0.947553	-11.152500	-32.790101	168.788807
06566		4.947495	-1.611681	8.406744	0.494474	-0.152641	0.060521	-0.167940	-0.772824	-0.086297	-0.723633	0.198975	-0.485107	0.049143	-0.016067	0.084271	-0.120717	-0.274113	0.121395	-0.946337	-11.278354	-33.237773	168.837127
06567		5.034634	-1.578514	8.457834	0.517639	-0.220442	0.140047	-0.185380	-0.920645	-0.104099	-0.734375	0.191162	-0.476318	0.049948	-0.015733	0.084823	-0.120889	-0.278448	0.122720	-0.944877	-11.419811	-33.770554	168.895017
06568		4.819123	-1.548654	8.576970	0.837028	-0.360044	0.104745	-0.216252	-1.067675	-0.112068	-0.729248	0.199219	-0.466309	0.047724	-0.015420	0.086042	-0.121049	-0.283454	0.124266	-0.943164	-11.588963	-34.386503	168.969871
06569		4.943251	-1.497555	8.620941	0.851447	-0.449669	0.190838	-0.237660	-1.233318	-0.119205	-0.736816	0.200684	-0.456543	0.048891	-0.014902	0.086530	-0.121165	-0.289225	0.125999	-0.941165	-11.783350	-35.096163	169.066264
06570		4.976356	-1.504446	8.687232	0.984570	-0.513085	0.250172	-0.266455	-1.385314	-0.124885	-0.750000	0.204346	-0.453369	0.049151	-0.014959	0.087234	-0.121249	-0.295683	0.127945	-0.938883	-12.008167	-35.891274	169.184830
06571		5.313178	-1.542797	8.539979	0.789432	-0.440797	0.322485	-0.283990	-1.529767	-0.140294	-0.750000	0.199951	-0.432129	0.052466	-0.015343	0.085825	-0.121331	-0.302802	0.130031	-0.936313	-12.254021	-36.768872	169.319620
06572		5.218886	-1.755298	8.711522	1.173537	-0.375049	0.419032	-0.272284	-1.657044	-0.152358	-0.769287	0.197510	-0.427490	0.051451	-0.017473	0.087567	-0.121361	-0.310511	0.132113	-0.933488	-12.505519	-37.718584	169.471931
06573		5.391363	-1.797032	8.680357	1.202228	-0.366938	0.485945	-0.233077	-1.772257	-0.180625	-0.773926	0.188965	-0.406982	0.053125	-0.017917	0.087298	-0.121377	-0.318777	0.134027	-0.930422	-12.739958	-38.735824	169.629676
06574		5.765000	-1.802292	8.503608	0.998332	-0.316507	0.564921	-0.197619	-1.870949	-0.219951	-0.784424	0.199219	-0.391602	0.056831	-0.018001	0.085588	-0.121443	-0.327522	0.135763	-0.927119	-12.953380	-39.812617	169.782721
06575		5.751322	-2.135489	8.445005	1.272178	-0.049806	0.547409	-0.150183	-1.969010	-0.275559	-0.799561	0.188721	-0.377197	0.056649	-0.021370	0.085027	-0.121611	-0.336758	0.137233	-0.923565	-13.131003	-40.950994	169.918992
06576		6.100072	-2.227055	8.095652	1.041695	0.140594	0.512103	-0.108790	-2.095649	-0.342015	-0.805664	0.194824	-0.353271	0.060110	-0.022330	0.081602	-0.121916	-0.346612	0.138464	-0.919687	-13.273308	-42.168345	170.034551
06577		6.204312	-2.399019	8.049996	1.212738	0.275702	0.555531	-0.056090	-2.195564	-0.420707	-0.813477	0.186279	-0.345459	0.061104	-0.024097	0.081181	-0.122408	-0.356971	0.139360	-0.915514	-13.362702	-43.451655	170.113955
06578		6.295479	-2.266301	7.943850	1.272014	0.150629	0.494019	-0.026084	-2.308454	-0.510780	-0.820801	0.183838	-0.325195	0.061974	-0.022812	0.080161	-0.123164	-0.367881	0.140008	-0.910984	-13.404702	-44.809725	170.148062
06579		6.081009	-2.437949	8.190320	1.881300	0.154457	0.504039	0.009752	-2.406133	-0.603181	-0.832031	0.177002	-0.301270	0.059745	-0.024565	0.082625	-0.124188	-0.379267	0.140362	-0.906108	-13.388425	-46.234513	170.128448
06580		7.156120	-2.606409	7.851645	1.250369	0.514878	1.041643	0.002053	-2.504190	-0.712677	-0.836426	0.177490	-0.275635	0.070477	-0.026317	0.079403	-0.125634	-0.391108	0.140582	-0.900826	-13.323223	-47.728432	170.036366
06581		8.496555	-2.580146	7.245663	0.232562	0.822851	1.615788	0.009550	-2.401932	-0.796318	-0.844238	0.164551	-0.255127	0.083984	-0.026141	0.073468	-0.127493	-0.402488	0.140518	-0.895547	-13.179320	-49.176170	169.846967
06582		9.307695	-2.248740	7.018340	-0.273830	0.660944	2.037575	-0.030715	-2.214954	-0.832460	-0.844971	0.158936	-0.235107	0.092197	-0.022861	0.071211	-0.129707	-0.412969	0.140420	-0.890458	-12.993691	-50.523904	169.576784
06583		9.504068	-2.091482	7.057280	-0.156129	0.497146	2.196884	-0.183010	-1.983294	-0.812568	-0.856689	0.144775	-0.218750	0.094249	-0.021234	0.071529	-0.132293	-0.422253	0.140873	-0.885638	-12.858009	-51.739210	169.263562
06584		10.421798	-2.601464	6.978618	-0.344544	1.071835	2.947028	-0.380742	-1.687921	-0.777239	-0.865479	0.144043	-0.205322	0.103522	-0.026284	0.070712	-0.135335	-0.430030	0.142067	-0.881235	-12.799761	-52.784692	168.909883
06585		8.900170	-2.405940	5.574562	-0.315405	1.202313	0.889165	-0.426587	-1.446401	-0.811993	-0.863281	0.132568	-0.197266	0.088497	-0.024299	0.056439	-0.138788	-0.436701	0.143213	-0.877223	-12.688822	-53.699270	168.462157
06586		8.417942	-2.070968	7.407716	1.338956	0.124752	1.510492	-0.594666	-1.244297	-0.763441	-0.865967	0.125732	-0.169922	0.083637	-0.020808	0.074660	-0.142531	-0.442304	0.145051	-0.873505	-12.663595	-54.494455	168.006303
06587		7.081937	-3.240165	9.153330	3.943886	0.316096	1.535459	-0.876623	-0.778233	-0.652745	-0.861084	0.126465	-0.160400	0.070357	-0.032229	0.091949	-0.146744	-0.445567	0.148027	-0.870646	-12.796301	-55.015426	167.549663
06588		4.436754	-4.248169	7.780835	4.887592	1.375747	-1.298504	-0.817593	-0.339777	-0.668000	-0.869141	0.110352	-0.165527	0.044094	-0.042311	0.078057	-0.151211	-0.446959	0.150384	-0.868762	-12.798197	-55.293681	166.977157
06589		2.481805	-3.890764	7.985683	6.017891	0.670297	-2.855386	-0.578388	-0.001710	-0.750680	-0.867188	0.109375	-0.156982	0.024672	-0.038769	0.079969	-0.155753	-0.447112	0.151258	-0.867729	-12.530703	-55.392467	166.244920
06590		2.920737	-3.015763	9.432658	6.482556	-0.674697	-1.805080	-0.465110	0.295177	-0.745244	-0.867188	0.104980	-0.154541	0.029235	-0.030047	0.094353	-0.160239	-0.446053	0.151418	-0.867429	-12.148777	-55.322159	165.452765
06591		4.208618	-3.306050	9.859640	6.173398	-0.417091	-0.454813	-0.508059	0.764231	-0.616557	-0.859619	0.095703	-0.163574	0.042361	-0.032940	0.098519	-0.164613	-0.442813	0.151672	-0.868225	-11.820896	-54.970607	164.694220
06592		2.059874	-4.436800	8.620005	6.889352	0.767043	-2.728867	-0.545241	1.214739	-0.432531	-0.856689	0.096436	-0.171143	0.021027	-0.044178	0.086194	-0.168607	-0.437433	0.152117	-0.870106	-11.599355	-54.343078	164.035597
06593		0.967176	-4.618300	7.608978	6.799892	1.152514	-4.103652	-0.443293	1.373212	-0.303215	-0.863281	0.084229	-0.189209	0.010124	-0.046029	0.076123	-0.171927	-0.431325	0.152262	-0.872477	-11.411070	-53.610046	163.484340
06594		1.438629	-4.095333	7.417534	6.105886	0.832349	-3.822225	-0.402122	1.456173	-0.145078	-0.844727	0.082031	-0.190430	0.014897	-0.040815	0.074150	-0.174521	-0.424749	0.152487	-0.875145	-11.319808	-52.812166	163.078568
06595		2.216939	-3.768555	7.667365	5.598852	0.568810	-3.013189	-0.459212	1.583569	0.088839	-0.838379	0.090088	-0.211914	0.022793	-0.037500	0.076581	-0.176300	-0.417357	0.153340	-0.878190	-11.423153	-51.915799	162.872185
06596		2.379849	-4.008071	7.704577	5.520734	0.790337	-2.742778	-0.517648	1.744651	0.354028	-0.843018	0.096191	-0.220703	0.024541	-0.039838	0.076937	-0.177146	-0.408975	0.154847	-0.881692	-11.724416	-50.899514	162.873926
06597		2.391164	-4.113870	7.589360	5.351644	0.928084	-2.689769	-0.491901	1.868656	0.606429	-0.823486	0.094482	-0.230713	0.024744	-0.040878	0.075766	-0.176907	-0.399830	0.156635	-0.885610	-12.156484	-49.783156	163.064176
06598		2.449749	-3.807549	7.626727	5.057200	0.649028	-2.555544	-0.416039	1.958926	0.823222	-0.809814	0.100098	-0.250244	0.025399	-0.037814	0.076100	-0.175607	-0.390144	0.158420	-0.889861	-12.655820	-48.589299	163.404586
06599		2.840420	-3.197954	7.825348	4.504334	0.100906	-2.116695	-0.353680	2.027099	1.005333	-0.803955	0.107666	-0.262939	0.029356	-0.031695	0.078015	-0.173408	-0.380011	0.160208	-0.894346	-13.200132	-47.331276	163.859455
06600		3.265122	-2.638959	7.979046	3.897418	-0.374909	-1.691357	-0.318184	2.094958	1.144253	-0.794434	0.121582	-0.274658	0.033635	-0.026072	0.079483	-0.170550	-0.369448	0.162016	-0.898984	-13.768164	-46.014754	164.385108
06601		3.654165	-2.050044	8.141959	3.283548	-0.889076	-1.311468	-0.311941	2.159291	1.232155	-0.772217	0.115967	-0.288086	0.037543	-0.020145	0.081049	-0.167314	-0.358466	0.163883	-0.903687	-14.342705	-44.645837	164.936208
06602		3.941914	-1.550885	8.252261	2.726850	-1.324024	-1.046243	-0.345676	2.202744	1.268440	-0.757324	0.133789	-0.307617	0.040422	-0.015112	0.082107	-0.163981	-0.347181	0.165901	-0.908324	-14.917622	-43.244637	165.474437
06603		4.142830	-1.285728	8.187822	2.216593	-1.498346	-0.941734	-0.381604	2.207150	1.245854	-0.746338	0.136230	-0.320068	0.042407	-0.012439	0.081438	-0.160791	-0.335800	0.168015	-0.912774	-15.470968	-41.839688	165.963729
06604		4.480787	-0.997828	8.103680	1.585245	-1.663613	-0.787287	-0.415737	2.167721	1.183238	-0.734863	0.150146	-0.331543	0.045740	-0.009542	0.080565	-0.157884	-0.324578	0.170182	-0.916930	-15.991282	-40.463857	166.387366
06605		5.232911	-0.910446	8.192659	0.815849	-1.650883	-0.224336	-0.447650	2.103121	1.095914	-0.724121	0.152100	-0.346680	0.053235	-0.008632	0.081390	-0.155352	-0.313644	0.172381	-0.920749	-16.475800	-39.133790	166.737628
06606		5.928611	-1.030385	8.289545	0.156290	-1.468288	0.323474	-0.455538	2.044420	1.011642	-0.707520	0.156250	-0.347656	0.060180	-0.009813	0.082306	-0.153146	-0.303011	0.174503	-0.924272	-16.916578	-37.848700	167.021126
06607		6.580667	-1.023185	8.448763	-0.503778	-1.432410	0.837354	-0.448778	1.969492	0.936401	-0.686768	0.156738	-0.360840	0.066681	-0.009732	0.083856	-0.151195	-0.292747	0.176518	-0.927513	-17.317109	-36.614692	167.251893
06608		7.441756	-1.099390	8.645570	-1.291926	-1.300649	1.499631	-0.456492	1.898248	0.880287	-0.678711	0.159668	-0.373535	0.075281	-0.010468	0.085768	-0.149432	-0.282832	0.178516	-0.930488	-17.696222	-35.429104	167.446152
06609		8.400389	-1.370748	9.004791	-2.031435	-1.045594	2.365411	-0.459156	1.873267	0.853045	-0.665283	0.161133	-0.380371	0.084899	-0.013141	0.089286	-0.147762	-0.273014	0.180488	-0.933303	-18.059638	-34.259907	167.615260
06610		9.163964	-1.554156	9.133282	-2.783936	-0.805371	2.891846	-0.432425	1.898465	0.852765	-0.659912	0.164551	-0.389160	0.092566	-0.014952	0.090490	-0.146062	-0.263077	0.182295	-0.936069	-18.395429	-33.077251	167.768062
06611		9.324834	-1.502410	8.856405	-3.325493	-0.707392	2.680509	-0.377449	1.927075	0.866503	-0.649414	0.158203	-0.396484	0.094160	-0.014451	0.087687	-0.144236	-0.252995	0.183823	-0.938828	-18.693438	-31.874887	167.913488
06612		9.170043	-1.239933	8.234344	-3.812182	-0.704702	1.951521	-0.315548	1.889931	0.865009	-0.635010	0.159912	-0.402832	0.092525	-0.011871	0.081491	-0.142287	-0.243114	0.185062	-0.941489	-18.952343	-30.693337	168.057523
06613		9.286012	-0.779643	7.759953	-4.500316	-0.891932	1.412358	-0.262160	1.760181	0.855603	-0.629639	0.158447	-0.409912	0.093570	-0.007296	0.076788	-0.140184	-0.233858	0.186113	-0.943939	-19.185693	-29.582394	168.215959
06614		9.827208	-0.379378	7.325925	-5.478675	-0.972123	1.115360	-0.217182	1.585689	0.845920	-0.624023	0.165283	-0.428467	0.098863	-0.003297	0.072481	-0.137898	-0.225452	0.187045	-0.946134	-19.402763	-28.568013	168.399766
06615		10.441839	-0.307476	6.782348	-6.418966	-0.707045	0.837216	-0.140377	1.401734	0.811563	-0.620605	0.161865	-0.428467	0.104902	-0.002602	0.067091	-0.135506	-0.217978	0.187689	-0.948102	-19.579448	-27.658228	168.596573
06616		10.973986	-0.432038	6.248181	-7.189194	-0.287252	0.574093	-0.001888	1.215684	0.744043	-0.617188	0.167236	-0.435791	0.110132	-0.003911	0.061813	-0.133100	-0.211537	0.187716	-0.949894	-19.671945	-26.862220	168.788936
06617		11.403998	-0.313402	5.833414	-7.881694	-0.151050	0.288417	0.135713	1.034821	0.662295	-0.607422	0.153564	-0.441650	0.114349	-0.002795	0.057741	-0.130763	-0.206109	0.187117	-0.951529	-19.677941	-26.178791	168.968813
06618		11.714589	-0.325875	5.482179	-8.379472	0.056236	0.044898	0.219264	0.883234	0.582206	-0.608887	0.158936	-0.444092	0.117395	-0.002977	0.054300	-0.128573	-0.201531	0.186129	-0.953001	-19.627127	-25.593274	169.132610
06619		11.952297	0.454922	2.648410	-9.863935	0.549732	-2.568481	0.315775	0.594437	0.308446	-0.598389	0.147949	-0.439453	0.119594	0.004692	0.026136	-0.127319	-0.198637	0.184588	-0.954076	-19.476095	-25.216012	169.194444
06620		13.622055	1.299403	2.763728	-11.608160	0.035176	-2.057928	0.286650	0.287956	0.075164	-0.601318	0.155273	-0.442871	0.136255	0.013006	0.027460	-0.126922	-0.197404	0.183148	-0.954662	-19.310110	-25.049350	169.182551
06621		14.169371	0.223066	3.568355	-11.505707	0.794721	-0.838222	0.163870	0.210731	-0.060778	-0.601563	0.155762	-0.448730	0.141732	0.002158	0.035536	-0.127225	-0.196584	0.182207	-0.954971	-19.187179	-24.949951	169.106047
06622		13.001815	-0.810410	3.408381	-10.202558	1.617791	-1.174895	0.148553	0.195891	-0.137720	-0.598877	0.141602	-0.452393	0.130046	-0.008219	0.033950	-0.127896	-0.195896	0.181273	-0.955200	-19.055238	-24.873034	168.987034
06623		11.131318	-0.903595	3.122340	-8.601302	1.519862	-2.185153	0.184269	0.059420	-0.189796	-0.591553	0.144287	-0.450195	0.111314	-0.009170	0.031182	-0.128657	-0.195931	0.180205	-0.955293	-18.901658	-24.879603	168.865222
06624		9.665523	-0.994998	3.411288	-7.160656	1.252207	-2.518432	0.119692	-0.145109	-0.211222	-0.595459	0.143066	-0.447021	0.096620	-0.010072	0.034177	-0.129399	-0.196920	0.179555	-0.955112	-18.797178	-25.000681	168.772246
06625		8.854988	-3.254395	4.286862	-5.407726	2.812076	-1.432491	0.132462	-0.326879	-0.169055	-0.604248	0.137939	-0.451416	0.088452	-0.032647	0.042992	-0.129764	-0.198749	0.179003	-0.954787	-18.711342	-25.212780	168.741245
06626		8.489188	-3.694645	3.970159	-5.012396	3.278699	-1.713014	0.575118	-0.516602	-0.099962	-0.593506	0.140137	-0.449463	0.084771	-0.037103	0.039814	-0.129187	-0.201704	0.176528	-0.954706	-18.405634	-25.514921	168.789116
06627		8.199174	-1.076078	4.521001	-5.352223	0.656366	-2.083112	0.814135	-0.722836	-0.003288	-0.609375	0.134766	-0.451904	0.081828	-0.010947	0.045462	-0.127723	-0.205712	0.173138	-0.954669	-18.005521	-25.912720	168.934558
06628		7.835409	-0.303404	4.938110	-5.064991	-0.270195	-2.057503	0.655454	-0.892935	0.118617	-0.614502	0.135498	-0.438232	0.078134	-0.003150	0.049720	-0.125690	-0.210315	0.170735	-0.954368	-17.743743	-26.382132	169.185232
06629		7.487465	-1.115867	5.179604	-4.346290	0.300200	-1.740849	0.482839	-1.024545	0.168869	-0.612305	0.145996	-0.443115	0.074618	-0.011221	0.052152	-0.123481	-0.215393	0.169286	-0.953782	-17.607744	-26.916013	169.491641
06630		7.300265	-1.741549	5.344755	-3.849206	0.752893	-1.475465	0.459730	-1.132533	0.156511	-0.613525	0.147217	-0.438721	0.072712	-0.017482	0.053820	-0.121261	-0.220970	0.167994	-0.953019	-17.493920	-27.511032	169.811509
06631		7.266108	-1.721676	5.615285	-3.633855	0.603906	-1.226571	0.517434	-1.212593	0.130733	-0.619385	0.153320	-0.435059	0.072330	-0.017315	0.056547	-0.119027	-0.226981	0.166440	-0.952161	-17.350036	-28.155568	170.131455
06632		7.195192	-1.394535	5.825357	-3.489693	0.193176	-1.127415	0.541746	-1.276456	0.125851	-0.625488	0.153320	-0.436523	0.071587	-0.014059	0.058673	-0.116731	-0.233299	0.164795	-0.951204	-17.199993	-28.835908	170.460641
06633		7.023553	-1.254234	5.975824	-3.215853	-0.039080	-1.079448	0.513076	-1.324810	0.134211	-0.619873	0.149170	-0.419678	0.069846	-0.012649	0.060189	-0.114381	-0.239818	0.163316	-0.950122	-17.077145	-29.542781	170.804983
06634		6.823484	-1.273555	6.133726	-2.861392	-0.131553	-1.003692	0.468119	-1.355773	0.136011	-0.623291	0.164795	-0.415039	0.067826	-0.012834	0.061768	-0.112047	-0.246438	0.162063	-0.948920	-16.987824	-30.266088	171.157176
06635		6.534287	-1.328599	6.266858	-2.427789	-0.192887	-0.992085	0.418084	-1.364888	0.124510	-0.632568	0.164063	-0.411377	0.064922	-0.013377	0.063085	-0.109815	-0.253076	0.161029	-0.947609	-16.928969	-30.997564	171.505585
06636		7.854723	-5.204393	8.609397	-1.257702	2.700157	2.598188	0.577392	-1.285574	0.020678	-0.627197	0.176514	-0.414063	0.077998	-0.052285	0.086446	-0.107932	-0.259490	0.159057	-0.946423	-16.740291	-31.702560	171.772451
06637		9.949682	-10.552470	14.973661	1.515243	5.780489	10.158382	1.753588	-0.375227	0.027503	-0.629150	0.168945	-0.409668	0.099231	-0.106820	0.148990	-0.105207	-0.262216	0.151027	-0.947293	-15.787598	-31.908885	171.865141
06638		3.065336	-2.950205	13.641812	4.566655	-1.413629	3.653600	1.833322	0.508292	0.696803	-0.624023	0.175049	-0.430664	0.031105	-0.030643	0.136062	-0.099866	-0.260263	0.143018	-0.949650	-14.932681	-31.525804	172.230728
06639		-10.130237	-3.604476	16.678137	17.250469	-3.048951	-0.491164	1.175727	0.838712	0.747784	-0.624512	0.169434	-0.439697	-0.100464	-0.037403	0.166987	-0.095366	-0.256361	0.138021	-0.951911	-14.441834	-30.956705	172.576867
06640		-14.368203	-6.257229	19.253467	22.653296	-1.614473	0.212832	0.681189	0.795282	0.191518	-0.626953	0.170654	-0.441650	-0.142855	-0.063366	0.192889	-0.094113	-0.252794	0.134679	-0.953467	-14.053239	-30.491608	172.573727
06641		-5.124296	2.295922	7.758916	7.346261	-5.106114	-6.393563	0.395424	0.161389	-0.617203	-0.632080	0.179199	-0.448730	-0.051109	0.022964	0.077676	-0.096648	-0.252657	0.131973	-0.953628	-13.616687	-30.490286	172.153255
06642		7.802761	-2.268515	10.432073	-1.304638	-0.036877	3.346087	0.297014	-0.190423	-0.593116	-0.624023	0.170898	-0.450684	0.077860	-0.023071	0.104361	-0.098960	-0.254129	0.129935	-0.953280	-13.271253	-30.679008	171.802318
06643		10.197966	-2.810153	9.212770	-3.732576	1.187331	3.656854	0.192925	0.028732	-0.265416	-0.623535	0.163086	-0.449951	0.101955	-0.028326	0.092086	-0.099983	-0.254291	0.128700	-0.953297	-13.075746	-30.701487	171.629355
06644		5.548522	-1.093066	7.199501	-1.136973	-0.392582	-0.737069	0.144378	0.113609	-0.155892	-0.614502	0.170166	-0.449219	0.055518	-0.011026	0.071956	-0.100600	-0.253951	0.127792	-0.953445	-12.937787	-30.661789	171.514627
06645		4.678873	-0.966778	8.307546	0.078531	-0.931714	-0.274996	0.111415	0.016768	-0.137103	-0.629883	0.168457	-0.456055	0.046789	-0.009746	0.083066	-0.101108	-0.254047	0.127115	-0.953456	-12.832401	-30.673871	171.426692
06646		5.648453	-0.626845	7.721101	-1.097820	-0.944524	-0.335557	0.061313	-0.017846	-0.138025	-0.627197	0.173584	-0.457520	0.056473	-0.006331	0.077214	-0.101661	-0.254281	0.126692	-0.953391	-12.757928	-30.704989	171.343131
06647		6.342937	-1.330078	7.785997	-1.472148	-0.197947	0.208156	0.041264	0.008811	-0.103452	-0.628174	0.167725	-0.460449	0.063426	-0.013350	0.077854	-0.102092	-0.254358	0.126395	-0.953364	-12.704377	-30.717075	171.278159
06648		5.544163	-2.035008	8.131560	-0.452627	0.271756	0.223375	0.036799	0.067124	-0.042100	-0.619141	0.170898	-0.465576	0.055465	-0.020377	0.081293	-0.102274	-0.254113	0.126168	-0.953440	-12.669383	-30.688491	171.244444
06649		4.634008	-1.831417	8.263875	0.324667	-0.073536	-0.168574	0.040518	0.064851	-0.015316	-0.632324	0.174561	-0.468750	0.046365	-0.018334	0.082620	-0.102321	-0.253867	0.125958	-0.953529	-12.641348	-30.658136	171.228592
06650		4.613780	-1.839682	8.318365	0.364838	-0.079130	-0.131405	0.041674	0.062137	-0.031476	-0.624023	0.176270	-0.461182	0.046161	-0.018421	0.083165	-0.102442	-0.253641	0.125724	-0.953606	-12.607508	-30.630978	171.202563
06651		4.741163	-1.982641	8.371932	0.314383	0.062812	0.005456	0.034287	0.062210	-0.037804	-0.625488	0.166748	-0.463867	0.047434	-0.019850	0.083701	-0.102602	-0.253419	0.125516	-0.953676	-12.575834	-30.604884	171.172527
06652		4.750785	-2.117774	8.368162	0.335907	0.197968	0.032567	0.021020	0.059659	-0.043274	-0.623779	0.174561	-0.464111	0.047528	-0.021197	0.083665	-0.102805	-0.253202	0.125367	-0.953731	-12.550153	-30.580559	171.139240
06653		4.920367	-2.032876	7.974808	-0.013025	0.259242	-0.227658	0.027538	0.051867	-0.054560	-0.628174	0.178467	-0.470703	0.049219	-0.020353	0.079733	-0.103047	-0.253035	0.125176	-0.953774	-12.517619	-30.562299	171.099858
06654		5.135431	-1.956176	7.945044	-0.231559	0.230133	-0.157823	0.046566	0.053466	-0.066448	-0.629883	0.173584	-0.475098	0.051369	-0.019597	0.079432	-0.103324	-0.252876	0.124878	-0.953826	-12.470147	-30.544276	171.052457
06655		5.029843	-1.856587	7.870642	-0.204094	0.151273	-0.292777	0.059115	0.070654	-0.067020	-0.633789	0.179688	-0.469727	0.050320	-0.018606	0.078683	-0.103597	-0.252643	0.124511	-0.953906	-12.414097	-30.516993	171.002341
06656		4.986388	-1.934958	8.005935	-0.087863	0.190288	-0.186724	0.085054	0.067327	-0.070025	-0.625244	0.174072	-0.470947	0.049884	-0.019401	0.080034	-0.103851	-0.252440	0.124018	-0.953996	-12.342459	-30.491571	170.950707
06657		5.076012	-1.653030	8.001246	-0.241802	-0.051956	-0.197223	0.099235	0.058748	-0.071314	-0.631836	0.175781	-0.467041	0.050778	-0.016588	0.079989	-0.104087	-0.252288	0.123460	-0.954083	-12.262957	-30.471376	170.899593
06658		5.003832	-1.592560	8.090658	-0.156804	-0.132751	-0.169498	0.101649	0.055876	-0.075836	-0.628906	0.177246	-0.482422	0.050055	-0.015986	0.080884	-0.104340	-0.252151	0.122886	-0.954166	-12.180799	-30.452949	170.845898
06659		4.727337	-1.925542	8.184221	0.206710	0.130459	-0.170222	0.103781	0.060529	-0.072633	-0.635742	0.173828	-0.475342	0.047291	-0.019315	0.081818	-0.104577	-0.251993	0.122304	-0.954256	-12.098201	-30.431796	170.793767
06660		4.774027	-1.964769	8.132777	0.152911	0.201975	-0.183070	0.122448	0.049115	-0.080169	-0.635742	0.181396	-0.486572	0.047752	-0.019717	0.081304	-0.104821	-0.251901	0.121629	-0.954340	-12.003249	-30.417537	170.738280
06661		4.881207	-1.988576	8.290934	0.140137	0.208684	0.008565	0.128102	0.044337	-0.083030	-0.641846	0.180908	-0.488770	0.048822	-0.019959	0.082886	-0.105067	-0.251840	0.120926	-0.954418	-11.904502	-30.406544	170.681715
06662		4.972447	-1.836460	8.123162	-0.053008	0.139613	-0.114170	0.136596	0.040573	-0.081562	-0.640381	0.181641	-0.484375	0.049733	-0.018440	0.081209	-0.105294	-0.251797	0.120186	-0.954498	-11.801630	-30.397074	170.626558
06663		5.226303	-1.711707	8.104281	-0.309605	0.077129	-0.023829	0.129455	0.044859	-0.081059	-0.632813	0.175537	-0.491455	0.052274	-0.017191	0.081020	-0.105530	-0.251733	0.119479	-0.954578	-11.702772	-30.385386	170.571263
06664		5.119839	-1.623743	8.235394	-0.182323	-0.043678	0.017665	0.128899	0.049980	-0.072127	-0.637939	0.183350	-0.489502	0.051213	-0.016309	0.082331	-0.105727	-0.251635	0.118783	-0.954669	-11.606821	-30.369381	170.521033
06665		4.868979	-1.547208	8.225588	0.005942	-0.135877	-0.130612	0.110425	0.052881	-0.061049	-0.641846	0.170898	-0.489746	0.048707	-0.015532	0.082234	-0.105895	-0.251510	0.118187	-0.954757	-11.524963	-30.350743	170.477751
06666		5.217338	-1.305963	8.158790	-0.384904	-0.284801	-0.052424	0.100149	0.043107	-0.060351	-0.633545	0.183838	-0.492188	0.052187	-0.013116	0.081570	-0.106068	-0.251422	0.117646	-0.954828	-11.449876	-30.337126	170.436163
06667		4.637239	-1.365301	8.307097	0.190865	-0.343038	-0.209471	0.077119	0.046076	-0.039798	-0.641113	0.183594	-0.499268	0.046389	-0.013694	0.083055	-0.106173	-0.251299	0.117240	-0.954898	-11.394583	-30.319809	170.407671
06668		4.963492	-1.305353	8.224731	-0.140802	-0.322749	-0.124426	0.060988	0.025852	-0.038150	-0.638916	0.182617	-0.493408	0.049643	-0.013088	0.082237	-0.106279	-0.251260	0.116923	-0.954936	-11.350404	-30.313305	170.382830
06669		5.062678	-1.404044	8.115407	-0.248857	-0.178915	-0.149979	0.044900	0.015269	-0.028247	-0.646240	0.174561	-0.496094	0.050631	-0.014066	0.081147	-0.106351	-0.251261	0.116701	-0.954955	-11.319408	-30.311953	170.365907
06670		5.298463	-1.363588	8.093054	-0.469864	-0.173023	-0.056669	0.036085	0.013792	-0.025315	-0.642334	0.175781	-0.502441	0.052988	-0.013657	0.080924	-0.106420	-0.251259	0.116526	-0.954969	-11.294512	-30.310759	170.350998
06671		4.774416	-1.530922	8.242708	0.088734	-0.128506	-0.166102	0.021276	0.004082	-0.015091	-0.644043	0.179443	-0.503906	0.047745	-0.015322	0.082424	-0.106453	-0.251292	0.116439	-0.954967	-11.282100	-30.314214	170.344093
06672		4.877392	-1.578921	8.286235	0.034729	-0.079013	-0.069167	0.008639	-0.007814	-0.013038	-0.644531	0.182129	-0.506592	0.048770	-0.015796	0.082864	-0.106485	-0.251371	0.116422	-0.954945	-11.278379	-30.323778	170.339980
06673		4.515524	-1.677930	8.383975	0.415066	-0.064792	-0.152461	-0.000526	-0.017304	-0.002381	-0.644775	0.187988	-0.503418	0.045148	-0.016780	0.083844	-0.106472	-0.251488	0.116467	-0.954910	-11.284033	-30.337823	170.344123
06674		4.976379	-1.642275	8.217224	-0.060012	0.012586	-0.066898	-0.006881	-0.021680	-0.003884	-0.644531	0.196289	-0.502197	0.049755	-0.016421	0.082178	-0.106472	-0.251620	0.116542	-0.954866	-11.293124	-30.354151	170.347773
06675		4.753643	-1.697427	8.203756	0.140489	0.034617	-0.181537	-0.006037	-0.025671	-0.000932	-0.643799	0.187256	-0.510254	0.047526	-0.016972	0.082044	-0.106453	-0.251773	0.116620	-0.954818	-11.302968	-30.372729	170.353952
06676		5.210734	-1.621004	8.079817	-0.321750	0.060551	-0.068168	-0.000053	-0.031163	0.000037	-0.645264	0.187988	-0.505371	0.052095	-0.016210	0.080806	-0.106420	-0.251951	0.116673	-0.954768	-11.310068	-30.393944	170.361398
06677		5.249110	-1.677050	7.970094	-0.385807	0.148311	-0.131923	0.006969	-0.040071	-0.005612	-0.651855	0.187500	-0.508057	0.052475	-0.016775	0.079711	-0.106400	-0.252182	0.116690	-0.954708	-11.311876	-30.421139	170.366412
06678		5.318635	-1.597983	8.148252	-0.380526	0.033028	0.040716	0.003393	-0.024681	-0.007859	-0.657471	0.195801	-0.512451	0.053176	-0.015983	0.081489	-0.106404	-0.252336	0.116713	-0.954664	-11.313977	-30.439599	170.367875
06679		4.820260	-1.814145	8.327977	0.184975	0.115629	-0.023222	0.003135	-0.028045	0.004898	-0.657471	0.195557	-0.513916	0.048191	-0.018142	0.083286	-0.106345	-0.252502	0.116755	-0.954621	-11.320665	-30.458866	170.378179
06680		5.163176	-1.740637	8.167643	-0.195875	0.137808	0.002670	-0.001951	-0.031546	0.003696	-0.657715	0.199463	-0.507813	0.051619	-0.017405	0.081685	-0.106297	-0.252679	0.116822	-0.954572	-11.330105	-30.479883	170.388074
06681		5.361490	-1.686832	7.969729	-0.465872	0.167718	-0.072955	-0.005529	-0.029881	0.009710	-0.658203	0.195068	-0.510254	0.053604	-0.016864	0.079706	-0.106225	-0.252846	0.116913	-0.954524	-11.343486	-30.499637	170.401767
06682		4.896146	-1.753783	8.230906	0.068916	0.089539	-0.077028	-0.007819	-0.019550	0.016019	-0.653320	0.204834	-0.517334	0.048955	-0.017531	0.082315	-0.106132	-0.252955	0.117017	-0.954493	-11.359582	-30.512521	170.418142
06683		5.132272	-1.733725	8.013599	-0.233877	0.162261	-0.144039	0.000373	-0.032228	0.005608	-0.660645	0.198975	-0.515137	0.051310	-0.017336	0.080144	-0.106071	-0.253139	0.117075	-0.954444	-11.368398	-30.534057	170.429485
06684		5.050316	-1.648569	8.006728	-0.186823	0.070256	-0.205850	0.011885	-0.021564	0.005111	-0.660400	0.190918	-0.518555	0.050495	-0.016489	0.080072	-0.106005	-0.253275	0.117073	-0.954415	-11.369738	-30.549300	170.439020
06685		4.685038	-1.817546	8.157783	0.239354	0.136787	-0.235293	0.024067	-0.016394	-0.002546	-0.663330	0.208740	-0.515625	0.046843	-0.018186	0.081579	-0.105961	-0.253400	0.116999	-0.954396	-11.361229	-30.562869	170.442974
06686		4.648794	-1.964135	8.157400	0.311015	0.272871	-0.229311	0.046389	-0.019804	-0.007810	-0.668945	0.206543	-0.506836	0.046479	-0.019662	0.081574	-0.105914	-0.253554	0.116815	-0.954383	-11.338397	-30.578583	170.443845
06687		4.837984	-1.822549	8.048026	0.066698	0.199949	-0.249525	0.072262	-0.018951	-0.027356	-0.663574	0.197266	-0.516357	0.048370	-0.018261	0.080478	-0.105926	-0.253731	0.116481	-0.954375	-11.294208	-30.596374	170.431929
06688		5.160222	-1.712150	7.983497	-0.261537	0.165767	-0.158688	0.090283	-0.011127	-0.035969	-0.675293	0.200195	-0.510986	0.051595	-0.017167	0.079830	-0.105962	-0.253883	0.116047	-0.954384	-11.236281	-30.610365	170.413262
06689		5.324902	-1.608702	8.021537	-0.407314	0.088637	-0.060057	0.090905	-0.003830	-0.039987	-0.673340	0.201172	-0.519287	0.053244	-0.016134	0.080209	-0.106021	-0.254006	0.115601	-0.954399	-11.176191	-30.621048	170.391099
06690		5.103212	-1.599416	8.165935	-0.152700	0.016330	-0.052574	0.080995	0.009044	-0.035503	-0.680420	0.201904	-0.516846	0.051033	-0.016036	0.081651	-0.106078	-0.254056	0.115200	-0.954428	-11.122393	-30.623616	170.370102
06691		4.716837	-1.653264	8.339625	0.270676	-0.028336	-0.093783	0.074320	0.012249	-0.029318	-0.684082	0.200928	-0.521484	0.047171	-0.016571	0.083387	-0.106115	-0.254087	0.114838	-0.954459	-11.074292	-30.624053	170.352826
06692		5.034246	-1.559082	8.084275	-0.139524	0.004525	-0.163315	0.071329	0.011550	-0.035533	-0.671387	0.202393	-0.515869	0.050344	-0.015629	0.080834	-0.106186	-0.254120	0.114483	-0.954485	-11.025856	-30.625184	170.331485
06693		4.582008	-1.645066	8.336223	0.383286	-0.041226	-0.166702	0.063131	0.024249	-0.025150	-0.688965	0.197754	-0.516602	0.045828	-0.016483	0.083351	-0.106225	-0.254085	0.114173	-0.954527	-10.984777	-30.618391	170.315408
06694		4.802913	-1.599253	8.157966	0.101945	0.001972	-0.212292	0.064774	0.020314	-0.035761	-0.678711	0.199219	-0.516846	0.048035	-0.016028	0.081570	-0.106311	-0.254073	0.113844	-0.954560	-10.939459	-30.614589	170.292808
06695		5.122370	-1.410504	8.019079	-0.281628	-0.087198	-0.197756	0.063435	0.016660	-0.032873	-0.680176	0.205566	-0.525391	0.051228	-0.014139	0.080182	-0.106381	-0.254078	0.113526	-0.954588	-10.896131	-30.612874	170.272651
06696		4.853844	-1.614626	8.194996	0.080555	0.026761	-0.152585	0.060605	0.031182	-0.037281	-0.674316	0.204834	-0.524170	0.048548	-0.016180	0.081937	-0.106486	-0.254013	0.113209	-0.954632	-10.852008	-30.603091	170.247701
06697		4.592831	-1.749700	8.237918	0.356263	0.112630	-0.227322	0.069333	0.037683	-0.037127	-0.676270	0.206299	-0.529785	0.045941	-0.017534	0.082364	-0.106581	-0.253924	0.112848	-0.954688	-10.802554	-30.589979	170.222141
06698		4.821846	-1.552879	8.249747	0.115230	-0.036797	-0.132536	0.070713	0.036324	-0.043240	-0.682861	0.207275	-0.523438	0.048230	-0.015568	0.082483	-0.106704	-0.253842	0.112472	-0.954740	-10.750353	-30.577904	170.192680
06699		5.366013	-1.411635	8.029455	-0.485207	-0.024360	-0.064717	0.069849	0.032512	-0.046199	-0.690674	0.202637	-0.526855	0.053670	-0.014157	0.080281	-0.106839	-0.253783	0.112099	-0.954784	-10.697941	-30.568624	170.161862
06700		4.997649	-1.495630	8.109604	-0.114576	-0.012556	-0.170811	0.064788	0.038684	-0.039193	-0.689453	0.205566	-0.529297	0.049989	-0.014992	0.081082	-0.106951	-0.253685	0.111755	-0.954838	-10.650359	-30.554745	170.134789
06701		5.289730	-1.442888	8.002540	-0.426145	0.015999	-0.121353	0.061188	0.030681	-0.041383	-0.691406	0.202148	-0.528564	0.052907	-0.014464	0.080013	-0.107073	-0.253628	0.111430	-0.954878	-10.604645	-30.545951	170.107371
06702		4.644496	-1.584378	8.370279	0.326638	-0.036441	-0.115516	0.054148	0.039601	-0.035772	-0.682129	0.203125	-0.525391	0.046459	-0.015875	0.083689	-0.107183	-0.253517	0.111142	-0.954928	-10.564265	-30.531159	170.082454
06703		4.807266	-1.548314	8.277923	0.136114	-0.016292	-0.116693	0.050299	0.018608	-0.033330	-0.688721	0.207520	-0.526367	0.048078	-0.015512	0.082771	-0.107274	-0.253507	0.110885	-0.954951	-10.528230	-30.528288	170.061794
06704		4.826098	-1.539702	8.250815	0.106352	-0.009438	-0.131446	0.045862	0.006780	-0.038421	-0.694092	0.203125	-0.533203	0.048261	-0.015425	0.082503	-0.107388	-0.253550	0.110650	-0.954954	-10.493755	-30.532235	170.039151
06705		4.943180	-1.427765	8.299875	0.002154	-0.107604	-0.047961	0.031945	-0.001007	-0.033365	-0.688232	0.203369	-0.523682	0.049429	-0.014299	0.082997	-0.107492	-0.253624	0.110492	-0.954941	-10.469430	-30.540395	170.020842
06706		5.294328	-1.393539	8.016463	-0.432209	-0.010083	-0.114820	0.022073	-0.027097	-0.028595	-0.702881	0.205566	-0.532959	0.052930	-0.013952	0.080170	-0.107571	-0.253811	0.110401	-0.954893	-10.453921	-30.562391	170.008713
06707		5.299369	-1.366570	8.103478	-0.399681	-0.056902	-0.042621	0.015892	-0.022147	-0.019986	-0.688721	0.207031	-0.532715	0.052983	-0.013677	0.081040	-0.107619	-0.253969	0.110348	-0.954851	-10.444526	-30.581069	170.001699
06708		4.924930	-1.509867	8.187680	-0.002207	0.001570	-0.139388	0.008034	-0.032633	-0.017153	-0.701416	0.204834	-0.522949	0.049235	-0.015106	0.081884	-0.107658	-0.254169	0.110342	-0.954794	-10.441199	-30.604992	169.997714
06709		4.843084	-1.503001	8.255105	0.100352	-0.035493	-0.125072	0.004514	-0.028175	-0.014340	-0.696777	0.207275	-0.527344	0.048418	-0.015035	0.082558	-0.107691	-0.254347	0.110354	-0.954742	-10.440566	-30.626485	169.995118
06710		5.010702	-1.550253	8.234533	-0.034744	0.039444	-0.049737	0.004947	-0.038905	-0.016918	-0.700928	0.205811	-0.524414	0.050090	-0.015509	0.082355	-0.107729	-0.254574	0.110366	-0.954676	-10.439467	-30.653918	169.992040
06711		5.056325	-1.512330	8.160379	-0.112927	0.029317	-0.095088	0.008393	-0.038339	-0.016586	-0.702393	0.207520	-0.527588	0.050546	-0.015131	0.081613	-0.107762	-0.254804	0.110362	-0.954611	-10.436483	-30.681370	169.989197
06712		5.063112	-1.441070	8.105371	-0.158389	-0.023553	-0.149190	0.004820	-0.036649	-0.010550	-0.705566	0.209473	-0.530029	0.050616	-0.014415	0.081063	-0.107772	-0.255017	0.110381	-0.954551	-10.437444	-30.706870	169.990016
06713		4.783480	-1.512072	8.281552	0.182883	-0.045450	-0.131952	0.003404	-0.037189	-0.012716	-0.700195	0.210938	-0.517334	0.047818	-0.015125	0.082824	-0.107793	-0.255237	0.110405	-0.954487	-10.438540	-30.733276	169.989569
06714		5.032472	-1.517185	8.130819	-0.091497	0.035552	-0.131355	0.001451	-0.050026	-0.014005	-0.707275	0.212646	-0.530273	0.050303	-0.015176	0.081321	-0.107816	-0.255514	0.110443	-0.954406	-10.441100	-30.766673	169.989740
06715		5.170249	-1.469548	8.097297	-0.230157	0.018386	-0.096517	0.003347	-0.057448	-0.017657	-0.704102	0.208984	-0.526611	0.051678	-0.014701	0.080988	-0.107849	-0.255833	0.110472	-0.954313	-10.441824	-30.805005	169.988502
06716		5.004715	-1.593043	8.154667	-0.024605	0.094655	-0.113513	0.000460	-0.061295	-0.018772	-0.708984	0.213379	-0.525879	0.050021	-0.015935	0.081562	-0.107890	-0.256166	0.110515	-0.954215	-10.444050	-30.845247	169.986911
06717		4.964893	-1.619839	8.201190	0.045175	0.100345	-0.090473	0.001150	-0.074621	-0.025888	-0.713623	0.216309	-0.528076	0.049616	-0.016205	0.082030	-0.107956	-0.256570	0.110553	-0.954094	-10.444325	-30.894115	169.982349
06718		5.006765	-1.643263	8.155394	0.003342	0.139536	-0.103981	-0.001264	-0.086430	-0.032824	-0.702881	0.203613	-0.526123	0.050030	-0.016440	0.081576	-0.108052	-0.257029	0.110600	-0.953954	-10.444357	-30.949979	169.974571
06719		4.808053	-1.636803	8.346527	0.268475	0.050867	-0.046094	-0.003791	-0.095984	-0.033385	-0.709961	0.207764	-0.527832	0.048038	-0.016374	0.083489	-0.108148	-0.257537	0.110663	-0.953799	-10.446254	-31.011662	169.967667
06720		4.863540	-1.640293	8.225841	0.177274	0.092288	-0.118921	-0.009452	-0.113724	-0.041978	-0.712158	0.211182	-0.523438	0.048585	-0.016409	0.082287	-0.108283	-0.258127	0.110752	-0.953614	-10.449561	-31.083857	169.957173
06721		5.098979	-1.575341	8.125643	-0.072058	0.089408	-0.091877	-0.011192	-0.139710	-0.044609	-0.711426	0.206543	-0.520264	0.050929	-0.015760	0.081293	-0.108418	-0.258845	0.110860	-0.953391	-10.454611	-31.171339	169.948186
06722		4.896100	-1.687714	8.191464	0.174939	0.144864	-0.124104	-0.013662	-0.162069	-0.048380	-0.713623	0.216553	-0.522217	0.048891	-0.016883	0.081955	-0.108563	-0.259666	0.110986	-0.953137	-10.461162	-31.271440	169.939349
06723		5.078389	-1.631299	8.174115	0.016445	0.118891	-0.052929	-0.016405	-0.188762	-0.059125	-0.723633	0.213867	-0.520264	0.050702	-0.016321	0.081790	-0.108746	-0.260623	0.111127	-0.952838	-10.467305	-31.388071	169.926766
06724		4.785662	-1.719440	8.343532	0.387068	0.108528	-0.049905	-0.024822	-0.226262	-0.067066	-0.718262	0.207031	-0.522949	0.047756	-0.017200	0.083492	-0.108958	-0.261754	0.111317	-0.952482	-10.477872	-31.526288	169.913432
06725		5.224473	-1.606464	8.138960	-0.082744	0.115050	-0.009710	-0.034312	-0.277792	-0.076707	-0.720703	0.202148	-0.517578	0.052125	-0.016071	0.081465	-0.109199	-0.263134	0.111568	-0.952045	-10.493851	-31.694909	169.900131
06726		5.017012	-1.689803	8.292469	0.217028	0.114024	0.022489	-0.037467	-0.329904	-0.088296	-0.723877	0.210693	-0.517822	0.050026	-0.016905	0.083010	-0.109470	-0.264762	0.111846	-0.951529	-10.510912	-31.893736	169.885496
06727		4.556454	-1.663945	8.535411	0.748269	-0.055819	-0.023915	-0.071360	-0.408450	-0.102421	-0.734863	0.218506	-0.520020	0.045382	-0.016632	0.085453	-0.109809	-0.266756	0.112310	-0.950878	-10.547587	-32.138657	169.871339
06728		4.342176	-1.775987	8.705629	1.086994	-0.042618	0.016501	-0.077921	-0.567316	-0.118541	-0.735107	0.212402	-0.515625	0.043164	-0.017752	0.087186	-0.110143	-0.269505	0.112870	-0.949998	-10.592827	-32.474397	169.866268
06729		4.543403	-1.717108	8.670796	0.949255	-0.079058	0.080032	-0.103224	-0.707421	-0.125879	-0.733154	0.208252	-0.510010	0.045116	-0.017155	0.086877	-0.110466	-0.272910	0.113616	-0.948899	-10.659621	-32.890150	169.874327
06730		4.550666	-1.609099	8.769609	1.038749	-0.233396	0.140688	-0.125570	-0.859882	-0.129664	-0.747070	0.208008	-0.495850	0.045119	-0.016065	0.087901	-0.110749	-0.277021	0.114545	-0.947562	-10.748827	-33.391794	169.899851
06731		4.870212	-1.577433	8.526242	0.736632	-0.179828	0.103371	-0.142020	-1.017873	-0.140136	-0.745605	0.206299	-0.490967	0.048256	-0.015748	0.085520	-0.111011	-0.281874	0.115623	-0.945968	-10.855745	-33.983748	169.939953
06732		5.198882	-1.500013	8.554791	0.569649	-0.250385	0.290499	-0.161654	-1.208702	-0.153721	-0.753906	0.213135	-0.473389	0.051459	-0.014970	0.085872	-0.111252	-0.287614	0.116876	-0.944056	-10.984176	-34.684159	169.997582
06733		5.266340	-1.425063	8.446146	0.565657	-0.324037	0.221047	-0.179765	-1.410684	-0.165244	-0.756836	0.206299	-0.468018	0.052054	-0.014218	0.084843	-0.111449	-0.294293	0.118305	-0.941793	-11.136206	-35.499582	170.077123
06734		5.092582	-1.538577	8.698762	1.016898	-0.363600	0.326420	-0.211271	-1.601261	-0.190819	-0.764160	0.214355	-0.453125	0.050212	-0.015342	0.087408	-0.111694	-0.301848	0.119944	-0.939162	-11.314438	-36.424484	170.168863
06735		5.189899	-1.457597	8.903277	1.196643	-0.544518	0.511867	-0.244109	-1.823326	-0.219379	-0.775879	0.212646	-0.439697	0.051068	-0.014523	0.089519	-0.111981	-0.310423	0.121810	-0.936088	-11.522731	-37.477346	170.277200
06736		5.246295	-1.496826	9.123380	1.480251	-0.631273	0.694760	-0.264038	-2.044306	-0.252226	-0.792725	0.212402	-0.420410	0.051508	-0.014913	0.091783	-0.112308	-0.320009	0.123829	-0.932549	-11.753818	-38.657414	170.401255
06737		5.120178	-1.622504	9.699700	2.165456	-0.777118	1.033248	-0.271011	-2.283217	-0.298034	-0.802002	0.211182	-0.404053	0.050066	-0.016168	0.097595	-0.112697	-0.330696	0.125926	-0.928484	-11.998471	-39.976640	170.537096
06738		5.034792	-1.832757	9.740853	2.569869	-0.680631	0.981662	-0.249521	-2.546397	-0.368568	-0.808105	0.201660	-0.381348	0.049068	-0.018297	0.098062	-0.113195	-0.342610	0.127936	-0.923817	-12.233138	-41.451114	170.672593
06739		5.165932	-2.143087	9.915903	2.956795	-0.507862	1.168908	-0.227603	-2.808454	-0.460929	-0.823242	0.203857	-0.356689	0.050211	-0.021434	0.099895	-0.113894	-0.355742	0.129812	-0.918490	-12.447654	-43.083304	170.792727
06740		4.583711	-2.342129	9.818826	3.687770	-0.436377	0.632655	-0.177498	-3.078923	-0.572701	-0.826660	0.201904	-0.322998	0.044251	-0.023462	0.098898	-0.114816	-0.370136	0.131383	-0.912445	-12.615824	-44.880217	170.883666
06741		5.803462	-2.187352	9.214506	2.738803	-0.324626	0.946176	-0.133150	-3.381053	-0.676949	-0.846680	0.189941	-0.297607	0.056391	-0.022004	0.093122	-0.115902	-0.385901	0.132696	-0.905560	-12.746840	-46.858992	170.955284
06742		6.129143	-2.007863	8.747255	2.525185	-0.379312	0.750381	-0.106219	-3.620941	-0.779271	-0.855225	0.176758	-0.261230	0.059616	-0.020266	0.088573	-0.117202	-0.402712	0.133786	-0.897880	-12.840931	-48.984639	170.995589
06743		6.890273	-2.281507	8.308315	2.217246	0.029709	0.993632	-0.040171	-3.825315	-0.876459	-0.871094	0.177734	-0.228516	0.067196	-0.023095	0.084384	-0.118626	-0.420396	0.134455	-0.889448	-12.868505	-51.236770	170.997198
06744		7.601776	-2.422412	8.231754	2.202713	0.189946	1.435024	0.037019	-3.919369	-0.962456	-0.879883	0.172607	-0.189209	0.074268	-0.024600	0.083780	-0.120160	-0.438435	0.134603	-0.880465	-12.804164	-53.552428	170.938600
06745		9.386096	-1.914194	7.694614	1.065854	0.001510	2.427113	0.069464	-3.981504	-1.020843	-0.884521	0.163086	-0.160889	0.092205	-0.019643	0.078786	-0.121788	-0.456623	0.134461	-0.870967	-12.676609	-55.910023	170.827052
06746		10.918476	-1.618091	7.308278	0.331389	-0.073856	3.420018	-0.038319	-3.802816	-0.978836	-0.893311	0.143066	-0.124512	0.107688	-0.016696	0.075143	-0.123550	-0.473755	0.134721	-0.861477	-12.597653	-58.162434	170.702860
06747		12.106930	-2.253106	6.419042	-0.263465	0.857855	4.044888	-0.130349	-3.454944	-0.937008	-0.902588	0.131104	-0.088623	0.119829	-0.023052	0.066283	-0.125541	-0.489135	0.135214	-0.852469	-12.523881	-60.214873	170.526127
06748		10.994054	-2.269304	5.648300	0.122011	0.998489	2.713139	-0.033463	-3.116130	-0.982517	-0.906494	0.125244	-0.060059	0.108930	-0.023220	0.058189	-0.127680	-0.503019	0.134929	-0.844076	-12.248845	-62.083142	170.186496
06749		11.680013	-1.330067	6.555696	0.617449	-0.182565	3.631316	-0.084069	-2.805127	-0.948613	-0.905029	0.111572	-0.027588	0.115801	-0.013824	0.067192	-0.129982	-0.515412	0.134713	-0.836246	-11.924821	-63.772107	169.764766
06750		12.445245	-1.445034	7.642774	1.592207	-0.456352	4.769180	-0.435296	-2.261708	-0.747167	-0.902588	0.102051	-0.007080	0.123523	-0.014745	0.077860	-0.132690	-0.525076	0.136106	-0.829557	-11.866129	-65.132070	169.419628
06751		9.224221	-2.295134	7.293092	3.214917	0.141544	1.727806	-0.706581	-1.767753	-0.596462	-0.902100	0.084961	0.009766	0.091524	-0.022965	0.073823	-0.135804	-0.532341	0.138676	-0.823978	-12.004761	-66.197228	169.123761
06752		6.965505	-3.247880	6.261568	3.775229	1.167802	-0.721161	-0.729459	-1.431035	-0.588333	-0.906250	0.091064	0.024170	0.069109	-0.032453	0.063230	-0.139167	-0.538154	0.141120	-0.819212	-12.065448	-67.073093	168.730988
06753		5.656125	-2.840042	5.648603	3.729972	0.880020	-2.244600	-0.562718	-1.190550	-0.715121	-0.902100	0.074707	0.030029	0.056122	-0.028442	0.056901	-0.142761	-0.543150	0.142365	-0.815070	-11.772263	-67.828583	168.060744
06754		4.094361	-3.018108	7.197763	5.774491	0.296024	-3.160817	-0.357014	-0.874807	-0.775142	-0.898193	0.066650	0.048340	0.040511	-0.030210	0.072209	-0.146260	-0.547025	0.142376	-0.811850	-11.151516	-68.411789	167.167831
06755		7.245569	-1.314909	12.061680	8.138794	-2.917329	1.365888	-0.336671	-0.072881	-0.752843	-0.896973	0.063477	0.036377	0.072362	-0.013218	0.120665	-0.150179	-0.547626	0.141776	-0.810834	-10.300598	-68.536458	166.042022
06756		7.760781	-2.219075	12.002115	8.225444	-2.005458	1.914357	-0.486387	1.031182	-0.601490	-0.893555	0.057617	0.032715	0.078159	-0.022134	0.119673	-0.154673	-0.543518	0.141362	-0.812823	-9.482720	-68.017376	164.858096
06757		2.621647	-4.184176	8.601361	7.927795	0.646596	-3.888673	-0.545698	1.856514	-0.456103	-0.888428	0.048584	0.022217	0.026919	-0.041668	0.085880	-0.159310	-0.535864	0.140939	-0.817072	-8.774671	-67.011737	163.749631
06758		0.391274	-4.376701	6.250975	6.823720	1.512626	-6.725462	-0.344191	2.137604	-0.422203	-0.891113	0.038330	-0.001221	0.004489	-0.043668	0.062539	-0.163449	-0.527145	0.139542	-0.822150	-8.022964	-65.839257	162.710755
06759		0.035322	-3.760458	4.751676	5.434725	1.509820	-7.598134	-0.147474	2.150268	-0.330355	-0.890381	0.039551	-0.023193	0.000802	-0.037571	0.047537	-0.166682	-0.518401	0.137554	-0.827379	-7.353027	-64.646653	161.876010
06760		0.769438	-2.835146	4.497246	4.500018	0.878812	-7.014093	-0.119525	2.112838	-0.148090	-0.874512	0.036377	-0.035889	0.008148	-0.028331	0.044905	-0.169042	-0.509657	0.135935	-0.832584	-6.947496	-63.459962	161.345212
06761		1.619116	-2.588376	4.678664	4.121502	0.718281	-6.110326	-0.227125	2.108938	0.124002	-0.875244	0.027100	-0.051270	0.016700	-0.025820	0.046642	-0.170524	-0.500588	0.135449	-0.837846	-6.939498	-62.254848	161.185803
06762		2.479655	-2.860042	4.816937	3.881542	1.051053	-5.191109	-0.324501	2.155482	0.431651	-0.875732	0.039307	-0.074951	0.025376	-0.028468	0.047944	-0.170971	-0.490982	0.136083	-0.843319	-7.304494	-61.002625	161.385542
06763		3.024711	-3.174071	5.105309	3.877712	1.314043	-4.472045	-0.339497	2.225149	0.734591	-0.874023	0.040771	-0.099609	0.030929	-0.031542	0.050765	-0.170203	-0.480790	0.137449	-0.849105	-7.943516	-59.685930	161.892635
06764		3.350633	-2.988576	5.311008	3.665618	1.122909	-4.010539	-0.267938	2.293109	1.020710	-0.863525	0.049805	-0.121826	0.034264	-0.029641	0.052760	-0.168070	-0.470111	0.139118	-0.855216	-8.750346	-58.304925	162.650924
06765		3.620807	-2.227293	5.512585	3.208196	0.402033	-3.648059	-0.204587	2.348617	1.263865	-0.850098	0.064453	-0.134033	0.036992	-0.021985	0.054717	-0.164758	-0.458990	0.141021	-0.861566	-9.662807	-56.863312	163.588293
06766		4.032800	-1.250657	5.805496	2.633327	-0.533993	-3.156213	-0.206881	2.391853	1.429705	-0.843506	0.074707	-0.164795	0.041106	-0.012155	0.057579	-0.160737	-0.447488	0.143248	-0.867985	-10.630210	-55.373723	164.606705
06767		4.682574	-0.565321	6.097045	2.018034	-1.179971	-2.467519	-0.257224	2.436540	1.532066	-0.828369	0.085449	-0.180420	0.047605	-0.005213	0.060401	-0.156384	-0.435577	0.145863	-0.874380	-11.618963	-53.836910	165.633968
06768		5.465706	-0.358289	6.383115	1.473472	-1.381257	-1.647960	-0.313425	2.492744	1.548907	-0.814697	0.090576	-0.197021	0.055472	-0.003056	0.063148	-0.152087	-0.423282	0.148680	-0.880679	-12.561736	-52.258095	166.584744
