// General information: 
//  MT Manager version: 2019.2.0 
//  XDA version: 2019.2.0 build 3853 rev 94535 built on 2019-09-09
// Device information: 
//  DeviceId: 00B4778E
//  ProductCode: MTW2-3A7G6
//  Firmware Version: 4.6.0
//  Hardware Version: 2.0.0
// Device settings: 
//  Filter Profile: human(46.1)
//  Option Flags: Orientation Smoother Disabled, AHS Disabled, ICC Disabled
// Coordinate system: ENU
PacketCounter	SampleTimeFine	Acc_X	Acc_Y	Acc_Z	FreeAcc_E	FreeAcc_N	FreeAcc_U	Gyr_X	Gyr_Y	Gyr_Z	Mag_X	Mag_Y	Mag_Z	VelInc_X	VelInc_Y	VelInc_Z	Quat_q0	Quat_q1	Quat_q2	Quat_q3	Roll	Pitch	Yaw
41460		4.380733	1.038822	8.608775	0.022538	-0.023008	-0.097754	0.000771	0.008453	0.005076	-0.423340	0.091309	-0.556641	0.043811	0.010389	0.086086	-0.962901	-0.024991	0.236147	0.128185	6.983010	-26.638874	-16.820885
41461		4.345443	1.056600	8.647500	-0.021196	0.003853	-0.077284	-0.002259	0.010230	-0.000635	-0.427734	0.083984	-0.553467	0.043459	0.010567	0.086473	-0.962903	-0.024984	0.236135	0.128198	6.982151	-26.637517	-16.822027
41462		4.331399	1.063837	8.616866	-0.017358	0.014128	-0.109974	0.001181	0.006240	0.001652	-0.418701	0.085205	-0.554688	0.043317	0.010638	0.086167	-0.962900	-0.024986	0.236145	0.128196	6.982630	-26.638638	-16.822007
41463		4.378655	1.038676	8.609849	0.020259	-0.022593	-0.097748	0.001706	0.007742	0.000184	-0.425049	0.088135	-0.555664	0.043790	0.010386	0.086097	-0.962899	-0.024995	0.236148	0.128200	6.983896	-26.638752	-16.822822
41464		4.368292	1.070977	8.679617	-0.013320	0.012061	-0.036983	0.001181	0.006240	0.001652	-0.429688	0.081543	-0.562012	0.043686	0.010710	0.086795	-0.962897	-0.024998	0.236157	0.128195	6.984394	-26.639818	-16.822516
41465		4.358957	1.020895	8.633362	-0.011872	-0.034671	-0.087651	0.003738	0.008596	0.000254	-0.427734	0.084961	-0.559814	0.043593	0.010207	0.086332	-0.962897	-0.025018	0.236157	0.128197	6.986775	-26.639451	-16.823220
41466		4.367639	1.071287	8.603139	0.021489	0.011372	-0.105096	-0.003192	0.010938	0.004256	-0.423340	0.082031	-0.557617	0.043681	0.010715	0.086029	-0.962902	-0.024999	0.236142	0.128190	6.983949	-26.638062	-16.821580
41467		4.368842	1.042274	8.634337	0.001361	-0.016508	-0.080030	0.002672	0.006071	0.000558	-0.418945	0.076904	-0.558350	0.043691	0.010422	0.086342	-0.962898	-0.025011	0.236153	0.128191	6.985721	-26.639153	-16.822287
41468		4.386694	1.060389	8.611729	0.031230	-0.004033	-0.090116	0.000756	0.008931	0.002442	-0.427246	0.086914	-0.557373	0.043871	0.010604	0.086115	-0.962900	-0.025013	0.236149	0.128187	6.985811	-26.638701	-16.821770
41469		4.347190	1.053261	8.627051	-0.011401	-0.000595	-0.095008	0.000626	0.005697	-0.002147	-0.421387	0.085938	-0.555420	0.043474	0.010532	0.086269	-0.962895	-0.025018	0.236160	0.128204	6.987195	-26.639816	-16.824228
41470		4.374024	1.039003	8.612164	0.014958	-0.021648	-0.097736	0.002248	0.008763	0.001348	-0.415283	0.085449	-0.552002	0.043744	0.010389	0.086120	-0.962895	-0.025029	0.236159	0.128201	6.988310	-26.639449	-16.824107
41471		4.357236	1.075118	8.627889	0.001840	0.017577	-0.087384	0.002248	0.008762	0.001348	-0.431396	0.083252	-0.557129	0.043576	0.010751	0.086277	-0.962896	-0.025039	0.236157	0.128199	6.989520	-26.639064	-16.824102
41472		4.372579	1.039187	8.612875	0.013440	-0.021374	-0.097733	0.000217	0.007908	0.001276	-0.427246	0.087158	-0.554199	0.043729	0.010392	0.086127	-0.962895	-0.025039	0.236158	0.128201	6.989559	-26.639184	-16.824339
41473		4.337403	1.057042	8.651482	-0.030306	0.005502	-0.077309	0.000232	0.007428	0.003909	-0.427490	0.090332	-0.555176	0.043377	0.010571	0.086513	-0.962896	-0.025036	0.236161	0.128189	6.988929	-26.639737	-16.822808
41474		4.375540	1.064268	8.636857	0.010798	0.002350	-0.072401	0.002775	0.010263	-0.000121	-0.426758	0.086670	-0.552734	0.043760	0.010641	0.086366	-0.962897	-0.025051	0.236153	0.128194	6.990661	-26.638478	-16.823693
41475		4.370354	1.039298	8.613991	0.011157	-0.020954	-0.097729	0.000743	0.009409	-0.000193	-0.426270	0.086426	-0.557617	0.043708	0.010393	0.086138	-0.962897	-0.025056	0.236147	0.128200	6.991426	-26.637618	-16.824618
41476		4.369686	1.039261	8.614334	0.010393	-0.020804	-0.097728	-0.000309	0.006405	0.002744	-0.423340	0.082520	-0.556152	0.043699	0.010393	0.086142	-0.962896	-0.025050	0.236155	0.128197	6.990756	-26.638734	-16.824093
41477		4.348599	1.050045	8.606776	-0.001601	-0.005014	-0.112714	-0.000762	0.010057	-0.001733	-0.426270	0.084717	-0.555176	0.043490	0.010500	0.086066	-0.962896	-0.025051	0.236145	0.128213	6.991075	-26.637398	-16.825947
41478		4.347824	1.050032	8.607170	-0.002361	-0.004875	-0.112714	0.000218	0.007906	0.001275	-0.426758	0.078613	-0.553467	0.043482	0.010501	0.086070	-0.962896	-0.025050	0.236146	0.128216	6.991136	-26.637527	-16.826338
41479		4.371868	1.064360	8.638705	0.006989	0.003036	-0.072397	0.001710	0.007738	0.000182	-0.424072	0.080811	-0.550781	0.043722	0.010643	0.086385	-0.962894	-0.025059	0.236149	0.128220	6.992405	-26.637643	-16.827154
41480		4.366802	1.039337	8.615788	0.007341	-0.020271	-0.097724	0.000745	0.009407	-0.000193	-0.421387	0.079590	-0.556885	0.043672	0.010393	0.086156	-0.962893	-0.025063	0.236144	0.128235	6.993207	-26.636865	-16.829092
41481		4.338585	1.053669	8.631332	-0.020529	0.001069	-0.095023	-0.001273	0.008074	0.002368	-0.429932	0.091797	-0.558594	0.043389	0.010538	0.086311	-0.962894	-0.025055	0.236143	0.128232	6.992132	-26.636943	-16.828492
41482		4.369641	1.064296	8.639839	0.004695	0.003444	-0.072396	-0.001300	0.009033	-0.002899	-0.420410	0.092529	-0.559814	0.043700	0.010643	0.086396	-0.962893	-0.025053	0.236137	0.128255	6.992434	-26.636127	-16.831159
41483		4.383021	1.057064	8.594091	0.035705	-0.007522	-0.107775	-0.002238	0.009743	0.001992	-0.422363	0.082031	-0.560059	0.043834	0.010572	0.085939	-0.962895	-0.025042	0.236128	0.128254	6.990856	-26.635230	-16.830667
41484		4.368008	1.064059	8.640694	0.003191	0.003721	-0.072396	0.000746	0.009406	-0.000194	-0.431396	0.085205	-0.560303	0.043684	0.010640	0.086405	-0.962897	-0.025049	0.236121	0.128255	6.991516	-26.634301	-16.830787
41485		4.370052	1.035400	8.594698	0.019453	-0.025137	-0.115407	0.000219	0.007904	0.001275	-0.428711	0.086426	-0.553467	0.043704	0.010354	0.085945	-0.962897	-0.025049	0.236122	0.128255	6.991614	-26.634399	-16.830896
41486		4.373701	1.060579	8.618312	0.017548	-0.001549	-0.090081	0.001711	0.007736	0.000182	-0.432617	0.089111	-0.560791	0.043740	0.010605	0.086182	-0.962894	-0.025056	0.236125	0.128264	6.992808	-26.634615	-16.832245
41487		4.354400	1.042566	8.641594	-0.013854	-0.013754	-0.080035	-0.000204	0.010594	0.002063	-0.424316	0.086182	-0.543213	0.043548	0.010426	0.086414	-0.962898	-0.025055	0.236113	0.128261	6.992344	-26.633238	-16.831642
41488		4.353582	1.042580	8.642005	-0.014629	-0.013596	-0.080036	0.002252	0.008757	0.001346	-0.428467	0.082764	-0.541016	0.043540	0.010425	0.086418	-0.962897	-0.025064	0.236112	0.128263	6.993427	-26.632985	-16.832144
41489		4.364366	1.064154	8.642522	-0.000635	0.004426	-0.072395	-0.000307	0.006402	0.002743	-0.439453	0.080811	-0.541992	0.043646	0.010642	0.086424	-0.962896	-0.025059	0.236120	0.128258	6.992857	-26.634040	-16.831436
41490		4.381911	0.916648	8.619552	-0.009783	-0.142948	-0.100966	0.002781	0.010257	-0.000122	-0.437500	0.084229	-0.548584	0.043824	0.009165	0.086193	-0.962894	-0.025069	0.236114	0.128282	6.994710	-26.633028	-16.834686
41491		5.809528	0.361030	7.802086	1.457503	-1.058146	-0.246627	0.007832	-0.006730	0.049157	-0.428955	0.087158	-0.538086	0.058092	0.003622	0.078023	-0.962906	-0.025041	0.236197	0.128045	6.986023	-26.644788	-16.805473
41492		4.627176	0.565952	8.413517	0.211806	-0.545900	-0.211882	-0.002010	0.017643	0.003263	-0.439941	0.085938	-0.538574	0.046279	0.005661	0.084131	-0.962917	-0.025029	0.236152	0.128051	6.983827	-26.639764	-16.805196
41493		6.694799	0.413825	7.783211	2.236160	-1.233392	0.139613	-0.012913	-0.004540	0.027473	-0.443848	0.091553	-0.536865	0.066946	0.004152	0.077833	-0.962920	-0.024928	0.236208	0.127943	6.969359	-26.648763	-16.789604
41494		5.233173	0.353010	8.297574	0.733702	-0.906522	-0.065875	-0.003142	0.009486	0.012145	-0.438965	0.083984	-0.536133	0.052335	0.003535	0.082973	-0.962927	-0.024896	0.236203	0.127907	6.964237	-26.649008	-16.784148
41495		5.254495	0.755235	8.268501	0.859880	-0.522939	-0.038469	-0.006256	0.006592	0.009743	-0.448242	0.093262	-0.537842	0.052547	0.007557	0.082683	-0.962931	-0.024854	0.236207	0.127875	6.958254	-26.650441	-16.778970
41496		4.548145	0.961272	8.484405	0.204235	-0.138541	-0.141396	0.002800	0.009774	0.002511	-0.440186	0.091064	-0.544922	0.045485	0.009612	0.084842	-0.962933	-0.024865	0.236202	0.127868	6.959319	-26.649674	-16.778376
41497		4.085868	1.285832	8.835014	-0.276664	0.298229	-0.002506	0.004386	0.014277	-0.001894	-0.449951	0.082520	-0.531982	0.040865	0.012856	0.088348	-0.962938	-0.024894	0.236174	0.127879	6.962486	-26.645928	-16.780006
41498		4.214025	1.080812	8.674388	-0.140855	0.064952	-0.109744	-0.002335	0.005547	0.002668	-0.444824	0.083984	-0.532227	0.042143	0.010810	0.086743	-0.962936	-0.024878	0.236186	0.127876	6.960721	-26.647540	-16.779418
41499		4.516506	1.004952	8.469923	0.194306	-0.088939	-0.163714	0.002669	0.006544	-0.002075	-0.447998	0.089844	-0.532471	0.045168	0.010048	0.084698	-0.962931	-0.024893	0.236194	0.127890	6.963225	-26.648180	-16.781764
41500		4.466609	1.112756	8.593509	0.119966	0.029549	-0.064767	-0.001146	0.011778	0.004317	-0.446045	0.083984	-0.529541	0.044671	0.011129	0.085932	-0.962938	-0.024885	0.236177	0.127877	6.961454	-26.646362	-16.779634
41501		4.506594	1.007754	8.571202	0.140355	-0.082081	-0.078006	-0.005079	0.013302	0.008757	-0.459961	0.087891	-0.532715	0.045071	0.010082	0.085709	-0.962949	-0.024855	0.236149	0.127847	6.956192	-26.643910	-16.774563
41502		4.686450	0.967005	8.504532	0.315804	-0.167947	-0.060916	-0.004223	0.007441	0.009813	-0.450928	0.090820	-0.527344	0.046867	0.009674	0.085043	-0.962954	-0.024823	0.236151	0.127812	6.951241	-26.644942	-16.769273
41503		4.243326	1.006859	8.568656	-0.083412	-0.013588	-0.198412	-0.006148	0.010779	0.009059	-0.447754	0.093506	-0.535156	0.042437	0.010073	0.085684	-0.962963	-0.024785	0.236135	0.127783	6.945369	-26.643946	-16.764205
41504		4.462178	1.055843	8.525770	0.135137	-0.022360	-0.133027	-0.004872	0.002230	0.009327	-0.452637	0.091064	-0.527832	0.044622	0.010563	0.085257	-0.962961	-0.024747	0.236162	0.127751	6.940364	-26.647910	-16.759628
41505		4.634973	0.853064	8.481406	0.255655	-0.262537	-0.116778	-0.003801	0.004750	0.009024	-0.456787	0.097168	-0.536621	0.046351	0.008534	0.084813	-0.962963	-0.024717	0.236176	0.127720	6.936057	-26.650339	-16.755050
41506		4.476716	0.935564	8.549327	0.108178	-0.140602	-0.118577	-0.000155	0.009142	0.009959	-0.454102	0.088135	-0.536621	0.044771	0.009358	0.085491	-0.962969	-0.024705	0.236173	0.127679	6.933332	-26.650419	-16.749535
41507		4.665722	0.945202	8.528998	0.281294	-0.179605	-0.050782	-0.002406	-0.000090	0.011245	-0.451416	0.092529	-0.536133	0.046657	0.009456	0.085290	-0.962966	-0.024676	0.236212	0.127636	6.929357	-26.655755	-16.743917
41508		4.615376	0.916154	8.543684	0.223913	-0.194000	-0.063441	0.004644	0.001276	0.009209	-0.457031	0.092529	-0.528320	0.046154	0.009162	0.085437	-0.962963	-0.024684	0.236249	0.127594	6.929867	-26.660262	-16.739488
41509		4.381178	0.985230	8.563668	0.029314	-0.066420	-0.143327	0.002380	-0.007474	0.007863	-0.457275	0.098877	-0.528076	0.043808	0.009853	0.085638	-0.962948	-0.024677	0.236326	0.127562	6.929855	-26.669563	-16.736594
41510		4.821131	0.890236	8.584159	0.372007	-0.270938	0.062119	0.013181	-0.017460	0.010646	-0.451172	0.094238	-0.538574	0.048203	0.008899	0.085846	-0.962922	-0.024712	0.236460	0.127505	6.935493	-26.684829	-16.732700
41511		4.350486	0.975609	8.708101	-0.071298	-0.066275	-0.030045	0.023418	-0.027505	0.006998	-0.452637	0.094482	-0.529785	0.043493	0.009747	0.087088	-0.962880	-0.024794	0.236646	0.127455	6.948479	-26.705463	-16.731910
41512		4.720070	0.922553	8.517955	0.315712	-0.215814	-0.038258	0.027585	-0.041073	0.008393	-0.458496	0.093262	-0.533447	0.047183	0.009216	0.085191	-0.962823	-0.024886	0.236902	0.127396	6.963837	-26.734008	-16.731291
41513		4.508775	0.900278	8.582427	0.094510	-0.183283	-0.078465	0.030983	-0.043630	0.002784	-0.459229	0.088135	-0.527588	0.045069	0.008990	0.085836	-0.962759	-0.025000	0.237171	0.127359	6.982936	-26.763521	-16.734453
41514		4.716472	0.905554	8.512919	0.299414	-0.233428	-0.045867	0.028217	-0.054379	0.005536	-0.456787	0.088867	-0.529297	0.047141	0.009045	0.085143	-0.962684	-0.025090	0.237491	0.127314	6.999950	-26.799439	-16.736713
41515		4.389698	1.027925	8.622503	-0.008285	-0.030993	-0.082703	0.030431	-0.043714	-0.003659	-0.466064	0.088623	-0.529541	0.043878	0.010265	0.086236	-0.962615	-0.025209	0.237759	0.127309	7.020601	-26.828547	-16.744011
41516		4.542805	1.062135	8.506227	0.179019	-0.039732	-0.112818	0.021494	-0.042702	0.002895	-0.459229	0.094238	-0.532715	0.045410	0.010613	0.085073	-0.962553	-0.025276	0.238018	0.127283	7.034121	-26.857642	-16.747063
41517		4.328532	1.068120	8.617777	-0.059263	0.021843	-0.110154	0.021306	-0.032110	0.004948	-0.463135	0.086914	-0.537598	0.043271	0.010673	0.086186	-0.962504	-0.025348	0.238225	0.127246	7.046667	-26.880753	-16.747981
41518		4.606330	1.089869	8.464635	0.250016	-0.030506	-0.117705	0.012787	-0.033784	0.010720	-0.461426	0.091064	-0.523438	0.046048	0.010896	0.084655	-0.962459	-0.025371	0.238437	0.127191	7.052633	-26.905327	-16.745355
41519		4.635105	0.992623	8.486844	0.238521	-0.131007	-0.095591	0.002335	-0.012637	0.013806	-0.466797	0.091553	-0.527344	0.046345	0.009928	0.084871	-0.962441	-0.025353	0.238540	0.127132	7.051060	-26.917987	-16.739094
41520		4.778430	1.027223	8.395158	0.409900	-0.134197	-0.107985	-0.006100	-0.009629	0.016268	-0.468506	0.094238	-0.530762	0.047779	0.010279	0.083954	-0.962430	-0.025293	0.238624	0.127070	7.043739	-26.929222	-16.731025
41521		4.565772	1.055412	8.532006	0.170436	-0.049152	-0.080071	-0.009186	0.005991	0.017200	-0.467773	0.098145	-0.526855	0.045659	0.010562	0.085318	-0.962439	-0.025228	0.238630	0.127006	7.033916	-26.931526	-16.721128
41522		4.918962	0.893380	8.381547	0.504823	-0.296052	-0.070914	-0.018003	0.010729	0.025713	-0.474365	0.098145	-0.534668	0.049193	0.008948	0.083812	-0.962460	-0.025113	0.238610	0.126910	7.016318	-26.931849	-16.705429
41523		4.595605	0.978616	8.503018	0.193600	-0.127113	-0.100584	-0.018575	0.030141	0.017349	-0.458740	0.099365	-0.529053	0.045968	0.009798	0.085022	-0.962498	-0.025018	0.238494	0.126853	7.000216	-26.920426	-16.693543
41524		4.702816	1.000616	8.482681	0.302423	-0.131468	-0.067697	-0.024548	0.031299	0.019088	-0.462646	0.095703	-0.532471	0.047040	0.010021	0.084818	-0.962540	-0.024892	0.238370	0.126795	6.980056	-26.908588	-16.680465
41525		4.459005	0.959198	8.597935	0.034650	-0.105611	-0.080528	-0.027141	0.049855	0.010653	-0.469727	0.098877	-0.537354	0.044611	0.009606	0.085967	-0.962599	-0.024776	0.238152	0.126778	6.960293	-26.885481	-16.671323
41526		4.743153	0.969416	8.480252	0.339135	-0.168102	-0.055195	-0.026568	0.050378	0.014441	-0.461182	0.094971	-0.533447	0.047452	0.009709	0.084789	-0.962661	-0.024658	0.237935	0.126742	6.939658	-26.862466	-16.659740
41527		4.553931	0.981701	8.527152	0.163424	-0.105332	-0.097928	-0.029442	0.055378	0.013307	-0.472412	0.099365	-0.528076	0.045562	0.009833	0.085257	-0.962728	-0.024531	0.237690	0.126714	6.917636	-26.836394	-16.648500
41528		4.334241	1.037091	8.635521	-0.056528	0.007741	-0.095169	-0.030389	0.057033	0.012923	-0.468506	0.096680	-0.535156	0.043366	0.010387	0.086341	-0.962797	-0.024400	0.237437	0.126689	6.895036	-26.809486	-16.637397
41529		4.410577	1.019463	8.561831	0.043539	-0.027890	-0.127917	-0.025698	0.044954	0.012844	-0.469971	0.093506	-0.542725	0.044124	0.010208	0.085607	-0.962851	-0.024286	0.237245	0.126660	6.875675	-26.789305	-16.627282
41530		4.426036	0.951920	8.502108	0.072256	-0.095899	-0.181106	-0.025486	0.033389	0.016042	-0.464355	0.096924	-0.537598	0.044274	0.009534	0.085012	-0.962893	-0.024160	0.237110	0.126617	6.855824	-26.776052	-16.616030
41531		4.633382	0.947736	8.491089	0.256379	-0.150635	-0.097926	-0.023646	0.024880	0.022732	-0.472412	0.102539	-0.540039	0.046343	0.009493	0.084904	-0.962929	-0.024031	0.237016	0.126541	6.835505	-26.767960	-16.601168
41532		4.562556	0.980909	8.568701	0.169514	-0.096841	-0.057503	-0.022810	0.019498	0.021153	-0.460449	0.102051	-0.540283	0.045633	0.009824	0.085681	-0.962958	-0.023903	0.236950	0.126472	6.816205	-26.762955	-16.587732
41533		4.481581	0.992592	8.568736	0.104612	-0.062024	-0.092696	-0.027806	0.018494	0.025886	-0.460693	0.092529	-0.546143	0.044822	0.009944	0.085682	-0.962989	-0.023746	0.236886	0.126386	6.792822	-26.758701	-16.571354
41534		4.591802	0.984629	8.579078	0.193858	-0.094351	-0.034741	-0.027372	0.015313	0.027725	-0.464111	0.093506	-0.534912	0.045923	0.009864	0.085786	-0.963017	-0.023586	0.236838	0.126291	6.769170	-26.756515	-16.554054
41535		4.661576	0.915848	8.534466	0.259632	-0.175836	-0.050114	-0.027353	0.014818	0.030352	-0.470459	0.106689	-0.540527	0.046621	0.009177	0.085340	-0.963047	-0.023424	0.236791	0.126183	6.744894	-26.754641	-16.535112
41536		4.668798	0.908873	8.435180	0.311509	-0.182362	-0.135617	-0.028304	0.016481	0.029972	-0.471191	0.101563	-0.548828	0.046694	0.009108	0.084347	-0.963078	-0.023258	0.236737	0.126079	6.720025	-26.751933	-16.516295
41537		4.509062	0.988213	8.580970	0.127417	-0.059256	-0.069920	-0.031275	0.016807	0.032146	-0.469971	0.101563	-0.546143	0.045096	0.009903	0.085804	-0.963111	-0.023075	0.236679	0.125967	6.692923	-26.749032	-16.496064
41538		4.454689	0.984190	8.642984	0.052886	-0.044566	-0.039803	-0.031813	0.015783	0.030976	-0.463623	0.105469	-0.539551	0.044552	0.009863	0.086425	-0.963142	-0.022890	0.236627	0.125862	6.665781	-26.746777	-16.476664
41539		4.535929	0.854003	8.559553	0.132220	-0.188640	-0.090709	-0.027858	0.013281	0.031801	-0.466064	0.102539	-0.542480	0.045364	0.008559	0.085591	-0.963171	-0.022723	0.236588	0.125748	6.640857	-26.745843	-16.456919
41540		4.503279	0.922385	8.591226	0.106736	-0.110243	-0.070207	-0.027878	0.014255	0.026538	-0.465820	0.109619	-0.547852	0.045038	0.009242	0.085908	-0.963196	-0.022561	0.236544	0.125659	6.617294	-26.744152	-16.440463
41541		4.566315	0.857127	8.569332	0.156550	-0.186151	-0.067936	-0.025101	0.004063	0.033595	-0.467773	0.109375	-0.546631	0.045663	0.008590	0.085691	-0.963215	-0.022399	0.236552	0.125535	6.593741	-26.748568	-16.420256
41542		4.226872	0.924560	8.634296	-0.148536	-0.030447	-0.156118	-0.025764	-0.001147	0.033099	-0.465088	0.100830	-0.542236	0.042267	0.009264	0.086342	-0.963226	-0.022230	0.236584	0.125414	6.570013	-26.756065	-16.400752
41543		4.203861	1.071782	8.681022	-0.156853	0.122811	-0.110027	-0.028803	-0.020759	0.039800	-0.462158	0.100342	-0.547852	0.042027	0.010739	0.086813	-0.963219	-0.022027	0.236710	0.125267	6.543367	-26.775001	-16.378399
41544		4.317129	1.091213	8.658617	-0.048082	0.118427	-0.076997	-0.034893	-0.045724	0.057225	-0.466064	0.108887	-0.549316	0.043148	0.010940	0.086594	-0.963194	-0.021757	0.236954	0.125045	6.508921	-26.809423	-16.346746
41545		4.297460	1.069883	8.702241	-0.095511	0.111861	-0.049483	-0.054192	-0.079810	0.082343	-0.468994	0.102295	-0.545410	0.042935	0.010740	0.087037	-0.963146	-0.021345	0.237352	0.124730	6.457364	-26.864703	-16.301491
41546		4.260763	1.138746	8.852915	-0.189685	0.202554	0.074068	-0.078486	-0.127267	0.097600	-0.467285	0.109375	-0.550049	0.042546	0.011443	0.088552	-0.963053	-0.020767	0.237966	0.124374	6.388827	-26.948086	-16.249819
41547		3.904666	1.076634	8.973658	-0.578094	0.248754	0.012585	-0.081743	-0.181627	0.121194	-0.479004	0.112305	-0.543213	0.038959	0.010827	0.089768	-0.962910	-0.020112	0.238841	0.123915	6.313284	-27.063714	-16.186765
41548		4.062105	1.071888	9.006041	-0.479025	0.224229	0.110951	-0.099647	-0.257394	0.138922	-0.475342	0.114502	-0.541260	0.040498	0.010792	0.090107	-0.962687	-0.019302	0.240072	0.123398	6.224378	-27.223660	-16.117433
41549		3.881334	0.528461	9.242269	-0.895846	-0.230381	0.182703	-0.109303	-0.365223	0.125541	-0.469727	0.109619	-0.540283	0.038641	0.005359	0.092490	-0.962324	-0.018396	0.241813	0.122968	6.137034	-27.443970	-16.063768
41550		3.869232	0.932393	9.277143	-0.870205	0.188942	0.242784	-0.080962	-0.488801	0.142241	-0.472656	0.105957	-0.545898	0.038459	0.009389	0.092862	-0.961813	-0.017528	0.244167	0.122434	6.064349	-27.735757	-16.007387
41551		3.897468	0.875213	9.256356	-0.900474	0.153343	0.227317	-0.106387	-0.599583	0.152230	-0.487549	0.123779	-0.539307	0.038690	0.008831	0.092675	-0.961168	-0.016460	0.247036	0.121892	5.977141	-28.091075	-15.951472
41552		4.067029	1.022523	9.186467	-0.751395	0.285310	0.253642	-0.115678	-0.710070	0.178341	-0.486328	0.117676	-0.533447	0.040335	0.010314	0.092002	-0.960392	-0.015246	0.250431	0.121243	5.879267	-28.510926	-15.885221
41553		4.151163	1.162902	9.290102	-0.770690	0.441916	0.390284	-0.137246	-0.805822	0.204141	-0.487061	0.121582	-0.520996	0.041125	0.011735	0.093059	-0.959497	-0.013839	0.254269	0.120502	5.763111	-28.986643	-15.807373
41554		4.564457	1.263333	9.171977	-0.424568	0.479814	0.489941	-0.148534	-0.912746	0.233018	-0.491699	0.120361	-0.524902	0.045211	0.012754	0.091917	-0.958465	-0.012275	0.258611	0.119643	5.633202	-29.524900	-15.716063
41555		4.678132	1.140417	9.073097	-0.399437	0.378221	0.444163	-0.170940	-1.006820	0.261962	-0.505371	0.114258	-0.513672	0.046309	0.011543	0.090955	-0.957306	-0.010511	0.263385	0.118676	5.482299	-30.118129	-15.609724
41556		4.672284	1.057297	8.982861	-0.476571	0.348272	0.350499	-0.183391	-1.089151	0.304329	-0.501709	0.127686	-0.509521	0.046217	0.010726	0.090071	-0.956034	-0.008582	0.268540	0.117523	5.310254	-30.760414	-15.477880
41557		4.993846	1.152677	8.837222	-0.220367	0.418621	0.392143	-0.195582	-1.152700	0.352103	-0.517822	0.123047	-0.502686	0.049408	0.011701	0.088647	-0.954672	-0.006493	0.273984	0.116157	5.113854	-31.441005	-15.314758
41558		4.937755	1.293062	8.695140	-0.272069	0.623404	0.246878	-0.232533	-1.203702	0.365574	-0.516846	0.132324	-0.498535	0.048829	0.013122	0.087231	-0.953211	-0.004179	0.279639	0.114775	4.889119	-32.150924	-15.141413
41559		4.942921	0.891565	8.690070	-0.465501	0.298391	0.209161	-0.279533	-1.251726	0.373798	-0.527588	0.136230	-0.491211	0.048867	0.009129	0.087195	-0.951648	-0.001602	0.285485	0.113415	4.631513	-32.887966	-14.960300
41560		5.025209	0.609800	8.554846	-0.501704	0.068300	0.114650	-0.284440	-1.288956	0.394070	-0.524658	0.136475	-0.486084	0.049687	0.006318	0.085861	-0.949998	0.001049	0.291492	0.111961	4.359444	-33.646521	-14.761712
41561		5.233648	0.561433	8.332432	-0.338918	0.033646	0.037090	-0.273161	-1.315572	0.420987	-0.531494	0.143311	-0.467285	0.051775	0.005838	0.083658	-0.948279	0.003699	0.297616	0.110356	4.078623	-34.420559	-14.539747
41562		5.711104	0.520531	8.072142	0.060195	-0.051535	0.088787	-0.249759	-1.339252	0.448916	-0.541992	0.145508	-0.465820	0.056557	0.005434	0.081095	-0.946491	0.006294	0.303851	0.108579	3.794325	-35.208357	-14.292719
41563		6.183095	0.420609	7.781450	0.456911	-0.193751	0.122629	-0.210192	-1.356596	0.483805	-0.552490	0.149902	-0.452881	0.061291	0.004437	0.078227	-0.944648	0.008763	0.310172	0.106570	3.511966	-36.006292	-14.014744
41564		6.319241	0.212099	7.647070	0.474782	-0.362452	0.091704	-0.174052	-1.367208	0.509899	-0.556641	0.141357	-0.449219	0.062662	0.002348	0.076898	-0.942752	0.011108	0.316544	0.104375	3.231759	-36.810104	-13.710940
41565		6.267725	0.090697	7.527282	0.357147	-0.412542	-0.032441	-0.086943	-1.360215	0.539001	-0.560791	0.157471	-0.438965	0.062161	0.001108	0.075696	-0.940837	0.013083	0.322910	0.101900	2.980587	-37.609630	-13.378111
41566		6.262660	0.346659	7.419673	0.347264	-0.107312	-0.103980	0.021167	-1.323019	0.596238	-0.559082	0.153564	-0.433350	0.062123	0.003644	0.074609	-0.938958	0.014651	0.329134	0.099060	2.756423	-38.388463	-13.004577
41567		6.565176	1.042115	7.239503	0.704844	0.564182	-0.025891	0.099199	-1.251373	0.648331	-0.564453	0.160889	-0.421631	0.065163	0.010597	0.072809	-0.937190	0.015874	0.335041	0.095765	2.542719	-39.126453	-12.572552
41568		7.068987	1.254929	7.009915	1.154067	0.726941	0.128271	0.130958	-1.149160	0.695091	-0.574951	0.166260	-0.421631	0.070241	0.012748	0.070512	-0.935572	0.016978	0.340464	0.092201	2.313762	-39.805826	-12.094554
41569		7.224884	0.854257	6.685232	1.297613	0.340085	-0.023896	0.135065	-1.042983	0.745705	-0.580322	0.177002	-0.408447	0.071866	0.008766	0.067234	-0.934118	0.018098	0.345373	0.088399	2.051364	-40.423860	-11.567330
41570		7.129684	0.374668	6.438297	1.208726	-0.078908	-0.275585	0.189880	-0.940576	0.800466	-0.577637	0.179932	-0.403320	0.070977	0.003970	0.064721	-0.932831	0.019011	0.349809	0.084252	1.782024	-40.982510	-10.987724
41571		7.018375	0.315660	6.269165	1.146454	-0.078767	-0.467188	0.283934	-0.857063	0.872116	-0.584473	0.187988	-0.401367	0.069900	0.003373	0.062996	-0.931693	0.019574	0.353874	0.079610	1.520022	-41.492384	-10.343587
41572		6.951586	0.520862	6.370141	0.991619	0.196441	-0.423757	0.378770	-0.765158	0.935132	-0.577637	0.182617	-0.401123	0.069246	0.005412	0.063977	-0.930715	0.019771	0.357529	0.074514	1.269648	-41.948435	-9.641489
41573		6.676409	0.814448	6.707271	0.543917	0.599410	-0.348565	0.460922	-0.649384	0.973974	-0.579346	0.196533	-0.406006	0.066506	0.008314	0.067308	-0.929929	0.019610	0.360657	0.069098	1.036372	-42.336287	-8.900352
41574		5.699211	1.248484	7.443060	-0.659221	1.239187	-0.460233	0.519268	-0.467180	0.994557	-0.579346	0.200928	-0.394775	0.056756	0.012574	0.074596	-0.929448	0.019151	0.362943	0.063496	0.816844	-42.617894	-8.134900
41575		5.564452	1.483929	8.067188	-1.193005	1.555045	-0.096560	0.613900	-0.234304	0.963530	-0.580811	0.202393	-0.405762	0.055478	0.014859	0.080783	-0.929357	0.018121	0.364166	0.057887	0.661685	-42.763882	-7.387426
41576		5.858253	1.868413	8.067518	-0.961797	1.911365	0.102782	0.706192	0.037993	0.863316	-0.581299	0.198486	-0.398682	0.058517	0.018652	0.080730	-0.929710	0.016401	0.364149	0.052598	0.609420	-42.752329	-6.714620
41577		5.211437	2.332377	7.658661	-1.116481	2.388990	-0.631167	0.708311	0.265402	0.706520	-0.575439	0.216309	-0.406006	0.052134	0.023237	0.076600	-0.930409	0.014325	0.363076	0.048051	0.641172	-42.609320	-6.162922
41578		4.671974	2.350003	7.082798	-1.117999	2.394696	-1.414393	0.637956	0.360828	0.548112	-0.562256	0.216797	-0.415039	0.046783	0.023402	0.070818	-0.931217	0.012266	0.361546	0.044375	0.717334	-42.411016	-5.734802
41579		4.538645	2.065527	6.767250	-1.018490	2.082740	-1.732701	0.558329	0.382795	0.385084	-0.566650	0.212402	-0.420410	0.045476	0.020554	0.067643	-0.932007	0.010277	0.359899	0.041602	0.834470	-42.199326	-5.433670
41580		4.679657	1.800427	6.730493	-0.895874	1.782985	-1.660476	0.516714	0.372344	0.224243	-0.562988	0.218018	-0.420898	0.046902	0.017883	0.067264	-0.932730	0.008194	0.358296	0.039653	1.012163	-41.992752	-5.257146
41581		5.015182	1.627250	6.834610	-0.710815	1.563604	-1.353275	0.481338	0.367577	0.078699	-0.567871	0.207764	-0.421387	0.050271	0.016128	0.068293	-0.933404	0.006017	0.356710	0.038445	1.244529	-41.787697	-5.192232
41582		5.278952	1.450582	6.943534	-0.577428	1.339802	-1.091706	0.463769	0.371902	-0.053783	-0.561035	0.212402	-0.419434	0.052922	0.014331	0.069370	-0.934052	0.003684	0.355102	0.037887	1.533951	-41.578566	-5.227859
41583		5.463042	1.332913	7.019258	-0.472354	1.173065	-0.908079	0.431063	0.386624	-0.163908	-0.559326	0.212402	-0.435059	0.054777	0.013133	0.070115	-0.934697	0.001306	0.353417	0.037900	1.858859	-41.358977	-5.345653
41584		5.676467	1.109530	7.147779	-0.383255	0.895652	-0.669671	0.396946	0.408358	-0.251937	-0.555420	0.205566	-0.439941	0.056924	0.010882	0.071383	-0.935354	-0.001073	0.351622	0.038386	2.206427	-41.124645	-5.527833
41585		5.897482	0.818925	7.272348	-0.285513	0.545581	-0.434069	0.372327	0.436245	-0.329127	-0.565186	0.207031	-0.444580	0.059147	0.007957	0.072610	-0.936037	-0.003477	0.349687	0.039275	2.575264	-40.871647	-5.764993
41586		6.156185	0.624396	7.385778	-0.139955	0.282610	-0.182612	0.354600	0.472826	-0.399394	-0.551270	0.202148	-0.453369	0.061748	0.005990	0.073723	-0.936758	-0.005929	0.347573	0.040523	2.964980	-40.594583	-6.050793
41587		6.269854	0.467087	7.416843	-0.042244	0.061107	-0.089889	0.343080	0.511975	-0.465720	-0.552002	0.198975	-0.455566	0.062899	0.004398	0.074015	-0.937522	-0.008449	0.345266	0.042099	3.375654	-40.291520	-6.380963
41588		6.236444	0.371356	7.331516	0.027346	-0.091047	-0.180826	0.303256	0.540434	-0.523092	-0.549316	0.199219	-0.468994	0.062571	0.003439	0.073152	-0.938310	-0.010889	0.342809	0.044012	3.786286	-39.968328	-6.748403
41589		6.252066	0.185963	7.295575	0.095712	-0.335967	-0.209260	0.256924	0.534051	-0.573902	-0.555664	0.196289	-0.461914	0.062720	0.001586	0.072791	-0.939063	-0.013195	0.340364	0.046242	4.189993	-39.644781	-7.149178
41590		6.394687	-0.019715	7.324044	0.216796	-0.612304	-0.111572	0.203444	0.528070	-0.612640	-0.549805	0.192139	-0.470215	0.064139	-0.000468	0.073071	-0.939785	-0.015316	0.337926	0.048745	4.576893	-39.320828	-7.574256
41591		6.524354	-0.142557	7.410131	0.297133	-0.804731	0.024041	0.155006	0.520021	-0.638007	-0.549072	0.185791	-0.471191	0.065431	-0.001691	0.073930	-0.940474	-0.017249	0.335506	0.051448	4.943148	-38.998125	-8.013727
41592		6.685490	-0.265965	7.625672	0.319433	-1.000468	0.277604	0.107966	0.509981	-0.643723	-0.550293	0.181641	-0.473145	0.067040	-0.002916	0.076084	-0.941133	-0.018968	0.333116	0.054257	5.280873	-38.678769	-8.453557
41593		7.483188	-0.158120	7.973376	0.773584	-1.041523	1.046139	0.082564	0.515229	-0.634778	-0.546143	0.181641	-0.479492	0.075031	-0.001852	0.079540	-0.941789	-0.020553	0.330688	0.057065	5.595005	-38.354965	-8.882146
41594		8.101811	-1.385085	8.672621	0.757514	-2.387568	1.870518	0.011676	0.633870	-0.493516	-0.539795	0.179688	-0.479980	0.081258	-0.014056	0.086468	-0.942674	-0.021605	0.327692	0.059312	5.795531	-37.970061	-9.195826
41595		6.540507	-0.973305	7.752085	0.215661	-1.821968	0.209981	0.046329	0.654362	-0.409869	-0.542236	0.172852	-0.485107	0.065638	-0.009885	0.077304	-0.943599	-0.022688	0.324612	0.061104	5.974235	-37.577568	-9.444354
41596		6.367353	0.076361	7.771061	0.228779	-0.794697	0.200015	0.089365	0.536781	-0.372844	-0.537598	0.171143	-0.495361	0.063883	0.000610	0.077540	-0.944327	-0.023878	0.322101	0.062665	6.164050	-37.253707	-9.672535
41597		6.832801	0.576068	8.307729	0.365067	-0.397086	0.945852	0.029055	0.444697	-0.329741	-0.534668	0.172363	-0.499512	0.068522	0.005636	0.082926	-0.944919	-0.024685	0.320008	0.064130	6.302816	-36.984430	-9.875021
41598		7.185606	0.733809	8.882702	0.355262	-0.317832	1.626122	-0.053777	0.406315	-0.290392	-0.529785	0.167969	-0.507813	0.072047	0.007257	0.088679	-0.945467	-0.025025	0.318073	0.065545	6.377679	-36.739236	-10.051248
41599		6.890133	0.804098	9.117974	0.031987	-0.225661	1.641824	-0.100064	0.382394	-0.260507	-0.531494	0.171875	-0.507813	0.069086	0.007997	0.091044	-0.945986	-0.025091	0.316237	0.066896	6.413373	-36.509398	-10.207312
41600		6.449077	0.971280	9.154623	-0.279769	-0.008259	1.423978	-0.117327	0.329285	-0.215129	-0.530029	0.168701	-0.518799	0.064652	0.009697	0.091434	-0.946434	-0.024985	0.314651	0.068066	6.421884	-36.312697	-10.334981
41601		6.077208	1.130387	9.269985	-0.591719	0.196849	1.311785	-0.110036	0.262371	-0.164966	-0.535400	0.174072	-0.509277	0.060903	0.011305	0.092614	-0.946790	-0.024812	0.313389	0.068994	6.416250	-36.157264	-10.432238
41602		5.648157	1.394023	9.423058	-0.966477	0.517204	1.207175	-0.084310	0.206984	-0.116161	-0.535645	0.171143	-0.517822	0.056587	0.013947	0.094166	-0.947071	-0.024665	0.312404	0.069659	6.407446	-36.036531	-10.499364
41603		5.230448	1.686344	9.616309	-1.358548	0.866666	1.145321	-0.068925	0.159311	-0.072131	-0.533447	0.168945	-0.511230	0.052387	0.016878	0.096116	-0.947289	-0.024506	0.311655	0.070096	6.391282	-35.945734	-10.539190
41604		4.962359	1.877348	9.798775	-1.641242	1.095214	1.154183	-0.043624	0.134606	-0.036219	-0.530273	0.166748	-0.520020	0.049693	0.018786	0.097950	-0.947479	-0.024402	0.311035	0.070327	6.375950	-35.871306	-10.555721
41605		4.577742	2.014165	9.848794	-1.946780	1.286963	0.983843	-0.009627	0.135233	-0.011283	-0.536377	0.175049	-0.517334	0.045845	0.020144	0.098456	-0.947673	-0.024420	0.310428	0.070387	6.369742	-35.798104	-10.554672
41606		4.092222	2.091151	9.795544	-2.280125	1.431832	0.666948	0.037325	0.139581	0.000927	-0.534912	0.165771	-0.525146	0.040990	0.020893	0.097931	-0.947872	-0.024644	0.309818	0.070316	6.385303	-35.723165	-10.544727
41607		3.603534	2.136623	9.671667	-2.580014	1.542026	0.289660	0.087416	0.138236	0.006617	-0.528564	0.171143	-0.520508	0.036101	0.021325	0.096701	-0.948064	-0.025095	0.309232	0.070140	6.427213	-35.649399	-10.530842
41608		3.226717	2.192598	9.484337	-2.754410	1.641931	-0.071584	0.135241	0.132145	0.003100	-0.538330	0.167236	-0.532227	0.032329	0.021862	0.094837	-0.948240	-0.025778	0.308691	0.069907	6.498310	-35.578789	-10.519846
41609		2.913290	2.227873	9.435887	-2.964862	1.707245	-0.284754	0.177039	0.123671	-0.007561	-0.532227	0.175781	-0.524658	0.029192	0.022194	0.094361	-0.948392	-0.026671	0.308204	0.069662	6.597927	-35.512415	-10.516850
41610		2.833998	2.295923	9.464683	-3.030754	1.765544	-0.295315	0.211232	0.129789	-0.035369	-0.537842	0.170654	-0.531982	0.028405	0.022854	0.094653	-0.948538	-0.027772	0.307694	0.069495	6.728161	-35.440552	-10.532644
41611		2.798703	2.331758	9.457702	-3.042506	1.781296	-0.310687	0.241582	0.166501	-0.080310	-0.532471	0.167236	-0.536621	0.028075	0.023192	0.094582	-0.948718	-0.029098	0.307015	0.069489	6.891891	-35.344881	-10.576482
41612		2.613524	2.316045	9.416618	-3.155909	1.764803	-0.442903	0.257817	0.225058	-0.131438	-0.537354	0.164307	-0.533447	0.026256	0.023022	0.094166	-0.948967	-0.030601	0.306053	0.069692	7.082446	-35.212000	-10.650529
41613		2.552385	2.273907	9.377846	-3.168691	1.700082	-0.501496	0.272590	0.282215	-0.197485	-0.528564	0.159180	-0.539795	0.025679	0.022586	0.093773	-0.949273	-0.032293	0.304816	0.070176	7.304261	-35.041907	-10.764729
41614		2.534571	2.256024	9.318135	-3.124898	1.649749	-0.546920	0.274849	0.360584	-0.271136	-0.526367	0.159424	-0.546875	0.025544	0.022398	0.093166	-0.949668	-0.034138	0.303192	0.070994	7.551761	-34.821144	-10.921777
41615		2.403681	2.206312	9.149487	-3.105189	1.586110	-0.746245	0.258536	0.432583	-0.356970	-0.531250	0.160889	-0.548584	0.024274	0.021902	0.091471	-0.950136	-0.036059	0.301206	0.072231	7.818147	-34.552655	-11.129707
41616		2.316168	2.070765	9.036501	-3.086818	1.429640	-0.883050	0.236871	0.485194	-0.449033	-0.527100	0.150879	-0.549561	0.023427	0.020548	0.090333	-0.950644	-0.038036	0.298939	0.073928	8.103079	-34.245807	-11.393608
41617		2.473924	1.983166	8.983151	-2.893308	1.278437	-0.826908	0.210627	0.535377	-0.547658	-0.531006	0.139648	-0.554199	0.025034	0.019669	0.089786	-0.951182	-0.040052	0.296403	0.076122	8.404934	-33.901661	-11.717118
41618		2.740515	1.894247	9.032492	-2.663383	1.101378	-0.626971	0.183873	0.591290	-0.643065	-0.529785	0.135010	-0.556885	0.027733	0.018771	0.090261	-0.951755	-0.042105	0.293564	0.078797	8.720832	-33.515805	-12.096250
41619		2.988508	1.809812	9.034844	-2.412456	0.928800	-0.477175	0.149186	0.677993	-0.743679	-0.527100	0.133545	-0.561035	0.030258	0.017919	0.090260	-0.952401	-0.044171	0.290274	0.081982	9.044309	-33.070665	-12.529958
41620		3.192896	1.688850	8.995424	-2.169827	0.724892	-0.393020	0.120150	0.740989	-0.833732	-0.521240	0.125488	-0.562744	0.032332	0.016700	0.089845	-0.953083	-0.046257	0.286640	0.085622	9.374625	-32.579063	-13.012047
41621		3.438135	1.531451	8.853541	-1.835972	0.477264	-0.381254	0.084718	0.802115	-0.917322	-0.521240	0.121826	-0.565674	0.034806	0.015118	0.088403	-0.953790	-0.048316	0.282675	0.089694	9.703727	-32.043174	-13.537071
41622		3.634690	1.433118	8.694847	-1.520361	0.294453	-0.407045	0.030827	0.853596	-0.992310	-0.508301	0.108887	-0.570313	0.036788	0.014136	0.086794	-0.954513	-0.050247	0.278406	0.094183	10.017369	-31.467826	-14.099176
41623		3.889494	1.282319	8.621204	-1.207640	0.042373	-0.345028	-0.026800	0.889328	-1.058273	-0.516357	0.107178	-0.575195	0.039345	0.012627	0.086036	-0.955225	-0.052007	0.273915	0.099054	10.309509	-30.863697	-14.693489
41624		4.075502	1.168339	8.478044	-0.906760	-0.158306	-0.378508	-0.088677	0.927483	-1.113467	-0.507813	0.097412	-0.574951	0.041212	0.011492	0.084585	-0.955931	-0.053566	0.269178	0.104259	10.573193	-30.229287	-15.312018
41625		4.164407	1.052228	8.290238	-0.663383	-0.337565	-0.505565	-0.150195	0.955592	-1.157808	-0.504395	0.096191	-0.581543	0.042100	0.010342	0.082694	-0.956615	-0.054901	0.264253	0.109745	10.804479	-29.572634	-15.948748
41626		4.297817	0.978966	8.210573	-0.432713	-0.490039	-0.516731	-0.215555	0.961212	-1.190240	-0.514404	0.083496	-0.584961	0.043430	0.009620	0.081887	-0.957253	-0.055967	0.259236	0.115464	10.998543	-28.906653	-16.598660
41627		4.415837	0.885038	8.082214	-0.195728	-0.655887	-0.585787	-0.273805	0.962394	-1.212007	-0.511230	0.079590	-0.589111	0.044600	0.008691	0.080596	-0.957836	-0.056778	0.254163	0.121357	11.155940	-28.236480	-17.255939
41628		4.482109	0.848974	7.953215	0.006993	-0.751282	-0.674945	-0.333411	0.959687	-1.218457	-0.502197	0.069580	-0.596436	0.045253	0.008347	0.079302	-0.958371	-0.057308	0.249044	0.127348	11.271820	-27.565127	-17.911640
41629		4.430934	0.791413	7.818201	0.105388	-0.831866	-0.830489	-0.389444	0.938123	-1.207268	-0.500732	0.068848	-0.595703	0.044723	0.007797	0.077958	-0.958842	-0.057537	0.243985	0.133355	11.344369	-26.906803	-18.557884
41630		4.416043	0.693581	7.776907	0.173957	-0.960499	-0.895890	-0.424522	0.893358	-1.184624	-0.491211	0.060791	-0.601807	0.044548	0.006837	0.077556	-0.959226	-0.057538	0.239105	0.139300	11.384598	-26.275015	-19.191046
41631		4.746049	0.631883	7.996736	0.414052	-1.165525	-0.574641	-0.434057	0.853024	-1.148494	-0.489258	0.057617	-0.599121	0.047837	0.006218	0.079750	-0.959533	-0.057418	0.234412	0.145087	11.403864	-25.670280	-19.803086
41632		5.282248	0.673145	8.379218	0.780924	-1.348537	-0.007718	-0.413196	0.846459	-1.112871	-0.489746	0.051514	-0.605469	0.053213	0.006609	0.083554	-0.959802	-0.057349	0.229759	0.150673	11.418794	-25.072519	-20.390416
41633		5.720425	0.736879	8.659770	1.126133	-1.487849	0.423282	-0.362722	0.900130	-1.094751	-0.484863	0.048828	-0.608887	0.057633	0.007211	0.086326	-0.960079	-0.057537	0.224885	0.156090	11.448088	-24.447058	-20.956760
41634		5.769608	1.105632	8.602431	1.388553	-1.211135	0.439947	-0.330643	0.985503	-1.074540	-0.483398	0.041748	-0.601563	0.058178	0.010886	0.085720	-0.960408	-0.057922	0.219614	0.161341	11.479163	-23.775132	-21.496637
41635		5.491262	1.211979	8.370274	1.384443	-1.067889	0.118379	-0.343524	1.031474	-1.048137	-0.478271	0.025635	-0.617432	0.055406	0.011974	0.083397	-0.960757	-0.058248	0.214112	0.166458	11.487041	-23.080795	-22.011679
41636		5.512635	1.110703	8.180592	1.554508	-1.220202	-0.084462	-0.338969	1.029289	-1.014861	-0.476318	0.023926	-0.626709	0.055602	0.010964	0.081502	-0.961078	-0.058556	0.208618	0.171401	11.483031	-22.390947	-22.503952
41637		5.807188	1.193207	8.072449	1.974370	-1.301557	-0.080357	-0.323165	1.028192	-0.983817	-0.466797	0.017822	-0.629639	0.058544	0.011775	0.080405	-0.961367	-0.058903	0.203146	0.176169	11.474741	-21.705822	-22.975317
41638		5.869588	1.322491	7.892982	2.238677	-1.256644	-0.225809	-0.317345	1.029335	-0.942293	-0.459229	0.024414	-0.622559	0.059163	0.013072	0.078605	-0.961627	-0.059217	0.197675	0.180806	11.454607	-21.024423	-23.429349
41639		5.840139	1.335637	7.582812	2.435196	-1.278274	-0.548509	-0.318766	0.996550	-0.896904	-0.461426	0.011963	-0.636475	0.058838	0.013214	0.075515	-0.961864	-0.059464	0.192364	0.185144	11.420049	-20.367260	-23.848578
41640		5.934458	1.173663	7.371784	2.629724	-1.509423	-0.771459	-0.315790	0.931055	-0.849785	-0.454590	0.001709	-0.636719	0.059736	0.011599	0.073422	-0.962022	-0.059600	0.187377	0.189347	11.375405	-19.752079	-24.256191
41641		6.179679	0.911210	7.207966	2.887910	-1.891231	-0.921343	-0.275482	0.856336	-0.812133	-0.453857	0.005615	-0.635010	0.062141	0.008959	0.071802	-0.962111	-0.059839	0.182790	0.193262	11.345192	-19.183775	-24.639364
41642		6.492045	0.973233	7.001374	3.320411	-2.000273	-1.032813	-0.256294	0.787818	-0.756827	-0.453857	-0.000244	-0.632568	0.065232	0.009575	0.069745	-0.962136	-0.060035	0.178564	0.196991	11.314151	-18.660043	-25.006815
41643		6.746928	0.878176	6.810272	3.634005	-2.228069	-1.181278	-0.286609	0.716317	-0.680576	-0.438965	0.002441	-0.645508	0.067742	0.008649	0.067848	-0.962170	-0.059962	0.174667	0.200313	11.251060	-18.185652	-25.327040
41644		7.001547	0.372693	6.631099	3.782407	-2.826050	-1.396127	-0.264949	0.632210	-0.590772	-0.439209	-0.007324	-0.650879	0.070235	0.003607	0.066084	-0.962174	-0.059813	0.171223	0.203288	11.184528	-17.768635	-25.613744
41645		7.137972	-0.011695	6.449853	3.861304	-3.258853	-1.626032	-0.207005	0.552644	-0.489555	-0.438232	-0.003418	-0.648438	0.071557	-0.000225	0.064301	-0.962196	-0.059790	0.168245	0.205663	11.134192	-17.408086	-25.839923
41646		6.988519	-0.043316	6.239321	3.826575	-3.244151	-1.900480	-0.152927	0.454434	-0.359156	-0.433350	-0.008057	-0.651367	0.070026	-0.000511	0.062235	-0.962243	-0.059815	0.165830	0.207392	11.094077	-17.117180	-26.000546
41647		7.093177	-0.200134	6.240765	3.882372	-3.449928	-1.918040	-0.103755	0.349622	-0.203898	-0.436035	-0.003662	-0.650146	0.071039	-0.002041	0.062285	-0.962342	-0.059840	0.164017	0.208364	11.058371	-16.902544	-26.081963
41648		7.195218	-0.254554	6.164673	3.996390	-3.548594	-1.984824	-0.071756	0.255895	-0.052449	-0.430664	-0.007813	-0.645264	0.072030	-0.002542	0.061556	-0.962510	-0.059795	0.162733	0.208608	11.018001	-16.757247	-26.085198
41649		7.268927	-0.310723	6.147972	4.062138	-3.630331	-1.999166	-0.032517	0.183762	0.093377	-0.427490	-0.006592	-0.640625	0.072747	-0.003063	0.061413	-0.962758	-0.059746	0.161881	0.208139	10.977999	-16.668497	-26.011150
41650		7.039874	-0.132138	5.886938	4.036452	-3.351871	-2.282395	0.011495	0.111297	0.236236	-0.427002	-0.003662	-0.651123	0.070433	-0.001242	0.058830	-0.963082	-0.059717	0.161467	0.206969	10.941487	-16.636102	-25.861558
41651		6.843346	0.127620	5.733965	4.027315	-3.010858	-2.434242	0.051778	-0.002366	0.354475	-0.435547	0.004883	-0.647461	0.068430	0.001383	0.057341	-0.963422	-0.059670	0.161676	0.205230	10.911986	-16.680331	-25.655427
41652		7.034315	0.531970	5.727011	4.349280	-2.699606	-2.305421	0.091201	-0.104605	0.450489	-0.432373	0.003662	-0.640137	0.070301	0.005452	0.057309	-0.963744	-0.059613	0.162452	0.203110	10.891686	-16.792587	-25.414382
41653		6.755052	1.043587	5.646004	4.321581	-2.085749	-2.358115	0.106349	-0.170044	0.510966	-0.435059	0.004883	-0.644775	0.067476	0.010578	0.056523	-0.964081	-0.059530	0.163570	0.200621	10.871443	-16.947931	-25.134926
41654		6.122406	1.502136	5.489697	3.983775	-1.370864	-2.592772	0.101100	-0.248279	0.542526	-0.431641	0.008545	-0.633545	0.061115	0.015159	0.054981	-0.964362	-0.059300	0.165074	0.198090	10.844219	-17.150888	-24.855446
41655		5.596635	1.922524	5.495610	3.658688	-0.742412	-2.651485	0.099466	-0.341128	0.533021	-0.429443	0.012695	-0.630859	0.055821	0.019347	0.055061	-0.964566	-0.058994	0.167013	0.195547	10.819779	-17.404654	-24.581533
41656		4.853868	2.440756	5.759310	3.079263	0.045389	-2.518657	0.101079	-0.429480	0.483752	-0.420654	0.015625	-0.622314	0.048356	0.024496	0.057709	-0.964620	-0.058633	0.169372	0.193349	10.806457	-17.703137	-24.356231
41657		-5.976885	7.076508	13.831305	-7.580745	8.229685	2.512352	-0.279730	-1.033729	0.457291	-0.431885	0.021240	-0.616455	-0.060644	0.070820	0.137902	-0.964244	-0.055889	0.174257	0.191690	10.598675	-18.338181	-24.202915
41658		-6.026230	7.318232	11.242973	-6.724666	8.663553	-0.014995	-0.379782	-1.250391	0.420101	-0.436523	0.026123	-0.608154	-0.061117	0.073267	0.111910	-0.963615	-0.052468	0.180080	0.190434	10.345373	-19.091122	-24.102285
41659		-1.960260	1.865049	3.962507	-2.521599	2.369464	-6.488703	-0.442002	-1.995254	0.293429	-0.445801	0.038086	-0.593994	-0.020024	0.018709	0.039385	-0.962153	-0.048164	0.189378	0.189940	10.106024	-20.250425	-24.143829
41660		9.091226	1.397948	12.265798	3.426599	-2.373863	4.940873	-0.432199	-2.261863	0.072055	-0.465332	0.036865	-0.574219	0.089513	0.014278	0.123645	-0.960094	-0.043841	0.199896	0.190628	9.929423	-21.538374	-24.353360
41661		11.160573	-0.070753	12.989578	4.112989	-4.374765	6.225704	-0.413071	-1.672464	0.174904	-0.483643	0.039063	-0.563965	0.110515	-0.000341	0.130824	-0.958634	-0.040080	0.207600	0.190569	9.719508	-22.504103	-24.424939
41662		7.949826	-0.846751	10.181024	2.118243	-3.726222	2.401847	-0.543393	-1.390101	0.499112	-0.477539	0.051270	-0.549561	0.078808	-0.007993	0.102382	-0.957719	-0.035605	0.213883	0.189106	9.345190	-23.341625	-24.273696
41663		7.370511	0.278682	10.652403	1.696029	-2.322984	2.820608	-0.461695	-1.271738	0.484466	-0.479980	0.058350	-0.544434	0.073018	0.003211	0.106983	-0.956864	-0.031666	0.219655	0.187510	9.011903	-24.109673	-24.103021
41664		7.212884	2.135651	9.807752	2.452609	-0.444730	2.293665	-0.410422	-1.133937	0.248038	-0.481445	0.062500	-0.532227	0.071545	0.021647	0.098440	-0.955871	-0.028338	0.224774	0.187042	8.759032	-24.778301	-24.070736
41665		8.862025	1.118207	10.526544	3.051390	-1.879821	3.519518	-0.453212	-0.903312	0.184527	-0.480469	0.071777	-0.524170	0.088133	0.011503	0.105638	-0.955069	-0.025113	0.228729	0.186803	8.487400	-25.310326	-24.042669
41666		7.753373	-0.210215	10.067715	1.809629	-2.640755	2.486456	-0.337991	-0.569697	0.153741	-0.493164	0.074951	-0.513672	0.077248	-0.001872	0.100901	-0.954587	-0.022783	0.231193	0.186534	8.275398	-25.650946	-24.000538
41667		6.417961	1.040554	9.404046	1.398840	-0.962357	1.493326	-0.242419	-0.387989	0.124708	-0.504150	0.077148	-0.518799	0.063990	0.010560	0.094152	-0.954269	-0.021113	0.232870	0.186270	8.118294	-25.885638	-23.958830
41668		5.527243	1.023465	8.639050	0.981019	-0.651266	0.426670	-0.211830	-0.278231	0.074885	-0.493408	0.081543	-0.522217	0.055148	0.010347	0.086456	-0.954008	-0.019727	0.234051	0.186280	7.987598	-26.054403	-23.948098
41669		5.321935	-0.554925	9.530193	-0.156808	-1.973651	0.936060	-0.123222	-0.209997	0.055267	-0.488525	0.085938	-0.515381	0.053121	-0.005476	0.095361	-0.953814	-0.018872	0.234982	0.186189	7.910412	-26.182426	-23.933315
41670		4.319024	0.400082	8.979906	-0.414644	-0.735151	0.124131	0.020853	-0.154179	0.037156	-0.487061	0.078125	-0.510498	0.043120	0.003999	0.089833	-0.953653	-0.018776	0.235782	0.186010	7.918430	-26.277788	-23.925040
41671		4.608114	1.525557	8.507819	0.411509	0.186041	-0.027952	0.047536	-0.149894	0.022857	-0.482178	0.084717	-0.516602	0.046016	0.015241	0.085116	-0.953482	-0.018829	0.236581	0.185867	7.945752	-26.369139	-23.925405
41672		4.956327	1.557566	8.375281	0.753243	0.084981	0.013904	0.048375	-0.131332	0.032034	-0.488770	0.083496	-0.517822	0.049506	0.015563	0.083789	-0.953340	-0.018891	0.237297	0.185677	7.970082	-26.451138	-23.918417
41673		4.636353	1.397353	8.480968	0.374113	0.060374	-0.054021	0.040226	-0.115949	0.045781	-0.491455	0.091064	-0.513428	0.046311	0.013967	0.084839	-0.953230	-0.018915	0.237930	0.185430	7.985426	-26.525050	-23.901316
41674		4.675059	1.469351	8.401107	0.455010	0.112687	-0.098058	0.034639	-0.114570	0.051378	-0.492432	0.083008	-0.508789	0.046699	0.014691	0.084040	-0.953126	-0.018903	0.238555	0.185162	7.995742	-26.599092	-23.880610
41675		4.329403	1.659387	8.523254	0.170106	0.425212	-0.120762	0.023143	-0.099207	0.060772	-0.479248	0.081055	-0.523193	0.043247	0.016597	0.085256	-0.953051	-0.018843	0.239093	0.184862	7.996327	-26.664705	-23.852506
41676		4.453566	1.529010	8.592029	0.185220	0.267870	-0.020394	0.011551	-0.089274	0.078844	-0.481934	0.088623	-0.519287	0.044491	0.015303	0.085941	-0.953004	-0.018712	0.239578	0.184489	7.984519	-26.726585	-23.812079
41677		4.727254	1.152211	8.652702	0.243485	-0.172554	0.109747	0.008148	-0.072847	0.081249	-0.482666	0.083740	-0.531250	0.047236	0.011538	0.086545	-0.952979	-0.018580	0.239979	0.184107	7.969522	-26.778860	-23.768562
41678		4.954671	1.037498	8.523414	0.443974	-0.361242	0.084087	-0.012771	-0.057119	0.090737	-0.489258	0.086182	-0.520508	0.049518	0.010403	0.085248	-0.952983	-0.018349	0.240290	0.183703	7.938981	-26.823416	-23.717637
41679		4.414883	0.877214	8.695596	-0.136230	-0.300871	-0.026729	-0.009212	-0.046203	0.077754	-0.483643	0.087402	-0.519287	0.044125	0.008793	0.086966	-0.952989	-0.018163	0.240547	0.183356	7.913876	-26.860261	-23.673897
41680		4.529164	0.938310	8.619417	0.008222	-0.283542	-0.034771	0.004978	-0.062529	0.062169	-0.484863	0.089111	-0.517090	0.045262	0.009395	0.086209	-0.952958	-0.018046	0.240897	0.183067	7.901834	-26.905604	-23.641549
41681		4.730327	0.882693	8.630954	0.141576	-0.402479	0.059823	0.012973	-0.069689	0.047109	-0.481445	0.087402	-0.522461	0.047271	0.008832	0.086327	-0.952905	-0.017981	0.241283	0.182841	7.899131	-26.953347	-23.619339
41682		4.546183	1.070609	8.525481	0.096130	-0.164021	-0.093549	0.027396	-0.081617	0.037477	-0.479980	0.089111	-0.528320	0.045425	0.010703	0.085275	-0.952826	-0.017983	0.241743	0.182645	7.907762	-27.007579	-23.604370
41683		5.150508	0.880620	8.494087	0.531237	-0.556188	0.130208	0.029206	-0.072292	0.036338	-0.486328	0.089355	-0.519287	0.051473	0.008803	0.084961	-0.952758	-0.018006	0.242155	0.182450	7.917544	-27.055954	-23.589243
41684		4.433774	0.984934	8.691688	-0.119044	-0.191276	-0.008447	0.032556	-0.069946	0.018018	-0.490479	0.093994	-0.526367	0.044306	0.009839	0.086934	-0.952675	-0.018067	0.242562	0.182339	7.934282	-27.102040	-23.585651
41685		4.515809	1.359422	8.525352	0.143836	0.120342	-0.071691	0.042823	-0.080955	0.015596	-0.484863	0.095459	-0.526123	0.045123	0.013579	0.085275	-0.952576	-0.018171	0.243026	0.182228	7.958233	-27.153695	-23.584539
41686		4.872443	1.220273	8.463109	0.408237	-0.139048	0.019300	0.030326	-0.063882	0.024706	-0.488037	0.087158	-0.519531	0.048696	0.012196	0.084648	-0.952506	-0.018219	0.243402	0.182088	7.971507	-27.196873	-23.576171
41687		4.609544	1.277094	8.499764	0.188562	0.011010	-0.061320	0.022777	-0.063419	0.030254	-0.488525	0.091553	-0.530518	0.046067	0.012768	0.085014	-0.952443	-0.018227	0.243766	0.181929	7.978989	-27.239744	-23.564167
41688		4.864488	1.254733	8.473169	0.394421	-0.099372	0.029403	0.013135	-0.060173	0.037774	-0.485107	0.087891	-0.531982	0.048617	0.012551	0.084747	-0.952391	-0.018180	0.244110	0.181747	7.978433	-27.281864	-23.547132
41689		4.732518	1.206672	8.406619	0.296409	-0.097638	-0.095351	0.004198	-0.046376	0.046500	-0.487549	0.093506	-0.541260	0.047303	0.012076	0.084077	-0.952365	-0.018094	0.244377	0.181532	7.969794	-27.316356	-23.523221
41690		4.719239	1.259157	8.522820	0.244460	-0.033221	0.007409	-0.014618	-0.033293	0.054126	-0.489258	0.088867	-0.534180	0.047175	0.012611	0.085235	-0.952362	-0.017920	0.244570	0.181303	7.947410	-27.344522	-23.493315
41691		4.877869	1.170378	8.371455	0.412371	-0.174961	-0.063637	-0.019706	-0.035385	0.064280	-0.487549	0.092529	-0.533691	0.048760	0.011728	0.083722	-0.952368	-0.017709	0.244764	0.181032	7.919363	-27.374168	-23.457023
41692		5.343137	0.953905	8.222899	0.786071	-0.543515	-0.006476	-0.018793	-0.033249	0.066690	-0.494873	0.098389	-0.542480	0.053415	0.009565	0.082237	-0.952377	-0.017499	0.244954	0.180749	7.890843	-27.403281	-23.419039
41693		4.415243	1.104688	8.690978	-0.142786	-0.043670	-0.003228	-0.020349	-0.023488	0.058541	-0.496338	0.095459	-0.542969	0.044139	0.011069	0.086914	-0.952391	-0.017303	0.245091	0.180504	7.863579	-27.425692	-23.385314
41694		4.495773	1.313984	8.489717	0.085635	0.118274	-0.117715	-0.022170	-0.038806	0.070962	-0.491455	0.097412	-0.541748	0.044937	0.013165	0.084904	-0.952397	-0.017067	0.245304	0.180205	7.832032	-27.458268	-23.345037
41695		4.809436	1.123858	8.573373	0.234532	-0.158254	0.077530	-0.020619	-0.043996	0.075792	-0.500000	0.100098	-0.550781	0.048071	0.011266	0.085743	-0.952402	-0.016830	0.245539	0.179881	7.800299	-27.493633	-23.302030
41696		4.453861	1.214812	8.606168	-0.044728	0.060382	-0.046772	-0.016278	-0.058430	0.075713	-0.501221	0.096680	-0.537109	0.044509	0.012172	0.086074	-0.952388	-0.016598	0.245852	0.179553	7.771440	-27.537681	-23.260364
41697		4.941744	1.151157	8.345411	0.449447	-0.177184	-0.057767	-0.018036	-0.073357	0.085431	-0.497803	0.099365	-0.538818	0.049382	0.011540	0.083471	-0.952364	-0.016335	0.246230	0.179182	7.739421	-27.590419	-23.213668
41698		4.482370	1.121584	8.535058	-0.031254	-0.025398	-0.107267	-0.016843	-0.078785	0.083678	-0.499756	0.102295	-0.541260	0.044785	0.011242	0.085367	-0.952331	-0.016072	0.246639	0.178819	7.708584	-27.646601	-23.168576
41699		4.265820	0.995827	8.627510	-0.301143	-0.054894	-0.141643	-0.005349	-0.093947	0.071439	-0.489258	0.100586	-0.543701	0.042614	0.009976	0.086295	-0.952268	-0.015869	0.247126	0.178500	7.688697	-27.709915	-23.132527
41700		4.949622	1.037423	8.336688	0.398922	-0.263398	-0.073753	-0.004242	-0.100699	0.077702	-0.500000	0.103516	-0.543457	0.049450	0.010395	0.083392	-0.952201	-0.015654	0.247650	0.178152	7.667608	-27.778046	-23.093059
41701		5.150517	0.876848	8.223944	0.553781	-0.482182	-0.097197	-0.008555	-0.103797	0.076262	-0.506348	0.100830	-0.555908	0.051459	0.008792	0.082266	-0.952129	-0.015420	0.248181	0.177815	7.644716	-27.847299	-23.054667
41702		4.812629	1.089808	8.453650	0.230067	-0.144458	-0.028032	-0.007397	-0.104156	0.068552	-0.506348	0.101807	-0.536133	0.048079	0.010918	0.084561	-0.952049	-0.015199	0.248718	0.177513	7.624569	-27.916682	-23.021267
41703		4.790707	1.072321	8.441043	0.203715	-0.146371	-0.051078	-0.014674	-0.090013	0.073521	-0.507324	0.108887	-0.548584	0.047865	0.010747	0.084431	-0.951992	-0.014951	0.249177	0.177196	7.598311	-27.977872	-22.983344
41704		4.534011	1.150802	8.504290	-0.017258	0.027325	-0.106839	-0.017720	-0.085657	0.075129	-0.520508	0.107666	-0.552490	0.045299	0.011533	0.085061	-0.951941	-0.014689	0.249617	0.176875	7.569401	-28.037224	-22.944021
41705		4.981793	1.124021	8.325990	0.416186	-0.153966	-0.055286	-0.029112	-0.087617	0.083169	-0.519775	0.099365	-0.554688	0.049777	0.011273	0.083280	-0.951895	-0.014363	0.250053	0.176529	7.531727	-28.097744	-22.899568
41706		4.871969	1.192347	8.357254	0.327421	-0.040280	-0.071402	-0.040123	-0.084295	0.091824	-0.514404	0.112061	-0.550049	0.048679	0.011963	0.083591	-0.951861	-0.013974	0.250468	0.176156	7.484722	-28.157531	-22.849243
41707		4.667698	1.110880	8.476372	0.070890	-0.028410	-0.072847	-0.048029	-0.085396	0.098833	-0.519775	0.105225	-0.552002	0.046635	0.011152	0.084781	-0.951833	-0.013541	0.250877	0.175760	7.431194	-28.217891	-22.794345
41708		4.789680	1.134527	8.426667	0.195312	-0.038973	-0.055780	-0.054896	-0.088131	0.106176	-0.529297	0.103027	-0.549316	0.047854	0.011394	0.084285	-0.951807	-0.013060	0.251298	0.175337	7.371314	-28.280836	-22.734902
41709		4.512300	0.975972	8.582303	-0.163365	-0.071174	-0.069099	-0.055269	-0.088841	0.102247	-0.523926	0.110596	-0.555176	0.045080	0.009806	0.085840	-0.951777	-0.012585	0.251717	0.174933	7.312528	-28.343305	-22.677884
41710		5.103723	0.828652	8.402827	0.348665	-0.409352	0.038861	-0.047091	-0.097695	0.104315	-0.522705	0.109619	-0.555664	0.050992	0.008333	0.084051	-0.951735	-0.012135	0.252190	0.174510	7.257845	-28.411444	-22.620216
41711		4.466770	0.987337	8.553412	-0.197455	-0.023626	-0.114844	-0.040361	-0.103276	0.088829	-0.526123	0.103027	-0.547607	0.044619	0.009910	0.085555	-0.951673	-0.011735	0.252689	0.174152	7.212081	-28.481056	-22.572851
41712		4.657010	0.929702	8.528231	-0.059176	-0.132574	-0.052477	-0.037217	-0.129084	0.083476	-0.540283	0.104492	-0.555176	0.046511	0.009332	0.085311	-0.951572	-0.011332	0.253319	0.173817	7.170484	-28.565462	-22.531020
41713		4.925996	0.921856	8.417600	0.198876	-0.226768	-0.020841	-0.029955	-0.139663	0.080424	-0.531494	0.110107	-0.557861	0.049197	0.009251	0.084209	-0.951455	-0.010960	0.254000	0.173487	7.134496	-28.655100	-22.491868
41714		4.684936	0.811874	8.448977	-0.060427	-0.236201	-0.120757	-0.025020	-0.156540	0.076631	-0.535156	0.115234	-0.550293	0.046780	0.008147	0.084525	-0.951311	-0.010599	0.254769	0.173171	7.102872	-28.754586	-22.456501
41715		4.960295	0.907743	8.379256	0.213452	-0.232042	-0.038179	-0.025563	-0.171524	0.075853	-0.543457	0.114014	-0.562500	0.049528	0.009107	0.083834	-0.951147	-0.010227	0.255605	0.172859	7.071857	-28.861977	-22.422695
41716		4.677037	0.923114	8.462767	-0.067831	-0.105989	-0.100356	-0.019109	-0.188558	0.070892	-0.549316	0.105469	-0.549561	0.046687	0.009256	0.084671	-0.950955	-0.009874	0.256532	0.172563	7.046454	-28.979235	-22.393439
41717		4.655696	0.879877	8.522073	-0.146562	-0.124212	-0.063920	-0.012330	-0.218828	0.070265	-0.547119	0.107666	-0.557861	0.046461	0.008820	0.085271	-0.950724	-0.009530	0.257603	0.172263	7.026416	-29.113107	-22.366878
41718		5.289247	0.884495	8.171434	0.518311	-0.342947	-0.058484	-0.011862	-0.251262	0.080858	-0.554932	0.097900	-0.553711	0.052786	0.008871	0.081780	-0.950456	-0.009145	0.258833	0.171914	7.004238	-29.266697	-22.335975
41719		4.582788	0.947237	8.536838	-0.236029	-0.010296	-0.080219	-0.011198	-0.268563	0.082936	-0.567383	0.121338	-0.549805	0.045709	0.009496	0.085429	-0.950168	-0.008748	0.260142	0.171553	6.982531	-29.429720	-22.304934
41720		4.746409	1.016960	8.453671	-0.065971	0.008991	-0.064731	-0.009371	-0.291356	0.083194	-0.559326	0.108643	-0.541748	0.047337	0.010193	0.084605	-0.949847	-0.008336	0.261564	0.171190	6.962334	-29.606259	-22.275474
41721		4.825443	0.992087	8.328534	0.024948	-0.035165	-0.136341	-0.007565	-0.308054	0.095587	-0.569580	0.110840	-0.548584	0.048121	0.009947	0.083359	-0.949513	-0.007906	0.263062	0.170766	6.939879	-29.792599	-22.239056
41722		4.899555	0.991728	8.350334	0.044353	-0.042754	-0.080609	-0.007096	-0.330913	0.096878	-0.565918	0.115967	-0.537354	0.048852	0.009944	0.083584	-0.949146	-0.007454	0.264673	0.170336	6.917782	-29.992561	-22.203506
41723		5.043259	0.963426	8.289212	0.150150	-0.104723	-0.063838	-0.006953	-0.355894	0.102215	-0.581055	0.109375	-0.543701	0.050280	0.009663	0.082981	-0.948749	-0.006977	0.266398	0.169880	6.895023	-30.206545	-22.166225
41724		4.612067	1.051140	8.473804	-0.293022	0.149917	-0.113566	-0.011403	-0.353906	0.108861	-0.581299	0.112305	-0.533447	0.045965	0.010541	0.084819	-0.948355	-0.006469	0.268113	0.169399	6.866994	-30.420385	-22.124260
41725		5.001703	1.023806	8.245668	0.093048	-0.002290	-0.114880	-0.016078	-0.379348	0.113662	-0.585205	0.112061	-0.535400	0.049855	0.010273	0.082551	-0.947930	-0.005913	0.269939	0.168900	6.835663	-30.648463	-22.080876
41726		5.337861	0.908508	8.159323	0.333828	-0.206938	-0.028093	-0.017752	-0.398441	0.125657	-0.582031	0.114014	-0.532471	0.053210	0.009126	0.081699	-0.947483	-0.005314	0.271858	0.168348	6.799580	-30.888736	-22.030840
41727		5.167346	0.908661	8.288616	0.094533	-0.120128	-0.004285	-0.024187	-0.421770	0.135039	-0.605713	0.119385	-0.529053	0.051492	0.009131	0.082994	-0.947009	-0.004656	0.273877	0.167759	6.757415	-31.142348	-21.976056
41728		4.999881	0.964424	8.312541	-0.072266	0.010793	-0.064777	-0.027019	-0.448187	0.141138	-0.597412	0.121338	-0.525391	0.049806	0.009691	0.083236	-0.946498	-0.003950	0.276021	0.167145	6.711968	-31.411910	-21.918948
41729		4.969618	0.958758	8.348619	-0.157923	0.041774	-0.051084	-0.032550	-0.471036	0.137422	-0.603027	0.116455	-0.527832	0.049493	0.009635	0.083601	-0.945948	-0.003207	0.278263	0.166555	6.665351	-31.693643	-21.865651
41730		5.323721	0.835241	8.204504	0.115163	-0.174363	0.001060	-0.039791	-0.510071	0.139193	-0.613281	0.116699	-0.520264	0.053022	0.008406	0.082179	-0.945338	-0.002392	0.280686	0.165967	6.614874	-31.998210	-21.813797
41731		5.224555	0.807954	8.271943	-0.053974	-0.136129	0.003224	-0.045877	-0.536429	0.138164	-0.617676	0.111572	-0.507813	0.052018	0.008135	0.082857	-0.944684	-0.001531	0.283222	0.165391	6.562084	-32.317131	-21.764146
41732		5.110123	0.923413	8.347609	-0.198072	0.043999	0.016207	-0.051327	-0.576036	0.138524	-0.625732	0.113281	-0.508301	0.050854	0.009291	0.083620	-0.943965	-0.000608	0.285943	0.164821	6.506926	-32.659123	-21.716806
41733		5.192333	0.923592	8.323530	-0.173283	0.046299	0.039318	-0.060810	-0.601954	0.144605	-0.623779	0.111328	-0.507568	0.051666	0.009299	0.083388	-0.943207	0.000387	0.288771	0.164233	6.444841	-33.015680	-21.666709
41734		5.571342	0.921730	8.107380	0.184234	-0.060955	0.065624	-0.073996	-0.633188	0.159838	-0.639893	0.118164	-0.505859	0.055449	0.009292	0.081246	-0.942404	0.001495	0.291737	0.163591	6.369938	-33.391481	-21.607938
41735		5.297315	0.977192	8.200913	-0.119888	0.120033	-0.002374	-0.084981	-0.663734	0.174967	-0.641846	0.114502	-0.498047	0.052692	0.009853	0.082180	-0.941560	0.002699	0.294830	0.162892	6.283707	-33.785027	-21.540223
41736		5.222547	0.995019	8.212377	-0.238032	0.198155	-0.034556	-0.093343	-0.695886	0.186380	-0.645752	0.128418	-0.491211	0.051930	0.010037	0.082300	-0.940664	0.003988	0.298067	0.162148	6.188423	-34.198041	-21.466028
41737		5.414119	0.996337	8.123165	-0.102797	0.171751	-0.001946	-0.099269	-0.738364	0.202589	-0.658447	0.125732	-0.480469	0.053831	0.010058	0.081426	-0.939705	0.005360	0.301491	0.161334	6.084273	-34.635604	-21.382530
41738		5.423578	0.894431	8.154670	-0.211167	0.118022	0.018629	-0.104937	-0.784707	0.213715	-0.656738	0.123291	-0.479980	0.053906	0.009045	0.081754	-0.938669	0.006816	0.305127	0.160473	5.972791	-35.100639	-21.293258
41739		5.537720	0.690647	8.133373	-0.246397	-0.067053	0.047802	-0.092774	-0.857070	0.224050	-0.669434	0.129883	-0.470703	0.055020	0.007006	0.081567	-0.937515	0.008286	0.309102	0.159538	5.865812	-35.606857	-21.200374
41740		5.552947	0.699178	8.172155	-0.333601	-0.012447	0.086606	-0.092886	-0.921293	0.224641	-0.676514	0.131104	-0.456055	0.055144	0.007092	0.081973	-0.936241	0.009811	0.313376	0.158596	5.759248	-36.150095	-21.109903
41741		5.791883	0.333473	8.293714	-0.422438	-0.365499	0.293245	-0.097292	-1.008562	0.217427	-0.687744	0.131104	-0.448486	0.057496	0.003438	0.083226	-0.934801	0.011412	0.318043	0.157685	5.655258	-36.742020	-21.028824
41742		5.815663	0.561977	8.351510	-0.467305	-0.094224	0.368525	-0.130435	-1.120696	0.201143	-0.696289	0.126465	-0.442627	0.057682	0.005733	0.083835	-0.933140	0.013232	0.323203	0.156892	5.541819	-37.397364	-20.965162
41743		5.514060	1.168429	8.407299	-0.647788	0.634723	0.268431	-0.161109	-1.211067	0.228194	-0.694824	0.134766	-0.432373	0.054617	0.011815	0.084395	-0.931318	0.015307	0.328744	0.156011	5.400854	-38.105102	-20.885818
41744		5.653819	1.397210	8.421399	-0.598390	0.883039	0.370554	-0.204007	-1.307815	0.287408	-0.703369	0.134521	-0.416260	0.055966	0.014139	0.084567	-0.929340	0.017757	0.334686	0.154911	5.209326	-38.871483	-20.766416
41745		5.404102	1.444821	8.747777	-1.089956	1.119461	0.452413	-0.224804	-1.412655	0.342720	-0.713379	0.136719	-0.396484	0.053396	0.014639	0.087840	-0.927181	0.020473	0.341074	0.153571	4.980236	-39.699666	-20.608163
41746		5.322524	1.377105	8.777110	-1.321009	1.169281	0.392638	-0.283246	-1.564944	0.399728	-0.727783	0.142334	-0.383057	0.052509	0.014001	0.088164	-0.924743	0.023676	0.348100	0.152042	4.689829	-40.617451	-20.409994
41747		4.507455	1.908608	9.790097	-2.539145	2.145775	0.615675	-0.342798	-1.805021	0.453929	-0.737061	0.140625	-0.368164	0.044145	0.019355	0.098269	-0.921849	0.027426	0.356153	0.150325	4.338941	-41.673479	-20.175352
41748		4.774099	1.982989	10.436188	-2.930824	2.376215	1.205326	-0.433995	-2.100627	0.536493	-0.743408	0.156982	-0.355469	0.046588	0.020183	0.104812	-0.918378	0.031966	0.365454	0.148333	3.890682	-42.900986	-19.879164
41749		5.408690	1.999777	10.213538	-2.559138	2.355216	1.388444	-0.563253	-2.467433	0.669812	-0.760254	0.159668	-0.322754	0.052754	0.020465	0.102735	-0.914181	0.037607	0.376265	0.145885	3.288239	-44.340562	-19.473870
41750		5.114790	2.439336	10.443206	-3.035597	3.076251	1.254513	-0.661055	-2.852836	0.838231	-0.762939	0.162109	-0.293457	0.049548	0.024950	0.105065	-0.909178	0.044288	0.388660	0.142749	2.510831	-46.002252	-18.912229
41751		5.394627	0.063723	10.848703	-4.124235	1.041622	1.531548	-0.725386	-3.266759	0.929211	-0.770996	0.174072	-0.267822	0.052160	0.001278	0.109345	-0.903178	0.051720	0.402765	0.139195	1.598381	-47.896485	-18.232590
41752		4.685189	-2.036474	9.907535	-4.841041	-0.788674	0.196599	-0.579853	-3.730063	0.960746	-0.779541	0.183350	-0.227783	0.045089	-0.019856	0.099985	-0.895995	0.058864	0.418918	0.135038	0.683177	-50.049079	-17.460320
41753		6.741997	0.185294	10.636902	-3.852321	1.332286	2.103402	-0.516455	-4.148996	0.925265	-0.798340	0.184082	-0.188477	0.065184	0.002435	0.107731	-0.887554	0.065906	0.436823	0.130727	-0.261339	-52.432905	-16.628886
41754		7.185802	1.301050	11.890255	-4.686344	2.894912	3.006486	-0.787264	-4.368802	0.843715	-0.796387	0.199463	-0.144531	0.069182	0.013778	0.120380	-0.878059	0.074085	0.455342	0.127233	-1.419517	-54.933518	-15.751903
41755		7.207836	-1.580122	9.152375	-3.850411	-0.253539	1.291386	-0.722677	-4.630127	0.734355	-0.804443	0.217285	-0.110352	0.069990	-0.015207	0.093216	-0.867450	0.081856	0.474844	0.123907	-2.601635	-57.574729	-14.828652
41756		11.630143	-0.210942	9.218203	-1.770606	0.745170	4.902790	-0.247882	-4.880396	0.611948	-0.799805	0.204834	-0.061768	0.114012	-0.001642	0.094985	-0.855858	0.087386	0.495496	0.119809	-3.575576	-60.352817	-13.858305
41757		11.077146	-0.619161	9.356437	-2.913141	0.747835	4.383894	-0.219686	-4.797873	0.658560	-0.795898	0.219727	-0.019531	0.108504	-0.005727	0.096192	-0.843998	0.092807	0.515495	0.115407	-4.771939	-63.071872	-12.643105
41758		12.417208	-1.024151	8.568384	-2.414298	0.280250	5.110538	0.152018	-4.782015	0.572808	-0.800293	0.210449	0.029785	0.122105	-0.009956	0.088612	-0.831807	0.096377	0.535380	0.110348	-5.899829	-65.774190	-11.296684
41759		11.887401	1.079752	8.868642	-2.939923	2.650310	4.519836	0.436888	-4.648290	0.492854	-0.802002	0.207764	0.068359	0.116743	0.010889	0.091440	-0.819595	0.098418	0.554600	0.104861	-7.021769	-68.393687	-9.807278
41760		9.995970	2.149949	8.645147	-3.723091	3.919237	2.435873	0.457276	-4.509043	0.598449	-0.787109	0.225342	0.100342	0.097912	0.021593	0.088724	-0.807394	0.100544	0.572909	0.098896	-8.624335	-70.911403	-7.819228
41761		7.916576	1.347095	6.836222	-3.459925	2.894807	-0.281107	0.435517	-4.423883	0.745952	-0.783203	0.226563	0.139648	0.077577	0.013611	0.070120	-0.795081	0.103085	0.590494	0.092391	-11.022396	-73.341423	-5.038085
41762		7.891618	1.203286	6.639568	-3.728861	2.832415	-0.546348	0.592300	-4.309286	0.793071	-0.771484	0.234863	0.165039	0.077413	0.012142	0.068110	-0.782812	0.105037	0.607376	0.085248	-14.229982	-75.657062	-1.358117
41763		7.181938	0.616816	8.183704	-5.863967	2.778573	-1.048417	0.834965	-3.789572	0.849805	-0.763672	0.237061	0.200684	0.070225	0.006123	0.083203	-0.771925	0.105944	0.622029	0.077381	-18.280814	-77.611495	3.296376
41764		17.472876	3.288001	15.665771	-10.462377	7.514248	10.076394	1.029533	-2.273329	0.941847	-0.750488	0.248291	0.202393	0.172777	0.032883	0.158798	-0.765672	0.105769	0.630676	0.069334	-22.251745	-78.651589	7.956524
41765		11.290843	7.222746	14.387164	-9.813872	10.884317	3.296828	0.801275	-0.362034	0.765230	-0.752441	0.256348	0.207275	0.112371	0.072080	0.144364	-0.765180	0.105237	0.631956	0.063687	-24.215890	-78.673829	10.427900
41766		5.062489	7.728418	10.782082	-7.502891	10.290205	-3.533465	0.017056	0.664752	0.643061	-0.747803	0.259277	0.195557	0.050734	0.077438	0.107659	-0.767464	0.106987	0.629101	0.061523	-25.070053	-78.178014	11.309879
41767		1.689028	5.260199	7.508182	-5.571427	7.004797	-7.207566	-0.653403	0.985067	0.525832	-0.739502	0.262207	0.186279	0.017120	0.052892	0.074825	-0.770332	0.110842	0.624858	0.062088	-25.593628	-77.543520	11.462408
41768		1.005770	2.295922	5.788553	-4.717462	3.724512	-7.898727	-0.819169	1.010473	0.324724	-0.746582	0.263672	0.171875	0.010312	0.023213	0.057739	-0.773098	0.114690	0.620544	0.063957	-25.699980	-76.944947	11.090481
41769		1.333982	0.885906	5.321501	-4.499774	2.293175	-7.494123	-0.573113	1.018437	0.050949	-0.745117	0.259521	0.159180	0.013608	0.009015	0.053120	-0.775907	0.116735	0.616417	0.066122	-25.088351	-76.409812	10.124414
41770		1.949777	1.135443	5.373511	-4.306623	2.588634	-6.860216	-0.233472	1.098598	-0.209757	-0.750000	0.253174	0.150146	0.019804	0.011396	0.053614	-0.779054	0.116624	0.612216	0.068297	-23.725329	-75.890009	8.583132
41771		2.465481	2.268313	5.791877	-4.249092	3.806013	-6.315755	-0.057360	1.234472	-0.395278	-0.759521	0.253662	0.135742	0.025056	0.022650	0.057758	-0.782623	0.115212	0.607638	0.070732	-21.880102	-75.330277	6.644164
41772		2.792778	2.845371	6.206075	-4.353858	4.467526	-5.876289	-0.093985	1.411671	-0.504972	-0.762451	0.241455	0.121338	0.028437	0.028411	0.061848	-0.786638	0.113537	0.602380	0.073807	-19.849608	-74.681129	4.486765
41773		3.087950	2.489173	6.493430	-4.561270	4.189843	-5.392889	-0.187519	1.631152	-0.582822	-0.760010	0.245117	0.096680	0.031480	0.024861	0.064656	-0.791175	0.111913	0.596236	0.077588	-17.763837	-73.908602	2.208490
41774		3.413502	1.938376	6.741505	-4.750813	3.707527	-4.858984	-0.212096	1.883829	-0.669491	-0.761475	0.237305	0.083008	0.034833	0.019339	0.067069	-0.796355	0.110013	0.589072	0.081921	-15.605446	-72.988220	-0.169446
41775		3.596844	1.517333	6.799157	-4.751462	3.285991	-4.512558	-0.165449	2.150107	-0.741567	-0.762451	0.228760	0.069336	0.036753	0.015094	0.067587	-0.802217	0.107600	0.580846	0.086540	-13.424727	-71.906581	-2.556030
41776		3.766134	1.323765	6.819837	-4.644790	3.057997	-4.198634	-0.074785	2.400923	-0.791699	-0.758057	0.225098	0.029297	0.038528	0.013112	0.067734	-0.808726	0.104547	0.571587	0.091220	-11.288868	-70.663090	-4.855713
41777		3.852087	1.283674	6.703333	-4.383198	2.925877	-4.012339	0.028293	2.628766	-0.820168	-0.765137	0.228271	0.015625	0.039450	0.012667	0.066521	-0.815779	0.100880	0.561379	0.095823	-9.267510	-69.269414	-6.989900
41778		3.959808	1.342202	6.670281	-4.147567	2.895695	-3.780905	0.113936	2.827319	-0.834504	-0.758301	0.211182	-0.020508	0.040591	0.013216	0.066141	-0.823268	0.096701	0.550285	0.100325	-7.402402	-67.738958	-8.923531
41779		4.180531	1.326092	6.711787	-3.938060	2.792440	-3.411734	0.192891	2.998692	-0.832853	-0.763672	0.210693	-0.047119	0.042860	0.013020	0.066493	-0.831071	0.092100	0.538409	0.104662	-5.718340	-66.091132	-10.633924
41780		4.395731	1.267037	6.803996	-3.763401	2.643531	-3.025588	0.279976	3.160501	-0.837506	-0.751709	0.195068	-0.074219	0.045078	0.012389	0.067351	-0.839143	0.087010	0.525760	0.108833	-4.181924	-64.331408	-12.148773
41781		4.597387	1.464029	6.994086	-3.584382	2.748556	-2.616354	0.362924	3.292466	-0.836228	-0.745117	0.195313	-0.110352	0.047177	0.014319	0.069197	-0.847357	0.081486	0.512466	0.112807	-2.788474	-62.482145	-13.474421
41782		4.883436	1.482221	7.259586	-3.452387	2.671906	-2.087386	0.418153	3.407707	-0.829678	-0.740234	0.184814	-0.142578	0.050123	0.014465	0.071780	-0.855645	0.075648	0.498545	0.116624	-1.535120	-60.551834	-14.626946
41783		5.254649	1.379136	7.610339	-3.349107	2.465183	-1.438483	0.489578	3.517954	-0.825295	-0.723145	0.171387	-0.169434	0.053930	0.013386	0.075196	-0.863955	0.069435	0.484046	0.120249	-0.391405	-58.549014	-15.628154
41784		5.751643	1.352609	8.015580	-3.161638	2.296065	-0.654037	0.577792	3.633387	-0.823511	-0.722412	0.177002	-0.195313	0.059015	0.013056	0.079131	-0.872288	0.062743	0.468921	0.123652	0.674876	-56.468796	-16.498916
41785		6.346414	1.384842	8.447021	-2.872687	2.135615	0.223216	0.676925	3.758902	-0.819716	-0.713379	0.151855	-0.230713	0.065092	0.013301	0.083303	-0.880621	0.055535	0.453150	0.126800	1.680361	-54.310491	-17.249255
41786		6.949033	1.580741	8.901050	-2.489379	2.092118	1.115485	0.767359	3.878959	-0.838950	-0.696777	0.150879	-0.261475	0.071264	0.015173	0.087699	-0.888888	0.047818	0.436716	0.129888	2.651980	-52.074030	-17.922677
41787		7.379815	1.779244	9.336308	-2.128953	2.034669	1.853538	0.824765	4.004288	-0.883360	-0.669434	0.141113	-0.280518	0.075725	0.017080	0.091931	-0.897042	0.039616	0.419609	0.132947	3.594245	-49.760142	-18.527679
41788		7.732809	1.931737	9.759159	-1.763341	1.906594	2.516164	0.853086	4.090161	-0.952567	-0.651611	0.135254	-0.312744	0.079393	0.018531	0.096062	-0.904931	0.031093	0.401943	0.136293	4.514388	-47.386410	-19.111901
41789		8.154339	1.872627	10.076668	-1.287267	1.505789	3.132887	0.861008	4.136337	-1.027018	-0.637207	0.115479	-0.340088	0.083698	0.017871	0.099129	-0.912446	0.022311	0.383917	0.139825	5.406417	-44.978994	-19.664351
41790		8.579590	1.603126	10.425200	-0.842356	0.872503	3.728501	0.867275	4.157053	-1.095199	-0.626709	0.110840	-0.372314	0.088023	0.015106	0.102505	-0.919516	0.013367	0.365610	0.143673	6.271168	-42.548076	-20.204984
41791		9.064990	1.260432	10.750209	-0.319754	0.117873	4.300481	0.882567	4.151768	-1.137919	-0.611328	0.090576	-0.389648	0.092924	0.011611	0.105641	-0.926109	0.004248	0.347182	0.147540	7.103946	-40.114049	-20.700175
41792		9.435747	0.734992	10.879607	0.227906	-0.829299	4.580599	0.905530	4.113194	-1.147207	-0.589111	0.067871	-0.418457	0.096607	0.006313	0.106855	-0.932180	-0.004947	0.328769	0.151420	7.902185	-37.694021	-21.153853
41793		9.756067	0.126401	11.065147	0.690658	-1.849475	4.805914	0.958310	4.022628	-1.121519	-0.588623	0.054443	-0.444824	0.099763	0.000185	0.108662	-0.937691	-0.014297	0.310681	0.154945	8.677090	-35.325131	-21.533348
41794		10.574330	-0.083463	11.539807	1.487132	-2.636444	5.542847	1.025741	3.913705	-1.075455	-0.570313	0.050049	-0.471191	0.107965	-0.001996	0.113291	-0.942651	-0.023809	0.293004	0.158087	9.439839	-33.015984	-21.843777
41795		11.476238	0.008317	11.822648	2.579420	-3.204578	6.140934	1.067913	3.841746	-1.030689	-0.555176	0.036133	-0.485840	0.117001	-0.001139	0.115989	-0.947125	-0.033378	0.275595	0.160897	10.181385	-30.750829	-22.089235
41796		11.934554	0.227455	11.739678	3.575993	-3.535341	6.155426	1.044833	3.785431	-1.002693	-0.539063	0.016602	-0.531006	0.121546	0.001063	0.115118	-0.951144	-0.042726	0.258312	0.163632	10.877274	-28.515792	-22.294728
41797		12.217485	0.501366	11.339150	4.597457	-3.742668	5.773026	0.974634	3.688923	-0.995600	-0.518555	0.006592	-0.542480	0.124260	0.003853	0.111133	-0.954689	-0.051651	0.241342	0.166296	11.514006	-26.336059	-22.464732
41798		12.500935	0.807505	10.669665	5.721126	-3.881397	5.118438	0.848681	3.547984	-0.991729	-0.497803	-0.010010	-0.574463	0.126913	0.007002	0.104488	-0.957734	-0.059821	0.224841	0.169152	12.067971	-24.232401	-22.632149
41799		12.919537	1.226876	9.882005	6.993342	-3.909949	4.394733	0.695111	3.369262	-0.994947	-0.479248	-0.023193	-0.608887	0.130894	0.011282	0.096665	-0.960309	-0.067102	0.209000	0.172110	12.529548	-22.229192	-22.792721
41800		13.533445	1.269942	9.225814	8.206999	-4.324839	3.744524	0.544410	3.163438	-1.020122	-0.464844	-0.037109	-0.609619	0.136833	0.011757	0.090135	-0.962412	-0.073495	0.193932	0.175362	12.909096	-20.335022	-22.977995
41801		14.484403	-0.536371	8.511953	9.100877	-6.548985	2.709274	0.500376	2.972117	-1.133178	-0.441650	-0.050293	-0.631592	0.146053	-0.006398	0.082940	-0.963983	-0.079591	0.179666	0.179225	13.283375	-18.533632	-23.241356
41802		15.538454	-2.428583	7.796515	9.970201	-8.879587	1.582479	0.606726	2.828980	-1.312438	-0.429932	-0.057373	-0.651123	0.156301	-0.025541	0.075682	-0.964979	-0.086218	0.166056	0.183867	13.744004	-16.784693	-23.612885
41803		15.564041	-1.839041	6.651651	10.812338	-8.477319	0.240744	0.559118	2.712498	-1.368827	-0.406494	-0.079102	-0.660156	0.156391	-0.019641	0.064345	-0.965609	-0.092529	0.152912	0.188826	14.175145	-15.091547	-24.016494
41804		15.681637	-0.241185	5.132562	12.138541	-7.100377	-1.179197	0.171859	2.544458	-1.305270	-0.394287	-0.084717	-0.668701	0.157432	-0.003481	0.049323	-0.966138	-0.096746	0.140199	0.193811	14.367281	-13.497424	-24.395351
41805		15.304626	-0.345091	3.330822	12.464358	-6.965766	-3.366794	-0.404221	2.351344	-1.154126	-0.378174	-0.090088	-0.687012	0.153401	-0.004271	0.031514	-0.966772	-0.097865	0.127916	0.198526	14.205892	-12.032975	-24.713498
41806		15.256970	-2.729069	1.563769	12.145822	-8.963150	-5.965637	-0.629897	2.097474	-1.034685	-0.362305	-0.093750	-0.699463	0.152579	-0.028034	0.014125	-0.967318	-0.097551	0.116669	0.202900	13.902386	-10.726727	-25.004236
41807		15.225631	-3.652166	-0.165095	12.242997	-9.617056	-8.139485	-0.430116	1.780073	-0.885237	-0.353271	-0.092285	-0.702148	0.152070	-0.037200	-0.002925	-0.967612	-0.097780	0.107223	0.206564	13.700930	-9.619576	-25.259389
41808		15.393582	-3.197498	-1.614067	12.904192	-9.123701	-9.648722	-0.139000	1.399696	-0.596046	-0.336670	-0.100098	-0.711914	0.153722	-0.032445	-0.017195	-0.967782	-0.098863	0.100049	0.208843	13.644540	-8.763543	-25.405347
41809		15.490861	-3.335904	-2.576474	13.150691	-9.156652	-10.785378	0.096975	0.985288	-0.198045	-0.335693	-0.096924	-0.704102	0.154746	-0.033500	-0.026544	-0.968002	-0.100450	0.095321	0.209274	13.696855	-8.192502	-25.383835
41810		15.117348	-3.363065	-3.023213	12.915817	-8.925527	-11.393871	0.294865	0.519768	0.131721	-0.331299	-0.102051	-0.713135	0.151116	-0.033486	-0.030674	-0.968230	-0.102349	0.093219	0.208245	13.845509	-7.925589	-25.240130
41811		14.576572	-2.373559	-2.309188	12.677678	-7.881692	-10.585823	0.368469	0.038235	0.322978	-0.326904	-0.103027	-0.720703	0.145799	-0.023458	-0.023163	-0.968387	-0.104013	0.093621	0.206501	14.031031	-7.953206	-25.055386
41812		13.880144	-1.011519	-0.886669	12.273623	-6.564302	-8.955124	0.208378	-0.394819	0.343355	-0.326172	-0.103027	-0.705811	0.138836	-0.009868	-0.008603	-0.968439	-0.104443	0.095968	0.204957	14.131196	-8.225271	-24.920267
41813		13.293022	0.091862	0.811359	11.772508	-5.586003	-7.060426	-0.106273	-0.725624	0.230227	-0.337158	-0.098877	-0.706299	0.132898	0.001076	0.008595	-0.968370	-0.103065	0.099530	0.204281	14.066555	-8.664931	-24.895255
41814		1.685176	6.868346	11.275149	1.387795	3.749019	2.882112	-1.000402	-1.369145	0.320651	-0.340332	-0.088867	-0.692139	0.015970	0.069273	0.112517	-0.968489	-0.096648	0.105345	0.203936	13.494795	-9.475752	-24.905867
41815		-11.274638	7.691727	16.802933	-11.375061	9.314124	6.076235	-1.149588	-1.634488	0.473849	-0.358643	-0.070801	-0.695557	-0.114295	0.077608	0.166655	-0.968610	-0.089152	0.112349	0.203037	12.827377	-10.453788	-24.855827
41816		-9.563520	2.078445	6.266691	-9.379383	5.078653	-5.199521	-0.602748	-2.110838	0.249840	-0.371094	-0.065186	-0.679199	-0.096315	0.020851	0.061590	-0.967881	-0.083935	0.122108	0.203105	12.506811	-11.670172	-24.985709
41817		0.669726	0.342562	3.616121	-0.303562	-0.343855	-6.147891	-0.600556	-3.072020	0.006583	-0.391602	-0.070313	-0.665527	0.006141	0.003535	0.036248	-0.966138	-0.077887	0.136391	0.204714	12.246058	-13.394572	-25.370218
41818		9.679540	-0.023507	13.340355	4.352850	-5.211091	5.205144	-0.609464	-3.011925	-0.008553	-0.402344	-0.051025	-0.657715	0.094772	0.000170	0.134841	-0.964191	-0.071847	0.150339	0.206330	11.990349	-15.085674	-25.750823
41819		6.136090	-2.458374	11.873213	0.482020	-5.614596	2.552697	-0.546176	-2.464901	0.295897	-0.417969	-0.053467	-0.633301	0.059927	-0.024169	0.119543	-0.962754	-0.066435	0.161791	0.206193	11.712933	-16.507040	-25.881639
41820		3.558618	-4.891949	10.223129	-2.338038	-6.472667	-0.130764	-0.420867	-2.568282	0.670690	-0.438965	-0.041992	-0.631592	0.034432	-0.048587	0.102781	-0.961411	-0.061202	0.173972	0.204149	11.446904	-18.030771	-25.798647
41821		6.896589	-2.564570	10.385339	1.096582	-5.586092	1.570635	-0.230076	-2.555783	0.857495	-0.461914	-0.028809	-0.597656	0.067740	-0.025233	0.104753	-0.960037	-0.056729	0.186307	0.201000	11.249684	-19.567561	-25.595996
41822		7.436967	2.646464	11.056202	2.932940	-0.893353	3.421402	-0.183044	-2.471978	0.830225	-0.463379	-0.029053	-0.593750	0.072885	0.026871	0.111445	-0.958528	-0.052576	0.198252	0.197878	11.073776	-21.054299	-25.392590
41823		9.141579	5.514159	10.916839	5.170167	1.264117	4.498566	-0.456844	-2.260983	0.833465	-0.487061	-0.016846	-0.572754	0.089943	0.055769	0.110064	-0.957150	-0.047312	0.208878	0.194925	10.723288	-22.421070	-25.153256
41824		10.257585	4.193452	10.854947	5.408013	-0.174607	4.725107	-0.501630	-1.947501	0.592229	-0.490967	-0.000244	-0.556152	0.101388	0.042510	0.109434	-0.955748	-0.042381	0.217882	0.193074	10.381351	-23.585406	-25.014720
41825		11.642396	4.356771	11.699623	6.041127	-0.363093	6.148976	-0.668686	-1.518627	0.400866	-0.500000	0.002686	-0.547363	0.115444	0.044193	0.117728	-0.954577	-0.037274	0.224609	0.192210	9.966581	-24.486823	-24.937250
41826		10.947690	1.454662	11.320659	4.486340	-2.608839	5.126833	-0.727672	-0.871271	0.355882	-0.501709	0.001953	-0.544434	0.108956	0.015154	0.113628	-0.954047	-0.032553	0.228176	0.191496	9.496347	-25.018722	-24.810718
41827		7.613904	-0.303646	9.652287	1.811887	-2.887578	2.002915	-0.559903	-0.597884	0.224305	-0.517334	0.006592	-0.532227	0.075853	-0.002681	0.096758	-0.953651	-0.029047	0.230565	0.191169	9.142625	-25.382019	-24.733585
41828		7.624605	-0.358767	9.782214	1.707361	-2.862269	2.139173	-0.407953	-0.377570	0.155272	-0.521240	0.016846	-0.530029	0.076064	-0.003329	0.097973	-0.953407	-0.026550	0.232044	0.190961	8.883548	-25.615176	-24.675591
41829		5.739630	0.223129	8.925701	0.734625	-1.595038	0.655230	-0.292619	-0.258976	0.120073	-0.512207	0.024902	-0.522217	0.057279	0.002396	0.089328	-0.953247	-0.024762	0.233053	0.190770	8.694734	-25.776787	-24.626982
41830		5.402034	0.335063	8.904829	0.492319	-1.330214	0.510988	-0.222115	-0.227849	0.071730	-0.518799	0.022949	-0.523438	0.053918	0.003469	0.089106	-0.953063	-0.023391	0.233983	0.190723	8.557621	-25.917661	-24.605357
41831		5.273175	0.287427	9.028224	0.301295	-1.295562	0.561729	-0.130457	-0.157073	0.057511	-0.519775	0.031494	-0.520752	0.052660	0.002948	0.090322	-0.952938	-0.022545	0.234652	0.190628	8.474143	-26.016010	-24.585593
41832		4.853634	0.854632	8.721025	0.288090	-0.612400	0.181631	-0.053574	-0.116498	0.039454	-0.523193	0.031738	-0.512451	0.048484	0.008579	0.087236	-0.952815	-0.022100	0.235210	0.190607	8.437625	-26.091034	-24.583376
41833		4.562514	1.203910	8.713254	0.168092	-0.172009	0.093315	-0.020652	-0.095734	0.024961	-0.513672	0.029053	-0.515137	0.045582	0.012054	0.087153	-0.952718	-0.021874	0.235688	0.190531	8.423449	-26.151857	-24.578230
41834		4.085168	1.210134	8.671987	-0.209090	0.015553	-0.152852	-0.000721	-0.085210	0.030061	-0.518799	0.031738	-0.517578	0.040813	0.012108	0.086737	-0.952633	-0.021742	0.236144	0.190406	8.418477	-26.208370	-24.568954
41835		4.570845	1.554443	8.518064	0.370604	0.150291	-0.029723	0.006267	-0.087997	0.031424	-0.525635	0.034668	-0.507568	0.045669	0.015549	0.085201	-0.952547	-0.021644	0.236611	0.190266	8.417581	-26.265350	-24.558981
41836		4.330347	1.574422	8.454170	0.202771	0.260102	-0.190061	-0.003575	-0.072535	0.046184	-0.513916	0.034668	-0.506592	0.043269	0.015756	0.084557	-0.952492	-0.021492	0.237005	0.190066	8.405910	-26.316035	-24.538306
41837		4.481427	1.351965	8.569943	0.187461	0.008365	-0.049506	-0.000576	-0.073154	0.046665	-0.522705	0.043945	-0.507813	0.044780	0.013530	0.085716	-0.952439	-0.021357	0.237397	0.189860	8.396173	-26.365875	-24.517280
41838		4.808240	1.033243	8.183460	0.511758	-0.422483	-0.288225	0.000522	-0.091618	0.042979	-0.521729	0.045166	-0.499512	0.048043	0.010343	0.081857	-0.952357	-0.021210	0.237886	0.189673	8.388496	-26.427112	-24.500377
41839		4.939287	0.958592	8.666708	0.361535	-0.511684	0.189050	0.005887	-0.072349	0.034171	-0.506348	0.043701	-0.499023	0.049360	0.009592	0.086685	-0.952292	-0.021122	0.238278	0.189519	8.385900	-26.475448	-24.487151
41840		4.296218	1.242734	8.626509	-0.052926	-0.007523	-0.095915	0.009859	-0.099977	0.025652	-0.518555	0.047363	-0.499023	0.042917	0.012429	0.086287	-0.952183	-0.021031	0.238814	0.189403	8.388769	-26.539998	-24.481979
41841		4.945194	1.179606	8.480854	0.511719	-0.309690	0.057142	0.000745	-0.082185	0.033583	-0.506104	0.053955	-0.500488	0.049415	0.011804	0.084829	-0.952105	-0.020910	0.239248	0.189259	8.383775	-26.593859	-24.470032
41842		4.487307	1.350184	8.720164	0.079751	0.034941	0.086433	-0.001602	-0.079717	0.028911	-0.506348	0.044189	-0.494385	0.044836	0.013509	0.087219	-0.952024	-0.020780	0.239677	0.189139	8.378284	-26.647210	-24.460886
41843		4.179562	1.288199	8.745866	-0.211979	0.096831	-0.037000	0.005064	-0.075031	0.034360	-0.502441	0.052246	-0.497314	0.041761	0.012887	0.087475	-0.951955	-0.020686	0.240081	0.188985	8.375214	-26.697080	-24.447757
41844		5.069950	1.102561	8.561496	0.525532	-0.409057	0.176093	-0.006453	-0.072984	0.050950	-0.504883	0.050293	-0.491699	0.050665	0.011041	0.085633	-0.951902	-0.020513	0.240476	0.188766	8.360345	-26.748453	-24.423971
41845		4.739925	1.339395	8.529598	0.348412	-0.063350	0.030559	-0.007337	-0.062858	0.055886	-0.500488	0.055664	-0.505615	0.047369	0.013410	0.085310	-0.951869	-0.020345	0.240812	0.188523	8.343467	-26.793208	-24.396003
41846		4.667469	1.240859	8.405573	0.307197	-0.128070	-0.124144	-0.017306	-0.060908	0.071378	-0.493652	0.060547	-0.492676	0.046645	0.012433	0.084069	-0.951851	-0.020107	0.241141	0.188218	8.315954	-26.839438	-24.358060
41847		4.829553	1.378471	8.519979	0.428503	-0.046679	0.068052	-0.022792	-0.058665	0.071600	-0.500000	0.057861	-0.491699	0.048266	0.013812	0.085212	-0.951839	-0.019850	0.241444	0.187918	8.285462	-26.883093	-24.319649
41848		4.698662	1.239928	8.587015	0.237943	-0.116015	0.050456	-0.020407	-0.048895	0.083611	-0.492188	0.060791	-0.502930	0.046960	0.012428	0.085880	-0.951847	-0.019594	0.241715	0.187558	8.252061	-26.923500	-24.272735
41849		4.434443	1.162956	8.476594	0.044180	-0.089084	-0.176323	-0.023347	-0.048331	0.083105	-0.494873	0.058105	-0.503662	0.044319	0.011658	0.084775	-0.951857	-0.019330	0.241969	0.187203	8.217417	-26.962201	-24.225971
41850		4.478844	1.133065	8.644782	-0.012160	-0.116517	-0.011544	-0.025143	-0.036203	0.084989	-0.488770	0.062256	-0.506592	0.044768	0.011361	0.086454	-0.951882	-0.019062	0.242175	0.186840	8.180278	-26.995482	-24.176929
41851		4.227743	1.174904	8.709862	-0.235836	0.024388	-0.062832	-0.013556	-0.051626	0.075607	-0.491211	0.070801	-0.504883	0.042250	0.011771	0.087109	-0.951880	-0.018851	0.242453	0.186509	8.153459	-27.035392	-24.135158
41852		4.660611	1.218530	8.508629	0.220644	-0.097212	-0.037989	-0.010479	-0.051844	0.073384	-0.481201	0.069092	-0.516602	0.046580	0.012207	0.085098	-0.951873	-0.018651	0.242746	0.186185	8.128632	-27.076560	-24.094856
41853		4.746498	1.185767	8.406144	0.322739	-0.157547	-0.093143	-0.023935	-0.054366	0.078535	-0.496094	0.070068	-0.507813	0.047437	0.011886	0.084073	-0.951871	-0.018385	0.243028	0.185853	8.095043	-27.118225	-24.051394
41854		4.702994	1.099673	8.291480	0.306959	-0.220222	-0.224500	-0.023091	-0.057264	0.086929	-0.492432	0.072266	-0.513428	0.047001	0.011027	0.082927	-0.951870	-0.018104	0.243335	0.185480	8.059181	-27.163533	-24.002865
41855		5.530840	1.291706	8.179254	1.094642	-0.338618	0.079025	-0.031812	-0.051507	0.094106	-0.493408	0.067871	-0.517334	0.055281	0.012956	0.081805	-0.951887	-0.017784	0.243598	0.185083	8.016323	-27.204773	-23.949121
41856		4.341682	1.257048	8.435316	-0.008064	0.081988	-0.243041	-0.030825	-0.048978	0.093823	-0.490479	0.066895	-0.519531	0.043390	0.012604	0.084362	-0.951902	-0.017465	0.243860	0.184686	7.973561	-27.245897	-23.895344
41857		4.575974	1.176217	8.565343	0.089971	-0.060968	-0.031261	-0.040967	-0.051903	0.106021	-0.490234	0.072998	-0.527832	0.045731	0.011804	0.085663	-0.951929	-0.017087	0.244116	0.184244	7.921867	-27.288231	-23.833916
41858		4.429572	1.204137	8.562678	-0.021982	0.027452	-0.097273	-0.036797	-0.053314	0.101466	-0.498047	0.078613	-0.527832	0.044267	0.012080	0.085636	-0.951947	-0.016726	0.244394	0.183818	7.873491	-27.332341	-23.775520
41859		4.045610	1.241584	8.765653	-0.421163	0.220789	-0.090597	-0.026872	-0.057242	0.105903	-0.505615	0.077148	-0.531250	0.040424	0.012449	0.087666	-0.951965	-0.016410	0.244689	0.183359	7.829982	-27.377606	-23.714510
41860		4.525519	1.210460	8.506243	0.076012	0.014668	-0.102090	-0.031739	-0.062272	0.108575	-0.491211	0.084229	-0.534180	0.045222	0.012143	0.085075	-0.951977	-0.016057	0.245014	0.182894	7.782628	-27.427267	-23.652225
41861		4.687637	1.033417	8.490730	0.150159	-0.199245	-0.062193	-0.029207	-0.064462	0.110475	-0.503906	0.082275	-0.539307	0.046843	0.010372	0.084921	-0.951990	-0.015717	0.245341	0.182416	7.736568	-27.476896	-23.588783
41862		4.791254	1.100238	8.306815	0.338804	-0.174541	-0.167764	-0.028064	-0.070306	0.111408	-0.495361	0.083008	-0.541748	0.047877	0.011041	0.083083	-0.951993	-0.015370	0.245708	0.181934	7.690632	-27.531256	-23.525231
41863		4.673164	1.029134	8.500346	0.121545	-0.177143	-0.060390	-0.029552	-0.075338	0.118431	-0.508545	0.087402	-0.545410	0.046694	0.010332	0.085020	-0.951999	-0.015009	0.246087	0.181419	7.642275	-27.587578	-23.457479
41864		4.656072	1.159827	8.580069	0.107712	-0.033187	0.017322	-0.032317	-0.083158	0.119131	-0.510010	0.076416	-0.543701	0.046518	0.011640	0.085818	-0.951993	-0.014621	0.246512	0.180906	7.591919	-27.649742	-23.389908
41865		4.307957	0.958236	8.556128	-0.239449	-0.089526	-0.188827	-0.022092	-0.103901	0.125945	-0.510498	0.087158	-0.550537	0.043029	0.009619	0.085583	-0.951969	-0.014260	0.247034	0.180349	7.546508	-27.722752	-23.319583
41866		4.550368	1.221103	8.627383	0.002434	0.086986	0.016916	-0.018710	-0.120937	0.126096	-0.521484	0.084229	-0.546143	0.045444	0.012248	0.086300	-0.951920	-0.013894	0.247651	0.179788	7.503103	-27.806804	-23.250538
41867		4.529932	1.172591	8.665785	-0.060447	0.063354	0.035327	-0.016375	-0.146549	0.137768	-0.521973	0.083984	-0.545654	0.045228	0.011764	0.086690	-0.951852	-0.013508	0.248381	0.179170	7.458805	-27.904828	-23.175978
41868		4.537097	1.148701	8.503350	0.000753	0.042252	-0.106508	-0.027669	-0.178607	0.145973	-0.523682	0.094482	-0.553955	0.045287	0.011532	0.085072	-0.951748	-0.013022	0.249266	0.178529	7.406194	-28.023020	-23.098704
41869		4.731022	1.193820	8.544548	0.137170	0.037160	0.025850	-0.043856	-0.210757	0.183552	-0.526123	0.098877	-0.550537	0.047209	0.012000	0.085493	-0.951640	-0.012391	0.250279	0.177731	7.334333	-28.160766	-22.999626
41870		4.691877	1.153942	8.517158	0.085600	0.033363	-0.020918	-0.063325	-0.264215	0.213126	-0.530273	0.088135	-0.546631	0.046794	0.011616	0.085230	-0.951487	-0.011576	0.251542	0.176819	7.243537	-28.332327	-22.885551
41871		4.798344	0.886691	8.600444	0.019017	-0.222387	0.073061	-0.055288	-0.326840	0.248426	-0.539551	0.086426	-0.548584	0.047832	0.008950	0.086080	-0.951285	-0.010705	0.253101	0.175733	7.148764	-28.540450	-22.753215
41872		4.265481	1.073828	8.958022	-0.557346	0.187006	0.149631	-0.039592	-0.426679	0.259463	-0.549316	0.086670	-0.551514	0.042450	0.010811	0.089669	-0.950958	-0.009801	0.255158	0.174579	7.062173	-28.807349	-22.621143
41873		4.574787	0.664105	8.615708	-0.315216	-0.295948	-0.044732	-0.035446	-0.517448	0.251835	-0.553223	0.095703	-0.541504	0.045516	0.006714	0.086274	-0.950504	-0.008854	0.257637	0.173458	6.983342	-29.123748	-22.500463
41874		4.212631	0.848020	8.838083	-0.705346	0.045416	-0.010788	-0.023327	-0.570382	0.243572	-0.557617	0.102295	-0.542236	0.041864	0.008542	0.088499	-0.949947	-0.007899	0.260386	0.172445	6.914656	-29.470947	-22.398532
41875		4.426958	0.688984	8.717334	-0.578169	-0.152629	-0.029711	-0.016625	-0.638383	0.231171	-0.564453	0.092773	-0.535156	0.043983	0.006948	0.087313	-0.949298	-0.006963	0.263450	0.171400	6.855911	-29.854464	-22.299237
41876		4.846889	0.629384	8.536391	-0.229886	-0.328011	0.015719	-0.005840	-0.699726	0.212774	-0.576416	0.093506	-0.530518	0.048163	0.006348	0.085533	-0.948523	-0.006020	0.266821	0.170511	6.810332	-30.272930	-22.226054
41877		4.647078	0.866479	8.638067	-0.430966	0.002041	0.024798	-0.003040	-0.742703	0.206375	-0.578857	0.093262	-0.531982	0.046141	0.008714	0.086552	-0.947689	-0.005091	0.270384	0.169564	6.769795	-30.713976	-22.149755
41878		5.027117	0.829685	8.355596	-0.065338	-0.143959	-0.027457	-0.006928	-0.802245	0.204919	-0.586426	0.099609	-0.522217	0.049927	0.008351	0.083756	-0.946740	-0.004065	0.274231	0.168711	6.728521	-31.190133	-22.088338
41879		4.999274	1.075712	8.393176	-0.103922	0.137480	0.014061	-0.016087	-0.848490	0.209968	-0.600342	0.096436	-0.518555	0.049625	0.010816	0.084142	-0.945733	-0.002980	0.278274	0.167762	6.681706	-31.691518	-22.016410
41880		4.807939	0.966007	8.546173	-0.449611	0.148657	0.029141	-0.033694	-0.897490	0.214213	-0.605225	0.102295	-0.510742	0.047685	0.009726	0.085675	-0.944624	-0.001733	0.282539	0.166897	6.623753	-32.222392	-21.954483
41881		5.131252	1.108965	8.492974	-0.206966	0.220505	0.167188	-0.058347	-0.959665	0.218979	-0.618408	0.099609	-0.490479	0.050892	0.011170	0.085171	-0.943427	-0.000342	0.287059	0.165958	6.551875	-32.787521	-21.883084
41882		4.973668	1.043429	8.443295	-0.413436	0.251693	0.030085	-0.079525	-1.029780	0.228286	-0.631836	0.112549	-0.494385	0.049289	0.010524	0.084683	-0.942095	0.001253	0.291895	0.165083	6.465465	-33.394452	-21.819331
41883		4.850965	1.094255	8.614983	-0.682698	0.408617	0.102606	-0.119840	-1.114732	0.258903	-0.637939	0.103271	-0.486084	0.048014	0.011057	0.086412	-0.940652	0.003121	0.297079	0.164036	6.346778	-34.050231	-21.729369
41884		5.239697	1.150158	8.682454	-0.509267	0.411752	0.372204	-0.141693	-1.225535	0.300349	-0.639404	0.110107	-0.474854	0.051846	0.011641	0.087135	-0.939026	0.005276	0.302764	0.162899	6.201262	-34.772882	-21.626555
41885		5.033734	1.245252	8.596537	-0.705111	0.625722	0.182270	-0.182183	-1.372189	0.331089	-0.658936	0.098633	-0.461182	0.049725	0.012614	0.086296	-0.937176	0.007755	0.309079	0.161587	6.023779	-35.579348	-21.499809
41886		5.054761	1.046853	8.942063	-1.080922	0.552813	0.440639	-0.215662	-1.551872	0.383818	-0.658203	0.108887	-0.447266	0.049831	0.010661	0.089798	-0.935018	0.010652	0.316199	0.160144	5.808054	-36.492288	-21.354127
41887		5.045799	1.005974	9.280990	-1.452031	0.652758	0.678795	-0.247915	-1.772268	0.421890	-0.677979	0.117676	-0.434814	0.049611	0.010280	0.093239	-0.932487	0.013901	0.324287	0.158469	5.561373	-37.531212	-21.180452
41888		4.768069	1.047464	9.392593	-1.885813	0.895998	0.564657	-0.319640	-2.009868	0.477328	-0.692139	0.118408	-0.408203	0.046708	0.010737	0.094382	-0.929515	0.017768	0.333401	0.156619	5.250029	-38.709237	-20.973708
41889		5.135160	2.079367	9.227183	-1.400135	1.879127	0.691484	-0.387862	-2.274246	0.560699	-0.708252	0.128418	-0.386963	0.050239	0.021115	0.092807	-0.926048	0.022290	0.343631	0.154452	4.860312	-40.040077	-20.709851
41890		4.753529	2.146955	9.786685	-2.226920	2.277175	0.809591	-0.422875	-2.513287	0.699693	-0.715088	0.131348	-0.384766	0.046225	0.021840	0.098407	-0.922124	0.027399	0.354879	0.151651	4.373692	-41.513438	-20.336630
41891		5.081744	2.208411	9.905188	-2.302920	2.442724	1.028627	-0.573762	-2.810794	0.801564	-0.735352	0.138672	-0.344971	0.049330	0.022569	0.099688	-0.917547	0.033599	0.367292	0.148577	3.732199	-43.156919	-19.872439
41892		4.951987	1.655891	10.073761	-2.942547	2.179927	0.926133	-0.701160	-3.120807	0.921386	-0.747559	0.154053	-0.317871	0.047863	0.017137	0.101434	-0.912236	0.040831	0.380927	0.145097	2.921087	-44.978307	-19.284674
41893		5.042191	2.623252	10.278076	-3.036234	3.354558	1.025041	-0.881030	-3.457760	1.051726	-0.749756	0.158936	-0.273438	0.048496	0.026946	0.103513	-0.906059	0.049357	0.395814	0.141252	1.879934	-46.987592	-18.539137
41894		5.092712	1.904584	10.568590	-3.749271	2.989460	1.061322	-1.075213	-3.809350	1.251559	-0.767090	0.171143	-0.239014	0.048781	0.019927	0.106523	-0.898923	0.059392	0.411961	0.136744	0.516192	-49.190314	-17.535324
41895		5.239586	-0.474572	10.934604	-4.992071	1.072969	1.194005	-1.078349	-4.246788	1.326601	-0.778564	0.178711	-0.198486	0.050086	-0.003815	0.110448	-0.890509	0.069862	0.429844	0.131710	-1.033341	-51.624841	-16.326809
41896		5.079657	-1.742700	10.173815	-5.299703	0.007334	0.396828	-0.784122	-4.794756	1.365501	-0.789795	0.196777	-0.150879	0.048453	-0.016689	0.102985	-0.880525	0.079430	0.450102	0.125602	-2.636744	-54.351148	-14.882516
41897		7.836174	1.443304	13.336752	-5.786530	3.782515	4.098025	-0.863008	-5.174829	1.247168	-0.790039	0.210205	-0.100830	0.074784	0.015488	0.135268	-0.868980	0.089258	0.471717	0.119957	-4.450643	-57.271197	-13.288226
41898		7.397697	-2.415357	10.597853	-5.564910	-0.203083	2.096165	-0.988002	-5.500740	1.103635	-0.781006	0.215088	-0.045898	0.071153	-0.023225	0.108078	-0.855853	0.099421	0.494376	0.114991	-6.556730	-60.353227	-11.489349
41899		12.868234	-1.618510	10.842473	-3.611405	0.470047	6.692592	-0.248632	-5.901787	0.868107	-0.784912	0.227051	0.008057	0.125477	-0.015498	0.112179	-0.841239	0.105981	0.518867	0.108909	-8.457823	-63.645901	-9.498565
41900		11.741000	-1.903894	9.496296	-3.888493	0.264866	4.897784	-0.142800	-5.945639	0.845137	-0.783691	0.224854	0.066162	0.114597	-0.018481	0.098411	-0.825797	0.111968	0.543149	0.102526	-10.818258	-66.929075	-6.991734
41901		17.039166	-0.333182	11.688487	-4.252779	2.521974	10.249547	0.477997	-5.938735	0.650161	-0.778809	0.239258	0.106934	0.166832	-0.003073	0.121867	-0.809878	0.114754	0.567337	0.095175	-13.282071	-70.184705	-4.051726
41902		14.435831	3.652120	11.922233	-5.274523	6.785340	7.213948	0.704788	-5.749684	0.683301	-0.767578	0.240479	0.155273	0.140725	0.036576	0.123432	-0.793930	0.116529	0.590352	0.087070	-16.600933	-73.273207	-0.133148
41903		11.229202	3.854679	11.374767	-6.520668	7.063236	3.523681	0.650804	-5.528023	0.945934	-0.749512	0.243164	0.200439	0.108907	0.038690	0.116915	-0.778064	0.119097	0.611822	0.078141	-21.917102	-76.092804	5.763301
41904		7.361032	3.449428	10.692707	-7.564534	6.539849	-0.847220	0.772837	-5.356668	1.126132	-0.735840	0.250732	0.235352	0.070515	0.034479	0.108977	-0.762257	0.121583	0.632087	0.068177	-30.057367	-78.580431	14.557459
41905		3.328030	2.755295	8.734976	-7.061090	5.179042	-5.538982	0.923331	-4.934130	1.264822	-0.720459	0.259521	0.276123	0.030937	0.027347	0.088259	-0.747375	0.123701	0.650256	0.057418	-41.697151	-80.461476	26.929468
41906		17.316104	3.348787	15.237649	-11.582118	8.582519	8.500332	1.161551	-3.853793	1.501398	-0.705566	0.278564	0.296143	0.169927	0.033873	0.155868	-0.735798	0.125318	0.663938	0.045635	-54.917960	-81.297326	40.991585
41907		16.306932	9.807340	19.211621	-14.580234	15.789894	6.596518	1.128561	-1.330996	1.145347	-0.707520	0.284912	0.298096	0.161223	0.097910	0.193746	-0.732281	0.125262	0.668369	0.036840	-60.742347	-81.150798	47.539012
41908		8.218294	11.673737	16.367589	-12.435848	16.028219	-2.056398	0.262807	0.284599	0.863479	-0.702637	0.293945	0.291748	0.081911	0.116876	0.163713	-0.733526	0.127125	0.666851	0.032979	-61.215696	-80.641753	48.171142
41909		3.441388	9.247501	12.035499	-9.222550	12.162594	-6.775174	-0.694790	0.982060	0.639601	-0.697266	0.295410	0.283691	0.034706	0.093003	0.119863	-0.736421	0.131638	0.662743	0.033574	-59.816222	-80.048728	46.347701
41910		2.491624	5.351770	9.310878	-7.444264	7.736973	-7.310405	-1.170899	1.334197	0.364451	-0.690430	0.299561	0.264893	0.025437	0.054107	0.092625	-0.740085	0.136917	0.657389	0.036992	-57.483210	-79.475347	43.295766
41911		2.016148	2.604262	7.803967	-6.586982	4.754138	-7.413407	-1.089795	1.615838	0.023013	-0.711182	0.298828	0.253174	0.020787	0.026469	0.077730	-0.744592	0.140717	0.651192	0.041594	-54.144500	-78.947205	39.261345
41912		1.359549	1.709417	6.824915	-5.883609	3.625569	-7.918855	-0.739966	1.846949	-0.292600	-0.712646	0.295166	0.237305	0.014250	0.017326	0.068056	-0.749972	0.142116	0.644355	0.046393	-49.886308	-78.430534	34.487239
41913		0.869420	2.035859	6.228737	-5.252987	3.758040	-8.405767	-0.423272	1.995208	-0.515107	-0.723145	0.292480	0.215332	0.009367	0.020467	0.062153	-0.755912	0.141571	0.637137	0.051103	-45.170240	-77.879535	29.420880
41914		0.693623	2.423999	6.061074	-4.974541	4.086920	-8.530969	-0.252653	2.086059	-0.646293	-0.714355	0.285645	0.190674	0.007646	0.024293	0.060503	-0.762154	0.139912	0.629626	0.055828	-40.399107	-77.256155	24.387930
41915		0.926486	2.397170	6.263975	-5.073496	4.154108	-8.126518	-0.169974	2.186226	-0.736463	-0.722656	0.276611	0.177734	0.010037	0.023989	0.062512	-0.768636	0.137620	0.621752	0.060695	-35.759258	-76.533909	19.524180
41916		1.637549	2.005279	6.721462	-5.385044	3.967723	-7.141251	-0.075465	2.346803	-0.828518	-0.740723	0.272217	0.150391	0.017246	0.020008	0.067008	-0.775557	0.134598	0.613249	0.065728	-31.200319	-75.676254	14.784422
41917		2.278340	1.700280	7.071534	-5.554207	3.799356	-6.234922	0.060798	2.595775	-0.936719	-0.735107	0.266846	0.119141	0.023778	0.016872	0.070416	-0.783150	0.130623	0.603808	0.070915	-26.681888	-74.638057	10.146330
41918		2.568986	1.651995	7.203346	-5.507033	3.764561	-5.724553	0.187356	2.894638	-1.026511	-0.740234	0.259277	0.089111	0.026813	0.016317	0.071666	-0.791545	0.125735	0.593155	0.076256	-22.303386	-73.374099	5.704594
41919		2.596371	1.509363	7.099057	-5.318783	3.541010	-5.501987	0.288659	3.175178	-1.106442	-0.745361	0.250244	0.064941	0.027169	0.014843	0.070587	-0.800584	0.120082	0.581343	0.081765	-18.223585	-71.890723	1.603630
41920		2.626204	1.201597	7.029677	-5.193131	3.153881	-5.248110	0.387818	3.396765	-1.160494	-0.749268	0.240479	0.024414	0.027520	0.011723	0.069859	-0.810077	0.113734	0.568521	0.087314	-14.539058	-70.212218	-2.055455
41921		2.968755	1.101823	6.997874	-4.922227	2.954552	-4.710431	0.486917	3.579213	-1.196358	-0.743652	0.228760	-0.014648	0.030998	0.010666	0.069458	-0.819835	0.106778	0.554849	0.092797	-11.280750	-68.370488	-5.240104
41922		3.462636	0.947978	7.205246	-4.787926	2.733330	-3.947512	0.586525	3.742908	-1.214504	-0.743164	0.221924	-0.045410	0.036023	0.009054	0.071414	-0.829799	0.099233	0.540330	0.098134	-8.414513	-66.377603	-7.979566
41923		4.221491	0.732682	7.571386	-4.650832	2.438008	-2.877362	0.697367	3.918091	-1.216269	-0.738525	0.210693	-0.083008	0.043730	0.006802	0.074891	-0.839931	0.091111	0.524938	0.103221	-5.901668	-64.241330	-10.305057
41924		4.853507	0.709850	7.967089	-4.468354	2.289868	-1.918931	0.809280	4.121611	-1.189228	-0.731934	0.196777	-0.116943	0.050203	0.006484	0.078675	-0.850298	0.082427	0.508474	0.107950	-3.705567	-61.946055	-12.246027
41925		5.281362	0.560562	8.183966	-4.192540	1.947185	-1.222063	0.911974	4.337980	-1.128191	-0.728027	0.188721	-0.158203	0.054601	0.004931	0.080692	-0.860850	0.073321	0.490892	0.112191	-1.816571	-59.499071	-13.812222
41926		5.702003	0.436534	8.537637	-3.965257	1.622449	-0.473569	1.034128	4.523085	-1.055146	-0.709961	0.181885	-0.195068	0.058952	0.003621	0.084078	-0.871479	0.063749	0.472256	0.115904	-0.172043	-56.919126	-15.058116
41927		6.230562	0.641219	8.889341	-3.526864	1.555656	0.354356	1.147959	4.686055	-0.974459	-0.685059	0.164551	-0.226074	0.064394	0.005597	0.087435	-0.882061	0.053714	0.452708	0.118902	1.264444	-54.233580	-16.001875
41928		6.766109	0.794706	9.363414	-3.118496	1.418112	1.247184	1.227513	4.825320	-0.910245	-0.667969	0.147949	-0.263672	0.069928	0.007064	0.092010	-0.892474	0.043377	0.432262	0.121481	2.538247	-51.453613	-16.725797
41929		7.252466	0.766587	10.031991	-2.852657	1.099259	2.205902	1.309184	4.935593	-0.886446	-0.655762	0.148682	-0.299316	0.075002	0.006688	0.098535	-0.902569	0.032611	0.411119	0.123642	3.710931	-48.606827	-17.276913
41930		7.746728	0.682506	10.565395	-2.411146	0.646677	3.064955	1.395906	5.002764	-0.905896	-0.643799	0.122314	-0.336426	0.080106	0.005738	0.103715	-0.912191	0.021365	0.389416	0.125721	4.841731	-45.710052	-17.736288
41931		8.331268	0.681321	11.252052	-1.919122	0.220004	4.069143	1.483771	5.030817	-0.938191	-0.622559	0.116211	-0.365234	0.086136	0.005589	0.110422	-0.921215	0.009605	0.367405	0.127610	5.950533	-42.794385	-18.106689
41932		9.059583	0.574797	11.863059	-1.215490	-0.413350	5.068092	1.562535	5.009071	-0.976912	-0.597900	0.107422	-0.404297	0.093553	0.004381	0.116350	-0.929525	-0.002570	0.345253	0.129525	7.052154	-39.879631	-18.426845
41933		9.815651	0.537108	12.606864	-0.478979	-1.036432	6.131133	1.611066	4.943836	-1.014472	-0.586670	0.083740	-0.424316	0.101255	0.003860	0.123626	-0.937041	-0.015005	0.323225	0.131357	8.136671	-36.999567	-18.686261
41934		11.054094	0.339620	13.628495	0.506195	-1.990023	7.615978	1.650563	4.830393	-1.041068	-0.560547	0.068115	-0.476807	0.113801	0.001699	0.133581	-0.943707	-0.027574	0.301499	0.133253	9.208365	-34.173702	-18.910290
41935		12.827119	0.083792	14.604131	2.042981	-3.231316	9.243123	1.693353	4.754326	-1.084481	-0.557617	0.041992	-0.500000	0.131691	-0.001089	0.142934	-0.949590	-0.040352	0.279984	0.135125	10.277254	-31.388276	-19.092265
41936		14.000495	0.273941	14.887159	3.693818	-3.957032	9.893208	1.710455	4.716597	-1.151140	-0.525635	0.016113	-0.541260	0.143471	0.000666	0.145527	-0.954752	-0.053270	0.258426	0.137211	11.341026	-28.610172	-19.257107
41937		14.315576	0.775822	14.264766	5.187563	-4.120973	9.293409	1.617072	4.582961	-1.237136	-0.493896	0.007813	-0.572998	0.146414	0.005723	0.139369	-0.959083	-0.065710	0.237288	0.139772	12.348271	-25.899146	-19.433140
41938		15.213734	1.455290	13.486793	7.219982	-4.229857	8.771534	1.386753	4.285806	-1.364312	-0.474121	-0.023193	-0.603027	0.155072	0.012581	0.131657	-0.962489	-0.076966	0.217197	0.143235	13.244817	-23.331609	-19.675259
41939		18.025675	1.826149	13.331337	10.496739	-5.244324	9.376359	1.109594	3.942322	-1.540959	-0.448242	-0.037109	-0.616455	0.182969	0.016132	0.129818	-0.965000	-0.086778	0.198415	0.147904	14.013870	-20.932703	-20.028963
41940		21.445855	2.229433	12.581654	14.563904	-6.395015	9.425168	0.804976	3.798259	-1.770625	-0.423340	-0.050293	-0.634033	0.216980	0.019885	0.121795	-0.966886	-0.095216	0.179880	0.153979	14.636296	-18.573660	-20.503115
41941		23.192453	2.810410	10.613391	17.625635	-6.696737	7.589049	0.441461	3.811960	-1.995061	-0.400391	-0.072998	-0.651123	0.234155	0.025548	0.101743	-0.968334	-0.102051	0.160839	0.161387	15.060426	-16.173826	-21.076422
41942		23.181173	0.103337	7.883248	18.295137	-9.288238	3.545644	0.075347	3.788806	-2.232437	-0.366455	-0.083252	-0.669434	0.233242	-0.001594	0.074422	-0.969302	-0.107249	0.141394	0.170174	15.282920	-13.745172	-21.768031
41943		22.183330	-3.651811	4.000706	17.733417	-12.183704	-2.167670	-0.015663	3.593634	-2.490363	-0.359863	-0.103027	-0.674805	0.222027	-0.039279	0.036022	-0.969494	-0.111959	0.122634	0.180298	15.459359	-11.385813	-22.620456
41944		21.674163	-3.325286	-0.301458	18.591019	-11.305567	-7.089960	-0.243179	3.200734	-2.409630	-0.337158	-0.110107	-0.696533	0.216235	-0.035867	-0.006435	-0.969220	-0.115122	0.105549	0.190311	15.474100	-9.252350	-23.477704
41945		22.053003	-3.779650	-4.781743	19.745894	-11.316729	-12.151568	-0.656298	2.642066	-1.932644	-0.311279	-0.124512	-0.700684	0.219494	-0.040084	-0.050593	-0.969013	-0.115452	0.091033	0.198487	15.196576	-7.503845	-24.154458
41946		23.271915	-7.265682	-8.484874	20.155456	-14.419302	-17.036021	-0.751579	1.966244	-1.279345	-0.306641	-0.115723	-0.712646	0.231399	-0.074464	-0.086850	-0.968994	-0.114333	0.080046	0.203890	14.816624	-6.229163	-24.575682
41947		23.702050	-10.785085	-10.489944	19.379772	-17.438712	-20.226510	-0.222888	1.230094	-0.681060	-0.288086	-0.123779	-0.708252	0.236000	-0.108774	-0.106232	-0.968891	-0.114768	0.073506	0.206582	14.709269	-5.452477	-24.776434
41948		22.112460	-9.859929	-10.188193	18.130522	-15.998563	-20.074606	0.457956	0.362376	-0.154297	-0.294189	-0.124756	-0.707764	0.220863	-0.098536	-0.102508	-0.968593	-0.117409	0.072174	0.206964	14.974885	-5.233573	-24.810851
41949		19.775507	-6.183994	-7.317710	16.922172	-12.270030	-16.591041	0.632798	-0.526396	0.342223	-0.299072	-0.121094	-0.711914	0.198052	-0.061270	-0.072851	-0.968371	-0.119796	0.075617	0.205396	15.327111	-5.580202	-24.701930
41950		18.750862	-3.465407	-2.695028	16.196194	-10.301379	-11.370507	0.340182	-1.132259	0.681426	-0.301514	-0.123291	-0.708740	0.187774	-0.033970	-0.025946	-0.968412	-0.120008	0.081903	0.202653	15.500753	-6.314825	-24.499019
41951		12.515963	6.412340	6.633288	12.281362	-0.701641	-0.302753	-0.549835	-1.397455	0.812805	-0.317627	-0.113770	-0.707520	0.124430	0.064814	0.067026	-0.968953	-0.115584	0.088635	0.199786	15.157707	-7.214395	-24.261921
41952		-7.964731	7.356961	13.263893	-7.487938	7.524020	3.633016	-2.338160	-2.186048	1.138488	-0.322021	-0.087158	-0.703857	-0.081507	0.074646	0.130886	-0.970327	-0.101539	0.097589	0.196552	13.773779	-8.596306	-23.942287
41953		-13.579593	1.810451	15.084363	-15.190113	4.816876	2.886060	-1.077179	-2.346338	0.719710	-0.340088	-0.072754	-0.673828	-0.137618	0.018418	0.149138	-0.970343	-0.093639	0.108309	0.194770	13.142360	-10.004028	-23.854847
41954		-5.397063	1.392262	-0.715361	-4.150624	3.516678	-11.219905	-0.643836	-3.579226	0.049133	-0.355469	-0.065430	-0.674072	-0.053834	0.013884	-0.008163	-0.968586	-0.086977	0.125100	0.196534	12.858051	-12.014156	-24.298846
41955		8.196560	0.102157	8.494251	4.795460	-4.133432	0.149389	-0.937458	-4.284716	-0.107783	-0.385742	-0.065186	-0.649414	0.080122	0.001382	0.086666	-0.965968	-0.078266	0.144890	0.199469	12.461620	-14.400261	-24.915203
41956		10.040184	-4.387423	16.373131	1.824005	-9.447910	7.377375	-0.674170	-3.754723	0.116840	-0.408936	-0.052979	-0.635742	0.097328	-0.043260	0.165724	-0.963443	-0.071155	0.162419	0.200836	12.184574	-16.521916	-25.325671
41957		8.011466	-6.715522	10.635132	0.696678	-10.041893	1.189333	-0.648078	-3.470097	0.767052	-0.420898	-0.047363	-0.614990	0.078507	-0.066504	0.107939	-0.961460	-0.063907	0.178768	0.198878	11.808433	-18.562425	-25.310072
41958		10.144595	-2.927525	14.599016	2.023037	-7.368602	6.502786	-0.540504	-3.343784	1.093163	-0.441162	-0.034668	-0.594971	0.099142	-0.028331	0.147738	-0.959568	-0.056982	0.194675	0.195152	11.417786	-20.571022	-25.070127
41959		13.608261	4.185782	12.225148	7.971261	-1.782836	7.081407	-0.664287	-2.924079	1.149842	-0.470459	-0.022705	-0.578125	0.134032	0.043042	0.124079	-0.957899	-0.049808	0.208397	0.191099	10.911174	-22.346647	-24.726038
41960		15.510646	6.371409	11.839547	10.104507	-0.164485	8.053510	-0.660257	-2.377375	0.710453	-0.473389	-0.010498	-0.566406	0.153458	0.064656	0.120014	-0.956174	-0.043615	0.219364	0.188969	10.470184	-23.766838	-24.567725
41961		17.146951	5.909693	13.314043	10.380914	-0.931987	10.126291	-1.001087	-1.577136	0.354802	-0.487793	-0.001465	-0.553955	0.170308	0.060070	0.134187	-0.954944	-0.036941	0.226063	0.188714	9.879030	-24.696587	-24.525129
41962		11.919501	-3.011828	11.180228	3.796542	-7.042225	4.752110	-0.853311	-0.788715	0.296715	-0.498047	0.000244	-0.552734	0.118797	-0.029463	0.112398	-0.954458	-0.031772	0.229130	0.188412	9.347521	-25.177160	-24.425312
41963		6.926651	-3.036240	10.534522	-0.093797	-5.098518	2.110778	-0.451972	-0.498689	0.186280	-0.492676	0.013672	-0.549072	0.069032	-0.030060	0.105586	-0.954118	-0.028925	0.231151	0.188127	9.060979	-25.480728	-24.361025
41964		5.708393	-0.411482	9.590176	0.202031	-2.180003	1.138708	-0.276092	-0.394650	0.098054	-0.509521	0.013428	-0.546631	0.056896	-0.003954	0.096020	-0.953776	-0.027107	0.232844	0.188041	8.893113	-25.719642	-24.340291
41965		5.376856	0.971359	8.991216	0.653134	-0.758065	0.660837	-0.195942	-0.307857	0.045837	-0.508789	0.025635	-0.546631	0.053628	0.009814	0.089985	-0.953475	-0.025823	0.234172	0.188100	8.782058	-25.902429	-24.343253
41966		5.162630	1.346384	8.855910	0.647302	-0.311274	0.501220	-0.109043	-0.240169	0.025842	-0.508301	0.024170	-0.533691	0.051518	0.013519	0.088614	-0.953217	-0.025030	0.235274	0.188142	8.722614	-26.047489	-24.351902
41967		5.113203	1.272516	8.593527	0.683478	-0.356785	0.238102	-0.051066	-0.185305	0.027743	-0.515625	0.025146	-0.533691	0.051051	0.012754	0.085979	-0.953020	-0.024573	0.236151	0.188101	8.694193	-26.159306	-24.353984
41968		5.183033	1.880405	8.523085	0.969077	0.188823	0.290181	-0.015823	-0.135445	0.036549	-0.515869	0.032959	-0.529297	0.051769	0.018820	0.085264	-0.952881	-0.024310	0.236842	0.187969	8.680688	-26.245969	-24.345608
41969		5.004319	2.222322	8.366571	1.002711	0.574306	0.119391	-0.030792	-0.104829	0.062494	-0.517334	0.034180	-0.521729	0.049992	0.022252	0.083689	-0.952808	-0.023985	0.237358	0.187728	8.650699	-26.315204	-24.317900
41970		4.596179	2.299470	8.442231	0.653209	0.810553	0.015842	-0.052619	-0.079673	0.088361	-0.524658	0.035400	-0.522217	0.045918	0.023037	0.084435	-0.952788	-0.023538	0.237755	0.187386	8.599186	-26.374697	-24.271325
41971		4.393178	1.453486	8.441816	0.188924	0.111848	-0.188308	-0.063979	-0.089604	0.104101	-0.519287	0.045410	-0.517578	0.043886	0.014585	0.084433	-0.952775	-0.023019	0.238173	0.186984	8.537705	-26.438815	-24.215685
41972		4.502448	1.105013	8.608808	0.074557	-0.231699	-0.037954	-0.053335	-0.078957	0.109110	-0.514160	0.047852	-0.514160	0.044984	0.011098	0.086103	-0.952774	-0.022545	0.238567	0.186544	8.479767	-26.499530	-24.155736
41973		4.826712	1.211149	8.497282	0.421290	-0.245076	0.022467	-0.035784	-0.092029	0.112222	-0.510254	0.047119	-0.507324	0.048221	0.012154	0.084993	-0.952762	-0.022149	0.239023	0.186070	8.432045	-26.565609	-24.094979
41974		4.402697	0.602475	8.734931	-0.252097	-0.634369	-0.036197	-0.023141	-0.091662	0.095415	-0.510254	0.053711	-0.509277	0.043984	0.006056	0.087369	-0.952729	-0.021824	0.239505	0.185660	8.395630	-26.632246	-24.044719
41975		4.649285	0.526660	8.766868	-0.101153	-0.785338	0.093079	0.011746	-0.120153	0.066456	-0.509033	0.053711	-0.511475	0.046438	0.005277	0.087697	-0.952634	-0.021682	0.240133	0.185350	8.389151	-26.710379	-24.015469
41976		4.528675	0.518036	8.949397	-0.300604	-0.735473	0.199189	0.036645	-0.133413	0.045562	-0.504150	0.061279	-0.499268	0.045226	0.005174	0.089525	-0.952497	-0.021663	0.240863	0.185110	8.402810	-26.796445	-24.000656
41977		4.293744	0.913060	8.925017	-0.361200	-0.280958	0.122927	0.059662	-0.155962	0.025822	-0.506592	0.066162	-0.498779	0.042867	0.009110	0.089286	-0.952315	-0.021765	0.241702	0.184939	8.436882	-26.891478	-24.000582
41978		4.618046	0.886000	8.585575	0.034546	-0.438226	-0.033619	0.067345	-0.173406	0.016315	-0.503662	0.063232	-0.498047	0.046105	0.008835	0.085899	-0.952098	-0.021890	0.242646	0.184806	8.478243	-26.997699	-24.008203
41979		4.796462	1.283119	8.362667	0.401157	-0.143055	-0.096453	0.074776	-0.174711	0.006875	-0.510498	0.070801	-0.492920	0.047891	0.012802	0.083673	-0.951873	-0.022070	0.243586	0.184709	8.527338	-27.101751	-24.022122
41980		5.251920	1.266262	8.349606	0.753629	-0.323178	0.098397	0.061147	-0.152914	0.019986	-0.496338	0.069092	-0.496826	0.052454	0.012642	0.083540	-0.951683	-0.022180	0.244426	0.184563	8.563306	-27.196623	-24.025633
41981		4.919885	1.487264	8.385663	0.525897	0.007338	0.008714	0.036274	-0.148276	0.035613	-0.499756	0.065918	-0.490234	0.049134	0.014866	0.083896	-0.951519	-0.022166	0.245207	0.184373	8.580913	-27.288137	-24.018865
41982		4.521362	1.648715	8.535931	0.171406	0.314633	-0.020103	0.010925	-0.132805	0.060055	-0.490723	0.072021	-0.505615	0.045152	0.016496	0.085390	-0.951395	-0.022006	0.245910	0.184095	8.575547	-27.375013	-23.994955
41983		4.381870	1.762487	8.468789	0.117002	0.475910	-0.128301	-0.019511	-0.118492	0.089289	-0.492188	0.076904	-0.506592	0.043761	0.017653	0.084712	-0.951322	-0.021688	0.246504	0.183715	8.544067	-27.454229	-23.951034
41984		4.581405	1.705856	8.428398	0.269334	0.360357	-0.079513	-0.038394	-0.098605	0.112610	-0.494629	0.076172	-0.505371	0.045763	0.017101	0.084303	-0.951293	-0.021262	0.247003	0.183244	8.493349	-27.526108	-23.890154
41985		4.853971	1.518289	8.192535	0.532002	0.088763	-0.184970	-0.051801	-0.097939	0.131697	-0.488770	0.080078	-0.509766	0.048490	0.015236	0.081945	-0.951287	-0.020757	0.247474	0.182699	8.429722	-27.597184	-23.816957
41986		4.942683	1.336976	8.308538	0.480657	-0.091522	-0.065380	-0.064495	-0.085804	0.137296	-0.495117	0.081543	-0.515381	0.049382	0.013430	0.083102	-0.951298	-0.020187	0.247890	0.182141	8.355943	-27.663711	-23.738827
41987		4.532690	1.305491	8.505259	0.038085	0.050365	-0.087205	-0.067549	-0.081971	0.141467	-0.490967	0.074463	-0.516846	0.045283	0.013116	0.085067	-0.951320	-0.019610	0.248271	0.181568	8.279405	-27.726381	-23.657589
41988		4.501195	1.198581	8.652776	-0.099899	-0.015820	0.013687	-0.056352	-0.086336	0.138219	-0.488525	0.082275	-0.522217	0.044966	0.012041	0.086544	-0.951329	-0.019078	0.248697	0.180995	8.209764	-27.793065	-23.578635
41989		4.520036	1.209780	8.650385	-0.085917	0.002117	0.021745	-0.062038	-0.093096	0.135788	-0.491943	0.086914	-0.523193	0.045152	0.012155	0.086521	-0.951330	-0.018523	0.249135	0.180443	8.138267	-27.861401	-23.501787
41990		4.330160	1.180734	8.557653	-0.212381	0.051287	-0.151937	-0.050417	-0.105602	0.140353	-0.493408	0.087646	-0.532959	0.043248	0.011859	0.085596	-0.951315	-0.017999	0.249657	0.179854	8.071913	-27.938959	-23.422938
41991		4.717343	0.831505	8.423459	0.041451	-0.404951	-0.131073	-0.039578	-0.114801	0.133833	-0.497314	0.092529	-0.529297	0.047119	0.008363	0.084260	-0.951284	-0.017535	0.250218	0.179285	8.014485	-28.019297	-23.349033
41992		5.156195	1.019229	8.253422	0.531640	-0.378926	-0.049598	-0.027395	-0.130020	0.137526	-0.510498	0.098877	-0.537109	0.051501	0.010239	0.082566	-0.951231	-0.017102	0.250876	0.178683	7.962873	-28.110293	-23.273901
41993		5.252993	1.108323	8.212501	0.647853	-0.317726	-0.027658	-0.024585	-0.149027	0.141877	-0.507568	0.097900	-0.534180	0.052461	0.011131	0.082163	-0.951161	-0.016668	0.251613	0.178059	7.912697	-28.210570	-23.197597
41994		4.680707	0.962797	8.571895	-0.050614	-0.220601	-0.001361	-0.018069	-0.145235	0.143299	-0.512207	0.097900	-0.546387	0.046738	0.009669	0.085752	-0.951092	-0.016259	0.252351	0.177419	7.864940	-28.310520	-23.119787
41995		4.111916	1.335535	8.627044	-0.428659	0.341927	-0.178545	-0.023749	-0.166351	0.153386	-0.506348	0.099854	-0.543701	0.041037	0.013397	0.086303	-0.951008	-0.015799	0.253172	0.176740	7.812042	-28.421413	-23.037252
41996		4.743018	1.459302	8.645160	0.097519	0.258432	0.151660	-0.028732	-0.202831	0.197065	-0.525879	0.096924	-0.555908	0.047328	0.014652	0.086498	-0.950912	-0.015220	0.254178	0.175862	7.743580	-28.558037	-22.929405
41997		4.332295	1.261233	8.671378	-0.332692	0.234661	-0.046088	-0.017344	-0.260279	0.240404	-0.516846	0.100830	-0.550293	0.043195	0.012672	0.086769	-0.950781	-0.014597	0.255456	0.174768	7.670714	-28.728781	-22.798291
41998		4.422121	1.327167	8.669503	-0.264400	0.290239	0.001717	-0.061734	-0.350240	0.241067	-0.538086	0.108398	-0.543457	0.044053	0.013352	0.086768	-0.950532	-0.013677	0.257136	0.173732	7.574811	-28.952150	-22.673925
41999		4.679140	0.895446	8.606482	-0.197832	-0.177763	0.020766	-0.052759	-0.409955	0.240909	-0.536865	0.099609	-0.552979	0.046604	0.009033	0.086158	-0.950204	-0.012754	0.259092	0.172690	7.486309	-29.207594	-22.554190
42000		4.382589	0.831811	8.849058	-0.615621	-0.092397	0.077565	-0.061112	-0.461589	0.243839	-0.545898	0.096436	-0.552246	0.043611	0.008398	0.088589	-0.949802	-0.011737	0.261298	0.171646	7.392855	-29.494027	-22.436055
42001		4.576871	0.968966	8.677774	-0.372797	-0.007841	0.038764	-0.049723	-0.525191	0.243955	-0.554932	0.094971	-0.551758	0.045529	0.009767	0.086895	-0.949312	-0.010726	0.263801	0.170590	7.308078	-29.814848	-22.322447
42002		4.642402	0.894657	8.611231	-0.359875	-0.070533	0.004176	-0.046867	-0.596578	0.249011	-0.557373	0.110352	-0.539063	0.046156	0.009024	0.086248	-0.948720	-0.009653	0.266654	0.169507	7.224694	-30.178004	-22.210444
42003		4.950084	1.008294	8.512293	-0.083520	-0.034841	0.085319	-0.050988	-0.671751	0.257266	-0.572754	0.104736	-0.542725	0.049202	0.010168	0.085286	-0.948027	-0.008494	0.269847	0.168393	7.138688	-30.582799	-22.098304
42004		5.067434	0.778861	8.436359	-0.086299	-0.254912	0.055683	-0.047563	-0.745886	0.286365	-0.580322	0.118164	-0.534668	0.050348	0.007881	0.084550	-0.947241	-0.007241	0.273402	0.167136	7.046034	-31.033147	-21.971644
42005		4.996504	0.983703	8.464823	-0.164028	0.007014	0.064477	-0.060685	-0.840709	0.291268	-0.590576	0.117188	-0.528809	0.049594	0.009935	0.084854	-0.946315	-0.005848	0.277379	0.165875	6.947021	-31.536086	-21.848084
42006		4.789740	0.954540	8.704290	-0.542024	0.112168	0.152767	-0.065740	-0.919990	0.311040	-0.601318	0.113770	-0.513184	0.047481	0.009648	0.087259	-0.945272	-0.004330	0.281732	0.164526	6.839089	-32.086742	-21.715788
42007		4.945083	1.036733	8.589606	-0.419685	0.183071	0.142183	-0.081691	-1.002033	0.315230	-0.617920	0.116699	-0.508789	0.049003	0.010480	0.086138	-0.944096	-0.002671	0.286442	0.163177	6.722305	-32.682686	-21.585283
42008		5.000836	0.975094	8.608772	-0.499593	0.165886	0.176904	-0.107651	-1.092385	0.332927	-0.622314	0.119873	-0.505371	0.049521	0.009880	0.086354	-0.942773	-0.000783	0.291559	0.161777	6.584918	-33.332373	-21.447264
42009		5.212392	0.976931	8.398183	-0.320000	0.146067	0.113435	-0.141445	-1.182444	0.351613	-0.640869	0.122070	-0.504150	0.051609	0.009920	0.084281	-0.941303	0.001358	0.297052	0.160335	6.422424	-34.032841	-21.300542
