// General information: 
//  MT Manager version: 2021.4.0 
//  XDA version: 2021.4.0 build 6323 rev 112641 built on 2021-09-28
// Device information: 
//  DeviceId: 00B47796
//  ProductCode: MTW2-3A7G6
//  Firmware Version: 4.6.0
//  Hardware Version: 2.0.0
// Device settings: 
//  Filter Profile: human(46.1)
//  Option Flags: Orientation Smoother Disabled, Position/Velocity Smoother Disabled, Continuous Zero Rotation Update Disabled, AHS Disabled, ICC Disabled
// Coordinate system: ENU
PacketCounter	SampleTimeFine	Acc_X	Acc_Y	Acc_Z	FreeAcc_E	FreeAcc_N	FreeAcc_U	Gyr_X	Gyr_Y	Gyr_Z	Mag_X	Mag_Y	Mag_Z	VelInc_X	VelInc_Y	VelInc_Z	Quat_q0	Quat_q1	Quat_q2	Quat_q3	Roll	Pitch	Yaw
16352		4.566969	-3.419556	7.815788	-0.050188	0.066109	-0.136416	0.003448	0.006345	0.000375	-0.672363	0.374512	-0.543457	0.045672	-0.034197	0.078156	-0.124092	0.268431	-0.148192	0.943708	-23.099221	-28.025379	-159.178808
16353		4.570945	-3.389930	7.868366	-0.020479	0.026065	-0.102114	0.006575	0.011664	-0.002907	-0.669189	0.376465	-0.547363	0.045714	-0.033903	0.078680	-0.124094	0.268411	-0.148190	0.943714	-23.098291	-28.023080	-159.179360
16354		4.529096	-3.387316	7.825778	-0.008833	0.045933	-0.157263	0.007568	0.006300	-0.004615	-0.667725	0.372070	-0.540283	0.045293	-0.033877	0.078255	-0.124093	0.268417	-0.148180	0.943714	-23.097216	-28.024038	-159.179558
16355		4.534938	-3.423640	7.846204	-0.007962	0.073171	-0.125351	-0.000167	0.004664	0.000411	-0.668213	0.368896	-0.539551	0.045351	-0.034236	0.078461	-0.124107	0.268432	-0.148210	0.943703	-23.101918	-28.024682	-159.176347
16356		4.547576	-3.370340	7.850228	-0.007887	0.018845	-0.134604	0.008227	0.010265	-0.005501	-0.676025	0.377197	-0.538574	0.045479	-0.033708	0.078499	-0.124096	0.268420	-0.148198	0.943710	-23.099685	-28.023879	-159.178561
16357		4.549483	-3.403840	7.846968	-0.016696	0.050008	-0.124754	0.004769	0.010824	-0.002890	-0.672119	0.376953	-0.549316	0.045499	-0.034041	0.078466	-0.124097	0.268405	-0.148204	0.943713	-23.099895	-28.022019	-159.178889
16358		4.545287	-3.400743	7.823553	-0.025569	0.053385	-0.146811	0.006745	0.007000	-0.003319	-0.673340	0.373535	-0.541260	0.045455	-0.034011	0.078233	-0.124101	0.268409	-0.148200	0.943712	-23.099668	-28.022437	-159.178302
16359		4.551893	-3.405104	7.872213	-0.005418	0.045010	-0.102685	0.006740	0.010453	-0.001827	-0.669434	0.382324	-0.546875	0.045523	-0.034054	0.078719	-0.124110	0.268393	-0.148198	0.943716	-23.099092	-28.020533	-159.177901
16360		4.531861	-3.420650	7.849286	-0.003995	0.070500	-0.125329	0.005596	0.010125	-0.004187	-0.675293	0.377930	-0.543701	0.045322	-0.034210	0.078490	-0.124109	0.268383	-0.148200	0.943718	-23.098938	-28.019400	-159.178347
16361		4.525076	-3.383072	7.829938	-0.003337	0.042250	-0.157242	0.011026	0.009196	-0.005735	-0.672119	0.374023	-0.549561	0.045253	-0.033836	0.078295	-0.124106	0.268374	-0.148172	0.943726	-23.094960	-28.019037	-159.179960
16362		4.546389	-3.399966	7.850441	-0.012736	0.047324	-0.124734	0.012010	0.010737	-0.004458	-0.666504	0.381836	-0.543701	0.045467	-0.034005	0.078500	-0.124107	0.268357	-0.148144	0.943735	-23.090843	-28.017665	-159.181303
16363		4.545729	-3.399230	7.851141	-0.011965	0.046811	-0.124731	0.003126	0.008772	-0.001792	-0.672607	0.382324	-0.544922	0.045460	-0.033994	0.078509	-0.124112	0.268351	-0.148158	0.943734	-23.092548	-28.016640	-159.180453
16364		4.579236	-3.395432	7.846977	-0.041373	0.033641	-0.113689	0.009221	0.008356	-0.005718	-0.667969	0.372314	-0.546387	0.045795	-0.033959	0.078466	-0.124117	0.268349	-0.148139	0.943737	-23.090264	-28.016667	-159.180537
16365		4.514353	-3.403387	7.881090	0.029500	0.054348	-0.113709	0.005766	0.005461	-0.004599	-0.672852	0.383301	-0.546387	0.045145	-0.034037	0.078809	-0.124114	0.268360	-0.148135	0.943734	-23.090065	-28.018017	-159.180520
16366		4.548069	-3.399489	7.876848	0.000087	0.041207	-0.102666	0.007413	0.007515	-0.005700	-0.669434	0.376221	-0.549072	0.045483	-0.033999	0.078766	-0.124110	0.268361	-0.148124	0.943736	-23.088701	-28.018505	-159.181280
16367		4.558766	-3.409395	7.825010	-0.038442	0.058113	-0.136311	0.003953	0.008073	-0.003090	-0.672363	0.375488	-0.552734	0.045590	-0.034096	0.078248	-0.124111	0.268360	-0.148132	0.943735	-23.089652	-28.018140	-159.181026
16368		4.562909	-3.379457	7.877529	-0.008682	0.018028	-0.102078	0.008241	0.006816	-0.006996	-0.666504	0.372803	-0.553467	0.045631	-0.033799	0.078772	-0.124098	0.268363	-0.148116	0.943739	-23.087347	-28.019198	-159.182960
16369		4.561671	-3.410564	7.849999	-0.027202	0.053120	-0.114248	0.001324	0.004478	-0.003266	-0.667236	0.380127	-0.546631	0.045618	-0.034107	0.078499	-0.124097	0.268380	-0.148134	0.943731	-23.090185	-28.020767	-159.181897
16370		4.558654	-3.375804	7.854400	-0.016871	0.020901	-0.124125	0.008398	0.009057	-0.004423	-0.672852	0.374268	-0.548340	0.045589	-0.033762	0.078541	-0.124098	0.268371	-0.148121	0.943736	-23.088296	-28.019959	-159.182502
16371		4.542394	-3.393878	7.855386	-0.005795	0.042514	-0.124705	0.001985	0.008444	-0.004155	-0.670654	0.377441	-0.547119	0.045427	-0.033941	0.078552	-0.124091	0.268370	-0.148137	0.943734	-23.090032	-28.019637	-159.182980
16372		4.563841	-3.411523	7.875501	-0.015182	0.047563	-0.092186	0.004277	0.005650	-0.000925	-0.669189	0.375977	-0.549805	0.045640	-0.034117	0.078753	-0.124103	0.268378	-0.148147	0.943729	-23.091922	-28.020067	-159.180876
16373		4.575480	-3.389931	7.851545	-0.034428	0.028866	-0.113646	0.003794	0.009286	-0.004174	-0.664795	0.378906	-0.546875	0.045758	-0.033902	0.078513	-0.124097	0.268371	-0.148155	0.943730	-23.092515	-28.019306	-159.181579
16374		4.562697	-3.410608	7.876560	-0.013648	0.046484	-0.092178	0.004938	0.009616	-0.001814	-0.673340	0.374268	-0.547363	0.045630	-0.034108	0.078763	-0.124107	0.268360	-0.148163	0.943731	-23.093355	-28.017661	-159.180524
16375		4.552318	-3.370988	7.832984	-0.022732	0.022202	-0.146158	0.003956	0.008075	-0.003092	-0.671387	0.381592	-0.544678	0.045526	-0.033712	0.078327	-0.124108	0.268359	-0.148170	0.943730	-23.094304	-28.017295	-159.180272
16376		4.539657	-3.391507	7.857992	-0.001912	0.039825	-0.124692	0.008562	0.007847	-0.003341	-0.675293	0.380859	-0.546875	0.045399	-0.033919	0.078577	-0.124116	0.268357	-0.148158	0.943731	-23.092920	-28.017157	-159.179766
16377		4.539220	-3.390825	7.858539	-0.001140	0.039312	-0.124690	0.004945	0.006163	-0.003305	-0.667969	0.378662	-0.547363	0.045394	-0.033911	0.078583	-0.124118	0.268364	-0.148160	0.943729	-23.093472	-28.017846	-159.179155
16378		4.557160	-3.405791	7.854691	-0.020236	0.048272	-0.114206	0.004784	0.007375	-0.004388	-0.672852	0.376465	-0.542480	0.045574	-0.034061	0.078544	-0.124119	0.268367	-0.148164	0.943727	-23.094061	-28.018114	-159.178844
16379		4.553936	-3.370993	7.859202	-0.009878	0.016102	-0.124106	0.006749	0.010460	-0.001834	-0.672607	0.374512	-0.553955	0.045543	-0.033713	0.078588	-0.124127	0.268351	-0.148161	0.943731	-23.093477	-28.016209	-159.178449
16380		4.537536	-3.388971	7.860310	0.001207	0.037693	-0.124684	0.006273	0.010642	-0.006574	-0.669189	0.376953	-0.530273	0.045378	-0.033894	0.078600	-0.124110	0.268339	-0.148157	0.943737	-23.092012	-28.015303	-159.181146
16381		4.555276	-3.403800	7.856646	-0.017904	0.046706	-0.114194	0.005768	0.008918	-0.003112	-0.678223	0.375732	-0.542236	0.045556	-0.034041	0.078563	-0.124113	0.268332	-0.148157	0.943739	-23.091816	-28.014497	-159.181121
16382		4.501278	-3.422626	7.838374	0.013696	0.084830	-0.147875	0.004781	0.010830	-0.002900	-0.675781	0.366455	-0.536377	0.045017	-0.034229	0.078380	-0.124115	0.268321	-0.148166	0.943740	-23.092545	-28.013029	-159.180998
16383		4.655230	-3.424887	7.815833	-0.126121	0.043413	-0.093095	0.006596	0.008219	-0.004408	-0.678467	0.370117	-0.539551	0.046555	-0.034252	0.078155	-0.124113	0.268318	-0.148160	0.943743	-23.091596	-28.012884	-159.181568
16384		6.558921	-2.164881	7.242314	-1.813703	-1.595915	-0.100798	0.012994	0.010764	-0.041543	-0.672119	0.370117	-0.540771	0.065589	-0.021667	0.072418	-0.123930	0.268330	-0.148078	0.943776	-23.076424	-28.020285	-159.206184
16385		5.739082	-3.003194	7.327519	-1.219790	-0.580218	-0.126397	-0.006730	-0.001647	-0.003389	-0.676270	0.373779	-0.537354	0.057390	-0.030030	0.073277	-0.123922	0.268381	-0.148130	0.943754	-23.084575	-28.025111	-159.203636
16386		6.030079	-2.901299	7.096797	-1.569123	-0.716403	-0.212243	0.016158	0.010706	-0.009452	-0.676758	0.380127	-0.544189	0.060303	-0.029022	0.070962	-0.123903	0.268367	-0.148076	0.943769	-23.076714	-28.025185	-159.208236
16387		5.347117	-3.307330	7.454430	-0.873920	-0.202124	-0.102176	0.005623	0.003224	-0.007174	-0.687988	0.374512	-0.541992	0.053471	-0.033077	0.074543	-0.123890	0.268391	-0.148068	0.943766	-23.076143	-28.028294	-159.209188
16388		5.039737	-3.202454	7.709410	-0.465321	-0.256939	-0.075792	0.008407	0.009065	-0.004428	-0.690674	0.376465	-0.537842	0.050400	-0.032029	0.077090	-0.123887	0.268387	-0.148056	0.943769	-23.074432	-28.028192	-159.210003
16389		4.493534	-3.508212	7.734638	-0.048407	0.192004	-0.206189	0.007100	0.013401	-0.006386	-0.695557	0.378662	-0.535156	0.044939	-0.035086	0.077342	-0.123873	0.268361	-0.148048	0.943780	-23.072019	-28.025759	-159.213073
16390		4.281563	-3.451190	8.020587	0.289813	0.145239	-0.093262	0.015990	0.018831	-0.007563	-0.682861	0.372070	-0.535400	0.042822	-0.034520	0.080199	-0.123862	0.268305	-0.148001	0.943804	-23.063818	-28.020806	-159.217982
16391		4.304853	-3.536807	7.885374	0.182896	0.246858	-0.162533	0.014030	0.015746	-0.010118	-0.686035	0.368164	-0.533203	0.043053	-0.035376	0.078848	-0.123837	0.268267	-0.147957	0.943825	-23.056109	-28.017974	-159.223876
16392		4.734992	-3.294342	7.748357	-0.209740	-0.082227	-0.155611	0.011082	0.014571	-0.012462	-0.694824	0.372803	-0.529297	0.047354	-0.032951	0.077478	-0.123791	0.268241	-0.147925	0.943844	-23.049879	-28.016874	-159.231552
16393		4.753562	-3.277060	7.772816	-0.209499	-0.108840	-0.132997	0.005773	0.008924	-0.003118	-0.693604	0.369873	-0.531494	0.047539	-0.032774	0.077725	-0.123793	0.268234	-0.147925	0.943845	-23.049679	-28.016068	-159.231531
16394		4.922313	-3.197554	7.657364	-0.399239	-0.210430	-0.174997	0.008931	0.007337	-0.009382	-0.690186	0.371826	-0.529785	0.049224	-0.031981	0.076570	-0.123771	0.268239	-0.147903	0.943850	-23.046381	-28.017582	-159.234746
16395		4.930454	-3.267737	7.674438	-0.407878	-0.151630	-0.133064	0.003120	0.015691	0.001167	-0.692139	0.373535	-0.531982	0.049311	-0.032678	0.076740	-0.123785	0.268199	-0.147925	0.943856	-23.048096	-28.012246	-159.233886
16396		4.527549	-3.275634	7.931840	0.062396	-0.073552	-0.110458	0.002644	0.019328	-0.002089	-0.689697	0.372314	-0.530273	0.045283	-0.032758	0.079314	-0.123780	0.268145	-0.147949	0.943868	-23.049013	-28.005813	-159.235791
16397		4.352476	-3.353093	7.874969	0.165496	0.064254	-0.212119	-0.015936	-0.027301	-0.005096	-0.685791	0.373291	-0.527588	0.043513	-0.033526	0.078758	-0.123771	0.268324	-0.148027	0.943807	-23.065022	-28.024548	-159.227745
16398		4.280349	-3.380744	8.053956	0.325118	0.073835	-0.091275	-0.025185	-0.093193	-0.025734	-0.686035	0.374512	-0.525391	0.042762	-0.033803	0.080564	-0.123700	0.268836	-0.148081	0.943662	-23.088703	-28.082734	-159.215149
16399		4.525069	-3.416259	8.058793	0.135034	0.030758	0.039826	-0.023104	-0.177127	-0.053303	-0.703125	0.368652	-0.532471	0.045170	-0.034165	0.080632	-0.123565	0.269763	-0.148034	0.943422	-23.113271	-28.191261	-159.197693
16400		4.624704	-3.000471	8.276689	0.258468	-0.428612	0.119267	-0.052955	-0.250266	-0.073674	-0.695801	0.373047	-0.531250	0.046132	-0.030000	0.082833	-0.123347	0.271068	-0.148058	0.943073	-23.158379	-28.342980	-159.173544
16401		4.713544	-3.670843	7.761212	-0.168499	0.277489	-0.023739	-0.068678	-0.320132	-0.111363	-0.702148	0.380859	-0.524902	0.046991	-0.036708	0.077700	-0.122981	0.272738	-0.148059	0.942639	-23.210159	-28.539900	-159.153950
16402		4.756070	-3.519028	7.806570	-0.120080	0.120304	-0.018950	-0.052171	-0.344664	-0.139798	-0.704102	0.379883	-0.519531	0.047401	-0.035203	0.078157	-0.122521	0.274535	-0.147929	0.942197	-23.247765	-28.756228	-159.144809
16403		4.798878	-3.501410	7.513977	-0.276849	0.160329	-0.239470	-0.067287	-0.369712	-0.153495	-0.708740	0.378662	-0.522949	0.047823	-0.035026	0.075240	-0.121995	0.276468	-0.147835	0.941715	-23.293041	-28.988755	-159.137304
16404		4.468020	-3.537965	7.724346	0.143900	0.261486	-0.218068	-0.051505	-0.367079	-0.167710	-0.716064	0.377686	-0.510986	0.044509	-0.035397	0.077334	-0.121422	0.278390	-0.147649	0.941252	-23.325222	-29.223272	-159.138561
16405		4.662519	-3.571208	7.700777	0.004389	0.247577	-0.131099	-0.024360	-0.342864	-0.175865	-0.719482	0.373291	-0.509033	0.046462	-0.035744	0.077092	-0.120829	0.280184	-0.147336	0.940845	-23.336071	-29.446744	-159.151230
16406		4.659852	-3.890322	7.483461	-0.129026	0.603825	-0.196572	0.028177	-0.290629	-0.188964	-0.714355	0.367676	-0.507813	0.046453	-0.038958	0.074897	-0.120208	0.281710	-0.146791	0.940554	-23.306402	-29.645781	-159.185495
16407		5.334495	-3.408610	7.234379	-0.724326	0.017675	-0.226934	0.084902	-0.194199	-0.177861	-0.715088	0.376221	-0.510742	0.053244	-0.034164	0.072381	-0.119649	0.282739	-0.146051	0.940432	-23.234608	-29.791443	-159.238441
16408		5.837432	-3.299098	6.955920	-1.264248	-0.162884	-0.235652	0.142551	-0.030450	-0.123417	-0.713867	0.372070	-0.507568	0.058343	-0.033077	0.069545	-0.119307	0.282925	-0.145216	0.940549	-23.125113	-29.838592	-159.301131
16409		6.360738	-2.743920	6.777549	-1.720241	-0.787893	-0.307783	0.169417	0.187139	-0.028616	-0.725586	0.372559	-0.516113	0.063667	-0.027506	0.067693	-0.119292	0.282001	-0.144516	0.940936	-23.000554	-29.749560	-159.362693
16410		6.167088	-2.589158	6.919934	-1.491404	-0.895342	-0.347165	0.163829	0.414557	0.093840	-0.718018	0.366943	-0.510254	0.061826	-0.025919	0.069050	-0.119680	0.279922	-0.144153	0.941563	-22.887658	-29.513197	-159.407884
16411		5.516336	-3.090005	7.084137	-0.993383	-0.265816	-0.373128	0.184850	0.610756	0.183416	-0.709229	0.372803	-0.511963	0.055408	-0.030915	0.070644	-0.120377	0.276839	-0.143930	0.942419	-22.765041	-29.153110	-159.448311
16412		4.786162	-3.815607	7.364629	-0.413521	0.571537	-0.262510	0.230291	0.693868	0.189073	-0.711182	0.368164	-0.522705	0.048153	-0.038195	0.073436	-0.121102	0.273331	-0.143551	0.943407	-22.608965	-28.747912	-159.504989
16413		4.536619	-3.728263	7.840698	-0.006742	0.469367	-0.028181	0.267754	0.711692	0.155948	-0.704102	0.375488	-0.529297	0.045674	-0.037352	0.078195	-0.121707	0.269735	-0.142957	0.944454	-22.420591	-28.340241	-159.584639
16414		4.268361	-3.281027	8.074617	0.338260	0.091526	-0.114219	0.263886	0.657606	0.119403	-0.699707	0.375488	-0.546143	0.042968	-0.032891	0.080562	-0.122172	0.266420	-0.142298	0.945434	-22.232003	-27.969120	-159.670926
16415		4.410072	-2.785631	8.345619	0.380666	-0.463519	0.010642	0.217373	0.544441	0.092856	-0.704590	0.375244	-0.536865	0.044341	-0.027926	0.083305	-0.122529	0.263683	-0.141752	0.946237	-22.076397	-27.663402	-159.744130
16416		4.136272	-2.800892	8.449834	0.612043	-0.383433	-0.023322	0.159101	0.395239	0.075495	-0.699951	0.380859	-0.550049	0.041540	-0.028060	0.084394	-0.122832	0.261701	-0.141368	0.946805	-21.967135	-27.440663	-159.790314
16417		4.221778	-2.697016	8.484856	0.541154	-0.511277	0.012574	0.111675	0.267046	0.053668	-0.700439	0.371582	-0.549316	0.042338	-0.027006	0.084777	-0.123060	0.260366	-0.141099	0.947184	-21.893299	-27.290515	-159.818486
16418		4.110753	-2.935633	8.413466	0.535843	-0.240505	-0.016889	0.053992	0.160454	0.047282	-0.702881	0.372070	-0.551270	0.041182	-0.029369	0.084094	-0.123258	0.259579	-0.141031	0.947384	-21.862896	-27.198521	-159.824399
16419		4.498502	-3.113892	8.106867	0.009885	-0.131706	-0.033286	0.040066	0.079217	0.022962	-0.699463	0.381104	-0.553711	0.045021	-0.031150	0.081045	-0.123379	0.259199	-0.140946	0.947485	-21.842481	-27.154773	-159.825621
16420		4.651699	-3.055765	8.020935	-0.159766	-0.215220	-0.053612	0.022227	0.039195	0.014931	-0.694092	0.374023	-0.550293	0.046535	-0.030563	0.080197	-0.123468	0.259028	-0.140911	0.947525	-21.834743	-27.134156	-159.821788
16421		4.844274	-3.122827	7.992267	-0.348654	-0.206333	0.032679	0.011678	0.009550	0.009716	-0.696777	0.382568	-0.560059	0.048448	-0.031231	0.079919	-0.123538	0.259006	-0.140900	0.947524	-21.834598	-27.130283	-159.814228
16422		4.591770	-3.294872	7.936249	-0.194474	0.042359	-0.071796	0.003941	-0.007662	-0.000713	-0.699951	0.381592	-0.558350	0.045915	-0.032950	0.079364	-0.123564	0.259079	-0.140902	0.947500	-21.838192	-27.137926	-159.808367
16423		4.475209	-3.258567	8.003008	-0.054245	0.030769	-0.081808	-0.002811	-0.016347	-0.007001	-0.694336	0.383057	-0.556152	0.044744	-0.032586	0.080034	-0.123554	0.259200	-0.140922	0.947465	-21.844623	-27.151388	-159.804594
16424		4.655218	-3.121271	7.990305	-0.185534	-0.150117	-0.055567	-0.017305	-0.034849	-0.010059	-0.699707	0.385010	-0.554199	0.046537	-0.031208	0.079914	-0.123528	0.259422	-0.140996	0.947397	-21.860825	-27.175480	-159.797655
16425		4.755658	-3.012520	8.009018	-0.236518	-0.287489	-0.030186	-0.038264	-0.047040	-0.010002	-0.701904	0.385742	-0.557617	0.047536	-0.030112	0.080107	-0.123480	0.259712	-0.141161	0.947299	-21.890122	-27.205900	-159.788300
16426		4.946823	-2.952860	7.862568	-0.455912	-0.375730	-0.083280	-0.072146	-0.067063	-0.001578	-0.697754	0.383789	-0.543701	0.049442	-0.029501	0.078653	-0.123447	0.260115	-0.141485	0.947145	-21.943629	-27.245300	-159.768413
16427		4.841893	-2.773182	7.812425	-0.356528	-0.506480	-0.232248	-0.090939	-0.076884	0.012861	-0.700684	0.385986	-0.550781	0.048391	-0.027693	0.078155	-0.123460	0.260563	-0.141911	0.946956	-22.012709	-27.286660	-159.738125
16428		4.617995	-2.905750	7.972659	-0.094862	-0.356882	-0.158871	-0.140034	-0.096835	0.037450	-0.696777	0.378418	-0.549072	0.046147	-0.028993	0.079769	-0.123544	0.261120	-0.142589	0.946690	-22.119200	-27.333435	-159.687519
16429		4.377339	-3.253363	7.967122	0.060511	0.028555	-0.157844	-0.151121	-0.102547	0.044619	-0.706055	0.383789	-0.556885	0.043740	-0.032464	0.079718	-0.123647	0.261704	-0.143325	0.946404	-22.234479	-27.381449	-159.631823
16430		4.516751	-3.284630	7.889264	-0.088386	0.016915	-0.147172	-0.154477	-0.098443	0.048574	-0.707520	0.384521	-0.555176	0.045137	-0.032774	0.078940	-0.123763	0.262269	-0.144085	0.946117	-22.352655	-27.426490	-159.574324
16431		4.311782	-3.375717	7.950267	0.113392	0.138252	-0.160658	-0.154871	-0.100085	0.051967	-0.711670	0.392090	-0.556641	0.043087	-0.033684	0.079550	-0.123893	0.262838	-0.144849	0.945825	-22.472029	-27.471391	-159.514581
16432		4.355311	-3.389264	7.960543	0.093917	0.121044	-0.127514	-0.154714	-0.100013	0.051880	-0.703613	0.387939	-0.551514	0.043522	-0.033820	0.079653	-0.124026	0.263408	-0.145614	0.945532	-22.591631	-27.516322	-159.454423
16433		4.475162	-3.437149	7.858356	-0.054592	0.135556	-0.139351	-0.151756	-0.097538	0.053047	-0.713135	0.389160	-0.544189	0.044722	-0.034300	0.078631	-0.124164	0.263961	-0.146366	0.945243	-22.709426	-27.559416	-159.394410
16434		4.931894	-3.450014	7.689212	-0.513995	0.027180	-0.061522	-0.134412	-0.083604	0.054470	-0.708252	0.395020	-0.541748	0.049296	-0.034435	0.076936	-0.124323	0.264438	-0.147048	0.944983	-22.816405	-27.594888	-159.336589
16435		5.108239	-3.449512	7.535484	-0.732795	-0.007323	-0.104974	-0.095749	-0.062828	0.049527	-0.705811	0.395996	-0.541504	0.051067	-0.034446	0.075387	-0.124492	0.264795	-0.147553	0.944782	-22.897262	-27.620248	-159.287178
16436		4.957996	-3.489019	7.548225	-0.601296	0.065011	-0.150136	-0.056464	-0.031185	0.046651	-0.707275	0.404053	-0.542480	0.049576	-0.034857	0.075500	-0.124681	0.264982	-0.147888	0.944652	-22.951421	-27.629667	-159.246767
16437		4.667158	-3.534628	7.705547	-0.280374	0.158687	-0.140685	-0.032047	-0.000450	0.043211	-0.705811	0.389160	-0.547119	0.046679	-0.035324	0.077061	-0.124859	0.265009	-0.148122	0.944585	-22.986781	-27.623448	-159.216794
16438		4.699614	-3.440749	7.635792	-0.330261	0.072091	-0.214970	-0.011726	0.021823	0.032129	-0.714111	0.397705	-0.550537	0.047010	-0.034395	0.076355	-0.124999	0.264929	-0.148260	0.944567	-23.005097	-27.608125	-159.198460
16439		4.321791	-3.507332	7.805571	0.061109	0.213337	-0.228485	0.002077	0.038116	0.028030	-0.715820	0.402100	-0.535156	0.043238	-0.035068	0.078047	-0.125122	0.264764	-0.148337	0.944585	-23.012186	-27.584949	-159.187279
16440		4.198013	-3.500220	7.973250	0.250990	0.207959	-0.151356	0.012102	0.050465	0.021398	-0.712646	0.400635	-0.544922	0.042004	-0.035003	0.079720	-0.125221	0.264541	-0.148366	0.944630	-23.010531	-27.556922	-159.182587
16441		4.368560	-3.360838	7.940862	0.109943	0.031018	-0.147089	0.012941	0.046300	0.018634	-0.714355	0.403320	-0.549316	0.043707	-0.033609	0.079396	-0.125308	0.264337	-0.148384	0.944672	-23.007843	-27.531533	-159.179068
16442		4.742381	-3.298052	7.799478	-0.269982	-0.115328	-0.111502	0.019770	0.046389	0.012362	-0.713135	0.399414	-0.550537	0.047444	-0.032985	0.077981	-0.125378	0.264136	-0.148362	0.944723	-22.999787	-27.507673	-159.178659
16443		4.889367	-3.168285	7.843890	-0.351346	-0.291618	-0.052459	0.015598	0.039517	0.014383	-0.714111	0.406494	-0.553711	0.048911	-0.031685	0.078427	-0.125453	0.263965	-0.148358	0.944761	-22.995200	-27.486815	-159.175951
16444		4.932404	-3.175988	7.789362	-0.420164	-0.287411	-0.074590	0.006249	0.024216	0.017159	-0.716064	0.403564	-0.554443	0.049336	-0.031758	0.077887	-0.125545	0.263874	-0.148392	0.944769	-22.998786	-27.473583	-159.167108
16445		4.834326	-3.351963	7.736992	-0.396796	-0.083807	-0.101718	0.006939	0.024724	0.014780	-0.719238	0.406250	-0.546875	0.048355	-0.033519	0.077363	-0.125621	0.263778	-0.148420	0.944781	-23.000989	-27.460438	-159.160434
16446		4.734523	-3.429395	7.744202	-0.324891	0.016954	-0.115096	0.015457	0.033800	0.010347	-0.711914	0.408936	-0.549316	0.047360	-0.034297	0.077431	-0.125686	0.263641	-0.148408	0.944813	-22.996313	-27.443687	-159.158028
16447		4.456880	-3.578671	7.818171	-0.082212	0.227019	-0.130943	0.027464	0.042311	0.003328	-0.718750	0.413330	-0.553711	0.044586	-0.035797	0.078167	-0.125723	0.263458	-0.148335	0.944871	-22.981573	-27.423829	-159.162593
16448		4.393720	-3.621218	7.874534	-0.011099	0.275472	-0.099281	0.037682	0.056917	-0.000750	-0.716064	0.407959	-0.555176	0.043959	-0.036227	0.078726	-0.125750	0.263206	-0.148217	0.944956	-22.958465	-27.397362	-159.172251
16449		4.542827	-3.460423	7.824221	-0.142108	0.093045	-0.127576	0.052915	0.067293	-0.012546	-0.723633	0.413086	-0.551270	0.045452	-0.034628	0.078218	-0.125726	0.262900	-0.148018	0.945075	-22.921929	-27.367864	-159.192511
16450		4.836496	-3.133473	7.795976	-0.355391	-0.292819	-0.128910	0.049757	0.068922	-0.006333	-0.723145	0.407227	-0.558350	0.048391	-0.031356	0.077935	-0.125733	0.262588	-0.147844	0.945188	-22.889022	-27.336298	-159.208575
16451		4.777410	-3.019454	7.867479	-0.256143	-0.392875	-0.137047	0.035245	0.059072	0.003060	-0.721436	0.424561	-0.547607	0.047798	-0.030208	0.078655	-0.125766	0.262321	-0.147744	0.945274	-22.867852	-27.307644	-159.217454
16452		4.830672	-3.100343	7.707007	-0.403498	-0.299992	-0.216195	0.018291	0.042802	0.003715	-0.738037	0.416260	-0.555176	0.048324	-0.031010	0.077057	-0.125801	0.262145	-0.147714	0.945323	-22.858743	-27.287625	-159.220698
16453		4.598392	-3.126345	7.958914	-0.083449	-0.257053	-0.107508	0.004867	0.029814	0.014022	-0.723877	0.409912	-0.554932	0.045998	-0.031262	0.079582	-0.125867	0.262027	-0.147754	0.945340	-22.861334	-27.271976	-159.215724
16454		4.139616	-3.412360	8.016633	0.281192	0.137613	-0.171680	-0.015444	0.016367	0.019814	-0.726807	0.409424	-0.553467	0.041406	-0.034113	0.080166	-0.125950	0.261985	-0.147889	0.945320	-22.878953	-27.262341	-159.203114
16455		4.287770	-3.349336	8.003359	0.160998	0.032484	-0.136438	-0.018277	0.007024	0.015633	-0.726074	0.418457	-0.557617	0.042883	-0.033483	0.080035	-0.126011	0.261988	-0.148026	0.945289	-22.897854	-27.258360	-159.191479
16456		4.597342	-3.296177	7.869185	-0.158645	-0.088640	-0.122931	-0.019262	0.005471	0.014361	-0.728760	0.426514	-0.557617	0.045978	-0.032951	0.078694	-0.126072	0.262004	-0.148164	0.945255	-22.917426	-27.255676	-159.179292
16457		4.713789	-3.334297	7.800712	-0.297304	-0.078269	-0.112484	-0.018722	0.003716	0.009429	-0.736572	0.424805	-0.557129	0.047141	-0.033333	0.078009	-0.126106	0.262028	-0.148293	0.945224	-22.935274	-27.254819	-159.170513
16458		4.736610	-3.228215	7.782702	-0.307626	-0.182295	-0.153524	-0.020273	-0.003025	0.010165	-0.727539	0.430908	-0.554932	0.047367	-0.032272	0.077831	-0.126156	0.262088	-0.148425	0.945180	-22.955275	-27.257546	-159.158225
16459		4.737107	-3.198751	7.809416	-0.287362	-0.218418	-0.141654	-0.030356	-0.005331	0.010410	-0.734863	0.416260	-0.552734	0.047371	-0.031973	0.078100	-0.126185	0.262161	-0.148604	0.945127	-22.981097	-27.261237	-159.146588
16460		4.370511	-3.304931	8.018456	0.114103	-0.053324	-0.101677	-0.042933	-0.015551	0.020880	-0.737061	0.426270	-0.551270	0.043702	-0.033028	0.080195	-0.126265	0.262287	-0.148849	0.945043	-23.018436	-27.268172	-159.124854
16461		4.540371	-3.198120	7.905903	-0.066054	-0.186737	-0.153132	-0.054569	-0.028062	0.020388	-0.733154	0.412354	-0.554443	0.045396	-0.031955	0.079074	-0.126327	0.262475	-0.149142	0.944936	-23.063478	-27.281596	-159.101556
16462		4.486165	-3.251643	7.979100	0.014977	-0.142283	-0.099582	-0.072454	-0.045488	0.030501	-0.734619	0.419678	-0.556152	0.044848	-0.032481	0.079813	-0.126433	0.262753	-0.149520	0.944785	-23.123820	-27.302123	-159.066872
16463		4.957902	-3.179083	7.723156	-0.494573	-0.311074	-0.117683	-0.077623	-0.057368	0.029763	-0.735840	0.420898	-0.554443	0.049562	-0.031753	0.077258	-0.126530	0.263088	-0.149916	0.944616	-23.188065	-27.328832	-159.030545
16464		4.750363	-3.231058	7.815043	-0.273421	-0.225111	-0.119642	-0.088595	-0.064294	0.038001	-0.740723	0.425293	-0.549561	0.047485	-0.032267	0.078180	-0.126664	0.263459	-0.150369	0.944423	-23.261947	-27.357504	-158.986620
16465		4.935698	-3.299036	7.680275	-0.501602	-0.200644	-0.120448	-0.086878	-0.065681	0.035402	-0.748779	0.430176	-0.550049	0.049338	-0.032948	0.076833	-0.126782	0.263834	-0.150809	0.944232	-23.334081	-27.387230	-158.944738
16466		4.493381	-3.343150	7.853314	-0.040608	-0.065104	-0.167182	-0.088048	-0.067884	0.041207	-0.746338	0.417969	-0.551270	0.044914	-0.033388	0.078563	-0.126936	0.264220	-0.151261	0.944031	-23.409036	-27.416972	-158.897693
16467		4.369792	-3.595080	7.913693	0.062699	0.184926	-0.086019	-0.084908	-0.071364	0.043144	-0.747070	0.427734	-0.550049	0.043677	-0.035908	0.079168	-0.127097	0.264615	-0.151699	0.943829	-23.482915	-27.447824	-158.849656
16468		4.240332	-3.841454	7.925594	0.146246	0.442986	-0.048744	-0.078246	-0.080447	0.031353	-0.751465	0.428955	-0.552246	0.042377	-0.038377	0.079288	-0.127223	0.265060	-0.152084	0.943625	-23.551143	-27.486319	-158.805523
16469		4.566858	-3.611647	7.578824	-0.264361	0.196729	-0.261239	-0.060474	-0.083805	0.012397	-0.755859	0.432617	-0.536865	0.045639	-0.036091	0.075818	-0.127281	0.265521	-0.152358	0.943443	-23.604208	-27.530652	-158.772363
16470		4.728056	-3.169967	7.721889	-0.239417	-0.298194	-0.227046	-0.069547	-0.098366	0.007978	-0.750732	0.425293	-0.547852	0.047244	-0.031671	0.077253	-0.127325	0.266063	-0.152659	0.943236	-23.663331	-27.583837	-158.737016
16471		4.783019	-3.215590	7.777773	-0.248587	-0.291966	-0.139840	-0.093735	-0.130171	0.012301	-0.761475	0.431152	-0.540771	0.047782	-0.032116	0.077824	-0.127373	0.266764	-0.153061	0.942966	-23.741136	-27.652454	-158.691718
16472		4.778834	-3.403198	7.800113	-0.245924	-0.129936	-0.056490	-0.111216	-0.160652	0.009243	-0.761963	0.430908	-0.538086	0.047727	-0.033986	0.078058	-0.127412	0.267625	-0.153520	0.942642	-23.832192	-27.737931	-158.639416
16473		4.589993	-3.143672	7.894746	0.021659	-0.336757	-0.160547	-0.124959	-0.179046	0.010579	-0.765381	0.429443	-0.533936	0.045831	-0.031385	0.079008	-0.127448	0.268577	-0.154035	0.942283	-23.933649	-27.832426	-158.582010
16474		4.328193	-3.271286	7.957565	0.273747	-0.157992	-0.186814	-0.155454	-0.213568	0.012430	-0.762451	0.431396	-0.536865	0.043199	-0.032648	0.079647	-0.127483	0.269712	-0.154673	0.941849	-24.057814	-27.944696	-158.513458
16475		4.251002	-3.782117	7.826988	0.210609	0.356059	-0.144907	-0.153866	-0.226219	0.001542	-0.768311	0.427734	-0.526855	0.042422	-0.037761	0.078347	-0.127474	0.270910	-0.155281	0.941406	-24.179650	-28.065765	-158.448337
16476		4.336418	-4.044457	7.624414	0.014926	0.606791	-0.172907	-0.145336	-0.243023	-0.033931	-0.774414	0.438965	-0.531250	0.043265	-0.040396	0.076326	-0.127325	0.272212	-0.155790	0.940967	-24.289347	-28.204071	-158.398849
16477		4.414622	-3.940948	7.587565	-0.025512	0.490082	-0.202785	-0.120071	-0.250547	-0.072990	-0.777588	0.429199	-0.528076	0.044037	-0.039380	0.075955	-0.127029	0.273561	-0.156122	0.940561	-24.374573	-28.355222	-158.370712
16478		4.204302	-3.839822	7.842721	0.333180	0.406891	-0.135291	-0.115465	-0.271880	-0.104013	-0.768066	0.439209	-0.521973	0.041916	-0.038375	0.078506	-0.126614	0.275033	-0.156376	0.940145	-24.451596	-28.525038	-158.354417
16479		4.707574	-3.705226	7.693677	-0.107477	0.154497	-0.063477	-0.116658	-0.304262	-0.134663	-0.783936	0.437500	-0.519531	0.046934	-0.037039	0.077030	-0.126074	0.276678	-0.156572	0.939702	-24.524696	-28.718776	-158.347821
16480		4.704030	-3.613980	7.739885	-0.027930	0.063937	-0.061299	-0.125168	-0.348227	-0.154202	-0.786621	0.439453	-0.510010	0.046878	-0.036127	0.077503	-0.125471	0.278553	-0.156752	0.939199	-24.603279	-28.940283	-158.339668
16481		4.610171	-3.569696	7.818250	0.142022	0.039238	-0.060787	-0.148684	-0.414004	-0.181177	-0.791016	0.428955	-0.516846	0.045907	-0.035680	0.078304	-0.124753	0.280768	-0.156963	0.938599	-24.696204	-29.202266	-158.330128
16482		4.806711	-3.545231	7.669119	-0.047082	-0.008996	-0.092298	-0.163620	-0.509046	-0.198568	-0.787842	0.432617	-0.504639	0.047836	-0.035437	0.076842	-0.124010	0.283453	-0.157161	0.937857	-24.806009	-29.518074	-158.303671
16483		4.584292	-3.535672	7.909513	0.332660	0.005935	-0.016462	-0.176377	-0.613686	-0.242607	-0.803223	0.425049	-0.493896	0.045557	-0.035342	0.079266	-0.123119	0.286665	-0.157288	0.936977	-24.924715	-29.898627	-158.274315
16484		3.931978	-2.672506	8.531478	1.411940	-0.710437	-0.174742	-0.231755	-0.760797	-0.325056	-0.807373	0.424805	-0.496338	0.038951	-0.026690	0.085494	-0.121879	0.290664	-0.157465	0.935876	-25.072006	-30.375689	-158.251705
16485		1.804071	-5.452313	8.115204	2.595786	2.632651	-0.584001	-0.344199	-1.081510	-0.554318	-0.813721	0.422119	-0.469727	0.017450	-0.054432	0.081341	-0.119650	0.296401	-0.157634	0.934335	-25.260335	-31.074651	-158.275162
16486		3.344135	-3.624223	8.647152	2.063393	0.362725	-0.081296	-0.327188	-1.480709	-0.761365	-0.827393	0.415283	-0.464111	0.032662	-0.036226	0.086775	-0.116787	0.304141	-0.157170	0.932286	-25.434442	-32.031324	-158.306917
16487		2.964859	-4.180099	8.554594	2.420574	1.055615	-0.196695	-0.329922	-1.906971	-0.977534	-0.851318	0.417236	-0.440430	0.028626	-0.041801	0.085891	-0.113235	0.314009	-0.156125	0.929624	-25.606783	-33.261677	-158.343615
16488		2.831967	-4.264113	8.477035	2.692457	1.248757	-0.365567	-0.323309	-2.406728	-1.219232	-0.861816	0.405762	-0.420410	0.027036	-0.042671	0.085170	-0.108944	0.326338	-0.154364	0.926178	-25.776572	-34.810287	-158.377068
16489		3.205631	-4.176624	8.215682	2.523003	1.189875	-0.462418	-0.273518	-2.970578	-1.487049	-0.880859	0.392822	-0.388672	0.030520	-0.041884	0.082675	-0.103903	0.341381	-0.151592	0.921783	-25.921367	-36.716507	-158.402789
16490		3.463271	-4.677473	8.206674	2.609188	1.693001	-0.245286	-0.138135	-3.536465	-1.777211	-0.909424	0.374756	-0.356934	0.032757	-0.047014	0.082689	-0.098152	0.359067	-0.147357	0.916364	-25.984481	-38.987082	-158.434171
16491		3.566849	-5.133860	8.212557	2.885104	2.239958	-0.160449	0.096801	-4.040753	-2.050324	-0.926270	0.350342	-0.318115	0.033471	-0.051729	0.082792	-0.091897	0.378985	-0.141240	0.909932	-25.898384	-41.585897	-158.486315
16492		4.089439	-5.298150	8.324673	3.017832	2.427883	0.140616	0.388298	-4.458845	-2.329027	-0.946533	0.334473	-0.281982	0.038405	-0.053601	0.084018	-0.085166	0.400649	-0.132998	0.902518	-25.596809	-44.469654	-158.607338
16493		5.043847	-5.291746	8.498645	2.989105	2.401204	0.720010	0.766473	-4.830131	-2.602308	-0.973145	0.298340	-0.235840	0.047673	-0.053878	0.085955	-0.078149	0.423727	-0.122248	0.894094	-24.992815	-47.611901	-158.840398
16494		7.045081	-4.617076	9.627741	3.191023	1.436777	2.489724	1.094603	-5.119351	-2.773939	-0.992676	0.285156	-0.182617	0.067307	-0.047651	0.097769	-0.071171	0.447724	-0.109459	0.884589	-24.109676	-50.943240	-159.182585
16495		8.620620	-3.580602	9.324613	2.694481	0.523671	3.090607	1.133978	-5.359517	-2.790898	-1.012939	0.240967	-0.140381	0.083155	-0.037517	0.095292	-0.064274	0.472371	-0.096268	0.873766	-23.161007	-54.400677	-159.562013
16496		12.799116	-3.077846	10.652854	2.340907	-0.511008	6.948615	0.801279	-5.519532	-2.687239	-1.031006	0.210938	-0.087891	0.124557	-0.032903	0.109869	-0.057060	0.497322	-0.084636	0.861540	-22.420741	-57.915662	-159.904386
16497		14.154799	-5.705368	9.674197	1.697477	2.364763	8.018151	0.511042	-5.112055	-2.484587	-1.028076	0.191406	-0.034912	0.138292	-0.059038	0.100156	-0.049775	0.520076	-0.074795	0.849382	-21.767394	-61.168292	-160.325983
16498		12.480576	-2.129047	7.610087	1.455034	-0.342061	4.881714	0.349239	-4.811554	-2.251144	-1.035156	0.158936	0.013916	0.122677	-0.022816	0.079031	-0.042909	0.541109	-0.066270	0.837238	-21.209275	-64.209019	-160.732648
16499		13.895938	-2.675027	8.637102	2.521874	0.228706	6.569952	-0.151405	-4.224199	-1.975904	-1.026367	0.150146	0.054443	0.136821	-0.028042	0.089297	-0.035620	0.559362	-0.060665	0.825933	-20.895442	-66.877781	-161.176019
16500		14.662278	-7.119563	10.009942	4.200053	4.711376	8.242643	-0.177791	-3.059932	-1.668083	-1.026123	0.119873	0.087158	0.144468	-0.072316	0.102385	-0.029157	0.572480	-0.056217	0.817470	-20.327659	-68.858318	-161.902960
16501		8.065479	-13.389304	18.598614	15.044694	11.345931	5.521820	0.015680	-1.396263	-0.924236	-1.019287	0.106689	0.105225	0.078734	-0.134274	0.186530	-0.025817	0.578455	-0.053333	0.813559	-19.738830	-69.794721	-162.526005
16502		-1.405565	-12.303723	17.344648	17.052266	11.400283	-4.029339	0.323938	0.444134	-0.093816	-1.011230	0.103760	0.091309	-0.013729	-0.123311	0.173278	-0.026247	0.576656	-0.051844	0.814918	-19.200614	-69.575584	-162.906990
16503		-4.802085	-6.953349	12.888668	13.851188	6.728114	-9.179452	0.527470	1.238531	0.154214	-1.010498	0.107666	0.075195	-0.047168	-0.069910	0.128996	-0.028076	0.571519	-0.050333	0.818563	-18.526091	-68.878960	-163.308484
16504		-5.498952	-3.942931	10.819608	12.103116	3.947247	-10.695681	0.208296	1.560094	0.227167	-0.994873	0.102539	0.057373	-0.054099	-0.039604	0.108579	-0.029196	0.565053	-0.050395	0.822996	-18.023007	-67.991881	-163.726982
16505		-1.580250	-5.186017	12.568593	12.310440	4.661707	-6.060856	-0.218049	2.110842	0.308982	-0.990967	0.104004	0.035645	-0.014394	-0.051746	0.125899	-0.029319	0.556320	-0.052502	0.828789	-17.673624	-66.789913	-164.244119
16506		-0.091046	-6.673782	11.857358	11.013362	5.941803	-4.471015	-0.452324	2.901703	0.444836	-0.982666	0.113281	0.006104	0.000959	-0.066469	0.118719	-0.029116	0.544206	-0.056089	0.836568	-17.366985	-65.130027	-164.871240
16507		0.275776	-6.435766	10.346328	9.346308	5.662508	-4.417304	-0.477203	3.560656	0.591428	-0.983887	0.113525	-0.034180	0.004791	-0.064099	0.103543	-0.029290	0.529159	-0.060234	0.845875	-17.072911	-63.084579	-165.505435
16508		0.823203	-5.237700	9.064634	7.768259	4.402302	-4.286485	-0.569168	3.994261	0.761539	-0.964355	0.131348	-0.078613	0.010241	-0.052083	0.090604	-0.029763	0.512028	-0.065289	0.855967	-16.936430	-60.770544	-166.038772
16509		1.597854	-4.907444	8.073468	6.319516	3.952462	-3.792270	-0.756996	4.275871	0.953672	-0.955322	0.132568	-0.121582	0.017935	-0.048687	0.080550	-0.030508	0.493437	-0.071622	0.866291	-17.050209	-58.271483	-166.413611
16510		2.626778	-5.062256	7.428379	4.996242	3.910342	-2.925008	-0.857334	4.465890	1.155564	-0.933105	0.140137	-0.161621	0.028211	-0.050146	0.073884	-0.031757	0.473693	-0.078907	0.876573	-17.359167	-55.633265	-166.640601
16511		3.758017	-4.757039	7.334683	3.986099	3.326204	-1.838926	-0.900933	4.607414	1.393707	-0.916016	0.141602	-0.201416	0.039588	-0.046971	0.072663	-0.033911	0.452986	-0.086895	0.886625	-17.832013	-52.879067	-166.697941
16512		4.661552	-4.178698	7.250936	3.012350	2.475275	-1.063505	-0.951527	4.687143	1.614681	-0.903320	0.164795	-0.240967	0.048634	-0.041058	0.071582	-0.036779	0.431535	-0.095615	0.896260	-18.438660	-50.040847	-166.635674
16513		5.637172	-3.434196	7.510443	2.175187	1.376900	-0.151958	-0.995190	4.698628	1.756111	-0.865967	0.181396	-0.275879	0.058414	-0.033465	0.073916	-0.040251	0.409718	-0.104726	0.905287	-19.113681	-47.171610	-166.500287
16514		6.990186	-2.894824	7.966784	1.140357	0.350669	1.108069	-1.078102	4.671549	1.812653	-0.841797	0.190186	-0.323975	0.071995	-0.027878	0.078155	-0.043704	0.387716	-0.114297	0.913621	-19.827177	-44.303624	-166.382922
16515		8.368588	-3.653005	7.874980	-0.407244	0.634041	2.220382	-1.119542	4.641826	1.814974	-0.818604	0.217529	-0.357666	0.085810	-0.035323	0.076975	-0.047168	0.365629	-0.123936	0.921266	-20.529605	-41.451973	-166.298089
16516		9.348906	-4.510632	7.083018	-2.212890	1.205477	2.497336	-1.005916	4.533461	1.806078	-0.789795	0.226074	-0.385010	0.095466	-0.043900	0.068904	-0.050732	0.343759	-0.132969	0.928211	-21.147839	-38.657960	-166.250560
16517		10.354160	-5.138158	6.766985	-3.732538	1.460931	2.966377	-0.889462	4.283838	1.839810	-0.762451	0.250244	-0.423828	0.105427	-0.050122	0.065650	-0.054892	0.322820	-0.141337	0.934237	-21.727538	-35.991345	-166.140289
16518		11.604944	-5.862112	7.147208	-5.042730	1.581055	4.049430	-0.833394	3.973824	1.981584	-0.720703	0.258301	-0.451660	0.118013	-0.057166	0.069380	-0.059907	0.303011	-0.149542	0.939272	-22.347793	-33.456472	-165.906025
16519		12.146022	-6.133869	6.987433	-6.129088	1.492466	4.120966	-0.835822	3.658086	2.212657	-0.693115	0.274170	-0.464600	0.123381	-0.059694	0.067881	-0.066297	0.284392	-0.157908	0.943287	-23.059665	-31.036852	-165.475427
16520		12.697332	-6.183355	6.854561	-7.179438	1.142519	4.099793	-0.821538	3.284034	2.458707	-0.659912	0.295898	-0.479980	0.128824	-0.059981	0.066689	-0.074130	0.267193	-0.166373	0.946273	-23.849208	-28.751322	-164.844972
16521		13.359937	-5.706750	6.979864	-8.127601	0.154404	4.103355	-0.800448	2.914276	2.737378	-0.619629	0.305908	-0.494385	0.135361	-0.054948	0.068057	-0.083588	0.251405	-0.174891	0.948273	-24.702700	-26.587472	-164.001615
16522		13.167103	-4.663662	6.673211	-8.464053	-1.059459	3.104740	-0.686697	2.567494	2.951311	-0.596191	0.318359	-0.496582	0.133181	-0.044453	0.065184	-0.094469	0.236910	-0.182934	0.949465	-25.535886	-24.539038	-162.993194
16523		12.850116	-3.092247	6.865590	-8.288702	-2.856340	2.226248	-0.525909	2.205156	3.080983	-0.565918	0.333740	-0.499512	0.129702	-0.028752	0.067308	-0.106455	0.223865	-0.190115	0.949952	-26.294217	-22.634079	-161.859094
16524		13.074747	-2.500013	7.324911	-8.471543	-3.984889	2.153187	-0.359463	1.885153	3.173793	-0.538330	0.340576	-0.504150	0.131804	-0.022784	0.072052	-0.119331	0.212071	-0.196383	0.949853	-26.961166	-20.854909	-160.626780
16525		12.971933	-1.786648	7.473611	-8.425032	-5.014127	1.640448	-0.098246	1.644208	3.176326	-0.508789	0.344971	-0.504150	0.130589	-0.015761	0.073673	-0.132697	0.201204	-0.201192	0.949437	-27.454857	-19.187835	-159.358483
16526		12.896850	-1.072950	7.423076	-8.418015	-5.948155	0.972553	0.161075	1.452868	3.090399	-0.495850	0.356445	-0.502441	0.129649	-0.008789	0.073283	-0.146063	0.191088	-0.204506	0.948856	-27.761719	-17.631159	-158.108007
16527		12.569845	-0.545002	6.805966	-8.396380	-6.388182	-0.153568	0.417745	1.317984	2.878588	-0.474854	0.363281	-0.517822	0.126206	-0.003777	0.067220	-0.158773	0.181599	-0.206234	0.948304	-27.863128	-16.196542	-156.947474
16528		11.969939	0.149814	6.185101	-8.036241	-6.799151	-1.402005	0.574278	1.197479	2.549700	-0.457031	0.361572	-0.510498	0.120036	0.002851	0.061140	-0.170148	0.172845	-0.206788	0.947846	-27.809397	-14.909473	-155.935707
16529		11.492640	0.364642	5.520518	-7.869071	-6.765223	-2.396907	0.540113	1.064982	2.193530	-0.450684	0.359619	-0.523438	0.115170	0.004761	0.054604	-0.179917	0.165094	-0.207036	0.947370	-27.715805	-13.786960	-155.077134
16530		11.027686	0.434524	4.496891	-7.859014	-6.448261	-3.593939	0.397248	0.878321	1.839711	-0.441162	0.363281	-0.528809	0.110427	0.005272	0.044494	-0.188057	0.158694	-0.207482	0.946785	-27.658479	-12.853637	-154.354791
16531		10.998306	0.745985	4.080700	-7.903396	-6.685154	-4.243667	0.209168	0.667930	1.466566	-0.420166	0.372070	-0.519531	0.110060	0.008224	0.040448	-0.194488	0.153846	-0.208298	0.946107	-27.668109	-12.127450	-153.770505
16532		11.106615	0.726251	3.875232	-8.073905	-6.747246	-4.503542	0.021028	0.486032	1.104259	-0.419678	0.366943	-0.520508	0.111118	0.007872	0.038483	-0.199236	0.150407	-0.209544	0.945396	-27.750945	-11.589039	-153.326926
16533		10.495192	1.084094	3.275018	-7.636887	-6.647012	-5.391755	-0.069625	0.309772	0.729061	-0.420654	0.377441	-0.521484	0.104962	0.011235	0.032584	-0.202325	0.148284	-0.210749	0.944807	-27.852622	-11.240090	-153.030427
16534		9.835597	1.312164	2.693471	-7.187794	-6.388499	-6.174268	-0.133879	0.071078	0.365712	-0.422607	0.372803	-0.517334	0.098341	0.013319	0.026891	-0.203897	0.147734	-0.211749	0.944332	-27.966480	-11.108599	-152.857448
16535		9.550142	0.595124	2.606696	-7.187729	-5.658215	-5.981842	-0.140614	-0.201371	0.048199	-0.420654	0.369141	-0.518311	0.095474	0.005993	0.026159	-0.204255	0.148814	-0.212264	0.943969	-28.066418	-11.200350	-152.773358
16536		10.013143	-0.250385	3.519921	-7.508529	-5.480567	-4.684262	-0.093208	-0.432126	-0.197785	-0.425293	0.365234	-0.521973	0.100053	-0.002586	0.035417	-0.203730	0.151196	-0.212139	0.943732	-28.127450	-11.474940	-152.752591
16537		10.770052	-0.985073	4.975380	-7.831554	-5.693811	-2.886963	-0.088969	-0.502915	-0.322197	-0.423828	0.371826	-0.520752	0.107559	-0.010002	0.050029	-0.202696	0.154039	-0.211823	0.943566	-28.176815	-11.818957	-152.775952
16538		10.130199	-1.070115	5.237257	-7.168625	-5.403934	-2.699116	-0.126886	-0.453049	-0.402052	-0.434814	0.370850	-0.511963	0.101161	-0.010871	0.052609	-0.201200	0.156769	-0.211675	0.943470	-28.236757	-12.159645	-152.854129
16539		8.538046	-0.746251	4.463322	-5.948181	-4.674771	-3.800891	-0.148141	-0.463102	-0.554178	-0.438477	0.375732	-0.513672	0.085256	-0.007666	0.044836	-0.198980	0.159726	-0.211493	0.943486	-28.291873	-12.546556	-153.007763
16540		8.203583	-0.825885	4.665952	-5.575650	-4.492773	-3.609575	-0.210488	-0.547052	-0.746287	-0.447754	0.372559	-0.501953	0.081876	-0.008515	0.046892	-0.195887	0.163345	-0.211365	0.943542	-28.365117	-13.028631	-153.237154
16541		8.104611	-1.431995	5.099565	-5.466937	-4.043221	-2.920287	-0.261446	-0.578134	-0.905358	-0.449463	0.369873	-0.503906	0.080832	-0.014619	0.051248	-0.192032	0.167320	-0.211311	0.943650	-28.448350	-13.569609	-153.540019
16542		7.508088	-1.884083	5.094253	-5.038985	-3.350452	-2.794502	-0.287118	-0.589915	-1.039263	-0.457031	0.373291	-0.502930	0.074831	-0.019157	0.051191	-0.187528	0.171517	-0.211248	0.943817	-28.527840	-14.154151	-153.908861
16543		6.666369	-2.166472	5.003991	-4.373075	-2.664890	-2.888253	-0.286805	-0.625627	-1.168179	-0.461426	0.379150	-0.508789	0.066379	-0.021981	0.050279	-0.182446	0.176005	-0.211030	0.944035	-28.588783	-14.791796	-154.334948
16544		6.265925	-2.284431	5.269237	-3.890022	-2.425196	-2.655135	-0.341209	-0.693125	-1.262032	-0.468506	0.380859	-0.496094	0.062331	-0.023148	0.052948	-0.176935	0.180959	-0.210913	0.944173	-28.668443	-15.490436	-154.791088
16545		6.282816	-2.909537	5.542756	-3.880963	-1.932267	-2.075458	-0.404925	-0.749546	-1.272965	-0.473877	0.380127	-0.500000	0.062433	-0.029381	0.055721	-0.171365	0.186230	-0.211026	0.944151	-28.781645	-16.220398	-155.237297
16546		6.330383	-3.677602	5.910057	-3.870046	-1.356015	-1.344513	-0.333157	-0.737233	-1.259843	-0.488525	0.373779	-0.494141	0.062852	-0.037074	0.059394	-0.165900	0.191364	-0.210810	0.944148	-28.849336	-16.942137	-155.680430
16547		5.872521	-3.620926	6.260971	-3.219620	-1.275315	-1.163762	-0.235762	-0.669024	-1.218664	-0.492920	0.389648	-0.490234	0.058293	-0.036491	0.062848	-0.160643	0.196035	-0.210220	0.944231	-28.856054	-17.617631	-156.123026
16548		4.630252	-3.903797	6.650560	-1.945053	-0.623205	-1.052760	-0.233213	-0.604423	-1.178385	-0.499756	0.388916	-0.483398	0.045870	-0.039231	0.066690	-0.155502	0.200355	-0.209698	0.944301	-28.856981	-18.250615	-156.564488
16549		-13.500236	-23.558881	25.433920	18.175730	17.079338	17.793280	0.779460	-0.251649	-0.940593	-0.511719	0.385986	-0.490479	-0.136431	-0.235938	0.253249	-0.152123	0.201956	-0.204899	0.945563	-28.279945	-18.637790	-156.986568
16550		-20.055462	-10.393637	23.786742	25.869462	8.670396	8.398517	0.354822	0.944139	-0.202530	-0.505615	0.384766	-0.502197	-0.199535	-0.104157	0.238626	-0.150573	0.197470	-0.203757	0.947004	-27.962331	-18.218972	-157.358959
16551		-16.065847	2.587406	-10.223339	10.112110	6.886354	-24.633015	0.244834	-0.740312	-0.855480	-0.516602	0.386230	-0.492188	-0.160166	0.026685	-0.102795	-0.147536	0.201696	-0.201216	0.947135	-27.747676	-18.825889	-157.602848
16552		7.593187	-5.592873	10.542887	-2.946582	-1.122757	3.976213	0.598605	-2.265235	-1.421699	-0.526611	0.370850	-0.486328	0.074331	-0.056778	0.106108	-0.143690	0.213431	-0.195284	0.946396	-27.366194	-20.356445	-157.727961
16553		18.286876	-9.134675	16.423468	-9.890560	-3.417565	14.230375	0.304337	-1.233708	-0.568671	-0.527588	0.375000	-0.493164	0.181590	-0.092115	0.165218	-0.142544	0.219637	-0.192370	0.945746	-27.209469	-21.136939	-157.686906
16554		6.400431	-1.691246	4.696286	-3.602283	-2.161358	-2.867725	0.457340	-0.798154	-0.412961	-0.543213	0.376709	-0.477295	0.063781	-0.017152	0.047179	-0.141877	0.223519	-0.189209	0.945574	-26.951439	-21.655123	-157.685404
16555		4.825002	-4.245030	9.680266	-0.260420	-0.743461	1.779825	0.343949	-1.087658	-0.382714	-0.552002	0.370850	-0.480957	0.047641	-0.042709	0.096990	-0.141497	0.228812	-0.186405	0.944922	-26.793789	-22.313070	-157.588399
16556		4.815559	-3.317354	7.331321	-1.121098	-0.830823	-0.539351	0.254553	-1.074203	-0.204793	-0.558350	0.371094	-0.473633	0.047727	-0.033316	0.073528	-0.141837	0.233935	-0.184231	0.944042	-26.724791	-22.918847	-157.397482
16557		4.356970	-3.419055	8.166529	-0.239191	-0.766908	0.021886	0.237329	-1.195796	-0.194709	-0.558105	0.370605	-0.470459	0.043047	-0.034330	0.081883	-0.142312	0.239622	-0.182056	0.942966	-26.683043	-23.584001	-157.166648
16558		4.004797	-3.837712	8.563813	0.286826	-0.328797	0.381130	0.200667	-1.128027	-0.166960	-0.570313	0.369141	-0.466797	0.039532	-0.038496	0.085823	-0.142806	0.244986	-0.180130	0.941882	-26.663890	-24.207893	-156.938534
16559		4.218558	-3.221615	8.080601	0.070156	-0.779591	-0.176426	0.194080	-1.085662	-0.224995	-0.573975	0.378418	-0.464844	0.041710	-0.032342	0.081002	-0.142978	0.250196	-0.178187	0.940855	-26.632245	-24.824637	-156.754297
16560		4.945595	-4.038651	8.480775	-0.377148	-0.363752	0.790027	0.227645	-1.015836	-0.301038	-0.591797	0.375244	-0.461670	0.048964	-0.040557	0.085011	-0.142765	0.255117	-0.176037	0.939970	-26.556914	-25.425727	-156.632531
16561		4.726045	-3.350969	8.565773	0.065069	-0.869736	0.491458	0.231880	-0.907531	-0.329054	-0.593262	0.387207	-0.466553	0.046816	-0.033686	0.085832	-0.142329	0.259540	-0.173902	0.939223	-26.459513	-25.978157	-156.557935
16562		4.429238	-3.293729	8.380691	0.304933	-0.718193	0.191975	0.165488	-0.863171	-0.319279	-0.600098	0.382324	-0.446289	0.043877	-0.033077	0.083970	-0.141809	0.263791	-0.172121	0.938445	-26.397765	-26.505898	-156.490788
16563		5.590222	-3.290859	8.180869	-0.672128	-1.040270	0.554195	0.135749	-0.858457	-0.334006	-0.614014	0.383545	-0.445313	0.055495	-0.033057	0.082025	-0.141175	0.268044	-0.170458	0.937639	-26.348761	-27.034554	-156.433798
16564		9.054744	-4.015335	10.191522	-2.433419	-2.059526	4.037017	0.180665	-0.641307	-0.329727	-0.614014	0.385498	-0.447754	0.090154	-0.040394	0.102168	-0.140432	0.271243	-0.168741	0.937141	-26.247235	-27.451136	-156.436777
16565		8.894692	-4.568888	9.466911	-2.745877	-1.280655	3.619833	0.172899	-0.212966	-0.195759	-0.621826	0.382813	-0.442871	0.088801	-0.045858	0.094724	-0.139946	0.272321	-0.167541	0.937116	-26.128880	-27.613122	-156.485230
16566		5.660727	-4.498584	7.992799	-0.913402	0.180548	0.925049	0.206525	-0.076282	-0.103777	-0.627197	0.380371	-0.448486	0.056553	-0.045098	0.079903	-0.139820	0.272662	-0.166404	0.937238	-25.998014	-27.682086	-156.519402
16567		5.190553	-3.091683	8.960581	0.250159	-1.133598	0.931832	0.170852	-0.023596	-0.076049	-0.621582	0.388672	-0.453369	0.051883	-0.031013	0.089585	-0.139732	0.272753	-0.165508	0.937384	-25.887769	-27.716313	-156.552661
16568		5.715511	-3.157973	8.283393	-0.567527	-1.086513	0.663565	0.067144	0.034295	-0.047204	-0.629395	0.390869	-0.448975	0.057162	-0.031621	0.082814	-0.139589	0.272626	-0.165179	0.937500	-25.837384	-27.714037	-156.585391
16569		5.381957	-4.102742	7.721091	-0.776220	0.024998	0.424991	0.059923	0.040029	-0.028577	-0.637451	0.400146	-0.451172	0.053829	-0.041058	0.077188	-0.139520	0.272456	-0.164912	0.937606	-25.795173	-27.703539	-156.609013
16570		5.103194	-3.454142	7.644360	-0.484096	-0.441828	-0.015731	0.062501	0.013144	-0.020502	-0.630615	0.393066	-0.465820	0.051033	-0.034571	0.076429	-0.139514	0.272410	-0.164626	0.937671	-25.757451	-27.705505	-156.620214
16571		5.118839	-3.889411	7.690380	-0.547678	-0.058627	0.195738	0.047598	0.008416	-0.015547	-0.643311	0.397217	-0.454590	0.051189	-0.038916	0.076892	-0.139515	0.272387	-0.164412	0.937715	-25.729973	-27.708053	-156.627339
16572		4.394097	-3.954962	7.986345	0.192840	0.190580	0.119986	0.052317	0.023141	-0.010852	-0.643066	0.392822	-0.457275	0.043948	-0.039573	0.079848	-0.139532	0.272293	-0.164194	0.937778	-25.699396	-27.702468	-156.635718
16573		4.633862	-3.480908	7.663696	-0.102219	-0.245787	-0.207961	0.028219	0.020944	-0.013562	-0.645996	0.407227	-0.462891	0.046344	-0.034823	0.076627	-0.139506	0.272223	-0.164083	0.937822	-25.681925	-27.698048	-156.645203
16574		5.067918	-3.474945	7.653403	-0.460306	-0.399532	-0.016662	0.015653	0.000570	-0.007752	-0.650879	0.395264	-0.452393	0.050678	-0.034757	0.076531	-0.139506	0.272258	-0.164025	0.937822	-25.676139	-27.703344	-156.645439
16575		4.719779	-3.292725	7.873550	-0.022295	-0.494620	-0.072770	-0.017163	-0.011088	0.024657	-0.646729	0.412354	-0.463135	0.047197	-0.032915	0.078741	-0.139623	0.272338	-0.164156	0.937758	-25.699210	-27.705971	-156.623649
16576		4.596646	-3.448243	7.920413	0.080282	-0.325932	-0.033127	-0.054294	-0.029162	0.041239	-0.654053	0.407471	-0.459473	0.045962	-0.034451	0.079220	-0.139782	0.272521	-0.164472	0.937626	-25.750658	-27.714444	-156.586962
16577		4.726840	-3.408860	7.729855	-0.119539	-0.371092	-0.139942	-0.084971	-0.041353	0.050938	-0.659668	0.405273	-0.455811	0.047261	-0.034044	0.077323	-0.139955	0.272769	-0.164936	0.937446	-25.823677	-27.726101	-156.541326
16578		4.558397	-3.625790	7.922231	0.093902	-0.170011	0.018353	-0.095554	-0.051223	0.068257	-0.663818	0.408447	-0.466797	0.045576	-0.036204	0.079251	-0.140202	0.273062	-0.165466	0.937231	-25.909005	-27.739120	-156.482639
16579		5.029009	-3.501884	7.566968	-0.456446	-0.376819	-0.093491	-0.115063	-0.073371	0.059900	-0.657959	0.419434	-0.469971	0.050273	-0.034960	0.075708	-0.140403	0.273473	-0.166061	0.936976	-26.005966	-27.764904	-156.422660
16580		4.985329	-3.932138	7.414456	-0.570723	0.052256	-0.067899	-0.111276	-0.068269	0.061349	-0.673096	0.414795	-0.458740	0.049840	-0.039265	0.074183	-0.140618	0.273864	-0.166642	0.936726	-26.100887	-27.788214	-156.362108
16581		3.964260	-4.102770	7.634360	0.359649	0.506454	-0.302394	-0.101717	-0.068681	0.047802	-0.666504	0.423340	-0.463623	0.039626	-0.040979	0.076378	-0.140776	0.274253	-0.167161	0.936496	-26.186398	-27.814467	-156.310381
16582		4.459944	-4.292570	7.185093	-0.316800	0.600682	-0.353214	-0.059923	-0.092772	0.022300	-0.680420	0.424072	-0.461670	0.044571	-0.042899	0.071884	-0.140899	0.274755	-0.167431	0.936282	-26.244692	-27.860105	-156.265347
16583		4.961331	-4.347964	7.075499	-0.784185	0.496395	-0.183517	-0.006736	-0.088007	-0.016393	-0.680664	0.421387	-0.457520	0.049579	-0.043481	0.070778	-0.140903	0.275222	-0.167403	0.936149	-26.261033	-27.912471	-156.245302
16584		4.690823	-4.257286	7.373083	-0.374534	0.444307	-0.109442	0.048368	-0.078182	-0.036918	-0.676514	0.429932	-0.462891	0.046872	-0.042599	0.073739	-0.140885	0.275628	-0.167095	0.936088	-26.239299	-27.965611	-156.238906
16585		5.068622	-4.188244	7.549364	-0.562967	0.214720	0.180419	0.082889	-0.062273	-0.067831	-0.682129	0.429443	-0.453369	0.050649	-0.041931	0.075492	-0.140750	0.275954	-0.166594	0.936101	-26.186795	-28.017780	-156.256202
16586		5.219869	-3.616597	7.946612	-0.357628	-0.440108	0.343781	0.048856	-0.061011	-0.053130	-0.682373	0.429932	-0.461182	0.052165	-0.036199	0.079473	-0.140647	0.276294	-0.166273	0.936073	-26.158091	-28.066168	-156.263681
16587		4.985313	-3.925445	7.468940	-0.484920	0.039663	-0.024388	0.009805	-0.044242	-0.037880	-0.690918	0.429688	-0.464111	0.049829	-0.039268	0.074698	-0.140536	0.276562	-0.166169	0.936029	-26.153191	-28.101483	-156.268754
16588		5.051071	-3.583135	7.425839	-0.498172	-0.279823	-0.160290	0.018266	-0.051561	-0.046098	-0.688721	0.432617	-0.461426	0.050483	-0.035850	0.074268	-0.140415	0.276873	-0.166007	0.935984	-26.142626	-28.143259	-156.275026
16589		4.546573	-3.809673	7.546532	-0.055871	0.080141	-0.214483	0.015286	-0.049921	-0.039879	-0.693604	0.432129	-0.454102	0.045439	-0.038112	0.075474	-0.140307	0.277165	-0.165871	0.935938	-26.134789	-28.181999	-156.279655
16590		4.187773	-3.838080	7.670865	0.304544	0.208941	-0.274655	0.032238	-0.047627	-0.059461	-0.682129	0.440430	-0.461426	0.041848	-0.038406	0.076712	-0.140140	0.277459	-0.165628	0.935919	-26.111999	-28.225119	-156.294692
16591		4.385902	-4.006105	7.470686	0.007542	0.344948	-0.274495	0.062825	-0.046972	-0.072741	-0.697021	0.438232	-0.458740	0.043827	-0.040100	0.074705	-0.139942	0.277732	-0.165225	0.935939	-26.067414	-28.270619	-156.319402
16592		4.171097	-3.798561	7.480310	0.225178	0.241151	-0.449286	0.091667	-0.032919	-0.097754	-0.695068	0.446045	-0.458496	0.041680	-0.038040	0.074793	-0.139670	0.277948	-0.164660	0.936015	-25.997978	-28.315731	-156.360597
16593		4.749112	-3.807492	7.318995	-0.332266	0.096906	-0.299594	0.131818	-0.015709	-0.127811	-0.697021	0.439941	-0.458740	0.047461	-0.038153	0.073169	-0.139284	0.278071	-0.163880	0.936173	-25.894231	-28.358874	-156.426596
16594		4.752255	-3.754552	7.577852	-0.181028	0.004762	-0.113635	0.128183	0.040896	-0.128338	-0.696533	0.424561	-0.461182	0.047514	-0.037625	0.075745	-0.138862	0.277940	-0.163153	0.936402	-25.785298	-28.373416	-156.506583
16595		4.506205	-4.175269	7.372964	-0.176467	0.537052	-0.232513	0.163337	0.090744	-0.137397	-0.701904	0.439697	-0.460449	0.045067	-0.041844	0.073675	-0.138388	0.277550	-0.162285	0.936738	-25.646394	-28.363756	-156.608499
16596		4.800330	-4.059302	7.302691	-0.445938	0.365748	-0.194075	0.218525	0.137228	-0.166875	-0.701904	0.438477	-0.464111	0.048019	-0.040713	0.072950	-0.137827	0.276936	-0.161148	0.937199	-25.462028	-28.337709	-156.738834
16597		5.107574	-4.046764	7.421155	-0.643435	0.246388	0.039334	0.261110	0.191772	-0.177344	-0.708984	0.442139	-0.467285	0.051111	-0.040610	0.074110	-0.137218	0.276037	-0.159836	0.937778	-25.242760	-28.284971	-156.892270
16598		5.048191	-3.777528	7.452216	-0.555653	0.042477	-0.066981	0.280704	0.236835	-0.184144	-0.707031	0.437256	-0.473877	0.050535	-0.037926	0.074409	-0.136587	0.274926	-0.158451	0.938431	-25.005407	-28.210556	-157.059263
16599		4.841134	-3.932900	7.484123	-0.423346	0.276794	-0.083330	0.295465	0.270549	-0.181145	-0.705078	0.435791	-0.467773	0.048477	-0.039483	0.074717	-0.135944	0.273634	-0.157025	0.939141	-24.755914	-28.116677	-157.235770
16600		4.470763	-3.489797	7.676813	0.031693	-0.016385	-0.268136	0.289349	0.268645	-0.177880	-0.712891	0.447021	-0.469971	0.044780	-0.035049	0.076657	-0.135329	0.272361	-0.155629	0.939833	-24.512254	-28.022937	-157.406590
16601		5.494685	-3.198331	7.777679	-0.726079	-0.626321	0.186992	0.252952	0.259772	-0.155887	-0.706543	0.434326	-0.478516	0.055023	-0.032124	0.077665	-0.134754	0.271126	-0.154429	0.940470	-24.296549	-27.927412	-157.564086
16602		4.506286	-3.132756	7.985409	0.181049	-0.377388	-0.132179	0.193996	0.220704	-0.107831	-0.716797	0.440674	-0.485107	0.045134	-0.031429	0.079774	-0.134379	0.270087	-0.153541	0.940968	-24.133907	-27.841129	-157.679084
16603		4.415688	-2.882181	8.205143	0.399549	-0.610762	-0.086592	0.112212	0.148016	-0.081469	-0.706299	0.447998	-0.488770	0.044206	-0.028886	0.082003	-0.134049	0.269415	-0.153028	0.941291	-24.033946	-27.785886	-157.762185
16604		4.179687	-2.898351	8.314664	0.640266	-0.533332	-0.101382	0.039285	0.064258	-0.059812	-0.709717	0.445313	-0.490479	0.041815	-0.029012	0.083128	-0.133813	0.269178	-0.152827	0.941425	-23.992821	-27.769898	-157.806832
16605		4.157762	-3.269394	8.060716	0.454345	-0.127984	-0.183136	-0.007823	0.005033	-0.049241	-0.710449	0.450195	-0.478760	0.041572	-0.032701	0.080607	-0.133583	0.269234	-0.152826	0.941442	-23.988174	-27.781874	-157.833088
16606		4.610079	-3.338781	7.843731	-0.042865	-0.167874	-0.122776	-0.039079	-0.033464	-0.059183	-0.718262	0.455322	-0.483154	0.046078	-0.033386	0.078452	-0.133322	0.269510	-0.152930	0.941383	-24.004132	-27.816843	-157.851237
16607		4.655877	-3.243732	7.942869	-0.002575	-0.292354	-0.055501	-0.058451	-0.055628	-0.056494	-0.712646	0.458496	-0.488281	0.046528	-0.032427	0.079451	-0.133036	0.269891	-0.153117	0.941284	-24.033929	-27.862268	-157.865796
16608		4.680388	-3.489809	7.788209	-0.139349	-0.042581	-0.080280	-0.063791	-0.066265	-0.058306	-0.718994	0.453125	-0.483154	0.046768	-0.034887	0.077909	-0.132775	0.270337	-0.153315	0.941161	-24.068372	-27.914184	-157.874208
16609		5.276997	-3.391436	7.538931	-0.738153	-0.278187	-0.037118	-0.059475	-0.071011	-0.063670	-0.725098	0.464111	-0.478760	0.052732	-0.033909	0.075418	-0.132466	0.270796	-0.153487	0.941044	-24.098671	-27.969348	-157.888900
16610		5.268171	-3.410513	7.534085	-0.727070	-0.256647	-0.037558	-0.048388	-0.057166	-0.069054	-0.729004	0.456543	-0.481934	0.052648	-0.034105	0.075364	-0.132169	0.271198	-0.153603	0.940951	-24.120175	-28.019048	-157.905942
16611		4.861341	-3.405356	7.710996	-0.287450	-0.163486	-0.087505	-0.028739	-0.057798	-0.067646	-0.718750	0.455322	-0.478027	0.048580	-0.034059	0.077129	-0.131872	0.271578	-0.153634	0.940878	-24.130098	-28.068243	-157.926464
16612		4.706541	-3.555345	7.714909	-0.175500	0.026464	-0.102881	-0.025018	-0.049174	-0.064760	-0.728271	0.459229	-0.486816	0.047035	-0.035559	0.077165	-0.131619	0.271923	-0.153652	0.940811	-24.138362	-28.112798	-157.943247
16613		4.828991	-3.492836	7.701347	-0.264919	-0.066538	-0.078460	-0.026866	-0.060395	-0.069173	-0.731689	0.470215	-0.483643	0.048255	-0.034935	0.077033	-0.131320	0.272314	-0.153670	0.940737	-24.147081	-28.163715	-157.963985
16614		4.867095	-3.388482	7.727690	-0.254905	-0.178650	-0.076635	-0.030752	-0.080043	-0.069413	-0.736816	0.464844	-0.479004	0.048628	-0.033890	0.077302	-0.131065	0.272813	-0.153687	0.940625	-24.161227	-28.225482	-157.974867
16615		4.457103	-3.379883	7.856101	0.164321	-0.077015	-0.170346	-0.041084	-0.110670	-0.073835	-0.745850	0.471680	-0.482422	0.044515	-0.033799	0.078593	-0.130763	0.273453	-0.153733	0.940474	-24.183086	-28.303782	-157.984974
16616		4.206083	-3.537473	7.994169	0.436450	0.121788	-0.122164	-0.067416	-0.158165	-0.078911	-0.746826	0.473145	-0.476807	0.041984	-0.035364	0.079987	-0.130474	0.274350	-0.153858	0.940232	-24.225446	-28.408620	-157.980451
16617		4.524488	-3.508879	7.893334	0.147971	0.013052	-0.062517	-0.096144	-0.231173	-0.092012	-0.750977	0.479492	-0.479248	0.045137	-0.035072	0.079002	-0.130103	0.275607	-0.154058	0.939883	-24.289109	-28.554159	-157.968978
16618		4.891905	-3.133262	7.815601	-0.104014	-0.436291	-0.084871	-0.129546	-0.306759	-0.100473	-0.754395	0.473145	-0.474365	0.048783	-0.031306	0.078251	-0.129746	0.277258	-0.154347	0.939399	-24.380260	-28.741623	-157.936550
16619		4.417856	-3.024308	8.129562	0.514485	-0.450621	-0.102602	-0.180999	-0.414555	-0.095463	-0.760254	0.472412	-0.467773	0.043995	-0.030190	0.081414	-0.129382	0.279432	-0.154821	0.938727	-24.515872	-28.983596	-157.876884
16620		4.707444	-3.314982	7.960572	0.189279	-0.246305	0.006839	-0.224238	-0.494758	-0.104337	-0.768311	0.475342	-0.469238	0.046860	-0.033085	0.079759	-0.129015	0.282028	-0.155426	0.937901	-24.685827	-29.269833	-157.794664
16621		4.746577	-3.129110	7.999300	0.268117	-0.443873	-0.012643	-0.267451	-0.583622	-0.123883	-0.779785	0.481445	-0.454590	0.047213	-0.031213	0.080173	-0.128526	0.285068	-0.156154	0.936928	-24.887043	-29.606264	-157.703366
16622		5.030081	-3.251804	7.686277	-0.089888	-0.362664	-0.075400	-0.306720	-0.654290	-0.140015	-0.773682	0.469482	-0.443848	0.050026	-0.032435	0.077077	-0.127997	0.288486	-0.156988	0.935814	-25.117948	-29.983496	-157.595046
16623		5.264609	-3.355167	7.600330	-0.267273	-0.333681	0.013551	-0.332862	-0.716087	-0.148089	-0.780518	0.468506	-0.450195	0.052349	-0.033464	0.076247	-0.127401	0.292200	-0.157898	0.934589	-25.371122	-30.393844	-157.477016
16624		4.411028	-2.807168	8.282291	0.975665	-0.714847	-0.093112	-0.400636	-0.779246	-0.157724	-0.785400	0.463379	-0.438965	0.043765	-0.027940	0.083050	-0.126741	0.296266	-0.159061	0.933200	-25.672340	-30.839277	-157.339297
16625		5.044420	-2.934795	7.863053	0.299035	-0.727741	-0.052208	-0.509558	-0.855233	-0.231168	-0.797363	0.478271	-0.419434	0.050073	-0.029205	0.078920	-0.125602	0.300795	-0.160578	0.931644	-26.026661	-31.341027	-157.224541
16626		5.061213	-3.687716	7.446194	0.035937	0.035348	-0.083485	-0.593609	-0.929504	-0.323616	-0.808594	0.470947	-0.408691	0.050205	-0.036737	0.074805	-0.123994	0.305800	-0.162289	0.929932	-26.415410	-31.904251	-157.134556
16627		4.113476	-4.544806	7.233526	0.648708	1.170700	-0.426136	-0.511354	-1.073989	-0.322603	-0.815674	0.473877	-0.398438	0.040672	-0.045328	0.072670	-0.122597	0.311403	-0.163530	0.928039	-26.783423	-32.540201	-156.999675
16628		4.616846	-3.709777	7.617687	0.724884	0.148155	-0.191979	-0.491537	-1.214129	-0.366109	-0.827881	0.466064	-0.396729	0.045637	-0.036994	0.076546	-0.121170	0.317677	-0.164511	0.925924	-27.154529	-33.258800	-156.837519
16629		4.665562	-3.664525	7.766381	0.925698	0.058894	-0.083829	-0.476200	-1.366201	-0.429381	-0.838135	0.464600	-0.373535	0.046045	-0.036559	0.078067	-0.119561	0.324670	-0.165228	0.923577	-27.526974	-34.070041	-156.663453
16630		4.809778	-3.921704	7.463455	0.748309	0.326133	-0.140648	-0.437205	-1.549335	-0.484029	-0.846924	0.454102	-0.354248	0.047422	-0.039169	0.075089	-0.117933	0.332520	-0.165548	0.920932	-27.899032	-34.988321	-156.451897
16631		4.090750	-4.835977	7.316756	1.262854	1.455947	-0.329090	-0.338693	-1.715179	-0.611377	-0.862305	0.448975	-0.341553	0.040130	-0.048359	0.073596	-0.115984	0.341145	-0.165100	0.918101	-28.208192	-36.023196	-156.259075
16632		4.363306	-4.726872	7.210851	1.183207	1.331390	-0.315200	-0.249116	-1.884037	-0.800222	-0.866211	0.450928	-0.327148	0.042762	-0.047351	0.072573	-0.113470	0.350624	-0.163798	0.915072	-28.438200	-37.194364	-156.115895
16633		4.765226	-4.393210	7.270305	1.162944	0.940739	-0.188584	-0.172037	-2.110263	-0.937498	-0.884521	0.434326	-0.300781	0.046675	-0.044090	0.073237	-0.110613	0.361156	-0.161760	0.911682	-28.625036	-38.516017	-155.977138
16634		5.278226	-4.113968	6.980670	0.842720	0.656770	-0.201890	-0.133365	-2.345748	-1.079482	-0.907227	0.431396	-0.283691	0.051736	-0.041374	0.070445	-0.107375	0.372809	-0.159129	0.907834	-28.792752	-39.995219	-155.835625
16635		5.129475	-4.310783	7.100323	1.264363	0.948105	-0.179155	-0.137279	-2.594925	-1.207942	-0.913818	0.408936	-0.266357	0.050106	-0.043364	0.071688	-0.103703	0.385618	-0.156118	0.903422	-28.974826	-41.634169	-155.682174
16636		5.101006	-3.957784	7.266112	1.700975	0.693718	-0.268149	-0.126633	-2.875315	-1.340502	-0.923340	0.397217	-0.225586	0.049692	-0.039868	0.073407	-0.099663	0.399711	-0.152618	0.898335	-29.173426	-43.450513	-155.498798
16637		5.610101	-3.990138	7.118327	1.555006	0.710804	-0.059138	-0.124102	-3.173441	-1.476821	-0.947754	0.381592	-0.200195	0.054666	-0.040264	0.072083	-0.095200	0.415126	-0.148647	0.892475	-29.400159	-45.453067	-155.281049
16638		5.408688	-3.958591	6.828843	1.791291	0.916443	-0.458673	-0.127278	-3.488460	-1.621017	-0.960938	0.366211	-0.158447	0.052562	-0.039972	0.069239	-0.090302	0.431920	-0.144186	0.885721	-29.668115	-47.653130	-155.015472
16639		5.233871	-4.247764	6.721498	2.151575	1.392153	-0.645644	-0.059909	-3.828720	-1.802319	-0.964844	0.341064	-0.119385	0.050654	-0.042919	0.068208	-0.084941	0.450138	-0.138827	0.878002	-29.932420	-50.072699	-154.714307
16640		5.366462	-4.145341	7.001514	2.681885	1.367578	-0.543147	0.024255	-4.161002	-2.011235	-0.984863	0.325684	-0.081543	0.051772	-0.041989	0.071100	-0.079041	0.469705	-0.132420	0.869249	-30.173254	-52.716556	-154.392634
16641		7.042518	-4.436502	7.246719	2.412085	1.359575	0.869172	0.094151	-4.564385	-2.197370	-0.999023	0.299805	-0.036133	0.068254	-0.045158	0.074020	-0.072718	0.490840	-0.125034	0.859159	-30.450758	-55.612388	-153.987738
16642		8.589702	-4.543569	9.341764	4.004293	1.030033	3.015173	0.167943	-5.003915	-2.342792	-1.019531	0.267334	0.009766	0.082985	-0.046499	0.095480	-0.066174	0.513585	-0.116727	0.847482	-30.840005	-58.766285	-153.414233
16643		9.416098	-4.391387	8.834689	3.858725	1.046790	3.224096	0.013279	-5.478109	-2.439344	-1.014160	0.252441	0.082275	0.091150	-0.045044	0.090868	-0.059046	0.538014	-0.108573	0.833826	-31.605285	-62.177625	-152.529937
16644		13.215653	-3.692599	9.716938	3.935693	-0.232016	6.529502	-0.248295	-5.902119	-2.531702	-1.015625	0.215576	0.139648	0.128732	-0.038446	0.101050	-0.051003	0.563819	-0.101032	0.818107	-32.947955	-65.814358	-151.198709
16645		13.717807	-5.833939	10.171388	5.288323	2.039624	7.316954	-0.738712	-6.081285	-2.528234	-1.015869	0.190430	0.193848	0.133249	-0.059654	0.106025	-0.041628	0.589876	-0.095352	0.800763	-35.217849	-69.514899	-149.206877
16646		14.268927	-8.033379	9.831979	6.009553	4.483519	7.750072	-0.470028	-6.157764	-2.814547	-1.005615	0.155518	0.259521	0.138423	-0.082064	0.102818	-0.031889	0.615656	-0.087630	0.782478	-37.902705	-73.312568	-146.663403
16647		17.564882	-5.061312	11.188620	7.568623	1.331109	10.189667	-0.544521	-6.174670	-2.841656	-0.998535	0.127930	0.322510	0.171342	-0.052754	0.117363	-0.021786	0.640811	-0.080010	0.763207	-42.124884	-77.073279	-142.624522
16648		18.605675	-7.251655	10.383050	8.044428	3.810948	10.854935	-1.404497	-5.803365	-2.631257	-0.979736	0.090088	0.375732	0.181962	-0.074172	0.109668	-0.009557	0.663844	-0.076299	0.743907	-49.714358	-80.476774	-135.714434
16649		15.710401	-9.944471	8.393285	7.784968	7.345450	7.550534	-0.920990	-4.880251	-2.887298	-0.946533	0.054688	0.420654	0.153533	-0.101279	0.088172	0.002381	0.682892	-0.069910	0.727162	-59.687240	-83.453703	-126.182513
16650		13.430164	-5.410350	8.201158	8.074228	3.415146	4.329155	-0.557347	-3.844758	-2.797179	-0.928223	0.020996	0.457520	0.131918	-0.055726	0.084717	0.013109	0.697669	-0.062449	0.713573	-75.198237	-85.798586	-110.931178
16651		7.914319	-7.154710	11.322060	11.955657	5.388075	-1.445010	-0.831009	-2.847570	-2.454486	-0.915527	-0.004639	0.474121	0.076636	-0.072024	0.114622	0.023877	0.708436	-0.057060	0.703059	-102.485242	-87.275889	-84.078360
16652		21.922922	-8.254411	24.692632	25.735579	4.498712	12.002121	-0.936321	-0.894445	-2.601452	-0.906738	-0.041016	0.481934	0.217033	-0.084216	0.248292	0.036082	0.712156	-0.051277	0.699216	-133.960691	-88.382714	-53.123082
16653		8.112662	-13.759950	16.393508	18.095134	11.491871	-1.787700	-0.646487	1.383661	-2.280668	-0.916016	-0.056641	0.454102	0.080688	-0.137992	0.163821	0.046713	0.707745	-0.045196	0.703472	156.728012	-89.632548	15.819518
16654		7.078047	-13.181409	14.835616	16.346797	11.298509	-2.808566	0.548928	2.769960	-2.384778	-0.910400	-0.080566	0.419922	0.071241	-0.133066	0.147007	0.053807	0.698563	-0.034236	0.712700	50.588140	-88.043614	122.272206
16655		2.950805	-8.803088	11.765680	12.626679	7.461944	-6.729042	0.957280	3.648068	-2.192534	-0.925781	-0.102051	0.382568	0.030671	-0.088923	0.116680	0.058892	0.686057	-0.022212	0.724820	40.128566	-85.674737	133.291350
16656		-0.505752	-6.692493	8.790263	9.508023	5.644761	-10.021225	0.556240	3.996086	-1.780964	-0.927490	-0.120117	0.334961	-0.003900	-0.067131	0.087802	0.063933	0.671782	-0.012994	0.737870	34.501043	-83.234981	139.251744
16657		-2.728535	-6.893829	6.110738	7.105531	5.966452	-12.306843	0.010633	3.960973	-1.317040	-0.943115	-0.124268	0.305176	-0.026521	-0.068765	0.061634	0.069003	0.657140	-0.007297	0.750568	30.340999	-80.917965	143.454008
16658		-3.543340	-7.836719	4.990804	6.324262	6.893499	-13.182754	-0.361062	3.743880	-0.836096	-0.935547	-0.139160	0.257324	-0.034816	-0.078130	0.050705	0.073554	0.642884	-0.004720	0.762409	26.749601	-78.806068	146.874355
16659		-2.024224	-9.431250	5.307583	6.688875	8.558731	-11.607030	-0.575446	3.615215	-0.258545	-0.943115	-0.146973	0.219727	-0.019397	-0.094133	0.053703	0.076465	0.628817	-0.004787	0.773769	22.996688	-76.868513	150.372404
16660		-0.114547	-10.945872	5.782737	7.014486	10.197396	-9.549751	-0.595436	3.652878	0.470384	-0.947754	-0.141846	0.177246	0.000172	-0.109287	0.058158	0.076748	0.614344	-0.007305	0.785263	18.674818	-75.008590	154.451642
16661		1.447583	-10.623609	6.761331	7.501949	9.938575	-7.445318	-0.515985	3.798672	1.296315	-0.941162	-0.124023	0.145752	0.016447	-0.105959	0.067587	0.073369	0.599088	-0.011889	0.797226	13.744238	-73.129149	159.267579
16662		2.903585	-8.817039	7.528862	7.442404	8.184334	-5.289381	-0.622834	4.060215	2.147607	-0.941650	-0.111084	0.101807	0.031502	-0.087607	0.074939	0.067043	0.582391	-0.019436	0.809906	8.264318	-71.079682	164.627261
16663		2.829191	-6.950951	6.659447	6.174035	6.351458	-5.102391	-0.835953	4.313874	2.870998	-0.943115	-0.077881	0.044922	0.030714	-0.068803	0.066238	0.058248	0.564193	-0.029763	0.823048	2.649697	-68.777705	170.089980
16664		2.735975	-5.077827	5.793975	4.924186	4.479091	-5.067911	-1.016279	4.378613	3.353563	-0.937744	-0.058594	0.004639	0.029466	-0.050003	0.057565	0.048096	0.545158	-0.042236	0.835886	-2.587475	-66.268681	175.102876
16665		3.574664	-3.745608	5.755455	4.119804	3.043192	-4.009019	-1.177836	4.338759	3.633801	-0.920654	-0.019043	-0.041260	0.037655	-0.036447	0.056968	0.037015	0.525779	-0.056035	0.847966	-7.253465	-63.615693	179.503489
16666		4.728861	-2.848590	6.336819	3.693627	1.872195	-2.500790	-1.293348	4.301077	3.782296	-0.906494	0.011719	-0.073242	0.049161	-0.027162	0.062503	0.025745	0.506010	-0.070757	0.859235	-11.305346	-60.833407	-176.781109
16667		5.946562	-2.199047	7.149451	3.338901	0.805666	-0.897030	-1.382685	4.309198	3.786427	-0.895020	0.047119	-0.110840	0.061385	-0.020351	0.070330	0.014487	0.485793	-0.085723	0.869739	-14.739005	-57.941939	-173.716956
16668		7.584986	-1.831770	8.467546	3.062440	-0.205269	1.283651	-1.429648	4.389095	3.692285	-0.870117	0.076904	-0.156250	0.077999	-0.016293	0.083101	0.003953	0.464795	-0.100658	0.879669	-17.570192	-54.937656	-171.328145
16669		9.210429	-1.773106	9.419724	2.316994	-0.977921	3.238399	-1.474015	4.574719	3.554111	-0.844727	0.116699	-0.191162	0.094516	-0.015381	0.092173	-0.005959	0.442683	-0.115296	0.889215	-19.885186	-51.804637	-169.500761
16670		10.419713	-2.416053	9.268452	0.828217	-0.892307	4.285865	-1.406121	4.801728	3.375552	-0.817627	0.131836	-0.235107	0.106765	-0.021732	0.090300	-0.015093	0.419234	-0.129166	0.898516	-21.698854	-48.545123	-168.196326
16671		11.049219	-2.660208	9.026026	-0.493359	-1.111627	4.647209	-1.230014	4.927985	3.216297	-0.778564	0.156494	-0.272461	0.113076	-0.024253	0.087649	-0.023783	0.394957	-0.141778	0.907382	-23.082214	-45.235677	-167.271712
16672		11.890941	-2.080238	9.371936	-1.643083	-2.293533	5.204845	-1.200868	4.905316	3.152370	-0.740234	0.183594	-0.301270	0.121464	-0.018350	0.090876	-0.032238	0.370439	-0.154026	0.915430	-24.279632	-41.935255	-166.541392
16673		12.560116	-2.816960	9.049771	-3.100874	-2.049287	5.474674	-1.276503	4.794210	3.187124	-0.705322	0.200195	-0.334473	0.128146	-0.025575	0.087615	-0.040767	0.346122	-0.166507	0.922395	-25.443458	-38.678259	-165.878277
16674		13.039033	-4.434915	8.629681	-4.460680	-0.936804	5.785661	-1.143358	4.611442	3.250839	-0.672363	0.205566	-0.352539	0.133030	-0.041718	0.083493	-0.049939	0.322241	-0.178329	0.928367	-26.497984	-35.486060	-165.225164
16675		13.497403	-5.615654	8.316916	-5.765914	-0.280609	5.982527	-0.847538	4.362191	3.396333	-0.653564	0.223389	-0.364990	0.137672	-0.053489	0.080416	-0.060443	0.299086	-0.188783	0.933410	-27.394616	-32.379139	-164.494909
16676		13.631093	-6.120238	7.870931	-6.886630	-0.151790	5.604716	-0.492536	4.039500	3.624449	-0.617432	0.231934	-0.385254	0.138942	-0.058511	0.076067	-0.072802	0.276855	-0.197702	0.937531	-28.138182	-29.362505	-163.606334
16677		13.660759	-6.015683	7.423682	-7.847517	-0.559114	4.882723	-0.165616	3.611247	3.861607	-0.598389	0.234863	-0.392090	0.139045	-0.057427	0.071789	-0.087095	0.256109	-0.205097	0.940616	-28.747300	-26.492119	-162.515440
16678		14.817230	-5.737637	8.029984	-9.138434	-1.812471	5.355941	0.047967	3.154220	4.071222	-0.582520	0.236816	-0.416992	0.150541	-0.054347	0.077925	-0.103056	0.236999	-0.211438	0.942605	-29.272487	-23.779223	-161.226656
16679		16.544707	-5.572064	8.541960	-10.956672	-3.197460	5.915960	0.168040	2.833413	4.243134	-0.563477	0.255615	-0.438477	0.167768	-0.052248	0.083009	-0.120242	0.219033	-0.217091	0.943630	-29.725757	-21.171754	-159.797643
16680		17.304943	-4.578247	7.756367	-12.366780	-4.621443	4.547463	0.312528	2.611296	4.263376	-0.543457	0.267822	-0.456299	0.174967	-0.042185	0.075220	-0.137844	0.201836	-0.221831	0.943956	-30.049928	-18.656433	-158.334777
16681		18.153440	-3.578870	6.798468	-13.759107	-6.003446	2.960490	0.464167	2.405250	4.055152	-0.520508	0.289795	-0.465820	0.183012	-0.032242	0.065712	-0.154764	0.185647	-0.225352	0.943822	-30.203377	-16.300924	-156.948969
16682		18.389946	-2.071728	5.700739	-14.384707	-7.480973	0.772338	0.536499	2.236584	3.677425	-0.510010	0.295654	-0.484619	0.184862	-0.017473	0.054894	-0.170077	0.170502	-0.227952	0.943420	-30.221328	-14.132877	-155.727093
16683		17.236115	-0.434048	4.104120	-13.748954	-8.209383	-2.219690	0.490288	2.032961	3.191384	-0.482422	0.306152	-0.508545	0.172807	-0.001683	0.039280	-0.183222	0.156864	-0.230070	0.942810	-30.177179	-12.209058	-154.701677
16684		16.992355	0.717948	3.108801	-13.646632	-8.994697	-4.176970	0.298510	1.758674	2.662131	-0.478760	0.313232	-0.516846	0.170073	0.009398	0.029606	-0.193977	0.145236	-0.232369	0.941958	-30.174758	-10.571545	-153.870046
16685		16.649660	2.665191	2.323398	-13.033912	-10.366291	-6.297915	0.000813	1.487961	2.181785	-0.455566	0.323975	-0.527100	0.166359	0.028467	0.021996	-0.202530	0.135717	-0.235393	0.940826	-30.291572	-9.208224	-153.205381
16686		15.954047	3.853377	0.763176	-12.534058	-10.562972	-8.683961	-0.251135	1.174347	1.678355	-0.449219	0.333984	-0.543701	0.159251	0.039880	0.006647	-0.208882	0.128487	-0.238922	0.939561	-30.514701	-8.142172	-152.707482
16687		15.943235	4.716846	-0.497357	-12.603613	-10.835567	-10.458937	-0.262719	0.821404	1.109895	-0.439697	0.330078	-0.534668	0.159145	0.048045	-0.005690	-0.212964	0.123611	-0.241741	0.938578	-30.710922	-7.415982	-152.392905
16688		16.463662	5.143687	-1.030001	-13.047717	-11.238737	-11.232919	-0.166378	0.472149	0.558243	-0.437988	0.332520	-0.534668	0.164467	0.051887	-0.010731	-0.214929	0.120925	-0.243397	0.938052	-30.827889	-7.021490	-152.251807
16689		16.609905	4.991459	-1.444034	-13.349493	-11.027054	-11.568780	-0.056732	0.172465	0.081831	-0.430420	0.338867	-0.546143	0.166066	0.049978	-0.014598	-0.215092	0.120114	-0.243917	0.937983	-30.862729	-6.915279	-152.258203
16690		15.848241	4.533323	-1.694241	-12.933511	-10.198667	-11.629098	0.119225	-0.153499	-0.362508	-0.434814	0.341064	-0.544189	0.158577	0.045056	-0.016794	-0.213672	0.121183	-0.243000	0.938408	-30.782212	-7.099522	-152.388700
16691		15.588422	3.811586	-1.026858	-12.763389	-9.747005	-10.632232	0.278976	-0.450516	-0.738386	-0.445557	0.332031	-0.542969	0.156046	0.037554	-0.009865	-0.210945	0.123931	-0.240779	0.939238	-30.596192	-7.540100	-152.618589
16692		14.865650	2.264035	-0.960469	-12.664176	-8.163677	-9.735645	0.467591	-0.697237	-1.033454	-0.453857	0.327148	-0.545410	0.148803	0.021893	-0.009034	-0.207237	0.127994	-0.237225	0.940423	-30.289835	-8.187552	-152.925573
16693		14.303626	1.678814	-0.256998	-12.154236	-7.652519	-8.723133	0.631727	-0.985670	-1.242481	-0.464600	0.319580	-0.550781	0.143147	0.015906	-0.001814	-0.202984	0.133481	-0.232449	0.941779	-29.881182	-9.035801	-153.258173
16694		13.828043	0.990592	0.664091	-11.649893	-7.160168	-7.437091	0.605509	-1.239337	-1.330243	-0.475098	0.311768	-0.542725	0.138297	0.008964	0.007526	-0.198576	0.140288	-0.227463	0.942946	-29.486236	-10.033868	-153.568852
16695		0.173739	-1.661032	5.245999	1.227249	-0.643918	-4.484630	0.483596	-1.309369	-1.319164	-0.480957	0.301270	-0.541016	0.001284	-0.016747	0.052429	-0.194198	0.147512	-0.222968	0.943829	-29.158708	-11.060883	-153.861390
16696		-13.856086	-20.910922	26.539116	15.863639	13.715857	20.083196	0.226882	-1.263804	-1.412040	-0.505127	0.291748	-0.530029	-0.141706	-0.208416	0.264266	-0.189122	0.154871	-0.219639	0.944461	-28.960122	-12.090866	-154.219989
16697		-22.140309	-6.031777	-4.111789	16.198106	15.811784	-15.386172	0.221613	-1.801577	-1.763817	-0.521484	0.288330	-0.520508	-0.221541	-0.058317	-0.043178	-0.182950	0.165131	-0.215527	0.944886	-28.749312	-13.485452	-154.612736
16698		-3.964452	-6.377620	-4.579751	-0.096499	8.571170	-11.783679	0.841526	-4.294205	-2.646962	-0.560791	0.272949	-0.499512	-0.039483	-0.063057	-0.046913	-0.175727	0.187485	-0.205394	0.944342	-28.229322	-16.374494	-154.773585
16699		22.957539	-13.925374	18.325701	-15.083449	-3.082970	18.815896	0.827050	-4.389324	-1.785003	-0.593262	0.262451	-0.477539	0.224230	-0.142041	0.187634	-0.172551	0.209298	-0.195923	0.942356	-27.849094	-19.077831	-154.476057
16700		12.801991	-2.309750	10.412433	-6.428820	-6.204707	4.250928	0.744704	-3.478929	-1.018752	-0.614014	0.252197	-0.457031	0.126063	-0.024136	0.106240	-0.171926	0.226051	-0.188342	0.940143	-27.577935	-21.117393	-154.035027
16701		10.124126	3.306449	13.535991	-0.812742	-10.637498	3.707875	0.400960	-3.594918	-1.156731	-0.642334	0.248291	-0.430420	0.098974	0.032214	0.137218	-0.170314	0.243690	-0.182049	0.937265	-27.501612	-23.253081	-153.636992
16702		13.201321	-0.789683	14.540234	-3.225956	-8.326752	7.695597	0.121641	-3.144516	-1.250069	-0.658447	0.238770	-0.413574	0.129652	-0.008801	0.147448	-0.167458	0.259470	-0.177278	0.934455	-27.526082	-25.185676	-153.416427
16703		9.583407	-4.087554	8.359549	-3.933572	-2.247936	2.752819	0.015730	-2.801831	-1.170078	-0.680664	0.237549	-0.392578	0.094409	-0.041437	0.084922	-0.164493	0.273591	-0.173344	0.931688	-27.594660	-26.921922	-153.246871
16704		19.330346	-12.591052	13.759254	-9.979021	0.412675	15.121558	0.817429	-2.533726	-1.336709	-0.701416	0.229980	-0.375732	0.190694	-0.127758	0.139500	-0.161576	0.285897	-0.165629	0.929905	-27.125092	-28.567309	-153.256899
16705		17.672152	-5.500153	12.812640	-7.471280	-4.711596	10.892274	0.952439	-0.473335	-0.681341	-0.692139	0.214844	-0.370605	0.176228	-0.056213	0.128278	-0.160175	0.287924	-0.159866	0.930530	-26.460362	-28.988311	-153.510589
16706		5.623075	-4.279037	9.006722	-0.003362	-0.147393	1.634034	0.839443	-0.115422	-0.465050	-0.697510	0.215332	-0.364502	0.056079	-0.043299	0.089919	-0.159323	0.288208	-0.155221	0.931375	-25.868471	-29.169746	-153.746081
16707		8.078363	-2.609112	9.256309	-1.455028	-2.556339	2.397722	0.604355	0.087810	-0.323131	-0.694336	0.210693	-0.360840	0.080782	-0.026501	0.092448	-0.158636	0.287604	-0.152034	0.932204	-25.422038	-29.207543	-153.957844
16708		6.926564	-3.470684	8.402117	-1.257765	-1.107171	1.492640	0.469835	0.115583	-0.215944	-0.692139	0.207520	-0.359131	0.069276	-0.034979	0.083899	-0.158230	0.286907	-0.149649	0.932873	-25.080273	-29.205147	-154.113675
16709		6.193367	-2.226944	8.199062	-0.562537	-1.873961	0.517531	0.311229	0.110202	-0.131745	-0.681396	0.209229	-0.353760	0.061964	-0.022438	0.081922	-0.157994	0.286282	-0.148120	0.933349	-24.854043	-29.182838	-154.218276
16710		6.611536	-2.847715	7.988227	-1.160790	-1.407203	0.784763	0.191849	0.097191	-0.064650	-0.675537	0.206055	-0.359863	0.066145	-0.028575	0.079823	-0.157908	0.285777	-0.147233	0.933659	-24.718028	-29.152644	-154.278812
16711		6.312830	-2.154624	8.075451	-0.741356	-1.927682	0.455786	0.089228	0.079604	0.003462	-0.659668	0.205566	-0.350098	0.063161	-0.021581	0.080720	-0.158008	0.285370	-0.146909	0.933818	-24.662494	-29.113463	-154.294264
16712		4.544094	-2.868202	7.851472	0.363828	-0.568730	-0.322421	-0.004057	0.052873	0.043152	-0.665283	0.203125	-0.359375	0.045468	-0.028671	0.078503	-0.158179	0.285147	-0.147054	0.933834	-24.675922	-29.080542	-154.278311
16713		5.536315	-3.033216	7.795996	-0.485579	-0.788298	0.175883	-0.009482	-0.011295	0.017500	-0.656006	0.220459	-0.349365	0.055361	-0.030324	0.077965	-0.158270	0.285232	-0.147139	0.933779	-24.693125	-29.085324	-154.260500
16714		4.512736	-3.300609	7.996432	0.383417	-0.196668	-0.065070	-0.029393	-0.034763	0.011187	-0.653320	0.212891	-0.354736	0.045115	-0.032992	0.079977	-0.158319	0.285462	-0.147287	0.933677	-24.723449	-29.105692	-154.239596
16715		5.051096	-3.575877	7.459305	-0.403294	-0.053395	-0.128877	-0.019187	-0.073004	-0.018324	-0.638916	0.218018	-0.352051	0.050480	-0.035756	0.074615	-0.158275	0.285869	-0.147317	0.933555	-24.744086	-29.151161	-154.226178
16716		5.085709	-3.357877	7.566895	-0.313896	-0.281575	-0.105996	0.011555	-0.071070	-0.040335	-0.633789	0.219971	-0.349121	0.050823	-0.033593	0.075685	-0.158169	0.286274	-0.147172	0.933472	-24.740877	-29.202780	-154.225978
16717		5.260131	-4.307963	7.214639	-0.851544	0.584332	0.046925	0.053809	-0.022044	-0.057254	-0.624756	0.234375	-0.350586	0.052581	-0.043114	0.072141	-0.158010	0.286414	-0.146846	0.933507	-24.701548	-29.231058	-154.249765
16718		4.496936	-4.089297	7.613664	0.024555	0.611116	-0.089592	0.098116	0.055502	-0.080483	-0.625000	0.231689	-0.354492	0.044974	-0.040948	0.076104	-0.157748	0.286190	-0.146339	0.933700	-24.620099	-29.226402	-154.308268
16719		5.149192	-4.625767	7.123020	-0.896748	0.953618	0.032907	0.145553	0.143423	-0.113886	-0.612061	0.244141	-0.360596	0.051517	-0.046339	0.071160	-0.157334	0.285526	-0.145634	0.934083	-24.489644	-29.181873	-154.411093
16720		5.073443	-3.869456	7.625235	-0.401456	0.219244	0.119455	0.155215	0.138229	-0.115041	-0.604492	0.251465	-0.365479	0.050765	-0.038783	0.076187	-0.156931	0.284896	-0.144877	0.934461	-24.354624	-29.142045	-154.512609
16721		5.073371	-3.660730	7.599127	-0.383870	0.048126	0.022814	0.106483	0.068431	-0.095599	-0.604980	0.241699	-0.366699	0.050742	-0.036672	0.075954	-0.156601	0.284599	-0.144322	0.934693	-24.261983	-29.131975	-154.583964
16722		4.948348	-3.074855	7.937449	0.031669	-0.490445	0.021052	0.011217	-0.020967	-0.068400	-0.593018	0.250244	-0.369141	0.049465	-0.030770	0.079378	-0.156326	0.284791	-0.144179	0.934702	-24.244062	-29.164097	-154.614526
16723		5.129439	-3.144470	7.799995	-0.196520	-0.466818	0.025107	-0.047052	-0.117653	-0.061916	-0.589111	0.253174	-0.378906	0.051239	-0.031442	0.078038	-0.156069	0.285460	-0.144243	0.934531	-24.273620	-29.243247	-154.615577
16724		4.561067	-2.846309	8.158311	0.539493	-0.589882	-0.074937	-0.099827	-0.186280	-0.051494	-0.596436	0.262695	-0.374512	0.045527	-0.028434	0.081640	-0.155834	0.286499	-0.144513	0.934211	-24.346061	-29.357751	-154.591313
16725		5.603708	-2.864842	7.769255	-0.484917	-0.896666	0.133716	-0.171353	-0.251752	-0.034923	-0.593506	0.272949	-0.385742	0.055934	-0.028592	0.077788	-0.155622	0.287871	-0.145092	0.933735	-24.472809	-29.500478	-154.539502
16726		4.279466	-2.977505	8.050489	0.729240	-0.357888	-0.256027	-0.214345	-0.300409	-0.014493	-0.595947	0.278320	-0.387939	0.042671	-0.029692	0.080601	-0.155476	0.289504	-0.145861	0.933134	-24.637612	-29.665584	-154.461195
16727		4.695208	-3.682271	7.684515	0.079590	0.183428	-0.085623	-0.222783	-0.309374	-0.007787	-0.589111	0.293457	-0.390869	0.046832	-0.036739	0.076959	-0.155358	0.291163	-0.146673	0.932510	-24.810570	-29.831547	-154.376146
16728		4.825459	-3.552864	7.405061	-0.123560	0.057527	-0.287766	-0.228385	-0.314933	-0.014051	-0.590576	0.293457	-0.389893	0.048135	-0.035447	0.074167	-0.155203	0.292873	-0.147495	0.931871	-24.986648	-30.003677	-154.292145
16729		4.581157	-3.736254	7.617442	0.190063	0.265460	-0.176022	-0.219431	-0.275091	0.009448	-0.607666	0.302979	-0.392822	0.045708	-0.037277	0.076278	-0.155143	0.294354	-0.148342	0.931279	-25.159190	-30.147212	-154.204934
16730		5.563155	-3.656854	7.026983	-0.878109	-0.079058	-0.173062	-0.216220	-0.236790	0.006152	-0.604492	0.313721	-0.392578	0.055549	-0.036491	0.070375	-0.155042	0.295674	-0.149197	0.930741	-25.324382	-30.273475	-154.129478
16731		5.157713	-3.803618	7.175362	-0.477292	0.166748	-0.205415	-0.191891	-0.192611	0.029093	-0.614014	0.313232	-0.394043	0.051513	-0.037960	0.071840	-0.155052	0.296734	-0.150008	0.930272	-25.476148	-30.369058	-154.052805
16732		5.473346	-3.777349	7.004851	-0.795743	0.044101	-0.186752	-0.171600	-0.171653	0.011432	-0.604492	0.328613	-0.401855	0.054675	-0.037710	0.070128	-0.154992	0.297711	-0.150713	0.929856	-25.608653	-30.460041	-153.991918
16733		5.121356	-3.547841	7.456228	-0.186350	-0.124866	-0.098756	-0.131880	-0.146361	0.001007	-0.611084	0.341309	-0.398193	0.051159	-0.035429	0.074623	-0.154925	0.298529	-0.151239	0.929519	-25.711263	-30.538406	-153.944754
16734		5.088958	-4.190271	7.345963	-0.337326	0.483611	0.039792	-0.108712	-0.116781	-0.005377	-0.619141	0.334961	-0.406982	0.050846	-0.041864	0.073512	-0.154839	0.299215	-0.151668	0.929243	-25.794945	-30.605098	-153.909320
16735		4.813871	-3.720674	7.535494	0.096008	0.121515	-0.128864	-0.082213	-0.091958	-0.021860	-0.616211	0.347412	-0.404297	0.048100	-0.037181	0.075392	-0.154699	0.299759	-0.151971	0.929041	-25.854335	-30.660996	-153.891316
16736		5.460223	-3.809606	7.171314	-0.629683	0.024761	-0.047558	-0.042877	-0.066175	-0.039220	-0.625000	0.352051	-0.402344	0.054571	-0.038091	0.071739	-0.154515	0.300184	-0.152083	0.928916	-25.882618	-30.710004	-153.890684
16737		5.080063	-3.769900	7.372478	-0.200737	0.096372	-0.100682	0.007307	-0.016595	-0.057679	-0.622803	0.356934	-0.405762	0.050784	-0.037716	0.073728	-0.154286	0.300336	-0.151975	0.928923	-25.868607	-30.735995	-153.916007
16738		5.367577	-3.741394	7.220109	-0.509001	-0.004129	-0.082334	0.045856	0.039877	-0.063984	-0.632813	0.362305	-0.415771	0.053678	-0.037448	0.072182	-0.154039	0.300219	-0.151720	0.929043	-25.822710	-30.736532	-153.961065
16739		5.126067	-4.047883	6.820015	-0.631027	0.447566	-0.401205	0.071761	0.124073	-0.084690	-0.627930	0.370361	-0.410156	0.051286	-0.040525	0.068154	-0.153674	0.299688	-0.151380	0.929331	-25.742638	-30.696645	-154.043422
16740		4.871695	-4.010782	7.207177	-0.208007	0.445785	-0.246019	0.120001	0.208720	-0.107184	-0.648193	0.373047	-0.411377	0.048771	-0.040177	0.071997	-0.153210	0.298762	-0.150845	0.929792	-25.616284	-30.620643	-154.163098
16741		5.396069	-3.499783	7.113899	-0.590615	-0.184927	-0.242394	0.125252	0.218155	-0.135367	-0.645508	0.380859	-0.423096	0.054015	-0.035079	0.071058	-0.152618	0.297791	-0.150252	0.930297	-25.476666	-30.544351	-154.302581
16742		4.658280	-3.929457	7.353504	0.022668	0.447466	-0.272591	0.111080	0.214780	-0.113429	-0.660156	0.381836	-0.427979	0.046639	-0.039362	0.073463	-0.152107	0.296847	-0.149754	0.930763	-25.353236	-30.466299	-154.427128
16743		4.788276	-3.902640	7.466843	-0.023996	0.364132	-0.128746	0.102130	0.204440	-0.136298	-0.659668	0.388916	-0.431396	0.047932	-0.039097	0.074599	-0.151486	0.295957	-0.149257	0.931227	-25.229181	-30.396806	-154.562665
16744		4.968643	-3.524860	7.576286	-0.045019	-0.054750	-0.091212	0.123631	0.222497	-0.140116	-0.666260	0.391846	-0.419678	0.049746	-0.035330	0.075686	-0.150862	0.294987	-0.148665	0.931731	-25.089946	-30.320775	-154.704831
16745		5.418425	-3.224245	7.704334	-0.282142	-0.506014	0.125931	0.106472	0.205749	-0.129734	-0.669922	0.400391	-0.429443	0.054243	-0.032319	0.076970	-0.150277	0.294081	-0.148158	0.932192	-24.965798	-30.248476	-154.836214
16746		4.566761	-2.646131	8.188915	0.768207	-0.801694	-0.133701	0.044910	0.114104	-0.110257	-0.666992	0.396973	-0.421143	0.045700	-0.026505	0.081857	-0.149757	0.293653	-0.147896	0.932453	-24.896485	-30.221085	-154.929587
16747		5.539191	-2.773831	7.606360	-0.366678	-0.927199	-0.053623	-0.021112	0.016803	-0.089634	-0.679932	0.405762	-0.429199	0.055386	-0.027755	0.076062	-0.149310	0.293694	-0.147900	0.932511	-24.884381	-30.237047	-154.983838
16748		5.132529	-2.921869	7.715879	-0.006082	-0.663281	-0.118618	-0.080057	-0.060512	-0.072653	-0.694824	0.406006	-0.435059	0.051291	-0.029206	0.077186	-0.148911	0.294145	-0.148145	0.932393	-24.922548	-30.291309	-155.005831
16749		5.292819	-2.596468	7.783065	-0.017528	-1.033519	-0.103764	-0.106025	-0.108104	-0.052132	-0.694336	0.422607	-0.428467	0.052879	-0.025937	0.077873	-0.148607	0.294803	-0.148507	0.932176	-24.988057	-30.363143	-155.002565
16750		5.450387	-3.155272	7.425828	-0.441283	-0.518470	-0.099716	-0.133505	-0.153662	-0.036136	-0.697510	0.417236	-0.427734	0.054441	-0.031513	0.074321	-0.148390	0.295703	-0.148984	0.931850	-25.081938	-30.456605	-154.973524
16751		4.387984	-3.310120	7.923217	0.677068	-0.090607	-0.193853	-0.151956	-0.193350	-0.028689	-0.703857	0.418213	-0.425781	0.043798	-0.033047	0.079300	-0.148190	0.296774	-0.149531	0.931453	-25.193303	-30.566941	-154.931789
16752		4.926622	-3.723947	7.451764	-0.076386	0.173097	-0.136309	-0.164462	-0.224301	-0.037638	-0.710693	0.426270	-0.418701	0.049176	-0.037187	0.074603	-0.147973	0.298026	-0.150097	0.930997	-25.315015	-30.697286	-154.883005
16753		4.522849	-3.668744	7.645258	0.391675	0.226694	-0.212638	-0.162988	-0.234163	-0.039953	-0.709961	0.432373	-0.419434	0.045132	-0.036634	0.076535	-0.147734	0.299303	-0.150648	0.930536	-25.435683	-30.831366	-154.835752
16754		5.174388	-3.908920	7.262077	-0.361786	0.276950	-0.087254	-0.124738	-0.232978	-0.063085	-0.717285	0.437256	-0.408203	0.051647	-0.039060	0.072705	-0.147471	0.300584	-0.150983	0.930111	-25.528805	-30.972198	-154.798255
16755		5.525199	-3.760919	7.095691	-0.681607	0.046727	-0.088781	-0.075497	-0.213129	-0.093749	-0.721924	0.440918	-0.404541	0.055159	-0.037608	0.071030	-0.147097	0.301738	-0.151061	0.929783	-25.579999	-31.108573	-154.788899
16756		5.281594	-3.981221	7.114617	-0.499695	0.338832	-0.117400	-0.001046	-0.181860	-0.112283	-0.722900	0.436523	-0.416504	0.052729	-0.039841	0.071194	-0.146759	0.302728	-0.150784	0.929560	-25.579784	-31.235021	-154.794558
16757		5.554445	-3.889107	6.914027	-0.799913	0.206067	-0.163935	0.052959	-0.124411	-0.153095	-0.727783	0.443604	-0.403564	0.055472	-0.038952	0.069164	-0.146236	0.303419	-0.150240	0.929505	-25.525454	-31.340204	-154.846736
16758		4.974261	-3.790181	7.512056	0.041585	0.228045	-0.040996	0.061898	-0.082273	-0.181071	-0.731201	0.447021	-0.404541	0.049677	-0.037970	0.075129	-0.145598	0.303951	-0.149639	0.929528	-25.452370	-31.432124	-154.923078
16759		4.735099	-4.261851	7.218827	-0.027605	0.819138	-0.219763	0.075351	-0.059829	-0.245703	-0.738525	0.452393	-0.415527	0.047277	-0.042704	0.072186	-0.144630	0.304395	-0.148897	0.929654	-25.345766	-31.526520	-155.050507
16760		4.447399	-4.709126	7.390646	0.229113	1.322008	-0.077359	0.113818	-0.062472	-0.289675	-0.727539	0.453613	-0.408936	0.044383	-0.047198	0.073893	-0.143559	0.304877	-0.147903	0.929820	-25.205106	-31.634348	-155.198108
16761		4.259020	-4.382248	7.586748	0.565752	1.086992	-0.148305	0.241011	-0.209685	-0.346592	-0.745850	0.454590	-0.398682	0.042435	-0.043988	0.075859	-0.142484	0.305971	-0.146129	0.929907	-24.992771	-31.830447	-155.345188
16762		4.617920	-3.588659	7.629627	0.480381	0.266049	-0.215132	0.187399	-0.366901	-0.395789	-0.743408	0.459473	-0.403320	0.045968	-0.036049	0.076347	-0.141263	0.307891	-0.144411	0.929728	-24.820012	-32.121051	-155.471551
16763		5.014232	-2.629657	7.938361	0.576917	-0.768182	-0.109500	0.078529	-0.591376	-0.445181	-0.757813	0.451416	-0.397705	0.049849	-0.026439	0.079521	-0.139754	0.310941	-0.142968	0.929163	-24.723784	-32.538671	-155.573169
16764		4.907605	-2.798031	8.002046	0.740147	-0.546422	-0.060805	-0.000457	-0.826396	-0.470014	-0.762695	0.459229	-0.388428	0.048679	-0.028095	0.080222	-0.138228	0.315172	-0.141681	0.928163	-24.701864	-33.085751	-155.616382
16765		4.806985	-2.602437	7.810433	0.823925	-0.616792	-0.335225	-0.078227	-1.066439	-0.533598	-0.768799	0.459473	-0.379639	0.047583	-0.026121	0.078369	-0.136395	0.320584	-0.140489	0.926760	-24.737625	-33.771725	-155.638475
16766		4.531290	-2.265508	8.295890	1.513508	-0.874579	-0.250800	-0.154322	-1.324672	-0.594790	-0.784668	0.457520	-0.372314	0.044695	-0.022724	0.083274	-0.134395	0.327296	-0.139362	0.924875	-24.840289	-34.607866	-155.614292
16767		4.249404	-2.257044	8.282073	1.859495	-0.740569	-0.445932	-0.243031	-1.546708	-0.666676	-0.794434	0.458740	-0.358154	0.041776	-0.022610	0.083173	-0.132001	0.335101	-0.138377	0.922570	-25.004287	-35.575582	-155.576657
16768		4.836057	-2.494283	8.241928	1.530761	-0.664564	-0.078707	-0.282171	-1.787103	-0.717216	-0.805420	0.456055	-0.337402	0.047532	-0.024998	0.082882	-0.129526	0.344069	-0.137307	0.919775	-25.219983	-36.681230	-155.485509
16769		4.626185	-3.340385	7.700997	1.391571	0.331906	-0.335617	-0.302868	-2.007086	-0.786840	-0.820313	0.450439	-0.325195	0.045354	-0.033466	0.077519	-0.126770	0.354051	-0.136065	0.916550	-25.464098	-37.916557	-155.374180
16770		5.703916	-3.323791	6.815479	0.225434	0.164045	-0.328442	-0.331803	-2.197526	-0.939462	-0.832275	0.446045	-0.305420	0.056129	-0.033389	0.068830	-0.123373	0.364998	-0.134543	0.912937	-25.707254	-39.289756	-155.294303
16771		5.082711	-3.503349	7.610218	1.429085	0.479783	-0.130505	-0.317811	-2.445977	-1.020871	-0.855957	0.440674	-0.284912	0.049712	-0.035167	0.076771	-0.119780	0.377049	-0.132637	0.908787	-25.966556	-40.809039	-155.179173
16772		5.635480	-4.558861	6.968660	0.723587	1.474863	0.106911	-0.171926	-2.658721	-1.079755	-0.873535	0.418457	-0.256836	0.055175	-0.045828	0.070465	-0.116309	0.389961	-0.129800	0.904187	-26.173086	-42.454302	-155.021395
16773		5.992626	-4.638460	6.378157	0.312772	1.631173	-0.048377	0.017617	-2.804837	-1.238385	-0.895264	0.419434	-0.232422	0.058735	-0.046756	0.064607	-0.112563	0.403424	-0.125687	0.899323	-26.238658	-44.212499	-154.915680
16774		5.017185	-4.129225	6.967592	1.716327	1.493855	-0.561504	0.098241	-3.000297	-1.391775	-0.907715	0.394287	-0.219238	0.048830	-0.041670	0.070395	-0.108437	0.417733	-0.120747	0.893958	-26.236902	-46.110998	-154.838498
16775		6.102116	-3.750030	6.519783	1.014516	1.013972	-0.234646	0.186528	-3.226211	-1.514423	-0.926514	0.389404	-0.185059	0.059673	-0.038017	0.066132	-0.103998	0.432934	-0.115010	0.887990	-26.178025	-48.155649	-154.777253
16776		5.763249	-4.346307	6.327564	1.322876	1.860998	-0.489631	0.317403	-3.427468	-1.635252	-0.937744	0.370117	-0.149902	0.056179	-0.044028	0.064177	-0.099432	0.448899	-0.108274	0.881408	-26.032773	-50.335411	-154.728831
16777		5.909938	-4.298752	5.765405	1.097766	2.010614	-0.791208	0.439594	-3.658190	-1.847557	-0.956543	0.354736	-0.109375	0.057632	-0.043653	0.058622	-0.094245	0.465740	-0.100377	0.874145	-25.741953	-52.686267	-154.782513
16778		6.164636	-3.830588	6.226625	1.710770	1.656848	-0.552026	0.524253	-3.965613	-2.085692	-0.973389	0.327881	-0.072998	0.059992	-0.039102	0.063365	-0.088371	0.483802	-0.091350	0.865899	-25.316626	-55.255539	-154.936357
16779		6.118973	-3.385237	6.397401	2.274471	1.451443	-0.728053	0.532960	-4.295955	-2.300155	-0.985596	0.303955	-0.043945	0.059402	-0.034715	0.065171	-0.081644	0.503103	-0.081583	0.856485	-24.789653	-58.046509	-155.205223
16780		8.820620	-2.577821	7.566594	2.501677	0.272016	1.820736	0.429520	-4.652989	-2.474951	-0.999756	0.284668	0.016357	0.086086	-0.027018	0.077628	-0.074041	0.523731	-0.071608	0.845633	-24.243184	-61.064582	-155.553250
16781		9.923523	-2.265397	7.515293	2.570114	0.067769	2.574151	0.230453	-5.173353	-2.534320	-1.005615	0.254395	0.069580	0.096950	-0.023981	0.077654	-0.065755	0.546239	-0.062083	0.832733	-23.894660	-64.366325	-155.800193
16782		11.194409	-2.874949	10.123842	5.178298	0.695245	4.633659	-0.229048	-5.793161	-2.485762	-1.013184	0.226563	0.124512	0.108582	-0.029995	0.104450	-0.056549	0.570974	-0.054343	0.817213	-24.152869	-67.982471	-155.665034
16783		13.049950	-3.639136	10.621365	5.922607	1.488703	6.279363	-0.712696	-6.211462	-2.480020	-1.009766	0.197510	0.196289	0.126654	-0.037590	0.110320	-0.046040	0.596933	-0.048419	0.799504	-25.097364	-71.812922	-155.097897
16784		13.965375	-3.866755	9.171969	5.320866	1.977374	6.366490	-0.678429	-6.490385	-2.664886	-0.993408	0.162598	0.256836	0.136049	-0.040175	0.096309	-0.034907	0.623342	-0.041685	0.780057	-26.323012	-75.830114	-154.230460
16785		16.451672	-2.773189	11.152712	7.905559	0.956265	8.602910	-1.075315	-6.966766	-2.708038	-0.984619	0.125732	0.332031	0.160107	-0.029300	0.117311	-0.022422	0.650845	-0.036226	0.758015	-29.250829	-80.088574	-151.871870
16786		17.653707	-5.937302	11.963675	9.950957	4.335250	9.474092	-1.611119	-7.017163	-2.715354	-0.968262	0.084229	0.404297	0.171367	-0.060724	0.126196	-0.008165	0.677658	-0.032704	0.734605	-36.660973	-84.318027	-145.329982
16787		19.051786	-8.437226	11.336693	10.730992	7.129893	10.098035	-1.322898	-6.562558	-2.975259	-0.924805	0.057617	0.464111	0.185375	-0.086376	0.120074	0.006179	0.701869	-0.027226	0.711758	-66.186740	-88.115644	-116.520586
16788		17.268190	-6.598002	10.954387	11.533842	5.774225	7.368144	-0.762070	-5.817792	-3.174444	-0.898926	0.011230	0.509277	0.168323	-0.068244	0.114740	0.019356	0.722614	-0.018999	0.690719	177.804377	-87.415187	-0.913383
16789		15.454785	-3.887038	11.169933	12.423765	3.389759	4.774832	-1.131496	-4.713872	-2.762459	-0.874512	-0.028320	0.547852	0.151305	-0.040329	0.115517	0.032534	0.738789	-0.013408	0.673018	161.922397	-84.447761	14.349991
16790		11.398956	-12.613411	13.797752	15.825897	11.932252	-0.512058	-1.442622	-3.427933	-2.107433	-0.849121	-0.059326	0.570313	0.110262	-0.126300	0.140799	0.044713	0.750082	-0.011067	0.659739	157.307642	-82.182440	18.160910
16791		28.904776	-19.230402	38.363890	43.236660	17.212604	12.801070	-1.101570	-0.248546	-1.410724	-0.845703	-0.079102	0.562256	0.287214	-0.192216	0.385055	0.053490	0.750726	-0.009498	0.658376	151.969808	-81.704091	22.911262
16792		5.437059	-19.730587	24.467950	26.551274	17.635296	-8.574810	-0.405862	2.941226	-0.546866	-0.845703	-0.097900	0.519043	0.057426	-0.196964	0.244250	0.056948	0.740886	-0.008042	0.669164	143.072247	-82.961547	31.649888
16793		2.337479	-12.450011	18.870367	19.999665	10.794306	-9.884710	0.385927	4.175311	-0.346371	-0.860107	-0.091553	0.483398	0.027088	-0.124908	0.187923	0.056840	0.726902	-0.004312	0.684372	126.514870	-84.521433	48.522900
16794		-1.552908	-9.070397	14.422435	15.059799	7.646669	-12.529446	0.024015	4.707527	0.149216	-0.881836	-0.093750	0.439941	-0.012062	-0.090731	0.144525	0.056370	0.710597	-0.003513	0.701328	97.517922	-85.650689	77.624951
16795		-2.400594	-9.156103	12.099529	12.864065	7.888904	-12.682866	-0.461662	4.937940	0.702983	-0.897705	-0.093262	0.389160	-0.020685	-0.091357	0.121744	0.055620	0.692944	-0.006271	0.718815	59.824400	-85.483941	115.155192
16796		-3.158474	-10.197653	10.309853	11.371234	9.016448	-12.914298	-0.668988	5.108644	1.227062	-0.910645	-0.088379	0.330078	-0.028307	-0.101810	0.104190	0.053735	0.674112	-0.011597	0.736581	31.350150	-83.891387	143.346677
16797		-2.646430	-10.601448	9.791600	11.004851	9.499156	-11.783758	-0.563216	5.296056	1.689661	-0.920898	-0.077148	0.279053	-0.022959	-0.105941	0.098853	0.049702	0.654124	-0.017972	0.754538	14.785296	-81.459144	159.713804
16798		-1.024150	-10.060087	10.123720	11.097167	9.018721	-9.357219	-0.426218	5.538687	2.217716	-0.920410	-0.062744	0.224365	-0.006315	-0.100469	0.101663	0.043311	0.632620	-0.025556	0.772828	4.411602	-78.529260	169.977868
16799		0.632972	-9.037933	10.383446	10.806930	8.017863	-6.852428	-0.388252	5.841798	2.798086	-0.924805	-0.032471	0.165771	0.010623	-0.090049	0.103741	0.034454	0.609304	-0.034662	0.791429	-2.890165	-75.201578	177.240526
16800		1.743881	-7.576153	10.408647	10.140244	6.503661	-4.955797	-0.445306	6.149850	3.320567	-0.923096	-0.007568	0.098389	0.021882	-0.075192	0.103627	0.023843	0.583924	-0.045568	0.810177	-8.335132	-71.502532	-177.365549
16801		3.313595	-6.041661	10.635817	9.301057	4.782568	-2.661099	-0.635711	6.419029	3.738444	-0.931885	0.016113	0.032959	0.037646	-0.059405	0.105388	0.012003	0.556625	-0.058292	0.828630	-12.562914	-67.498669	-173.247042
16802		5.874120	-4.698391	11.007698	7.944508	3.014920	0.456356	-0.877974	6.679206	4.088927	-0.909668	0.053955	-0.029053	0.063313	-0.045243	0.108214	-0.000391	0.527247	-0.072967	0.846573	-15.962004	-63.208112	-170.085969
16803		8.275654	-2.447892	11.578775	6.378393	0.102748	3.138669	-1.208368	6.952060	4.326057	-0.885498	0.090088	-0.094482	0.087209	-0.021936	0.112945	-0.012981	0.495833	-0.089466	0.863700	-18.781885	-58.669140	-167.657990
16804		10.521834	-1.003817	11.647188	4.151118	-2.146666	5.200207	-1.619420	7.256599	4.312607	-0.852051	0.130859	-0.156738	0.109522	-0.006785	0.112613	-0.024347	0.462195	-0.107608	0.879889	-21.082044	-53.912599	-166.017949
16805		11.854021	-1.081173	11.245093	1.860067	-2.828472	6.203294	-1.804011	7.509494	4.008458	-0.811279	0.150879	-0.227539	0.122822	-0.007391	0.107969	-0.033755	0.426826	-0.125646	0.894926	-22.782087	-49.066764	-165.171831
16806		13.308806	-0.528410	11.684903	-0.076116	-4.315566	7.366300	-1.832654	7.661856	3.493017	-0.764648	0.176514	-0.281250	0.137485	-0.001869	0.111665	-0.040648	0.390239	-0.142544	0.908704	-23.945459	-44.237561	-165.025310
16807		15.199736	-0.900185	12.385321	-2.331051	-5.055959	9.002391	-2.001933	7.769657	2.963282	-0.716553	0.197998	-0.330566	0.156754	-0.005502	0.117891	-0.044641	0.352920	-0.158896	0.920981	-24.837712	-39.485226	-165.412409
16808		16.995432	-3.275525	11.940048	-5.471908	-3.579440	10.165452	-2.161558	7.826084	2.549969	-0.679688	0.196045	-0.375000	0.174847	-0.029302	0.112950	-0.046335	0.314996	-0.175014	0.931666	-25.638321	-34.800695	-166.147924
16809		17.685737	-5.204748	10.606094	-8.333426	-1.963483	9.650679	-2.186465	7.730681	2.359383	-0.626465	0.206543	-0.407715	0.181381	-0.048812	0.099652	-0.047092	0.277195	-0.190578	0.940545	-26.432046	-30.230458	-167.008249
16810		17.975541	-6.853399	9.283023	-10.681670	-0.431209	8.674372	-2.220786	7.338530	2.447444	-0.594971	0.220215	-0.441650	0.183829	-0.065314	0.086871	-0.048519	0.240628	-0.206046	0.947253	-27.365831	-25.841128	-167.742271
16811		18.711628	-8.365994	8.854181	-12.792031	0.579487	8.472416	-2.209614	6.626491	2.872062	-0.551758	0.223633	-0.461914	0.191098	-0.079996	0.083151	-0.052619	0.206691	-0.221453	0.951561	-28.494217	-21.718836	-168.092455
16812		19.251056	-7.587708	8.901842	-14.393161	-0.724038	7.494671	-2.228870	5.721115	3.538835	-0.528320	0.236084	-0.492676	0.196257	-0.071469	0.084252	-0.060811	0.175988	-0.237139	0.953465	-29.841426	-17.863855	-167.905057
16813		19.760473	-6.208790	7.994924	-16.094980	-2.242977	5.309995	-2.140795	4.729163	4.156639	-0.489502	0.259521	-0.516357	0.200652	-0.057112	0.075857	-0.073122	0.149107	-0.252333	0.953283	-31.267056	-14.322505	-167.200048
16814		20.762851	-4.337646	7.123604	-17.898265	-4.338081	2.889044	-1.815074	3.773419	4.562279	-0.464111	0.287842	-0.526123	0.209835	-0.037981	0.067652	-0.088745	0.125941	-0.265700	0.951665	-32.556928	-11.101601	-166.093803
16815		21.611926	-4.599910	5.156980	-19.770889	-4.064570	0.545077	-1.153960	2.960548	4.712672	-0.428223	0.297607	-0.549561	0.217852	-0.040593	0.048598	-0.106496	0.106091	-0.275388	0.949508	-33.450232	-8.210684	-164.729957
16816		21.283112	-4.096508	3.466235	-20.120735	-4.222688	-2.132576	-0.179329	2.308228	4.639015	-0.408203	0.317139	-0.562988	0.214086	-0.035979	0.032230	-0.125235	0.088798	-0.279888	0.947678	-33.739146	-5.635514	-163.233822
16817		18.449098	0.239561	2.893642	-16.814299	-7.221449	-6.088971	0.257208	1.637213	4.485796	-0.373535	0.323975	-0.562744	0.184605	0.006500	0.027432	-0.144302	0.074612	-0.281628	0.945672	-33.723386	-3.430480	-161.608057
16818		18.571935	3.162776	1.529486	-16.388952	-9.407073	-9.474305	0.020554	0.908414	4.190628	-0.360596	0.345215	-0.568848	0.185069	0.035509	0.014457	-0.162836	0.064386	-0.283731	0.942781	-33.793074	-1.661879	-159.896386
16819		19.984563	5.660696	0.520510	-16.924476	-11.813937	-12.187742	-0.285143	0.311321	3.678552	-0.333008	0.366211	-0.578857	0.198767	0.060277	0.004811	-0.179641	0.057957	-0.286485	0.939307	-33.988502	-0.340914	-158.241865
16820		19.398200	8.524468	-1.822036	-15.599449	-12.996042	-16.137493	-0.577447	-0.248423	3.043453	-0.330566	0.371826	-0.568115	0.192678	0.088131	-0.018232	-0.194125	0.055290	-0.289860	0.935543	-34.321869	0.520638	-156.715704
16821		18.900538	8.392594	-3.265497	-15.130713	-12.267743	-17.485776	-0.805157	-0.902466	2.307882	-0.323486	0.386230	-0.572021	0.188167	0.085970	-0.032148	-0.206016	0.056979	-0.293382	0.931793	-34.769836	0.842194	-155.329011
16822		20.319292	4.736804	-1.837554	-17.113826	-11.203330	-14.315689	-0.630155	-1.292322	1.593812	-0.332764	0.385986	-0.551758	0.202921	0.048930	-0.017216	-0.215171	0.061332	-0.295455	0.928787	-35.118868	0.757313	-154.152628
16823		18.303929	2.749116	-1.082758	-15.667851	-9.549918	-12.472420	-0.154348	-1.329453	0.933291	-0.334961	0.389648	-0.558350	0.182975	0.028337	-0.009633	-0.221441	0.066327	-0.295036	0.927102	-35.201223	0.440145	-153.272511
16824		16.090027	2.099357	0.501191	-13.422885	-9.091755	-10.654877	0.204995	-1.373929	0.224081	-0.347168	0.398926	-0.554199	0.160837	0.021168	0.006139	-0.224592	0.072174	-0.292659	0.926661	-35.086475	-0.132010	-152.710482
16825		15.304718	0.106053	2.823698	-12.785096	-8.548700	-7.430158	0.325621	-1.235752	-0.399307	-0.349854	0.389404	-0.546875	0.152870	0.000708	0.029183	-0.224689	0.078153	-0.289630	0.927104	-34.904922	-0.845607	-152.487582
16826		12.514811	-0.263811	3.547825	-10.208727	-7.343837	-6.477398	0.345644	-1.046324	-0.942890	-0.357422	0.383789	-0.545410	0.124946	-0.003290	0.036127	-0.221984	0.084025	-0.286500	0.928214	-34.708850	-1.649758	-152.584833
16827		10.838071	-1.335727	4.574100	-8.792707	-6.217172	-4.893139	0.214603	-1.011150	-1.399701	-0.368896	0.373535	-0.546875	0.108050	-0.014164	0.046273	-0.217044	0.090518	-0.283801	0.929600	-34.576943	-2.584675	-152.911275
16828		10.493242	-3.070012	5.685401	-8.730384	-5.190949	-2.835093	0.175705	-0.888661	-1.709949	-0.395264	0.378662	-0.536865	0.104411	-0.031645	0.057291	-0.210447	0.096934	-0.281254	0.931242	-34.452574	-3.563806	-153.426449
16829		9.284405	-2.875315	4.825927	-7.795894	-4.234087	-3.563712	0.243104	-0.765740	-1.913396	-0.401123	0.364502	-0.536377	0.092377	-0.029697	0.048578	-0.202747	0.102965	-0.278393	0.933161	-34.270086	-4.547165	-154.081220
16830		7.630045	-2.869502	3.615436	-6.636030	-2.793881	-4.551786	0.225274	-0.842382	-2.073296	-0.421875	0.361084	-0.536865	0.075844	-0.029524	0.036442	-0.194369	0.109607	-0.275422	0.935067	-34.081925	-5.619003	-154.791194
16831		-12.402468	-20.058216	16.535855	10.471323	13.135390	13.582987	1.193372	-1.122733	-2.105518	-0.433105	0.348389	-0.532227	-0.127055	-0.200234	0.163455	-0.186733	0.116622	-0.267594	0.938043	-33.331211	-6.826072	-155.437384
16832		-17.712429	-10.126288	7.273297	15.507396	11.970518	-0.572509	1.165337	-1.059022	-1.906041	-0.450195	0.337646	-0.532227	-0.178461	-0.099984	0.071205	-0.179894	0.123101	-0.260031	0.940674	-32.592205	-7.934407	-156.024056
16833		-8.691219	-3.072616	-2.834536	6.087521	7.174835	-11.925591	1.489077	-2.744042	-2.495225	-0.470947	0.317383	-0.525635	-0.086883	-0.029424	-0.029760	-0.172631	0.137922	-0.248993	0.942963	-31.683539	-10.028800	-156.398740
16834		14.236605	-9.065320	13.282422	-10.255538	-3.576434	8.714198	1.249722	-3.703189	-2.110252	-0.504639	0.301758	-0.512695	0.138909	-0.092970	0.134842	-0.168129	0.156945	-0.238418	0.943535	-30.986713	-12.473974	-156.322450
16835		14.138772	-4.783906	12.745700	-8.765436	-6.463738	6.514841	1.274764	-3.158494	-1.477069	-0.530273	0.291504	-0.492188	0.138992	-0.049692	0.129352	-0.165920	0.172543	-0.228572	0.943639	-30.306902	-14.464959	-156.118410
16836		7.951251	1.242783	11.184323	-2.083192	-8.224195	1.043572	1.095379	-3.189925	-1.579106	-0.556641	0.273926	-0.479248	0.077806	0.011192	0.113157	-0.163048	0.188517	-0.219384	0.943264	-29.721003	-16.505187	-155.978236
16837		9.686828	1.256029	14.358247	-1.838572	-9.778237	4.419291	0.589908	-3.126592	-1.569361	-0.579590	0.264648	-0.459473	0.094700	0.011385	0.145109	-0.159627	0.204509	-0.212562	0.942079	-29.419527	-18.509755	-155.867110
16838		7.638106	0.677952	11.182817	-1.221414	-7.210956	1.604486	0.178067	-2.931012	-1.466697	-0.589355	0.268799	-0.439209	0.074778	0.006127	0.112938	-0.156009	0.219764	-0.207878	0.940293	-29.355182	-20.390925	-155.765055
16839		5.550103	-2.603351	9.262246	-0.676201	-2.805033	0.912708	-0.088107	-2.935992	-1.456236	-0.622314	0.255859	-0.420410	0.053942	-0.026389	0.093434	-0.152116	0.235156	-0.204398	0.937968	-29.448990	-22.268838	-155.654536
16840		7.166593	-6.103524	7.737406	-3.131432	0.230762	1.960566	-0.056496	-2.826071	-1.373521	-0.624512	0.259766	-0.390625	0.070142	-0.061498	0.078390	-0.148492	0.249888	-0.200893	0.935494	-29.534580	-24.071459	-155.527759
16841		7.971231	-6.496177	7.034797	-3.905037	0.608830	2.002483	0.005106	-2.764024	-1.195719	-0.638184	0.247070	-0.373047	0.078340	-0.065435	0.071435	-0.145683	0.264021	-0.197324	0.932809	-29.623058	-25.789678	-155.318328
16842		15.242292	-12.031222	10.720253	-8.360756	1.921744	10.641526	0.859980	-2.415862	-1.551911	-0.652344	0.237549	-0.354736	0.150175	-0.121948	0.108504	-0.141960	0.276227	-0.189504	0.931469	-29.087666	-27.438076	-155.421182
16843		17.438113	-9.100476	11.891437	-8.714612	-1.390473	11.410304	1.650711	-0.844566	-1.336644	-0.648682	0.228516	-0.356445	0.173261	-0.093147	0.118885	-0.138823	0.280273	-0.179383	0.932736	-27.913606	-28.231598	-155.916681
16844		7.316167	-4.503078	9.507754	-1.151286	-0.918813	2.916311	1.519732	-0.361028	-0.903058	-0.652100	0.225098	-0.355469	0.072784	-0.046081	0.094862	-0.137070	0.281770	-0.170795	0.934156	-26.851617	-28.660085	-156.325869
16845		8.164486	-1.337267	11.564095	-0.159120	-4.384438	3.712267	1.025198	-0.012311	-0.625458	-0.635986	0.214111	-0.354492	0.081594	-0.014220	0.115575	-0.135617	0.281690	-0.165139	0.935408	-26.095222	-28.829121	-156.683761
16846		7.162063	-3.126577	8.693178	-1.306597	-1.620243	1.689872	0.677524	0.099486	-0.392571	-0.633789	0.205566	-0.352539	0.071602	-0.031700	0.086789	-0.134662	0.281158	-0.161504	0.936340	-25.587645	-28.882966	-156.938252
16847		6.750006	-2.516327	8.309141	-1.118287	-1.879263	0.964782	0.458522	0.099967	-0.228295	-0.622314	0.215576	-0.359863	0.067513	-0.025431	0.083000	-0.134173	0.280601	-0.159128	0.936984	-25.251394	-28.890423	-157.096927
16848		5.475985	-2.115590	8.710323	0.187046	-1.861567	0.523238	0.238382	0.075191	-0.139036	-0.624268	0.225342	-0.355225	0.054778	-0.021298	0.087057	-0.133806	0.280271	-0.157886	0.937345	-25.070617	-28.892621	-157.195251
16849		5.838422	-2.126560	8.265311	-0.365338	-1.855605	0.353336	0.107847	-0.019416	-0.108070	-0.611084	0.235596	-0.364258	0.058365	-0.021342	0.082647	-0.133482	0.280412	-0.157242	0.937458	-24.985636	-28.931965	-157.249659
16850		4.859322	-2.548749	8.734581	0.628280	-1.232142	0.409305	-0.004221	-0.070257	-0.041033	-0.612305	0.243408	-0.376953	0.048557	-0.025496	0.087363	-0.133349	0.280849	-0.157175	0.937357	-24.991210	-28.985804	-157.249671
16851		4.886340	-2.601407	8.546965	0.506503	-1.152330	0.292252	-0.085878	-0.191096	-0.013130	-0.600586	0.245117	-0.372559	0.048780	-0.025981	0.085527	-0.133333	0.281848	-0.157457	0.937012	-25.067558	-29.091263	-157.200170
16852		5.190061	-3.189661	8.090960	-0.067460	-0.623718	0.295757	-0.150245	-0.238956	0.036236	-0.601807	0.254883	-0.371826	0.051810	-0.031826	0.080995	-0.133489	0.283112	-0.158069	0.936506	-25.202004	-29.213818	-157.107162
16853		5.714129	-2.971164	7.821605	-0.577969	-0.956207	0.257472	-0.215525	-0.273353	0.060403	-0.589600	0.268555	-0.385010	0.057043	-0.029610	0.078326	-0.133698	0.284524	-0.159007	0.935889	-25.385793	-29.343686	-156.990229
16854		5.680097	-3.401069	7.667003	-0.673330	-0.536904	0.280475	-0.271717	-0.293835	0.067258	-0.600342	0.276367	-0.389160	0.056700	-0.033887	0.076799	-0.133869	0.286099	-0.160193	0.935182	-25.607383	-29.486529	-156.862173
16855		6.057449	-3.841238	7.194830	-1.279474	-0.182436	0.264160	-0.326360	-0.333915	0.060354	-0.597900	0.289551	-0.382813	0.060466	-0.038277	0.072112	-0.133968	0.287866	-0.161607	0.934382	-25.864453	-29.646877	-156.726466
16856		5.420515	-3.942256	7.406216	-0.621816	0.054349	0.156545	-0.364671	-0.325942	0.067327	-0.599121	0.293701	-0.382813	0.054098	-0.039269	0.074222	-0.134030	0.289651	-0.163205	0.933543	-26.145454	-29.805351	-156.587255
16857		5.023894	-4.293872	7.206895	-0.435612	0.528959	-0.058384	-0.370805	-0.333115	0.048566	-0.602539	0.308594	-0.404053	0.050129	-0.042793	0.072232	-0.134006	0.291450	-0.164808	0.932704	-26.426146	-29.967139	-156.456565
16858		4.669345	-4.120049	7.458259	0.062473	0.410248	-0.105431	-0.351031	-0.326608	0.036789	-0.606689	0.325684	-0.402100	0.046579	-0.041061	0.074731	-0.133944	0.293251	-0.166296	0.931884	-26.692213	-30.132656	-156.333045
16859		4.380381	-4.723062	7.139773	0.051997	1.108967	-0.260791	-0.337406	-0.327366	0.009195	-0.621582	0.336182	-0.402832	0.043689	-0.047108	0.071549	-0.133780	0.295030	-0.167687	0.931097	-26.942922	-30.300623	-156.225202
16860		5.057550	-4.403357	7.089328	-0.422333	0.576788	-0.080487	-0.283084	-0.362351	-0.038333	-0.620850	0.341309	-0.401855	0.050438	-0.043943	0.071047	-0.133496	0.297011	-0.168723	0.930320	-27.154802	-30.503022	-156.133274
16861		5.031147	-4.276091	7.011342	-0.385806	0.477534	-0.201274	-0.228695	-0.381347	-0.077260	-0.631348	0.343750	-0.402588	0.050161	-0.042700	0.070258	-0.133134	0.299038	-0.169442	0.929592	-27.327139	-30.720469	-156.058278
16862		4.986558	-4.185641	7.108956	-0.234661	0.383030	-0.183530	-0.183004	-0.389724	-0.106352	-0.636475	0.354736	-0.394287	0.049705	-0.041818	0.071225	-0.132705	0.301135	-0.169892	0.928894	-27.466939	-30.954274	-155.996402
16863		4.522198	-3.978252	7.575088	0.484426	0.245624	-0.150205	-0.160492	-0.397051	-0.120877	-0.647705	0.367920	-0.404297	0.045047	-0.039749	0.075872	-0.132254	0.303223	-0.170217	0.928219	-27.590712	-31.190923	-155.940789
16864		5.058911	-3.714959	7.241185	-0.056620	-0.100164	-0.230680	-0.134082	-0.390721	-0.134267	-0.659668	0.373291	-0.394531	0.050423	-0.037135	0.072535	-0.131768	0.305312	-0.170394	0.927571	-27.695254	-31.432422	-155.893717
16865		4.936878	-3.803295	7.385897	0.156450	-0.007722	-0.150151	-0.099834	-0.394305	-0.132500	-0.673584	0.386230	-0.399658	0.049198	-0.038029	0.073975	-0.131352	0.307355	-0.170421	0.926950	-27.781281	-31.670602	-155.844581
16866		5.402280	-3.795576	7.029199	-0.381703	-0.085913	-0.176949	-0.063716	-0.382341	-0.144781	-0.679688	0.391357	-0.393311	0.053861	-0.037972	0.070407	-0.130917	0.309365	-0.170260	0.926372	-27.841709	-31.910560	-155.805349
16867		5.208921	-3.661568	7.093808	-0.135172	-0.145890	-0.282611	-0.029848	-0.373718	-0.146537	-0.685303	0.402588	-0.389648	0.051930	-0.036643	0.071041	-0.130525	0.311276	-0.169952	0.925844	-27.880541	-32.141981	-155.770246
16868		5.628885	-3.897710	6.762189	-0.659282	0.012429	-0.212231	-0.026982	-0.360622	-0.188789	-0.699219	0.399170	-0.395752	0.056130	-0.039021	0.067728	-0.129924	0.313196	-0.169565	0.925352	-27.902773	-32.382730	-155.763654
16869		4.863096	-4.085933	7.359707	0.313605	0.324523	-0.101557	-0.014301	-0.317116	-0.215199	-0.706055	0.404053	-0.388184	0.048470	-0.040906	0.073677	-0.129189	0.314890	-0.169114	0.924962	-27.901332	-32.603880	-155.787388
16870		5.033892	-4.621051	6.969833	-0.100963	0.860998	-0.090489	0.041932	-0.249741	-0.251707	-0.714600	0.395752	-0.392822	0.050194	-0.046288	0.069751	-0.128310	0.316305	-0.168380	0.924736	-27.844574	-32.805347	-155.854017
16871		5.037784	-4.750662	6.773513	-0.222030	1.047853	-0.185583	0.121107	-0.138538	-0.304294	-0.720215	0.395020	-0.389160	0.050259	-0.047624	0.067741	-0.127226	0.317159	-0.167276	0.924793	-27.705016	-32.959711	-155.988998
16872		6.080745	-4.181131	6.599477	-1.044998	0.244950	0.028973	0.150894	-0.020915	-0.373014	-0.730469	0.406006	-0.383545	0.060722	-0.041974	0.065970	-0.125774	0.317545	-0.165993	0.925090	-27.505897	-33.076699	-156.201595
16873		5.687413	-4.190152	6.663567	-0.699683	0.407264	-0.135309	0.130346	0.042908	-0.408017	-0.737061	0.414063	-0.383301	0.056803	-0.042061	0.066596	-0.124073	0.317639	-0.164795	0.925502	-27.294081	-33.165369	-156.458267
16874		5.543172	-4.023969	6.746681	-0.511701	0.320876	-0.217278	0.178766	-0.001893	-0.394293	-0.748291	0.406494	-0.386475	0.055352	-0.040409	0.067431	-0.122572	0.317937	-0.163362	0.925854	-27.068386	-33.276434	-156.688316
16875		5.517642	-4.202150	6.863031	-0.435942	0.503254	-0.078202	0.148818	0.003820	-0.401397	-0.750000	0.412354	-0.378662	0.055093	-0.042183	0.068598	-0.120962	0.318191	-0.162064	0.926206	-26.853329	-33.381697	-156.930205
16876		5.302280	-3.236116	7.429202	0.208034	-0.405042	-0.139413	0.147673	-0.010981	-0.381645	-0.753418	0.416260	-0.385742	0.052957	-0.032517	0.074271	-0.119480	0.318538	-0.160789	0.926501	-26.649836	-33.492664	-157.150815
16877		5.444964	-2.708297	7.585657	0.266453	-0.940700	-0.139595	0.110033	-0.072161	-0.328917	-0.758789	0.418213	-0.378906	0.054378	-0.027214	0.075861	-0.118204	0.319106	-0.159739	0.926651	-26.492937	-33.616911	-157.326251
16878		6.110108	-2.811464	7.200650	-0.485885	-0.947007	-0.017070	0.089341	-0.130870	-0.302462	-0.762695	0.416016	-0.381836	0.061011	-0.028239	0.072034	-0.117107	0.319979	-0.158789	0.926653	-26.369494	-33.767745	-157.460453
16879		5.955938	-2.904498	7.143712	-0.397579	-0.774354	-0.107835	0.070081	-0.160300	-0.272914	-0.768799	0.421631	-0.377686	0.059462	-0.029151	0.071475	-0.116097	0.320932	-0.157960	0.926592	-26.268351	-33.922385	-157.575553
16880		6.051504	-2.997794	7.257077	-0.390094	-0.721181	0.066598	0.061220	-0.182002	-0.234868	-0.775146	0.430176	-0.368896	0.060414	-0.030071	0.072617	-0.115316	0.322003	-0.157217	0.926444	-26.192178	-34.081888	-157.652420
16881		5.541479	-3.249372	7.262252	-0.004945	-0.309192	-0.121917	0.064967	-0.176888	-0.209455	-0.776367	0.433838	-0.373047	0.055316	-0.032575	0.072661	-0.114603	0.322985	-0.156504	0.926312	-26.117896	-34.228758	-157.723973
16882		5.071417	-3.598271	7.225776	0.312110	0.187505	-0.286616	0.074229	-0.175808	-0.211533	-0.780273	0.434326	-0.365234	0.050613	-0.036063	0.072289	-0.113969	0.324002	-0.155742	0.926163	-26.041603	-34.378508	-157.785934
16883		4.842142	-3.808249	7.404229	0.595516	0.435835	-0.209195	0.103017	-0.167786	-0.223049	-0.784180	0.434814	-0.371094	0.048317	-0.038175	0.074063	-0.113248	0.324929	-0.154835	0.926079	-25.938412	-34.523933	-157.869514
16884		5.556002	-4.172335	6.798512	-0.356748	0.705774	-0.123940	0.143895	-0.167747	-0.274115	-0.798584	0.440918	-0.362793	0.055446	-0.041848	0.068002	-0.112435	0.325915	-0.153652	0.926028	-25.797935	-34.684793	-157.973370
16885		5.703342	-3.932577	6.763483	-0.447464	0.478105	-0.153027	0.191690	-0.181329	-0.335937	-0.799805	0.438721	-0.366211	0.056906	-0.039486	0.067649	-0.111345	0.326940	-0.152142	0.926048	-25.604722	-34.864911	-158.125023
16886		5.847632	-3.959938	6.676318	-0.594678	0.517597	-0.126234	0.237572	-0.229428	-0.401544	-0.806152	0.429443	-0.362793	0.058320	-0.039796	0.066783	-0.110151	0.328254	-0.150282	0.926030	-25.373910	-35.088307	-158.291249
16887		5.290829	-3.837669	7.121722	0.152871	0.528060	-0.161936	0.255068	-0.283544	-0.475218	-0.813965	0.434814	-0.370117	0.052716	-0.038593	0.071243	-0.108596	0.329817	-0.148192	0.925995	-25.108591	-35.354422	-158.503285
16888		5.421102	-3.173880	7.300399	0.271239	-0.115194	-0.186135	0.242233	-0.373637	-0.513638	-0.822998	0.439941	-0.364014	0.053993	-0.031966	0.073066	-0.106991	0.331874	-0.146044	0.925788	-24.854846	-35.678676	-158.702302
