// General information: 
//  MT Manager version: 2019.2.0 
//  XDA version: 2019.2.0 build 3853 rev 94535 built on 2019-09-09
// Device information: 
//  DeviceId: 00B4778F
//  ProductCode: MTW2-3A7G6
//  Firmware Version: 4.6.0
//  Hardware Version: 2.0.0
// Device settings: 
//  Filter Profile: human(46.1)
//  Option Flags: Orientation Smoother Disabled, AHS Disabled, ICC Disabled
// Coordinate system: ENU
PacketCounter	SampleTimeFine	Acc_X	Acc_Y	Acc_Z	FreeAcc_E	FreeAcc_N	FreeAcc_U	Gyr_X	Gyr_Y	Gyr_Z	Mag_X	Mag_Y	Mag_Z	VelInc_X	VelInc_Y	VelInc_Z	Quat_q0	Quat_q1	Quat_q2	Quat_q3	Roll	Pitch	Yaw
25600		9.217939	0.385114	3.407970	-0.154694	0.141747	0.020367	0.020719	0.025079	0.034372	-0.817627	-0.263916	-0.731689	0.092183	0.003863	0.034069	0.796050	0.144979	-0.555861	0.190539	3.197649	-70.090811	24.678598
25601		9.187765	0.377939	3.358549	-0.118533	0.155747	-0.024970	0.021996	0.029506	0.028325	-0.817383	-0.267822	-0.737793	0.091882	0.003789	0.033572	0.796085	0.144968	-0.555751	0.190719	3.167486	-70.076210	24.723609
25602		9.195804	0.342687	3.359318	-0.098883	0.128007	-0.017837	0.014981	0.028362	0.027485	-0.820068	-0.261719	-0.740967	0.091962	0.003437	0.033580	0.796123	0.144932	-0.555653	0.190875	3.134713	-70.062227	24.767192
25603		9.179923	0.283095	3.364474	-0.078884	0.073193	-0.032133	0.011221	0.028464	0.020412	-0.812744	-0.268555	-0.736816	0.091804	0.002838	0.033632	0.796170	0.144901	-0.555552	0.190992	3.111049	-70.047960	24.798729
25604		9.167813	0.295574	3.383348	-0.102681	0.076303	-0.036858	0.009925	0.023406	0.020070	-0.819092	-0.271484	-0.745361	0.091682	0.002963	0.033823	0.796206	0.144869	-0.555473	0.191099	3.087549	-70.036494	24.829173
25605		9.121632	0.264482	3.379581	-0.098131	0.045802	-0.082119	0.007752	0.024359	0.017089	-0.808350	-0.262939	-0.744141	0.091220	0.002651	0.033785	0.796248	0.144837	-0.555390	0.191191	3.067548	-70.024464	24.854704
25606		9.142419	0.268676	3.391930	-0.102503	0.048575	-0.058287	0.018892	0.020728	0.014352	-0.811768	-0.265625	-0.736572	0.091428	0.002690	0.033910	0.796276	0.144859	-0.555307	0.191298	3.058602	-70.014223	24.875057
25607		9.097689	0.290533	3.416382	-0.145710	0.052021	-0.091572	0.017110	0.018905	0.019901	-0.812012	-0.261475	-0.744141	0.090980	0.002911	0.034155	0.796293	0.144861	-0.555239	0.191422	3.040040	-70.005395	24.904765
25608		9.134762	0.319124	3.382431	-0.118479	0.099303	-0.067809	0.017108	0.018904	0.019905	-0.811768	-0.263916	-0.738281	0.091351	0.003197	0.033816	0.796312	0.144862	-0.555170	0.191545	3.021374	-69.996421	24.934275
25609		9.107847	0.274405	3.403100	-0.122189	0.047931	-0.086844	0.019962	0.016313	0.013760	-0.804199	-0.267334	-0.737793	0.091081	0.002747	0.034024	0.796326	0.144895	-0.555104	0.191651	3.014351	-69.988886	24.953446
25610		9.104908	0.254732	3.419197	-0.126222	0.023633	-0.084447	0.019860	0.014882	0.008981	-0.807617	-0.263428	-0.748779	0.091052	0.002548	0.034185	0.796341	0.144942	-0.555040	0.191736	3.014973	-69.981868	24.964328
25611		9.081592	0.197365	3.381505	-0.074266	-0.013740	-0.120261	0.018281	0.013399	-0.001518	-0.811523	-0.269775	-0.740723	0.090818	0.001970	0.033809	0.796363	0.145014	-0.554977	0.191774	3.031228	-69.975539	24.957699
25612		9.111483	0.170258	3.391306	-0.058889	-0.038382	-0.089307	0.019171	0.013992	-0.007490	-0.814209	-0.270752	-0.737305	0.091117	0.001696	0.033907	0.796393	0.145104	-0.554905	0.191790	3.057372	-69.968451	24.940818
25613		9.110997	0.171886	3.392528	-0.058992	-0.038717	-0.089309	0.026076	0.013694	-0.011411	-0.812500	-0.260010	-0.738037	0.091112	0.001709	0.033919	0.796419	0.145234	-0.554826	0.191810	3.093569	-69.961646	24.917716
25614		9.154522	0.151217	3.371416	-0.015985	-0.042841	-0.056024	0.024511	0.020074	-0.017719	-0.809570	-0.271729	-0.737793	0.091549	0.001500	0.033705	0.796471	0.145369	-0.554718	0.191806	3.138147	-69.950931	24.884681
25615		9.143905	0.219988	3.417955	-0.087543	-0.005788	-0.048769	0.030706	0.014183	-0.010289	-0.816406	-0.264404	-0.737793	0.091442	0.002190	0.034173	0.796494	0.145514	-0.554634	0.191845	3.175149	-69.943871	24.863543
25616		9.157104	0.227527	3.388097	-0.059971	0.014405	-0.046433	0.033374	0.017222	-0.015400	-0.817383	-0.268799	-0.739258	0.091574	0.002263	0.033873	0.796529	0.145681	-0.554530	0.191873	3.221470	-69.934841	24.834208
25617		9.167911	0.216063	3.372871	-0.036370	0.010623	-0.041705	0.035825	0.011431	-0.015053	-0.811523	-0.264893	-0.746582	0.091681	0.002148	0.033724	0.796545	0.145862	-0.554448	0.191904	3.269064	-69.929189	24.804914
25618		9.181262	0.224009	3.342616	-0.008792	0.030826	-0.039367	0.039667	0.011493	-0.015981	-0.810059	-0.264404	-0.741699	0.091815	0.002226	0.033421	0.796561	0.146060	-0.554361	0.191942	3.320198	-69.923343	24.773960
25619		9.227829	0.165683	3.392168	-0.005686	-0.038701	0.020194	0.044299	0.011344	-0.021257	-0.803467	-0.270264	-0.742432	0.092280	0.001640	0.033917	0.796576	0.146292	-0.554266	0.191972	3.382316	-69.917515	24.734369
25620		9.224904	0.150101	3.408104	-0.009719	-0.062998	0.022580	0.052381	0.015298	-0.023195	-0.812988	-0.260498	-0.746582	0.092252	0.001481	0.034074	0.796601	0.146556	-0.554146	0.192018	3.451689	-69.909135	24.691673
25621		9.221848	0.134771	3.424409	-0.013785	-0.087310	0.024965	0.052770	0.019123	-0.023269	-0.814941	-0.277588	-0.745361	0.092222	0.001328	0.034236	0.796634	0.146820	-0.554011	0.192070	3.520995	-69.898756	24.649593
25622		9.181827	0.114322	3.347502	0.050419	-0.079810	-0.039465	0.062224	0.021698	-0.024259	-0.810547	-0.271729	-0.742188	0.091822	0.001122	0.033465	0.796669	0.147120	-0.553855	0.192143	3.596863	-69.886689	24.605960
25623		9.113003	0.116497	3.376278	0.007561	-0.103390	-0.094205	0.066535	0.020445	-0.011861	-0.808838	-0.270020	-0.737793	0.091134	0.001148	0.033754	0.796684	0.147406	-0.553710	0.192279	3.655999	-69.875932	24.583103
25624		9.137657	0.110748	3.329909	0.058845	-0.086646	-0.087135	0.063754	0.008739	-0.009284	-0.804688	-0.274170	-0.737793	0.091378	0.001093	0.033295	0.796667	0.147685	-0.553615	0.192408	3.710681	-69.871839	24.563210
25625		9.160059	0.171431	3.369109	0.006691	-0.049948	-0.051313	0.071712	0.005319	-0.000966	-0.816162	-0.273193	-0.732910	0.091601	0.001702	0.033689	0.796626	0.147976	-0.553533	0.192591	3.757260	-69.870122	24.556885
25626		9.143775	0.149469	3.415224	-0.025034	-0.094784	-0.051278	0.073955	-0.002063	0.002653	-0.816406	-0.272705	-0.734131	0.091437	0.001483	0.034154	0.796560	0.148274	-0.553480	0.192790	3.800359	-69.872726	24.555867
25627		9.165373	0.156872	3.425135	-0.029443	-0.092041	-0.027449	0.075117	-0.005032	0.006861	-0.811523	-0.281982	-0.739258	0.091653	0.001559	0.034254	0.796480	0.148567	-0.553441	0.193005	3.837751	-69.877222	24.561404
25628		9.200895	0.169232	3.403461	-0.006176	-0.068788	-0.001271	0.083070	-0.009106	0.008798	-0.819824	-0.269043	-0.747559	0.092007	0.001682	0.034039	0.796380	0.148892	-0.553412	0.193249	3.877316	-69.884103	24.569864
25629		9.214974	0.176175	3.371346	0.021391	-0.048607	0.001075	0.080985	-0.006721	0.010596	-0.815430	-0.279785	-0.738525	0.092149	0.001753	0.033717	0.796287	0.149199	-0.553377	0.193495	3.912432	-69.889712	24.581405
25630		9.227680	0.216275	3.382595	-0.002742	-0.018434	0.017798	0.089129	-0.000667	0.019849	-0.813721	-0.271729	-0.733398	0.092276	0.002157	0.033827	0.796197	0.149506	-0.553317	0.193803	3.937021	-69.892145	24.608967
25631		9.203861	0.193151	3.386858	-0.002502	-0.045824	-0.003657	0.086651	-0.002775	0.015350	-0.816162	-0.272461	-0.737793	0.092038	0.001924	0.033871	0.796106	0.149819	-0.553264	0.194085	3.967547	-69.895691	24.628853
25632		9.197553	0.246778	3.372764	-0.018372	0.005246	-0.013143	0.078756	-0.004477	0.020461	-0.817871	-0.274658	-0.748779	0.091975	0.002464	0.033731	0.796011	0.150087	-0.553229	0.194365	3.985544	-69.900408	24.657110
25633		9.225636	0.200477	3.396252	-0.007013	-0.043415	0.020173	0.073731	-0.001587	0.017199	-0.810791	-0.279297	-0.739502	0.092256	0.002000	0.033964	0.795931	0.150342	-0.553186	0.194620	4.005647	-69.903354	24.680210
25634		9.216747	0.234521	3.397496	-0.026820	-0.016316	0.013066	0.067329	0.003352	0.019377	-0.813965	-0.279053	-0.735840	0.092168	0.002343	0.033974	0.795868	0.150560	-0.553129	0.194868	4.018120	-69.903398	24.707304
25635		9.159926	0.219371	3.408304	-0.045972	-0.043322	-0.036957	0.063482	0.003293	0.020310	-0.813477	-0.272949	-0.735596	0.091600	0.002192	0.034082	0.795806	0.150761	-0.553078	0.195111	4.026959	-69.903684	24.736146
25636		9.140891	0.233269	3.383017	-0.037787	-0.022755	-0.063166	0.064640	0.000337	0.024529	-0.813232	-0.285400	-0.745605	0.091409	0.002333	0.033831	0.795731	0.150957	-0.553041	0.195371	4.030136	-69.905783	24.771696
25637		9.120807	0.280618	3.400195	-0.081316	0.007793	-0.075001	0.067169	-0.003994	0.029707	-0.809082	-0.273926	-0.736328	0.091207	0.002808	0.034005	0.795637	0.151154	-0.553022	0.195656	4.027200	-69.910612	24.815325
25638		9.140116	0.265986	3.424811	-0.089662	-0.013436	-0.048796	0.067430	-0.007495	0.039906	-0.813232	-0.282959	-0.738281	0.091399	0.002667	0.034252	0.795523	0.151327	-0.553024	0.195979	4.008956	-69.917675	24.875354
25639		9.106476	0.307362	3.472773	-0.160861	-0.003399	-0.062988	0.067609	-0.005248	0.043071	-0.819580	-0.282227	-0.734863	0.091063	0.003081	0.034731	0.795412	0.151490	-0.553020	0.196317	3.985477	-69.923746	24.941120
25640		9.140978	0.349223	3.493788	-0.189291	0.029829	-0.022423	0.065804	-0.006341	0.055042	-0.816650	-0.274414	-0.744873	0.091408	0.003506	0.034942	0.795286	0.151615	-0.553030	0.196699	3.942535	-69.930854	25.026840
25641		9.187876	0.342163	3.456055	-0.142324	0.049616	0.008501	0.059615	0.000183	0.053951	-0.816895	-0.279297	-0.733154	0.091878	0.003436	0.034561	0.795185	0.151710	-0.553020	0.197062	3.896807	-69.934216	25.111411
25642		9.174071	0.334307	3.487662	-0.170081	0.028779	0.006140	0.053042	0.010782	0.057091	-0.812744	-0.280518	-0.731445	0.091742	0.003360	0.034873	0.795116	0.151759	-0.552977	0.197427	3.841150	-69.931524	25.202336
25643		9.195031	0.336066	3.499695	-0.174487	0.031510	0.029973	0.048270	0.031048	0.058799	-0.822510	-0.283203	-0.741211	0.091955	0.003379	0.034983	0.795103	0.151766	-0.552859	0.197802	3.778140	-69.917370	25.298391
25644		9.152307	0.374642	3.510166	-0.213688	0.058991	-0.005690	0.040841	0.047639	0.059232	-0.819336	-0.276367	-0.744629	0.091530	0.003766	0.035081	0.795141	0.151727	-0.552682	0.198171	3.708808	-69.893658	25.396930
25645		9.155957	0.408615	3.484195	-0.205836	0.106598	-0.010423	0.032485	0.047893	0.057393	-0.820313	-0.275635	-0.742188	0.091567	0.004107	0.034821	0.795189	0.151657	-0.552511	0.198510	3.637560	-69.869743	25.492153
25646		9.126715	0.451402	3.464568	-0.217357	0.154620	-0.043717	0.020526	0.057581	0.057326	-0.809570	-0.280762	-0.744141	0.091276	0.004537	0.034620	0.795273	0.151529	-0.552314	0.198820	3.558655	-69.840125	25.587892
25647		9.140118	0.448006	3.553102	-0.281419	0.119398	-0.000779	0.013252	0.061322	0.059053	-0.805176	-0.275635	-0.738281	0.091411	0.004505	0.035503	0.795370	0.151366	-0.552110	0.199122	3.472977	-69.808498	25.686784
25648		9.149731	0.516130	3.613058	-0.357216	0.159564	0.030335	-0.001017	0.069003	0.046406	-0.815186	-0.273438	-0.744873	0.091509	0.005183	0.036099	0.795513	0.151172	-0.551879	0.199338	3.398499	-69.771766	25.764887
25649		9.191510	0.487602	3.597636	-0.314222	0.155365	0.063634	-0.028228	0.072130	0.050604	-0.811279	-0.270508	-0.742432	0.091927	0.004904	0.035943	0.795679	0.150856	-0.551668	0.199500	3.301780	-69.733575	25.850261
25650		9.245962	0.497155	3.594143	-0.295241	0.181686	0.113675	-0.041344	0.076872	0.042178	-0.822998	-0.274414	-0.737061	0.092472	0.004998	0.035905	0.795878	0.150503	-0.551443	0.199593	3.210318	-69.692195	25.921537
25651		9.330703	0.565199	3.670908	-0.360310	0.227564	0.221026	-0.072853	0.081881	0.040336	-0.809814	-0.276367	-0.752686	0.093321	0.005684	0.036669	0.796115	0.150028	-0.551229	0.199598	3.103756	-69.648003	25.990185
25652		9.352481	0.492185	3.718811	-0.352930	0.154908	0.256678	-0.106409	0.088612	0.033858	-0.808350	-0.275146	-0.743896	0.093540	0.004957	0.037144	0.796402	0.149430	-0.551016	0.199489	2.987829	-69.599613	26.048242
25653		9.349250	0.484954	3.727873	-0.353027	0.154565	0.256680	-0.124979	0.093124	0.028673	-0.807617	-0.272217	-0.745850	0.093509	0.004886	0.037232	0.796720	0.148768	-0.550800	0.199312	2.869241	-69.548551	26.097896
25654		9.395274	0.492372	3.685863	-0.302050	0.198297	0.285264	-0.147322	0.104130	0.015743	-0.811768	-0.263428	-0.746826	0.093972	0.004958	0.036806	0.797098	0.148041	-0.550551	0.199030	2.757414	-69.490624	26.126616
25655		9.345595	0.455852	3.691125	-0.297503	0.167861	0.239956	-0.164059	0.119742	0.014016	-0.814453	-0.275879	-0.746826	0.093478	0.004595	0.036852	0.797531	0.147237	-0.550256	0.198706	2.637744	-69.423863	26.153553
25656		9.276681	0.433535	3.672133	-0.284654	0.158345	0.168455	-0.172384	0.133728	0.001379	-0.804199	-0.268066	-0.743164	0.092791	0.004368	0.036656	0.798021	0.146421	-0.549903	0.198319	2.532054	-69.348674	26.160391
25657		9.204442	0.393166	3.669196	-0.275797	0.124858	0.099309	-0.178247	0.149133	-0.013080	-0.808594	-0.268066	-0.751465	0.092072	0.003958	0.036620	0.798570	0.145605	-0.549483	0.197870	2.444225	-69.264381	26.144626
25658		9.101625	0.381891	3.658089	-0.282327	0.115759	-0.000761	-0.186555	0.164563	-0.020844	-0.808350	-0.265869	-0.750732	0.091047	0.003843	0.036502	0.799175	0.144763	-0.549003	0.197378	2.362794	-69.170971	26.116950
25659		9.022996	0.309544	3.571928	-0.189771	0.089730	-0.105739	-0.175587	0.166571	-0.030282	-0.803711	-0.264893	-0.760986	0.090260	0.003113	0.035641	0.799785	0.143987	-0.548498	0.196879	2.301705	-69.076310	26.074179
25660		8.947198	0.252907	3.584893	-0.184870	0.032292	-0.172535	-0.166485	0.165361	-0.038985	-0.797852	-0.265625	-0.757568	0.089502	0.002541	0.035773	0.800394	0.143273	-0.547980	0.196368	2.259045	-68.982006	26.017087
25661		8.940157	0.198268	3.571287	-0.137244	-0.002008	-0.184554	-0.157392	0.156953	-0.045508	-0.799561	-0.253662	-0.768799	0.089430	0.001990	0.035641	0.800978	0.142621	-0.547482	0.195851	2.231562	-68.892533	25.949421
25662		8.923593	0.125833	3.530146	-0.061571	-0.042814	-0.215676	-0.141784	0.158051	-0.058592	-0.806152	-0.258301	-0.761963	0.089264	0.001257	0.035230	0.801567	0.142063	-0.546954	0.195321	2.232059	-68.801889	25.860736
25663		8.917956	0.126407	3.544341	-0.061674	-0.043142	-0.215678	-0.120605	0.156501	-0.058293	-0.802734	-0.257568	-0.766846	0.089208	0.001259	0.035373	0.802133	0.141594	-0.546411	0.194853	2.243952	-68.712391	25.773357
25664		8.963493	0.104736	3.578839	-0.050673	-0.064795	-0.160927	-0.114533	0.161507	-0.071036	-0.796387	-0.266602	-0.760010	0.089664	0.001036	0.035715	0.802722	0.141176	-0.545833	0.194350	2.277136	-68.619609	25.666391
25665		8.919187	0.031399	3.485184	0.061264	-0.091233	-0.237340	-0.097726	0.166893	-0.082087	-0.800537	-0.263184	-0.772705	0.089221	0.000294	0.034777	0.803323	0.140854	-0.545209	0.193856	2.335190	-68.523576	25.543394
25666		8.941920	-0.005981	3.409484	0.164275	-0.084546	-0.244594	-0.077536	0.161942	-0.085415	-0.801025	-0.257568	-0.770508	0.089447	-0.000085	0.034022	0.803898	0.140626	-0.544581	0.193399	2.409377	-68.430102	25.415508
25667		8.914640	-0.057861	3.383928	0.216206	-0.121902	-0.280453	-0.056586	0.156010	-0.091484	-0.795898	-0.266113	-0.775391	0.089172	-0.000610	0.033770	0.804447	0.140505	-0.543953	0.192971	2.503529	-68.339951	25.278879
25668		8.902782	-0.103230	3.326117	0.295842	-0.138755	-0.313927	-0.036743	0.131439	-0.095329	-0.788574	-0.266602	-0.770996	0.089049	-0.001069	0.033203	0.804920	0.140496	-0.543401	0.192562	2.615288	-68.263526	25.135258
25669		8.940602	-0.137660	3.330405	0.334831	-0.166961	-0.278280	-0.012111	0.116802	-0.096949	-0.790039	-0.255371	-0.768066	0.089425	-0.001418	0.033252	0.805335	0.140605	-0.542883	0.192205	2.743504	-68.195473	24.989241
25670		9.021505	-0.161005	3.355034	0.365213	-0.189067	-0.194964	0.015692	0.088828	-0.092474	-0.796387	-0.265869	-0.776367	0.090229	-0.001654	0.033510	0.805652	0.140841	-0.542454	0.191920	2.882481	-68.143287	24.848548
25671		9.060964	-0.193873	3.355511	0.404198	-0.217281	-0.159320	0.043510	0.068085	-0.090129	-0.784424	-0.258301	-0.764404	0.090620	-0.001987	0.033524	0.805888	0.141203	-0.542083	0.191707	3.034880	-68.103047	24.710704
25672		9.098475	-0.193194	3.397752	0.391487	-0.235489	-0.109308	0.072969	0.050416	-0.080454	-0.788330	-0.266602	-0.771484	0.090993	-0.001981	0.033954	0.806048	0.141673	-0.541762	0.191599	3.191277	-68.072984	24.586543
25673		9.112015	-0.178506	3.370938	0.419062	-0.215334	-0.106921	0.087605	0.032104	-0.063602	-0.792725	-0.269043	-0.772461	0.091125	-0.001829	0.033694	0.806130	0.142175	-0.541512	0.191587	3.333260	-68.053921	24.487107
25674		9.199053	-0.220942	3.445238	0.413444	-0.278884	0.000178	0.105354	0.012030	-0.054472	-0.787598	-0.270020	-0.770996	0.091992	-0.002253	0.034446	0.806137	0.142743	-0.541332	0.191645	3.474082	-68.046464	24.399891
25675		9.225520	-0.221061	3.399676	0.464714	-0.262215	0.007301	0.117927	0.009891	-0.046468	-0.786377	-0.270508	-0.771240	0.092256	-0.002252	0.033991	0.806120	0.143342	-0.541155	0.191767	3.610760	-68.040528	24.324893
25676		9.216812	-0.218003	3.473276	0.404938	-0.300492	0.026344	0.130605	0.007122	-0.044852	-0.793945	-0.276123	-0.770752	0.092169	-0.002223	0.034728	0.806086	0.143991	-0.540977	0.191929	3.752717	-68.036054	24.252027
25677		9.216736	-0.157054	3.502730	0.357109	-0.266855	0.038366	0.130441	0.007737	-0.038395	-0.792236	-0.273193	-0.783447	0.092168	-0.001611	0.035023	0.806046	0.144621	-0.540802	0.192116	3.885219	-68.031522	24.189257
25678		9.216023	-0.110051	3.432263	0.397000	-0.201803	0.012244	0.132626	0.004698	-0.046508	-0.787598	-0.274902	-0.779785	0.092161	-0.001145	0.034320	0.806004	0.145284	-0.540630	0.192274	4.030796	-68.028235	24.113689
25679		9.194868	-0.106785	3.421621	0.401207	-0.205187	-0.011595	0.138203	0.001432	-0.039465	-0.786865	-0.280029	-0.777832	0.091949	-0.001110	0.034215	0.805942	0.145953	-0.540471	0.192473	4.169829	-68.027148	24.048671
25680		9.221759	-0.054725	3.403124	0.404797	-0.154535	0.007565	0.134448	-0.005066	-0.038002	-0.791504	-0.273438	-0.765381	0.092217	-0.000588	0.034033	0.805864	0.146609	-0.540342	0.192663	4.305391	-68.029595	23.984911
25681		9.248869	0.049379	3.412033	0.360643	-0.069909	0.038760	0.131847	-0.013063	-0.027583	-0.793457	-0.271973	-0.780762	0.092487	0.000459	0.034127	0.805755	0.147235	-0.540257	0.192882	4.425524	-68.037194	23.936347
25682		9.294163	0.138922	3.446586	0.308189	-0.006202	0.096132	0.126420	-0.003932	-0.023393	-0.785400	-0.282959	-0.770264	0.092941	0.001357	0.034469	0.805671	0.147817	-0.540142	0.193108	4.535446	-68.039669	23.895073
25683		9.339112	0.175029	3.453740	0.303447	0.023506	0.141474	0.122497	0.006077	-0.015088	-0.791504	-0.280273	-0.772461	0.093392	0.001722	0.034536	0.805608	0.148352	-0.539997	0.193366	4.630434	-68.036840	23.867848
25684		9.311259	0.227065	3.429877	0.291967	0.071556	0.108239	0.112725	0.019195	-0.005793	-0.783203	-0.286133	-0.774414	0.093116	0.002249	0.034291	0.805579	0.148811	-0.539815	0.193645	4.705184	-68.026850	23.856395
25685		9.316648	0.284378	3.501713	0.212147	0.087751	0.141713	0.098357	0.030359	-0.002507	-0.781738	-0.275879	-0.777344	0.093172	0.002825	0.035004	0.805586	0.149192	-0.539604	0.193907	4.765654	-68.010723	23.851474
25686		9.351159	0.351105	3.513183	0.187734	0.144926	0.179993	0.082227	0.046266	-0.002317	-0.786621	-0.282471	-0.773438	0.093520	0.003496	0.035112	0.805650	0.149490	-0.539344	0.194136	4.814674	-67.985359	23.848617
25687		9.280262	0.405342	3.570258	0.097171	0.155499	0.137222	0.062132	0.058404	-0.009240	-0.774414	-0.277344	-0.769287	0.092813	0.004038	0.035677	0.805766	0.149716	-0.539051	0.194293	4.860458	-67.952893	23.837147
25688		9.265902	0.422655	3.591878	0.073393	0.158658	0.132492	0.045889	0.070604	-0.017025	-0.784668	-0.281982	-0.771729	0.092672	0.004210	0.035887	0.805936	0.149884	-0.538717	0.194383	4.906294	-67.912972	23.815276
25689		9.187760	0.423430	3.581756	0.062551	0.152702	0.056252	0.017197	0.088567	-0.024908	-0.785645	-0.276123	-0.777344	0.091894	0.004220	0.035777	0.806183	0.149942	-0.538334	0.194379	4.944527	-67.862510	23.784160
25690		9.103203	0.438849	3.630556	-0.003985	0.132807	-0.003295	-0.012082	0.098214	-0.039074	-0.788330	-0.286865	-0.770264	0.091051	0.004373	0.036261	0.806492	0.149908	-0.537929	0.194244	4.984382	-67.805759	23.732788
25691		9.057463	0.446022	3.717032	-0.083160	0.095003	-0.012843	-0.044422	0.101046	-0.048161	-0.785400	-0.284424	-0.773682	0.090594	0.004447	0.037124	0.806840	0.149768	-0.537538	0.193990	5.017944	-67.746998	23.668554
25692		8.978324	0.446244	3.708872	-0.093996	0.089062	-0.089088	-0.079241	0.100973	-0.060218	-0.781006	-0.284180	-0.764648	0.089803	0.004450	0.037042	0.807225	0.149520	-0.537170	0.193594	5.048159	-67.687635	23.586401
25693		8.962231	0.477912	3.833364	-0.205503	0.060825	-0.055704	-0.097255	0.094078	-0.067722	-0.769775	-0.283203	-0.777832	0.089642	0.004767	0.038289	0.807613	0.149226	-0.536843	0.193113	5.078974	-67.631835	23.492356
25694		8.955392	0.460949	3.857180	-0.209588	0.036528	-0.053380	-0.123040	0.094213	-0.075699	-0.783936	-0.274658	-0.780029	0.089574	0.004599	0.038527	0.808027	0.148848	-0.536533	0.192531	5.105797	-67.575462	23.386561
25695		8.921139	0.491024	3.855964	-0.225065	0.060636	-0.084278	-0.127465	0.093777	-0.084824	-0.779053	-0.277344	-0.780029	0.089232	0.004897	0.038515	0.808452	0.148478	-0.536223	0.191900	5.142331	-67.518920	23.267524
25696		8.871902	0.516419	3.885061	-0.268228	0.064285	-0.117588	-0.138662	0.085779	-0.094441	-0.789551	-0.286377	-0.781738	0.088738	0.005149	0.038809	0.808872	0.148093	-0.535948	0.191191	5.186143	-67.466350	23.133142
25697		8.883384	0.486696	3.933925	-0.280647	0.019049	-0.089107	-0.151247	0.079135	-0.105007	-0.778076	-0.281494	-0.791992	0.088852	0.004850	0.039300	0.809293	0.147695	-0.535703	0.190403	5.237828	-67.417042	22.982852
25698		8.883303	0.456982	3.898650	-0.229029	0.008710	-0.103473	-0.161040	0.077736	-0.117382	-0.780762	-0.281250	-0.780518	0.088851	0.004549	0.038948	0.809729	0.147290	-0.535463	0.189537	5.300618	-67.367742	22.814252
25699		8.868311	0.422361	3.893646	-0.205121	-0.022110	-0.120256	-0.177417	0.073225	-0.123906	-0.774658	-0.288330	-0.787354	0.088700	0.004203	0.038900	0.810169	0.146841	-0.535252	0.188598	5.362981	-67.320679	22.636036
25700		8.907560	0.385125	3.895170	-0.166144	-0.050372	-0.084628	-0.194000	0.073651	-0.135694	-0.780029	-0.280762	-0.799316	0.089093	0.003829	0.038915	0.810633	0.146356	-0.535045	0.187566	5.431448	-67.272583	22.440846
25701		8.946975	0.347933	3.896475	-0.127184	-0.078636	-0.049001	-0.215913	0.068785	-0.139078	-0.768555	-0.273926	-0.780762	0.089486	0.003459	0.038930	0.811101	0.145796	-0.534876	0.186459	5.491954	-67.227070	22.240604
25702		9.003675	0.388217	3.880661	-0.104214	-0.028453	-0.001228	-0.230424	0.058844	-0.148873	-0.775391	-0.273682	-0.787354	0.090051	0.003860	0.038776	0.811562	0.145210	-0.534751	0.185263	5.558185	-67.186494	22.024692
25703		9.039586	0.423334	3.853310	-0.076941	0.018690	0.022710	-0.245746	0.059295	-0.154829	-0.779541	-0.276367	-0.784424	0.090411	0.004211	0.038501	0.812038	0.144579	-0.534634	0.184004	5.623188	-67.145339	21.800902
25704		9.121132	0.436377	3.805649	-0.006595	0.061862	0.079965	-0.266194	0.057425	-0.150817	-0.775391	-0.277832	-0.788086	0.091226	0.004346	0.038025	0.812518	0.143854	-0.534546	0.182704	5.670752	-67.105353	21.583030
25705		9.200094	0.429520	3.772366	0.059741	0.081049	0.139540	-0.280640	0.053289	-0.149396	-0.766602	-0.281006	-0.789551	0.092014	0.004279	0.037693	0.812995	0.143072	-0.534486	0.181369	5.708278	-67.067781	21.367234
25706		9.278060	0.434540	3.838672	0.038362	0.068837	0.237209	-0.301493	0.048947	-0.140554	-0.772461	-0.270996	-0.788818	0.092793	0.004338	0.038357	0.813464	0.142185	-0.534468	0.180010	5.722241	-67.033071	21.163976
25707		9.258929	0.397137	3.789537	0.094275	0.055452	0.199011	-0.316414	0.053159	-0.128385	-0.771973	-0.279785	-0.792480	0.092602	0.003972	0.037864	0.813942	0.141200	-0.534453	0.178664	5.710313	-66.996733	20.979519
25708		9.302179	0.375550	3.775209	0.137238	0.051134	0.232328	-0.317323	0.056998	-0.123700	-0.774170	-0.276367	-0.793457	0.093035	0.003758	0.037720	0.814424	0.140195	-0.534425	0.177335	5.690829	-66.958435	20.802597
25709		9.234561	0.338307	3.761250	0.146078	0.017762	0.163129	-0.308559	0.059944	-0.109794	-0.766602	-0.270752	-0.787842	0.092359	0.003390	0.037580	0.814893	0.139186	-0.534386	0.176089	5.657039	-66.919335	20.646687
25710		9.183559	0.337596	3.802290	0.098900	-0.002560	0.132128	-0.307550	0.051022	-0.098613	-0.767334	-0.266602	-0.794678	0.091847	0.003389	0.037994	0.815326	0.138158	-0.534388	0.174885	5.609949	-66.885952	20.505863
25711		9.138259	0.180772	3.752497	0.194804	-0.124875	0.064971	-0.301562	0.045084	-0.091002	-0.767090	-0.267090	-0.794434	0.091392	0.001823	0.037502	0.815730	0.137140	-0.534414	0.173723	5.556695	-66.856470	20.375400
25712		9.113134	0.152211	3.759264	0.195007	-0.152194	0.043441	-0.294699	0.040376	-0.082946	-0.768311	-0.265625	-0.802734	0.091140	0.001540	0.037572	0.816107	0.136130	-0.534457	0.172607	5.497138	-66.830104	20.255885
25713		9.054773	0.130900	3.770269	0.175827	-0.179027	-0.006669	-0.289576	0.041238	-0.079409	-0.763428	-0.262207	-0.805908	0.090556	0.001328	0.037682	0.816479	0.135132	-0.534493	0.171521	5.435629	-66.803553	20.141821
25714		9.001681	0.149299	3.753291	0.164684	-0.157903	-0.061396	-0.276178	0.039014	-0.075613	-0.768555	-0.266357	-0.805176	0.090025	0.001511	0.037513	0.816831	0.134179	-0.534527	0.170483	5.376930	-66.778399	20.032733
25715		8.943479	0.128013	3.763773	0.145504	-0.184727	-0.111507	-0.258948	0.036145	-0.071146	-0.766113	-0.259521	-0.803955	0.089442	0.001297	0.037620	0.817157	0.133288	-0.534561	0.169508	5.322496	-66.755286	19.930024
25716		8.906005	0.153794	3.715802	0.162059	-0.143135	-0.163801	-0.246154	0.025510	-0.065992	-0.771729	-0.257813	-0.802246	0.089065	0.001554	0.037145	0.817441	0.132443	-0.534630	0.168580	5.269833	-66.738465	19.833213
25717		8.873940	0.106867	3.691583	0.190261	-0.176968	-0.204436	-0.238160	0.011328	-0.063714	-0.768799	-0.251709	-0.802979	0.088742	0.001084	0.036910	0.817679	0.131637	-0.534751	0.167674	5.220420	-66.729975	19.737978
25718		8.927445	0.143769	3.630244	0.245230	-0.109366	-0.178036	-0.230607	0.000563	-0.063449	-0.764648	-0.256104	-0.798828	0.089275	0.001451	0.036301	0.817881	0.130869	-0.534909	0.166781	5.176128	-66.727659	19.641592
25719		8.932554	0.067908	3.654614	0.256762	-0.185112	-0.166386	-0.223071	-0.008865	-0.058426	-0.762207	-0.252441	-0.808594	0.089324	0.000694	0.036549	0.818048	0.130127	-0.535102	0.165923	5.130771	-66.731024	19.551348
25720		8.933377	0.136186	3.671126	0.212967	-0.127449	-0.156635	-0.206257	-0.019291	-0.054293	-0.762451	-0.250488	-0.803223	0.089331	0.001375	0.036718	0.818172	0.129451	-0.535325	0.165119	5.090767	-66.740502	19.465556
25721		8.944624	0.171754	3.684195	0.188841	-0.097275	-0.139840	-0.192943	-0.025241	-0.050806	-0.766357	-0.247314	-0.804443	0.089442	0.001730	0.036852	0.818267	0.128825	-0.535564	0.164362	5.054543	-66.753650	19.384174
25722		8.957926	0.198994	3.596394	0.252465	-0.035705	-0.161103	-0.185338	-0.034652	-0.045878	-0.762451	-0.253906	-0.808105	0.089573	0.002003	0.035978	0.818327	0.128223	-0.535838	0.163638	5.017108	-66.772385	19.308523
25723		8.990273	0.239983	3.620329	0.224018	-0.002518	-0.120465	-0.177809	-0.035997	-0.044400	-0.764404	-0.247314	-0.804199	0.089897	0.002412	0.036217	0.818377	0.127651	-0.536111	0.162941	4.982371	-66.792032	19.234980
25724		9.037865	0.288736	3.614171	0.223288	0.051131	-0.077384	-0.175695	-0.038311	-0.046156	-0.774414	-0.247559	-0.810791	0.090372	0.002898	0.036156	0.818420	0.127093	-0.536390	0.162239	4.951465	-66.812843	19.158411
25725		9.101036	0.302834	3.647053	0.210191	0.059839	-0.005863	-0.161070	-0.029453	-0.048714	-0.765381	-0.241211	-0.804688	0.091006	0.003036	0.036481	0.818479	0.126595	-0.536619	0.161573	4.931394	-66.828572	19.079367
25726		9.166281	0.338075	3.667468	0.201107	0.092528	0.063360	-0.154626	-0.018003	-0.057813	-0.766113	-0.238037	-0.812500	0.091660	0.003383	0.036680	0.818572	0.126137	-0.536791	0.160892	4.925658	-66.837300	18.988361
25727		9.122671	0.307164	3.656609	0.205612	0.062212	0.017985	-0.141233	-0.004789	-0.059600	-0.766602	-0.233154	-0.806885	0.091227	0.003070	0.036566	0.818691	0.125729	-0.536895	0.160249	4.928692	-66.838421	18.896559
25728		9.101929	0.302521	3.644852	0.209811	0.058907	-0.005849	-0.133241	-0.002746	-0.064436	-0.769775	-0.244385	-0.809570	0.091020	0.003020	0.036448	0.818817	0.125361	-0.536982	0.159606	4.942086	-66.838065	18.797652
25729		9.093924	0.285740	3.616361	0.237697	0.052059	-0.024942	-0.124987	-0.004511	-0.059429	-0.769531	-0.246094	-0.799805	0.090939	0.002853	0.036164	0.818926	0.125020	-0.537072	0.159008	4.954170	-66.839023	18.706130
25730		9.060621	0.293953	3.620839	0.218200	0.052243	-0.053518	-0.115434	-0.011885	-0.060028	-0.763428	-0.247559	-0.807617	0.090605	0.002933	0.036212	0.819010	0.124724	-0.537185	0.158428	4.973393	-66.844173	18.612733
25731		9.099888	0.285510	3.656940	0.205402	0.033962	-0.003541	-0.103982	-0.013824	-0.057989	-0.756592	-0.243164	-0.805664	0.090997	0.002848	0.036574	0.819079	0.124472	-0.537297	0.157887	4.996713	-66.850495	18.522087
25732		9.053999	0.306478	3.677731	0.162237	0.037671	-0.036861	-0.093785	-0.011431	-0.055154	-0.772461	-0.235107	-0.800537	0.090539	0.003057	0.036781	0.819147	0.124252	-0.537392	0.157385	5.021902	-66.855476	18.435642
25733		9.082905	0.260284	3.698606	0.173430	-0.011108	-0.003692	-0.081183	-0.008314	-0.052532	-0.762207	-0.241943	-0.804199	0.090828	0.002594	0.036989	0.819212	0.124074	-0.537466	0.156930	5.050403	-66.858897	18.353575
25734		9.013700	0.255789	3.721423	0.130541	-0.034363	-0.058561	-0.072138	-0.000741	-0.050460	-0.768066	-0.239502	-0.805420	0.090138	0.002549	0.037214	0.819290	0.123920	-0.537505	0.156511	5.080250	-66.858127	18.275376
25735		9.036823	0.213182	3.701046	0.173766	-0.065696	-0.046785	-0.049600	-0.002407	-0.053209	-0.777344	-0.240479	-0.795654	0.090368	0.002117	0.037011	0.819352	0.123868	-0.537530	0.156142	5.127059	-66.858104	18.193078
25736		9.034405	0.195768	3.714249	0.169590	-0.089987	-0.044494	-0.036214	0.001113	-0.048565	-0.770020	-0.246582	-0.804199	0.090345	0.001942	0.037142	0.819411	0.123856	-0.537533	0.155830	5.174784	-66.856396	18.117996
25737		9.031203	0.222228	3.658997	0.205517	-0.048889	-0.068169	-0.025244	-0.008415	-0.046830	-0.761475	-0.233398	-0.801514	0.090311	0.002206	0.036593	0.819436	0.123892	-0.537568	0.155549	5.227761	-66.860078	18.044166
25738		9.003607	0.229744	3.704832	0.153983	-0.066131	-0.075366	-0.013145	-0.012897	-0.044485	-0.768066	-0.243408	-0.811279	0.090034	0.002280	0.037054	0.819441	0.123973	-0.537613	0.155306	5.285009	-66.866413	17.973002
25739		8.993652	0.265980	3.706960	0.134185	-0.038956	-0.082397	-0.007546	-0.021281	-0.042716	-0.766113	-0.241211	-0.807373	0.089933	0.002642	0.037079	0.819417	0.124080	-0.537689	0.155082	5.344292	-66.877595	17.903349
25740		9.053061	0.308500	3.685616	0.157142	0.011152	-0.034547	-0.006220	-0.022206	-0.035508	-0.762939	-0.236328	-0.802979	0.090527	0.003070	0.036866	0.819385	0.124173	-0.537772	0.154888	5.394798	-66.889606	17.843797
25741		9.072077	0.296229	3.708846	0.148658	-0.010140	-0.008420	-0.006738	-0.017503	-0.032641	-0.767090	-0.234863	-0.800537	0.090718	0.002949	0.037096	0.819364	0.124254	-0.537838	0.154709	5.440712	-66.899128	17.789194
25742		9.116752	0.357411	3.805508	0.060142	0.012127	0.072708	0.003386	-0.008257	-0.038000	-0.772705	-0.250244	-0.807129	0.091167	0.003556	0.038059	0.819365	0.124380	-0.537855	0.154539	5.498163	-66.903076	17.727858
25743		9.145130	0.383820	3.846070	0.027664	0.021327	0.115643	-0.002386	0.009484	-0.038327	-0.770752	-0.245850	-0.803955	0.091454	0.003821	0.038456	0.819418	0.124473	-0.537804	0.154365	5.550738	-66.896855	17.668727
25744		9.075159	0.380821	3.870613	-0.015214	-0.001917	0.060759	0.002521	0.022834	-0.041966	-0.762695	-0.244385	-0.804199	0.090757	0.003789	0.038696	0.819506	0.124586	-0.537691	0.154198	5.609301	-66.882817	17.606229
25745		9.022111	0.406684	3.852902	-0.026350	0.019267	0.006053	-0.007114	0.028863	-0.046048	-0.760986	-0.247314	-0.801758	0.090228	0.004047	0.038516	0.819619	0.124665	-0.537559	0.153992	5.666823	-66.865065	17.538760
25746		9.017628	0.433837	3.800204	0.009598	0.060367	-0.017604	-0.012341	0.020625	-0.047429	-0.773438	-0.253418	-0.801514	0.090181	0.004319	0.037992	0.819715	0.124733	-0.537463	0.153761	5.724242	-66.851856	17.468071
25747		8.970614	0.456423	3.823201	-0.033578	0.064110	-0.050932	-0.015802	0.005916	-0.042925	-0.766113	-0.242676	-0.806152	0.089708	0.004548	0.038229	0.819769	0.124786	-0.537434	0.153530	5.775550	-66.847314	17.401935
25748		8.993328	0.485263	3.821944	-0.034015	0.090755	-0.029371	-0.013708	-0.006952	-0.036790	-0.770264	-0.243652	-0.807129	0.089933	0.004839	0.038222	0.819783	0.124841	-0.537459	0.153322	5.821658	-66.850477	17.342811
25749		8.960100	0.494672	3.825947	-0.053502	0.090973	-0.057954	-0.018258	-0.015651	-0.034579	-0.765869	-0.247559	-0.802246	0.089599	0.004935	0.038266	0.819775	0.124878	-0.537525	0.153106	5.863371	-66.858672	17.285583
25750		9.027708	0.483437	3.814256	-0.014921	0.089587	-0.000780	-0.013580	-0.026099	-0.031757	-0.769775	-0.248291	-0.807617	0.090273	0.004823	0.038154	0.819734	0.124934	-0.537632	0.152906	5.905424	-66.872980	17.230764
25751		9.020763	0.468046	3.783256	0.012966	0.082745	-0.019871	-0.010611	-0.026678	-0.026808	-0.764648	-0.245605	-0.805664	0.090203	0.004670	0.037844	0.819685	0.124990	-0.537742	0.152735	5.942765	-66.887887	17.183064
25752		9.067878	0.451100	3.759334	0.055883	0.078359	0.013464	-0.009503	-0.021633	-0.026190	-0.766357	-0.255371	-0.807861	0.090675	0.004501	0.037603	0.819649	0.125044	-0.537831	0.152571	5.979246	-66.899909	17.136852
25753		9.040689	0.457435	3.804205	0.004348	0.061132	0.006250	-0.010076	-0.021606	-0.036114	-0.763672	-0.234619	-0.808594	0.090404	0.004560	0.038052	0.819620	0.125123	-0.537914	0.152366	6.028719	-66.911342	17.076306
25754		9.012896	0.437282	3.761749	0.036577	0.051309	-0.036682	-0.012476	-0.022339	-0.035903	-0.766846	-0.246826	-0.804199	0.090126	0.004359	0.037627	0.819592	0.125191	-0.538001	0.152154	6.076588	-66.923103	17.015680
25755		8.990855	0.413998	3.760878	0.036746	0.024030	-0.058245	-0.019067	-0.027114	-0.034911	-0.761230	-0.246826	-0.814209	0.089904	0.004128	0.037621	0.819553	0.125234	-0.538114	0.151926	6.120197	-66.937708	16.955919
25756		8.981108	0.448883	3.762097	0.016979	0.051227	-0.065264	-0.027110	-0.030543	-0.034773	-0.767822	-0.244141	-0.801025	0.089806	0.004478	0.037634	0.819511	0.125245	-0.538247	0.151674	6.159530	-66.954149	16.895519
25757		9.004210	0.412225	3.839247	-0.027601	-0.011491	-0.015512	-0.033625	-0.033201	-0.030549	-0.767822	-0.237793	-0.803955	0.090036	0.004115	0.038407	0.819462	0.125221	-0.538399	0.151421	6.189971	-66.972458	16.841018
25758		9.051617	0.394651	3.814693	0.015295	-0.015876	0.017822	-0.045859	-0.029621	-0.031295	-0.765381	-0.247314	-0.803467	0.090511	0.003941	0.038159	0.819431	0.125144	-0.538545	0.151132	6.213680	-66.988702	16.785772
25759		9.061671	0.369221	3.909458	-0.052977	-0.075060	0.062819	-0.048182	-0.017176	-0.029518	-0.770752	-0.236816	-0.809814	0.090614	0.003688	0.039101	0.819433	0.125046	-0.538643	0.150855	6.232163	-66.997931	16.735213
25760		9.137009	0.374324	3.926754	-0.042425	-0.069940	0.139084	-0.048017	-0.015486	-0.032610	-0.769775	-0.251709	-0.808105	0.091368	0.003738	0.039274	0.819442	0.124953	-0.538731	0.150563	6.254442	-67.005963	16.680161
25761		9.092353	0.388016	3.847494	0.002194	-0.034816	0.067770	-0.051964	-0.004662	-0.033357	-0.770508	-0.246826	-0.806641	0.090923	0.003875	0.038476	0.819483	0.124840	-0.538778	0.150268	6.274113	-67.007810	16.625962
25762		9.081667	0.421421	3.851092	-0.017583	-0.007630	0.060753	-0.062156	-0.005023	-0.032871	-0.764404	-0.242432	-0.796143	0.090816	0.004211	0.038512	0.819529	0.124685	-0.538834	0.149946	6.287428	-67.009857	16.572294
25763		9.091600	0.459835	3.866643	-0.041699	0.022545	0.077577	-0.066794	-0.003532	-0.030759	-0.770996	-0.251221	-0.800781	0.090916	0.004597	0.038667	0.819580	0.124504	-0.538888	0.149622	6.294958	-67.011213	16.522055
25764		9.101266	0.497944	3.882851	-0.065824	0.052714	0.094402	-0.072296	0.007785	-0.030789	-0.761230	-0.252197	-0.808838	0.091015	0.004979	0.038823	0.819664	0.124292	-0.538901	0.149290	6.297755	-67.006183	16.473587
25765		9.110450	0.535803	3.900215	-0.089939	0.082889	0.111228	-0.074638	0.020220	-0.028982	-0.773438	-0.243652	-0.809082	0.091109	0.005359	0.038991	0.819783	0.124056	-0.538865	0.148966	6.294868	-66.994122	16.429780
25766		9.081352	0.539178	3.950100	-0.141464	0.065681	0.103997	-0.078099	0.037401	-0.034211	-0.764160	-0.244141	-0.804443	0.090822	0.005392	0.039482	0.819954	0.123806	-0.538757	0.148622	6.294495	-66.971865	16.380977
25767		9.069737	0.501520	3.938346	-0.117619	0.034868	0.087170	-0.079239	0.042138	-0.041225	-0.765381	-0.243164	-0.803711	0.090707	0.005012	0.039362	0.820143	0.123568	-0.538627	0.148249	6.302045	-66.946553	16.322949
25768		9.052533	0.467338	3.884603	-0.061713	0.021507	0.048987	-0.077455	0.034382	-0.040129	-0.770752	-0.237793	-0.802002	0.090533	0.004670	0.038829	0.820309	0.123339	-0.538528	0.147880	6.310183	-66.925700	16.265192
25769		9.010248	0.483174	3.951852	-0.136940	0.007848	0.037001	-0.076712	0.034753	-0.038065	-0.766357	-0.248291	-0.808838	0.090110	0.004830	0.039501	0.820474	0.123108	-0.538428	0.147523	6.315921	-66.904787	16.210688
25770		8.982608	0.481632	3.901218	-0.100688	0.022003	-0.008194	-0.068742	0.025021	-0.039785	-0.771484	-0.244141	-0.805176	0.089832	0.004812	0.038999	0.820608	0.122920	-0.538361	0.147173	6.329835	-66.889336	16.152081
25771		8.981519	0.482508	3.903615	-0.100822	0.021689	-0.008194	-0.066696	0.021085	-0.038568	-0.766113	-0.242188	-0.805420	0.089820	0.004821	0.039025	0.820730	0.122742	-0.538309	0.146832	6.343909	-66.876165	16.094740
25772		8.950179	0.439856	3.877943	-0.072653	-0.012099	-0.048866	-0.063717	0.020494	-0.033630	-0.768066	-0.242920	-0.815186	0.089507	0.004396	0.038769	0.820845	0.122562	-0.538261	0.146518	6.353115	-66.863690	16.044437
25773		8.954531	0.410959	3.834162	-0.021085	-0.022482	-0.063207	-0.060820	0.019050	-0.027150	-0.766846	-0.233887	-0.794189	0.089550	0.004109	0.038332	0.820949	0.122378	-0.538220	0.146238	6.355572	-66.852395	16.003380
25774		8.962501	0.357755	3.845033	-0.005637	-0.074272	-0.053941	-0.058445	0.021040	-0.022567	-0.770264	-0.235840	-0.798096	0.089629	0.003579	0.038440	0.821053	0.122188	-0.538173	0.145983	6.352745	-66.840318	15.969192
25775		8.890366	0.328980	3.883114	-0.052553	-0.121387	-0.106611	-0.049732	0.025277	-0.014325	-0.758057	-0.238281	-0.804688	0.088909	0.003293	0.038819	0.821158	0.122011	-0.538106	0.145790	6.343524	-66.826291	15.947740
25776		8.922915	0.321557	3.880452	-0.033360	-0.122260	-0.078024	-0.046060	0.024212	-0.005817	-0.758301	-0.244385	-0.807861	0.089234	0.003222	0.038793	0.821251	0.121825	-0.538047	0.145639	6.325036	-66.813478	15.938339
25777		8.944583	0.346586	3.881867	-0.033792	-0.095627	-0.056444	-0.040489	0.024826	-0.008965	-0.753174	-0.239258	-0.803223	0.089451	0.003470	0.038807	0.821345	0.121672	-0.537978	0.145493	6.314045	-66.800051	15.924570
25778		8.969590	0.321990	3.850106	0.013457	-0.103037	-0.046944	-0.030709	0.020942	-0.001727	-0.764893	-0.232910	-0.809570	0.089700	0.003225	0.038491	0.821418	0.121541	-0.537922	0.145399	6.299685	-66.789165	15.920446
25779		8.965365	0.345198	3.797196	0.049430	-0.061934	-0.070544	-0.021682	0.015433	-0.001310	-0.760010	-0.235107	-0.808838	0.089657	0.003456	0.037965	0.821469	0.121451	-0.537883	0.145328	6.290681	-66.781570	15.916237
25780		8.967011	0.365291	3.785367	0.053338	-0.038253	-0.072799	-0.010579	0.005998	0.000290	-0.758301	-0.245117	-0.809814	0.089671	0.003655	0.037851	0.821488	0.121406	-0.537876	0.145285	6.286935	-66.779406	15.912595
25781		8.948387	0.380277	3.760807	0.061586	-0.017569	-0.098893	-0.000085	-0.000856	0.001543	-0.760498	-0.233887	-0.812988	0.089484	0.003803	0.037608	0.821481	0.121409	-0.537889	0.145275	6.288902	-66.781266	15.909914
25782		8.943133	0.383691	3.718276	0.093538	-0.000427	-0.120233	0.002893	-0.015859	0.000030	-0.765137	-0.244385	-0.801514	0.089428	0.003836	0.037190	0.821433	0.121437	-0.537961	0.145255	6.296713	-66.791447	15.902404
25783		8.921266	0.357672	3.717292	0.093693	-0.027682	-0.141822	0.013131	-0.025281	0.005914	-0.760254	-0.233643	-0.810547	0.089208	0.003577	0.037184	0.821348	0.121500	-0.538068	0.145283	6.304031	-66.807492	15.902140
25784		8.954416	0.395769	3.642188	0.153064	0.036814	-0.139066	0.014177	-0.032153	0.009693	-0.763916	-0.233887	-0.805908	0.089538	0.003959	0.036437	0.821242	0.121561	-0.538206	0.145324	6.307860	-66.827692	15.906121
25785		8.957579	0.416253	3.626611	0.156978	0.060470	-0.141312	0.018449	-0.027232	0.007392	-0.759277	-0.236572	-0.802246	0.089571	0.004162	0.036279	0.821148	0.121644	-0.538318	0.145371	6.316552	-66.844942	15.907675
25786		8.968325	0.454430	3.640067	0.132867	0.090665	-0.124469	0.029349	-0.028564	0.005711	-0.762207	-0.240967	-0.801758	0.089678	0.004542	0.036414	0.821045	0.121774	-0.538427	0.145438	6.333690	-66.862853	15.906403
25787		8.965841	0.479246	3.582619	0.168855	0.131767	-0.148047	0.037846	-0.030643	0.004240	-0.765381	-0.240967	-0.808105	0.089653	0.004788	0.035841	0.820932	0.121947	-0.538537	0.145523	6.358225	-66.881845	15.902815
25788		9.033974	0.467519	3.569710	0.207405	0.130276	-0.090851	0.045122	-0.027561	0.002077	-0.758057	-0.240723	-0.801758	0.090335	0.004668	0.035711	0.820825	0.122153	-0.538628	0.145619	6.389391	-66.898946	15.896446
25789		9.101973	0.456173	3.557046	0.245954	0.128780	-0.033653	0.050850	-0.023990	0.000616	-0.764404	-0.241699	-0.797607	0.091015	0.004553	0.035583	0.820725	0.122384	-0.538699	0.145728	6.425272	-66.913917	15.888625
25790		9.152847	0.416029	3.587385	0.252713	0.082891	0.023281	0.061297	-0.021041	-0.004496	-0.762695	-0.242920	-0.796875	0.091525	0.004147	0.035885	0.820629	0.122670	-0.538748	0.145845	6.473595	-66.926907	15.873749
25791		9.168571	0.427473	3.555212	0.280311	0.102981	0.025798	0.065836	-0.023377	-0.005044	-0.763428	-0.241211	-0.803467	0.091682	0.004261	0.035564	0.820525	0.122977	-0.538802	0.145971	6.525602	-66.941157	15.857734
25792		9.251197	0.426259	3.513248	0.346583	0.121881	0.085508	0.073591	-0.012672	-0.006920	-0.765625	-0.236816	-0.800049	0.092510	0.004246	0.035140	0.820447	0.123314	-0.538805	0.146117	6.582964	-66.949222	15.840651
25793		9.241727	0.391874	3.496240	0.370417	0.091060	0.068673	0.083577	-0.004190	-0.010690	-0.769775	-0.247803	-0.798584	0.092417	0.003899	0.034966	0.820387	0.123695	-0.538764	0.146279	6.649791	-66.952166	15.819579
25794		9.226288	0.361106	3.438242	0.426306	0.077684	0.030510	0.097322	0.004092	-0.007500	-0.762939	-0.242676	-0.800293	0.092264	0.003591	0.034382	0.820339	0.124118	-0.538682	0.146496	6.718863	-66.950719	15.804508
25795		9.233702	0.382759	3.467362	0.398150	0.083882	0.049604	0.107122	0.010861	-0.008168	-0.763184	-0.248291	-0.803467	0.092339	0.003805	0.034671	0.820303	0.124578	-0.538563	0.146742	6.793439	-66.945249	15.789676
25796		9.210757	0.361124	3.468825	0.398304	0.056622	0.028011	0.112926	0.005466	-0.004744	-0.767578	-0.237305	-0.809326	0.092109	0.003589	0.034688	0.820247	0.125056	-0.538464	0.147013	6.867611	-66.943070	15.778756
25797		9.276106	0.396641	3.390706	0.477034	0.120484	0.059409	0.115562	-0.001056	-0.003142	-0.760742	-0.246338	-0.799316	0.092761	0.003945	0.033910	0.820170	0.125546	-0.538390	0.147294	6.942198	-66.944711	15.769167
25798		9.296731	0.406310	3.402053	0.472556	0.123133	0.083260	0.128007	0.000469	0.002543	-0.758057	-0.240723	-0.802734	0.092967	0.004043	0.034023	0.820085	0.126067	-0.538305	0.147630	7.015756	-66.945865	15.767843
25799		9.344573	0.347359	3.448366	0.475247	0.053251	0.142424	0.123289	0.015542	0.012571	-0.762207	-0.241455	-0.800537	0.093448	0.003458	0.034479	0.820036	0.126534	-0.538168	0.148007	7.071049	-66.939162	15.784035
25800		9.336272	0.332775	3.421016	0.503133	0.046417	0.123347	0.130655	0.022830	0.016897	-0.761475	-0.250732	-0.793213	0.093366	0.003313	0.034202	0.819998	0.127010	-0.537998	0.148422	7.123163	-66.928603	15.807521
25801		9.392751	0.284500	3.397618	0.565636	0.014379	0.163703	0.131942	0.031674	0.017688	-0.763672	-0.247803	-0.801758	0.093933	0.002831	0.033963	0.819982	0.127486	-0.537791	0.148854	7.173874	-66.913105	15.834084
25802		9.337031	0.261000	3.306524	0.634281	0.019047	0.075624	0.136287	0.042082	0.026632	-0.766846	-0.253174	-0.801270	0.093377	0.002600	0.033047	0.819984	0.127948	-0.537543	0.149339	7.213348	-66.892418	15.875412
25803		9.330552	0.292895	3.355221	0.582447	0.028805	0.089960	0.152122	0.036204	0.031231	-0.767822	-0.253174	-0.797363	0.093311	0.002918	0.033538	0.819957	0.128468	-0.537310	0.149883	7.256810	-66.875338	15.922436
25804		9.333069	0.272036	3.412900	0.546150	-0.012951	0.113522	0.167935	0.030319	0.035859	-0.757813	-0.257080	-0.803711	0.093335	0.002708	0.034117	0.819898	0.129044	-0.537093	0.150484	7.304176	-66.862089	15.975032
25805		9.350618	0.259914	3.440448	0.537612	-0.034297	0.139603	0.189760	0.032624	0.037617	-0.757568	-0.254883	-0.803711	0.093511	0.002584	0.034392	0.819831	0.129703	-0.536850	0.151153	7.361320	-66.847542	16.030640
25806		9.313373	0.221828	3.374857	0.597888	-0.050635	0.077599	0.206302	0.050047	0.039399	-0.759766	-0.259521	-0.794434	0.093142	0.002202	0.033728	0.819797	0.130411	-0.536523	0.151882	7.422621	-66.823154	16.091817
25807		9.251762	0.228968	3.331094	0.614854	-0.035864	0.003848	0.225366	0.069859	0.037902	-0.755127	-0.259766	-0.809570	0.092529	0.002270	0.033281	0.819804	0.131187	-0.536099	0.152672	7.493373	-66.787523	16.154835
25808		9.210230	0.241899	3.300642	0.627487	-0.018138	-0.046060	0.233062	0.084722	0.042568	-0.776367	-0.260498	-0.794434	0.092116	0.002400	0.032970	0.819842	0.131970	-0.535610	0.153509	7.559852	-66.743776	16.227202
25809		9.237654	0.261246	3.248116	0.682841	0.022332	-0.040995	0.236242	0.090895	0.049472	-0.759766	-0.258301	-0.801025	0.092391	0.002597	0.032442	0.819887	0.132742	-0.535098	0.154388	7.617911	-66.697130	16.310862
25810		9.311510	0.260497	3.174918	0.781164	0.058608	-0.002563	0.238628	0.097982	0.059108	-0.756592	-0.262451	-0.800049	0.093130	0.002595	0.031707	0.819939	0.133493	-0.534562	0.155317	7.663323	-66.647467	16.409682
25811		9.361618	0.303775	3.121839	0.836239	0.125994	0.024124	0.243912	0.101069	0.065743	-0.757080	-0.261230	-0.810059	0.093631	0.003030	0.031175	0.819991	0.134245	-0.534010	0.156290	7.702785	-66.596345	16.518451
25812		9.439966	0.341283	3.022602	0.942740	0.210208	0.058108	0.247794	0.107651	0.074723	-0.755127	-0.262207	-0.796387	0.094415	0.003411	0.030179	0.820049	0.134982	-0.533434	0.157311	7.731535	-66.542162	16.640872
25813		9.531396	0.393949	2.993767	0.989128	0.283487	0.132492	0.261176	0.106094	0.084749	-0.755371	-0.268066	-0.789795	0.095328	0.003941	0.029892	0.820085	0.135750	-0.532860	0.158410	7.755542	-66.489700	16.777364
25814		9.567011	0.397153	2.884104	1.100230	0.337800	0.121036	0.268558	0.098557	0.100937	-0.754150	-0.278809	-0.804199	0.095682	0.003981	0.028799	0.820079	0.136511	-0.532321	0.159590	7.764240	-66.442966	16.935160
25815		9.580242	0.402493	2.861260	1.127856	0.357850	0.123596	0.286681	0.075040	0.109516	-0.753662	-0.267334	-0.800049	0.095811	0.004036	0.028582	0.819991	0.137341	-0.531868	0.160836	7.776627	-66.410077	17.100367
25816		9.553721	0.336143	2.639515	1.331763	0.386682	0.007216	0.309947	0.050891	0.124553	-0.759766	-0.270264	-0.800781	0.095542	0.003380	0.026376	0.819808	0.138247	-0.531504	0.162189	7.787403	-66.392102	17.281906
25817		9.487006	0.244741	2.547973	1.420354	0.336894	-0.095463	0.329329	0.027352	0.138980	-0.751953	-0.270264	-0.803955	0.094872	0.002471	0.025471	0.819535	0.139212	-0.531229	0.163637	7.794666	-66.388597	17.479418
25818		9.402728	0.166747	2.428408	1.517344	0.308129	-0.224205	0.349014	-0.007493	0.141135	-0.760498	-0.264160	-0.797363	0.094025	0.001691	0.024291	0.819152	0.140278	-0.531082	0.165117	7.816330	-66.405149	17.673030
25819		9.422288	0.035598	2.505574	1.512155	0.163335	-0.182247	0.359323	-0.031193	0.143872	-0.747559	-0.272217	-0.799316	0.094219	0.000379	0.025071	0.818693	0.141400	-0.531022	0.166622	7.844624	-66.435311	17.866302
25820		9.468237	-0.109591	2.947160	1.222433	-0.141411	0.027584	0.360326	-0.056103	0.144248	-0.752441	-0.283447	-0.787109	0.094675	-0.001081	0.029496	0.818164	0.142540	-0.531064	0.168109	7.876705	-66.479802	18.055166
25821		9.656168	-0.150745	3.343252	0.978679	-0.318741	0.355018	0.326392	-0.083898	0.147378	-0.756348	-0.276611	-0.793945	0.096549	-0.001491	0.033471	0.817580	0.143561	-0.531246	0.169502	7.890388	-66.540223	18.243664
25822		9.917955	-0.082015	3.148492	1.198076	-0.141890	0.523174	0.235433	-0.076799	0.159199	-0.759033	-0.283203	-0.785400	0.099168	-0.000778	0.031522	0.817067	0.144173	-0.531484	0.170706	7.834682	-66.597695	18.450861
25823		9.832904	0.074085	2.602888	1.536497	0.221649	0.240002	0.161181	-0.025887	0.157033	-0.758789	-0.274658	-0.792236	0.098325	0.000797	0.026042	0.816744	0.144443	-0.531574	0.171741	7.729537	-66.625800	18.665547
25824		9.527257	0.201123	2.613750	1.350940	0.302499	-0.028812	0.139610	0.004813	0.175090	-0.759033	-0.272949	-0.795410	0.095271	0.002076	0.026137	0.816500	0.144549	-0.531572	0.172813	7.582366	-66.637912	18.912270
25825		9.218679	0.304165	3.049243	0.825417	0.182655	-0.134891	0.114799	-0.058967	0.180018	-0.756348	-0.282471	-0.788086	0.092175	0.003107	0.030521	0.816101	0.144597	-0.531852	0.173794	7.425331	-66.686114	19.154445
25826		9.150759	0.298086	3.162599	0.694686	0.128321	-0.152036	0.073241	-0.140749	0.185034	-0.760498	-0.276367	-0.785400	0.091483	0.003054	0.031691	0.815508	0.144531	-0.532507	0.174623	7.250427	-66.781032	19.389533
25827		9.219241	0.295861	2.927375	0.893445	0.240843	-0.179663	0.043988	-0.163287	0.177742	-0.758789	-0.270508	-0.780273	0.092166	0.003034	0.029350	0.814882	0.144387	-0.533272	0.175330	7.070733	-66.887802	19.611911
25828		9.332062	0.356634	2.786125	1.003732	0.375872	-0.126188	0.051572	-0.146298	0.167457	-0.753662	-0.273438	-0.784180	0.093297	0.003637	0.027930	0.814303	0.144283	-0.533955	0.176026	6.904236	-66.984202	19.824040
25829		9.420315	0.397715	2.905451	0.902425	0.379957	0.004817	0.072396	-0.115638	0.161497	-0.758545	-0.270752	-0.776367	0.094183	0.004043	0.029110	0.813796	0.144255	-0.534487	0.176777	6.751624	-67.062247	20.034370
25830		9.418102	0.390267	3.110233	0.722462	0.293032	0.082698	0.069312	-0.075984	0.158027	-0.757813	-0.268799	-0.785156	0.094166	0.003966	0.031139	0.813399	0.144187	-0.534860	0.177531	6.594290	-67.117452	20.247306
25831		9.302884	0.375046	3.162248	0.632560	0.250274	-0.003440	0.046353	-0.052558	0.162309	-0.762695	-0.271973	-0.771973	0.093017	0.003819	0.031648	0.813077	0.143995	-0.535158	0.178261	6.413820	-67.159175	20.471497
25832		9.144546	0.399507	3.221049	0.503692	0.235728	-0.125160	-0.003689	-0.069179	0.171053	-0.762451	-0.276123	-0.776123	0.091431	0.004074	0.032242	0.812738	0.143588	-0.535577	0.178878	6.194229	-67.210851	20.706464
25833		9.029795	0.375553	3.015678	0.625731	0.297010	-0.310437	-0.056179	-0.104643	0.184105	-0.762451	-0.256592	-0.772705	0.090279	0.003847	0.030203	0.812329	0.142968	-0.536193	0.179384	5.931059	-67.282897	20.956450
25834		8.879834	0.338441	2.825934	0.724327	0.334975	-0.522101	-0.084302	-0.151761	0.195142	-0.761475	-0.272705	-0.780273	0.088774	0.003483	0.028325	0.811802	0.142243	-0.537036	0.179823	5.641126	-67.382276	21.217371
25835		8.774484	0.303937	2.811406	0.690211	0.306112	-0.624772	-0.095764	-0.200605	0.205404	-0.761963	-0.260010	-0.771240	0.087713	0.003143	0.028201	0.811142	0.141490	-0.538091	0.180241	5.334697	-67.509246	21.489279
25836		8.697886	0.221438	2.817452	0.667223	0.228654	-0.694423	-0.113164	-0.237641	0.211591	-0.776367	-0.259277	-0.769775	0.086943	0.002322	0.028277	0.810387	0.140682	-0.539317	0.180608	5.010823	-67.657343	21.768667
25837		8.463293	0.035382	2.900377	0.570542	0.003488	-0.884352	-0.136033	-0.225577	0.203906	-0.775635	-0.247803	-0.763672	0.084600	0.000460	0.029099	0.809685	0.139791	-0.540505	0.180892	4.679372	-67.797320	22.042130
25838		8.216399	-0.175397	3.071501	0.409853	-0.283460	-1.053366	-0.125041	-0.216760	0.186338	-0.777344	-0.243408	-0.766846	0.082132	-0.001658	0.030805	0.809012	0.138982	-0.541638	0.181138	4.373893	-67.931267	22.293603
25839		8.071920	-0.377648	3.313788	0.223373	-0.579687	-1.100988	-0.100030	-0.228823	0.180024	-0.771240	-0.249512	-0.760742	0.080685	-0.003687	0.033232	0.808295	0.138304	-0.542788	0.181420	4.090005	-68.070970	22.537484
25840		8.083414	-0.559022	3.362040	0.241988	-0.754959	-1.076050	-0.071955	-0.233994	0.168664	-0.773682	-0.250488	-0.755127	0.080799	-0.005510	0.033717	0.807551	0.137772	-0.543927	0.181725	3.835315	-68.213067	22.766428
25841		8.139678	-0.656137	3.447698	0.208406	-0.866309	-0.993531	-0.018724	-0.235330	0.151240	-0.771240	-0.246094	-0.764160	0.081361	-0.006497	0.034573	0.806782	0.137507	-0.545007	0.182106	3.633654	-68.354619	22.971463
25842		8.303256	-0.609633	3.747270	-0.030142	-0.926128	-0.729788	0.035917	-0.257791	0.152055	-0.778076	-0.244629	-0.756104	0.082989	-0.006040	0.037579	0.805911	0.137477	-0.546130	0.182622	3.461199	-68.509104	23.178154
25843		8.548004	-0.540777	4.045898	-0.253949	-0.956786	-0.391961	0.075024	-0.303760	0.157898	-0.777832	-0.238525	-0.754883	0.085423	-0.005356	0.040587	0.804880	0.137633	-0.547402	0.183238	3.304130	-68.689552	23.392541
25844		8.882234	-0.443891	4.269899	-0.403272	-0.920469	0.001240	0.114250	-0.328198	0.175686	-0.782471	-0.245605	-0.756348	0.088756	-0.004385	0.042842	0.803736	0.137917	-0.548750	0.184013	3.141695	-68.884633	23.635978
25845		9.255748	-0.376869	4.541236	-0.569416	-0.926258	0.446525	0.150404	-0.327109	0.198232	-0.782227	-0.240479	-0.748047	0.092487	-0.003711	0.045561	0.802547	0.138285	-0.550070	0.184980	2.962912	-69.079216	23.919338
25846		9.449955	-0.285558	4.769565	-0.772083	-0.917803	0.708404	0.175440	-0.320289	0.226713	-0.785156	-0.241455	-0.749268	0.094426	-0.002790	0.047844	0.801329	0.138666	-0.551361	0.186132	2.750231	-69.270641	24.253452
25847		9.648494	-0.260801	4.911000	-0.871288	-0.929614	0.941659	0.203441	-0.285123	0.251760	-0.791016	-0.235840	-0.743896	0.096418	-0.002537	0.049245	0.800162	0.139060	-0.552496	0.187487	2.508531	-69.441845	24.635817
25848		9.730467	-0.313783	4.931333	-0.869057	-0.972702	1.022303	0.237308	-0.230203	0.282045	-0.797852	-0.237549	-0.733154	0.097252	-0.003059	0.049422	0.799091	0.139450	-0.553401	0.189091	2.230797	-69.581969	25.076379
25849		9.743736	-0.349196	4.969083	-0.905394	-1.014473	1.045728	0.299886	-0.166841	0.307773	-0.799561	-0.232422	-0.736816	0.097401	-0.003417	0.049767	0.798123	0.139962	-0.554006	0.191018	1.941640	-69.685331	25.567617
25850		9.666632	-0.370464	5.014707	-0.976071	-1.057803	0.988082	0.354669	-0.097268	0.334802	-0.794678	-0.238525	-0.730713	0.096648	-0.003632	0.050188	0.797279	0.140547	-0.554299	0.193249	1.634560	-69.748673	26.110649
25851		9.496647	-0.423770	4.925608	-0.941354	-1.081559	0.797287	0.404190	-0.026470	0.361868	-0.786133	-0.246582	-0.729248	0.094968	-0.004165	0.049260	0.796565	0.141188	-0.554275	0.195777	1.309431	-69.770591	26.703522
25852		9.151689	-0.423594	4.716281	-0.879153	-1.029203	0.402202	0.442949	0.035431	0.376742	-0.792969	-0.240479	-0.734619	0.091533	-0.004168	0.047137	0.795974	0.141878	-0.553975	0.198512	0.980470	-69.756251	27.323814
25853		8.936249	-0.336926	4.486579	-0.798649	-0.869947	0.122341	0.452289	0.033532	0.390844	-0.791016	-0.237793	-0.727295	0.089377	-0.003296	0.044843	0.795351	0.142569	-0.553677	0.201327	0.636259	-69.741651	27.966441
25854		8.904295	-0.348773	4.209168	-0.578353	-0.745219	-0.002727	0.448794	0.013067	0.402166	-0.797852	-0.244385	-0.732178	0.089053	-0.003403	0.042078	0.794655	0.143232	-0.553468	0.204160	0.272660	-69.737626	28.627173
25855		8.919271	-0.304904	4.093171	-0.506322	-0.635830	-0.028019	0.441123	-0.006072	0.400999	-0.787842	-0.239990	-0.725586	0.089197	-0.002960	0.040928	0.793906	0.143888	-0.553335	0.206952	-0.092791	-69.742938	29.285657
25856		8.943754	-0.103612	4.058088	-0.577162	-0.424130	-0.016947	0.425977	-0.010067	0.403545	-0.792480	-0.234131	-0.730957	0.089437	-0.000942	0.040583	0.793147	0.144478	-0.553233	0.209707	-0.471816	-69.749204	29.948950
25857		9.119688	0.271449	4.034197	-0.701258	-0.040982	0.138376	0.391175	-0.029175	0.390297	-0.797852	-0.236816	-0.727295	0.091186	0.002814	0.040361	0.792368	0.144987	-0.553228	0.212299	-0.850366	-69.764835	30.590822
25858		9.338659	0.531574	3.916611	-0.683085	0.293673	0.300673	0.348486	-0.007749	0.375789	-0.798096	-0.239990	-0.724365	0.093375	0.005423	0.039179	0.791689	0.145340	-0.553170	0.214727	-1.231447	-69.766999	31.208687
25859		9.400489	0.752027	4.029602	-0.878241	0.459533	0.394659	0.333784	0.044535	0.348682	-0.795410	-0.237061	-0.718262	0.094001	0.007617	0.040288	0.791190	0.145657	-0.552896	0.217046	-1.575808	-69.738114	31.779088
25860		9.425647	0.826128	4.112702	-0.982033	0.506363	0.444934	0.300003	0.087734	0.316787	-0.798584	-0.245361	-0.727295	0.094261	0.008349	0.041098	0.790865	0.145878	-0.552463	0.219175	-1.887050	-69.684033	32.293306
25861		9.420709	0.931022	4.303626	-1.193014	0.522572	0.504355	0.286061	0.122429	0.279851	-0.796631	-0.240723	-0.719727	0.094220	0.009381	0.042992	0.790682	0.146110	-0.551877	0.221145	-2.144391	-69.609825	32.742118
25862		9.432602	1.062019	4.335486	-1.280164	0.638391	0.524233	0.252066	0.141955	0.243247	-0.792725	-0.253662	-0.726318	0.094344	0.010680	0.043301	0.790616	0.146284	-0.551224	0.222888	-2.361699	-69.524725	33.127368
25863		9.476732	1.220016	4.404507	-1.399665	0.763629	0.587042	0.241237	0.143364	0.200027	-0.798340	-0.240967	-0.727539	0.094787	0.012242	0.043992	0.790608	0.146534	-0.550543	0.224432	-2.516099	-69.439329	33.439327
25864		9.575155	1.375533	4.363640	-1.412229	0.946362	0.662379	0.228958	0.137496	0.153196	-0.790039	-0.249512	-0.727539	0.095771	0.013779	0.043586	0.790642	0.146869	-0.549864	0.225752	-2.605308	-69.358353	33.674074
25865		9.678805	1.323995	4.342430	-1.330706	0.940326	0.753009	0.210681	0.125507	0.106378	-0.798096	-0.239014	-0.720459	0.096808	0.013246	0.043378	0.790708	0.147276	-0.549217	0.226828	-2.633255	-69.285286	33.832487
25866		9.635843	1.299405	4.158475	-1.174279	1.003252	0.648927	0.202654	0.113136	0.051021	-0.796387	-0.248535	-0.722900	0.096379	0.012977	0.041543	0.790808	0.147815	-0.548587	0.227652	-2.582887	-69.220835	33.902050
25867		9.537686	1.179589	4.071554	-1.061705	0.923043	0.529324	0.202650	0.085540	0.014419	-0.791016	-0.243408	-0.723145	0.095393	0.011762	0.040687	0.790873	0.148488	-0.548037	0.228312	-2.478875	-69.173059	33.914511
25868		9.394238	1.141374	3.987317	-1.007607	0.898709	0.367204	0.202390	0.069965	-0.013797	-0.787354	-0.247314	-0.729736	0.093957	0.011367	0.039852	0.790927	0.149252	-0.547529	0.228847	-2.334119	-69.134960	33.882982
25869		9.391198	1.045141	3.866792	-0.852581	0.867963	0.324311	0.208321	0.056342	-0.038197	-0.783691	-0.245117	-0.723145	0.093925	0.010393	0.038652	0.790966	0.150124	-0.547047	0.229292	-2.150189	-69.105102	33.813392
25870		9.279566	0.893521	3.766606	-0.716084	0.757286	0.187801	0.201705	0.058726	-0.057720	-0.789063	-0.255127	-0.728271	0.092809	0.008870	0.037648	0.791038	0.151018	-0.546550	0.229641	-1.941281	-69.074257	33.712573
25871		9.200500	0.731459	3.661996	-0.560266	0.645899	0.079903	0.198897	0.052012	-0.068567	-0.793213	-0.249756	-0.727783	0.092017	0.007247	0.036603	0.791105	0.151941	-0.546073	0.229937	-1.718271	-69.047256	33.595331
25872		9.201238	0.586211	3.558003	-0.389778	0.563605	0.046126	0.195853	0.047100	-0.086512	-0.783691	-0.247314	-0.725098	0.092023	0.005787	0.035564	0.791181	0.152904	-0.545605	0.230147	-1.471008	-69.023247	33.449887
25873		9.245325	0.450851	3.475727	-0.228002	0.487119	0.060037	0.192894	0.051658	-0.095523	-0.783447	-0.257324	-0.727539	0.092464	0.004431	0.034738	0.791281	0.153876	-0.545114	0.230319	-1.212101	-68.996454	33.290472
25874		9.298576	0.338855	3.535886	-0.186296	0.361906	0.132921	0.196394	0.080700	-0.113425	-0.781494	-0.258545	-0.730225	0.093002	0.003301	0.035325	0.791478	0.154875	-0.544491	0.230448	-0.924474	-68.953004	33.101927
25875		9.330087	0.257594	3.516320	-0.099895	0.299159	0.156358	0.185168	0.133903	-0.123989	-0.790039	-0.266357	-0.723389	0.093326	0.002486	0.035103	0.791838	0.155799	-0.543660	0.230549	-0.627459	-68.878751	32.896824
25876		9.262785	0.210177	3.515696	-0.071431	0.238536	0.093948	0.180584	0.185673	-0.136609	-0.782471	-0.260986	-0.730469	0.092662	0.002007	0.035073	0.792356	0.156677	-0.542619	0.230626	-0.315803	-68.774573	32.672775
25877		9.130098	0.112703	3.446807	0.021830	0.159058	-0.054305	0.172603	0.230816	-0.143838	-0.781250	-0.263428	-0.737793	0.091341	0.001032	0.034364	0.793009	0.157493	-0.541401	0.230688	-0.000513	-68.644033	32.440046
25878		9.043712	0.148334	3.394037	0.047390	0.195033	-0.154020	0.164615	0.254980	-0.141631	-0.770752	-0.272217	-0.739502	0.090481	0.001391	0.033826	0.793730	0.158240	-0.540098	0.230753	0.303414	-68.499259	32.213853
25879		8.888076	0.080429	3.359469	0.093315	0.122804	-0.311818	0.162746	0.270702	-0.130863	-0.769775	-0.276367	-0.737793	0.088927	0.000719	0.033475	0.794479	0.158935	-0.538740	0.230871	0.587150	-68.345043	32.008523
25880		8.792810	0.113573	3.379998	0.058977	0.120995	-0.392889	0.156415	0.250795	-0.115326	-0.767090	-0.281250	-0.735107	0.087971	0.001059	0.033691	0.795160	0.159583	-0.537481	0.231015	0.841903	-68.202057	31.829855
25881		8.741981	0.118320	3.379067	0.067628	0.114858	-0.440574	0.154619	0.224911	-0.097767	-0.766357	-0.271484	-0.731445	0.087458	0.001114	0.033693	0.795750	0.160209	-0.536339	0.231204	1.068655	-68.073723	31.680502
25882		8.715447	0.110976	3.444316	0.035667	0.070210	-0.441007	0.155432	0.197882	-0.073347	-0.770020	-0.276855	-0.737793	0.087189	0.001051	0.034358	0.796238	0.160801	-0.535322	0.231469	1.259899	-67.961028	31.569495
25883		8.614544	0.102177	3.489350	-0.006862	0.020480	-0.517749	0.150270	0.172749	-0.044891	-0.769287	-0.262695	-0.742432	0.086176	0.000976	0.034820	0.796628	0.161327	-0.534433	0.231816	1.407580	-67.862914	31.502549
25884		8.514659	0.138667	3.400393	0.027178	0.077560	-0.643470	0.152150	0.155705	-0.017718	-0.760254	-0.280518	-0.739502	0.085173	0.001353	0.033939	0.796940	0.161805	-0.533632	0.232257	1.517813	-67.774968	31.476547
25885		8.438972	0.184572	3.476653	-0.067306	0.064859	-0.684232	0.143408	0.137843	0.008999	-0.757813	-0.278809	-0.735352	0.084414	0.001825	0.034710	0.797178	0.162200	-0.532932	0.232770	1.586038	-67.697587	31.491125
25886		8.398038	0.180528	3.506678	-0.090799	0.041297	-0.710684	0.140182	0.109576	0.037377	-0.761475	-0.280762	-0.738037	0.083999	0.001796	0.035022	0.797310	0.162538	-0.532372	0.233363	1.613737	-67.636925	31.547112
25887		8.429950	0.225136	3.534838	-0.119158	0.074371	-0.669926	0.142378	0.081322	0.062743	-0.768311	-0.281738	-0.740967	0.084313	0.002253	0.035316	0.797335	0.162851	-0.531941	0.234042	1.608735	-67.592786	31.640260
25888		8.521229	0.173604	3.545745	-0.065434	0.047907	-0.581913	0.134195	0.057746	0.080396	-0.760986	-0.280762	-0.743408	0.085222	0.001747	0.035434	0.797282	0.163111	-0.531629	0.234747	1.575550	-67.562491	31.758466
25889		8.550372	0.196804	3.587014	-0.097899	0.057006	-0.538991	0.140650	0.058711	0.101763	-0.758301	-0.297119	-0.736816	0.085513	0.001986	0.035846	0.797201	0.163340	-0.531321	0.235559	1.516732	-67.531866	31.908817
25890		8.566828	0.166036	3.677284	-0.142698	-0.005806	-0.489591	0.162668	0.065485	0.111278	-0.761475	-0.279297	-0.734131	0.085679	0.001678	0.036746	0.797108	0.163623	-0.530969	0.236470	1.457344	-67.497516	32.073224
25891		8.641006	0.169951	3.856969	-0.256385	-0.073751	-0.352196	0.189785	0.060352	0.125913	-0.762451	-0.283203	-0.736572	0.086421	0.001717	0.038545	0.796961	0.163981	-0.530615	0.237508	1.393861	-67.466175	32.259173
25892		8.731146	0.023227	3.803622	-0.103383	-0.144508	-0.290639	0.198729	0.046617	0.137553	-0.757324	-0.289307	-0.742188	0.087320	0.000255	0.038016	0.796756	0.164359	-0.530316	0.238603	1.320125	-67.442840	32.461448
25893		8.846680	-0.184518	3.837212	0.024465	-0.305363	-0.172763	0.230627	0.035267	0.146354	-0.750000	-0.285156	-0.741455	0.088475	-0.001825	0.038354	0.796482	0.164855	-0.530028	0.239810	1.253227	-67.425958	32.676499
25894		9.088003	-0.371648	3.780967	0.250303	-0.376190	0.027102	0.253700	0.027844	0.158781	-0.761475	-0.295898	-0.742676	0.090888	-0.003692	0.037792	0.796153	0.165417	-0.529753	0.241119	1.182740	-67.413441	32.909358
25895		9.285227	-0.556267	3.645335	0.521129	-0.411410	0.155889	0.267985	0.026757	0.166019	-0.752441	-0.283691	-0.750488	0.092862	-0.005534	0.036433	0.795799	0.166020	-0.529469	0.242495	1.110772	-67.401458	33.153126
25896		9.437629	-0.570094	3.572389	0.634239	-0.346446	0.268658	0.300111	0.025476	0.162141	-0.756592	-0.285156	-0.738281	0.094385	-0.005678	0.035703	0.795418	0.166759	-0.529148	0.243936	1.062604	-67.390129	33.390596
25897		9.587327	-0.437453	3.329105	0.793098	-0.071554	0.314356	0.322815	0.027650	0.171684	-0.760010	-0.283447	-0.740967	0.095882	-0.004346	0.033271	0.795008	0.167563	-0.528795	0.245480	1.014555	-67.377517	33.642528
25898		9.605426	-0.329502	3.134447	0.886077	0.130747	0.256836	0.357062	0.042821	0.175832	-0.754150	-0.284912	-0.748535	0.096064	-0.003266	0.031318	0.794603	0.168470	-0.528343	0.247138	0.980105	-67.356252	33.900459
25899		9.487171	-0.118223	3.048323	0.794371	0.332361	0.115614	0.376237	0.060875	0.186057	-0.753906	-0.291260	-0.740967	0.094882	-0.001151	0.030452	0.794213	0.169405	-0.527800	0.248906	0.942712	-67.324614	34.174092
25900		9.291143	0.063383	3.017621	0.651722	0.463564	-0.076377	0.394701	0.060086	0.207127	-0.754395	-0.289795	-0.734619	0.092920	0.000671	0.030150	0.793776	0.170356	-0.527255	0.250800	0.887293	-67.293612	34.478097
25901		9.132574	0.275552	3.063462	0.444556	0.586755	-0.204216	0.394840	0.076489	0.217820	-0.752930	-0.289551	-0.737061	0.091334	0.002795	0.030605	0.793364	0.171260	-0.526649	0.252753	0.817770	-67.253099	34.798254
25902		8.857002	0.478941	3.068392	0.235546	0.699157	-0.456054	0.371615	0.099033	0.231298	-0.750244	-0.284424	-0.739258	0.088580	0.004835	0.030649	0.793011	0.172005	-0.525994	0.254714	0.716770	-67.199683	35.137640
25903		8.712386	0.595855	3.022001	0.155456	0.798439	-0.607715	0.333852	0.091626	0.240334	-0.760010	-0.293457	-0.736084	0.087130	0.006013	0.030190	0.792655	0.172587	-0.525419	0.256607	0.583182	-67.150207	35.489623
25904		8.631801	0.738408	2.948204	0.098531	0.947807	-0.711200	0.296841	0.080720	0.243417	-0.763428	-0.295166	-0.737793	0.086321	0.007445	0.029458	0.792295	0.173025	-0.524938	0.258400	0.425188	-67.106747	35.844500
25905		8.600556	0.867198	2.839177	0.088705	1.116768	-0.783431	0.214010	0.062658	0.238052	-0.760010	-0.294189	-0.738281	0.086004	0.008744	0.028374	0.791964	0.173175	-0.524627	0.259942	0.228261	-67.073091	36.190923
25906		8.581987	0.977037	2.713526	0.102545	1.282091	-0.850878	0.137724	0.010395	0.228785	-0.755859	-0.298584	-0.737793	0.085810	0.009850	0.027138	0.791572	0.173113	-0.524615	0.261198	0.000785	-67.068987	36.522557
25907		8.679109	1.107743	2.951650	-0.134329	1.288896	-0.670098	0.091239	-0.067996	0.216099	-0.761963	-0.288818	-0.743408	0.086769	0.011158	0.029551	0.791030	0.173004	-0.524960	0.262217	-0.236449	-67.109171	36.836373
25908		8.901703	1.345142	3.497880	-0.629142	1.236677	-0.254463	0.061015	-0.136659	0.189680	-0.761719	-0.290039	-0.732422	0.088980	0.013525	0.035044	0.790368	0.172932	-0.525595	0.262989	-0.456951	-67.188426	37.112452
25909		9.214367	1.742743	4.566954	-1.581233	1.039716	0.444868	0.134763	-0.149273	0.154550	-0.765137	-0.284424	-0.740234	0.092096	0.017468	0.045750	0.789653	0.173262	-0.526149	0.263808	-0.588926	-67.274634	37.338831
25910		9.540664	2.189288	5.154916	-2.199987	1.142829	0.968982	0.153740	-0.111068	0.098464	-0.766113	-0.294922	-0.739258	0.095367	0.021900	0.051619	0.789097	0.173762	-0.526481	0.264484	-0.633739	-67.339281	37.481672
25911		9.477006	1.549055	4.188838	-1.130884	1.144181	0.539681	0.073011	-0.044870	0.049029	-0.759766	-0.295654	-0.727295	0.094757	0.015498	0.041915	0.788848	0.173988	-0.526612	0.264814	-0.656269	-67.366168	37.550923
25912		9.328197	0.862769	3.575454	-0.313634	0.895660	0.169443	0.149299	-0.025235	0.004991	-0.762207	-0.298828	-0.737549	0.093277	0.008603	0.035773	0.788643	0.174604	-0.526528	0.265184	-0.574200	-67.382204	37.553659
25913		9.097865	0.913495	4.341523	-0.978929	0.445091	0.252004	0.253638	-0.072375	-0.043348	-0.758301	-0.291260	-0.725586	0.090965	0.009060	0.043460	0.788286	0.175822	-0.526448	0.265602	-0.366341	-67.425365	37.485435
25914		9.071304	0.955262	4.933564	-1.447672	0.120720	0.455261	0.241180	-0.133272	-0.090255	-0.760254	-0.290527	-0.732422	0.090684	0.009452	0.049408	0.787841	0.177193	-0.526583	0.265742	-0.100442	-67.503527	37.346048
25915		9.210700	0.637807	4.529433	-0.916583	0.101376	0.429827	0.161797	-0.143916	-0.118878	-0.763672	-0.284668	-0.723877	0.092078	0.006287	0.045366	0.787474	0.178343	-0.526838	0.265556	0.160912	-67.587424	37.163074
25916		9.379136	0.109566	4.108877	-0.236097	-0.066231	0.424642	0.102569	-0.105216	-0.129146	-0.768311	-0.293213	-0.723877	0.093770	0.001014	0.041139	0.787277	0.179231	-0.527011	0.265201	0.403994	-67.648893	36.962352
25917		9.358818	-0.096483	4.364591	-0.302611	-0.396393	0.502240	0.056928	-0.062488	-0.133675	-0.766602	-0.300537	-0.727783	0.093574	-0.001040	0.043675	0.787236	0.179898	-0.527070	0.264752	0.627625	-67.685466	36.755362
25918		9.184837	-0.121145	4.620116	-0.524502	-0.613029	0.437700	-0.047584	-0.035019	-0.144393	-0.766113	-0.297607	-0.720703	0.091839	-0.001267	0.046218	0.787377	0.180143	-0.527151	0.264005	0.806608	-67.706028	36.531228
25919		9.015796	-0.310303	4.382346	-0.282861	-0.677059	0.189682	-0.129452	0.000188	-0.144901	-0.768799	-0.292480	-0.728027	0.090156	-0.003140	0.043825	0.787683	0.180023	-0.527198	0.263077	0.938724	-67.706106	36.307789
25920		8.765476	-0.201702	4.277162	-0.341091	-0.592047	-0.081218	-0.125007	0.068004	-0.139221	-0.768311	-0.297852	-0.723389	0.087668	-0.002051	0.042743	0.788157	0.179814	-0.526980	0.262238	1.063745	-67.667265	36.093972
25921		8.479455	0.036095	4.292553	-0.573680	-0.475715	-0.337824	-0.118447	0.096336	-0.128676	-0.755859	-0.300049	-0.739014	0.084815	0.000332	0.042884	0.788683	0.179568	-0.526648	0.261489	1.176273	-67.612080	35.898425
25922		8.275939	0.275766	4.196401	-0.699477	-0.275209	-0.560013	-0.119105	0.090348	-0.119371	-0.758545	-0.302490	-0.734131	0.082780	0.002733	0.041925	0.789183	0.179299	-0.526350	0.260764	1.275080	-67.560351	35.716423
25923		8.220399	0.366192	4.099024	-0.689461	-0.160647	-0.646997	-0.093284	0.078049	-0.117192	-0.762207	-0.294189	-0.731445	0.082222	0.003633	0.040956	0.789623	0.179146	-0.526067	0.260109	1.385304	-67.515522	35.538827
25924		8.169927	0.373633	4.198064	-0.772889	-0.221908	-0.654934	-0.044064	0.078103	-0.106858	-0.759277	-0.300781	-0.735352	0.081718	0.003702	0.041948	0.790006	0.179156	-0.525730	0.259619	1.508992	-67.470707	35.376306
25925		8.103833	0.382036	4.327397	-0.884110	-0.303481	-0.665520	-0.001916	0.072053	-0.090422	-0.758057	-0.285645	-0.728271	0.081056	0.003784	0.043245	0.790312	0.179301	-0.525375	0.259305	1.633702	-67.429447	35.239596
25926		8.033219	0.344528	4.376259	-0.911486	-0.377771	-0.711620	0.008992	0.058801	-0.052759	-0.758545	-0.300537	-0.733643	0.080346	0.003422	0.043739	0.790527	0.179403	-0.525094	0.259150	1.713068	-67.396329	35.157817
25927		8.074173	0.319238	4.364012	-0.868586	-0.382512	-0.678245	0.027398	0.045197	-0.016449	-0.759033	-0.294434	-0.737061	0.080752	0.003180	0.043622	0.790640	0.179504	-0.524873	0.259181	1.753307	-67.371583	35.130743
25928		8.200989	0.351014	4.430267	-0.894846	-0.365600	-0.535173	0.030781	-0.005909	0.032098	-0.749268	-0.298828	-0.736328	0.082008	0.003516	0.044306	0.790555	0.179554	-0.524895	0.259361	1.731040	-67.376947	35.172614
25929		8.406335	0.337948	4.472356	-0.858854	-0.353934	-0.330085	0.016387	-0.076743	0.076015	-0.754150	-0.300049	-0.736328	0.084045	0.003408	0.044756	0.790238	0.179527	-0.525254	0.259619	1.642762	-67.423605	35.277916
25930		8.676764	0.359138	4.423214	-0.763375	-0.250851	-0.100101	0.009761	-0.142897	0.099220	-0.760742	-0.296631	-0.731689	0.086734	0.003632	0.044294	0.789725	0.179494	-0.525904	0.259885	1.520810	-67.508425	35.414607
25931		8.849829	0.346773	4.415237	-0.714517	-0.220984	0.055172	-0.007154	-0.186987	0.102850	-0.757813	-0.294189	-0.731689	0.088455	0.003515	0.044235	0.789104	0.179447	-0.526753	0.260088	1.384451	-67.618452	35.557210
25932		9.006945	0.188352	4.396518	-0.578802	-0.307359	0.190331	-0.021366	-0.215013	0.093911	-0.755615	-0.295898	-0.728271	0.090021	0.001930	0.044062	0.788434	0.179399	-0.527722	0.260186	1.252089	-67.744253	35.685693
25933		9.137712	0.048613	4.420974	-0.494557	-0.410405	0.318062	-0.013010	-0.201980	0.067173	-0.759033	-0.287598	-0.730225	0.091332	0.000520	0.044302	0.787823	0.179441	-0.528604	0.260219	1.160166	-67.862203	35.776435
25934		9.231593	-0.015096	4.371505	-0.408702	-0.419658	0.384833	-0.010811	-0.148188	0.042767	-0.766113	-0.288574	-0.727295	0.092284	-0.000129	0.043783	0.787386	0.179482	-0.529249	0.260203	1.101790	-67.948968	35.831283
25935		9.193878	0.061092	4.183813	-0.338690	-0.267350	0.279350	-0.011052	-0.091624	0.015993	-0.763672	-0.295166	-0.730957	0.091920	0.000621	0.041880	0.787130	0.179524	-0.529647	0.260138	1.079175	-68.003073	35.848361
25936		8.983724	0.048236	3.937990	-0.218331	-0.189532	-0.007903	-0.006644	-0.028141	0.001643	-0.768799	-0.290039	-0.721924	0.089832	0.000484	0.039393	0.787060	0.179534	-0.529777	0.260078	1.077847	-68.020596	35.844244
25937		8.819230	0.052477	3.930752	-0.267306	-0.220029	-0.163204	0.002941	-0.020828	-0.006356	-0.756104	-0.294922	-0.717285	0.088188	0.000521	0.039317	0.787008	0.179598	-0.529858	0.260026	1.093024	-68.033902	35.829210
25938		8.746375	0.082937	4.007575	-0.365903	-0.256511	-0.201916	0.004877	-0.021682	-0.003090	-0.760986	-0.292725	-0.723633	0.087459	0.000827	0.040085	0.786950	0.179658	-0.529944	0.259985	1.104884	-68.047672	35.818167
25939		8.727457	0.106971	4.091251	-0.449587	-0.290930	-0.188161	0.036799	-0.033666	-0.001915	-0.766357	-0.294922	-0.730957	0.087268	0.001061	0.040927	0.786828	0.179860	-0.530035	0.260029	1.133543	-68.068379	35.809515
25940		8.676836	0.065965	4.101872	-0.449176	-0.344910	-0.231640	0.064516	-0.029347	-0.008249	-0.767090	-0.299561	-0.728027	0.086762	0.000643	0.041032	0.786703	0.180178	-0.530068	0.260118	1.187176	-68.086462	35.790147
25941		8.486418	-0.025830	4.026439	-0.394545	-0.422571	-0.437298	0.097370	-0.004287	-0.019500	-0.766602	-0.291504	-0.725586	0.084863	-0.000286	0.040266	0.786627	0.180626	-0.529949	0.260279	1.274797	-68.090117	35.755350
25942		8.531127	-0.059075	4.068248	-0.387947	-0.468774	-0.380615	0.138060	0.000104	-0.031792	-0.763428	-0.295898	-0.718262	0.085311	-0.000632	0.040682	0.786544	0.181258	-0.529750	0.260497	1.403268	-68.090984	35.700772
25943		8.612309	-0.085213	4.090364	-0.357928	-0.491829	-0.297427	0.147810	0.010244	-0.050334	-0.760010	-0.291748	-0.723145	0.086125	-0.000904	0.040899	0.786501	0.181967	-0.529479	0.260684	1.563199	-68.085801	35.619185
25944		8.650398	-0.159718	4.054891	-0.267476	-0.530789	-0.276244	0.144110	0.024615	-0.058794	-0.767822	-0.290283	-0.715576	0.086508	-0.001652	0.040537	0.786512	0.182662	-0.529150	0.260834	1.732529	-68.072066	35.524271
25945		8.780594	-0.246668	4.065478	-0.174987	-0.585973	-0.152781	0.143378	0.010287	-0.065316	-0.760010	-0.291504	-0.721680	0.087807	-0.002524	0.040648	0.786491	0.183393	-0.528871	0.260949	1.911078	-68.066405	35.419864
25946		8.877077	-0.310775	4.020570	-0.065473	-0.598938	-0.081242	0.112174	0.024921	-0.073326	-0.771484	-0.291260	-0.717529	0.088775	-0.003163	0.040193	0.786550	0.183999	-0.528569	0.260957	2.082425	-68.051978	35.302952
25947		8.952168	-0.183900	3.980949	-0.081584	-0.467212	-0.025035	0.119666	0.018849	-0.075290	-0.758301	-0.304688	-0.728027	0.089525	-0.001897	0.039800	0.786585	0.184652	-0.528278	0.260978	2.260895	-68.040961	35.183967
25948		9.079726	-0.102254	4.083044	-0.159524	-0.440231	0.132355	0.086835	0.011489	-0.063640	-0.767822	-0.296875	-0.723145	0.090799	-0.001069	0.040825	0.786619	0.185151	-0.528069	0.260945	2.404405	-68.034190	35.081417
25949		9.092767	-0.004805	4.068412	-0.198838	-0.358482	0.140320	0.060418	-0.010144	-0.051750	-0.759766	-0.299316	-0.721436	0.090926	-0.000084	0.040689	0.786602	0.185546	-0.527991	0.260875	2.517092	-68.040124	34.996751
25950		9.215919	0.223501	4.102217	-0.322884	-0.176687	0.270755	0.045510	-0.045168	-0.036015	-0.766602	-0.303711	-0.723633	0.092150	0.002209	0.041043	0.786488	0.185883	-0.528085	0.260788	2.601267	-68.066330	34.932604
25951		9.173409	0.267369	4.054455	-0.329571	-0.131134	0.214062	0.010908	-0.071169	-0.032792	-0.764648	-0.297119	-0.718750	0.091720	0.002656	0.040577	0.786331	0.186113	-0.528328	0.260605	2.662844	-68.107596	34.872481
25952		9.309412	0.319205	4.092403	-0.351664	-0.090395	0.355053	-0.003730	-0.089228	-0.036887	-0.765625	-0.295654	-0.716553	0.093076	0.003176	0.040965	0.786147	0.186316	-0.528659	0.260344	2.723402	-68.158934	34.803461
25953		9.373640	0.359393	3.997804	-0.292178	0.000621	0.380024	-0.037178	-0.088955	-0.049288	-0.765869	-0.305908	-0.726318	0.093719	0.003578	0.040019	0.786009	0.186424	-0.529019	0.259953	2.782729	-68.209878	34.716126
25954		9.465820	0.331758	3.880191	-0.165833	0.056653	0.421421	-0.063571	-0.086492	-0.063730	-0.770996	-0.306152	-0.713379	0.094642	0.003300	0.038842	0.785923	0.186459	-0.529391	0.259430	2.847880	-68.258834	34.605248
25955		9.578520	0.389497	3.848046	-0.147250	0.135914	0.515287	-0.094540	-0.086830	-0.082665	-0.761719	-0.301025	-0.724365	0.095770	0.003874	0.038520	0.785886	0.186427	-0.529786	0.258758	2.922842	-68.307524	34.465766
25956		9.585828	0.370448	3.786002	-0.091439	0.149326	0.498882	-0.140878	-0.070088	-0.095124	-0.758301	-0.298096	-0.722900	0.095847	0.003686	0.037891	0.785955	0.186220	-0.530164	0.257923	2.988483	-68.346069	34.306864
25957		9.616764	0.266571	3.718919	0.027025	0.103759	0.500996	-0.169196	-0.066551	-0.100688	-0.764404	-0.308105	-0.722168	0.096157	0.002649	0.037219	0.786063	0.185916	-0.530558	0.257000	3.045945	-68.382493	34.140272
25958		9.665548	0.297656	3.717747	0.022415	0.133062	0.546601	-0.191120	-0.039051	-0.115866	-0.766846	-0.296387	-0.729980	0.096650	0.002956	0.037194	0.786286	0.185525	-0.530858	0.255977	3.111040	-68.402514	33.950938
25959		9.578375	0.252064	3.750113	-0.000644	0.055936	0.476580	-0.216245	-0.017617	-0.113488	-0.763672	-0.296143	-0.718018	0.095782	0.002507	0.037507	0.786583	0.185007	-0.531106	0.254924	3.156694	-68.410418	33.768101
25960		9.585248	0.220412	3.753141	0.018834	0.027935	0.483452	-0.236843	-0.005452	-0.106206	-0.764893	-0.305176	-0.732178	0.095853	0.002198	0.037531	0.786923	0.184367	-0.531340	0.253848	3.179162	-68.411412	33.596333
25961		9.594114	0.137554	3.778423	0.053640	-0.051692	0.499290	-0.240197	0.016825	-0.106880	-0.766357	-0.296875	-0.718750	0.095945	0.001370	0.037775	0.787322	0.183692	-0.531488	0.252788	3.198780	-68.399758	33.426737
25962		9.556288	0.093228	3.936683	-0.046657	-0.181959	0.521408	-0.241850	0.041062	-0.093023	-0.757813	-0.289307	-0.717285	0.095571	0.000935	0.039346	0.787771	0.182939	-0.531555	0.251793	3.195420	-68.374538	33.279795
25963		9.546283	0.019458	3.938320	-0.003341	-0.240465	0.511285	-0.250855	0.068486	-0.088281	-0.766113	-0.286865	-0.730225	0.095476	0.000202	0.039350	0.788290	0.182107	-0.531529	0.250825	3.177564	-68.333925	33.143887
25964		9.500268	0.006543	3.925203	0.005350	-0.246503	0.463574	-0.258841	0.095569	-0.075878	-0.766113	-0.293945	-0.724365	0.095021	0.000080	0.039207	0.788875	0.181171	-0.531416	0.249900	3.134934	-68.278092	33.028450
25965		9.444210	-0.002643	3.986886	-0.045972	-0.290271	0.434360	-0.269834	0.119851	-0.070165	-0.759033	-0.288330	-0.727051	0.094466	-0.000006	0.039812	0.789522	0.180151	-0.531225	0.248998	3.075675	-68.208726	32.925307
25966		9.339813	0.038746	3.950806	-0.067551	-0.246680	0.325214	-0.277467	0.142581	-0.061714	-0.769531	-0.292969	-0.731445	0.093426	0.000413	0.039441	0.790227	0.179045	-0.530960	0.248122	2.998143	-68.126516	32.836037
25967		9.247522	0.050748	3.961295	-0.101828	-0.248184	0.244107	-0.279036	0.163959	-0.058825	-0.762695	-0.284912	-0.726563	0.092508	0.000535	0.039536	0.790982	0.177903	-0.530614	0.247279	2.913906	-68.032346	32.754017
25968		9.127572	0.052104	3.920201	-0.099536	-0.235068	0.117976	-0.286400	0.161578	-0.056377	-0.753418	-0.288574	-0.737061	0.091308	0.000551	0.039127	0.791735	0.176723	-0.530287	0.246417	2.822205	-67.939513	32.674472
25969		9.045176	0.085156	3.955586	-0.161838	-0.230029	0.055949	-0.284813	0.158234	-0.055911	-0.759033	-0.280273	-0.741699	0.090483	0.000883	0.039483	0.792471	0.175557	-0.529970	0.245563	2.730965	-67.848797	32.596330
25970		8.975023	0.063540	3.937864	-0.148783	-0.238870	-0.015615	-0.279348	0.159425	-0.061863	-0.759766	-0.281494	-0.744873	0.089782	0.000663	0.039306	0.793215	0.174420	-0.529635	0.244693	2.651144	-67.757129	32.508001
25971		8.874984	0.003469	3.942905	-0.139697	-0.298493	-0.106853	-0.264506	0.167451	-0.074045	-0.752686	-0.280762	-0.738525	0.088783	0.000054	0.039355	0.793976	0.173370	-0.529238	0.243829	2.596192	-67.660740	32.403112
25972		8.844036	-0.035151	4.022372	-0.175887	-0.367022	-0.105369	-0.250406	0.176675	-0.083532	-0.757813	-0.277588	-0.749268	0.088476	-0.000338	0.040146	0.794762	0.172384	-0.528778	0.242963	2.561639	-67.558702	32.283692
25973		8.776936	-0.116660	4.083474	-0.183865	-0.468895	-0.144737	-0.234877	0.195599	-0.098435	-0.746338	-0.277588	-0.749023	0.087809	-0.001162	0.040750	0.795598	0.171481	-0.528209	0.242103	2.554907	-67.445623	32.144828
25974		8.709035	-0.196898	4.145603	-0.191838	-0.570745	-0.184110	-0.227077	0.214089	-0.110201	-0.758545	-0.276611	-0.741699	0.087134	-0.001970	0.041365	0.796491	0.170611	-0.527546	0.241224	2.566897	-67.321490	31.989170
25975		8.651835	-0.185750	4.198126	-0.239022	-0.590492	-0.215440	-0.208675	0.225367	-0.125303	-0.749512	-0.274902	-0.755371	0.086564	-0.001868	0.041886	0.797411	0.169847	-0.526802	0.240350	2.608345	-67.190651	31.814094
25976		8.647937	-0.179194	4.258888	-0.271277	-0.608238	-0.194295	-0.201980	0.222886	-0.133278	-0.746094	-0.281006	-0.755371	0.086526	-0.001807	0.042494	0.798329	0.169127	-0.526051	0.239452	2.663294	-67.060792	31.627272
25977		8.624309	-0.108398	4.273339	-0.310343	-0.553245	-0.208030	-0.185230	0.225461	-0.136494	-0.742920	-0.278564	-0.757324	0.086290	-0.001103	0.042637	0.799239	0.168484	-0.525265	0.238594	2.730626	-66.929469	31.438332
25978		8.644814	0.028922	4.333604	-0.405645	-0.458369	-0.161828	-0.173176	0.224602	-0.142613	-0.740234	-0.274658	-0.747559	0.086497	0.000265	0.043239	0.800144	0.167901	-0.524462	0.237734	2.811578	-66.798189	31.240833
25979		8.671391	0.147276	4.338341	-0.445114	-0.349775	-0.132016	-0.164102	0.222718	-0.150729	-0.739502	-0.265625	-0.760254	0.086763	0.001443	0.043286	0.801042	0.167383	-0.523648	0.236871	2.907088	-66.667820	31.034029
25980		8.707590	0.273982	4.426945	-0.548940	-0.276024	-0.059869	-0.158046	0.217441	-0.152099	-0.738525	-0.269775	-0.762695	0.087126	0.002709	0.044173	0.801923	0.166892	-0.522845	0.236006	3.006487	-66.540095	30.825394
25981		8.775747	0.325508	4.333595	-0.461587	-0.164785	-0.032121	-0.161280	0.216315	-0.153793	-0.732178	-0.272949	-0.765137	0.087807	0.003222	0.043238	0.802801	0.166400	-0.522048	0.235131	3.104744	-66.413016	30.616956
25982		8.820841	0.395371	4.327350	-0.457875	-0.087523	0.009337	-0.164234	0.220600	-0.150827	-0.735596	-0.277588	-0.760742	0.088259	0.003923	0.043173	0.803691	0.165876	-0.521239	0.234256	3.195407	-66.283233	30.413495
25983		8.838591	0.401425	4.244815	-0.370112	-0.029885	-0.006446	-0.163633	0.221724	-0.150047	-0.733154	-0.279053	-0.763916	0.088436	0.003983	0.042347	0.804577	0.165358	-0.520423	0.233394	3.283797	-66.152915	30.213954
25984		8.856734	0.407544	4.162438	-0.282318	0.027776	-0.022223	-0.167190	0.221497	-0.145283	-0.729492	-0.273682	-0.769287	0.088616	0.004046	0.041523	0.805460	0.164807	-0.519615	0.232534	3.362442	-66.022561	30.021701
25985		8.869707	0.326738	4.130072	-0.187573	-0.014155	-0.024912	-0.166479	0.209914	-0.143040	-0.724854	-0.269531	-0.765869	0.088743	0.003238	0.041205	0.806306	0.164272	-0.518854	0.231682	3.438096	-65.899010	29.833922
25986		8.880248	0.282769	4.136710	-0.144481	-0.045832	-0.013293	-0.165499	0.203734	-0.136148	-0.723145	-0.274902	-0.776855	0.088846	0.002801	0.041274	0.807128	0.163724	-0.518121	0.230847	3.504630	-65.778922	29.655424
25987		8.849622	0.227579	4.119474	-0.092682	-0.083189	-0.049383	-0.161976	0.201179	-0.127861	-0.724365	-0.273926	-0.772705	0.088539	0.002253	0.041104	0.807926	0.163177	-0.517399	0.230059	3.561750	-65.660726	29.490454
25988		8.851492	0.132461	4.215367	-0.094307	-0.204202	-0.010384	-0.153436	0.201208	-0.123078	-0.725342	-0.277588	-0.777588	0.088558	0.001302	0.042064	0.808713	0.162645	-0.516671	0.229305	3.616598	-65.542401	29.332069
25989		8.890898	0.059565	4.234869	-0.036141	-0.260755	0.031925	-0.144625	0.206716	-0.125448	-0.725342	-0.270020	-0.775391	0.088953	0.000570	0.042256	0.809505	0.162155	-0.515907	0.228576	3.678023	-65.420991	29.172983
25990		8.930119	-0.012823	4.255020	0.022047	-0.317291	0.074233	-0.140737	0.216714	-0.126658	-0.716797	-0.271484	-0.785645	0.089347	-0.000155	0.042454	0.810323	0.161667	-0.515096	0.227852	3.741201	-65.293532	29.013213
25991		8.900718	0.001960	4.204914	0.062700	-0.279051	0.027142	-0.139375	0.225411	-0.126110	-0.719238	-0.270264	-0.787598	0.089054	-0.000007	0.041949	0.811156	0.161177	-0.514248	0.227148	3.802669	-65.161266	28.857067
25992		8.936457	-0.018277	4.208521	0.105575	-0.283955	0.060531	-0.124709	0.223645	-0.125239	-0.717773	-0.272461	-0.791504	0.089411	-0.000213	0.041985	0.811974	0.160741	-0.513391	0.226475	3.870341	-65.029743	28.701918
25993		8.865225	-0.028936	4.192741	0.118595	-0.292760	-0.011038	-0.123443	0.229907	-0.116023	-0.712891	-0.268311	-0.786865	0.088700	-0.000315	0.041826	0.812791	0.160284	-0.512512	0.225855	3.925888	-64.895156	28.562047
25994		8.862739	-0.017907	4.297127	0.054129	-0.327936	0.031257	-0.115555	0.229482	-0.113341	-0.708496	-0.267578	-0.788818	0.088677	-0.000205	0.042870	0.813600	0.159847	-0.511628	0.225257	3.981567	-64.760637	28.425641
25995		8.836155	-0.015581	4.346739	0.026207	-0.348523	0.028544	-0.115872	0.215263	-0.108556	-0.714600	-0.266846	-0.790283	0.088408	-0.000179	0.043372	0.814362	0.159418	-0.510804	0.224675	4.031613	-64.634607	28.296348
25996		8.749584	-0.014859	4.301196	0.047794	-0.336148	-0.068950	-0.115116	0.212382	-0.104025	-0.705566	-0.270020	-0.787354	0.087541	-0.000169	0.042919	0.815113	0.158978	-0.509995	0.224102	4.075884	-64.510136	28.172561
25997		8.729251	0.020358	4.275966	0.060429	-0.291367	-0.096950	-0.098882	0.210054	-0.103738	-0.700684	-0.270020	-0.801514	0.087337	0.000179	0.042668	0.815841	0.158611	-0.509175	0.223577	4.128608	-64.387188	28.050823
25998		8.696719	0.071571	4.264186	0.049436	-0.242845	-0.129719	-0.093251	0.197378	-0.105148	-0.706055	-0.271973	-0.796143	0.087010	0.000690	0.042556	0.816535	0.158279	-0.508400	0.223043	4.186360	-64.271147	27.925746
25999		8.665174	0.068215	4.226109	0.085919	-0.228558	-0.174729	-0.084765	0.176240	-0.093691	-0.704590	-0.269287	-0.796875	0.086689	0.000659	0.042184	0.817151	0.157982	-0.507709	0.222568	4.236627	-64.167844	27.815485
26000		8.684326	0.112156	4.180108	0.122048	-0.160678	-0.176160	-0.066465	0.170769	-0.093463	-0.703125	-0.271973	-0.798096	0.086879	0.001095	0.041727	0.817741	0.157759	-0.507021	0.222128	4.296796	-64.067406	27.704646
26001		8.730387	0.167453	4.229670	0.089377	-0.124869	-0.111440	-0.060946	0.150318	-0.091123	-0.697266	-0.272217	-0.801514	0.087336	0.001648	0.042231	0.818269	0.157581	-0.506411	0.221703	4.358706	-63.978926	27.596429
26002		8.771582	0.163042	4.169049	0.168636	-0.088390	-0.101254	-0.051638	0.141531	-0.085286	-0.693848	-0.269043	-0.805176	0.087746	0.001604	0.041628	0.818763	0.157430	-0.505830	0.221311	4.419209	-63.895448	27.494512
26003		8.808746	0.140402	4.123291	0.243688	-0.075905	-0.089001	-0.043320	0.130807	-0.078349	-0.692383	-0.269287	-0.808838	0.088115	0.001378	0.041175	0.819212	0.157314	-0.505290	0.220968	4.477027	-63.818581	27.401950
26004		8.836334	0.135730	4.133213	0.262907	-0.077112	-0.060375	-0.033967	0.129111	-0.074750	-0.698242	-0.281982	-0.805664	0.088390	0.001331	0.041275	0.819648	0.157221	-0.504749	0.220652	4.535564	-63.742578	27.313155
26005		8.869568	0.094880	4.102204	0.333774	-0.088600	-0.046058	-0.026121	0.120964	-0.068383	-0.691650	-0.271973	-0.809326	0.088721	0.000924	0.040968	0.820046	0.157161	-0.504237	0.220384	4.591764	-63.671706	27.233271
26006		8.882920	0.048715	4.058342	0.409036	-0.102887	-0.055595	-0.017007	0.120275	-0.070147	-0.696533	-0.278320	-0.811523	0.088854	0.000459	0.040530	0.820440	0.157137	-0.503717	0.220125	4.654753	-63.600897	27.150502
26007		8.860366	0.051443	4.098745	0.381107	-0.123462	-0.058307	-0.000544	0.123408	-0.065152	-0.684082	-0.272705	-0.808838	0.088629	0.000486	0.040933	0.820821	0.157170	-0.503169	0.219937	4.720911	-63.528703	27.075765
26008		8.867265	0.096434	4.120548	0.357203	-0.093272	-0.041286	0.007570	0.120780	-0.065798	-0.683594	-0.270508	-0.809082	0.088698	0.000934	0.041152	0.821191	0.157235	-0.502622	0.219757	4.792141	-63.457731	26.999322
26009		8.847715	0.061063	4.078265	0.413158	-0.106675	-0.079449	0.019758	0.124208	-0.063899	-0.691162	-0.274658	-0.809082	0.088503	0.000578	0.040728	0.821555	0.157347	-0.502049	0.219625	4.867648	-63.385059	26.927043
26010		8.816562	0.098112	4.117344	0.365785	-0.099536	-0.088995	0.028922	0.128871	-0.060861	-0.691650	-0.275146	-0.810059	0.088192	0.000948	0.041117	0.821923	0.157478	-0.501450	0.219524	4.943889	-63.309629	26.858528
26011		8.786389	0.081021	4.131523	0.365876	-0.126640	-0.110793	0.039980	0.127321	-0.059417	-0.684326	-0.279297	-0.806152	0.087890	0.000776	0.041259	0.822274	0.157659	-0.500845	0.219464	5.024787	-63.235317	26.793092
26012		8.768103	0.103222	4.156456	0.342154	-0.123221	-0.115567	0.046395	0.124583	-0.057863	-0.685059	-0.272461	-0.815186	0.087707	0.000997	0.041510	0.822612	0.157860	-0.500245	0.219417	5.107287	-63.162411	26.728854
26013		8.802982	0.121540	4.192786	0.333320	-0.117928	-0.067859	0.056050	0.126693	-0.054259	-0.687012	-0.287842	-0.812500	0.088057	0.001180	0.041872	0.822942	0.158094	-0.499629	0.219418	5.190855	-63.088638	26.670662
26014		8.804465	0.149871	4.230663	0.305226	-0.111696	-0.048779	0.058370	0.132032	-0.059612	-0.691650	-0.284668	-0.813965	0.088073	0.001460	0.042249	0.823291	0.158340	-0.498983	0.219399	5.280612	-63.011308	26.605853
26015		8.792442	0.193922	4.282929	0.253461	-0.101758	-0.034471	0.075873	0.140187	-0.054019	-0.685791	-0.282227	-0.815918	0.087955	0.001899	0.042768	0.823637	0.158640	-0.498289	0.219460	5.373068	-62.929768	26.550354
26016		8.788244	0.205352	4.337632	0.221173	-0.119487	-0.013338	0.087827	0.149370	-0.062736	-0.676514	-0.280273	-0.812500	0.087915	0.002007	0.043312	0.824008	0.158996	-0.497537	0.219516	5.480443	-62.842296	26.484708
26017		8.816716	0.207944	4.391999	0.208145	-0.138161	0.036421	0.089636	0.155539	-0.061631	-0.677246	-0.280273	-0.810303	0.088202	0.002033	0.043852	0.824389	0.159355	-0.496758	0.219592	5.586639	-62.751490	26.422540
26018		8.743334	0.236766	4.407471	0.169513	-0.136614	-0.020838	0.096260	0.158284	-0.066978	-0.681396	-0.288818	-0.816895	0.087469	0.002317	0.044007	0.824779	0.159745	-0.495955	0.219658	5.701442	-62.658581	26.353736
26019		8.759029	0.268112	4.376092	0.201462	-0.092744	-0.020168	0.100888	0.157141	-0.070124	-0.682617	-0.284424	-0.816650	0.087626	0.002628	0.043693	0.825162	0.160170	-0.495149	0.219728	5.822117	-62.566261	26.282418
26020		8.758629	0.299699	4.416066	0.173367	-0.086504	-0.001088	0.098470	0.156512	-0.069973	-0.680664	-0.291016	-0.821777	0.087622	0.002945	0.044094	0.825548	0.160579	-0.494348	0.219785	5.940467	-62.474066	26.211038
26021		8.838842	0.367056	4.407789	0.196400	-0.010256	0.069102	0.095698	0.160864	-0.078924	-0.676025	-0.292480	-0.814697	0.088425	0.003615	0.044009	0.825952	0.160999	-0.493525	0.219808	6.066098	-62.378959	26.130654
26022		8.804650	0.408638	4.449110	0.149031	-0.003089	0.059555	0.094239	0.167531	-0.075091	-0.676025	-0.288086	-0.822510	0.088085	0.004032	0.044419	0.826372	0.161391	-0.492678	0.219842	6.185058	-62.280037	26.055793
26023		8.788226	0.453010	4.461594	0.129491	0.024284	0.052735	0.092668	0.172844	-0.079782	-0.672852	-0.300781	-0.818604	0.087923	0.004474	0.044542	0.826808	0.161788	-0.491806	0.219864	6.307104	-62.177897	25.977354
26024		8.753192	0.494473	4.503687	0.082124	0.031459	0.043189	0.091785	0.180000	-0.073818	-0.673096	-0.290039	-0.822510	0.087574	0.004892	0.044960	0.827257	0.162152	-0.490910	0.219907	6.420442	-62.071813	25.907102
26025		8.723405	0.495725	4.463893	0.118631	0.045757	-0.001791	0.086924	0.181081	-0.070455	-0.669434	-0.296387	-0.821289	0.087276	0.004907	0.044562	0.827706	0.162493	-0.490018	0.219959	6.526822	-61.965442	25.842523
26026		8.669250	0.472203	4.426513	0.155330	0.033318	-0.068581	0.085040	0.176216	-0.062822	-0.671143	-0.299561	-0.824463	0.086733	0.004676	0.044191	0.828137	0.162806	-0.489153	0.220027	6.623716	-61.862121	25.786281
26027		8.660012	0.477802	4.398866	0.187467	0.050421	-0.089704	0.076376	0.167226	-0.058346	-0.667969	-0.298340	-0.834961	0.086638	0.004736	0.043918	0.828546	0.163088	-0.488338	0.220092	6.711750	-61.764338	25.735535
26028		8.703194	0.409646	4.416685	0.245572	-0.006216	-0.047436	0.068403	0.151696	-0.049599	-0.661133	-0.295898	-0.826660	0.087066	0.004060	0.044102	0.828915	0.163327	-0.487603	0.220153	6.787246	-61.675764	25.692678
26029		8.743340	0.391831	4.415595	0.288410	-0.011219	-0.014030	0.061495	0.141157	-0.040378	-0.662354	-0.294678	-0.822021	0.087465	0.003887	0.044095	0.829251	0.163531	-0.486926	0.220234	6.850295	-61.593971	25.660551
26030		8.754356	0.330675	4.432218	0.327228	-0.066924	-0.000395	0.049511	0.135009	-0.030127	-0.654541	-0.300049	-0.828857	0.087574	0.003283	0.044264	0.829573	0.163662	-0.486297	0.220316	6.895979	-61.516203	25.639140
26031		8.770907	0.285992	4.432257	0.370232	-0.098696	0.011196	0.041585	0.117834	-0.014518	-0.657715	-0.305420	-0.826172	0.087735	0.002844	0.044271	0.829839	0.163747	-0.485759	0.220437	6.923091	-61.449434	25.634883
26032		8.806709	0.242484	4.402284	0.441106	-0.110231	0.025519	0.031676	0.108536	-0.004300	-0.658203	-0.305420	-0.832764	0.088091	0.002416	0.043975	0.830081	0.163771	-0.485280	0.220562	6.934783	-61.388483	25.640671
26033		8.840412	0.252454	4.395569	0.464497	-0.087542	0.052109	0.031321	0.098394	0.008041	-0.659180	-0.298096	-0.820557	0.088426	0.002521	0.043913	0.830283	0.163780	-0.484853	0.220735	6.934909	-61.334331	25.660457
26034		8.836290	0.252556	4.403844	0.464419	-0.087850	0.052110	0.032534	0.090689	0.021430	-0.657959	-0.301025	-0.833496	0.088383	0.002528	0.043999	0.830453	0.163765	-0.484467	0.220954	6.922585	-61.285352	25.694202
26035		8.840984	0.218308	4.414242	0.483770	-0.115887	0.058925	0.031551	0.090132	0.031052	-0.654297	-0.302002	-0.829346	0.088429	0.002190	0.044103	0.830609	0.163728	-0.484093	0.221217	6.900125	-61.237482	25.739916
26036		8.813940	0.261745	4.390689	0.472835	-0.067319	0.026219	0.029042	0.090190	0.041202	-0.658447	-0.307373	-0.829346	0.088159	0.002629	0.043868	0.830758	0.163650	-0.483729	0.221508	6.865559	-61.190115	25.796677
26037		8.824630	0.247056	4.427473	0.464164	-0.088813	0.052114	0.029566	0.089022	0.050301	-0.656738	-0.304443	-0.829346	0.088265	0.002486	0.044236	0.830891	0.163559	-0.483377	0.221845	6.822466	-61.144165	25.864688
26038		8.812272	0.276725	4.432693	0.444646	-0.061412	0.045304	0.024741	0.088480	0.060452	-0.650879	-0.300781	-0.825928	0.088141	0.002788	0.044288	0.831017	0.163420	-0.483041	0.222206	6.766165	-61.099068	25.943751
26039		8.812950	0.286795	4.382415	0.481000	-0.020360	0.022155	0.018916	0.084616	0.063149	-0.651611	-0.299805	-0.843750	0.088147	0.002892	0.043787	0.831134	0.163259	-0.482729	0.222567	6.704652	-61.056426	26.025892
26040		8.836061	0.374588	4.353230	0.469750	0.081731	0.033101	0.005405	0.079126	0.073818	-0.652100	-0.301025	-0.827637	0.088376	0.003777	0.043497	0.831239	0.163016	-0.482464	0.222927	6.624989	-61.017414	26.118715
26041		8.854222	0.443557	4.339744	0.454280	0.159833	0.046088	-0.002393	0.083131	0.071136	-0.651123	-0.296387	-0.837891	0.088559	0.004468	0.043361	0.831360	0.162749	-0.482188	0.223268	6.543686	-60.976037	26.209589
26042		8.854204	0.512727	4.397564	0.378731	0.200335	0.077450	-0.015791	0.085395	0.078036	-0.648193	-0.307617	-0.831055	0.088559	0.005165	0.043937	0.831491	0.162400	-0.481925	0.223600	6.447306	-60.933635	26.307776
26043		8.852304	0.570710	4.328992	0.399877	0.293062	0.045475	-0.029640	0.081795	0.078018	-0.656006	-0.293701	-0.832275	0.088538	0.005748	0.043253	0.831623	0.162004	-0.481690	0.223902	6.344017	-60.893314	26.406017
26044		8.872688	0.579503	4.249985	0.464117	0.354340	0.025088	-0.044136	0.084733	0.073701	-0.650879	-0.298828	-0.838867	0.088743	0.005837	0.042461	0.831780	0.161550	-0.481457	0.224148	6.236523	-60.850870	26.498594
26045		8.840953	0.595502	4.199732	0.481218	0.396354	-0.026670	-0.046204	0.086504	0.065185	-0.649170	-0.301025	-0.833740	0.088426	0.005994	0.041958	0.831950	0.161111	-0.481210	0.224362	6.136879	-60.806899	26.581873
26046		8.804726	0.597790	4.206814	0.461882	0.397012	-0.055286	-0.037959	0.075497	0.058354	-0.649414	-0.297607	-0.839355	0.088061	0.006012	0.042034	0.832097	0.160730	-0.480996	0.224551	6.050113	-60.768615	26.654772
26047		8.774220	0.619354	4.197216	0.446750	0.421616	-0.085930	-0.030413	0.064942	0.044028	-0.649414	-0.293457	-0.829834	0.087754	0.006219	0.041943	0.832226	0.160431	-0.480804	0.224696	5.983819	-60.735540	26.710260
26048		8.747882	0.594054	4.246401	0.414599	0.377147	-0.086633	-0.027506	0.041467	0.037153	-0.648438	-0.298340	-0.833008	0.087487	0.005963	0.042445	0.832306	0.160182	-0.480703	0.224794	5.928499	-60.715332	26.753970
26049		8.787631	0.543302	4.210347	0.485457	0.365549	-0.072289	-0.027742	0.027634	0.037712	-0.650391	-0.297363	-0.840820	0.087881	0.005455	0.042091	0.832350	0.159952	-0.480658	0.224890	5.874274	-60.703094	26.797397
26050		8.800727	0.523459	4.199009	0.509032	0.361480	-0.067498	-0.025181	0.008806	0.037220	-0.649170	-0.301514	-0.835205	0.088008	0.005256	0.041986	0.832350	0.159750	-0.480690	0.224969	5.823773	-60.701468	26.837210
26051		8.799436	0.456181	4.317201	0.455457	0.250685	-0.014416	-0.027409	-0.008888	0.039897	-0.652344	-0.295654	-0.834961	0.087992	0.004585	0.043175	0.832303	0.159557	-0.480799	0.225045	5.771331	-60.710135	26.878813
26052		8.782006	0.451706	4.386366	0.395269	0.212759	0.003950	-0.038766	-0.032946	0.046261	-0.641846	-0.294678	-0.841309	0.087812	0.004546	0.043877	0.832203	0.159324	-0.481027	0.225096	5.708124	-60.732821	26.924374
26053		8.797636	0.430109	4.369891	0.418831	0.208672	0.008737	-0.047108	-0.048170	0.051045	-0.650635	-0.292969	-0.837646	0.087965	0.004334	0.043719	0.832065	0.159066	-0.481330	0.225140	5.636921	-60.764473	26.974526
26054		8.809872	0.399495	4.494696	0.341448	0.128407	0.078857	-0.053911	-0.050904	0.056374	-0.648438	-0.287109	-0.842041	0.088086	0.004032	0.044968	0.831922	0.158764	-0.481658	0.225180	5.556259	-60.797856	27.029817
26055		8.807175	0.373739	4.505697	0.337139	0.104120	0.080887	-0.063851	-0.058480	0.059559	-0.656982	-0.293213	-0.834473	0.088057	0.003778	0.045082	0.831762	0.158428	-0.482029	0.225211	5.467504	-60.835787	27.089052
26056		8.776908	0.374992	4.500493	0.317779	0.104794	0.052260	-0.078249	-0.059484	0.058988	-0.651123	-0.294189	-0.832031	0.087755	0.003793	0.045030	0.831615	0.158028	-0.482422	0.225197	5.370675	-60.874175	27.146840
26057		8.729973	0.318454	4.499721	0.317995	0.050979	0.008595	-0.092133	-0.063038	0.058969	-0.651123	-0.284668	-0.837891	0.087285	0.003231	0.045023	0.831467	0.157581	-0.482844	0.225153	5.266360	-60.914577	27.205292
26058		8.688556	0.279144	4.483050	0.322430	0.021145	-0.037093	-0.112390	-0.067875	0.061082	-0.648438	-0.288818	-0.845459	0.086869	0.002843	0.044858	0.831322	0.157044	-0.483311	0.225059	5.148224	-60.957758	27.265130
26059		8.655586	0.205352	4.468025	0.346286	-0.036432	-0.075987	-0.141006	-0.079213	0.058918	-0.648193	-0.292236	-0.832764	0.086538	0.002111	0.044713	0.831173	0.156411	-0.483854	0.224884	5.016954	-61.007271	27.322334
26060		8.572765	0.204248	4.405464	0.344289	-0.020138	-0.178209	-0.167034	-0.083163	0.058417	-0.660156	-0.283936	-0.836914	0.085709	0.002104	0.044089	0.831036	0.155671	-0.484443	0.224634	4.871105	-61.058865	27.378009
26061		8.492815	0.150821	4.360309	0.357479	-0.055543	-0.271616	-0.186648	-0.089836	0.059572	-0.660156	-0.279785	-0.837891	0.084908	0.001574	0.043640	0.830894	0.154858	-0.485081	0.224343	4.713261	-61.114334	27.435640
26062		8.442412	0.195541	4.363662	0.295050	-0.023352	-0.311820	-0.208745	-0.101842	0.066111	-0.659424	-0.285400	-0.835693	0.084401	0.002029	0.043678	0.830734	0.153946	-0.485801	0.224008	4.536224	-61.176887	27.499496
26063		8.444674	0.232120	4.337267	0.279776	0.028026	-0.320628	-0.231943	-0.120146	0.063587	-0.659180	-0.280518	-0.834961	0.084420	0.002398	0.043421	0.830546	0.152969	-0.486617	0.223600	4.349823	-61.249677	27.560029
26064		8.557907	0.274944	4.278222	0.330755	0.124361	-0.247561	-0.249818	-0.146154	0.062152	-0.660156	-0.275146	-0.833740	0.085547	0.002830	0.042841	0.830311	0.151946	-0.487561	0.223116	4.155843	-61.337164	27.616512
26065		8.621173	0.326591	4.288412	0.302353	0.184075	-0.184790	-0.267640	-0.166115	0.064009	-0.663818	-0.278320	-0.825195	0.086175	0.003351	0.042951	0.830034	0.150871	-0.488606	0.222586	3.950670	-61.436044	27.675030
26066		8.684202	0.375051	4.255204	0.306194	0.261204	-0.143108	-0.279157	-0.177738	0.061647	-0.662354	-0.278076	-0.837158	0.086803	0.003837	0.042624	0.829740	0.149762	-0.489711	0.222003	3.741078	-61.541406	27.730101
26067		8.748696	0.303493	4.312680	0.303919	0.193562	-0.060708	-0.300543	-0.182094	0.056764	-0.665771	-0.265869	-0.832031	0.087447	0.003125	0.043202	0.829453	0.148585	-0.490851	0.221350	3.523998	-61.648951	27.780608
26068		8.755887	0.160944	4.303402	0.362196	0.083309	-0.062172	-0.324391	-0.197128	0.052443	-0.669922	-0.266113	-0.825928	0.087516	0.001702	0.043118	0.829150	0.147331	-0.492077	0.220602	3.297566	-61.764838	27.825129
26069		8.722523	0.061188	4.291165	0.381798	0.001774	-0.099067	-0.349862	-0.211558	0.048774	-0.667480	-0.258545	-0.837402	0.087180	0.000708	0.043003	0.828829	0.146000	-0.493384	0.219770	3.060490	-61.888791	27.866154
26070		8.739828	-0.047546	4.205335	0.480776	-0.043157	-0.125654	-0.355378	-0.226718	0.049757	-0.664795	-0.258057	-0.823242	0.087351	-0.000379	0.042153	0.828472	0.144655	-0.494760	0.218910	2.818534	-62.021383	27.907944
26071		8.703374	-0.041991	4.199426	0.437772	-0.038702	-0.159064	-0.368245	-0.240341	0.048756	-0.671387	-0.253662	-0.828125	0.086983	-0.000321	0.042099	0.828086	0.143279	-0.496202	0.218011	2.570024	-62.161640	27.949888
26072		8.594235	-0.105885	4.239365	0.362923	-0.131839	-0.236931	-0.358231	-0.276132	0.051984	-0.679443	-0.249756	-0.822510	0.085884	-0.000960	0.042514	0.827598	0.141969	-0.497783	0.217116	2.323710	-62.322399	27.994713
26073		8.588889	-0.073808	4.311772	0.255261	-0.135451	-0.206323	-0.344389	-0.304878	0.052515	-0.676758	-0.248291	-0.820313	0.085823	-0.000641	0.043250	0.827021	0.140751	-0.499464	0.216243	2.084673	-62.499516	28.041268
26074		8.654828	-0.059369	4.464757	0.121578	-0.175871	-0.076271	-0.326298	-0.321628	0.058966	-0.671387	-0.242432	-0.827637	0.086476	-0.000495	0.044788	0.826380	0.139604	-0.501198	0.215423	1.847425	-62.686349	28.096434
26075		8.692047	-0.125967	4.464897	0.132258	-0.225120	-0.043626	-0.305905	-0.326607	0.059553	-0.687012	-0.243164	-0.822510	0.086848	-0.001165	0.044793	0.825706	0.138549	-0.502927	0.214657	1.619849	-62.875849	28.154741
26076		8.742160	-0.206254	4.450218	0.166559	-0.278132	-0.006203	-0.274801	-0.319392	0.055095	-0.677490	-0.237061	-0.822998	0.087351	-0.001977	0.044644	0.825032	0.137620	-0.504588	0.213949	1.412702	-63.061030	28.208851
26077		8.771418	-0.289292	4.423299	0.205250	-0.333943	0.007358	-0.226367	-0.297485	0.051792	-0.684570	-0.247559	-0.821533	0.087649	-0.002820	0.044367	0.824378	0.136880	-0.506102	0.213370	1.235216	-63.233551	28.261902
26078		8.773835	-0.339948	4.427296	0.196649	-0.382173	0.011359	-0.177663	-0.270660	0.042976	-0.685791	-0.234131	-0.810059	0.087679	-0.003341	0.044395	0.823766	0.136330	-0.507446	0.212890	1.093530	-63.390491	28.305054
26079		8.835775	-0.321009	4.498749	0.127493	-0.387808	0.099224	-0.144161	-0.261308	0.042825	-0.696533	-0.234375	-0.811523	0.088300	-0.003159	0.045105	0.823152	0.135913	-0.508714	0.212506	0.970263	-63.542070	28.350001
26080		8.930712	-0.310934	4.569072	0.077563	-0.394443	0.215725	-0.125242	-0.251007	0.035587	-0.701660	-0.234619	-0.808350	0.089250	-0.003065	0.045805	0.822559	0.135575	-0.509915	0.212141	0.864737	-63.687718	28.386225
26081		8.942291	-0.283407	4.672985	-0.038741	-0.419240	0.272171	-0.092116	-0.248410	0.033551	-0.697021	-0.225586	-0.810303	0.089365	-0.002798	0.046842	0.821949	0.135381	-0.511066	0.211859	0.780209	-63.831757	28.421114
26082		8.960997	-0.217574	4.706125	-0.114331	-0.378687	0.303531	-0.073877	-0.234056	0.030576	-0.692871	-0.229980	-0.810791	0.089555	-0.002145	0.047167	0.821366	0.135249	-0.512137	0.211615	0.708341	-63.967598	28.452467
26083		8.999419	-0.146401	4.753676	-0.194266	-0.335392	0.358750	-0.072383	-0.211102	0.027262	-0.712402	-0.224365	-0.812500	0.089944	-0.001435	0.047632	0.820842	0.135113	-0.513108	0.211383	0.640863	-64.090180	28.480887
26084		8.892160	-0.178496	4.745022	-0.232655	-0.387098	0.257745	-0.063921	-0.168749	0.017440	-0.694580	-0.227295	-0.806641	0.088882	-0.001762	0.047526	0.820432	0.134985	-0.513891	0.211153	0.588436	-64.188430	28.496751
26085		8.789942	-0.154621	4.850848	-0.382965	-0.439330	0.211185	-0.027689	-0.163198	0.010164	-0.703125	-0.226074	-0.806152	0.087860	-0.001535	0.048580	0.820018	0.135024	-0.514606	0.210998	0.565620	-64.283447	28.503964
26086		8.689468	-0.110316	4.900733	-0.496784	-0.450152	0.141545	-0.018230	-0.156265	-0.005659	-0.706299	-0.236084	-0.804688	0.086856	-0.001101	0.049075	0.819633	0.135130	-0.515273	0.210799	0.566505	-64.374378	28.489750
26087		8.626007	-0.214547	4.851701	-0.444838	-0.540994	0.061646	0.003085	-0.148298	-0.015021	-0.708740	-0.231934	-0.801270	0.086224	-0.002153	0.048581	0.819261	0.135345	-0.515876	0.210629	0.591233	-64.460712	28.463788
26088		8.493580	-0.190657	4.821125	-0.493985	-0.543731	-0.072009	0.031861	-0.148587	-0.032371	-0.708496	-0.239990	-0.802246	0.084900	-0.001928	0.048274	0.818888	0.135718	-0.516440	0.210458	0.653182	-64.547097	28.414111
26089		8.484962	-0.171252	4.781478	-0.485471	-0.522851	-0.097886	0.051959	-0.145590	-0.042310	-0.708740	-0.223145	-0.796143	0.084814	-0.001743	0.047876	0.818518	0.136201	-0.516962	0.210303	0.739338	-64.631667	28.351181
26090		8.387032	-0.028899	4.747317	-0.573658	-0.416615	-0.201367	0.070861	-0.149797	-0.056045	-0.707764	-0.231934	-0.798828	0.083835	-0.000329	0.047536	0.818140	0.136796	-0.517472	0.210134	0.853135	-64.718476	28.268809
26091		8.340915	-0.015066	4.724554	-0.588644	-0.418654	-0.253885	0.081027	-0.157858	-0.060270	-0.703613	-0.231201	-0.799561	0.083372	-0.000195	0.047311	0.817736	0.137456	-0.518001	0.209973	0.979152	-64.809805	28.180315
26092		8.285346	0.156774	4.657288	-0.649053	-0.265508	-0.332705	0.099831	-0.164435	-0.055198	-0.705811	-0.231934	-0.795410	0.082816	0.001522	0.046642	0.817298	0.138181	-0.518540	0.209871	1.110228	-64.904806	28.097151
26093		8.248742	0.208689	4.603774	-0.655531	-0.219621	-0.389203	0.104458	-0.172329	-0.046233	-0.717529	-0.232422	-0.793213	0.082448	0.002044	0.046110	0.816824	0.138916	-0.519112	0.209817	1.234392	-65.004419	28.025658
26094		8.199328	0.221154	4.537830	-0.638247	-0.204204	-0.462783	0.111951	-0.166143	-0.026005	-0.711182	-0.239990	-0.788086	0.081956	0.002175	0.045448	0.816341	0.139616	-0.519665	0.209864	1.338014	-65.100639	27.980577
26095		8.148178	0.249906	4.613910	-0.741407	-0.237227	-0.477944	0.124268	-0.158326	-0.017833	-0.722656	-0.242920	-0.788818	0.081445	0.002463	0.046205	0.815858	0.140343	-0.520177	0.209987	1.439370	-65.192511	27.946840
26096		8.124945	0.196057	4.675863	-0.782168	-0.329524	-0.474782	0.127157	-0.146158	0.000478	-0.720947	-0.232422	-0.794189	0.081215	0.001931	0.046819	0.815386	0.141017	-0.520650	0.210197	1.519324	-65.277616	27.937833
26097		8.106672	0.177489	4.666629	-0.782143	-0.356539	-0.496671	0.122272	-0.143314	0.019108	-0.716309	-0.241455	-0.786133	0.081033	0.001754	0.046725	0.814903	0.141624	-0.521128	0.210476	1.573785	-65.361422	27.954495
26098		8.154360	0.190776	4.679560	-0.791022	-0.351271	-0.448973	0.137939	-0.131087	0.041048	-0.717529	-0.239258	-0.784180	0.081513	0.001892	0.046850	0.814420	0.142219	-0.521556	0.210888	1.608970	-65.438490	28.001185
26099		8.234254	0.228383	4.775060	-0.864574	-0.354136	-0.337278	0.147001	-0.107458	0.064413	-0.723633	-0.236084	-0.784424	0.082316	0.002275	0.047797	0.813964	0.142770	-0.521894	0.211441	1.619583	-65.502500	28.081598
26100		8.239709	0.282436	4.793554	-0.912088	-0.320068	-0.324991	0.142620	-0.089162	0.087345	-0.719482	-0.237305	-0.780029	0.082374	0.002826	0.047974	0.813535	0.143218	-0.522178	0.212083	1.597502	-65.556300	28.194149
26101		8.384417	0.277966	4.744574	-0.826666	-0.276640	-0.214418	0.145708	-0.078802	0.112578	-0.721436	-0.238525	-0.771973	0.083824	0.002792	0.047481	0.813103	0.143608	-0.522433	0.212849	1.545145	-65.604629	28.342835
26102		8.490736	0.226248	4.630687	-0.680822	-0.249052	-0.165849	0.127801	-0.059437	0.134562	-0.730225	-0.239746	-0.784424	0.084892	0.002290	0.046334	0.812711	0.143841	-0.522645	0.213666	1.453248	-65.642017	28.522723
26103		8.521572	0.172170	4.497548	-0.545456	-0.225981	-0.193635	0.121206	-0.034542	0.155428	-0.728516	-0.242432	-0.781738	0.085207	0.001761	0.044991	0.812364	0.143972	-0.522777	0.214573	1.330454	-65.665398	28.733226
26104		8.560681	0.171920	4.476447	-0.522044	-0.203344	-0.166988	0.108347	-0.032692	0.166955	-0.734619	-0.234375	-0.776611	0.085598	0.001766	0.044779	0.812020	0.144013	-0.522922	0.215490	1.184891	-65.687527	28.959697
26105		8.653391	0.164171	4.464373	-0.483767	-0.179053	-0.087840	0.090211	-0.036533	0.180378	-0.720947	-0.244141	-0.778320	0.086524	0.001700	0.044660	0.811662	0.143954	-0.523112	0.216415	1.012059	-65.711878	29.205540
26106		8.952751	0.148870	4.544658	-0.441936	-0.161518	0.217588	0.080152	-0.054306	0.176743	-0.727295	-0.237549	-0.777100	0.089514	0.001550	0.045471	0.811270	0.143878	-0.523382	0.217282	0.837566	-65.745930	29.445964
26107		9.211781	0.176713	4.627503	-0.438742	-0.115229	0.487610	0.065385	-0.031234	0.169966	-0.729736	-0.243652	-0.776367	0.092109	0.001830	0.046290	0.810953	0.143740	-0.523569	0.218104	0.662751	-65.766551	29.678272
26108		9.497305	0.138607	4.640555	-0.336611	-0.086901	0.752912	0.053430	-0.014670	0.157108	-0.727539	-0.247070	-0.777344	0.094969	0.001448	0.046413	0.810704	0.143564	-0.523692	0.218850	0.496581	-65.777166	29.892777
26109		9.605383	0.149080	4.544195	-0.233898	-0.001157	0.811841	0.052140	0.017796	0.146868	-0.729248	-0.233643	-0.778564	0.096057	0.001549	0.045434	0.810549	0.143379	-0.523678	0.219578	0.342704	-65.769048	30.093773
26110		9.543039	0.317365	4.434202	-0.257638	0.193368	0.710082	0.049405	0.053148	0.140452	-0.723389	-0.236816	-0.771973	0.095440	0.003230	0.044317	0.810497	0.143156	-0.523518	0.220295	0.195060	-65.740268	30.285454
26111		9.554019	0.325930	4.310004	-0.161008	0.271914	0.668809	0.057276	0.060483	0.124983	-0.720459	-0.231201	-0.773193	0.095551	0.003307	0.043072	0.810474	0.143002	-0.523308	0.220978	0.072313	-65.707251	30.455607
26112		9.367757	0.363380	4.119417	-0.095913	0.363897	0.420341	0.075160	0.061534	0.120398	-0.723145	-0.247559	-0.776123	0.093688	0.003675	0.041167	0.810447	0.142926	-0.523071	0.221685	-0.034365	-65.673322	30.618508
26113		9.301135	0.394883	4.072602	-0.097955	0.407032	0.340039	0.094918	0.050316	0.102812	-0.726807	-0.237061	-0.781738	0.093020	0.003977	0.040705	0.810394	0.142993	-0.522844	0.222370	-0.106755	-65.645897	30.757149
26114		9.355868	0.331627	4.100597	-0.068058	0.356679	0.401288	0.095281	0.021415	0.085149	-0.723633	-0.238525	-0.779541	0.093562	0.003337	0.040998	0.810286	0.143136	-0.522721	0.222959	-0.156776	-65.634816	30.870783
26115		9.324218	0.393846	4.131310	-0.134790	0.391733	0.384972	0.122415	0.023836	0.059573	-0.722412	-0.225586	-0.775635	0.093246	0.003941	0.041304	0.810192	0.143457	-0.522540	0.223522	-0.158544	-65.622544	30.949222
26116		9.238025	0.448337	4.210639	-0.252916	0.383801	0.339176	0.118490	0.036524	0.037020	-0.723877	-0.241699	-0.778320	0.092387	0.004476	0.042092	0.810160	0.143801	-0.522295	0.223985	-0.134336	-65.602870	30.995631
26117		9.083106	0.436292	4.186844	-0.278225	0.350658	0.188435	0.126511	0.050490	0.009027	-0.723145	-0.248291	-0.777832	0.090841	0.004341	0.041848	0.810188	0.144241	-0.521965	0.224372	-0.069781	-65.575410	31.003838
26118		8.976771	0.544896	4.281659	-0.439349	0.374327	0.131094	0.128277	0.050909	-0.005064	-0.719482	-0.239014	-0.781738	0.089779	0.005419	0.042797	0.810233	0.144721	-0.521620	0.224703	0.013245	-65.547548	30.992199
26119		9.038707	0.599021	4.206035	-0.379482	0.464936	0.156646	0.115234	0.036179	-0.036781	-0.727051	-0.244629	-0.773926	0.090396	0.005949	0.042047	0.810282	0.145250	-0.521326	0.224865	0.128889	-65.528265	30.937184
26120		9.033072	0.606037	4.166286	-0.347256	0.482036	0.135612	0.110398	0.030051	-0.053240	-0.723633	-0.247803	-0.781494	0.090339	0.006013	0.041653	0.810340	0.145805	-0.521050	0.224937	0.262101	-65.512243	30.858971
26121		8.999032	0.626924	4.170334	-0.366589	0.482780	0.106981	0.113740	0.017087	-0.066752	-0.724609	-0.243896	-0.772217	0.089996	0.006215	0.041699	0.810373	0.146428	-0.520814	0.224959	0.414457	-65.503692	30.762660
26122		9.028358	0.556932	4.199818	-0.336581	0.405717	0.146328	0.110906	0.005907	-0.076211	-0.719971	-0.252441	-0.772705	0.090287	0.005512	0.041999	0.810393	0.147073	-0.520618	0.224923	0.576903	-65.501225	30.652706
26123		9.012781	0.476615	4.162451	-0.265533	0.340526	0.116910	0.114453	-0.004046	-0.088106	-0.720459	-0.248779	-0.777832	0.090129	0.004703	0.041629	0.810394	0.147778	-0.520450	0.224845	0.756697	-65.504410	30.526688
26124		9.012020	0.329549	4.126564	-0.155741	0.219808	0.100993	0.118223	-0.006419	-0.091960	-0.726563	-0.244385	-0.775879	0.090120	0.003230	0.041270	0.810392	0.148507	-0.520284	0.224754	0.943396	-65.508586	30.394744
26125		9.024304	0.205153	4.159358	-0.106289	0.088225	0.125185	0.123940	-0.009729	-0.092637	-0.727051	-0.246826	-0.785400	0.090242	0.001984	0.041599	0.810376	0.149268	-0.520124	0.224678	1.134542	-65.514640	30.262233
26126		9.042195	0.115465	4.119686	-0.015987	0.021978	0.124399	0.124419	0.001136	-0.094863	-0.718750	-0.261963	-0.774170	0.090423	0.001086	0.041197	0.810393	0.150020	-0.519918	0.224595	1.328265	-65.514086	30.126145
26127		9.035569	0.056903	4.110626	0.027028	-0.036659	0.114039	0.139609	0.020403	-0.089158	-0.723633	-0.256348	-0.776611	0.090360	0.000500	0.041097	0.810438	0.150802	-0.519621	0.224596	1.523141	-65.502559	29.999397
26128		9.012612	0.049713	4.159306	-0.005226	-0.081062	0.113181	0.146602	0.048757	-0.083226	-0.722656	-0.260254	-0.775146	0.090136	0.000429	0.041571	0.810547	0.151561	-0.519204	0.224656	1.713217	-65.474544	29.881655
26129		8.913427	-0.010813	4.163025	-0.000591	-0.164221	0.023628	0.164786	0.060407	-0.078068	-0.725098	-0.267334	-0.778564	0.089147	-0.000177	0.041603	0.810663	0.152371	-0.518724	0.224797	1.906580	-65.439957	29.772377
26130		8.900942	-0.071975	4.117291	0.074732	-0.205439	-0.007779	0.174898	0.070717	-0.068236	-0.715820	-0.264648	-0.768555	0.089024	-0.000786	0.041141	0.810789	0.153182	-0.518197	0.225008	2.092392	-65.399348	29.677115
26131		8.835836	-0.073824	4.088229	0.087804	-0.213983	-0.079365	0.187516	0.082341	-0.060125	-0.713135	-0.267090	-0.774902	0.088375	-0.000803	0.040845	0.810923	0.154012	-0.517615	0.225296	2.274454	-65.352299	29.594523
26132		8.757146	-0.115035	4.049378	0.124638	-0.253019	-0.168066	0.192914	0.091534	-0.050074	-0.710693	-0.278809	-0.771973	0.087590	-0.001211	0.040453	0.811066	0.154825	-0.516997	0.225643	2.445944	-65.299952	29.526291
26133		8.741019	-0.125931	3.989771	0.184866	-0.242519	-0.208182	0.216948	0.102954	-0.043954	-0.722168	-0.259033	-0.777100	0.087430	-0.001322	0.039851	0.811211	0.155710	-0.516309	0.226089	2.622649	-65.241305	29.468093
26134		8.720105	-0.116199	4.028915	0.156880	-0.262951	-0.211015	0.235654	0.099901	-0.026578	-0.709961	-0.270020	-0.778809	0.087221	-0.001221	0.040244	0.811314	0.156624	-0.515625	0.226646	2.787982	-65.184637	29.433495
26135		8.724377	-0.084299	4.064390	0.128769	-0.256715	-0.191948	0.236377	0.106247	-0.009255	-0.718018	-0.276855	-0.782715	0.087265	-0.000895	0.040597	0.811410	0.157494	-0.514928	0.227285	2.931730	-65.124959	29.423828
26136		8.668534	0.000777	4.030848	0.103048	-0.182953	-0.255119	0.251053	0.113686	0.004365	-0.717041	-0.267090	-0.773682	0.086708	-0.000041	0.040259	0.811499	0.158375	-0.514193	0.228017	3.066056	-65.061239	29.432994
26137		8.670519	0.136859	4.073494	0.012496	-0.090620	-0.232416	0.256072	0.113386	0.025478	-0.722168	-0.278076	-0.781982	0.086728	0.001328	0.040687	0.811556	0.159227	-0.513470	0.228852	3.177303	-64.998543	29.471618
26138		8.680308	0.198182	4.035239	0.025265	-0.019045	-0.238286	0.256554	0.114415	0.038089	-0.718750	-0.286133	-0.778564	0.086826	0.001947	0.040305	0.811600	0.160042	-0.512751	0.229735	3.272873	-64.935544	29.527017
26139		8.707260	0.260145	3.966945	0.065941	0.072622	-0.241321	0.256370	0.117304	0.051764	-0.713135	-0.272949	-0.778320	0.087095	0.002573	0.039622	0.811633	0.160822	-0.512030	0.230679	3.351667	-64.871531	29.601706
26140		8.736895	0.269158	3.916795	0.121705	0.112570	-0.235654	0.254244	0.121094	0.062241	-0.719238	-0.286377	-0.782227	0.087392	0.002669	0.039118	0.811666	0.161558	-0.511304	0.231659	3.415999	-64.805584	29.690313
26141		8.748433	0.340677	3.820605	0.171062	0.225459	-0.264491	0.248958	0.123134	0.072297	-0.718750	-0.288818	-0.787354	0.087507	0.003391	0.038156	0.811692	0.162248	-0.510583	0.232672	3.465293	-64.739014	29.792996
26142		8.739943	0.380522	3.870352	0.119357	0.235557	-0.250194	0.245788	0.125028	0.083916	-0.711182	-0.290771	-0.779297	0.087422	0.003794	0.038654	0.811713	0.162889	-0.509866	0.233721	3.498555	-64.671629	29.910783
26143		8.808674	0.447431	3.826091	0.151272	0.332677	-0.205485	0.236795	0.118511	0.092090	-0.716309	-0.291992	-0.785156	0.088107	0.004470	0.038214	0.811712	0.163484	-0.509191	0.234778	3.517729	-64.608449	30.039200
26144		8.877024	0.554067	3.862972	0.099256	0.422826	-0.125455	0.229847	0.118191	0.101129	-0.710693	-0.291260	-0.781006	0.088790	0.005541	0.038584	0.811705	0.164025	-0.508533	0.235850	3.522212	-64.545619	30.178931
26145		8.952763	0.626411	3.902128	0.066568	0.485156	-0.038684	0.231106	0.119828	0.104000	-0.707031	-0.290771	-0.772705	0.089548	0.006266	0.038975	0.811694	0.164564	-0.507868	0.236942	3.524363	-64.482119	30.322730
26146		8.931283	0.624293	3.941563	0.038604	0.464728	-0.041505	0.213329	0.125959	0.106035	-0.700928	-0.287109	-0.783936	0.089334	0.006248	0.039366	0.811712	0.165016	-0.507199	0.237997	3.513669	-64.415039	30.468941
26147		8.953571	0.539158	3.943410	0.100856	0.404969	-0.023233	0.192681	0.127081	0.109837	-0.707031	-0.299316	-0.773438	0.089558	0.005403	0.039382	0.811741	0.165375	-0.506553	0.239020	3.487137	-64.347571	30.620293
26148		8.930469	0.480560	3.961010	0.120258	0.350181	-0.038399	0.194306	0.136480	0.108670	-0.706055	-0.292725	-0.781738	0.089329	0.004816	0.039554	0.811796	0.165729	-0.505866	0.240045	3.462603	-64.274499	30.769883
26149		8.849623	0.465552	4.007643	0.073134	0.304168	-0.091787	0.196165	0.142605	0.109761	-0.708496	-0.289551	-0.777832	0.088522	0.004665	0.040018	0.811859	0.166084	-0.505151	0.241088	3.438050	-64.198093	30.921437
26150		8.798958	0.426942	4.111447	0.008667	0.215722	-0.093566	0.205667	0.142168	0.110402	-0.699463	-0.292725	-0.778564	0.088016	0.004276	0.041056	0.811913	0.166472	-0.504426	0.242153	3.418544	-64.121803	31.072759
26151		8.755034	0.355936	4.217989	-0.036477	0.099458	-0.088619	0.214842	0.137200	0.100919	-0.705322	-0.294922	-0.778076	0.087577	0.003558	0.042124	0.811956	0.166931	-0.503701	0.243202	3.416486	-64.048148	31.211395
26152		8.755558	0.365135	4.312558	-0.101153	0.064374	-0.046578	0.224449	0.124093	0.103063	-0.700684	-0.300293	-0.776611	0.087580	0.003648	0.043075	0.811955	0.167435	-0.503019	0.244268	3.418571	-63.981928	31.350920
26153		8.735361	0.377669	4.294212	-0.092543	0.085279	-0.072381	0.222713	0.131031	0.103104	-0.704346	-0.299805	-0.782715	0.087380	0.003774	0.042889	0.811969	0.167928	-0.502310	0.245340	3.419654	-63.911878	31.491242
