// General information: 
//  MT Manager version: 2019.2.0 
//  XDA version: 2019.2.0 build 3853 rev 94535 built on 2019-09-09
// Device information: 
//  DeviceId: 00B47792
//  ProductCode: MTW2-3A7G6
//  Firmware Version: 4.6.0
//  Hardware Version: 2.0.0
// Device settings: 
//  Filter Profile: human(46.1)
//  Option Flags: Orientation Smoother Disabled, AHS Disabled, ICC Disabled
// Coordinate system: ENU
PacketCounter	SampleTimeFine	Acc_X	Acc_Y	Acc_Z	FreeAcc_E	FreeAcc_N	FreeAcc_U	Gyr_X	Gyr_Y	Gyr_Z	Mag_X	Mag_Y	Mag_Z	VelInc_X	VelInc_Y	VelInc_Z	Quat_q0	Quat_q1	Quat_q2	Quat_q3	Roll	Pitch	Yaw
02229		9.557514	0.946386	-1.707953	0.024949	-0.011269	-0.057788	-0.000932	0.007940	0.004272	-0.805176	0.129395	0.426758	0.095574	0.009466	-0.017083	0.147896	-0.725898	-0.247760	-0.624351	151.810627	-78.439937	60.853132
02230		9.515732	0.920733	-1.741363	-0.021147	-0.015004	-0.095250	-0.006668	0.009341	0.004450	-0.804932	0.125977	0.432617	0.095156	0.009209	-0.017418	0.147880	-0.725895	-0.247726	-0.624372	151.806926	-78.442452	60.852572
02231		9.555987	0.892348	-1.716421	-0.012335	0.028600	-0.062902	-0.006488	0.009629	0.000174	-0.798340	0.125488	0.438477	0.095559	0.008923	-0.017169	0.147859	-0.725882	-0.247713	-0.624397	151.792498	-78.444102	60.863960
02232		9.525133	0.905882	-1.722124	-0.013301	0.008839	-0.090844	-0.003764	0.011399	0.001429	-0.803223	0.120605	0.435791	0.095250	0.009059	-0.017227	0.147847	-0.725867	-0.247697	-0.624424	151.780267	-78.446839	60.873805
02233		9.583854	0.912833	-1.711053	0.004992	0.018900	-0.034608	0.012387	0.010869	0.000580	-0.808105	0.118896	0.432861	0.095838	0.009130	-0.017115	0.147888	-0.725841	-0.247734	-0.624430	151.776107	-78.448966	60.884509
02234		9.521961	0.939705	-1.723615	0.002728	-0.021106	-0.090487	0.011975	0.011542	-0.001320	-0.811768	0.122559	0.437256	0.095219	0.009397	-0.017241	0.147926	-0.725809	-0.247777	-0.624440	151.765907	-78.451029	60.901486
02235		9.527612	0.959118	-1.708778	0.025602	-0.028626	-0.085728	0.010559	0.013272	-0.002743	-0.803955	0.120605	0.433838	0.095275	0.009591	-0.017094	0.147954	-0.725772	-0.247819	-0.624460	151.748467	-78.453571	60.924785
02236		9.527792	0.959096	-1.707784	0.025928	-0.028146	-0.085727	0.002975	0.008942	0.000770	-0.805664	0.123047	0.431152	0.095277	0.009592	-0.017082	0.147961	-0.725758	-0.247829	-0.624471	151.741715	-78.454887	60.932977
02237		9.522523	0.939556	-1.720593	0.003676	-0.019650	-0.090484	-0.001400	0.011228	0.001574	-0.800293	0.121338	0.432373	0.095224	0.009396	-0.017211	0.147958	-0.725741	-0.247820	-0.624495	151.731030	-78.457582	60.942582
02238		9.519147	0.973589	-1.723123	0.019362	-0.050089	-0.090121	-0.009395	0.007571	0.003188	-0.803955	0.125244	0.435791	0.095191	0.009737	-0.017235	0.147927	-0.725743	-0.247783	-0.624514	151.724982	-78.458862	60.942822
02239		9.553924	0.925488	-1.712087	0.005632	0.001567	-0.062549	-0.011534	0.006782	0.009211	-0.802979	0.117188	0.437500	0.095538	0.009258	-0.017125	0.147905	-0.725758	-0.247718	-0.624528	151.733677	-78.461341	60.926699
02240		9.554116	0.925060	-1.711249	0.005959	0.002048	-0.062549	-0.010400	0.008629	0.003664	-0.800537	0.125977	0.433594	0.095540	0.009251	-0.017117	0.147873	-0.725758	-0.247676	-0.624552	151.726823	-78.463283	60.927174
02241		9.510312	0.922249	-1.689121	0.018098	0.007854	-0.109630	-0.016017	0.014298	0.008422	-0.805420	0.118408	0.437500	0.095102	0.009225	-0.016899	0.147840	-0.725752	-0.247593	-0.624600	151.720911	-78.469287	60.923021
02242		9.553220	0.935642	-1.767397	-0.036266	-0.037435	-0.052544	-0.016733	0.010415	0.006210	-0.803223	0.129639	0.428955	0.095531	0.009358	-0.017680	0.147795	-0.725755	-0.247520	-0.624636	151.714349	-78.472823	60.919495
02243		9.540391	0.919214	-1.738850	-0.022831	-0.011393	-0.071693	-0.011895	0.004840	0.008101	-0.802002	0.126709	0.435059	0.095403	0.009195	-0.017391	0.147767	-0.725773	-0.247461	-0.624645	151.722641	-78.474068	60.903787
02244		9.571574	0.905175	-1.731481	-0.021197	0.009346	-0.043764	-0.009939	0.005341	0.006353	-0.802002	0.113281	0.436035	0.095715	0.009054	-0.017318	0.147741	-0.725787	-0.247412	-0.624654	151.727080	-78.475082	60.893006
02245		9.564144	0.908176	-1.689390	0.014809	0.027397	-0.058166	0.000067	0.006882	0.003791	-0.811768	0.130371	0.434082	0.095641	0.009084	-0.016897	0.147742	-0.725787	-0.247401	-0.624659	151.728620	-78.476071	60.890487
02246		9.527856	0.901965	-1.709066	-0.008740	0.015628	-0.090848	-0.001995	0.011612	0.003949	-0.802490	0.125000	0.438721	0.095277	0.009021	-0.017096	0.147745	-0.725772	-0.247381	-0.624683	151.723314	-78.479597	60.894297
02247		9.533523	0.921169	-1.694184	0.014166	0.008088	-0.086094	0.002922	0.011557	-0.000022	-0.807617	0.115479	0.431641	0.095334	0.009212	-0.016947	0.147756	-0.725748	-0.247394	-0.624703	151.711549	-78.482027	60.907969
02248		9.555754	0.922350	-1.703549	0.008595	0.005921	-0.062553	0.002922	0.011557	-0.000022	-0.801270	0.124756	0.432617	0.095557	0.009224	-0.017041	0.147764	-0.725725	-0.247404	-0.624724	151.699294	-78.484446	60.921746
02249		9.550563	0.902615	-1.716067	-0.013660	0.014424	-0.067306	0.001083	0.015323	0.006307	-0.805664	0.121582	0.437012	0.095504	0.009029	-0.017168	0.147788	-0.725700	-0.247382	-0.624756	151.696096	-78.490473	60.924986
02250		9.534210	0.920122	-1.690884	0.015131	0.009538	-0.086097	0.007574	0.005691	0.006146	-0.801025	0.121338	0.431396	0.095341	0.009205	-0.016911	0.147826	-0.725699	-0.247389	-0.624746	151.709602	-78.491608	60.915193
02251		9.534322	0.919584	-1.690546	0.015456	0.010029	-0.086098	0.014501	0.003521	0.001225	-0.805420	0.123291	0.430908	0.095343	0.009198	-0.016906	0.147868	-0.725695	-0.247436	-0.624722	151.717587	-78.490257	60.914818
02252		9.539884	0.938514	-1.676383	0.038350	0.002498	-0.081347	0.015214	0.007405	0.003431	-0.804199	0.128906	0.437256	0.095398	0.009388	-0.016767	0.147927	-0.725680	-0.247475	-0.624710	151.726462	-78.491519	60.914218
02253		9.522111	0.967689	-1.710019	0.024260	-0.042850	-0.090097	0.004282	0.012441	0.000601	-0.804688	0.124756	0.431885	0.095220	0.009678	-0.017106	0.147945	-0.725653	-0.247489	-0.624731	151.715611	-78.494568	60.927654
02254		9.542441	0.915302	-1.729642	-0.019231	-0.006077	-0.071681	-0.007496	0.010690	0.000633	-0.796875	0.125732	0.434326	0.095423	0.009153	-0.017302	0.147916	-0.725641	-0.247465	-0.624761	151.700154	-78.496727	60.938607
02255		9.588651	0.971115	-1.739118	0.007244	-0.049806	-0.019460	-0.009640	0.009901	0.006653	-0.809814	0.116943	0.436279	0.095885	0.009714	-0.017396	0.147899	-0.725641	-0.247414	-0.624786	151.699736	-78.500107	60.933122
02256		9.561373	0.950119	-1.741530	-0.009104	-0.038676	-0.047754	-0.005673	0.008287	0.003955	-0.809326	0.126953	0.431885	0.095613	0.009503	-0.017420	0.147885	-0.725639	-0.247385	-0.624802	151.696763	-78.501956	60.932400
02257		9.562897	0.938508	-1.681967	0.034094	0.002261	-0.057809	-0.008040	0.008460	0.003801	-0.795166	0.125732	0.440430	0.095628	0.009386	-0.016824	0.147861	-0.725639	-0.247350	-0.624823	151.691375	-78.503857	60.932678
02258		9.530148	0.898250	-1.698212	-0.004825	0.021396	-0.090856	-0.014730	0.008305	0.005239	-0.800537	0.124756	0.439209	0.095301	0.008984	-0.016987	0.147817	-0.725645	-0.247288	-0.624850	151.686371	-78.506065	60.928734
02259		9.557837	0.918630	-1.693842	0.012221	0.011247	-0.062561	-0.018103	0.009536	0.005559	-0.792480	0.132813	0.437256	0.095577	0.009187	-0.016944	0.147762	-0.725653	-0.247212	-0.624884	151.679430	-78.508791	60.924362
02260		9.525139	0.878248	-1.709881	-0.026699	0.030381	-0.095607	-0.017339	0.010804	0.008560	-0.795898	0.134033	0.440430	0.095250	0.008785	-0.017105	0.147722	-0.725658	-0.247128	-0.624921	151.677831	-78.513162	60.915419
02261		9.538461	0.893649	-1.736538	-0.039410	0.005302	-0.076423	-0.005863	0.007996	0.008226	-0.794434	0.123535	0.444580	0.095384	0.008940	-0.017369	0.147724	-0.725664	-0.247086	-0.624931	151.687656	-78.515919	60.902032
02262		9.498540	0.844699	-1.998240	-0.287794	-0.098409	-0.074298	-0.006953	0.003532	0.014563	-0.797363	0.124512	0.441650	0.094984	0.008453	-0.019984	0.147732	-0.725691	-0.247018	-0.624924	151.716653	-78.518251	60.867940
02263		9.168827	0.661479	-2.260015	-0.636579	-0.140013	-0.368760	-0.045462	-0.010941	0.018126	-0.792969	0.128662	0.446533	0.091689	0.006618	-0.022597	0.147589	-0.725800	-0.246823	-0.624908	151.752701	-78.513957	60.803271
02264		8.914141	0.674389	-2.741233	-1.053650	-0.445202	-0.532456	-0.039411	-0.038895	0.010072	-0.797119	0.136719	0.442627	0.089146	0.006743	-0.027396	0.147413	-0.725979	-0.246702	-0.624790	151.808447	-78.493643	60.722903
02265		8.918195	0.900518	-2.936823	-1.088477	-0.731307	-0.471891	0.049021	-0.091354	-0.020581	-0.790527	0.129395	0.443604	0.089196	0.009003	-0.029325	0.147398	-0.726220	-0.247006	-0.624393	151.910017	-78.438304	60.647515
02266		9.134228	1.141313	-2.856489	-0.858530	-0.845331	-0.250022	0.113848	-0.157943	-0.023793	-0.789795	0.128662	0.440430	0.091366	0.011418	-0.028486	0.147525	-0.726615	-0.247574	-0.623678	152.124792	-78.348585	60.494412
02267		9.519365	1.252849	-2.496972	-0.443087	-0.673210	0.075347	0.075117	-0.204930	0.006244	-0.792236	0.130859	0.449707	0.095219	0.012541	-0.024867	0.147547	-0.727223	-0.247945	-0.622816	152.449323	-78.242679	60.206360
02268		9.919373	1.085316	-2.143740	-0.180275	-0.268590	0.388431	-0.039784	-0.207982	0.045993	-0.798096	0.125977	0.446289	0.099213	0.010872	-0.021336	0.147271	-0.727972	-0.247817	-0.622057	152.801850	-78.145562	59.822490
02269		10.108615	0.747236	-1.855433	-0.086558	0.203596	0.489552	-0.143798	-0.156864	0.090082	-0.796875	0.132080	0.455811	0.101097	0.007505	-0.018480	0.146815	-0.728694	-0.247165	-0.621579	153.133941	-78.085341	59.398201
02270		9.999679	0.428893	-1.729440	-0.153421	0.515656	0.330244	-0.162335	-0.053732	0.102729	-0.794922	0.137695	0.458008	0.099999	0.004326	-0.017271	0.146460	-0.729122	-0.246335	-0.621490	153.356675	-78.080932	59.075063
02271		9.660634	0.321031	-1.881303	-0.370443	0.462054	0.016833	-0.086251	0.040797	0.071549	-0.787354	0.135254	0.455566	0.096601	0.003237	-0.018834	0.146401	-0.729164	-0.245785	-0.621673	153.433755	-78.116577	58.945314
02272		9.298160	0.390320	-2.002648	-0.475124	0.271317	-0.309037	0.054409	0.076394	0.014542	-0.786621	0.142578	0.454102	0.092974	0.003915	-0.020061	0.146723	-0.728919	-0.245855	-0.621856	153.408161	-78.156033	59.002882
02273		9.108897	0.658232	-2.081672	-0.419150	-0.030149	-0.455228	0.167266	0.038558	-0.039286	-0.793457	0.136963	0.455566	0.091086	0.006582	-0.020829	0.147242	-0.728644	-0.246500	-0.621800	153.362861	-78.162147	59.146797
02274		9.210573	0.897888	-2.070235	-0.268095	-0.203890	-0.335701	0.211400	-0.038509	-0.077481	-0.793457	0.138428	0.453857	0.092113	0.008965	-0.020675	0.147707	-0.728528	-0.247478	-0.621438	153.343164	-78.119100	59.290250
02275		9.322651	1.025531	-1.996688	-0.120180	-0.244410	-0.227484	0.181645	-0.092174	-0.076951	-0.792725	0.138672	0.456299	0.093240	0.010238	-0.019915	0.147999	-0.728600	-0.248400	-0.620915	153.374078	-78.048617	59.364605
02276		9.448640	1.093266	-1.846799	0.062476	-0.190659	-0.125457	0.111231	-0.103418	-0.050332	-0.782959	0.139893	0.458984	0.094499	0.010919	-0.018413	0.148103	-0.728791	-0.249015	-0.620420	153.442254	-77.979305	59.359622
02277		9.622790	1.192714	-1.762812	0.213091	-0.190552	0.038528	0.046430	-0.089527	-0.015833	-0.795410	0.141602	0.455322	0.096237	0.011924	-0.017582	0.148095	-0.729030	-0.249293	-0.620029	153.539299	-77.925844	59.287113
02278		9.681986	1.187749	-1.702713	0.274347	-0.139952	0.084584	-0.012557	-0.075662	0.028194	-0.786377	0.141846	0.456543	0.096825	0.011890	-0.016991	0.148026	-0.729324	-0.249217	-0.619730	153.690489	-77.890771	59.124695
02279		9.643828	1.101473	-1.795499	0.154616	-0.122319	0.056538	-0.066674	-0.086079	0.063767	-0.785156	0.131104	0.462158	0.096442	0.011039	-0.017917	0.147857	-0.729735	-0.248852	-0.619434	153.907247	-77.859156	58.863622
02280		9.594115	0.909274	-1.867730	-0.005301	-0.009316	0.003734	-0.075040	-0.097013	0.090145	-0.791504	0.145020	0.461182	0.095946	0.009129	-0.018634	0.147725	-0.730218	-0.248372	-0.619088	154.193545	-77.828357	58.526338
02281		9.504503	0.820851	-1.899536	-0.077627	0.031038	-0.085888	-0.035813	-0.108144	0.085515	-0.786133	0.144775	0.463623	0.095052	0.008246	-0.018945	0.147707	-0.730701	-0.248039	-0.618656	154.502442	-77.790205	58.188776
02282		9.503094	0.814483	-1.909301	-0.077301	0.031520	-0.085887	-0.025096	-0.102590	0.060697	-0.784424	0.142822	0.468750	0.095038	0.008171	-0.019045	0.147660	-0.731127	-0.247825	-0.618250	154.749835	-77.748576	57.920486
02283		9.552338	0.744635	-1.932324	-0.119399	0.088655	-0.039592	-0.043945	-0.080790	0.030923	-0.785645	0.143066	0.460205	0.095530	0.007457	-0.019286	0.147478	-0.731463	-0.247645	-0.617968	154.889626	-77.710718	57.751204
02284		9.537271	0.716655	-2.024979	-0.207097	0.064736	-0.038917	-0.052091	-0.065694	-0.001489	-0.790039	0.133301	0.458740	0.095379	0.007161	-0.020220	0.147185	-0.731717	-0.247548	-0.617775	154.929922	-77.672844	57.678972
02285		9.516358	0.736431	-2.178997	-0.322322	-0.030521	-0.027668	-0.004506	-0.061927	-0.023657	-0.782715	0.146240	0.464844	0.095171	0.007353	-0.021761	0.147002	-0.731898	-0.247676	-0.617553	154.940567	-77.631459	57.665002
02286		9.414544	0.747294	-2.332214	-0.449749	-0.132890	-0.096135	0.078600	-0.074325	-0.011435	-0.782227	0.135498	0.464111	0.094155	0.007477	-0.023284	0.147146	-0.732070	-0.248025	-0.617175	155.041022	-77.586673	57.607821
02287		9.274623	0.871451	-2.331076	-0.388482	-0.258014	-0.221312	0.129082	-0.086131	0.011189	-0.790771	0.147949	0.461914	0.092756	0.008735	-0.023265	0.147529	-0.732270	-0.248456	-0.616672	155.236075	-77.541079	57.483362
02288		9.287971	1.035328	-2.238204	-0.208954	-0.341931	-0.211267	0.114107	-0.099800	0.039793	-0.788086	0.149170	0.465820	0.092889	0.010385	-0.022330	0.147929	-0.732558	-0.248745	-0.616118	155.503126	-77.495178	57.276368
02289		9.333755	1.096034	-2.146798	-0.081315	-0.335661	-0.178907	0.046090	-0.113983	0.072004	-0.790771	0.146729	0.468262	0.093346	0.010999	-0.021412	0.148163	-0.732979	-0.248720	-0.615571	155.820334	-77.449163	56.978328
02290		9.433792	1.120687	-2.114698	-0.016427	-0.321162	-0.085361	-0.042068	-0.103264	0.082911	-0.789795	0.149414	0.472168	0.094344	0.011242	-0.021101	0.148119	-0.733446	-0.248373	-0.615165	156.099125	-77.411055	56.667556
02291		9.465441	1.054371	-2.226788	-0.131190	-0.319329	-0.037940	-0.089552	-0.080007	0.084627	-0.779785	0.141113	0.472656	0.094659	0.010574	-0.022235	0.147936	-0.733879	-0.247857	-0.614902	156.329305	-77.385137	56.378824
02292		9.399082	0.922857	-2.375026	-0.325886	-0.300604	-0.084450	-0.089713	-0.052228	0.082207	-0.790283	0.145508	0.470947	0.093993	0.009257	-0.023730	0.147778	-0.734222	-0.247328	-0.614742	156.524255	-77.373119	56.125932
02293		9.412774	0.757848	-2.419675	-0.445162	-0.185891	-0.076325	-0.058026	-0.031581	0.067793	-0.788330	0.143066	0.476318	0.094129	0.007603	-0.024184	0.147717	-0.734462	-0.246934	-0.614629	156.682372	-77.368395	55.929330
02294		9.457376	0.708989	-2.554854	-0.573020	-0.209563	-0.009645	-0.008365	-0.033892	0.055654	-0.788086	0.142090	0.466064	0.094576	0.007115	-0.025533	0.147799	-0.734656	-0.246739	-0.614456	156.842462	-77.359704	55.759915
02295		9.592967	0.686179	-2.506781	-0.522069	-0.143763	0.111353	0.070983	-0.036444	0.059453	-0.791748	0.144043	0.471191	0.095932	0.006899	-0.025048	0.148181	-0.734804	-0.246775	-0.614172	157.059410	-77.350277	55.578787
02296		9.551254	0.752662	-2.422655	-0.413870	-0.167541	0.059640	0.126237	-0.013957	0.059339	-0.784180	0.143066	0.468506	0.095512	0.007570	-0.024215	0.148793	-0.734841	-0.246965	-0.613903	157.285096	-77.352668	55.421175
02297		9.404544	0.844377	-2.327160	-0.296675	-0.226803	-0.094939	0.152713	0.008792	0.056614	-0.785400	0.153564	0.467529	0.094042	0.008488	-0.023269	0.149522	-0.734786	-0.247230	-0.613686	157.497515	-77.366231	55.292711
02298		9.366666	0.963745	-2.230487	-0.150571	-0.289535	-0.141503	0.158945	0.013590	0.061928	-0.778320	0.153076	0.476318	0.093662	0.009684	-0.022304	0.150297	-0.734717	-0.247489	-0.613475	157.721595	-77.383517	55.155964
02299		9.401091	1.145887	-2.257896	-0.062649	-0.456850	-0.087513	0.130098	-0.000915	0.082067	-0.785156	0.149658	0.464844	0.094006	0.011512	-0.022571	0.151009	-0.734738	-0.247599	-0.613230	157.991659	-77.397191	54.955315
02300		9.473123	1.244564	-2.272936	-0.004064	-0.541984	-0.006493	0.109792	-0.006983	0.096623	-0.786133	0.162354	0.471436	0.094726	0.012504	-0.022719	0.151684	-0.734811	-0.247596	-0.612977	158.290810	-77.410660	54.712804
02301		9.570429	1.308559	-2.295501	0.033346	-0.598751	0.097668	0.114350	-0.003591	0.109822	-0.779785	0.161865	0.471191	0.095697	0.013151	-0.022946	0.152421	-0.734886	-0.247557	-0.612720	158.621712	-77.428286	54.440715
02302		9.586237	1.258398	-2.162741	0.126669	-0.494522	0.081570	0.089007	-0.009771	0.132651	-0.788574	0.160156	0.471680	0.095855	0.012657	-0.021617	0.153125	-0.735027	-0.247360	-0.612455	158.999266	-77.447109	54.105708
02303		9.590073	1.168256	-2.056008	0.174868	-0.374262	0.055992	0.017080	-0.000687	0.157386	-0.783447	0.152832	0.477783	0.095892	0.011760	-0.020559	0.153654	-0.735226	-0.246846	-0.612291	159.388201	-77.475196	53.717111
02304		9.468137	1.033174	-2.091898	0.063171	-0.315413	-0.066632	-0.041415	0.014112	0.173215	-0.781494	0.156250	0.469727	0.094671	0.010409	-0.020928	0.154033	-0.735443	-0.246082	-0.612243	159.770351	-77.513972	53.300929
02305		9.380314	0.938637	-2.109899	-0.009221	-0.275146	-0.156228	-0.056981	0.035530	0.161374	-0.788330	0.170410	0.476807	0.093792	0.009456	-0.021118	0.154344	-0.735592	-0.245297	-0.612301	160.098290	-77.561228	52.931103
02306		9.417573	0.916990	-2.199979	-0.086062	-0.312213	-0.103591	-0.023706	0.042577	0.161586	-0.775635	0.164307	0.468262	0.094164	0.009243	-0.022021	0.154787	-0.735693	-0.244607	-0.612343	160.442284	-77.612016	52.564527
02307		9.423098	0.844031	-2.247545	-0.159289	-0.290261	-0.094201	-0.012303	0.033260	0.172803	-0.781982	0.159424	0.468506	0.094220	0.008520	-0.022492	0.155296	-0.735827	-0.243920	-0.612328	160.831574	-77.659239	52.158613
02308		9.357272	0.701769	-2.386836	-0.354011	-0.271554	-0.140619	-0.004829	0.023002	0.187512	-0.782959	0.167480	0.471924	0.093563	0.007105	-0.023879	0.155864	-0.736003	-0.243207	-0.612254	161.273374	-77.703163	51.703131
02309		9.200474	0.636790	-2.376550	-0.393523	-0.254519	-0.300456	0.061659	0.028828	0.194608	-0.783691	0.163330	0.472656	0.091995	0.006465	-0.023777	0.156705	-0.736119	-0.242669	-0.612115	161.769528	-77.750578	51.231202
02310		9.156173	0.812211	-2.458638	-0.360758	-0.469432	-0.315870	0.196536	0.030138	0.190338	-0.785645	0.163818	0.476318	0.091550	0.008233	-0.024592	0.158032	-0.736118	-0.242556	-0.611820	162.334943	-77.797189	50.767447
02311		9.174843	1.091064	-2.414164	-0.155501	-0.694536	-0.289571	0.284769	0.028662	0.193084	-0.787842	0.177002	0.477295	0.091734	0.011034	-0.024139	0.159687	-0.736054	-0.242704	-0.611407	162.963049	-77.842251	50.291263
02312		9.300362	1.265874	-2.272503	0.088659	-0.764356	-0.186095	0.250000	0.024135	0.206546	-0.784912	0.179199	0.467529	0.092988	0.012783	-0.022720	0.161252	-0.736045	-0.242699	-0.611009	163.613103	-77.886108	49.772424
02313		9.443207	1.275194	-2.211259	0.177603	-0.737386	-0.060015	0.162843	0.025894	0.233837	-0.780518	0.185547	0.473633	0.094414	0.012880	-0.022114	0.162581	-0.736133	-0.242327	-0.610699	164.286397	-77.933809	49.179089
02314		9.541387	1.147616	-2.240909	0.108514	-0.654377	0.032957	0.054063	0.040509	0.259487	-0.783936	0.182129	0.464600	0.095394	0.011606	-0.022425	0.163605	-0.736294	-0.241514	-0.610553	164.958626	-77.992204	48.522981
02315		9.517594	0.955969	-2.294032	-0.034693	-0.551969	0.008469	-0.003128	0.072268	0.275098	-0.788330	0.181885	0.467285	0.095154	0.009690	-0.022975	0.164505	-0.736423	-0.240445	-0.610578	165.623929	-78.068678	47.840927
02316		9.391312	0.833606	-2.439779	-0.232204	-0.573982	-0.093596	0.003488	0.099824	0.274846	-0.786865	0.195557	0.456543	0.093889	0.008466	-0.024445	0.165461	-0.736460	-0.239372	-0.610697	166.283207	-78.158984	47.168807
02317		9.282320	0.705510	-2.494788	-0.357008	-0.540668	-0.196902	0.034425	0.105854	0.280640	-0.781006	0.198730	0.464111	0.092800	0.007190	-0.024996	0.166557	-0.736458	-0.238370	-0.610793	166.982073	-78.251578	46.475086
02318		9.301008	0.584360	-2.401605	-0.337260	-0.415012	-0.203739	0.054947	0.088027	0.290113	-0.778809	0.191650	0.462646	0.092991	0.005985	-0.024055	0.167734	-0.736503	-0.237407	-0.610791	167.740006	-78.333775	45.732765
02319		9.424729	0.397516	-2.315162	-0.341730	-0.222796	-0.108204	0.059982	0.052691	0.299648	-0.784668	0.199707	0.463867	0.094235	0.004123	-0.023175	0.168918	-0.736662	-0.236456	-0.610643	168.556863	-78.394992	44.933873
02320		9.678286	0.075779	-2.237534	-0.406979	0.095241	0.112369	0.030906	0.036838	0.311783	-0.785889	0.203125	0.460938	0.096777	0.000912	-0.022393	0.170011	-0.736906	-0.235381	-0.610460	169.407179	-78.446480	44.083531
02321		9.924689	-0.300575	-2.168718	-0.510107	0.452259	0.327742	-0.001435	0.050151	0.304381	-0.783936	0.198975	0.468018	0.099246	-0.002855	-0.021712	0.170979	-0.737127	-0.234227	-0.610367	170.219285	-78.502032	43.253963
02322		10.059040	-0.556894	-2.214122	-0.659427	0.631007	0.461730	0.025226	0.102453	0.284549	-0.791504	0.201904	0.458008	0.100587	-0.005423	-0.022193	0.172045	-0.737140	-0.233178	-0.610454	170.976021	-78.583228	42.496150
02323		9.928744	-0.654699	-2.299761	-0.798694	0.618476	0.349841	0.096794	0.170330	0.245137	-0.787109	0.205566	0.464600	0.099276	-0.006414	-0.023085	0.173333	-0.736837	-0.232437	-0.610737	171.644813	-78.697360	41.870435
02324		9.720422	-0.596360	-2.382497	-0.866346	0.466934	0.164781	0.187072	0.201270	0.199100	-0.787842	0.216553	0.453369	0.097186	-0.005844	-0.023928	0.174848	-0.736306	-0.232110	-0.611070	172.234551	-78.824202	41.378009
02325		9.545205	-0.370000	-2.407311	-0.790426	0.213512	0.004265	0.260210	0.190683	0.155510	-0.778564	0.201416	0.456055	0.095432	-0.003594	-0.024169	0.176488	-0.735690	-0.232180	-0.611314	172.755879	-78.940613	40.998742
02326		9.499618	-0.002381	-2.345005	-0.544211	-0.088707	-0.043465	0.286463	0.150693	0.117740	-0.789551	0.219482	0.452637	0.094978	0.000066	-0.023522	0.178061	-0.735127	-0.232500	-0.611413	173.204933	-79.031231	40.708036
02327		9.543365	0.219654	-1.981788	-0.117298	-0.088897	-0.064361	0.230822	0.096639	0.115993	-0.795654	0.213867	0.447021	0.095423	0.002275	-0.019861	0.179361	-0.734776	-0.232707	-0.611376	173.640936	-79.090306	40.398570
02328		9.767406	0.292780	-1.631153	0.244420	0.054602	0.091143	0.073259	0.055563	0.127878	-0.786865	0.220215	0.449463	0.097668	0.002996	-0.016338	0.180070	-0.734704	-0.232422	-0.611363	174.038565	-79.126513	40.035955
02329		9.912979	-0.037529	-1.416595	0.258554	0.448827	0.187662	-0.122001	0.056445	0.168047	-0.789551	0.221191	0.445313	0.099126	-0.000301	-0.014194	0.180187	-0.734852	-0.231395	-0.611540	174.446070	-79.164829	39.549979
02330		9.841302	-0.377943	-1.481034	0.007400	0.670541	0.124003	-0.236069	0.105620	0.191711	-0.791992	0.229248	0.461182	0.098409	-0.003703	-0.014858	0.180012	-0.734977	-0.229885	-0.612011	174.848986	-79.232035	39.001662
02331		9.516027	-0.655401	-1.680085	-0.358331	0.735775	-0.161925	-0.203571	0.154986	0.181489	-0.788330	0.215820	0.449707	0.095153	-0.006485	-0.016868	0.179984	-0.734909	-0.228470	-0.612630	175.233420	-79.325994	38.491895
02332		9.252795	-0.761312	-1.931156	-0.664885	0.638694	-0.374830	-0.076559	0.160752	0.146514	-0.799805	0.230957	0.445557	0.092518	-0.007553	-0.019383	0.180319	-0.734668	-0.227563	-0.613158	175.590502	-79.421238	38.083515
02333		9.237369	-0.698902	-2.017410	-0.706548	0.522014	-0.372578	0.064145	0.106724	0.108469	-0.784424	0.226318	0.440918	0.092367	-0.006932	-0.020226	0.180996	-0.734421	-0.227281	-0.613359	175.930043	-79.483331	37.775733
02334		9.344544	-0.503539	-1.916176	-0.499353	0.414458	-0.282491	0.144772	0.034227	0.075968	-0.797119	0.222900	0.446289	0.093444	-0.004986	-0.019181	0.181784	-0.734286	-0.227425	-0.613234	176.233860	-79.502601	37.550662
02335		9.554278	-0.290862	-1.717780	-0.184533	0.361535	-0.109347	0.144827	-0.007234	0.056916	-0.788574	0.233887	0.451172	0.095544	-0.002869	-0.017176	0.182469	-0.734257	-0.227682	-0.612971	176.487929	-79.497059	37.376871
02336		9.692334	-0.160376	-1.494341	0.094491	0.386089	-0.012579	0.073236	0.004956	0.033926	-0.793457	0.229004	0.442139	0.096923	-0.001582	-0.014946	0.182832	-0.734228	-0.227788	-0.612857	176.627440	-79.497801	37.277224
02337		9.634261	-0.176013	-1.442827	0.119563	0.417134	-0.079064	-0.026586	0.046390	0.029150	-0.788818	0.236328	0.448975	0.096340	-0.001748	-0.014450	0.182864	-0.734159	-0.227573	-0.613011	176.687913	-79.521845	37.200522
02338		9.479780	-0.152208	-1.481963	0.074921	0.354602	-0.223410	-0.067811	0.078870	0.024035	-0.794678	0.227539	0.452393	0.094792	-0.001516	-0.014857	0.182763	-0.734021	-0.227216	-0.613338	176.703175	-79.564495	37.145056
02339		9.316641	-0.068626	-1.601718	-0.004469	0.197831	-0.361187	-0.035368	0.061494	0.014488	-0.790771	0.236328	0.452148	0.093162	-0.000682	-0.016046	0.182735	-0.733897	-0.227013	-0.613571	176.710958	-79.596689	37.116728
02340		9.300787	0.018530	-1.583480	0.054934	0.130983	-0.379119	0.005075	0.014058	0.022608	-0.787109	0.232422	0.444336	0.093007	0.000196	-0.015841	0.182823	-0.733890	-0.226944	-0.613578	176.775523	-79.602210	37.053605
02341		9.395861	0.031089	-1.613255	0.054563	0.113338	-0.280115	0.019503	-0.044335	0.039371	-0.801758	0.238525	0.444336	0.093962	0.000331	-0.016112	0.182953	-0.734068	-0.226915	-0.613337	176.910857	-79.574639	36.927667
02342		9.528137	0.001779	-1.563334	0.105691	0.179397	-0.159395	-0.029168	-0.075191	0.054586	-0.796875	0.234131	0.447754	0.095287	0.000042	-0.015598	0.182912	-0.734402	-0.226705	-0.613027	177.069432	-79.530008	36.748989
02343		9.550676	-0.121170	-1.681438	-0.046895	0.220300	-0.116988	-0.076506	-0.080485	0.059430	-0.802979	0.233154	0.446533	0.095514	-0.001190	-0.016775	0.182711	-0.734801	-0.226342	-0.612743	177.215555	-79.482212	36.556258
02344		9.491003	-0.200224	-1.861729	-0.239387	0.182545	-0.143426	-0.078640	-0.054448	0.038266	-0.804199	0.234375	0.446533	0.094915	-0.001991	-0.018591	0.182462	-0.735098	-0.226021	-0.612579	177.289914	-79.448856	36.434358
02345		9.443343	-0.151317	-2.140359	-0.441748	-0.013826	-0.138731	-0.020431	-0.040735	0.026050	-0.800781	0.236572	0.446045	0.094438	-0.001503	-0.021384	0.182409	-0.735285	-0.225916	-0.612409	177.357938	-79.422806	36.353661
02346		9.329846	-0.060351	-2.218846	-0.467383	-0.143326	-0.234903	0.051802	-0.045567	0.005962	-0.792480	0.235107	0.445068	0.093304	-0.000595	-0.022167	0.182550	-0.735399	-0.226106	-0.612160	177.405851	-79.393637	36.334676
02347		9.487948	0.102481	-2.188151	-0.322720	-0.242385	-0.083516	0.098806	-0.064173	-0.011161	-0.800049	0.237305	0.452393	0.094887	0.001030	-0.021851	0.182796	-0.735507	-0.226524	-0.611802	177.431223	-79.353181	36.366949
02348		9.736231	0.173448	-2.075089	-0.146301	-0.208912	0.140464	0.073043	-0.089390	0.005116	-0.788330	0.244141	0.458252	0.097372	0.001745	-0.020707	0.182963	-0.735735	-0.226822	-0.611368	177.494268	-79.298901	36.344946
02349		9.787721	0.184232	-1.859674	0.051834	-0.090844	0.151291	-0.025814	-0.080503	0.024449	-0.792480	0.229492	0.456787	0.097884	0.001852	-0.018558	0.182840	-0.736047	-0.226743	-0.611058	177.557858	-79.249980	36.265598
02350		9.708939	0.011223	-1.842073	-0.036921	0.056922	0.069228	-0.134074	-0.030489	0.014715	-0.795410	0.244385	0.449463	0.097092	0.000107	-0.018406	0.182341	-0.736294	-0.226318	-0.611067	177.522962	-79.229648	36.222489
02351		9.569158	-0.073917	-1.957685	-0.198883	0.052185	-0.047213	-0.144490	-0.006201	0.004574	-0.786865	0.236572	0.454102	0.095692	-0.000751	-0.019573	0.181805	-0.736465	-0.225881	-0.611183	177.448764	-79.222769	36.214124
02352		9.427603	-0.055367	-2.085720	-0.314854	-0.045353	-0.162206	-0.080711	-0.014535	-0.009828	-0.792480	0.233887	0.460205	0.094278	-0.000567	-0.020850	0.181445	-0.736587	-0.225695	-0.611211	177.368666	-79.210951	36.248150
02353		9.379071	0.129350	-2.148000	-0.269014	-0.234834	-0.196550	0.015428	-0.043074	-0.011791	-0.795654	0.232910	0.456787	0.093795	0.001290	-0.021460	0.181405	-0.736706	-0.225840	-0.611026	177.342172	-79.182533	36.284391
02354		9.500460	0.339364	-2.029415	-0.031929	-0.327347	-0.097531	0.034135	-0.084247	-0.009497	-0.788818	0.240479	0.452393	0.095013	0.003393	-0.020254	0.181391	-0.736937	-0.226066	-0.610668	177.338806	-79.130817	36.307296
02355		9.471522	0.349766	-1.813361	0.153818	-0.216668	-0.166458	-0.053629	-0.094904	0.015994	-0.795898	0.230713	0.452393	0.094724	0.003500	-0.018090	0.181124	-0.737308	-0.225946	-0.610344	177.362801	-79.073468	36.251991
02356		9.442565	0.311575	-1.706201	0.223101	-0.124917	-0.215560	-0.157380	-0.083754	0.023177	-0.786377	0.240967	0.458984	0.094432	0.003113	-0.017025	0.180504	-0.737747	-0.225467	-0.610174	177.346442	-79.022899	36.176373
02357		9.452573	0.149960	-1.619988	0.212181	0.062591	-0.223681	-0.199169	-0.080438	0.028710	-0.792725	0.232666	0.461426	0.094532	0.001497	-0.016163	0.179755	-0.738219	-0.224842	-0.610055	177.322022	-78.974173	36.085420
02358		9.599345	0.080302	-1.652324	0.176778	0.124780	-0.074247	-0.137538	-0.087629	0.025176	-0.791992	0.240479	0.458496	0.096001	0.000804	-0.016482	0.179209	-0.738653	-0.224419	-0.609845	177.322874	-78.921448	36.003823
02359		9.700831	0.021744	-1.724324	0.110171	0.151643	0.038442	-0.048310	-0.112799	0.021853	-0.793701	0.234131	0.455811	0.097018	0.000224	-0.017189	0.178960	-0.739079	-0.224309	-0.609443	177.368309	-78.854020	35.929762
02360		9.671813	-0.018783	-1.620496	0.179457	0.243394	-0.010705	0.025102	-0.121366	0.018960	-0.789795	0.232910	0.455811	0.096728	-0.000177	-0.016146	0.178959	-0.739463	-0.224435	-0.608931	177.447420	-78.781801	35.863344
02361		9.583906	-0.061565	-1.526578	0.230562	0.325237	-0.115959	0.045464	-0.126568	0.007747	-0.792725	0.232422	0.461914	0.095849	-0.000608	-0.015205	0.178997	-0.739831	-0.224675	-0.608385	177.506033	-78.706110	35.830628
02362		9.482143	-0.059190	-1.354363	0.368226	0.411020	-0.250036	0.044155	-0.136489	-0.003991	-0.792969	0.244141	0.462158	0.094831	-0.000591	-0.013479	0.178979	-0.740217	-0.224957	-0.607816	177.530794	-78.624640	35.830739
02363		9.444949	-0.047850	-1.275055	0.445629	0.448910	-0.302956	0.061322	-0.168062	-0.022851	-0.789551	0.239258	0.473877	0.094460	-0.000485	-0.012671	0.178937	-0.740661	-0.225395	-0.607124	177.516125	-78.524446	35.882096
02364		9.457834	-0.042490	-1.262420	0.475771	0.464322	-0.294067	0.088927	-0.214612	-0.025018	-0.782715	0.245850	0.462402	0.094592	-0.000431	-0.012523	0.178933	-0.741219	-0.225960	-0.606234	177.517100	-78.397735	35.932666
02365		9.334359	-0.002060	-1.365826	0.412173	0.373649	-0.395353	0.125717	-0.260696	-0.017637	-0.787842	0.239258	0.468994	0.093361	-0.000020	-0.013537	0.179040	-0.741890	-0.226657	-0.605120	177.565743	-78.244660	35.957122
02366		9.352646	0.054990	-1.352815	0.480240	0.350141	-0.381260	0.157368	-0.305556	-0.012497	-0.784912	0.246826	0.471924	0.093547	0.000555	-0.013385	0.179224	-0.742674	-0.227464	-0.603801	177.650824	-78.066203	35.961879
02367		9.428929	0.147389	-1.339966	0.581893	0.305663	-0.310592	0.146812	-0.347500	0.006764	-0.783203	0.247070	0.475098	0.094312	0.001487	-0.013235	0.179383	-0.743611	-0.228210	-0.602315	177.784867	-77.864018	35.911428
02368		9.502868	0.248636	-1.389596	0.640670	0.220801	-0.229474	0.089138	-0.364791	0.019271	-0.788574	0.244629	0.474365	0.095054	0.002502	-0.013721	0.179341	-0.744666	-0.228745	-0.600821	177.917224	-77.652334	35.827815
02369		9.463426	0.330008	-1.712591	0.447870	-0.009006	-0.200324	0.015709	-0.369616	0.024105	-0.783936	0.244141	0.475098	0.094665	0.003313	-0.016951	0.179039	-0.745802	-0.229051	-0.599384	178.017400	-77.437810	35.735111
02370		9.213855	0.279325	-1.947147	0.216032	-0.107582	-0.394291	-0.033371	-0.370629	0.031196	-0.781982	0.243164	0.478760	0.092174	0.002804	-0.019301	0.178567	-0.746991	-0.229177	-0.597993	178.104150	-77.222950	35.626161
02371		9.178518	0.219235	-2.294086	-0.073775	-0.231148	-0.352396	-0.048085	-0.395354	0.035465	-0.773682	0.238770	0.483643	0.091830	0.002203	-0.022760	0.178030	-0.748269	-0.229271	-0.596518	178.192096	-76.993839	35.508331
02372		9.374612	0.163206	-2.513672	-0.212221	-0.257098	-0.111283	-0.039051	-0.436824	0.043591	-0.776611	0.246094	0.474365	0.093800	0.001648	-0.024932	0.177497	-0.749670	-0.229391	-0.594870	178.304101	-76.741211	35.369903
02373		9.644695	0.078140	-2.695751	-0.317918	-0.227200	0.194334	-0.020529	-0.445587	0.052557	-0.766357	0.253418	0.491943	0.096506	0.000804	-0.026743	0.177055	-0.751085	-0.229546	-0.593154	178.444146	-76.483502	35.214543
02374		9.714801	-0.120972	-2.774815	-0.440090	-0.074065	0.281483	-0.022425	-0.415374	0.056939	-0.770264	0.253174	0.500488	0.097206	-0.001185	-0.027546	0.176647	-0.752415	-0.229644	-0.591550	178.585861	-76.243213	35.055057
02375		9.636244	-0.308872	-2.870251	-0.600137	0.038711	0.228684	0.011861	-0.381699	0.053617	-0.766357	0.253662	0.503662	0.096418	-0.003061	-0.028519	0.176402	-0.753606	-0.229833	-0.590031	178.732804	-76.021930	34.911518
02376		9.539767	-0.471371	-2.895586	-0.696220	0.163428	0.142323	0.078958	-0.352110	0.027566	-0.767334	0.248047	0.501709	0.095449	-0.004689	-0.028790	0.176360	-0.754620	-0.230283	-0.588570	178.852755	-75.817347	34.834052
02377		9.616448	-0.392907	-2.829196	-0.551666	0.159374	0.202549	0.203773	-0.344866	0.006886	-0.759766	0.242920	0.508789	0.096213	-0.003897	-0.028130	0.176742	-0.755475	-0.231179	-0.587006	178.994704	-75.616492	34.808753
02378		9.720802	-0.199036	-2.675328	-0.265827	0.109898	0.267399	0.308076	-0.352490	-0.008911	-0.764893	0.253662	0.511475	0.097255	-0.001954	-0.026585	0.177456	-0.756240	-0.232439	-0.585306	179.158939	-75.411264	34.820995
02379		9.636535	-0.062820	-2.406937	0.041469	0.144678	0.118946	0.313815	-0.356720	-0.020085	-0.758545	0.260010	0.514893	0.096408	-0.000600	-0.023898	0.178158	-0.756993	-0.233766	-0.583588	179.300526	-75.203368	34.860963
02380		9.625718	-0.071771	-2.098641	0.312808	0.336044	0.028705	0.219409	-0.377570	-0.042912	-0.761230	0.251465	0.515137	0.096296	-0.000715	-0.020805	0.178405	-0.757862	-0.234915	-0.581921	179.338507	-74.983554	34.951307
02381		9.813643	-0.223955	-2.025007	0.356575	0.553486	0.188551	0.085301	-0.399083	-0.064188	-0.755615	0.252686	0.513428	0.098176	-0.002262	-0.020055	0.178062	-0.758883	-0.235780	-0.580343	179.257095	-74.751100	35.086891
02382		9.736006	-0.398244	-2.215389	0.118012	0.608430	0.160885	0.012583	-0.358115	-0.071091	-0.762207	0.258301	0.525391	0.097398	-0.004016	-0.021980	0.177465	-0.759840	-0.236416	-0.579014	179.121681	-74.542151	35.234350
02383		9.435507	-0.312522	-2.370270	0.001947	0.431381	-0.088569	0.096026	-0.316525	-0.080077	-0.750000	0.258545	0.521240	0.094391	-0.003152	-0.023555	0.177214	-0.760588	-0.237297	-0.577747	179.017959	-74.356720	35.399760
02384		9.231310	-0.059653	-2.324810	0.161805	0.237759	-0.297301	0.228959	-0.375517	-0.076467	-0.753174	0.260254	0.522949	0.092356	-0.000605	-0.023075	0.177402	-0.761391	-0.238592	-0.576095	179.002317	-74.137628	35.551871
02385		9.394750	0.155249	-1.996436	0.615591	0.290972	-0.231072	0.284588	-0.514732	-0.053406	-0.747559	0.255127	0.528809	0.093999	0.001556	-0.019720	0.177707	-0.762567	-0.240090	-0.573819	179.071726	-73.838891	35.650094
02386		9.665679	0.396028	-1.649653	1.134239	0.358669	-0.071636	0.223077	-0.623225	-0.040168	-0.744873	0.259766	0.531494	0.096708	0.003959	-0.016191	0.177677	-0.764118	-0.241447	-0.571190	179.135546	-73.478283	35.716336
02387		9.671073	0.412170	-1.497798	1.314072	0.466811	-0.117435	0.039431	-0.635003	-0.044756	-0.743164	0.262451	0.536377	0.096759	0.004103	-0.014670	0.176922	-0.765851	-0.242311	-0.568732	179.087325	-73.110771	35.790882
02388		9.413408	0.092147	-1.696470	0.959309	0.615413	-0.315346	-0.172094	-0.584685	-0.048251	-0.736816	0.260742	0.547852	0.094183	0.000884	-0.016690	0.175401	-0.767618	-0.242534	-0.566723	178.913328	-72.772128	35.869299
02389		9.235901	-0.204265	-2.129996	0.447090	0.630507	-0.363730	-0.227485	-0.558282	-0.052708	-0.737061	0.254883	0.543701	0.092417	-0.002091	-0.021040	0.173691	-0.769344	-0.242598	-0.564879	178.703843	-72.448392	35.952931
02390		9.428507	-0.321117	-2.625901	0.079790	0.531092	-0.034829	-0.084958	-0.593326	-0.045976	-0.728271	0.259033	0.545410	0.094362	-0.003244	-0.025978	0.172498	-0.771048	-0.243061	-0.562718	178.593705	-72.104695	36.017005
02391		9.778009	-0.206353	-2.983429	0.001852	0.345925	0.406551	0.122676	-0.663047	-0.037239	-0.726807	0.250488	0.553955	0.097878	-0.002064	-0.029511	0.172050	-0.772769	-0.244139	-0.560020	178.623169	-71.721096	36.060723
02392		9.857358	-0.088924	-3.219739	-0.036522	0.175530	0.555993	0.231278	-0.706459	-0.033759	-0.721436	0.252930	0.560303	0.098686	-0.000869	-0.031850	0.171969	-0.774515	-0.245534	-0.557015	178.721903	-71.312766	36.095888
02393		9.626768	0.021522	-3.169570	0.067691	0.108013	0.321641	0.204812	-0.711863	-0.046059	-0.720215	0.253906	0.565918	0.096380	0.000225	-0.031353	0.171748	-0.776272	-0.246910	-0.554021	178.784451	-70.901125	36.154287
02394		9.524362	0.216380	-3.197801	0.190490	-0.044171	0.234577	0.164620	-0.728782	-0.079754	-0.712402	0.263916	0.575684	0.095360	0.002152	-0.031629	0.171249	-0.778059	-0.248311	-0.551035	178.769982	-70.479467	36.269109
02395		9.560179	0.424356	-3.197489	0.379669	-0.161364	0.268502	0.166110	-0.740559	-0.090581	-0.714600	0.262207	0.576416	0.095721	0.004227	-0.031617	0.170714	-0.779850	-0.249771	-0.548001	178.742701	-70.050841	36.399779
02396		9.657954	0.596220	-3.234665	0.536143	-0.255036	0.372677	0.144115	-0.719511	-0.098365	-0.715332	0.257813	0.580811	0.096698	0.005938	-0.031995	0.170091	-0.781584	-0.251173	-0.545076	178.693236	-69.634215	36.539976
02397		9.626952	0.548215	-3.309366	0.498548	-0.215610	0.367450	0.089083	-0.685734	-0.099170	-0.705322	0.262207	0.584961	0.096385	0.005449	-0.032761	0.169296	-0.783258	-0.252404	-0.542344	178.614117	-69.236809	36.679684
02398		9.648141	0.438153	-3.471880	0.370054	-0.162119	0.442502	0.061729	-0.676640	-0.100416	-0.706055	0.256592	0.588623	0.096600	0.004344	-0.034391	0.168395	-0.784922	-0.253547	-0.539679	178.521119	-68.844585	36.816689
02399		9.667848	0.333977	-3.593973	0.277184	-0.091190	0.502829	0.099657	-0.708453	-0.096788	-0.692383	0.254395	0.590820	0.096807	0.003311	-0.035595	0.167615	-0.786633	-0.254810	-0.536829	178.460577	-68.434071	36.943695
02400		9.764869	0.283009	-3.616025	0.318960	0.008676	0.599136	0.171599	-0.754556	-0.103778	-0.693359	0.263184	0.598145	0.097786	0.002810	-0.035789	0.167033	-0.788389	-0.256320	-0.533707	178.436094	-67.997066	37.075481
02401		9.917779	0.307995	-3.613875	0.445345	0.074182	0.737805	0.212321	-0.779633	-0.097349	-0.684082	0.261230	0.606689	0.099319	0.003070	-0.035749	0.166599	-0.790171	-0.257938	-0.530417	178.447915	-67.545741	37.194792
02402		10.058130	0.427609	-3.559005	0.666398	0.089774	0.843888	0.264909	-0.779309	-0.108637	-0.676270	0.270508	0.606934	0.100721	0.004268	-0.035192	0.166335	-0.791883	-0.259728	-0.527063	178.476238	-67.094496	37.328135
02403		10.044620	0.638156	-3.314835	1.035554	0.098095	0.732795	0.303417	-0.766208	-0.116999	-0.676270	0.266846	0.613037	0.100576	0.006373	-0.032754	0.166222	-0.793501	-0.261645	-0.523706	178.517135	-66.650621	37.473464
02404		9.921650	0.810290	-3.172976	1.268561	0.056967	0.557965	0.277260	-0.757028	-0.134947	-0.676025	0.270752	0.609131	0.099341	0.008080	-0.031343	0.165961	-0.795082	-0.263545	-0.520428	178.521376	-66.211800	37.641687
02405		9.808184	0.957694	-3.096982	1.437603	0.003942	0.416765	0.200173	-0.760685	-0.135556	-0.676270	0.260254	0.626709	0.098205	0.009541	-0.030587	0.165391	-0.796719	-0.265255	-0.517227	178.484391	-65.770843	37.808666
02406		9.687076	0.963435	-3.253232	1.346974	-0.060918	0.362408	0.109194	-0.776013	-0.123035	-0.671387	0.259277	0.624512	0.097002	0.009592	-0.032151	0.164461	-0.798478	-0.266678	-0.514070	178.415432	-65.321253	37.952680
02407		9.585717	1.016717	-3.347455	1.337128	-0.124290	0.302706	0.040021	-0.814452	-0.107384	-0.660645	0.268555	0.630859	0.095998	0.010122	-0.033082	0.163246	-0.800399	-0.267896	-0.510828	178.331599	-64.849823	38.070946
02408		9.569547	1.053041	-3.375434	1.395630	-0.114313	0.292618	-0.017305	-0.849528	-0.096543	-0.652832	0.262207	0.634521	0.095843	0.010481	-0.033348	0.161774	-0.802458	-0.268940	-0.507505	178.233070	-64.358413	38.168566
02409		9.546553	1.076853	-3.374056	1.467134	-0.078913	0.263085	-0.091479	-0.872858	-0.069720	-0.646484	0.264160	0.641602	0.095615	0.010720	-0.033328	0.160045	-0.804654	-0.269711	-0.504157	178.128341	-63.854084	38.227482
02410		9.388333	1.014565	-3.188011	1.574287	0.086261	0.028405	-0.207386	-0.890897	-0.033548	-0.643066	0.269531	0.647705	0.094026	0.010097	-0.031472	0.157907	-0.807023	-0.270045	-0.500854	178.002777	-63.340049	38.234530
02411		9.125873	0.855129	-3.116685	1.501555	0.238415	-0.251599	-0.340525	-0.914846	-0.002047	-0.640625	0.269287	0.657715	0.091400	0.008498	-0.030763	0.155280	-0.809579	-0.269940	-0.497597	177.840121	-62.813005	38.199004
02412		8.883711	0.620135	-3.091107	1.356739	0.432468	-0.494349	-0.412644	-0.948384	0.016108	-0.637695	0.258789	0.668213	0.088982	0.006145	-0.030502	0.152352	-0.812281	-0.269593	-0.494276	177.659875	-62.267165	38.135206
02413		8.735596	0.549001	-3.190077	1.254097	0.457235	-0.592811	-0.400857	-0.990450	0.026128	-0.622803	0.260254	0.668213	0.087512	0.005438	-0.031479	0.149441	-0.815065	-0.269267	-0.490745	177.500774	-61.697663	38.056152
02414		8.559598	0.572339	-3.215756	1.251908	0.434480	-0.747445	-0.319739	-1.029617	0.029027	-0.620605	0.256348	0.672607	0.085759	0.005685	-0.031725	0.146805	-0.817869	-0.269141	-0.486931	177.393768	-61.105818	37.968888
02415		8.513455	0.726651	-2.864781	1.648853	0.531770	-0.968954	-0.241021	-1.100992	0.022078	-0.614990	0.252441	0.685791	0.085290	0.007242	-0.028187	0.144380	-0.820750	-0.269289	-0.482708	177.327780	-60.473119	37.887228
02416		8.629643	0.950047	-2.468487	2.185795	0.642700	-1.079127	-0.181885	-1.186211	0.023643	-0.603271	0.251709	0.689209	0.086440	0.009489	-0.024181	0.142075	-0.823773	-0.269616	-0.478038	177.300229	-59.791605	37.798333
02417		8.732047	1.056427	-2.133874	2.611186	0.814020	-1.185050	-0.216742	-1.275624	0.049404	-0.594482	0.246094	0.697510	0.087452	0.010563	-0.020793	0.139567	-0.827032	-0.269816	-0.473011	177.280031	-59.059788	37.678376
02418		8.732215	0.996600	-1.908618	2.826016	1.034062	-1.337380	-0.310091	-1.336741	0.096744	-0.585938	0.243896	0.701904	0.087442	0.009979	-0.018517	0.136691	-0.830531	-0.269620	-0.467802	177.251134	-58.294161	37.503722
02419		8.750642	1.023337	-1.949866	2.914248	1.058986	-1.338760	-0.357564	-1.383354	0.140435	-0.572754	0.237793	0.716797	0.087631	0.010261	-0.018911	0.133656	-0.834186	-0.269159	-0.462411	177.232895	-57.503308	37.284141
02420		8.809192	1.146353	-2.063715	3.031345	0.983790	-1.267711	-0.281387	-1.466228	0.180712	-0.564941	0.240723	0.730469	0.088230	0.011515	-0.020007	0.130907	-0.837993	-0.268738	-0.456519	177.291299	-56.665877	37.022012
02421		8.858270	1.378057	-2.101278	3.271418	0.853185	-1.248136	-0.161201	-1.593694	0.221851	-0.552490	0.239258	0.735840	0.088731	0.013862	-0.020317	0.128581	-0.842014	-0.268494	-0.449878	177.449092	-55.756570	36.721519
02422		8.923161	1.541064	-2.104025	3.516409	0.801795	-1.244458	-0.132857	-1.723299	0.268078	-0.538818	0.242920	0.750000	0.089388	0.015517	-0.020281	0.126291	-0.846313	-0.268175	-0.442591	177.653108	-54.773412	36.380127
02423		9.129144	1.446631	-2.153375	3.662057	0.992605	-1.113684	-0.219397	-1.852936	0.322140	-0.522461	0.246582	0.760010	0.091462	0.014591	-0.020703	0.123575	-0.850952	-0.267504	-0.434801	177.839384	-53.716935	35.996291
02424		9.385216	1.125924	-2.546388	3.490141	1.241744	-0.751333	-0.346266	-1.953563	0.392263	-0.507813	0.241455	0.760986	0.094073	0.011401	-0.024565	0.120319	-0.855903	-0.266287	-0.426667	177.993157	-52.603298	35.555733
02425		9.620844	0.736442	-3.082929	3.197505	1.490132	-0.317452	-0.369340	-2.015630	0.442663	-0.491699	0.232422	0.770264	0.096496	0.007522	-0.029872	0.116983	-0.860972	-0.264824	-0.418223	178.154015	-51.454792	35.084043
02426		9.846621	0.346811	-3.598810	2.940575	1.755920	0.101615	-0.237501	-2.080259	0.476086	-0.477783	0.246094	0.794189	0.098825	0.003661	-0.034966	0.114180	-0.866050	-0.263491	-0.409258	178.395227	-50.268409	34.597080
02427		10.147052	-0.030432	-3.977167	2.849943	2.104009	0.493987	0.022333	-2.173158	0.484160	-0.455322	0.235352	0.795410	0.101895	-0.000054	-0.038666	0.112387	-0.871072	-0.262685	-0.399498	178.768741	-49.027800	34.124466
02428		10.517141	-0.463832	-4.347116	2.805223	2.533507	0.931104	0.251093	-2.260000	0.486315	-0.432373	0.239502	0.811035	0.105664	-0.004328	-0.042285	0.111461	-0.876034	-0.262332	-0.389003	179.249631	-47.734708	33.673115
02429		10.992109	-0.997141	-4.656999	2.833583	3.115742	1.401800	0.352356	-2.301962	0.481711	-0.412109	0.237061	0.818604	0.110471	-0.009625	-0.045318	0.110903	-0.880889	-0.262190	-0.378143	179.758661	-46.415572	33.254002
02430		11.297690	-1.548702	-5.167613	2.658651	3.577834	1.886205	0.350366	-2.292507	0.475075	-0.395996	0.250244	0.822998	0.113596	-0.015129	-0.050403	0.110317	-0.885597	-0.262024	-0.367274	-179.762757	-45.098876	32.865617
02431		11.390818	-2.071834	-5.742113	2.354058	3.915985	2.275799	0.359257	-2.221857	0.467327	-0.379395	0.250977	0.834961	0.114585	-0.020349	-0.056187	0.109837	-0.890037	-0.261841	-0.356665	-179.306079	-43.821182	32.507696
02432		11.339789	-2.493041	-6.355402	2.004801	4.095955	2.612871	0.464844	-2.108921	0.454702	-0.359619	0.258789	0.831543	0.114116	-0.024526	-0.062411	0.109934	-0.894090	-0.261800	-0.346378	-178.815265	-42.605579	32.179268
02433		11.182524	-2.661502	-6.986135	1.724390	4.001032	2.913290	0.683491	-1.986479	0.480440	-0.336182	0.265381	0.842041	0.112575	-0.026109	-0.068835	0.111206	-0.897734	-0.261932	-0.336301	-178.203862	-41.458285	31.851558
02434		11.010943	-2.576357	-7.259621	1.775695	3.796338	2.954825	0.993364	-1.881079	0.489739	-0.317139	0.272461	0.844238	0.110849	-0.025135	-0.071682	0.114003	-0.900939	-0.262446	-0.326242	-177.428899	-40.367459	31.536697
02435		10.581692	-2.132819	-7.373390	1.939834	3.218281	2.707778	1.369686	-1.776971	0.473134	-0.309570	0.281006	0.846191	0.106517	-0.020575	-0.072932	0.118596	-0.903621	-0.263563	-0.316130	-176.464920	-39.333910	31.257406
02436		9.976361	-1.462443	-7.231543	2.234033	2.448399	2.144355	1.707797	-1.642217	0.461360	-0.286865	0.294434	0.845703	0.100386	-0.013780	-0.071613	0.124854	-0.905753	-0.265145	-0.306141	-175.329853	-38.373407	31.007192
02437		9.421630	-0.695803	-7.215618	2.538145	1.550631	1.696642	1.910116	-1.494992	0.456972	-0.276123	0.309570	0.842285	0.094767	-0.006057	-0.071510	0.132200	-0.907387	-0.266929	-0.296515	-174.095702	-37.494366	30.779504
02438		8.874106	-0.025644	-7.271125	2.742077	0.700381	1.305131	1.818824	-1.291734	0.441607	-0.254883	0.329590	0.833984	0.089208	0.000598	-0.072133	0.139360	-0.908636	-0.268471	-0.287893	-172.928287	-36.727390	30.571152
02439		8.296030	0.337593	-6.538917	3.063221	0.417691	0.293516	1.401878	-1.002781	0.449044	-0.251709	0.339844	0.842285	0.083278	0.004019	-0.064945	0.145012	-0.909671	-0.269155	-0.281114	-171.994243	-36.121846	30.350534
02440		7.858939	0.583676	-5.549350	3.453198	0.417899	-0.823872	0.802591	-0.682646	0.397343	-0.245361	0.339844	0.836182	0.078766	0.006215	-0.055200	0.148286	-0.910575	-0.268979	-0.276614	-171.413784	-35.698991	30.144180
02441		7.912883	0.571094	-4.718913	3.903682	0.784534	-1.484807	0.178127	-0.379347	0.280440	-0.230713	0.342773	0.834229	0.079210	0.005864	-0.047034	0.148956	-0.911344	-0.268245	-0.274426	-171.224177	-35.457977	29.991947
02442		7.992729	0.178145	-4.099358	4.019542	1.394088	-1.899408	-0.411100	-0.064180	0.228743	-0.232910	0.342041	0.834717	0.079938	0.001789	-0.040972	0.147296	-0.912047	-0.266698	-0.274491	-171.373171	-35.398840	29.841908
02443		7.984627	-0.373978	-3.886787	3.781263	1.929651	-2.003738	-0.859236	0.275245	0.246104	-0.234375	0.334229	0.839111	0.079797	-0.003809	-0.038961	0.144065	-0.912625	-0.264204	-0.276689	-171.751699	-35.531560	29.644457
02444		7.724930	-0.896809	-4.053233	3.197899	2.180822	-1.943461	-1.045837	0.655833	0.274782	-0.240479	0.314453	0.835205	0.077128	-0.009075	-0.040738	0.140522	-0.912821	-0.261039	-0.280837	-172.202830	-35.878692	29.389978
02445		7.289914	-1.383437	-4.390259	2.413375	2.255432	-1.849069	-0.951894	1.087730	0.295191	-0.242188	0.314697	0.837158	0.072680	-0.013937	-0.044232	0.137992	-0.912326	-0.257595	-0.286816	-172.567584	-36.472135	29.082155
02446		6.645042	-1.555835	-4.990952	1.508265	1.865891	-1.705331	-0.657648	1.548796	0.305283	-0.253662	0.309814	0.840332	0.066085	-0.015622	-0.050371	0.137405	-0.910925	-0.254195	-0.294484	-172.730571	-37.326857	28.725327
02447		5.928339	-1.593921	-5.783729	0.502128	1.234607	-1.484496	-0.253426	2.010974	0.273467	-0.274170	0.296143	0.829102	0.058720	-0.015932	-0.058409	0.139190	-0.908442	-0.251191	-0.303748	-172.642384	-38.447747	28.344317
02448		5.464008	-1.537179	-6.475641	-0.265790	0.626084	-1.228624	0.150607	2.398240	0.175029	-0.287109	0.305664	0.814697	0.053872	-0.015275	-0.065417	0.143128	-0.904855	-0.248950	-0.314285	-172.330876	-39.793936	27.986731
02449		5.440396	-1.320695	-6.955301	-0.573074	0.093780	-0.903352	0.529440	2.660011	0.020818	-0.299316	0.300049	0.811035	0.053474	-0.013016	-0.070303	0.148841	-0.900244	-0.247770	-0.325604	-171.839670	-41.300075	27.696598
02450		5.682914	-0.938897	-7.091306	-0.461508	-0.367278	-0.696222	0.740287	2.813452	-0.157101	-0.330566	0.310303	0.803711	0.055817	-0.009169	-0.071737	0.155373	-0.894830	-0.247575	-0.337411	-171.284163	-42.904853	27.500109
02451		6.067683	-0.550427	-6.893290	-0.097825	-0.647753	-0.636539	0.697343	2.945809	-0.294675	-0.351318	0.310547	0.781006	0.059645	-0.005350	-0.069835	0.161608	-0.888857	-0.247754	-0.349906	-170.794652	-44.596553	27.368042
02452		6.264499	-0.255159	-6.537795	0.160919	-0.830253	-0.794374	0.393443	3.096202	-0.357951	-0.372070	0.305664	0.775879	0.061618	-0.002533	-0.066342	0.166532	-0.882577	-0.247514	-0.363402	-170.483761	-46.377341	27.247635
02453		6.319104	-0.211710	-6.262082	0.128588	-0.868421	-0.957649	-0.045851	3.280888	-0.359037	-0.396240	0.302246	0.754883	0.062149	-0.002244	-0.063646	0.169697	-0.876098	-0.246250	-0.378175	-170.393779	-48.263396	27.087329
02454		6.497960	-0.242706	-6.233685	-0.040214	-0.911583	-0.851658	-0.474685	3.512781	-0.367158	-0.417480	0.297852	0.748047	0.063867	-0.002695	-0.063459	0.171207	-0.869276	-0.243955	-0.394377	-170.521682	-50.280162	26.896644
02455		6.783421	-0.112341	-6.207624	-0.099492	-1.053215	-0.678553	-0.782075	3.763536	-0.409619	-0.455078	0.283203	0.731689	0.066647	-0.001507	-0.063332	0.171538	-0.861872	-0.240923	-0.411955	-170.825112	-52.444184	26.708749
02456		6.949545	-0.036130	-6.188106	-0.297174	-1.188184	-0.588912	-0.934129	3.964809	-0.468490	-0.472168	0.278809	0.716797	0.068249	-0.000815	-0.063239	0.171274	-0.853772	-0.237580	-0.430459	-171.242664	-54.726970	26.561947
02457		6.992930	0.084439	-6.283147	-0.636055	-1.452104	-0.546639	-0.939675	4.124555	-0.518020	-0.496826	0.267822	0.690918	0.068615	0.000366	-0.064258	0.170985	-0.844902	-0.234179	-0.449517	-171.700164	-57.106133	26.461230
02458		7.236196	0.209199	-6.479668	-0.968147	-1.728150	-0.301978	-0.844526	4.245036	-0.598693	-0.531738	0.250488	0.687256	0.070970	0.001600	-0.066320	0.170987	-0.835192	-0.231137	-0.468822	-172.185235	-59.559443	26.462045
02459		8.007758	0.222145	-6.690032	-1.169875	-1.814791	0.397627	-0.711877	4.282233	-0.647729	-0.561035	0.246094	0.662842	0.078627	0.001723	-0.068601	0.171377	-0.824826	-0.228450	-0.487958	-172.677018	-62.038494	26.554700
02460		8.858732	0.059911	-6.911545	-1.500965	-1.771452	1.180000	-0.661329	4.269918	-0.635037	-0.590576	0.234863	0.632080	0.087086	0.000088	-0.070986	0.171922	-0.814066	-0.225754	-0.506730	-173.178606	-64.508150	26.691473
02461		9.542455	-0.495711	-7.150964	-2.185841	-1.462932	1.827737	-0.761225	4.305940	-0.600806	-0.609131	0.224609	0.608154	0.093840	-0.005518	-0.073521	0.172092	-0.802948	-0.222508	-0.525499	-173.755547	-66.996347	26.842495
02462		9.944241	-1.247841	-7.312234	-3.071401	-1.009653	2.163746	-0.936899	4.438153	-0.599067	-0.645264	0.221191	0.589355	0.097750	-0.013122	-0.075244	0.171634	-0.791231	-0.218587	-0.544716	-174.500926	-69.557948	27.066403
02463		9.855490	-1.925010	-7.303295	-3.964868	-0.609409	1.937044	-0.979283	4.557272	-0.598225	-0.665527	0.197754	0.559814	0.096800	-0.019906	-0.075156	0.171036	-0.778802	-0.214310	-0.564168	-175.388806	-72.186951	27.408993
02464		8.962423	-2.298680	-6.899707	-4.564072	-0.370123	0.780905	-0.676320	4.578025	-0.631524	-0.678711	0.192139	0.533203	0.087941	-0.023504	-0.070944	0.171465	-0.765593	-0.210900	-0.583085	-176.363785	-74.826140	28.021000
02465		8.168122	-2.214518	-6.597812	-4.883153	-0.548528	-0.273921	0.020046	4.444573	-0.745584	-0.705566	0.186035	0.504150	0.080105	-0.022439	-0.067772	0.173980	-0.751654	-0.209940	-0.600560	-177.536903	-77.389614	29.237450
02466		8.118372	-1.734974	-6.201378	-4.685004	-0.938412	-0.618732	0.801036	4.151153	-0.880748	-0.727783	0.182861	0.475342	0.079796	-0.017450	-0.063749	0.178647	-0.737409	-0.212006	-0.615927	-179.253723	-79.778534	31.456286
02467		8.825386	-0.947136	-5.759851	-4.128465	-1.501139	-0.187293	1.368931	3.807718	-1.007457	-0.743408	0.179932	0.437256	0.087087	-0.009510	-0.059329	0.184557	-0.723250	-0.216482	-0.629272	177.752585	-81.951081	35.278796
02468		9.932566	-0.001338	-5.385105	-3.501232	-2.193656	0.702578	1.515655	3.577671	-1.087173	-0.758789	0.179932	0.420410	0.098341	-0.000133	-0.055617	0.190436	-0.709288	-0.221847	-0.641427	172.135781	-83.937974	41.812072
02469		10.375314	0.684897	-4.656146	-2.815148	-2.502870	0.938738	1.206153	3.577065	-1.101378	-0.779053	0.161621	0.385498	0.102935	0.006569	-0.048367	0.195079	-0.695328	-0.226167	-0.653691	160.595555	-85.788632	54.087568
02470		10.061977	0.844685	-3.985756	-2.531511	-2.428580	0.459775	0.657923	3.660535	-1.081095	-0.793457	0.163574	0.360107	0.099912	0.008041	-0.041664	0.197920	-0.681387	-0.228474	-0.666588	133.396103	-87.248933	81.710471
02471		9.639910	0.639947	-3.766674	-2.815645	-2.290886	-0.099961	0.180275	3.603021	-1.080324	-0.805664	0.154297	0.337891	0.095733	0.005916	-0.039390	0.198979	-0.667865	-0.229143	-0.679601	86.367553	-87.377153	128.885016
02472		9.310059	0.316347	-4.043654	-3.541416	-2.313693	-0.581056	0.046114	3.389611	-1.077265	-0.823730	0.146729	0.302979	0.092413	0.002674	-0.042006	0.199308	-0.654980	-0.229499	-0.691815	56.999371	-86.140108	158.322609
02473		9.136654	0.126575	-4.473055	-4.277368	-2.512222	-0.930864	0.270701	3.082395	-1.067121	-0.819092	0.138184	0.284912	0.090668	0.000843	-0.046130	0.199978	-0.642757	-0.230823	-0.702562	45.038627	-84.545418	170.473775
02474		8.934832	0.387020	-4.503431	-4.375129	-2.836948	-1.264847	0.641219	2.709745	-1.048604	-0.830811	0.130371	0.250732	0.088747	0.003551	-0.046228	0.201444	-0.631334	-0.233720	-0.711487	39.889713	-82.994157	176.021891
02475		8.618959	1.049302	-4.029658	-3.764880	-3.175897	-1.605299	0.778808	2.281359	-0.978804	-0.838135	0.132813	0.245850	0.085773	0.010232	-0.041236	0.203034	-0.621258	-0.237260	-0.718696	37.543989	-81.624382	178.835880
02476		8.530140	1.571910	-3.449117	-3.139324	-3.309336	-1.668903	0.552319	1.856237	-0.856171	-0.849854	0.114746	0.224854	0.085043	0.015451	-0.035238	0.203847	-0.612995	-0.240016	-0.724622	36.310695	-80.481146	-179.595783
02477		8.541532	1.786009	-3.106874	-2.880131	-3.314631	-1.656918	0.157948	1.542329	-0.718891	-0.846191	0.111328	0.213623	0.085236	0.017578	-0.031713	0.203534	-0.606383	-0.241208	-0.729858	35.376879	-79.525095	-178.558852
02478		8.534934	1.494213	-3.037938	-3.118884	-3.068254	-1.740279	-0.178212	1.319390	-0.557798	-0.851074	0.108887	0.199707	0.085188	0.014677	-0.030955	0.202527	-0.601080	-0.240909	-0.734608	34.403001	-78.724079	-177.671598
02479		8.457810	0.882739	-3.132083	-3.642594	-2.657239	-1.951818	-0.392279	1.109654	-0.374260	-0.852051	0.102783	0.197998	0.084419	0.008607	-0.031807	0.201270	-0.596962	-0.239463	-0.738772	33.334223	-78.078349	-176.813039
02480		8.089741	0.138873	-3.333564	-4.240337	-2.193127	-2.478860	-0.484099	0.860512	-0.189077	-0.851563	0.104736	0.180908	0.080754	0.001231	-0.033686	0.200137	-0.594055	-0.237380	-0.742088	32.252521	-77.607196	-175.990700
02481		7.538991	-0.456569	-3.589032	-4.721361	-1.866755	-3.168159	-0.420415	0.577090	-0.047354	-0.853516	0.104004	0.180176	0.075285	-0.004659	-0.036098	0.199360	-0.592298	-0.235380	-0.744335	31.345515	-77.313773	-175.311257
02482		6.989576	-0.847041	-3.935029	-5.123110	-1.751499	-3.834219	-0.172214	0.234180	0.077102	-0.858643	0.097656	0.180420	0.069853	-0.008477	-0.039425	0.199396	-0.591707	-0.234286	-0.745140	30.784546	-77.223713	-174.837747
02483		6.518793	-1.036422	-4.193303	-5.329079	-1.748036	-4.363113	0.160503	-0.160278	0.189814	-0.853027	0.099609	0.177490	0.065231	-0.010269	-0.041889	0.200353	-0.592391	-0.234480	-0.744279	30.683519	-77.360301	-174.642910
02484		6.095995	-1.118803	-4.479850	-5.483480	-1.852717	-4.814629	0.435772	-0.530876	0.284034	-0.859131	0.102295	0.186523	0.061094	-0.011004	-0.044661	0.202060	-0.594277	-0.235800	-0.741892	31.018649	-77.706973	-174.730862
02485		5.894911	-1.070771	-4.733591	-5.566818	-2.051513	-5.005951	0.628233	-0.850937	0.349355	-0.852783	0.106934	0.192871	0.059168	-0.010456	-0.047118	0.204179	-0.597228	-0.237946	-0.738249	31.783590	-78.229585	-175.148171
02486		5.988545	-0.941578	-4.406815	-5.191024	-1.975814	-4.781001	0.779232	-1.125648	0.404435	-0.835205	0.112793	0.200928	0.060151	-0.009123	-0.043766	0.206637	-0.601072	-0.240767	-0.733515	32.983638	-78.900367	-175.917431
02487		7.723694	-0.787481	-1.168298	-2.814640	-0.171069	-2.485472	1.056768	-1.311569	0.473666	-0.844971	0.119629	0.213867	0.077330	-0.007632	-0.011217	0.209923	-0.605365	-0.244561	-0.727774	34.624877	-79.677995	-176.975044
02488		12.231215	0.777098	2.488604	0.303250	0.844238	2.660938	1.636326	-1.560893	0.448071	-0.839844	0.126709	0.225830	0.122095	0.007836	0.025903	0.214567	-0.609853	-0.250791	-0.720516	37.404991	-80.554277	-178.845727
02489		20.425855	4.683027	6.115658	4.410229	0.209471	11.565773	1.877124	-1.560309	0.545768	-0.841064	0.135742	0.227539	0.203643	0.046800	0.063186	0.220243	-0.614125	-0.257539	-0.712753	40.517196	-81.448085	179.088630
02490		21.863852	2.634039	8.221513	4.808790	3.212045	12.971312	-0.506210	-0.672624	0.941054	-0.829346	0.143066	0.235352	0.218233	0.027577	0.082881	0.221154	-0.618297	-0.253591	-0.710275	39.089350	-82.090987	-179.762175
02491		12.525255	-3.480517	3.476663	-1.179523	4.813758	2.697947	-2.170271	0.493816	1.019803	-0.825195	0.141846	0.240234	0.125513	-0.033788	0.034827	0.218641	-0.620215	-0.242166	-0.713362	33.235921	-82.209409	-175.111592
02492		4.524758	-3.997470	-0.693507	-3.608384	2.648700	-5.701973	-0.544146	1.265985	0.462509	-0.835205	0.139893	0.219238	0.045295	-0.039889	-0.007113	0.220113	-0.616856	-0.237410	-0.717409	28.687388	-81.725488	-170.833367
02493		2.649796	-1.142413	-1.518357	-2.264585	-0.112399	-7.469463	1.992896	0.836386	-0.040978	-0.830322	0.156982	0.213623	0.026432	-0.011277	-0.015407	0.227056	-0.611604	-0.243748	-0.717616	28.451731	-81.295808	-169.443854
02494		5.380900	2.404700	-0.253554	0.539696	-2.146192	-4.344346	3.275515	-0.331152	-0.275114	-0.834717	0.150391	0.210205	0.053846	0.024009	-0.002053	0.235634	-0.608673	-0.256695	-0.712812	31.866277	-81.382793	-170.999834
02495		10.794159	5.455541	2.045433	3.557623	-2.918736	1.557298	2.608402	-1.521949	-0.210675	-0.829346	0.156982	0.225342	0.107835	0.054162	0.021983	0.240805	-0.610710	-0.268394	-0.704990	37.468301	-82.033895	-175.153754
02496		15.871912	6.724239	2.037653	3.924976	-3.652901	6.695588	0.655554	-2.166835	-0.038730	-0.828369	0.158203	0.240723	0.158497	0.067141	0.022315	0.239729	-0.617485	-0.273425	-0.697482	44.159422	-82.962018	178.476105
02497		14.455099	4.095305	-0.033503	1.049888	-2.918010	4.887686	-0.799721	-1.825884	0.157733	-0.819824	0.160889	0.245850	0.144515	0.041069	0.000820	0.235264	-0.625022	-0.272322	-0.692704	49.768403	-83.744450	172.364846
02498		11.429746	0.594834	-1.279190	-1.730050	-1.107951	1.519014	-1.539410	-1.068982	0.446438	-0.827148	0.154297	0.274170	0.114350	0.006108	-0.012227	0.230516	-0.631131	-0.266851	-0.690889	51.918495	-84.330776	169.315851
02499		10.933718	-1.684646	-2.696159	-4.140896	-0.294116	0.790100	-1.576164	-0.603030	0.685681	-0.812256	0.156982	0.274414	0.109475	-0.016681	-0.026500	0.227060	-0.635944	-0.259926	-0.690259	51.341224	-84.854253	168.985562
02500		11.201593	-2.231915	-4.178152	-5.550311	-0.815234	0.978167	-0.473359	-0.568641	0.781088	-0.808838	0.165039	0.277344	0.112220	-0.021979	-0.041410	0.227491	-0.639467	-0.256461	-0.688155	50.781035	-85.408139	169.275147
02501		10.165798	-1.543236	-4.563683	-5.218551	-1.633263	0.018384	1.033684	-0.653766	0.659406	-0.804199	0.177490	0.280518	0.101856	-0.014862	-0.045382	0.232185	-0.641397	-0.258645	-0.683961	52.188736	-85.938139	168.454267
02502		8.605459	-0.741103	-4.007779	-4.057921	-1.954385	-1.423546	1.757351	-0.736232	0.521444	-0.809570	0.188232	0.279297	0.086220	-0.006836	-0.039822	0.238623	-0.642535	-0.263836	-0.678674	55.722765	-86.428886	165.921111
02503		7.890542	-0.026018	-3.175593	-2.807938	-1.982630	-2.032636	1.734896	-0.886609	0.471147	-0.795166	0.189941	0.289307	0.079045	0.000199	-0.031405	0.244580	-0.644089	-0.269253	-0.672929	61.861537	-86.924215	160.764846
02504		8.568921	0.637797	-2.355909	-1.671563	-1.904239	-1.270918	1.426782	-1.130695	0.469074	-0.803955	0.198242	0.289063	0.085805	0.006745	-0.023027	0.249202	-0.646768	-0.273926	-0.666749	72.770666	-87.424023	150.660654
02505		10.148036	1.311388	-1.576698	-0.570972	-1.786596	0.369086	0.901517	-1.243671	0.461755	-0.799805	0.206299	0.303223	0.101545	0.013417	-0.015076	0.251909	-0.650429	-0.276977	-0.660884	89.328180	-87.799035	134.602759
02506		11.592750	1.690441	-1.102156	0.126332	-1.641220	1.838631	0.191972	-1.001742	0.425430	-0.797363	0.204346	0.306396	0.115944	0.017161	-0.010424	0.252530	-0.654093	-0.277497	-0.656800	105.827875	-87.964993	118.201591
02507		11.779427	1.184674	-1.223124	-0.220864	-1.327234	2.012865	-0.493009	-0.514894	0.382310	-0.794189	0.212158	0.309814	0.117802	0.012042	-0.011957	0.251419	-0.656959	-0.275275	-0.655299	115.848336	-88.062280	107.889212
02508		10.839229	0.048168	-1.678648	-1.277055	-0.848972	1.048131	-0.796854	-0.170343	0.355590	-0.792725	0.220703	0.317871	0.108406	0.000608	-0.016696	0.249713	-0.659018	-0.271719	-0.655369	121.054223	-88.192444	102.223313
02509		9.731813	-1.015231	-2.171746	-2.328094	-0.448403	-0.074402	-0.645068	-0.153608	0.328468	-0.784180	0.218994	0.301758	0.097351	-0.010062	-0.021610	0.248418	-0.660795	-0.268713	-0.655311	126.571494	-88.296458	96.330684
02510		8.752412	-1.515569	-2.395963	-2.797387	-0.257826	-1.051961	-0.161365	-0.340484	0.256254	-0.779053	0.220703	0.324951	0.087584	-0.015063	-0.023798	0.248249	-0.662470	-0.267771	-0.654068	134.687039	-88.277775	88.118597
02511		8.573196	-0.928962	-2.079427	-2.125826	-0.467483	-1.213339	0.397793	-0.517741	0.162715	-0.783936	0.219238	0.308105	0.085793	-0.009179	-0.020591	0.249370	-0.663909	-0.269176	-0.651601	143.373519	-88.110432	79.653075
02512		9.065956	0.437486	-1.121420	-0.439809	-0.777409	-0.710906	0.556449	-0.611520	0.141994	-0.785889	0.229004	0.314941	0.090690	0.004470	-0.010925	0.250838	-0.665409	-0.271289	-0.648624	151.046634	-87.856057	72.293824
02513		9.414819	1.875868	-0.137209	1.324098	-1.109872	-0.368581	0.101172	-0.609391	0.230931	-0.787842	0.230713	0.322510	0.094130	0.018868	-0.001076	0.251063	-0.667594	-0.271614	-0.646151	157.911703	-87.593215	65.478908
02514		9.589030	2.612090	0.542457	2.383512	-1.159606	-0.218904	-0.712322	-0.606992	0.364645	-0.779297	0.234131	0.337402	0.095826	0.026315	0.005622	0.249019	-0.670952	-0.268866	-0.644612	164.489477	-87.327397	58.485738
02515		9.879242	2.388398	0.454441	2.231523	-1.055198	0.057312	-1.421258	-0.652869	0.499814	-0.779541	0.223389	0.340576	0.098717	0.024164	0.004696	0.244943	-0.675500	-0.263415	-0.643673	170.944837	-87.017882	51.204594
02516		10.210645	1.460300	-0.320465	1.109555	-0.890093	0.408304	-1.688142	-0.649308	0.597053	-0.772217	0.226563	0.345215	0.102072	0.014882	-0.002998	0.240280	-0.680429	-0.256760	-0.642928	176.861507	-86.680384	44.309885
02517		10.320711	0.089072	-1.236086	-0.406670	-0.461814	0.563913	-1.629617	-0.536891	0.652657	-0.770264	0.220947	0.335693	0.103236	0.001128	-0.012092	0.236101	-0.684947	-0.249938	-0.642367	-177.890072	-86.371601	38.113736
02518		10.211028	-1.141066	-1.695058	-1.484670	0.178576	0.492835	-1.469556	-0.369765	0.672424	-0.771973	0.229736	0.360596	0.102179	-0.011190	-0.016679	0.232741	-0.688702	-0.243355	-0.642106	-173.146864	-86.126917	32.516141
02519		9.943988	-2.047731	-1.895147	-2.159352	0.745609	0.259480	-1.234495	-0.276102	0.653005	-0.770264	0.226074	0.370361	0.099532	-0.020268	-0.018689	0.230215	-0.691826	-0.237462	-0.641864	-168.929237	-85.908409	27.577063
02520		9.705966	-2.673064	-2.139098	-2.687404	1.077621	0.063698	-0.941457	-0.285279	0.590260	-0.770264	0.231934	0.367188	0.097168	-0.026544	-0.021127	0.228494	-0.694531	-0.232735	-0.641289	-165.505585	-85.671210	23.602856
02521		9.299133	-3.060269	-2.394969	-3.090830	1.217472	-0.297479	-0.593637	-0.335091	0.520277	-0.765869	0.234619	0.374268	0.093110	-0.030431	-0.023703	0.227677	-0.696908	-0.229407	-0.640199	-162.874973	-85.401634	20.620473
02522		9.139783	-3.013114	-2.407618	-3.025743	1.169969	-0.437886	-0.148764	-0.397986	0.404842	-0.770508	0.230225	0.377441	0.091506	-0.029964	-0.023872	0.227981	-0.698829	-0.227984	-0.638504	-161.176141	-85.110476	18.829847
02523		9.268500	-2.466165	-2.254790	-2.509762	0.831175	-0.321577	0.350106	-0.455665	0.270503	-0.770752	0.232422	0.375977	0.092769	-0.024497	-0.022380	0.229515	-0.700215	-0.228676	-0.636184	-160.324218	-84.809443	18.173315
02524		9.697134	-1.591097	-2.102790	-1.770898	0.242580	0.076328	0.705259	-0.467037	0.135539	-0.769531	0.250977	0.375488	0.097031	-0.015771	-0.020857	0.231864	-0.701055	-0.230990	-0.633565	-160.131759	-84.528784	18.385427
02525		10.041993	-0.666803	-1.785416	-0.878236	-0.272073	0.367121	0.789874	-0.414973	0.025964	-0.768311	0.255371	0.373291	0.100458	-0.006585	-0.017672	0.234203	-0.701502	-0.233883	-0.631143	-160.385141	-84.296492	19.092350
02526		10.127615	0.132281	-1.591090	-0.187993	-0.757527	0.410246	0.620160	-0.300966	-0.078020	-0.765381	0.249268	0.381348	0.101300	0.001332	-0.015754	0.235763	-0.701646	-0.236476	-0.629434	-161.032270	-84.145904	20.099491
02527		10.157936	0.598940	-1.372791	0.295138	-0.961147	0.405727	0.245704	-0.195548	-0.138212	-0.769287	0.256104	0.379883	0.101597	0.005936	-0.013621	0.235930	-0.701832	-0.237968	-0.628601	-161.988257	-84.061210	21.199929
02528		10.043118	0.510535	-1.306484	0.285220	-0.833331	0.289586	-0.217538	-0.146728	-0.124866	-0.767334	0.254150	0.385986	0.100444	0.005028	-0.012997	0.234584	-0.702417	-0.237908	-0.628475	-163.028226	-83.999869	22.119813
02529		10.135085	0.185201	-1.243928	0.139625	-0.517519	0.386050	-0.572034	-0.138369	-0.059354	-0.764648	0.245117	0.383301	0.101360	0.001786	-0.012374	0.232194	-0.703473	-0.236484	-0.628718	-163.901800	-83.929908	22.666522
02530		10.056156	-0.083616	-1.243816	-0.030964	-0.294836	0.316105	-0.723277	-0.128382	0.036429	-0.771729	0.245850	0.382568	0.100570	-0.000863	-0.012371	0.229595	-0.704771	-0.234241	-0.629059	-164.336624	-83.850726	22.686620
02531		10.022272	-0.294948	-1.428746	-0.297772	-0.233942	0.308124	-0.730042	-0.139047	0.134723	-0.767822	0.250244	0.383301	0.100235	-0.002934	-0.014207	0.227254	-0.706223	-0.231632	-0.629246	-164.292239	-83.749480	22.219100
02532		9.763271	-0.538007	-1.508464	-0.515865	-0.096329	0.067137	-0.730107	-0.160412	0.245864	-0.764893	0.247314	0.388184	0.097651	-0.005315	-0.014987	0.225245	-0.707853	-0.228659	-0.629225	-163.734981	-83.619607	21.237131
02533		9.590761	-0.734507	-1.579691	-0.683105	0.010563	-0.088963	-0.694703	-0.164981	0.295914	-0.772461	0.241455	0.381104	0.095931	-0.007258	-0.015692	0.223502	-0.709511	-0.225616	-0.629077	-162.958452	-83.476831	20.053345
02534		9.631887	-0.831321	-1.455455	-0.609198	0.163800	-0.056425	-0.609311	-0.193402	0.286618	-0.760498	0.248779	0.396973	0.096345	-0.008219	-0.014436	0.222006	-0.711135	-0.222910	-0.628738	-162.258766	-83.319329	18.997114
02535		9.607655	-1.004148	-1.277948	-0.541429	0.408871	-0.092189	-0.546615	-0.231199	0.256125	-0.768799	0.244873	0.397949	0.096104	-0.009953	-0.012641	0.220584	-0.712774	-0.220542	-0.628218	-161.762651	-83.144437	18.180396
02536		9.455392	-1.162374	-0.960745	-0.366958	0.722753	-0.272170	-0.472890	-0.232792	0.191253	-0.766357	0.248047	0.396484	0.094576	-0.011556	-0.009470	0.219226	-0.714251	-0.218642	-0.627679	-161.542373	-82.980714	17.685115
02537		9.401258	-1.134639	-0.784681	-0.188672	0.809688	-0.347195	-0.311780	-0.217854	0.092181	-0.768311	0.250732	0.404053	0.094026	-0.011315	-0.007727	0.218138	-0.715399	-0.217579	-0.627120	-161.656026	-82.842040	17.617897
02538		9.517236	-0.935160	-0.624141	0.091700	0.758037	-0.259741	-0.105685	-0.227403	0.007799	-0.770020	0.257080	0.406250	0.095180	-0.009351	-0.006128	0.217521	-0.716251	-0.217479	-0.626396	-162.021301	-82.714209	17.924620
02539		9.546620	-0.653336	-0.439336	0.425555	0.653741	-0.265473	0.024130	-0.230842	-0.040633	-0.771973	0.240479	0.406494	0.095470	-0.006552	-0.004284	0.217206	-0.716926	-0.217958	-0.625565	-162.511468	-82.591748	18.431315
02540		9.437921	-0.271114	-0.230012	0.816662	0.478213	-0.415607	0.050299	-0.190279	-0.075449	-0.770264	0.248779	0.412842	0.094380	-0.002746	-0.002211	0.216927	-0.717400	-0.218604	-0.624893	-163.061613	-82.497729	19.014780
02541		9.470030	0.102035	-0.261887	1.022655	0.176366	-0.395496	0.010931	-0.179670	-0.109465	-0.777832	0.241211	0.406738	0.094703	0.000969	-0.002534	0.216403	-0.717853	-0.219230	-0.624335	-163.750144	-82.413361	19.713798
02542		9.447034	0.202915	-0.361529	1.009099	0.054065	-0.410715	-0.096157	-0.217750	-0.076383	-0.777344	0.251709	0.401855	0.094475	0.001991	-0.003513	0.215564	-0.718569	-0.219451	-0.623724	-164.390096	-82.302681	20.303462
02543		9.306123	0.164696	-0.659321	0.746191	-0.077917	-0.511998	-0.202957	-0.265716	-0.001991	-0.769531	0.252686	0.422119	0.093070	0.001639	-0.006471	0.214515	-0.719635	-0.219119	-0.622973	-164.827781	-82.152587	20.626502
02544		9.303675	0.152721	-0.949382	0.529866	-0.222353	-0.477125	-0.204227	-0.327989	0.083844	-0.766113	0.249756	0.410156	0.093052	0.001557	-0.009343	0.213666	-0.720982	-0.218544	-0.621908	-164.978281	-81.955887	20.659877
02545		9.429893	0.107629	-1.373707	0.214159	-0.412598	-0.294007	-0.146509	-0.422776	0.170710	-0.760986	0.256104	0.412598	0.094327	0.001147	-0.013539	0.213184	-0.722660	-0.217932	-0.620339	-164.859878	-81.692921	20.454115
02546		9.478945	-0.072962	-1.434517	0.113624	-0.287195	-0.230519	-0.140919	-0.491067	0.253799	-0.757568	0.257568	0.425293	0.094825	-0.000619	-0.014112	0.212910	-0.724623	-0.217112	-0.618429	-164.511723	-81.380399	20.020062
02547		9.614840	-0.116643	-1.578888	0.044454	-0.317527	-0.073663	-0.188740	-0.509809	0.266850	-0.765869	0.254639	0.425781	0.096190	-0.001053	-0.015543	0.212477	-0.726708	-0.216112	-0.616478	-164.192045	-81.054313	19.586163
02548		9.782599	-0.289845	-1.550594	0.046486	-0.139002	0.095180	-0.283442	-0.515537	0.256885	-0.762207	0.254395	0.428711	0.097869	-0.002794	-0.015250	0.211665	-0.728887	-0.214864	-0.614618	-163.990075	-80.727178	19.216703
02549		9.874353	-0.381704	-1.596896	0.023526	-0.070631	0.196950	-0.381969	-0.489369	0.225784	-0.763916	0.259033	0.438965	0.098786	-0.003736	-0.015720	0.210419	-0.731055	-0.213392	-0.612981	-163.941188	-80.418426	18.944146
02550		9.812007	-0.542844	-1.484944	0.059684	0.138605	0.124730	-0.435793	-0.433041	0.179187	-0.761719	0.259277	0.439453	0.098157	-0.005373	-0.014625	0.208896	-0.733044	-0.211868	-0.611654	-164.027010	-80.148898	18.777454
02551		9.698992	-0.612916	-1.509126	0.022310	0.195168	0.020158	-0.429311	-0.385856	0.107270	-0.753174	0.261963	0.437744	0.097022	-0.006109	-0.014891	0.207221	-0.734804	-0.210573	-0.610558	-164.293507	-79.915869	18.797258
02552		9.615147	-0.670436	-1.468091	0.044590	0.281598	-0.067206	-0.392217	-0.382652	0.083133	-0.754639	0.259766	0.449951	0.096182	-0.006693	-0.014484	0.205615	-0.736479	-0.209478	-0.609459	-164.601863	-79.689148	18.881793
02553		9.439372	-0.861076	-1.539706	-0.115430	0.411234	-0.219392	-0.354749	-0.390951	0.062005	-0.755615	0.257324	0.446045	0.094426	-0.008609	-0.015197	0.204069	-0.738118	-0.208580	-0.608303	-164.951033	-79.460111	19.029388
02554		9.336673	-1.063456	-1.683870	-0.328141	0.516739	-0.285622	-0.282605	-0.417697	0.044756	-0.757080	0.259766	0.450439	0.093404	-0.010637	-0.016629	0.202711	-0.739736	-0.207992	-0.606991	-165.318718	-79.219460	19.238325
02555		9.356484	-1.122512	-1.887507	-0.485241	0.479242	-0.226176	-0.148089	-0.466750	0.049375	-0.744629	0.254639	0.464355	0.093611	-0.011216	-0.018648	0.201809	-0.741372	-0.207844	-0.605344	-165.621108	-78.949902	19.459229
02556		9.398094	-1.122336	-1.882841	-0.430792	0.507425	-0.185350	0.018691	-0.521165	0.077806	-0.755859	0.261475	0.458008	0.094034	-0.011185	-0.018584	0.201556	-0.743024	-0.208149	-0.603294	-165.775332	-78.646759	19.626925
02557		9.589259	-0.743263	-1.710649	0.003036	0.320913	-0.049009	0.193168	-0.568836	0.082691	-0.748047	0.261719	0.462646	0.095944	-0.007377	-0.016841	0.201912	-0.744649	-0.209007	-0.600871	-165.842302	-78.315543	19.807400
02558		9.805520	-0.210662	-1.421084	0.628868	0.075029	0.077240	0.296140	-0.619647	0.095322	-0.753906	0.263428	0.468750	0.098100	-0.002039	-0.013910	0.202637	-0.746321	-0.210177	-0.598137	-165.843843	-77.955151	19.981914
02559		9.687954	0.128470	-1.004208	1.189769	0.039480	-0.145012	0.198423	-0.630228	0.124995	-0.746338	0.266113	0.474365	0.096910	0.001355	-0.009735	0.203071	-0.748152	-0.210953	-0.595424	-165.827582	-77.583908	20.080983
02560		9.468215	0.200078	-0.907089	1.320156	0.040859	-0.391160	-0.036882	-0.608446	0.131148	-0.743652	0.272217	0.476074	0.094708	0.002061	-0.008783	0.202665	-0.750151	-0.210981	-0.593033	-165.912861	-77.224712	20.146270
02561		9.354354	0.101999	-0.995833	1.224560	0.088048	-0.485392	-0.253116	-0.618857	0.132493	-0.736816	0.269043	0.479492	0.093573	0.001070	-0.009670	0.201438	-0.752397	-0.210371	-0.590818	-166.119617	-76.858729	20.209103
02562		9.242497	-0.090857	-1.272210	0.926116	0.113109	-0.529384	-0.383472	-0.657006	0.143544	-0.732422	0.273438	0.484375	0.092467	-0.000866	-0.012417	0.199712	-0.754884	-0.209370	-0.588583	-166.388459	-76.470733	20.259147
02563		9.234091	-0.358317	-1.699637	0.490476	0.131389	-0.430397	-0.426212	-0.699808	0.136117	-0.729980	0.268066	0.494141	0.092402	-0.003556	-0.016666	0.197754	-0.757524	-0.208312	-0.586223	-166.712622	-76.059088	20.341147
02564		9.430283	-0.542428	-2.118676	0.158043	0.108960	-0.134053	-0.376270	-0.739687	0.126814	-0.729980	0.267822	0.501221	0.094384	-0.005404	-0.020828	0.195913	-0.760204	-0.207470	-0.583665	-167.037388	-75.627031	20.453298
02565		9.681677	-0.737148	-2.479708	-0.112815	0.137303	0.207048	-0.293433	-0.781744	0.133805	-0.728516	0.271484	0.508301	0.096918	-0.007343	-0.024408	0.194360	-0.762923	-0.206881	-0.580838	-167.308474	-75.169718	20.559239
02566		9.711799	-0.947031	-2.624955	-0.264114	0.276498	0.284814	-0.208070	-0.786298	0.143315	-0.723389	0.272217	0.513428	0.097227	-0.009428	-0.025858	0.193152	-0.765565	-0.206504	-0.577891	-167.502541	-74.709300	20.636305
02567		9.726286	-0.989823	-2.680396	-0.254712	0.320729	0.316312	-0.120077	-0.783629	0.133957	-0.724854	0.264648	0.519775	0.097373	-0.009849	-0.026417	0.192254	-0.768095	-0.206413	-0.574858	-167.656637	-74.250747	20.724590
02568		9.667468	-0.971364	-2.678450	-0.184906	0.334985	0.258591	-0.027390	-0.779348	0.127778	-0.720215	0.272949	0.533203	0.096784	-0.009655	-0.026406	0.191696	-0.770502	-0.206603	-0.571747	-167.761601	-73.796015	20.816998
02569		9.682012	-0.943443	-2.698793	-0.109338	0.334577	0.276441	0.041357	-0.776115	0.120784	-0.716309	0.274414	0.532471	0.096930	-0.009370	-0.026614	0.191381	-0.772818	-0.207010	-0.568571	-167.834354	-73.343158	20.917080
02570		9.734055	-0.837376	-2.768845	-0.021877	0.244779	0.339092	0.109713	-0.765621	0.102925	-0.716553	0.279297	0.534180	0.097450	-0.008309	-0.027320	0.191289	-0.775004	-0.207667	-0.565377	-167.892150	-72.899042	21.042718
02571		9.757152	-0.712562	-2.843427	0.064060	0.134308	0.374176	0.144806	-0.765150	0.076971	-0.704346	0.281494	0.538818	0.097682	-0.007068	-0.028066	0.191258	-0.777120	-0.208522	-0.562159	-167.971256	-72.457540	21.212403
02572		9.641418	-0.576695	-2.771076	0.232270	0.079695	0.232589	0.127411	-0.765707	0.046429	-0.706055	0.287598	0.547607	0.096521	-0.005727	-0.027345	0.191069	-0.779207	-0.209442	-0.558984	-168.107205	-72.019974	21.431356
02573		9.561607	-0.498254	-2.630578	0.429775	0.116971	0.106670	0.053662	-0.764464	0.008880	-0.705811	0.279053	0.559326	0.095716	-0.004971	-0.025941	0.190488	-0.781312	-0.210302	-0.555912	-168.339234	-71.586589	21.708088
02574		9.447475	-0.540351	-2.659596	0.414792	0.165340	0.006698	-0.069417	-0.776913	-0.003995	-0.688477	0.289795	0.567139	0.094577	-0.005415	-0.026227	0.189373	-0.783542	-0.210875	-0.552931	-168.654922	-71.147971	21.998806
02575		9.395416	-0.733666	-2.652260	0.364594	0.370984	-0.036415	-0.179184	-0.801046	0.000596	-0.687012	0.276855	0.566895	0.094059	-0.007360	-0.026139	0.187812	-0.785937	-0.211148	-0.549952	-169.019266	-70.694031	22.275513
02576		9.454453	-0.874909	-2.623092	0.395057	0.560939	0.013882	-0.228945	-0.820775	0.009159	-0.688965	0.285400	0.578369	0.094651	-0.008774	-0.025833	0.186054	-0.788425	-0.211263	-0.546935	-169.389732	-70.228203	22.528963
02577		9.555919	-0.903307	-2.514532	0.566899	0.705339	0.068349	-0.177726	-0.889684	0.015185	-0.682129	0.274658	0.586426	0.095670	-0.009048	-0.024712	0.184440	-0.791047	-0.211556	-0.543572	-169.726884	-69.721718	22.779261
02578		9.890397	-1.009280	-2.106954	1.015990	1.105228	0.238343	-0.148937	-1.004422	0.045422	-0.677002	0.283936	0.590820	0.099010	-0.010086	-0.020565	0.182894	-0.793966	-0.211907	-0.539688	-170.018883	-69.147697	22.999527
02579		10.611403	-1.098193	-1.992275	1.388611	1.400852	0.859012	-0.218122	-1.118656	0.036855	-0.664795	0.280518	0.602539	0.106225	-0.010984	-0.019317	0.180925	-0.797226	-0.212205	-0.535411	-170.376779	-68.508927	23.249075
02580		10.847056	-1.340636	-2.171813	1.302178	1.615418	1.135652	-0.291966	-1.106500	0.035715	-0.662354	0.278809	0.604248	0.108591	-0.013418	-0.021098	0.178665	-0.800490	-0.212290	-0.531250	-170.758144	-67.877225	23.479185
02581		10.219092	-1.170605	-2.394128	1.099281	1.329486	0.606289	-0.186090	-1.014919	0.002643	-0.645020	0.274414	0.610840	0.102311	-0.011727	-0.023411	0.176835	-0.803360	-0.212703	-0.527352	-171.087997	-67.299219	23.720522
02582		9.613626	-0.557509	-2.394929	1.293192	0.775562	-0.004852	0.079893	-1.010499	-0.073553	-0.645752	0.279785	0.614014	0.096254	-0.005601	-0.023465	0.175870	-0.805878	-0.214111	-0.523246	-171.353268	-66.730498	24.057921
02583		9.569088	0.231999	-2.493199	1.705457	0.111363	-0.070240	0.317229	-1.128336	-0.133547	-0.641602	0.279297	0.631592	0.095831	0.002295	-0.024388	0.175575	-0.808409	-0.216482	-0.518444	-171.568744	-66.099030	24.491293
02584		10.005662	0.762486	-2.461334	2.273420	-0.177308	0.264586	0.377895	-1.274677	-0.126533	-0.639404	0.283447	0.640869	0.100216	0.007607	-0.023961	0.175376	-0.811239	-0.219099	-0.512963	-171.750710	-65.383955	24.927891
02585		10.381478	1.136678	-2.346403	2.817402	-0.287304	0.509646	0.272175	-1.378515	-0.120023	-0.621582	0.280518	0.637695	0.103980	0.011336	-0.022732	0.174644	-0.814398	-0.221500	-0.507141	-171.984153	-64.608325	25.357351
02586		10.587991	1.400828	-2.093262	3.350801	-0.253510	0.538902	0.135911	-1.442344	-0.105102	-0.619141	0.283691	0.647705	0.106034	0.013966	-0.020159	0.173314	-0.817811	-0.223538	-0.501176	-172.267823	-63.794972	25.758426
02587		10.556145	1.298600	-1.777050	3.641331	0.078458	0.336643	-0.032086	-1.490533	-0.062153	-0.613770	0.282471	0.654785	0.105694	0.012950	-0.016985	0.171343	-0.821495	-0.225012	-0.495133	-172.584723	-62.949721	26.092302
02588		10.435271	0.876338	-1.637343	3.590366	0.569165	0.143565	-0.185181	-1.515912	-0.015593	-0.600098	0.277100	0.666260	0.104474	0.008741	-0.015590	0.168819	-0.825377	-0.225922	-0.489094	-172.922104	-62.086223	26.352503
02589		10.630669	0.498565	-2.004291	3.328881	0.832979	0.458594	-0.183909	-1.557312	0.027784	-0.589600	0.284668	0.678467	0.106458	0.004983	-0.019219	0.166350	-0.829358	-0.226680	-0.482813	-173.201275	-61.195276	26.549935
02590		10.610573	0.201764	-2.292301	3.088875	1.024893	0.545188	-0.062986	-1.594266	0.054009	-0.580566	0.282959	0.684326	0.106283	0.002039	-0.022077	0.164392	-0.833306	-0.227634	-0.476193	-173.376374	-60.281449	26.708778
02591		10.777243	0.178420	-2.567501	3.098369	1.035481	0.774945	0.147832	-1.647766	0.049475	-0.560059	0.278320	0.691162	0.107979	0.001829	-0.024785	0.163233	-0.837146	-0.229143	-0.469080	-173.432775	-59.337174	26.872110
02592		10.828891	0.555207	-2.571849	3.476389	0.817586	0.743389	0.401836	-1.697427	0.036574	-0.554199	0.289307	0.699951	0.108501	0.005622	-0.024787	0.163035	-0.840820	-0.231321	-0.461446	-173.356310	-58.365640	27.051281
02593		10.920028	1.258294	-2.093410	4.397589	0.573534	0.460645	0.672056	-1.782879	0.040109	-0.543213	0.289063	0.715332	0.109378	0.012673	-0.019917	0.163870	-0.844404	-0.234161	-0.453098	-173.129194	-57.345462	27.237808
02594		11.182587	2.220945	-1.071837	5.922698	0.430887	-0.021711	0.832396	-1.890082	0.072854	-0.535156	0.293457	0.718262	0.111912	0.022292	-0.009568	0.165313	-0.848054	-0.237287	-0.444039	-172.794685	-56.262559	27.407496
02595		11.455919	3.101393	0.095731	7.502684	0.447364	-0.627358	0.704800	-1.987891	0.138914	-0.514648	0.303467	0.729004	0.114520	0.031087	0.002205	0.166229	-0.852011	-0.239908	-0.434613	-172.491877	-55.119881	27.529605
02596		11.603517	3.622033	0.920375	8.576498	0.561621	-1.167979	0.271958	-2.023815	0.220890	-0.497070	0.305176	0.731934	0.115894	0.036335	0.010426	0.165416	-0.856413	-0.241240	-0.425438	-172.377025	-53.950754	27.579381
02597		11.251272	3.653086	1.256592	8.778746	0.685152	-1.814241	-0.295653	-2.042046	0.280061	-0.480469	0.307617	0.744629	0.112326	0.036708	0.013659	0.162261	-0.861300	-0.241104	-0.416777	-172.541908	-52.767193	27.573608
02598		10.514946	3.219342	0.965846	8.096843	0.758947	-2.347927	-0.748302	-2.133588	0.337804	-0.467285	0.309570	0.759521	0.104985	0.032409	0.010658	0.157145	-0.866713	-0.239818	-0.408169	-172.925142	-51.527071	27.515405
02599		9.844191	2.503250	-0.002541	6.863039	0.764817	-2.363888	-1.037885	-2.303216	0.408794	-0.442383	0.299561	0.768799	0.098383	0.025237	0.000977	0.150695	-0.872653	-0.237737	-0.399060	-173.429475	-50.186614	27.398982
02600		9.423639	1.404352	-1.181495	5.453310	1.097532	-1.987990	-1.284633	-2.496863	0.518694	-0.429688	0.289063	0.790283	0.094338	0.014217	-0.010729	0.143127	-0.879139	-0.234780	-0.389240	-174.005519	-48.729061	27.187838
02601		9.394253	0.438422	-2.738898	4.153130	1.325018	-1.041366	-1.383189	-2.694468	0.602718	-0.407227	0.283203	0.803955	0.094287	0.004484	-0.026151	0.135028	-0.885979	-0.231358	-0.378527	-174.589799	-47.156417	26.907286
02602		9.857365	-0.315919	-4.248816	3.357606	1.618161	0.258052	-1.287637	-2.870807	0.621333	-0.376953	0.266357	0.820313	0.099179	-0.003119	-0.041047	0.127148	-0.892894	-0.228089	-0.366809	-175.112933	-45.483197	26.609877
02603		11.220303	-1.258476	-5.721010	3.146360	2.447614	2.200057	-1.142794	-2.945543	0.609364	-0.346680	0.251465	0.834229	0.113067	-0.012561	-0.055477	0.119776	-0.899605	-0.225133	-0.354513	-175.562012	-43.770673	26.316733
02604		13.313149	-2.839509	-7.448645	3.063102	4.051337	4.849225	-1.137458	-2.763954	0.572301	-0.323242	0.257568	0.840332	0.134224	-0.028428	-0.072475	0.112535	-0.905733	-0.222183	-0.342954	-176.019250	-42.164163	26.030733
02605		13.743345	-4.575704	-8.376814	2.338360	5.604023	5.778982	-1.207804	-2.208970	0.524588	-0.307373	0.239258	0.849121	0.138466	-0.045893	-0.081966	0.105489	-0.910712	-0.218975	-0.333955	-176.520751	-40.879679	25.742570
02606		12.144463	-5.566238	-8.515657	1.002949	6.094088	4.776187	-0.906145	-1.741517	0.519114	-0.285400	0.239502	0.857666	0.122323	-0.055727	-0.083842	0.100304	-0.914626	-0.216017	-0.326703	-176.838287	-39.863199	25.430586
02607		10.463259	-5.767277	-8.469530	0.021605	5.849883	3.612931	-0.118361	-1.670762	0.525853	-0.274414	0.243164	0.851318	0.105486	-0.057446	-0.083782	0.098803	-0.917950	-0.214263	-0.318900	-176.705183	-38.888654	25.113446
02608		9.517293	-5.383553	-8.177415	-0.068507	5.322303	2.760897	0.892059	-1.798559	0.497137	-0.257813	0.249268	0.860596	0.096037	-0.053235	-0.081151	0.101745	-0.920867	-0.214292	-0.309404	-176.022359	-37.839062	24.836125
02609		9.133268	-4.321942	-7.866494	0.551772	4.306616	2.233905	1.891884	-1.845867	0.402009	-0.233154	0.263184	0.860107	0.092142	-0.042293	-0.078220	0.109084	-0.923110	-0.216305	-0.298633	-174.829006	-36.764835	24.656075
02610		8.869141	-2.766834	-7.677397	1.424948	2.802379	1.822137	2.704264	-1.702080	0.263819	-0.223633	0.287598	0.858643	0.089378	-0.026516	-0.076379	0.120092	-0.924349	-0.220038	-0.287646	-173.245158	-35.776177	24.597234
02611		8.073449	-1.259265	-7.882388	1.701621	1.001581	1.367330	3.013353	-1.403845	0.198662	-0.217773	0.309570	0.851074	0.081298	-0.011328	-0.078432	0.132735	-0.924650	-0.224280	-0.277672	-171.515563	-34.962357	24.591869
02612		6.975561	-0.384732	-6.900857	1.964489	0.091768	-0.192054	2.793841	-0.941465	0.160876	-0.196045	0.320801	0.836182	0.070082	-0.002830	-0.068723	0.144791	-0.924189	-0.228028	-0.270026	-169.913726	-34.412206	24.589229
02613		6.411581	0.299746	-5.556185	2.603002	-0.265550	-1.736684	2.155278	-0.515126	0.035964	-0.186035	0.342285	0.834961	0.064258	0.003606	-0.055360	0.154193	-0.923310	-0.231143	-0.265135	-168.703858	-34.116973	24.632983
02614		6.734806	0.576908	-4.183752	3.630675	0.122754	-2.741820	1.158805	-0.255112	-0.148924	-0.193848	0.353516	0.834717	0.067406	0.005961	-0.041717	0.159035	-0.922571	-0.233573	-0.262705	-168.117949	-33.988055	24.771577
02615		7.654877	0.216970	-3.115964	4.595158	1.190785	-3.043642	-0.018388	-0.142416	-0.223561	-0.186035	0.346680	0.827148	0.076573	0.002081	-0.031105	0.158478	-0.922513	-0.234703	-0.262237	-168.225905	-33.933136	24.944603
02616		8.475499	-0.439079	-2.825528	4.980170	2.180193	-2.709522	-1.113367	0.034742	-0.182648	-0.189697	0.341064	0.838379	0.084746	-0.004625	-0.028245	0.153129	-0.923126	-0.234067	-0.263821	-168.931917	-33.970493	25.065764
02617		8.901536	-1.296564	-3.265933	4.638763	2.916096	-1.966505	-1.671974	0.434614	-0.127542	-0.187500	0.332520	0.838135	0.088936	-0.013296	-0.032742	0.145733	-0.923652	-0.232116	-0.267864	-169.909343	-34.227504	25.098726
02618		8.592793	-2.190612	-4.116872	3.516286	3.263341	-1.293947	-1.459933	1.103586	-0.094124	-0.209961	0.309814	0.843994	0.085689	-0.022249	-0.041480	0.140127	-0.923095	-0.229795	-0.274689	-170.710822	-34.856930	25.036221
02619		7.433618	-2.726823	-5.155326	1.801375	2.902807	-1.003712	-0.680415	1.959861	-0.044204	-0.209961	0.299561	0.843994	0.073821	-0.027461	-0.052185	0.139158	-0.920782	-0.227687	-0.284526	-170.993193	-35.968573	24.849312
02620		5.738482	-2.749182	-6.142425	-0.083275	1.868718	-1.168986	0.365733	2.793071	-0.050745	-0.237793	0.302490	0.821289	0.056512	-0.027393	-0.062268	0.143923	-0.916411	-0.226488	-0.296952	-170.615770	-37.550021	24.568129
02621		4.245418	-2.429721	-6.860314	-1.545495	0.633777	-1.554785	1.453635	3.337945	-0.199640	-0.267090	0.302246	0.816406	0.041276	-0.023836	-0.069473	0.154026	-0.910036	-0.227120	-0.310689	-169.613399	-39.452645	24.293206
02622		3.374106	-1.751166	-7.111307	-2.130702	-0.574281	-2.057503	2.287588	3.472256	-0.442826	-0.290771	0.328857	0.788086	0.032460	-0.016765	-0.071879	0.167642	-0.902186	-0.229978	-0.324140	-168.190346	-41.450807	24.119592
02623		3.387329	-0.825182	-6.678181	-1.579798	-1.412552	-2.583971	2.517312	3.346586	-0.706436	-0.317139	0.336670	0.775391	0.032721	-0.007523	-0.067434	0.181643	-0.893643	-0.234386	-0.336855	-166.731012	-43.409339	24.091673
02624		3.996475	-0.077173	-6.101186	-0.619922	-1.789270	-2.769154	1.939415	3.177640	-0.905115	-0.341553	0.342773	0.756836	0.038986	-0.000354	-0.061641	0.192461	-0.885313	-0.238782	-0.349518	-165.690220	-45.298301	24.191904
02625		4.802400	0.254220	-5.645540	0.151591	-1.749503	-2.607712	0.757746	3.137671	-0.988447	-0.364258	0.351074	0.747559	0.047143	0.002524	-0.057190	0.197783	-0.877802	-0.241423	-0.363400	-165.362563	-47.179426	24.335741
02626		5.646229	0.076057	-5.481382	0.435732	-1.383275	-2.078236	-0.576583	3.281542	-0.982633	-0.395264	0.334961	0.739014	0.055555	0.000326	-0.055732	0.197384	-0.871100	-0.241420	-0.379394	-165.781392	-49.137818	24.453855
02627		6.336191	-0.382648	-5.532673	0.260357	-0.914433	-1.446626	-1.689349	3.549098	-0.930997	-0.425781	0.318848	0.732910	0.062347	-0.004592	-0.056403	0.192478	-0.864743	-0.238712	-0.397729	-166.796549	-51.238578	24.511107
02628		7.032841	-0.930864	-5.846892	-0.203463	-0.487729	-0.635485	-2.380879	3.882465	-0.864535	-0.445801	0.296387	0.718506	0.069134	-0.010315	-0.059700	0.185033	-0.858060	-0.233928	-0.418060	-168.165590	-53.514657	24.516518
02629		7.495123	-1.490649	-6.433516	-1.060240	-0.237707	0.116613	-2.581979	4.217794	-0.810696	-0.475342	0.268555	0.703369	0.073512	-0.016049	-0.065693	0.177106	-0.850426	-0.228024	-0.439789	-169.636083	-55.974104	24.500888
02630		7.684022	-2.180728	-7.243059	-2.355526	-0.054957	0.708162	-2.276484	4.572446	-0.779678	-0.510254	0.257813	0.689941	0.075074	-0.022938	-0.073904	0.170852	-0.841226	-0.222222	-0.462348	-170.941364	-58.628749	24.501227
02631		7.680674	-2.645000	-8.162639	-3.766433	-0.185491	1.067088	-1.511520	4.940114	-0.815990	-0.547607	0.238525	0.673828	0.074653	-0.027383	-0.083284	0.168007	-0.829915	-0.217854	-0.485339	-171.881025	-61.495831	24.581667
02632		7.811203	-2.785523	-8.947666	-4.906011	-0.569442	1.341093	-0.466000	5.250274	-0.939731	-0.579102	0.218750	0.640137	0.075596	-0.028426	-0.091418	0.169437	-0.816259	-0.216147	-0.508226	-172.391115	-64.546415	24.853790
02633		8.078427	-2.461630	-9.007622	-5.231789	-1.058168	1.319629	0.509080	5.338693	-1.095791	-0.611328	0.216309	0.599121	0.078205	-0.024817	-0.092250	0.174402	-0.800786	-0.217298	-0.530196	-172.609132	-67.659415	25.406754
02634		8.216672	-1.589460	-8.162764	-4.587629	-1.618634	0.816140	1.028727	5.169800	-1.255906	-0.641602	0.219238	0.570068	0.079919	-0.015974	-0.083795	0.180729	-0.784541	-0.220477	-0.550656	-172.920437	-70.685618	26.369795
02635		8.382642	-0.506736	-6.956452	-3.473028	-2.119372	0.303623	0.947005	4.863980	-1.373545	-0.665527	0.214355	0.537354	0.082066	-0.005299	-0.071600	0.185931	-0.768535	-0.223997	-0.569745	-173.809895	-73.543132	27.870508
02636		9.114375	0.383820	-5.796456	-2.319294	-2.333129	0.481732	0.386366	4.514280	-1.372797	-0.689697	0.202148	0.511719	0.089829	0.003333	-0.059995	0.188493	-0.753579	-0.226124	-0.587756	-175.609157	-76.188501	29.962761
02637		10.164351	0.771028	-4.846607	-1.578815	-2.160691	1.151631	-0.439944	4.229832	-1.225310	-0.714111	0.187744	0.486328	0.100632	0.006982	-0.050617	0.187935	-0.740010	-0.225400	-0.605195	-178.450098	-78.643659	32.610851
02638		11.055703	0.513213	-4.631625	-1.890753	-1.872226	1.885150	-1.182689	4.243145	-1.061029	-0.738281	0.179443	0.451904	0.109565	0.004266	-0.048675	0.185067	-0.726912	-0.221713	-0.623051	177.334110	-81.066731	36.203818
02639		11.771140	-0.116144	-4.905491	-2.913063	-1.571993	2.501927	-1.495096	4.493518	-0.984475	-0.752930	0.164795	0.421875	0.116561	-0.002117	-0.051669	0.181456	-0.713011	-0.216405	-0.641762	170.237180	-83.566325	42.495032
02640		11.931523	-0.858676	-5.196062	-4.113991	-1.241389	2.499851	-1.342073	4.688892	-0.939620	-0.771729	0.154297	0.393311	0.118011	-0.009504	-0.054676	0.178658	-0.697964	-0.211138	-0.660566	155.035040	-85.985590	56.984006
02641		11.549303	-1.382999	-5.253538	-5.012208	-1.007446	1.880479	-0.895945	4.727066	-0.938458	-0.783447	0.135986	0.361084	0.114142	-0.014611	-0.055180	0.177333	-0.681970	-0.207164	-0.678641	112.146443	-87.567651	99.413181
02642		10.930470	-1.547396	-5.068140	-5.446604	-0.955565	1.001657	-0.376142	4.591791	-0.998543	-0.799561	0.125000	0.324219	0.108024	-0.016114	-0.053142	0.177353	-0.665518	-0.205173	-0.695368	58.684590	-86.693231	152.715330
02643		10.594689	-1.430798	-5.053031	-5.810645	-1.207781	0.413884	0.083594	4.274175	-1.082437	-0.830322	0.117676	0.291260	0.104755	-0.014855	-0.052784	0.178170	-0.649331	-0.205220	-0.710288	39.677408	-84.594283	171.817771
02644		10.551831	-1.139835	-4.961700	-5.980067	-1.548747	0.141230	0.463199	3.864953	-1.156946	-0.837158	0.116943	0.260986	0.104465	-0.011887	-0.051670	0.179478	-0.633891	-0.207146	-0.723229	33.108818	-82.416337	178.694150
02645		10.330611	-0.506833	-4.766239	-5.807835	-2.108465	-0.246881	0.705296	3.490303	-1.201641	-0.840820	0.104492	0.231934	0.102421	-0.005513	-0.049474	0.180914	-0.619302	-0.210332	-0.734504	30.443996	-80.354429	-178.205739
02646		9.879386	0.425234	-4.238346	-5.103600	-2.716332	-0.740117	0.729082	3.155132	-1.190736	-0.849609	0.094727	0.208252	0.098133	0.003825	-0.043921	0.182073	-0.605730	-0.213820	-0.744460	29.231354	-78.448809	-176.547703
02647		9.104279	1.255611	-3.400201	-4.071920	-3.032045	-1.431418	0.603871	2.827918	-1.125595	-0.854980	0.082520	0.187256	0.090619	0.012150	-0.035248	0.182675	-0.593401	-0.216873	-0.753306	28.596591	-76.720446	-175.546863
02648		8.156985	1.792603	-2.731719	-3.231640	-3.157925	-2.276621	0.361382	2.485979	-0.987687	-0.862793	0.075928	0.155029	0.081310	0.017575	-0.028297	0.182690	-0.582603	-0.218883	-0.761110	28.100652	-75.200368	-174.822720
02649		7.290321	1.925569	-2.475613	-2.896188	-3.148185	-3.128073	0.099453	2.061501	-0.823154	-0.862061	0.071045	0.145508	0.072721	0.018969	-0.025497	0.182052	-0.573754	-0.219761	-0.767703	27.677345	-73.937809	-174.327779
02650		6.550602	1.527734	-2.528309	-3.066537	-2.849432	-3.972089	-0.155012	1.597868	-0.620520	-0.866211	0.061279	0.129150	0.065348	0.015055	-0.025817	0.180958	-0.567079	-0.219492	-0.772981	27.237877	-72.963737	-173.962442
02651		5.933985	0.646169	-2.934797	-3.759327	-2.327925	-4.843746	-0.329303	1.169436	-0.374510	-0.873779	0.066162	0.128418	0.059179	0.006302	-0.029705	0.179816	-0.562460	-0.218217	-0.776972	26.699501	-72.271463	-173.599227
02652		5.353221	-0.204555	-3.598137	-4.606518	-1.960834	-5.740797	-0.322850	0.777417	-0.119175	-0.869385	0.055908	0.115723	0.053391	-0.002136	-0.036186	0.179275	-0.559615	-0.216605	-0.779598	26.099203	-71.844417	-173.163140
02653		4.927075	-0.706059	-4.141491	-5.188664	-1.822012	-6.394421	-0.108391	0.317483	0.117018	-0.884766	0.054932	0.115723	0.049209	-0.007054	-0.041489	0.179729	-0.558628	-0.215569	-0.780488	25.622617	-71.712431	-172.730114
02654		4.892288	-0.954987	-4.601562	-5.667238	-1.870810	-6.587284	0.250348	-0.302096	0.329964	-0.864990	0.068115	0.111328	0.049008	-0.009412	-0.045953	0.181373	-0.559956	-0.215903	-0.779063	25.481019	-71.952468	-172.430580
02655		5.131604	-0.910709	-4.941100	-5.952213	-2.121753	-6.400090	0.637962	-1.026196	0.514970	-0.863281	0.060791	0.134766	0.051592	-0.008817	-0.049175	0.184010	-0.563948	-0.217870	-0.775007	25.821170	-72.612929	-172.407411
02656		5.455767	-0.689324	-5.133689	-6.014600	-2.450570	-6.016280	0.929316	-1.696062	0.664709	-0.865723	0.068604	0.139648	0.055013	-0.006474	-0.050902	0.187333	-0.570380	-0.221155	-0.768547	26.651810	-73.655252	-172.719421
02657		5.849252	-0.545288	-5.659843	-6.361323	-2.900073	-5.609762	1.020051	-2.167902	0.794690	-0.854004	0.082764	0.159180	0.059122	-0.004932	-0.055986	0.190867	-0.578611	-0.224829	-0.760415	27.828133	-74.970844	-173.334535
02658		6.652868	-0.519586	-4.961534	-5.863361	-2.567036	-4.504721	1.010289	-2.393873	0.905120	-0.858154	0.094482	0.187256	0.067138	-0.004645	-0.048839	0.194505	-0.587730	-0.228324	-0.751405	29.197729	-76.425855	-174.150918
02659		9.829512	0.078700	-0.079767	-2.198740	-0.316047	-0.237066	1.383698	-2.301496	0.901425	-0.845947	0.096924	0.194580	0.098291	0.001230	0.000341	0.199257	-0.596038	-0.233082	-0.742098	30.944211	-77.828886	-175.133887
02660		19.317206	5.885457	5.649652	4.010298	-1.641551	10.703321	2.559534	-2.101049	0.482275	-0.843506	0.104004	0.202637	0.192418	0.058572	0.059271	0.206180	-0.601780	-0.243211	-0.732256	34.461806	-78.993327	-177.227928
02661		35.443235	12.691035	16.587877	14.039402	-0.292790	28.855320	1.135202	-1.214002	0.926505	-0.837891	0.123291	0.213867	0.352824	0.127595	0.168747	0.211486	-0.606178	-0.245831	-0.726216	34.910304	-79.870055	-177.022828
02662		20.313056	-2.048191	8.956593	2.367386	6.693838	11.319961	-3.922396	0.000745	1.436081	-0.843994	0.126953	0.217285	0.203263	-0.017261	0.089925	0.204751	-0.611974	-0.227192	-0.729348	28.674191	-80.305470	-172.974198
02663		2.169580	-9.043420	-0.905527	-6.218391	6.843823	-8.471415	-2.879716	1.482005	1.263910	-0.841553	0.127930	0.202148	0.022206	-0.090414	-0.007917	0.202161	-0.610889	-0.211273	-0.735737	21.241281	-79.843533	-167.106745
02664		-3.505828	-6.201167	-4.874600	-6.801822	2.525940	-14.488288	1.466523	1.557949	0.367010	-0.849609	0.136963	0.200684	-0.035325	-0.061718	-0.048925	0.209608	-0.604046	-0.213969	-0.738519	19.367712	-79.081670	-164.346872
02665		0.971583	-1.096934	-3.394041	-3.498087	-1.161919	-9.533953	4.800515	-0.031608	-0.213598	-0.839844	0.140869	0.195557	0.009710	-0.010161	-0.034189	0.223182	-0.598761	-0.232307	-0.733286	22.758592	-79.058003	-165.002722
02666		7.503627	4.010035	-1.091181	0.334369	-4.123995	-2.299506	5.122525	-1.465668	-0.348359	-0.842529	0.143311	0.194580	0.075179	0.040222	-0.009332	0.235440	-0.597820	-0.253692	-0.723063	28.611147	-79.730760	-167.971304
02667		15.997100	6.030432	2.812576	3.368710	-3.133121	6.890361	2.654636	-2.508149	-0.167131	-0.843750	0.143555	0.208252	0.159645	0.059773	0.030925	0.239503	-0.603484	-0.266694	-0.712264	35.077017	-80.905051	-172.991386
02668		21.032281	5.049742	-1.307147	-0.653957	-4.809343	11.305282	-0.146165	-3.294909	0.087852	-0.828857	0.158691	0.235840	0.210478	0.050582	-0.009642	0.234931	-0.615446	-0.269828	-0.702301	42.848374	-82.409876	179.070003
02669		14.138114	2.310034	-3.723417	-2.959742	-4.076855	4.104786	-0.250955	-2.349885	0.261606	-0.824707	0.151367	0.249512	0.141775	0.023240	-0.035599	0.231848	-0.624333	-0.270882	-0.695038	49.760085	-83.452244	171.957404
02670		10.034824	0.828773	-2.955279	-2.727685	-2.413844	0.028567	-0.084716	-0.959501	0.547355	-0.823975	0.153564	0.265137	0.100465	0.008550	-0.029075	0.232165	-0.628514	-0.269998	-0.691498	51.819666	-84.043914	169.836265
02671		10.319916	0.581719	-4.007165	-3.611296	-2.920207	0.253433	-0.160810	-0.465840	0.723715	-0.821045	0.163330	0.265625	0.103270	0.006159	-0.039836	0.233488	-0.631315	-0.267705	-0.689390	51.287451	-84.536181	170.275005
02672		10.747751	1.109842	-5.689289	-4.467556	-4.448869	0.644915	0.047653	-0.517609	0.810417	-0.813965	0.176758	0.274902	0.107578	0.011548	-0.056612	0.235719	-0.634138	-0.265923	-0.686724	50.668234	-85.084686	170.923742
02673		10.174661	1.810407	-6.165978	-4.198232	-5.330088	0.126328	0.420588	-0.613717	0.878126	-0.815674	0.185059	0.272705	0.101854	0.018680	-0.061308	0.239204	-0.636941	-0.265302	-0.683156	50.369418	-85.698396	171.461629
02674		8.977880	2.005649	-5.248161	-3.164710	-4.906897	-0.976774	0.454952	-0.887859	0.971761	-0.821045	0.190918	0.276123	0.089911	0.020612	-0.052036	0.242771	-0.640720	-0.264828	-0.678532	51.300899	-86.452406	170.788821
02675		8.320299	1.522270	-3.499825	-2.011437	-3.389555	-1.550929	0.167272	-1.319568	1.041725	-0.810791	0.193604	0.287842	0.083351	0.015686	-0.034436	0.245041	-0.646386	-0.263651	-0.672777	56.279138	-87.383110	165.895872
02676		8.992585	0.797401	-1.902318	-1.183560	-1.748273	-0.831533	-0.288354	-1.792105	1.065649	-0.803467	0.213867	0.300293	0.090047	0.008427	-0.018229	0.245300	-0.654153	-0.261430	-0.666008	74.684637	-88.377952	147.312913
02677		10.428981	0.165871	-0.923830	-0.714908	-0.553024	0.619160	-0.837045	-1.934841	1.063161	-0.794434	0.211914	0.314941	0.104362	0.002177	-0.008237	0.243510	-0.663003	-0.257521	-0.659404	125.155313	-88.827872	96.345867
02678		11.753011	-0.377129	-0.665431	-0.676027	0.099269	1.945205	-1.402010	-1.428768	0.948561	-0.792969	0.218506	0.322754	0.117590	-0.003256	-0.005790	0.240118	-0.670617	-0.251489	-0.655263	163.821431	-88.451785	56.865932
02679		12.011739	-1.269826	-1.150789	-1.464859	0.488650	2.221968	-1.765316	-0.580723	0.747814	-0.789063	0.209229	0.333252	0.120197	-0.012348	-0.011049	0.235864	-0.675580	-0.243885	-0.654584	178.924433	-88.178708	40.741126
02680		10.861378	-2.743869	-1.974094	-2.981202	1.078258	1.111823	-1.652673	0.026956	0.618883	-0.786377	0.219727	0.344727	0.108696	-0.027264	-0.019530	0.232314	-0.678186	-0.236355	-0.655920	-170.932076	-88.166252	29.644674
02681		9.085903	-4.462524	-2.822947	-4.723492	1.867451	-0.612800	-0.961432	0.132150	0.415157	-0.792725	0.224609	0.343262	0.090933	-0.044572	-0.028075	0.230523	-0.679386	-0.231638	-0.656992	-163.773821	-88.183104	21.927811
02682		7.672665	-5.080994	-3.227924	-5.443235	2.091429	-1.995854	0.137816	-0.188907	0.073217	-0.794678	0.222412	0.345947	0.076776	-0.050760	-0.032242	0.230996	-0.679948	-0.232071	-0.656090	-163.462938	-88.064727	21.695330
02683		7.688711	-3.736209	-2.731176	-4.206698	1.334761	-1.998795	1.166997	-0.595862	-0.152181	-0.795166	0.232666	0.341309	0.076940	-0.037261	-0.027300	0.233725	-0.680401	-0.237099	-0.652849	-167.532274	-87.750700	26.432599
02684		8.520918	-1.449247	-1.560384	-1.800562	0.309206	-1.221803	1.548268	-0.853215	-0.154361	-0.784180	0.235352	0.344238	0.085264	-0.014439	-0.015352	0.237451	-0.681183	-0.243677	-0.648250	-170.810639	-87.283965	30.601500
02685		9.384624	0.736048	-0.361632	0.612063	-0.539235	-0.427722	1.126026	-0.916904	-0.061649	-0.786621	0.238037	0.345703	0.093864	0.007350	-0.003145	0.239923	-0.682761	-0.248619	-0.643787	-172.360473	-86.763912	32.796036
02686		10.136671	2.359658	0.184806	2.190004	-1.339749	0.275050	0.200037	-0.880201	0.094113	-0.794678	0.240967	0.351807	0.101346	0.023642	0.002318	0.239796	-0.685481	-0.250007	-0.640399	-172.487415	-86.253891	33.037600
02687		10.644113	2.942743	-0.286879	2.313378	-2.034271	0.796212	-0.745439	-0.825219	0.320905	-0.780762	0.240479	0.361084	0.106405	0.029588	-0.002540	0.237195	-0.689441	-0.247507	-0.638083	-171.295677	-85.754436	31.411732
02688		10.875469	2.325237	-1.161857	1.332633	-2.104960	1.088014	-1.334760	-0.781185	0.527290	-0.785156	0.245605	0.368896	0.108738	0.023463	-0.011350	0.233285	-0.694162	-0.242361	-0.636379	-169.255992	-85.259176	28.598225
02689		10.702121	0.989658	-1.517021	0.271385	-1.302557	0.959751	-1.490806	-0.650622	0.659040	-0.774658	0.241943	0.375244	0.107037	0.010138	-0.014897	0.229374	-0.698776	-0.236084	-0.635109	-166.780012	-84.810804	25.252738
02690		10.431971	-0.182371	-1.482466	-0.379985	-0.378618	0.711990	-1.385308	-0.452573	0.677063	-0.784180	0.250488	0.381836	0.104358	-0.001572	-0.014577	0.226126	-0.702595	-0.229842	-0.634350	-164.285038	-84.459889	21.949152
02691		10.185508	-1.137787	-1.344377	-0.806748	0.444898	0.482813	-1.272467	-0.310740	0.641722	-0.772461	0.240967	0.390137	0.101912	-0.011135	-0.013214	0.223295	-0.705770	-0.223903	-0.633952	-162.026350	-84.178008	18.944247
02692		9.814524	-1.823440	-1.333177	-1.179378	0.983751	0.140611	-1.216341	-0.278956	0.534403	-0.775635	0.247070	0.392822	0.098212	-0.018052	-0.013085	0.220363	-0.708610	-0.218480	-0.633702	-160.455555	-83.925538	16.663831
02693		9.591367	-2.169812	-1.443288	-1.432467	1.200787	-0.050960	-1.066702	-0.349303	0.391023	-0.775635	0.240479	0.398926	0.095981	-0.021586	-0.014150	0.217403	-0.711340	-0.214100	-0.633161	-159.787330	-83.656428	15.374256
02694		9.397558	-2.356729	-1.518717	-1.564955	1.323611	-0.222409	-0.726460	-0.426171	0.242642	-0.777588	0.237305	0.398438	0.094036	-0.023508	-0.014901	0.215113	-0.713747	-0.211410	-0.632137	-159.817830	-83.376706	14.985603
02695		9.294700	-2.305478	-1.340794	-1.352982	1.405977	-0.341845	-0.254939	-0.468524	0.083899	-0.777832	0.254883	0.405273	0.092988	-0.023033	-0.013161	0.213939	-0.715621	-0.210812	-0.630614	-160.382386	-83.103199	15.404365
02696		9.322985	-2.111268	-0.923416	-0.861470	1.512983	-0.368281	0.179455	-0.488325	-0.057691	-0.770996	0.252686	0.412842	0.093246	-0.021131	-0.009025	0.213868	-0.716922	-0.212117	-0.628721	-161.296804	-82.847148	16.428854
02697		9.419596	-1.784235	-0.580840	-0.355218	1.475123	-0.328630	0.473270	-0.507567	-0.144748	-0.776611	0.251465	0.407715	0.094197	-0.017897	-0.005612	0.214543	-0.717885	-0.214672	-0.626522	-162.374757	-82.591826	17.787120
02698		9.551489	-1.343284	-0.324671	0.148023	1.302029	-0.251128	0.600517	-0.514583	-0.160961	-0.780762	0.254395	0.408936	0.095512	-0.013500	-0.003041	0.215624	-0.718690	-0.217692	-0.624181	-163.369779	-82.334533	19.137438
02699		9.634858	-0.775662	-0.373564	0.477065	0.850209	-0.188702	0.641672	-0.486533	-0.120620	-0.774170	0.258057	0.420898	0.096353	-0.007803	-0.003526	0.216997	-0.719409	-0.220659	-0.621830	-164.076895	-82.081440	20.220651
02700		9.602662	-0.146395	-0.468168	0.798556	0.314589	-0.235897	0.644675	-0.467765	-0.048211	-0.768799	0.262695	0.410645	0.096037	-0.001472	-0.004462	0.218633	-0.720121	-0.223354	-0.619467	-164.425428	-81.828256	20.945247
02701		9.521107	0.753015	-0.504556	1.331854	-0.407327	-0.350493	0.582113	-0.496720	0.028124	-0.770752	0.264160	0.412598	0.095222	0.007558	-0.004787	0.220236	-0.721079	-0.225604	-0.616964	-164.523742	-81.544861	21.380206
02702		9.618742	1.406445	-0.569319	1.736260	-0.937226	-0.277014	0.337742	-0.611946	0.127773	-0.767090	0.269043	0.423096	0.096195	0.014135	-0.005375	0.221140	-0.722750	-0.226870	-0.614215	-164.496331	-81.184687	21.547769
02703		9.659460	1.622101	-0.600109	1.910894	-1.100362	-0.250587	-0.092644	-0.722933	0.241032	-0.768066	0.278564	0.419922	0.096596	0.016335	-0.005659	0.220701	-0.725369	-0.226521	-0.611408	-164.425749	-80.743844	21.421363
02704		9.747355	1.153418	-1.029127	1.375381	-0.954946	-0.086622	-0.554974	-0.769998	0.337034	-0.760986	0.277100	0.422119	0.097493	0.011671	-0.009948	0.218828	-0.728723	-0.224461	-0.608847	-164.354403	-80.264241	21.026189
02705		9.687893	0.238400	-1.533113	0.495801	-0.500686	-0.026698	-0.916508	-0.724484	0.387064	-0.765137	0.275635	0.443359	0.096929	0.002502	-0.014991	0.215833	-0.732377	-0.221062	-0.606771	-164.315208	-79.800071	20.452915
02706		9.690760	-0.558196	-2.210075	-0.440676	-0.225714	0.130214	-0.993193	-0.632144	0.362360	-0.757324	0.272217	0.440674	0.096987	-0.005515	-0.021767	0.212577	-0.735769	-0.217412	-0.605134	-164.340149	-79.392524	19.899260
02707		9.809862	-1.156016	-2.596603	-1.010617	0.077611	0.350203	-0.802204	-0.580465	0.300242	-0.760986	0.271973	0.453857	0.098191	-0.011516	-0.025635	0.209881	-0.738720	-0.214507	-0.603514	-164.413344	-79.021245	19.505213
02708		9.930257	-1.391395	-2.829554	-1.248948	0.177381	0.529491	-0.478319	-0.579791	0.226174	-0.750488	0.276611	0.461670	0.099400	-0.013869	-0.027974	0.208158	-0.741224	-0.212846	-0.601626	-164.516409	-78.663741	19.330481
02709		9.989121	-1.430890	-2.715045	-1.106346	0.306996	0.573978	-0.148017	-0.615004	0.180440	-0.752197	0.276855	0.469238	0.099987	-0.014239	-0.026833	0.207478	-0.743442	-0.212384	-0.599283	-164.584645	-78.291852	19.312964
02710		9.846229	-1.266420	-2.452700	-0.766914	0.334282	0.378854	0.076867	-0.647372	0.152319	-0.760010	0.281982	0.463623	0.098551	-0.012580	-0.024213	0.207517	-0.745475	-0.212730	-0.596616	-164.618922	-77.908334	19.392555
02711		9.694005	-1.104768	-1.988835	-0.270432	0.475862	0.129635	0.153095	-0.672382	0.128709	-0.757080	0.285645	0.471436	0.097013	-0.010970	-0.019571	0.207739	-0.747480	-0.213417	-0.593778	-164.683248	-77.512591	19.547902
02712		9.587443	-0.895621	-1.569013	0.222526	0.559229	-0.075111	0.097192	-0.665884	0.095142	-0.746826	0.282715	0.481934	0.095930	-0.008903	-0.015375	0.207658	-0.749468	-0.214052	-0.591065	-164.848930	-77.127401	19.774355
02713		9.551679	-0.774586	-1.381652	0.489305	0.592262	-0.161107	-0.012407	-0.628733	0.058622	-0.744385	0.290771	0.485596	0.095562	-0.007719	-0.013516	0.207095	-0.751423	-0.214461	-0.588627	-165.127989	-76.766038	20.053338
02714		9.682579	-0.532241	-1.391164	0.699659	0.429855	-0.050703	0.000335	-0.626263	0.026751	-0.745117	0.284180	0.483887	0.096869	-0.005309	-0.013608	0.206487	-0.753305	-0.215021	-0.586225	-165.456655	-76.412314	20.390964
02715		9.769750	-0.173893	-1.358596	1.002662	0.195843	-0.000452	0.103741	-0.692582	0.015775	-0.743896	0.291016	0.493164	0.097744	-0.001724	-0.013248	0.206165	-0.755265	-0.215994	-0.583454	-165.771846	-76.021005	20.776707
02716		9.658296	0.173790	-1.128815	1.418283	0.068232	-0.191335	0.168845	-0.783921	0.039411	-0.732178	0.285889	0.503662	0.096626	0.001766	-0.010908	0.206054	-0.757429	-0.217156	-0.580248	-166.029286	-75.577090	21.141598
02717		9.397269	0.361113	-0.841084	1.761135	0.092826	-0.537145	0.048546	-0.882890	0.109222	-0.725830	0.295654	0.506348	0.094007	0.003664	-0.007995	0.205579	-0.760075	-0.217804	-0.576702	-166.240320	-75.066305	21.388330
02718		9.202352	0.323763	-0.698790	1.881689	0.222761	-0.774690	-0.214884	-0.946877	0.203768	-0.724854	0.288330	0.513184	0.092052	0.003324	-0.006556	0.204301	-0.763253	-0.217393	-0.573102	-166.425374	-74.508757	21.452059
02719		9.144104	0.291146	-0.776253	1.870691	0.235408	-0.826791	-0.447945	-1.008134	0.273154	-0.725830	0.294922	0.519775	0.091475	0.003020	-0.007308	0.202260	-0.766907	-0.216108	-0.569422	-166.627079	-73.905993	21.394899
02720		9.312958	0.155173	-0.979706	1.768100	0.287358	-0.620003	-0.625774	-1.084356	0.316027	-0.718018	0.284912	0.530029	0.093178	0.001669	-0.009297	0.199569	-0.770967	-0.214218	-0.565591	-166.877742	-73.256924	21.281976
02721		9.880256	-0.122246	-1.301001	1.615953	0.442583	0.011700	-0.723422	-1.184365	0.325100	-0.706543	0.292236	0.549805	0.098879	-0.001107	-0.012420	0.196412	-0.775388	-0.212111	-0.561430	-167.203549	-72.549349	21.189183
02722		10.465091	-0.451921	-1.640152	1.450180	0.649662	0.669951	-0.702022	-1.288606	0.325004	-0.701416	0.292480	0.559082	0.104761	-0.004405	-0.015711	0.193216	-0.780032	-0.210151	-0.556825	-167.548942	-71.785346	21.129015
02723		10.437137	-0.735803	-1.912408	1.202025	0.798845	0.725234	-0.584966	-1.299175	0.289304	-0.690918	0.301514	0.572998	0.104503	-0.007261	-0.018424	0.190355	-0.784518	-0.208659	-0.552048	-167.879658	-71.018303	21.124230
02724		9.871961	-0.953359	-2.069021	0.912413	0.892751	0.237908	-0.409466	-1.234347	0.228149	-0.682861	0.302979	0.577881	0.098856	-0.009462	-0.020061	0.188072	-0.788550	-0.207816	-0.547385	-168.173786	-70.296481	21.186844
02725		9.332639	-0.940365	-2.080349	0.850983	0.867056	-0.282044	-0.248126	-1.208458	0.162484	-0.675537	0.287842	0.589111	0.093457	-0.009353	-0.020227	0.186269	-0.792263	-0.207646	-0.542684	-168.455425	-69.595261	21.335867
02726		9.234729	-0.778253	-2.249606	0.878688	0.686788	-0.341595	-0.094269	-1.277486	0.114466	-0.664307	0.299561	0.595459	0.092493	-0.007740	-0.021902	0.184861	-0.795933	-0.208134	-0.537584	-168.727030	-68.861924	21.568112
02727		9.498223	-0.502948	-2.481419	1.045727	0.431316	-0.048185	0.056813	-1.385713	0.077947	-0.660400	0.292725	0.604248	0.095153	-0.004985	-0.024157	0.183837	-0.799687	-0.209268	-0.531895	-168.977275	-68.069980	21.872283
02728		9.862151	-0.300851	-2.567174	1.339278	0.335745	0.288529	0.172096	-1.503201	0.079087	-0.652100	0.300293	0.609375	0.098812	-0.002948	-0.024932	0.183143	-0.803599	-0.210797	-0.525597	-169.172277	-67.212833	22.189276
02729		10.108215	-0.213668	-2.640929	1.556804	0.334277	0.514875	0.212475	-1.571291	0.087843	-0.645752	0.298096	0.627197	0.101286	-0.002065	-0.025616	0.182554	-0.807619	-0.212451	-0.518932	-169.330684	-66.314704	22.494502
02730		10.289011	-0.239956	-2.425680	1.919976	0.572935	0.569425	0.196571	-1.612260	0.098550	-0.637451	0.311768	0.626465	0.103082	-0.002325	-0.023429	0.181870	-0.811713	-0.214040	-0.512085	-169.477674	-65.393407	22.778527
02731		10.201453	-0.332297	-1.922504	2.363182	0.975078	0.254004	0.145522	-1.638157	0.108434	-0.623291	0.304199	0.640381	0.102169	-0.003254	-0.018391	0.180969	-0.815880	-0.215473	-0.505135	-169.631138	-64.454971	23.040607
02732		10.303798	-0.344124	-1.189778	3.089329	1.460319	-0.013547	0.079747	-1.705603	0.098723	-0.612549	0.302002	0.660400	0.103136	-0.003386	-0.011020	0.179685	-0.820205	-0.216819	-0.497963	-169.832294	-63.480381	23.314830
02733		11.089734	-0.381553	-0.948311	3.724091	1.846754	0.519021	-0.026297	-1.845226	0.079515	-0.599609	0.303955	0.663818	0.110980	-0.003773	-0.008459	0.177755	-0.824890	-0.218092	-0.490302	-170.123494	-62.427307	23.625037
02734		11.837176	-0.633566	-1.169716	3.914667	2.192517	1.221457	-0.151678	-1.897945	0.064502	-0.576416	0.308838	0.678955	0.118478	-0.006306	-0.010568	0.175195	-0.829722	-0.219143	-0.482540	-170.488733	-61.346230	23.940090
02735		11.659231	-0.598474	-1.274439	3.951917	2.186400	1.027894	-0.039387	-1.825132	0.049080	-0.567383	0.316406	0.693115	0.116704	-0.005958	-0.011679	0.173132	-0.834193	-0.220450	-0.474920	-170.769774	-60.306068	24.236353
02736		10.716481	0.048920	-0.857535	4.325843	1.759805	-0.129313	0.243723	-1.808502	-0.003025	-0.560303	0.314209	0.697266	0.107237	0.000497	-0.007605	0.172126	-0.838250	-0.222610	-0.467071	-170.919720	-59.280393	24.570927
02737		10.102143	0.854038	-0.376579	4.954678	1.292309	-1.054706	0.413191	-1.950657	-0.051523	-0.545898	0.313965	0.711670	0.101054	0.008521	-0.002763	0.171548	-0.842362	-0.225476	-0.458430	-171.022538	-58.177701	24.968736
02738		10.130321	1.324873	-0.155365	5.522340	1.122798	-1.289671	0.373222	-2.138748	-0.049855	-0.531250	0.323242	0.718018	0.101315	0.013225	-0.000446	0.170570	-0.846849	-0.228375	-0.448996	-171.155101	-56.968538	25.378597
02739		10.560002	1.832238	-0.206207	6.133932	0.892102	-1.066988	0.344056	-2.268908	-0.008282	-0.519775	0.315430	0.734131	0.105615	0.018320	-0.000832	0.169396	-0.851594	-0.231120	-0.438949	-171.265785	-55.681292	25.748900
02740		11.065597	2.763493	-0.011592	7.202760	0.459207	-0.981630	0.464222	-2.359730	0.059351	-0.495117	0.323242	0.737549	0.110638	0.027666	0.001254	0.168749	-0.856397	-0.233880	-0.428262	-171.248298	-54.336840	26.051680
02741		11.659209	3.765119	0.503945	8.589086	0.158838	-1.062736	0.570224	-2.460235	0.175345	-0.474609	0.329102	0.746582	0.116484	0.037736	0.006580	0.168664	-0.861328	-0.236425	-0.416857	-171.083432	-52.925607	26.252828
02742		12.545111	4.424263	1.707225	10.399133	0.561547	-1.362781	0.461920	-2.589550	0.338677	-0.451904	0.332764	0.767578	0.125140	0.044413	0.018796	0.168269	-0.866670	-0.238104	-0.404815	-170.874252	-51.426875	26.322525
02743		13.154612	4.316390	2.256657	11.229606	1.198845	-1.493177	0.129882	-2.734668	0.488743	-0.442627	0.334961	0.766113	0.131115	0.043469	0.024390	0.166536	-0.872599	-0.238545	-0.392342	-170.770308	-49.833006	26.284316
02744		12.923861	3.490122	2.059154	10.735617	1.814398	-1.757244	-0.324438	-2.833901	0.588393	-0.408936	0.336914	0.784668	0.128827	0.035316	0.022362	0.162863	-0.879046	-0.237689	-0.379812	-170.873726	-48.173365	26.174461
02745		11.860101	1.975311	0.044601	8.308693	1.901531	-1.332949	-0.806641	-2.917231	0.699738	-0.389160	0.331055	0.796143	0.118508	0.020174	0.002094	0.157149	-0.885971	-0.235449	-0.367320	-171.191695	-46.458095	25.978437
02746		11.226654	0.749754	-2.502688	6.042037	1.685616	-0.142844	-0.891733	-3.016770	0.776518	-0.361816	0.333984	0.812256	0.112597	0.007828	-0.023365	0.151039	-0.893017	-0.232724	-0.354326	-171.521144	-44.679415	25.723663
02747		11.492084	0.025899	-4.273746	5.133465	1.739355	1.184708	-0.626928	-3.185982	0.796690	-0.328857	0.315674	0.830078	0.115580	0.000588	-0.040901	0.145914	-0.899937	-0.230452	-0.340169	-171.705388	-42.805609	25.470942
02748		12.899567	-0.582212	-5.930474	5.213783	2.166987	3.226098	-0.307023	-3.301560	0.720303	-0.304932	0.328125	0.832275	0.129971	-0.005444	-0.057156	0.141918	-0.906483	-0.229077	-0.325070	-171.761124	-40.871291	25.290123
02749		15.071762	-1.753098	-7.513236	5.697226	3.424513	5.758772	-0.411050	-3.103697	0.603979	-0.271973	0.320068	0.844971	0.151911	-0.017225	-0.072745	0.137454	-0.912395	-0.227865	-0.310996	-171.923349	-39.060838	25.175802
02750		15.737491	-3.435132	-7.783522	5.594897	5.202574	6.363319	-0.913898	-2.518670	0.561199	-0.252197	0.310791	0.858643	0.158433	-0.034257	-0.075688	0.131261	-0.917500	-0.225606	-0.300110	-172.353029	-37.584341	25.023560
02751		14.261016	-4.598011	-7.501771	4.434981	6.021151	5.182621	-1.163372	-2.003780	0.623650	-0.230957	0.299805	0.856201	0.143494	-0.045963	-0.073316	0.124582	-0.921906	-0.222318	-0.291794	-172.865888	-36.399172	24.767902
02752		12.324553	-5.262622	-7.271704	3.089985	6.182998	3.777082	-0.868697	-1.759097	0.755420	-0.214355	0.304932	0.861084	0.124076	-0.052471	-0.071400	0.119704	-0.925808	-0.218665	-0.284141	-173.143359	-35.343056	24.391262
02753		10.831641	-5.525982	-7.491784	2.015617	5.920061	3.027545	-0.038755	-1.747496	0.845720	-0.197998	0.301025	0.875000	0.109198	-0.054814	-0.073956	0.118807	-0.929191	-0.215753	-0.275572	-172.916851	-34.290186	23.956588
02754		9.736607	-4.689367	-8.655855	1.315172	4.425697	3.240754	1.072035	-1.792241	0.776430	-0.177734	0.303711	0.869385	0.098318	-0.046051	-0.085929	0.122904	-0.931809	-0.214687	-0.265587	-172.098897	-33.211068	23.589168
02755		8.701554	-3.007719	-9.330631	1.291345	2.289636	3.028876	1.978371	-1.702620	0.693604	-0.156738	0.324951	0.861816	0.087909	-0.028853	-0.092850	0.131200	-0.933510	-0.215128	-0.255080	-170.807215	-32.187291	23.297130
02756		7.858400	-1.603469	-8.420001	1.952546	0.956461	1.610381	2.741485	-1.425567	0.603803	-0.147217	0.347412	0.850830	0.079228	-0.014645	-0.083844	0.143204	-0.934069	-0.216728	-0.245026	-169.115264	-31.319804	23.066073
02757		7.305662	-0.232763	-7.058658	2.934320	-0.072732	-0.084869	3.059766	-0.939977	0.347976	-0.141846	0.374268	0.842773	0.073390	-0.001123	-0.070265	0.156881	-0.933281	-0.219518	-0.237039	-167.311882	-30.752106	22.969561
02758		7.058941	0.589783	-5.422412	3.897246	-0.341355	-1.795710	2.753023	-0.356023	0.024640	-0.140137	0.396240	0.836426	0.070685	0.006651	-0.054010	0.169338	-0.931485	-0.222937	-0.232291	-165.756130	-30.547636	23.011106
02759		7.209046	0.813179	-3.453460	4.896114	0.276198	-3.447974	1.730467	0.036326	-0.161178	-0.137695	0.401855	0.823486	0.072091	0.008372	-0.034476	0.177243	-0.929757	-0.225683	-0.230660	-164.815350	-30.591770	23.111950
02760		7.480273	0.868962	-1.692186	5.762050	1.068468	-4.789719	0.199307	0.206100	-0.172451	-0.143799	0.406738	0.821533	0.074793	0.008642	-0.016990	0.178191	-0.929151	-0.226546	-0.231523	-164.740950	-30.728907	23.189131
02761		7.747231	0.473045	-0.801460	6.066491	1.878659	-5.279049	-1.282739	0.397563	-0.137293	-0.159180	0.386475	0.830566	0.077459	0.004625	-0.008198	0.172515	-0.929651	-0.225362	-0.234945	-165.487692	-30.970058	23.212546
02762		7.907134	-0.379496	-1.020209	5.652290	2.555744	-4.790036	-2.282884	0.845823	-0.132735	-0.150391	0.369629	0.841553	0.079025	-0.003966	-0.010492	0.162676	-0.930413	-0.222565	-0.241522	-166.771682	-31.455973	23.165366
02763		7.714491	-1.402366	-2.203829	4.481440	2.878631	-3.651034	-2.671619	1.581750	-0.088340	-0.164063	0.349121	0.841553	0.076962	-0.014356	-0.022457	0.151875	-0.930461	-0.218452	-0.251904	-168.212613	-32.352647	22.994681
02764		7.090860	-2.234098	-4.164873	2.667694	2.624966	-2.157133	-2.479954	2.544055	0.011147	-0.181885	0.327148	0.845703	0.070375	-0.022859	-0.042265	0.143095	-0.929010	-0.213324	-0.266376	-169.447322	-33.778515	22.652492
02765		6.311400	-2.870876	-6.442734	0.539144	2.044723	-0.587436	-1.688626	3.517989	0.045291	-0.214844	0.303223	0.838867	0.061977	-0.029243	-0.065279	0.139033	-0.925399	-0.208323	-0.284444	-170.150781	-35.758906	22.189162
02766		5.234923	-3.428426	-8.490278	-1.824954	1.333298	0.488831	-0.345477	4.139100	-0.028934	-0.239746	0.303223	0.833740	0.050573	-0.034439	-0.085902	0.141662	-0.919530	-0.205056	-0.303890	-170.056443	-38.095085	21.702000
02767		4.243550	-3.640450	-9.637161	-3.590636	0.564728	0.718455	1.157649	4.174901	-0.221237	-0.285645	0.303711	0.812500	0.040369	-0.035888	-0.097437	0.150883	-0.911921	-0.204832	-0.321991	-169.143857	-40.471691	21.306489
02768		4.218353	-3.445653	-9.383841	-3.714533	0.166099	0.379414	2.154904	3.837561	-0.478622	-0.303711	0.317139	0.798828	0.040287	-0.033535	-0.094988	0.163817	-0.903412	-0.207551	-0.337540	-167.758979	-42.677926	21.079749
02769		5.162685	-2.853435	-8.316094	-2.488818	0.030837	0.073779	2.292173	3.550405	-0.742121	-0.336426	0.342285	0.787598	0.050032	-0.027760	-0.084380	0.176547	-0.894565	-0.211815	-0.351737	-166.409757	-44.756421	21.025004
