// General information: 
//  MT Manager version: 2019.2.0 
//  XDA version: 2019.2.0 build 3853 rev 94535 built on 2019-09-09
// Device information: 
//  DeviceId: 00B4778F
//  ProductCode: MTW2-3A7G6
//  Firmware Version: 4.6.0
//  Hardware Version: 2.0.0
// Device settings: 
//  Filter Profile: human(46.1)
//  Option Flags: Orientation Smoother Disabled, AHS Disabled, ICC Disabled
// Coordinate system: ENU
PacketCounter	SampleTimeFine	Acc_X	Acc_Y	Acc_Z	FreeAcc_E	FreeAcc_N	FreeAcc_U	Gyr_X	Gyr_Y	Gyr_Z	Mag_X	Mag_Y	Mag_Z	VelInc_X	VelInc_Y	VelInc_Z	Quat_q0	Quat_q1	Quat_q2	Quat_q3	Roll	Pitch	Yaw
02229		9.288138	0.073955	3.170409	-0.009530	0.025786	0.001879	-0.002809	-0.007301	0.000007	-0.823242	-0.241211	-0.713623	0.092880	0.000740	0.031707	0.789671	0.142400	-0.563965	0.195152	0.847132	-71.133407	27.157034
02230		9.254235	0.071758	3.164691	-0.014017	0.020878	-0.032061	-0.004139	-0.002126	-0.001526	-0.821777	-0.247559	-0.711426	0.092542	0.000718	0.031648	0.789666	0.142396	-0.563986	0.195115	0.851706	-71.136081	27.148832
02231		9.279852	0.048625	3.122131	0.039434	0.022676	-0.021689	-0.002164	-0.002966	-0.001273	-0.815918	-0.245117	-0.703613	0.092798	0.000486	0.031223	0.789657	0.142401	-0.564008	0.195085	0.857355	-71.139231	27.140975
02232		9.289827	0.040120	3.174714	0.002006	-0.007517	0.004708	-0.002654	-0.005555	-0.005866	-0.820801	-0.252930	-0.706055	0.092897	0.000399	0.031750	0.789645	0.142419	-0.564038	0.195033	0.870170	-71.143872	27.125076
02233		9.290057	0.040228	3.174041	0.001901	-0.007862	0.004707	-0.004727	-0.008973	0.001032	-0.822754	-0.249756	-0.711426	0.092899	0.000404	0.031745	0.789619	0.142413	-0.564088	0.195001	0.870643	-71.150483	27.121137
02234		9.290326	0.039895	3.173256	0.001787	-0.008213	0.004707	-0.007918	-0.007979	0.001801	-0.827637	-0.249512	-0.702148	0.092902	0.000401	0.031736	0.789596	0.142394	-0.564138	0.194965	0.868001	-71.156599	27.118887
02235		9.294471	0.035842	3.148768	0.024398	-0.000559	0.000703	-0.011869	-0.006301	0.001295	-0.820557	-0.249268	-0.707764	0.092944	0.000361	0.031491	0.789581	0.142357	-0.564184	0.194916	0.863874	-71.161682	27.115484
02236		9.312262	0.019399	3.153795	0.032381	-0.014775	0.019086	-0.011738	0.000015	0.001036	-0.822754	-0.252441	-0.710205	0.093123	0.000196	0.031538	0.789584	0.142317	-0.564206	0.194873	0.859938	-71.163338	27.112343
02237		9.278239	0.016569	3.148438	0.027904	-0.019693	-0.014857	-0.010676	-0.001887	0.005887	-0.815918	-0.249268	-0.710449	0.092782	0.000170	0.031485	0.789576	0.142268	-0.564237	0.194848	0.848670	-71.165932	27.117209
02238		9.276944	0.050045	3.142996	0.015935	0.012262	-0.017678	-0.010522	-0.000140	0.000014	-0.820313	-0.246338	-0.707764	0.092769	0.000502	0.031430	0.789580	0.142234	-0.564256	0.194802	0.847360	-71.167449	27.111793
02239		9.260578	0.031511	3.143045	0.019580	-0.006517	-0.033239	-0.008302	0.000314	0.002564	-0.821045	-0.254395	-0.704346	0.092606	0.000318	0.031430	0.789580	0.142202	-0.564274	0.194773	0.842978	-71.168754	27.110821
02240		9.278237	0.015140	3.148449	0.027580	-0.020736	-0.014858	-0.009820	0.001685	0.000013	-0.817383	-0.251709	-0.707520	0.092783	0.000153	0.031484	0.789587	0.142171	-0.564286	0.194732	0.841986	-71.169351	27.105729
02241		9.278158	0.015024	3.148683	0.027475	-0.021081	-0.014859	-0.002032	0.003350	-0.001530	-0.820801	-0.252686	-0.705811	0.092782	0.000150	0.031485	0.789596	0.142171	-0.564283	0.194706	0.847998	-71.168881	27.097569
02242		9.295722	-0.000967	3.154363	0.035485	-0.035307	0.003521	-0.001787	0.004644	0.000767	-0.820313	-0.242188	-0.711182	0.092958	-0.000009	0.031541	0.789605	0.142168	-0.564275	0.194693	0.850453	-71.167743	27.093833
02243		9.273993	0.018492	3.173237	0.004544	-0.029781	-0.010860	0.002164	0.002966	0.001273	-0.818848	-0.244873	-0.704834	0.092740	0.000185	0.031731	0.789607	0.142177	-0.564272	0.194690	0.854170	-71.167518	27.090639
02244		9.260203	0.030775	3.144159	0.019018	-0.008235	-0.033239	-0.001919	-0.001672	0.001024	-0.820068	-0.260498	-0.707520	0.092602	0.000309	0.031442	0.789599	0.142173	-0.564291	0.194669	0.855521	-71.169985	27.086995
02245		9.243885	0.012419	3.144057	0.022662	-0.027010	-0.048805	0.000302	-0.001217	0.003575	-0.827393	-0.240234	-0.705811	0.092439	0.000126	0.031441	0.789588	0.142172	-0.564307	0.194666	0.854409	-71.172176	27.087775
02246		9.260304	0.030185	3.143867	0.018786	-0.008931	-0.033239	-0.002376	-0.002204	0.003323	-0.819580	-0.250732	-0.703369	0.092603	0.000304	0.031440	0.789576	0.142165	-0.564330	0.194657	0.852154	-71.175073	27.088550
02247		9.315932	0.012464	3.130717	0.053884	-0.010592	0.015085	0.002410	0.004260	0.003571	-0.823730	-0.253662	-0.708740	0.093160	0.000126	0.031305	0.789579	0.142168	-0.564322	0.194664	0.852119	-71.174126	27.089468
02248		9.340754	0.055382	3.178536	0.000832	0.009913	0.054214	0.002769	0.000531	0.008422	-0.819336	-0.247803	-0.708252	0.093408	0.000557	0.031785	0.789565	0.142166	-0.564332	0.194693	0.844372	-71.175469	27.099346
02249		9.324269	0.036831	3.178921	0.004474	-0.008863	0.038647	0.005790	0.007071	0.003821	-0.823730	-0.250000	-0.705811	0.093244	0.000369	0.031786	0.789573	0.142178	-0.564311	0.194712	0.845784	-71.172914	27.100782
02250		9.271061	0.084386	3.163442	-0.019993	0.032413	-0.016484	-0.000725	0.002741	0.005618	-0.820068	-0.248779	-0.709473	0.092711	0.000847	0.031633	0.789572	0.142165	-0.564314	0.194719	0.840410	-71.172943	27.105621
02251		9.224536	0.059933	3.134444	0.002002	0.017083	-0.069993	-0.006784	-0.001056	0.005116	-0.823486	-0.249268	-0.712891	0.092245	0.000603	0.031345	0.789565	0.142132	-0.564337	0.194703	0.832643	-71.175054	27.109144
02252		9.195823	0.019390	3.110368	0.032109	-0.012113	-0.105126	-0.010868	-0.005694	0.004867	-0.818115	-0.246094	-0.704102	0.091957	0.000198	0.031106	0.789548	0.142088	-0.564383	0.194671	0.822918	-71.179817	27.112222
02253		9.216303	0.033156	3.085948	0.050977	0.013967	-0.093550	-0.008892	-0.006534	0.005120	-0.821045	-0.246338	-0.709961	0.092162	0.000335	0.030862	0.789527	0.142052	-0.564430	0.194645	0.814064	-71.185066	27.115617
02254		9.260327	0.025937	3.143835	0.017898	-0.011681	-0.033241	0.000302	-0.001218	0.003575	-0.813477	-0.246826	-0.707275	0.092603	0.000261	0.031439	0.789516	0.142051	-0.564447	0.194642	0.812639	-71.187307	27.116601
02255		9.289165	0.065623	3.167584	-0.012420	0.016834	0.001895	-0.000759	0.000686	-0.001276	-0.826172	-0.254395	-0.704102	0.092892	0.000656	0.031676	0.789516	0.142059	-0.564453	0.194618	0.819026	-71.188367	27.108818
02256		9.320571	0.037042	3.202145	-0.019031	-0.019273	0.042637	0.001250	0.001901	0.005871	-0.824951	-0.245117	-0.713379	0.093206	0.000373	0.032021	0.789510	0.142055	-0.564457	0.194632	0.814591	-71.188871	27.114111
02257		9.332932	0.058682	3.226223	-0.045604	-0.009187	0.062201	0.003079	0.004030	-0.003324	-0.815430	-0.246094	-0.704590	0.093330	0.000585	0.032260	0.789519	0.142080	-0.564445	0.194614	0.826542	-71.188000	27.102773
02258		9.273794	0.013502	3.173845	0.002847	-0.034923	-0.010876	0.000590	0.006848	-0.002555	-0.819092	-0.249512	-0.708008	0.092739	0.000134	0.031735	0.789537	0.142088	-0.564425	0.194593	0.835325	-71.185531	27.092974
02259		9.276199	0.044218	3.145283	0.013605	0.005031	-0.017668	0.001349	0.006162	-0.001279	-0.814209	-0.240723	-0.708984	0.092763	0.000441	0.031450	0.789551	0.142099	-0.564408	0.194579	0.842791	-71.183453	27.085327
02260		9.267463	0.019089	3.098260	0.062686	0.002268	-0.041223	-0.000626	0.007001	-0.001532	-0.811768	-0.242676	-0.710205	0.092676	0.000190	0.030979	0.789570	0.142098	-0.564389	0.194558	0.849175	-71.180850	27.077235
02261		9.249662	0.034910	3.093309	0.054471	0.015806	-0.059595	-0.000212	0.000761	0.004597	-0.813477	-0.251221	-0.703369	0.092497	0.000351	0.030933	0.789564	0.142091	-0.564398	0.194559	0.846000	-71.181916	27.079884
02262		9.233370	0.016372	3.093100	0.058122	-0.002950	-0.075169	-0.003782	-0.005855	0.003325	-0.816650	-0.254150	-0.708252	0.092333	0.000166	0.030934	0.789544	0.142079	-0.564436	0.194540	0.842975	-71.186684	27.080050
02263		9.181971	0.029383	3.081516	0.045545	0.006052	-0.127488	-0.010644	-0.015740	0.009975	-0.811279	-0.247803	-0.705078	0.091817	0.000300	0.030822	0.789494	0.142032	-0.564525	0.194522	0.825178	-71.197248	27.091830
02264		9.206736	0.039044	3.032172	0.087153	0.040110	-0.119888	-0.014730	-0.020379	0.009726	-0.817871	-0.240967	-0.704102	0.092064	0.000397	0.030331	0.789433	0.141975	-0.564635	0.194489	0.805777	-71.210414	27.103139
02265		9.264298	-0.013378	3.022370	0.134096	0.006100	-0.068761	-0.013605	-0.020076	0.000533	-0.810303	-0.250244	-0.706787	0.092640	-0.000131	0.030233	0.789382	0.141947	-0.564736	0.194422	0.802260	-71.223384	27.098044
02266		9.315268	0.006754	3.025961	0.134609	0.028723	-0.019233	-0.005415	-0.015367	-0.004587	-0.813965	-0.252930	-0.713135	0.093150	0.000066	0.030267	0.789344	0.141960	-0.564808	0.194360	0.811741	-71.233588	27.083981
02267		9.311642	0.010859	3.048937	0.111782	0.020386	-0.015243	0.003155	-0.003046	-0.007666	-0.817383	-0.249756	-0.712646	0.093116	0.000105	0.030491	0.789337	0.142004	-0.564821	0.194320	0.831257	-71.236733	27.064702
02268		9.329400	-0.004234	3.053996	0.119817	0.006155	0.003128	0.010487	-0.001913	-0.006912	-0.821289	-0.254150	-0.714600	0.093294	-0.000047	0.030541	0.789328	0.142074	-0.564821	0.194304	0.853897	-71.239052	27.046558
02269		9.370060	0.025965	3.005929	0.157669	0.058627	0.026317	0.010754	-0.005186	-0.010232	-0.821045	-0.250977	-0.708008	0.093700	0.000253	0.030062	0.789312	0.142158	-0.564833	0.194273	0.882163	-71.243396	27.022637
02270		9.435749	0.099607	3.005130	0.142599	0.131950	0.088643	0.008131	-0.008686	-0.009205	-0.819092	-0.246094	-0.701416	0.094356	0.000991	0.030055	0.789287	0.142234	-0.564861	0.194239	0.907479	-71.249719	27.000531
02271		9.449891	0.088059	3.033119	0.127878	0.109719	0.111002	0.005109	-0.015230	-0.004601	-0.812500	-0.247803	-0.704102	0.094497	0.000878	0.030338	0.789241	0.142289	-0.564922	0.194207	0.923305	-71.259863	26.986333
02272		9.456405	0.083251	3.108310	0.067693	0.071513	0.141328	0.001271	-0.018577	-0.002550	-0.811279	-0.239990	-0.707520	0.094561	0.000831	0.031092	0.789186	0.142327	-0.565001	0.194172	0.933388	-71.272009	26.975912
02273		9.521259	0.091097	3.140722	0.053587	0.072224	0.213215	-0.004998	-0.021617	0.001549	-0.822021	-0.247559	-0.702637	0.095209	0.000912	0.031417	0.789123	0.142331	-0.565102	0.194131	0.933230	-71.285867	26.972478
02274		9.473557	0.068693	3.234421	-0.029943	0.003105	0.197986	-0.011950	-0.015140	0.002838	-0.818115	-0.247070	-0.710205	0.094733	0.000690	0.032351	0.789083	0.142295	-0.565185	0.194079	0.926238	-71.296046	26.971592
02275		9.403146	0.033254	3.252335	-0.049648	-0.046593	0.136851	-0.013658	-0.001661	0.002072	-0.819824	-0.249268	-0.708252	0.094031	0.000336	0.032524	0.789082	0.142244	-0.565215	0.194031	0.919685	-71.298477	26.969672
02276		9.378789	0.021486	3.300689	-0.091458	-0.081322	0.129229	-0.015631	0.015090	0.004626	-0.809326	-0.246094	-0.706787	0.093790	0.000220	0.033000	0.789128	0.142161	-0.565183	0.193998	0.907077	-71.291288	26.972769
02277		9.314750	-0.053695	3.403408	-0.159391	-0.201181	0.101180	-0.013844	0.026354	0.006665	-0.821533	-0.243652	-0.711914	0.093152	-0.000531	0.034022	0.789202	0.142070	-0.565106	0.193988	0.891903	-71.277711	26.979839
02278		9.242991	-0.089391	3.424937	-0.179095	-0.250837	0.040032	-0.013312	0.035714	0.002836	-0.810547	-0.246094	-0.714111	0.092436	-0.000890	0.034233	0.789307	0.141979	-0.564989	0.193967	0.882923	-71.258628	26.980130
02279		9.179367	-0.099694	3.495152	-0.247997	-0.298073	0.002426	-0.025851	0.050257	-0.001476	-0.808838	-0.254883	-0.706055	0.091802	-0.000993	0.034929	0.789465	0.141839	-0.564824	0.193907	0.874016	-71.231284	26.973317
02280		9.064140	-0.162187	3.465814	-0.222836	-0.354701	-0.116228	-0.027847	0.060370	-0.011421	-0.815430	-0.246094	-0.712158	0.090652	-0.001622	0.034631	0.789664	0.141711	-0.564612	0.193809	0.880709	-71.197838	26.948795
02281		9.058360	-0.157968	3.494501	-0.245672	-0.363024	-0.112263	-0.032191	0.047811	-0.026480	-0.812500	-0.243896	-0.711670	0.090592	-0.001586	0.034924	0.789844	0.141619	-0.564444	0.193631	0.910228	-71.171671	26.897547
02282		9.122943	-0.150165	3.408766	-0.154255	-0.308460	-0.078655	-0.042598	0.047348	-0.039225	-0.810059	-0.246826	-0.705322	0.091237	-0.001512	0.034066	0.790044	0.141520	-0.564280	0.193370	0.954739	-71.145501	26.823609
02283		9.216235	-0.101523	3.347375	-0.093053	-0.225090	-0.009887	-0.057132	0.056077	-0.056291	-0.809082	-0.244141	-0.715820	0.092171	-0.001032	0.033448	0.790293	0.141406	-0.564082	0.193009	1.019422	-71.114278	26.720081
02284		9.204156	-0.088865	3.300967	-0.055794	-0.195537	-0.036215	-0.085834	0.087726	-0.075845	-0.815430	-0.255859	-0.718750	0.092056	-0.000909	0.032970	0.790672	0.141201	-0.563773	0.192510	1.098815	-71.064523	26.583186
02285		8.996333	-0.130373	3.405893	-0.175745	-0.309082	-0.198911	-0.092648	0.079961	-0.083219	-0.806152	-0.243896	-0.717773	0.089976	-0.001325	0.034024	0.791039	0.141000	-0.563497	0.191960	1.186523	-71.019220	26.433742
02286		8.943748	-0.048134	3.589790	-0.377564	-0.327053	-0.188239	-0.089552	0.004819	-0.087985	-0.805176	-0.254150	-0.717285	0.089438	-0.000505	0.035896	0.791198	0.140895	-0.563509	0.191345	1.286282	-71.016576	26.273164
02287		9.012578	-0.039219	3.598724	-0.368960	-0.318366	-0.120349	-0.108692	-0.045840	-0.090398	-0.812500	-0.239746	-0.714600	0.090117	-0.000413	0.036008	0.791227	0.140771	-0.563739	0.190632	1.381104	-71.043075	26.106467
02288		9.102504	-0.047274	3.485715	-0.246701	-0.269742	-0.072339	-0.122840	-0.054798	-0.098533	-0.815918	-0.242920	-0.715576	0.091015	-0.000496	0.034882	0.791251	0.140619	-0.564012	0.189838	1.481972	-71.074296	25.924432
02289		9.087982	-0.060767	3.481074	-0.243073	-0.288489	-0.087943	-0.113795	-0.042472	-0.095640	-0.817139	-0.244385	-0.712158	0.090872	-0.000631	0.034830	0.791298	0.140487	-0.564230	0.189092	1.583258	-71.098597	25.747868
02290		9.071437	-0.039920	3.472722	-0.251297	-0.274886	-0.106316	-0.107100	-0.025566	-0.097826	-0.817627	-0.244873	-0.710693	0.090710	-0.000425	0.034739	0.791390	0.140367	-0.564373	0.188367	1.690938	-71.113070	25.568142
02291		9.113192	-0.104202	3.462715	-0.200657	-0.327369	-0.070814	-0.111685	-0.006147	-0.094360	-0.802979	-0.251465	-0.715088	0.091130	-0.001066	0.034631	0.791536	0.140204	-0.564445	0.187657	1.789967	-71.116382	25.395270
02292		9.055146	-0.114044	3.504525	-0.246830	-0.366567	-0.112426	-0.116702	0.001393	-0.085851	-0.815674	-0.248535	-0.714600	0.090551	-0.001159	0.035045	0.791699	0.139990	-0.564497	0.186972	1.871393	-71.115336	25.237923
02293		9.046485	-0.200795	3.489631	-0.196813	-0.441964	-0.126478	-0.125159	-0.011564	-0.074653	-0.815186	-0.251953	-0.711182	0.090462	-0.002020	0.034903	0.791820	0.139724	-0.564616	0.186299	1.930071	-71.121968	25.099541
02294		9.062487	-0.277231	3.425981	-0.105080	-0.482989	-0.132886	-0.130905	-0.021484	-0.056314	-0.811035	-0.255615	-0.720215	0.090620	-0.002775	0.034271	0.791898	0.139393	-0.564793	0.185677	1.955347	-71.134607	24.993309
02295		9.039022	-0.354820	3.503428	-0.145980	-0.590312	-0.131053	-0.125597	-0.048745	-0.029231	-0.817871	-0.247559	-0.713135	0.090381	-0.003539	0.035059	0.791871	0.139031	-0.565091	0.185156	1.939955	-71.163377	24.932955
02296		9.075408	-0.355165	3.502387	-0.141723	-0.586149	-0.097121	-0.126817	-0.082467	-0.007287	-0.810059	-0.254395	-0.715820	0.090740	-0.003533	0.035064	0.791729	0.138635	-0.565537	0.184696	1.889055	-71.211782	24.909715
02297		9.131857	-0.472660	3.541357	-0.116632	-0.700837	-0.032573	-0.109825	-0.115965	0.018900	-0.814697	-0.241455	-0.712402	0.091298	-0.004699	0.035469	0.791456	0.138261	-0.566120	0.184364	1.805349	-71.279970	24.931084
02298		9.268599	-0.466383	3.573822	-0.122046	-0.691168	0.107192	-0.106005	-0.146508	0.037779	-0.807373	-0.246826	-0.706055	0.092661	-0.004627	0.035809	0.791076	0.137877	-0.566831	0.184096	1.692944	-71.365839	24.985210
02299		9.340431	-0.565257	3.507683	-0.017880	-0.741630	0.153087	-0.110958	-0.141580	0.047604	-0.814209	-0.249268	-0.716797	0.093381	-0.005611	0.035146	0.790703	0.137441	-0.567535	0.183856	1.559986	-71.449137	25.057838
02300		9.310943	-0.576045	3.488949	-0.022325	-0.746464	0.119106	-0.093573	-0.136220	0.056258	-0.817871	-0.238037	-0.709473	0.093087	-0.005718	0.034956	0.790325	0.137046	-0.568205	0.183705	1.421181	-71.529259	25.147472
02301		9.345513	-0.579230	3.505036	-0.040828	-0.750299	0.157005	-0.092742	-0.130695	0.057381	-0.812012	-0.235596	-0.708740	0.093434	-0.005749	0.035114	0.789961	0.136644	-0.568855	0.183562	1.279570	-71.606341	25.240153
02302		9.347315	-0.618938	3.521547	-0.051859	-0.790903	0.163707	-0.091934	-0.113766	0.055806	-0.822021	-0.241699	-0.707764	0.093455	-0.006147	0.035271	0.789645	0.136230	-0.569435	0.183425	1.138897	-71.673509	25.331848
02303		9.264568	-0.615521	3.496570	-0.068785	-0.786311	0.077411	-0.082231	-0.090087	0.049106	-0.820801	-0.247559	-0.699463	0.092631	-0.006118	0.035010	0.789396	0.135856	-0.569909	0.183307	1.014525	-71.727099	25.412645
02304		9.199289	-0.562209	3.445958	-0.078537	-0.723015	-0.000007	-0.073077	-0.064210	0.056193	-0.815430	-0.244629	-0.707031	0.091983	-0.005584	0.034491	0.789206	0.135477	-0.570276	0.183265	0.881796	-71.765910	25.508552
02305		9.123563	-0.534488	3.474112	-0.144655	-0.715964	-0.062764	-0.067296	-0.041183	0.063027	-0.822754	-0.231445	-0.701904	0.091230	-0.005304	0.034762	0.789072	0.135077	-0.570552	0.183278	0.739442	-71.791477	25.617253
02306		9.070719	-0.495132	3.456917	-0.169042	-0.674526	-0.117854	-0.058674	-0.017666	0.078254	-0.811035	-0.239014	-0.709229	0.090706	-0.004906	0.034579	0.788985	0.134646	-0.570736	0.183393	0.574345	-71.803508	25.755294
02307		9.070352	-0.504829	3.456477	-0.169166	-0.674862	-0.117879	-0.044987	0.013667	0.096070	-0.817383	-0.241455	-0.707764	0.090708	-0.004997	0.034560	0.788962	0.134190	-0.570797	0.183636	0.385809	-71.797612	25.926050
02308		8.927789	-0.421826	3.425981	-0.222127	-0.596144	-0.261983	-0.033342	0.052839	0.118099	-0.817871	-0.239502	-0.708496	0.089289	-0.004160	0.034237	0.789024	0.133681	-0.570705	0.184028	0.165523	-71.768877	26.137603
02309		8.865521	-0.414295	3.470270	-0.280149	-0.602990	-0.306386	-0.014015	0.087397	0.138747	-0.818115	-0.239990	-0.705811	0.088673	-0.004079	0.034664	0.789151	0.133157	-0.570475	0.184577	-0.078822	-71.720348	26.385866
02310		8.761451	-0.402402	3.435657	-0.282388	-0.576451	-0.414995	0.002158	0.115780	0.155823	-0.820557	-0.239990	-0.703369	0.087637	-0.003956	0.034306	0.789331	0.132625	-0.570127	0.185263	-0.341791	-71.655031	26.664257
02311		8.627624	-0.431141	3.378284	-0.254450	-0.578734	-0.558777	0.006373	0.135201	0.188277	-0.823486	-0.230713	-0.701416	0.086303	-0.004231	0.033724	0.789533	0.131995	-0.569721	0.186097	-0.655972	-71.578133	26.998607
02312		8.589495	-0.548084	3.297231	-0.140619	-0.634666	-0.618725	0.031061	0.127730	0.214379	-0.820068	-0.233398	-0.709717	0.085922	-0.005394	0.032917	0.789671	0.131400	-0.569338	0.187106	-0.998498	-71.504765	27.378767
02313		8.573899	-0.556329	3.256014	-0.103363	-0.605107	-0.645027	0.032365	0.135143	0.241172	-0.813232	-0.229736	-0.707031	0.085768	-0.005465	0.032501	0.789804	0.130722	-0.568941	0.188222	-1.382598	-71.426002	27.802861
02314		8.615149	-0.618374	3.204640	-0.019100	-0.609326	-0.620234	0.046166	0.109537	0.270303	-0.815186	-0.232666	-0.713379	0.086177	-0.006075	0.031998	0.789826	0.130041	-0.568649	0.189480	-1.806463	-71.360384	28.277965
02315		8.695793	-0.520237	3.187232	-0.026989	-0.477354	-0.548926	0.053148	0.089582	0.296274	-0.819580	-0.230225	-0.708252	0.086980	-0.005082	0.031832	0.789761	0.129331	-0.568446	0.190843	-2.268229	-71.304604	28.796939
02316		8.866367	-0.406600	3.154983	-0.007160	-0.310059	-0.398047	0.057662	0.062811	0.319916	-0.819580	-0.221680	-0.716064	0.088680	-0.003933	0.031521	0.789591	0.128601	-0.568356	0.192300	-2.766572	-71.262050	29.358232
02317		9.018141	-0.345472	3.150177	0.005475	-0.201483	-0.256060	0.054611	0.074793	0.349770	-0.812500	-0.219971	-0.715576	0.090199	-0.003306	0.031467	0.789427	0.127758	-0.568242	0.193867	-3.313258	-71.210207	29.968074
02318		9.183962	-0.334664	3.180352	0.015304	-0.147102	-0.089013	0.086264	0.094352	0.366766	-0.810303	-0.224365	-0.713623	0.091861	-0.003192	0.031759	0.789280	0.126971	-0.568027	0.195605	-3.865325	-71.144452	30.603004
02319		9.333648	-0.313418	3.308291	-0.065819	-0.124681	0.093878	0.099463	0.114462	0.384187	-0.817871	-0.216309	-0.715820	0.093361	-0.002971	0.033028	0.789161	0.126168	-0.567730	0.197459	-4.431609	-71.064728	31.261199
02320		9.495031	-0.371251	3.376116	-0.055079	-0.142967	0.270368	0.118448	0.138238	0.383453	-0.819336	-0.215576	-0.716309	0.094981	-0.003550	0.033693	0.789094	0.125419	-0.567315	0.199383	-4.977271	-70.969173	31.909921
02321		9.638247	-0.446155	3.446355	-0.040639	-0.179687	0.431247	0.147982	0.160751	0.367542	-0.816406	-0.221191	-0.712646	0.096418	-0.004310	0.034383	0.789086	0.124808	-0.566772	0.201337	-5.470218	-70.859919	32.520681
02322		9.783941	-0.420020	3.481247	-0.038908	-0.111458	0.579953	0.170452	0.176414	0.348758	-0.820557	-0.223145	-0.719238	0.097877	-0.004059	0.034723	0.789122	0.124325	-0.566128	0.203295	-5.910702	-70.741076	33.090789
02323		9.950647	-0.479962	3.508108	0.017255	-0.113855	0.748525	0.199858	0.174175	0.318459	-0.813965	-0.218018	-0.711914	0.099544	-0.004676	0.034990	0.789162	0.124043	-0.565444	0.205208	-6.279543	-70.624137	33.602397
02324		10.148126	-0.293928	3.531687	-0.027669	0.106488	0.935871	0.224148	0.178196	0.294406	-0.818115	-0.210938	-0.724365	0.101517	-0.002829	0.035223	0.789217	0.123926	-0.564699	0.207106	-6.589382	-70.505386	34.067898
02325		10.200216	-0.235455	3.500723	-0.005348	0.209566	0.972065	0.219575	0.209713	0.273140	-0.805908	-0.226807	-0.722656	0.102042	-0.002254	0.034898	0.789385	0.123812	-0.563822	0.208917	-6.857470	-70.369416	34.485344
02326		10.163492	-0.087514	3.469752	-0.046113	0.374337	0.920489	0.226839	0.241007	0.250846	-0.812988	-0.213867	-0.725830	0.101678	-0.000787	0.034574	0.789657	0.123760	-0.562794	0.210684	-7.074770	-70.216345	34.854570
02327		10.185037	-0.063710	3.418398	0.006419	0.448603	0.921515	0.203160	0.240236	0.229659	-0.819580	-0.220215	-0.729736	0.101892	-0.000555	0.034061	0.789961	0.123671	-0.561782	0.212295	-7.268464	-70.065045	35.183694
02328		10.114344	0.024007	3.191555	0.150621	0.635948	0.773122	0.201719	0.257532	0.203263	-0.806641	-0.221680	-0.727539	0.101184	0.000311	0.031786	0.790338	0.123634	-0.560683	0.213812	-7.414419	-69.905366	35.462248
02329		9.894248	0.052557	3.124146	0.150012	0.671045	0.540394	0.191980	0.282176	0.183792	-0.810791	-0.218750	-0.731201	0.098986	0.000587	0.031102	0.790809	0.123583	-0.559484	0.215234	-7.527616	-69.733075	35.699459
02330		9.714975	0.005870	3.126283	0.140015	0.616084	0.373342	0.184842	0.278806	0.163348	-0.810303	-0.213623	-0.717041	0.097193	0.000109	0.031127	0.791293	0.123569	-0.558290	0.216559	-7.611309	-69.563951	35.901992
02331		9.584906	0.085506	3.141821	0.072435	0.672977	0.251634	0.203255	0.276482	0.140085	-0.804932	-0.223145	-0.731934	0.095892	0.000890	0.031287	0.791783	0.123690	-0.557071	0.217834	-7.647614	-69.397993	36.064521
02332		9.609955	0.112647	3.269312	-0.018009	0.663576	0.317051	0.214609	0.267566	0.113865	-0.811768	-0.217041	-0.740234	0.096143	0.001146	0.032566	0.792265	0.123942	-0.555856	0.219038	-7.638591	-69.239081	36.186596
02333		9.610984	0.203493	3.332837	-0.090941	0.730314	0.335146	0.222614	0.291085	0.082358	-0.793457	-0.219971	-0.745361	0.096157	0.002038	0.033191	0.792841	0.124284	-0.554519	0.220147	-7.572377	-69.069231	36.251642
02334		9.572753	0.302224	3.414699	-0.190939	0.784662	0.323233	0.224458	0.300983	0.036477	-0.805908	-0.227051	-0.739014	0.095778	0.003001	0.034006	0.793492	0.124749	-0.553109	0.221087	-7.435874	-68.897064	36.242911
02335		9.514699	0.426898	3.413790	-0.238896	0.890784	0.262780	0.219302	0.311778	0.002609	-0.794922	-0.220215	-0.735596	0.095200	0.004233	0.033994	0.794210	0.125275	-0.551639	0.221882	-7.251672	-68.721402	36.179528
02336		9.498363	0.406180	3.471534	-0.249926	0.850146	0.269482	0.229596	0.307256	-0.035647	-0.797363	-0.229736	-0.749512	0.095038	0.004005	0.034574	0.794947	0.125954	-0.550150	0.222554	-7.009255	-68.550905	36.060543
02337		9.533192	0.406514	3.535796	-0.260335	0.832327	0.325765	0.242828	0.293547	-0.062463	-0.791260	-0.224609	-0.741699	0.095385	0.003993	0.035223	0.795666	0.126772	-0.548682	0.223142	-6.725637	-68.389888	35.904632
02338		9.475299	0.367048	3.537271	-0.226496	0.784806	0.274977	0.259791	0.288624	-0.089114	-0.795654	-0.242188	-0.741455	0.094806	0.003582	0.035241	0.796387	0.127736	-0.547195	0.223670	-6.398542	-68.233038	35.712705
02339		9.408453	0.372870	3.579863	-0.249933	0.753652	0.229368	0.272132	0.295469	-0.114509	-0.786133	-0.229492	-0.742432	0.094139	0.003626	0.035665	0.797145	0.128810	-0.545649	0.224130	-6.030797	-68.073513	35.483903
02340		9.347516	0.236842	3.600009	-0.180668	0.609140	0.186733	0.282935	0.308021	-0.136782	-0.783447	-0.238770	-0.750000	0.093532	0.002254	0.035859	0.797950	0.129976	-0.544023	0.224544	-5.628215	-67.907530	35.224686
02341		9.308983	0.115416	3.598511	-0.092393	0.490979	0.155764	0.288773	0.312543	-0.147547	-0.796143	-0.236084	-0.754883	0.093147	0.001034	0.035841	0.798773	0.131186	-0.542364	0.224927	-5.211379	-67.738888	34.952636
02342		9.254324	0.011173	3.591167	-0.012201	0.386779	0.106448	0.289208	0.316004	-0.148400	-0.784668	-0.253662	-0.756836	0.092600	-0.000009	0.035765	0.799602	0.132397	-0.540687	0.225313	-4.798015	-67.567521	34.684731
02343		9.174444	-0.167869	3.465973	0.192873	0.267272	-0.009484	0.278471	0.326059	-0.142950	-0.789063	-0.246826	-0.757568	0.091800	-0.001792	0.034508	0.800455	0.133536	-0.538983	0.225693	-4.402032	-67.389496	34.428190
02344		9.125411	-0.275558	3.360790	0.355931	0.208908	-0.092939	0.284436	0.343036	-0.135349	-0.787598	-0.256348	-0.762451	0.091310	-0.002865	0.033447	0.801336	0.134662	-0.537206	0.226134	-4.016472	-67.200746	34.186985
02345		9.084108	-0.324161	3.298127	0.457979	0.185301	-0.155591	0.284830	0.354552	-0.129489	-0.781006	-0.254883	-0.765381	0.090897	-0.003347	0.032815	0.802238	0.135757	-0.535384	0.226602	-3.642499	-67.004613	33.957587
02346		8.942231	-0.376734	3.213175	0.547004	0.148406	-0.320135	0.274463	0.365852	-0.115835	-0.770508	-0.262207	-0.771729	0.089479	-0.003863	0.031963	0.803156	0.136763	-0.533534	0.227108	-3.296956	-66.800956	33.752898
02347		8.941117	-0.432941	3.136107	0.676131	0.137211	-0.352768	0.265948	0.358429	-0.103367	-0.776611	-0.263428	-0.766113	0.089465	-0.004417	0.031195	0.804043	0.137707	-0.531730	0.227630	-2.977806	-66.600722	33.570723
02348		8.958279	-0.442067	3.129467	0.729580	0.138883	-0.342309	0.263210	0.343575	-0.087286	-0.764404	-0.261719	-0.761230	0.089634	-0.004501	0.031135	0.804868	0.138616	-0.529996	0.228203	-2.686546	-66.408125	33.417558
02349		8.983794	-0.356077	3.078300	0.770350	0.245502	-0.343925	0.255406	0.335637	-0.073580	-0.764648	-0.273926	-0.771729	0.089888	-0.003633	0.030628	0.805660	0.139462	-0.528311	0.228799	-2.421347	-66.219453	33.287167
02350		8.986919	-0.218228	3.112633	0.708363	0.352585	-0.332465	0.260257	0.339970	-0.063173	-0.765137	-0.268555	-0.776855	0.089921	-0.002251	0.030971	0.806443	0.140298	-0.526608	0.229457	-2.169772	-66.027831	33.175173
02351		9.010427	-0.104154	3.208611	0.617061	0.415807	-0.276437	0.254811	0.348242	-0.052303	-0.751221	-0.275391	-0.773682	0.090160	-0.001106	0.031928	0.807237	0.141071	-0.524883	0.230144	-1.937445	-65.831055	33.080023
02352		8.955783	0.018395	3.256985	0.531738	0.492110	-0.310618	0.245990	0.353941	-0.041882	-0.755615	-0.281982	-0.771973	0.089615	0.000125	0.032411	0.808035	0.141775	-0.523149	0.230857	-1.725859	-65.630680	33.002441
02353		8.936162	0.141958	3.236031	0.510909	0.610697	-0.340995	0.237745	0.351773	-0.026245	-0.754883	-0.284424	-0.777344	0.089419	0.001370	0.032205	0.808812	0.142405	-0.521443	0.231605	-1.540750	-65.431176	32.948128
02354		8.915393	0.296755	3.283941	0.418119	0.723764	-0.343907	0.232336	0.344778	-0.018166	-0.746582	-0.281738	-0.788818	0.089211	0.002921	0.032689	0.809560	0.143003	-0.519774	0.232372	-1.370961	-65.235537	32.908013
02355		8.889174	0.389332	3.291340	0.386366	0.802054	-0.367622	0.229181	0.346661	-0.009001	-0.748291	-0.289795	-0.788818	0.088949	0.003852	0.032764	0.810304	0.143559	-0.518107	0.233162	-1.215661	-65.038608	32.880974
02356		8.866563	0.475076	3.352456	0.317193	0.850460	-0.365116	0.222004	0.346669	-0.001641	-0.737061	-0.285400	-0.782471	0.088724	0.004713	0.033376	0.811039	0.144067	-0.516450	0.233966	-1.074938	-64.841599	32.866008
02357		8.893864	0.444878	3.375500	0.355997	0.830189	-0.332355	0.215782	0.342693	-0.002201	-0.742676	-0.295166	-0.789551	0.088996	0.004411	0.033607	0.811767	0.144554	-0.514815	0.234744	-0.938181	-64.646821	32.850895
02358		8.891921	0.441485	3.436316	0.341232	0.807937	-0.310049	0.209638	0.343509	-0.005400	-0.740234	-0.288574	-0.794678	0.088978	0.004377	0.034215	0.812500	0.145025	-0.513179	0.235498	-0.802274	-64.451657	32.833497
02359		8.921155	0.371911	3.521744	0.354428	0.725430	-0.248376	0.199760	0.343878	-0.002175	-0.738770	-0.294678	-0.798340	0.089272	0.003683	0.035068	0.813236	0.145444	-0.511553	0.236234	-0.676838	-64.256172	32.820711
02360		8.888451	0.361187	3.627078	0.297918	0.668857	-0.233830	0.179598	0.324625	0.000179	-0.732910	-0.300049	-0.800293	0.088943	0.003579	0.036130	0.813930	0.145800	-0.510030	0.236917	-0.567008	-64.071769	32.812952
02361		8.905397	0.306595	3.625786	0.363186	0.638170	-0.220650	0.156622	0.320964	0.001062	-0.733887	-0.301025	-0.800781	0.089112	0.003038	0.036117	0.814630	0.146061	-0.508548	0.237537	-0.472060	-63.889375	32.806548
02362		8.837847	0.331844	3.658010	0.327944	0.639412	-0.268986	0.138190	0.311468	0.009005	-0.734619	-0.290283	-0.801514	0.088435	0.003297	0.036445	0.815305	0.146241	-0.507130	0.238141	-0.397650	-63.712479	32.811974
02363		8.778967	0.311496	3.727914	0.289855	0.586395	-0.292357	0.108396	0.292137	0.011690	-0.724854	-0.297852	-0.792725	0.087844	0.003100	0.037153	0.815949	0.146313	-0.505827	0.238660	-0.343874	-63.546556	32.820665
02364		8.697327	0.311990	3.810242	0.220935	0.539372	-0.330125	0.094373	0.281279	0.012138	-0.719727	-0.290527	-0.805176	0.087027	0.003107	0.037982	0.816572	0.146341	-0.504585	0.239141	-0.299006	-63.386965	32.830928
02365		8.635744	0.358087	3.938774	0.099097	0.513170	-0.328752	0.085609	0.272108	0.013483	-0.721191	-0.300293	-0.805908	0.086411	0.003570	0.039272	0.817177	0.146338	-0.503391	0.239594	-0.260857	-63.232519	32.842520
02366		8.584243	0.330403	3.981882	0.083723	0.468127	-0.356072	0.065022	0.255212	0.016454	-0.715576	-0.298828	-0.809326	0.085893	0.003298	0.039710	0.817748	0.146265	-0.502291	0.239997	-0.238085	-63.087852	32.858585
02367		8.535866	0.272427	3.899919	0.177729	0.458521	-0.437043	0.051007	0.237616	0.026659	-0.717285	-0.293945	-0.808350	0.085405	0.002726	0.038898	0.818272	0.146129	-0.501287	0.240391	-0.234853	-62.953141	32.887141
02368		8.491593	0.203063	3.925516	0.196889	0.389112	-0.465610	0.035301	0.231621	0.033471	-0.719238	-0.299316	-0.814453	0.084961	0.002038	0.039157	0.818783	0.145920	-0.500331	0.240772	-0.248125	-62.821964	32.924610
02369		8.500885	0.122165	3.837778	0.326033	0.377919	-0.498217	0.015301	0.210596	0.036650	-0.718506	-0.299316	-0.815430	0.085049	0.001234	0.038288	0.819252	0.145644	-0.499486	0.241097	-0.276210	-62.702702	32.965445
02370		8.517914	0.092551	3.895234	0.319321	0.341694	-0.457607	0.015909	0.181866	0.045574	-0.718994	-0.304443	-0.816406	0.085214	0.000942	0.038875	0.819635	0.145386	-0.498765	0.241442	-0.313697	-62.599994	33.017833
02371		8.580590	0.023803	3.869707	0.411651	0.323373	-0.414407	0.000664	0.170261	0.044360	-0.708984	-0.302246	-0.813965	0.085839	0.000257	0.038624	0.820004	0.145079	-0.498108	0.241733	-0.358312	-62.503792	33.067923
02372		8.641371	-0.073972	3.796983	0.553167	0.302599	-0.394711	0.002303	0.158635	0.047770	-0.713135	-0.296387	-0.827148	0.086444	-0.000720	0.037901	0.820335	0.144788	-0.497499	0.242037	-0.405482	-62.414363	33.122691
02373		8.663808	-0.172233	3.789519	0.630213	0.239558	-0.378859	0.008157	0.135954	0.043113	-0.705322	-0.288330	-0.817139	0.086664	-0.001705	0.037836	0.820613	0.144557	-0.496972	0.242316	-0.444101	-62.337786	33.170939
02374		8.687290	-0.231771	3.717910	0.732861	0.238745	-0.391886	0.012131	0.113283	0.047577	-0.708252	-0.293945	-0.810059	0.086894	-0.002299	0.037130	0.820824	0.144359	-0.496537	0.242608	-0.485331	-62.274304	33.224974
02375		8.694718	-0.308535	3.642991	0.839261	0.219566	-0.420556	0.021164	0.087206	0.043737	-0.704346	-0.287842	-0.815918	0.086964	-0.003070	0.036392	0.820970	0.144238	-0.496195	0.242886	-0.517218	-62.225624	33.274093
02376		8.709135	-0.255591	3.589020	0.861050	0.299836	-0.433769	0.031165	0.072566	0.046621	-0.708740	-0.301025	-0.816895	0.087105	-0.002541	0.035858	0.821068	0.144171	-0.495903	0.243193	-0.546562	-62.185480	33.327231
02377		8.767238	-0.140100	3.505684	0.886362	0.457157	-0.422305	0.035234	0.053549	0.052083	-0.703613	-0.301270	-0.816650	0.087682	-0.001384	0.035033	0.821110	0.144129	-0.495687	0.243516	-0.579561	-62.156011	33.386758
02378		8.879163	0.023614	3.928562	0.529129	0.424840	-0.126965	0.102828	0.037605	0.050369	-0.709717	-0.295166	-0.814209	0.088799	0.000238	0.039269	0.821063	0.144390	-0.495454	0.243992	-0.572064	-62.135872	33.444983
02379		9.166112	0.432993	4.795937	-0.222863	0.426057	0.530180	0.185903	0.021353	0.042435	-0.705322	-0.293213	-0.812744	0.091665	0.004305	0.047954	0.820928	0.145029	-0.495180	0.244625	-0.508544	-62.124913	33.493003
02380		9.263519	0.442079	4.829306	-0.209996	0.438880	0.632106	0.184816	0.032975	0.030913	-0.710449	-0.303711	-0.812500	0.092642	0.004390	0.048282	0.820833	0.145680	-0.494851	0.245220	-0.433110	-62.107581	33.527325
02381		9.287799	0.407183	4.586803	0.004945	0.527754	0.540535	0.207567	0.042082	0.003075	-0.701904	-0.300537	-0.816650	0.092888	0.004026	0.045853	0.820780	0.146480	-0.494435	0.245760	-0.314445	-62.084958	33.527004
02382		9.281766	0.309106	4.220388	0.336697	0.615297	0.364072	0.184008	0.063043	-0.030417	-0.710449	-0.302246	-0.803467	0.092831	0.003038	0.042177	0.820834	0.147243	-0.493938	0.246123	-0.173052	-62.050604	33.486297
02383		9.148121	0.184314	4.084939	0.464039	0.535789	0.182631	0.175468	0.061830	-0.048760	-0.699707	-0.300781	-0.815918	0.091494	0.001785	0.040823	0.820915	0.148014	-0.493442	0.246385	-0.017016	-62.016714	33.422841
02384		9.157741	0.338838	4.372817	0.180428	0.517725	0.326343	0.207760	0.011853	-0.062729	-0.704102	-0.302246	-0.816650	0.091581	0.003314	0.043726	0.820863	0.149017	-0.493101	0.246635	0.172424	-62.011585	33.343055
02385		9.246378	0.592778	4.629273	-0.107102	0.613448	0.526038	0.185197	-0.034529	-0.069422	-0.700195	-0.308350	-0.813232	0.092458	0.005853	0.046314	0.820723	0.149997	-0.492972	0.246764	0.356371	-62.032664	33.254301
02386		9.307515	0.558986	4.445508	0.074729	0.676782	0.494650	0.134738	-0.033850	-0.071778	-0.703369	-0.306885	-0.814209	0.093070	0.005527	0.044475	0.820624	0.150778	-0.492901	0.246762	0.514164	-62.053414	33.162835
02387		9.313376	0.408509	4.222800	0.328777	0.650256	0.395493	0.104992	-0.005140	-0.083399	-0.703369	-0.306641	-0.813477	0.093134	0.004024	0.042233	0.820633	0.151427	-0.492739	0.246658	0.667261	-62.057336	33.057011
02388		9.210181	0.316779	4.217338	0.351031	0.539705	0.301619	0.098642	0.030285	-0.102392	-0.700439	-0.308350	-0.806885	0.092110	0.003100	0.042161	0.820755	0.152056	-0.492426	0.246488	0.836748	-62.040899	32.928842
02389		9.013465	0.310097	4.320415	0.212690	0.423357	0.176317	0.098375	0.049466	-0.114316	-0.703369	-0.312744	-0.813232	0.090147	0.003028	0.043183	0.820941	0.152687	-0.492024	0.246282	1.018378	-62.012959	32.786389
02390		8.895479	0.303315	4.291693	0.203319	0.391487	0.058764	0.104113	0.049602	-0.129718	-0.695068	-0.314209	-0.815674	0.088967	0.002953	0.042896	0.821139	0.153382	-0.491604	0.246029	1.219631	-61.984794	32.625839
02391		8.720655	0.321584	4.210496	0.196292	0.391197	-0.133332	0.116295	0.047963	-0.134087	-0.694824	-0.319824	-0.815674	0.087219	0.003133	0.042086	0.821331	0.154137	-0.491170	0.245784	1.432175	-61.956989	32.459922
02392		8.651444	0.342751	4.083555	0.262407	0.441896	-0.253596	0.128905	0.036131	-0.137707	-0.695313	-0.323975	-0.813232	0.086524	0.003342	0.040822	0.821485	0.154969	-0.490767	0.245548	1.655966	-61.935797	32.289780
02393		8.544915	0.394393	4.067216	0.214828	0.452825	-0.354245	0.144019	0.019426	-0.134509	-0.696289	-0.321777	-0.812012	0.085456	0.003857	0.040667	0.821584	0.155873	-0.490416	0.245347	1.885133	-61.923723	32.122962
02394		8.536315	0.418116	4.089950	0.191979	0.444517	-0.350304	0.163021	0.003279	-0.131679	-0.691162	-0.320557	-0.807129	0.085367	0.004092	0.040901	0.821623	0.156872	-0.490110	0.245194	2.122771	-61.920881	31.959396
02395		8.480176	0.415719	4.208327	0.093690	0.353697	-0.343669	0.181933	-0.018530	-0.122524	-0.700928	-0.322021	-0.810059	0.084800	0.004067	0.042095	0.821582	0.157949	-0.489876	0.245105	2.362175	-61.930160	31.805591
02396		8.481916	0.430043	4.258951	0.056141	0.323450	-0.317494	0.192228	-0.053708	-0.109569	-0.702881	-0.326660	-0.806152	0.084810	0.004213	0.042616	0.821429	0.159082	-0.489785	0.245068	2.595437	-61.959878	31.665811
02397		8.508922	0.385449	4.356853	0.023765	0.224951	-0.248102	0.197138	-0.101360	-0.100475	-0.696045	-0.320557	-0.806641	0.085069	0.003769	0.043615	0.821145	0.160268	-0.489889	0.245040	2.824545	-62.016569	31.533624
02398		8.736896	0.383072	4.559665	-0.031919	0.155090	0.048628	0.205933	-0.148491	-0.091696	-0.700195	-0.335449	-0.807129	0.087337	0.003744	0.045665	0.820724	0.161529	-0.490183	0.245034	3.052639	-62.100534	31.408680
02399		8.984839	0.396943	4.813954	-0.128734	0.073695	0.387164	0.218936	-0.172000	-0.096628	-0.692383	-0.333252	-0.806885	0.089809	0.003873	0.048221	0.820241	0.162881	-0.490552	0.245017	3.295973	-62.197253	31.274727
02400		9.182890	0.398746	4.945563	-0.151301	0.029327	0.623750	0.221184	-0.186663	-0.090185	-0.698975	-0.331787	-0.802979	0.091784	0.003891	0.049546	0.819709	0.164248	-0.490982	0.245023	3.536024	-62.302534	31.146479
02401		9.326581	0.359575	4.856827	-0.012906	0.049526	0.708743	0.205130	-0.171373	-0.102864	-0.692627	-0.332764	-0.799805	0.093226	0.003498	0.048652	0.819243	0.165558	-0.491358	0.244946	3.780780	-62.398135	31.002238
02402		9.369685	0.315760	4.683490	0.149926	0.086494	0.665660	0.185241	-0.163862	-0.095640	-0.695557	-0.330078	-0.800781	0.093660	0.003069	0.046915	0.818801	0.166760	-0.491733	0.244857	4.006981	-62.489668	30.866322
02403		9.414935	0.333277	4.546053	0.251804	0.158274	0.643420	0.158071	-0.172234	-0.084075	-0.698975	-0.335205	-0.801270	0.094112	0.003257	0.045544	0.818346	0.167831	-0.492183	0.244741	4.206641	-62.586005	30.742763
02404		9.454217	0.351515	4.484571	0.293462	0.192173	0.651254	0.123906	-0.181947	-0.064403	-0.700684	-0.335693	-0.802979	0.094502	0.003457	0.044934	0.817870	0.168726	-0.492733	0.244611	4.366833	-62.688757	30.641594
02405		9.519438	0.375085	4.454507	0.316733	0.222492	0.696982	0.094269	-0.194001	-0.042394	-0.710205	-0.343506	-0.784912	0.095152	0.003710	0.044639	0.817362	0.169460	-0.493384	0.244489	4.487602	-62.799052	30.565888
02406		9.585969	0.461839	4.404694	0.316419	0.317472	0.737406	0.072556	-0.195326	-0.020695	-0.711670	-0.348633	-0.793457	0.095817	0.004592	0.044142	0.816840	0.170055	-0.494087	0.244402	4.572680	-62.911325	30.516627
02407		9.524407	0.564626	4.414344	0.212195	0.367584	0.691568	0.045094	-0.190698	-0.005408	-0.705322	-0.336914	-0.795166	0.095202	0.005634	0.044235	0.816335	0.170492	-0.494815	0.244312	4.624873	-63.021328	30.486427
02408		9.405851	0.651234	4.437013	0.084588	0.387001	0.600010	0.018275	-0.185688	0.007622	-0.702881	-0.345703	-0.798584	0.094017	0.006512	0.044458	0.815847	0.170783	-0.495567	0.244214	4.647004	-63.129333	30.472959
02409		9.301398	0.722756	4.416373	0.002517	0.422372	0.500620	0.001912	-0.170457	0.018491	-0.705566	-0.335205	-0.793457	0.092976	0.007236	0.044243	0.815398	0.170960	-0.496285	0.244131	4.646034	-63.228875	30.474665
02410		9.100697	0.747578	4.487010	-0.155675	0.352500	0.354234	-0.022758	-0.148737	0.024747	-0.708008	-0.330566	-0.794189	0.090973	0.007492	0.044937	0.815016	0.170995	-0.496951	0.244030	4.621907	-63.316481	30.486383
02411		8.920351	0.718249	4.502243	-0.233834	0.274179	0.198750	-0.050880	-0.135839	0.025061	-0.712891	-0.329346	-0.785400	0.089172	0.007205	0.045081	0.814689	0.170898	-0.497597	0.243872	4.579869	-63.396553	30.500190
02412		8.737413	0.690049	4.464629	-0.274585	0.225758	0.017119	-0.076438	-0.126757	0.028596	-0.715088	-0.334473	-0.784424	0.087345	0.006930	0.044699	0.814401	0.170676	-0.498242	0.243671	4.518074	-63.471869	30.519384
02413		8.581604	0.634097	4.524806	-0.359407	0.111512	-0.097841	-0.083179	-0.109284	0.031805	-0.708740	-0.328125	-0.791992	0.085790	0.006373	0.045292	0.814159	0.170398	-0.498825	0.243483	4.447006	-63.537062	30.544933
02414		8.414389	0.486584	4.583272	-0.394268	-0.077855	-0.227096	-0.106586	-0.086798	0.033580	-0.713867	-0.332031	-0.794434	0.084123	0.004904	0.045867	0.813990	0.169993	-0.499347	0.243261	4.358352	-63.589734	30.574975
02415		8.223233	0.393201	4.647432	-0.471657	-0.228781	-0.373409	-0.118325	-0.061305	0.036341	-0.715088	-0.328369	-0.790771	0.082217	0.003974	0.046497	0.813891	0.169502	-0.499781	0.243044	4.257258	-63.627675	30.611541
02416		8.088075	0.312713	4.700484	-0.525730	-0.349067	-0.474002	-0.138843	-0.049954	0.031322	-0.715820	-0.326660	-0.792969	0.080869	0.003172	0.047023	0.813843	0.168926	-0.500190	0.242763	4.149169	-63.659115	30.642567
02417		8.028668	0.260606	4.795792	-0.597604	-0.450226	-0.487067	-0.147454	-0.052200	0.022685	-0.713623	-0.326172	-0.791748	0.080274	0.002651	0.047977	0.813807	0.168340	-0.500609	0.242425	4.046029	-63.691234	30.662774
02418		8.020324	0.160936	4.788027	-0.547723	-0.525656	-0.501383	-0.164883	-0.045672	0.016340	-0.716064	-0.327637	-0.794189	0.080192	0.001655	0.047897	0.813809	0.167690	-0.501020	0.242021	3.939690	-63.719568	30.675161
02419		8.018702	0.088641	4.749337	-0.486827	-0.560760	-0.522252	-0.170011	-0.025447	-0.000386	-0.713379	-0.328613	-0.787109	0.080181	0.000927	0.047503	0.813886	0.167037	-0.501338	0.241555	3.847960	-63.735464	30.668221
02420		7.987353	-0.024100	4.820530	-0.493438	-0.692404	-0.522209	-0.182866	-0.004017	-0.017550	-0.715332	-0.324707	-0.785889	0.079873	-0.000204	0.048207	0.814047	0.166349	-0.501571	0.241003	3.767260	-63.738674	30.640764
02421		7.963144	-0.042655	4.843583	-0.512558	-0.719002	-0.533997	-0.194290	0.024466	-0.033728	-0.713867	-0.318359	-0.789795	0.079637	-0.000393	0.048426	0.814308	0.165620	-0.501686	0.240382	3.696382	-63.724798	30.595058
02422		7.923501	-0.047733	4.914187	-0.577209	-0.761521	-0.537975	-0.202604	0.058479	-0.060295	-0.714600	-0.317627	-0.788574	0.079249	-0.000451	0.049119	0.814692	0.164884	-0.501652	0.239658	3.649062	-63.690741	30.517686
02423		7.862665	-0.065970	4.933178	-0.600653	-0.792454	-0.583748	-0.205407	0.106403	-0.080769	-0.712158	-0.312988	-0.787598	0.078653	-0.000641	0.049291	0.815222	0.164129	-0.501407	0.238885	3.620049	-63.628339	30.418128
02424		7.752654	-0.039712	4.982515	-0.685708	-0.811278	-0.658328	-0.217894	0.158646	-0.103390	-0.709473	-0.313721	-0.800537	0.077566	-0.000383	0.049764	0.815919	0.163317	-0.500946	0.238028	3.605904	-63.535473	30.293744
02425		7.621725	0.007357	4.971362	-0.741306	-0.786159	-0.777336	-0.218111	0.194757	-0.142436	-0.709229	-0.317871	-0.801514	0.076266	0.000073	0.049639	0.816751	0.162559	-0.500303	0.237043	3.633192	-63.420330	30.122972
02426		7.601819	-0.015449	4.964049	-0.714947	-0.796852	-0.796950	-0.227446	0.220519	-0.174227	-0.708984	-0.306885	-0.788574	0.076073	-0.000164	0.049557	0.817691	0.161810	-0.499540	0.235921	3.688562	-63.289352	29.914314
02427		7.491367	-0.018795	4.951830	-0.728000	-0.810139	-0.898923	-0.222116	0.241915	-0.210958	-0.703369	-0.316162	-0.800293	0.074973	-0.000212	0.049428	0.818720	0.161150	-0.498651	0.234682	3.785486	-63.144532	29.662577
02428		7.498023	0.034817	5.016597	-0.781057	-0.789634	-0.859800	-0.216374	0.244715	-0.245150	-0.693604	-0.318359	-0.799316	0.075042	0.000310	0.050074	0.819788	0.160595	-0.497715	0.233318	3.921989	-62.996744	29.369690
02429		7.568069	0.033003	5.064175	-0.764479	-0.795263	-0.773566	-0.201631	0.236845	-0.274440	-0.693604	-0.319092	-0.801758	0.075741	0.000277	0.050552	0.820855	0.160181	-0.496767	0.231864	4.097849	-62.851738	29.041828
02430		7.727115	0.055696	5.054711	-0.682765	-0.736061	-0.633716	-0.175361	0.202668	-0.295059	-0.693115	-0.311523	-0.807129	0.077323	0.000487	0.050468	0.821837	0.159967	-0.495911	0.230362	4.311984	-62.724976	28.687531
02431		7.927908	0.079127	5.031423	-0.573974	-0.664579	-0.463782	-0.141685	0.179348	-0.307750	-0.695557	-0.316162	-0.804443	0.079325	0.000705	0.050243	0.822746	0.159948	-0.495100	0.228872	4.558646	-62.610235	28.317877
02432		8.117755	0.042302	5.177835	-0.562152	-0.733537	-0.228556	-0.099446	0.161730	-0.316666	-0.690918	-0.315918	-0.811523	0.081220	0.000320	0.051713	0.823584	0.160143	-0.494304	0.227434	4.838342	-62.504464	27.937741
02433		8.372096	0.185709	5.247626	-0.562955	-0.602146	0.035384	-0.082340	0.131947	-0.318295	-0.686035	-0.313232	-0.805908	0.083758	0.001745	0.052420	0.824335	0.160447	-0.493608	0.226008	5.130046	-62.414635	27.554937
02434		8.674156	0.258916	5.243409	-0.452978	-0.485377	0.304651	-0.090007	0.105357	-0.291056	-0.686523	-0.322021	-0.806396	0.086773	0.002486	0.052387	0.824993	0.160681	-0.493052	0.224651	5.388293	-62.340632	27.204415
02435		8.836244	0.299798	5.118114	-0.296314	-0.366419	0.392316	-0.083777	0.082208	-0.244696	-0.689453	-0.320557	-0.810303	0.088387	0.002911	0.051144	0.825535	0.160853	-0.492619	0.223484	5.600714	-62.281635	26.909700
02436		8.984342	0.349159	5.036195	-0.185167	-0.263371	0.487793	-0.057390	0.060863	-0.195519	-0.683594	-0.323486	-0.810547	0.089862	0.003418	0.050334	0.825946	0.161036	-0.492285	0.222567	5.776348	-62.237231	26.673524
02437		9.061260	0.423928	5.000223	-0.154615	-0.174452	0.542699	-0.048352	0.036824	-0.141625	-0.683594	-0.320557	-0.809326	0.090625	0.004187	0.049985	0.826231	0.161151	-0.492081	0.221876	5.900904	-62.209288	26.500820
02438		9.156217	0.479400	4.971211	-0.116038	-0.099565	0.615912	-0.051666	0.006224	-0.097086	-0.675293	-0.318115	-0.814209	0.091566	0.004762	0.049708	0.826393	0.161176	-0.492044	0.221335	5.978675	-62.201345	26.378785
02439		9.034323	0.332304	4.940263	-0.063673	-0.238685	0.486564	-0.058405	0.005791	-0.065454	-0.684326	-0.320068	-0.805420	0.090346	0.003308	0.049399	0.826524	0.161096	-0.492042	0.220908	6.018368	-62.195422	26.295467
02440		8.962372	0.295367	5.005189	-0.120907	-0.317863	0.451211	-0.045094	0.008109	-0.034522	-0.684570	-0.324951	-0.810303	0.089626	0.002949	0.050048	0.826617	0.160991	-0.492040	0.220643	6.031960	-62.190064	26.250077
02441		8.939134	0.277706	5.082117	-0.177531	-0.374379	0.465516	-0.072220	0.014275	-0.028682	-0.672852	-0.321045	-0.812744	0.089395	0.002783	0.050814	0.826739	0.160754	-0.492047	0.220341	6.023008	-62.181499	26.212798
02442		8.896138	0.190699	4.956414	-0.057040	-0.394346	0.364980	-0.099864	0.004813	-0.015081	-0.680908	-0.318359	-0.813477	0.088963	0.001925	0.049561	0.826846	0.160379	-0.492134	0.220019	5.984657	-62.179173	26.190802
02443		9.065579	0.080866	4.800077	0.184086	-0.375001	0.437068	-0.096972	-0.030392	0.002610	-0.679932	-0.313721	-0.813477	0.090648	0.000833	0.048014	0.826844	0.160012	-0.492378	0.219750	5.932778	-62.197945	26.186024
02444		9.236454	0.061560	4.726800	0.315014	-0.318387	0.553503	-0.074762	-0.023939	0.021041	-0.682617	-0.328125	-0.815186	0.092359	0.000643	0.047279	0.826819	0.159682	-0.492586	0.219614	5.872862	-62.214161	26.204416
02445		9.083176	-0.037146	4.721443	0.302080	-0.426984	0.411006	-0.081785	0.005700	0.035810	-0.679932	-0.313965	-0.814941	0.090833	-0.000336	0.047212	0.826857	0.159256	-0.492690	0.219548	5.789709	-62.214298	26.244825
02446		9.026041	-0.061227	4.733289	0.278610	-0.457914	0.365224	-0.100482	0.017477	0.045524	-0.683350	-0.313477	-0.810059	0.090265	-0.000568	0.047325	0.826928	0.158716	-0.492774	0.219485	5.684076	-62.208276	26.298490
02447		8.912195	-0.199035	4.726174	0.304481	-0.586612	0.255417	-0.133519	0.024705	0.047803	-0.688477	-0.315674	-0.815430	0.089128	-0.001937	0.047252	0.827040	0.158025	-0.492865	0.219356	5.556303	-62.198180	26.355835
02448		8.852264	-0.216006	4.629484	0.355970	-0.557721	0.157447	-0.133449	0.009411	0.053299	-0.683350	-0.309326	-0.820313	0.088525	-0.002106	0.046292	0.827107	0.157338	-0.493025	0.219238	5.424177	-62.197127	26.418043
02449		8.842411	-0.182969	4.590219	0.358858	-0.503721	0.132627	-0.126987	0.004969	0.053702	-0.673584	-0.314941	-0.815430	0.088426	-0.001777	0.045901	0.827158	0.156681	-0.493195	0.219133	5.295868	-62.198483	26.480229
02450		8.839816	-0.120301	4.520732	0.372765	-0.409412	0.101306	-0.099884	0.010710	0.047268	-0.684082	-0.305664	-0.815186	0.088401	-0.001160	0.045203	0.827209	0.156145	-0.493307	0.219072	5.189379	-62.196176	26.535050
02451		8.854339	-0.138637	4.477071	0.418175	-0.393870	0.093507	-0.084437	0.026315	0.041504	-0.682861	-0.307373	-0.822021	0.088550	-0.001349	0.044760	0.827292	0.155671	-0.493332	0.219039	5.096575	-62.184615	26.584660
02452		8.816807	-0.070689	4.345232	0.465259	-0.273958	0.002128	-0.067031	0.041111	0.036180	-0.683350	-0.311279	-0.819336	0.088177	-0.000676	0.043434	0.827403	0.155264	-0.493274	0.219037	5.017968	-62.164355	26.629173
02453		8.780526	-0.074269	4.285095	0.498336	-0.248687	-0.057945	-0.067763	0.067796	0.032482	-0.681641	-0.309082	-0.823975	0.087820	-0.000714	0.042821	0.827585	0.154836	-0.493102	0.219039	4.940703	-62.128602	26.672034
02454		8.752085	-0.054233	4.250312	0.504939	-0.213011	-0.098433	-0.060625	0.072333	0.034950	-0.675537	-0.305664	-0.820801	0.087536	-0.000514	0.042472	0.827770	0.154425	-0.492906	0.219073	4.864484	-62.090394	26.718194
02455		8.769846	0.031464	4.111827	0.575418	-0.062527	-0.144012	-0.062677	0.081122	0.027083	-0.687500	-0.308838	-0.822021	0.087715	0.000339	0.041083	0.827986	0.154017	-0.492670	0.219076	4.795035	-62.046721	26.755538
02456		8.741174	0.114738	4.117617	0.521068	0.007988	-0.163622	-0.056287	0.094271	0.020775	-0.676514	-0.307861	-0.823242	0.087431	0.001168	0.041135	0.828237	0.153635	-0.492367	0.219078	4.734855	-61.995281	26.786360
02457		8.745178	0.071925	4.111601	0.555462	-0.016773	-0.164903	-0.064145	0.108089	0.016214	-0.674072	-0.300781	-0.831055	0.087474	0.000740	0.041069	0.828532	0.153217	-0.492012	0.219053	4.674162	-61.935660	26.812866
02458		8.747670	0.192511	4.123136	0.493705	0.090416	-0.153127	-0.065573	0.126817	0.006892	-0.681641	-0.310059	-0.818848	0.087503	0.001942	0.041175	0.828884	0.152794	-0.491573	0.218998	4.620985	-61.864930	26.829548
02459		8.700685	0.197201	4.092690	0.504039	0.107767	-0.209290	-0.076760	0.146008	-0.005641	-0.681152	-0.299561	-0.823730	0.087037	0.001985	0.040863	0.829305	0.152336	-0.491057	0.218880	4.573463	-61.782626	26.832948
02460		8.660806	0.259793	4.080702	0.476158	0.167892	-0.248470	-0.074354	0.172334	-0.019155	-0.681885	-0.305176	-0.829834	0.086643	0.002605	0.040731	0.829803	0.151893	-0.490420	0.218733	4.539399	-61.684797	26.822567
02461		8.530967	0.271138	4.077259	0.432353	0.160801	-0.364824	-0.074528	0.189491	-0.031618	-0.675537	-0.299805	-0.830811	0.085349	0.002713	0.040691	0.830356	0.151460	-0.489700	0.218545	4.517197	-61.576480	26.798652
02462		8.401559	0.244283	4.136072	0.362752	0.091452	-0.452506	-0.077282	0.192608	-0.046397	-0.679443	-0.297852	-0.827393	0.084056	0.002439	0.041279	0.830934	0.151047	-0.488960	0.218291	4.508480	-61.465816	26.757303
02463		8.296440	0.141945	4.087085	0.422400	0.011059	-0.572732	-0.067648	0.179420	-0.060279	-0.675049	-0.307129	-0.832520	0.083001	0.001408	0.040796	0.831487	0.150724	-0.488253	0.217993	4.520954	-61.361961	26.698337
02464		8.256618	0.142187	4.090570	0.417971	0.006465	-0.606713	-0.048248	0.169393	-0.069865	-0.661377	-0.301514	-0.834229	0.082601	0.001403	0.040835	0.832010	0.150515	-0.487559	0.217695	4.554902	-61.263519	26.627353
02465		8.185832	0.068225	4.150729	0.395195	-0.097062	-0.643422	-0.034638	0.147447	-0.084951	-0.662598	-0.297607	-0.833008	0.081889	0.000655	0.041447	0.832485	0.150424	-0.486929	0.217351	4.613963	-61.176761	26.536704
02466		8.204515	0.060360	4.094411	0.463367	-0.073570	-0.655080	0.009518	0.125003	-0.094691	-0.664063	-0.305176	-0.836670	0.082071	0.000563	0.040893	0.832883	0.150562	-0.486337	0.217055	4.709629	-61.102366	26.432651
02467		8.214816	0.155635	4.091113	0.436127	0.009200	-0.644573	0.054274	0.114824	-0.107100	-0.662109	-0.304443	-0.841553	0.082172	0.001501	0.040864	0.833235	0.150930	-0.485729	0.216810	4.844301	-61.033031	26.313684
02468		8.218389	0.174091	3.968517	0.533795	0.076631	-0.700579	0.099753	0.094784	-0.113048	-0.661133	-0.304932	-0.833740	0.082204	0.001675	0.039647	0.833510	0.151522	-0.485151	0.216634	5.012158	-60.974772	26.186180
02469		8.222358	0.216824	3.945734	0.544748	0.116628	-0.707050	0.135438	0.086213	-0.113230	-0.665039	-0.319092	-0.837402	0.082242	0.002095	0.039423	0.833737	0.152274	-0.484568	0.216539	5.201026	-60.921123	26.058275
02470		8.146337	0.191554	4.013509	0.487461	0.037557	-0.742478	0.158877	0.066919	-0.108538	-0.665283	-0.314209	-0.833496	0.081478	0.001839	0.040109	0.833892	0.153133	-0.484045	0.216505	5.399679	-60.878654	25.934448
02471		8.168696	0.220225	3.995960	0.506429	0.063510	-0.730658	0.171544	0.016455	-0.103779	-0.661377	-0.315918	-0.828125	0.081691	0.002126	0.039955	0.833910	0.154088	-0.483721	0.216483	5.605422	-60.864880	25.810812
02472		8.258045	0.254918	3.996699	0.533986	0.098020	-0.650857	0.182310	-0.035229	-0.092267	-0.667480	-0.317383	-0.835449	0.082575	0.002475	0.039984	0.833781	0.155115	-0.483610	0.216496	5.810605	-60.881195	25.694912
02473		8.397992	0.282229	3.960345	0.611407	0.152655	-0.544833	0.192897	-0.064330	-0.078105	-0.658203	-0.319336	-0.826416	0.083968	0.002751	0.039633	0.833558	0.156184	-0.483618	0.216569	6.010796	-60.914547	25.591664
02474		8.531328	0.270245	4.060739	0.602721	0.107178	-0.380222	0.203380	-0.081634	-0.064412	-0.657471	-0.320801	-0.839111	0.085298	0.002634	0.040645	0.833268	0.157282	-0.483698	0.216712	6.205024	-60.958595	25.502081
02475		8.657315	0.263153	4.182017	0.571297	0.053765	-0.211733	0.211250	-0.096239	-0.050197	-0.661133	-0.314209	-0.824219	0.086554	0.002566	0.041865	0.832920	0.158394	-0.483840	0.216920	6.391419	-61.011533	25.426721
02476		8.613169	0.249503	4.214309	0.533054	0.000952	-0.235362	0.220364	-0.106452	-0.039414	-0.667480	-0.329346	-0.827881	0.086110	0.002432	0.042192	0.832528	0.159526	-0.484023	0.217186	6.573318	-61.070999	25.362091
02477		8.644360	0.169716	4.261428	0.549641	-0.100148	-0.189727	0.219837	-0.125760	-0.032658	-0.664307	-0.326904	-0.823975	0.086417	0.001636	0.042670	0.832081	0.160663	-0.484291	0.217464	6.751041	-61.141670	25.302343
02478		8.659863	0.104375	4.297778	0.558178	-0.187201	-0.162383	0.199199	-0.140998	-0.029247	-0.663330	-0.327637	-0.825928	0.086568	0.000988	0.043040	0.831608	0.161722	-0.484648	0.217695	6.915686	-61.221358	25.244071
02479		8.665721	0.119639	4.230471	0.595603	-0.157623	-0.188431	0.185632	-0.151954	-0.029201	-0.667236	-0.323730	-0.818604	0.086625	0.001144	0.042372	0.831118	0.162736	-0.485063	0.217883	7.074650	-61.306997	25.183456
02480		8.695236	0.180951	4.132574	0.640345	-0.069415	-0.205235	0.172754	-0.169748	-0.033371	-0.663086	-0.326416	-0.828613	0.086918	0.001759	0.041401	0.830599	0.163725	-0.485564	0.218007	7.233230	-61.402568	25.114617
02481		8.698093	0.362144	4.020763	0.619236	0.122051	-0.244191	0.146349	-0.188447	-0.030963	-0.668701	-0.324707	-0.822754	0.086944	0.003579	0.040292	0.830053	0.164619	-0.486171	0.218062	7.377691	-61.508659	25.045001
02482		8.726899	0.488111	3.901987	0.640585	0.275021	-0.266144	0.126474	-0.216439	-0.031354	-0.672852	-0.333740	-0.818604	0.087227	0.004843	0.039117	0.829454	0.165459	-0.486916	0.218040	7.515390	-61.630681	24.969544
02483		8.846105	0.511533	3.651219	0.849052	0.422937	-0.276083	0.113037	-0.236625	-0.026005	-0.670898	-0.335205	-0.819824	0.088418	0.005083	0.036620	0.828810	0.166255	-0.487762	0.217994	7.643859	-61.764350	24.896573
02484		8.949110	0.544605	3.443034	1.011959	0.555001	-0.278249	0.113816	-0.256217	-0.019968	-0.682129	-0.335205	-0.812012	0.089447	0.005417	0.034548	0.828109	0.167060	-0.488694	0.217958	7.769881	-61.909731	24.826738
02485		9.010776	0.578958	3.245754	1.147839	0.674871	-0.310521	0.128539	-0.245552	-0.014919	-0.676025	-0.336426	-0.814697	0.090068	0.005762	0.032572	0.827415	0.167902	-0.489567	0.217988	7.898598	-62.049179	24.763740
02486		9.009419	0.594253	3.191393	1.162486	0.696512	-0.332645	0.145115	-0.233746	-0.016630	-0.666504	-0.337891	-0.808594	0.090057	0.005912	0.032023	0.826735	0.168803	-0.490373	0.218060	8.037551	-62.181992	24.699770
02487		9.133195	0.405173	3.787650	0.858560	0.248075	0.042616	0.163878	-0.235248	-0.007758	-0.679932	-0.336182	-0.800781	0.091287	0.004017	0.037987	0.826025	0.169762	-0.491168	0.218213	8.179117	-62.316030	24.645289
02488		9.275098	0.441019	4.836247	0.108412	-0.232391	0.653706	0.139495	-0.250856	0.002296	-0.682373	-0.342529	-0.798584	0.092690	0.004377	0.048482	0.825284	0.170612	-0.492065	0.218334	8.298907	-62.459928	24.599430
02489		9.708369	0.399492	4.936959	0.214139	-0.252527	1.081158	0.005663	-0.302310	0.016412	-0.689453	-0.335449	-0.800293	0.097009	0.004001	0.049516	0.824514	0.170931	-0.493329	0.218140	8.335700	-62.633895	24.561011
02490		9.958679	0.417317	4.136036	0.872317	0.194780	0.941720	-0.078908	-0.280531	0.033112	-0.683105	-0.336914	-0.801270	0.099528	0.004206	0.041498	0.823849	0.170835	-0.494611	0.217825	8.302166	-62.797223	24.547119
02491		9.888808	0.539774	4.209877	0.696225	0.239792	0.923264	-0.091849	-0.243396	0.049578	-0.680908	-0.338623	-0.793213	0.098835	0.005442	0.042217	0.823269	0.170606	-0.495765	0.217576	8.237104	-62.940534	24.560480
02492		9.704405	0.677111	4.718091	0.141668	0.063472	0.997962	-0.139947	-0.265789	0.065938	-0.695068	-0.341064	-0.797607	0.096979	0.006836	0.047305	0.822653	0.170161	-0.497078	0.217256	8.129104	-63.098117	24.590827
02493		9.753160	0.751635	4.968162	-0.099656	0.007113	1.158256	-0.204719	-0.354974	0.075968	-0.688721	-0.324707	-0.792236	0.097440	0.007604	0.049847	0.821859	0.169521	-0.498833	0.216740	7.986252	-63.306822	24.618849
02494		9.885102	0.828900	4.946220	-0.113993	0.102602	1.270801	-0.238377	-0.396847	0.077937	-0.696045	-0.334229	-0.790527	0.098749	0.008387	0.049648	0.820981	0.168782	-0.500799	0.216110	7.826825	-63.539702	24.643480
02495		9.933678	1.042746	4.914930	-0.229193	0.303280	1.312829	-0.260133	-0.394544	0.073944	-0.694824	-0.327637	-0.783936	0.099236	0.010528	0.049331	0.820128	0.167962	-0.502769	0.215411	7.657894	-63.770643	24.665063
02496		9.902791	1.130237	4.891159	-0.314264	0.379982	1.278879	-0.286554	-0.368343	0.067733	-0.703857	-0.325195	-0.781006	0.098934	0.011406	0.049078	0.819364	0.167019	-0.504655	0.214642	7.475149	-63.986490	24.685036
02497		9.823351	1.127763	4.878066	-0.376492	0.369363	1.200363	-0.307397	-0.326272	0.075831	-0.703613	-0.317383	-0.792480	0.098149	0.011390	0.048923	0.818711	0.165924	-0.506393	0.213886	7.263142	-64.178709	24.724324
02498		9.696252	1.097665	4.913836	-0.476923	0.306291	1.098159	-0.331092	-0.294046	0.073445	-0.715332	-0.322021	-0.772217	0.096886	0.011094	0.049263	0.818157	0.164702	-0.508022	0.213085	7.033473	-64.352648	24.767738
02499		9.479412	1.142414	4.987153	-0.677594	0.275762	0.934441	-0.363760	-0.281060	0.074043	-0.705566	-0.317383	-0.778564	0.094720	0.011550	0.049984	0.817659	0.163331	-0.509628	0.212215	6.780987	-64.518883	24.815983
02500		9.380812	1.251365	4.874269	-0.722645	0.414191	0.800048	-0.414012	-0.299288	0.074372	-0.707275	-0.310303	-0.779785	0.093730	0.012650	0.048857	0.817149	0.161774	-0.511361	0.211203	6.499752	-64.695750	24.864234
02501		9.474255	1.236944	4.429616	-0.375023	0.641296	0.692598	-0.451524	-0.301392	0.070501	-0.709961	-0.304443	-0.780518	0.094671	0.012503	0.044411	0.816663	0.160073	-0.513134	0.210075	6.199879	-64.873128	24.909137
02502		9.462885	1.012319	4.234506	-0.151133	0.547913	0.588219	-0.434197	-0.284328	0.075655	-0.718994	-0.299316	-0.776611	0.094565	0.010251	0.042457	0.816196	0.158409	-0.514821	0.209023	5.898912	-65.041215	24.965804
02503		9.430148	0.762902	4.322380	-0.142004	0.292886	0.583784	-0.394959	-0.297845	0.076776	-0.709473	-0.297607	-0.772461	0.094234	0.007751	0.043349	0.815656	0.156917	-0.516518	0.208066	5.618705	-65.216725	25.024627
02504		9.300065	0.377308	4.279653	-0.001218	-0.036712	0.431703	-0.386017	-0.279031	0.080257	-0.727783	-0.299316	-0.773682	0.092939	0.003893	0.042919	0.815149	0.155431	-0.518130	0.207158	5.334575	-65.381832	25.093059
02505		9.167619	0.077616	4.554551	-0.151511	-0.442359	0.413576	-0.339857	-0.269912	0.070698	-0.728516	-0.291260	-0.769531	0.091614	0.000886	0.045668	0.814636	0.154149	-0.519645	0.206339	5.085852	-65.540842	25.151821
02506		9.016306	-0.197747	4.689995	-0.211999	-0.766230	0.321254	-0.311599	-0.261892	0.067339	-0.731445	-0.296387	-0.765381	0.090102	-0.001874	0.047021	0.814120	0.152981	-0.521095	0.205584	4.854656	-65.695295	25.209021
02507		8.830253	-0.370614	4.719630	-0.251486	-0.959346	0.157366	-0.260601	-0.244951	0.060319	-0.732666	-0.285156	-0.768555	0.088246	-0.003618	0.047309	0.813615	0.152022	-0.522415	0.204946	4.658314	-65.839362	25.259996
02508		8.570325	-0.448689	4.868502	-0.455321	-1.139381	-0.022460	-0.200908	-0.219586	0.055417	-0.730225	-0.276123	-0.761719	0.085651	-0.004414	0.048784	0.813132	0.151291	-0.523567	0.204463	4.498364	-65.968917	25.308581
02509		8.305808	-0.389517	4.993883	-0.705855	-1.189833	-0.212528	-0.162619	-0.194661	0.065558	-0.723145	-0.276367	-0.779541	0.083011	-0.003827	0.050023	0.812675	0.150664	-0.524583	0.204140	4.343973	-66.084362	25.374981
02510		8.048190	-0.332060	5.022146	-0.873338	-1.194531	-0.436339	-0.136734	-0.175046	0.089011	-0.724854	-0.275635	-0.757080	0.080439	-0.003250	0.050294	0.812224	0.150058	-0.525512	0.203991	4.170846	-66.189712	25.477540
02511		7.919313	-0.166278	5.143869	-1.118954	-1.122929	-0.501968	-0.126722	-0.153911	0.120290	-0.733154	-0.275391	-0.774902	0.079154	-0.001583	0.051501	0.811788	0.149391	-0.526365	0.204014	3.959986	-66.283922	25.628006
02512		7.679069	-0.032954	5.220054	-1.351032	-1.074395	-0.689173	-0.123298	-0.110391	0.158914	-0.734863	-0.272217	-0.766846	0.076762	-0.000236	0.052243	0.811424	0.148590	-0.527068	0.204234	3.695202	-66.354653	25.839092
02513		7.544681	0.067150	5.308073	-1.535720	-1.037642	-0.775698	-0.123850	-0.077453	0.197356	-0.740723	-0.267578	-0.770508	0.075426	0.000779	0.053109	0.811107	0.147653	-0.527664	0.204634	3.376094	-66.407297	26.109331
02514		7.522498	0.128785	5.383475	-1.650322	-1.004746	-0.765410	-0.137412	-0.050372	0.237496	-0.733643	-0.262207	-0.756592	0.075210	0.001414	0.053853	0.810828	0.146526	-0.528195	0.205178	2.992998	-66.445199	26.440450
02515		7.610244	0.093714	5.326731	-1.573526	-0.972839	-0.709051	-0.139567	-0.043148	0.275669	-0.735596	-0.268555	-0.763428	0.076090	0.001079	0.053283	0.810530	0.145283	-0.528724	0.205879	2.557273	-66.478941	26.827901
02516		7.746798	0.109891	5.273097	-1.507830	-0.885998	-0.605523	-0.128892	-0.037673	0.310173	-0.732910	-0.264160	-0.765625	0.077456	0.001253	0.052745	0.810200	0.143985	-0.529244	0.206750	2.080466	-66.509216	27.266528
02517		8.050854	0.096578	5.343384	-1.469283	-0.848256	-0.299596	-0.119699	-0.055070	0.334855	-0.732910	-0.262207	-0.781738	0.080492	0.001133	0.053455	0.809790	0.142677	-0.529840	0.207733	1.576201	-66.548306	27.740916
02518		8.332586	0.067123	5.435628	-1.449845	-0.836726	-0.005532	-0.105354	-0.040179	0.333280	-0.743164	-0.256836	-0.765381	0.083314	0.000839	0.054373	0.809408	0.141414	-0.530359	0.208756	1.079949	-66.577238	28.215069
02519		8.456550	-0.017902	5.525853	-1.454980	-0.900736	0.143227	-0.090146	0.000794	0.324916	-0.740479	-0.256104	-0.758545	0.084566	-0.000017	0.055258	0.809131	0.140194	-0.530689	0.209815	0.602137	-66.580978	28.678900
02520		8.740882	0.016015	5.586112	-1.436128	-0.816557	0.428339	-0.094332	0.001433	0.293898	-0.744873	-0.247070	-0.765381	0.087409	0.000315	0.055860	0.808888	0.139037	-0.530997	0.210738	0.162493	-66.582791	29.098446
02521		9.251538	0.152549	5.429605	-1.214748	-0.502695	0.834682	-0.104319	0.002632	0.248953	-0.741943	-0.246338	-0.762695	0.092514	0.001669	0.054294	0.808702	0.137958	-0.531278	0.211453	-0.223099	-66.582697	29.452919
02522		9.371318	0.161932	5.149336	-0.964335	-0.320835	0.832995	-0.138351	0.049722	0.197168	-0.745850	-0.249756	-0.762939	0.093724	0.001747	0.051469	0.808717	0.136827	-0.531369	0.211900	-0.559442	-66.554925	29.732285
02523		9.371210	0.183685	4.918125	-0.795110	-0.175379	0.740903	-0.141275	0.078395	0.147488	-0.745850	-0.250488	-0.765869	0.093730	0.001941	0.049143	0.808863	0.135788	-0.531312	0.212158	-0.830292	-66.510497	29.938721
02524		9.286729	0.257971	4.659512	-0.654128	0.008146	0.560015	-0.148892	0.096149	0.099814	-0.745117	-0.238525	-0.766602	0.092888	0.002661	0.046549	0.809110	0.134826	-0.531157	0.212216	-1.041779	-66.455971	30.075823
02525		9.217646	0.415215	4.544308	-0.660848	0.199149	0.449463	-0.140129	0.077734	0.057240	-0.744141	-0.234619	-0.771484	0.092193	0.004210	0.045404	0.809346	0.134031	-0.531040	0.212111	-1.191820	-66.412325	30.151329
02526		9.074636	0.506849	4.524598	-0.735924	0.271267	0.309700	-0.137587	0.084544	0.006845	-0.742432	-0.240723	-0.766602	0.090765	0.005103	0.045204	0.809653	0.133372	-0.530857	0.211812	-1.274161	-66.365290	30.154280
02527		9.105898	0.608876	4.446561	-0.706405	0.410136	0.306245	-0.123534	0.086665	-0.016836	-0.745361	-0.230713	-0.767822	0.091079	0.006109	0.044422	0.809980	0.132831	-0.530635	0.211457	-1.316963	-66.317394	30.123140
02528		8.901214	0.568984	4.335699	-0.660250	0.389966	0.074963	-0.087953	0.132077	-0.036213	-0.743652	-0.230957	-0.766113	0.089042	0.005693	0.043296	0.810424	0.132437	-0.530179	0.211148	-1.313085	-66.243694	30.063106
02529		8.887097	0.569553	4.449628	-0.743475	0.343942	0.108653	-0.048496	0.163636	-0.048558	-0.737305	-0.240967	-0.767334	0.088909	0.005685	0.044422	0.810938	0.132204	-0.529544	0.210914	-1.269647	-66.152117	29.984665
02530		8.755637	0.486774	4.473400	-0.752205	0.240018	-0.000145	-0.031447	0.182083	-0.056951	-0.739990	-0.241211	-0.772705	0.087598	0.004850	0.044654	0.811498	0.132041	-0.528810	0.210704	-1.205825	-66.049987	29.894469
02531		8.758657	0.312971	4.472231	-0.648417	0.093523	0.004830	-0.023443	0.187497	-0.071057	-0.733643	-0.232910	-0.781494	0.087630	0.003104	0.044640	0.812081	0.131943	-0.528037	0.210460	-1.119601	-65.944932	29.784784
02532		8.707784	0.198262	4.395278	-0.530994	0.019228	-0.070977	-0.003940	0.175682	-0.082733	-0.732178	-0.238525	-0.775879	0.087117	0.001947	0.043876	0.812631	0.131966	-0.527282	0.210212	-1.008620	-65.846608	29.659927
02533		8.683716	0.154131	4.413638	-0.515750	-0.031788	-0.084180	0.004148	0.145195	-0.092153	-0.739990	-0.244141	-0.785400	0.086870	0.001500	0.044073	0.813105	0.132080	-0.526636	0.209928	-0.882359	-65.765818	29.523517
02534		8.798964	0.091341	4.315067	-0.350965	-0.022770	-0.018495	-0.003293	0.097689	-0.105968	-0.728027	-0.241211	-0.775879	0.088011	0.000867	0.043108	0.813473	0.132249	-0.526181	0.209536	-0.744638	-65.712139	29.369690
02535		8.874032	0.061794	4.300109	-0.285275	-0.031285	0.044332	-0.000437	0.090486	-0.112295	-0.733643	-0.245117	-0.777832	0.088760	0.000568	0.042961	0.813826	0.132455	-0.525749	0.209121	-0.597820	-65.662561	29.207712
02536		8.759504	0.114228	4.245617	-0.295115	0.010197	-0.082322	0.003005	0.093457	-0.125892	-0.727783	-0.244629	-0.786377	0.087616	0.001086	0.042415	0.814198	0.132707	-0.525291	0.208662	-0.432606	-65.611086	29.027620
02537		8.671481	0.138777	4.229919	-0.311782	0.015574	-0.168592	0.003860	0.116907	-0.131112	-0.728516	-0.240967	-0.778320	0.086740	0.001330	0.042249	0.814636	0.132952	-0.524733	0.208200	-0.260745	-65.546058	28.840704
02538		8.601655	0.151409	4.146046	-0.260105	0.044675	-0.266410	0.005495	0.133650	-0.128924	-0.729736	-0.239502	-0.778809	0.086045	0.001457	0.041403	0.815114	0.133179	-0.524106	0.207760	-0.091791	-65.471103	28.657729
02539		8.438902	0.210048	4.133046	-0.319786	0.066169	-0.419360	0.005458	0.157330	-0.121325	-0.727783	-0.252197	-0.782715	0.084423	0.002048	0.041264	0.815646	0.133362	-0.523388	0.207368	0.066710	-65.382465	28.486283
02540		8.264729	0.313484	4.085046	-0.376314	0.142091	-0.596951	-0.012244	0.178816	-0.111900	-0.729492	-0.250732	-0.778564	0.082686	0.003091	0.040776	0.816235	0.133426	-0.522606	0.206982	0.201912	-65.281257	28.329142
02541		8.163763	0.278208	4.055677	-0.354843	0.104702	-0.700276	-0.028073	0.183750	-0.096982	-0.730225	-0.255859	-0.783691	0.081676	0.002748	0.040481	0.816831	0.133381	-0.521829	0.206619	0.308519	-65.177211	28.193417
02542		8.009932	0.319192	4.074674	-0.429309	0.104243	-0.831114	-0.042311	0.173275	-0.086081	-0.731445	-0.250000	-0.791748	0.080136	0.003166	0.040677	0.817396	0.133262	-0.521116	0.206258	0.392537	-65.079029	28.073732
02543		7.986308	0.339540	4.080412	-0.437383	0.118055	-0.849379	-0.062483	0.152031	-0.072397	-0.717529	-0.244873	-0.783447	0.079895	0.003379	0.040742	0.817905	0.133045	-0.520521	0.205883	0.447730	-64.993096	27.972760
02544		8.046429	0.379883	4.104742	-0.440555	0.158567	-0.783900	-0.067670	0.136902	-0.063411	-0.718506	-0.250488	-0.797119	0.080494	0.003787	0.040991	0.818369	0.132798	-0.519997	0.205522	0.488449	-64.915729	27.884332
02545		8.157395	0.315882	4.031341	-0.298552	0.159634	-0.714339	-0.075510	0.125679	-0.057355	-0.712646	-0.247070	-0.795166	0.081600	0.003151	0.040261	0.818802	0.132516	-0.519532	0.205158	0.517169	-64.844909	27.804227
02546		8.302223	0.253283	3.966683	-0.152245	0.164899	-0.610772	-0.082089	0.119109	-0.054742	-0.709229	-0.248291	-0.790039	0.083047	0.002526	0.039616	0.819220	0.132205	-0.519101	0.204782	0.538611	-64.777702	27.727753
02547		8.408188	0.124400	3.926956	-0.009713	0.093244	-0.532316	-0.083372	0.111979	-0.050038	-0.717285	-0.247803	-0.791016	0.084104	0.001239	0.039222	0.819613	0.131886	-0.518704	0.204417	0.553545	-64.714744	27.657823
02548		8.537977	0.009706	3.865054	0.151923	0.047784	-0.441966	-0.074994	0.098303	-0.048222	-0.714844	-0.254395	-0.796387	0.085399	0.000091	0.038609	0.819965	0.131609	-0.518354	0.204073	0.570936	-64.659508	27.590389
02549		8.644800	-0.050664	3.812057	0.271136	0.040911	-0.368551	-0.069244	0.083729	-0.046854	-0.717773	-0.245850	-0.793213	0.086464	-0.000514	0.038085	0.820272	0.131368	-0.518061	0.203740	0.590068	-64.612736	27.524706
02550		8.782599	-0.134668	3.719050	0.443890	0.035722	-0.284561	-0.065948	0.068314	-0.040026	-0.715332	-0.250488	-0.794678	0.087838	-0.001352	0.037161	0.820530	0.131138	-0.517830	0.203434	0.602820	-64.574723	27.468179
02551		8.863595	-0.132978	3.620529	0.558285	0.097345	-0.254023	-0.061006	0.068511	-0.027397	-0.707275	-0.243408	-0.806152	0.088648	-0.001331	0.036175	0.820772	0.130896	-0.517603	0.203191	0.603183	-64.536777	27.428464
02552		8.952549	-0.237822	3.515358	0.730435	0.069660	-0.219771	-0.058249	0.061038	-0.019683	-0.711914	-0.247803	-0.794922	0.089536	-0.002377	0.035127	0.820986	0.130651	-0.517407	0.202982	0.595771	-64.503037	27.398903
02553		9.010217	-0.183722	3.426435	0.802431	0.169889	-0.206155	-0.061072	0.060927	-0.003698	-0.713379	-0.247803	-0.802734	0.090113	-0.001828	0.034237	0.821184	0.130354	-0.517226	0.202832	0.567657	-64.469580	27.390678
02554		9.044491	-0.111127	3.353086	0.843689	0.276346	-0.206951	-0.070622	0.056654	0.007678	-0.713623	-0.246826	-0.805420	0.090454	-0.001096	0.033506	0.821366	0.129993	-0.517080	0.202701	0.520400	-64.438551	27.397538
02555		8.968955	-0.046919	3.351026	0.788929	0.324569	-0.276127	-0.085976	0.051238	0.022769	-0.701416	-0.249023	-0.795898	0.089698	-0.000445	0.033487	0.821529	0.129536	-0.516981	0.202589	0.446530	-64.410779	27.424216
02556		8.973360	0.046186	3.315668	0.776666	0.429355	-0.287488	-0.090997	0.043431	0.033831	-0.717041	-0.246094	-0.803223	0.089741	0.000492	0.033137	0.821663	0.129037	-0.516925	0.202504	0.356629	-64.387426	27.465418
02557		8.834251	0.197595	3.331104	0.640800	0.536554	-0.406266	-0.099893	0.040859	0.045290	-0.711670	-0.245850	-0.805664	0.088349	0.002013	0.033292	0.821784	0.128475	-0.516897	0.202441	0.248182	-64.365632	27.521612
02558		8.795708	0.250627	3.390882	0.552742	0.559086	-0.415493	-0.120097	0.026809	0.055003	-0.716797	-0.245117	-0.802246	0.087961	0.002551	0.033896	0.821872	0.127818	-0.516954	0.202357	0.116639	-64.351810	27.590527
02559		8.740676	0.352508	3.437062	0.445069	0.628133	-0.445488	-0.127114	0.019761	0.065711	-0.712158	-0.240723	-0.802002	0.087409	0.003576	0.034360	0.821934	0.127112	-0.517053	0.202294	-0.031475	-64.342004	27.673437
02560		8.699600	0.446367	3.436983	0.382962	0.712977	-0.483158	-0.142876	0.021372	0.065335	-0.714844	-0.235840	-0.804443	0.086998	0.004517	0.034357	0.822011	0.126341	-0.517160	0.202191	-0.188184	-64.331166	27.755851
02561		8.655198	0.466117	3.524285	0.283769	0.695217	-0.486036	-0.141001	0.012049	0.067048	-0.710938	-0.239014	-0.809082	0.086553	0.004715	0.035234	0.822060	0.125582	-0.517305	0.202092	-0.345717	-64.325581	27.840397
02562		8.605308	0.602220	3.797861	-0.020377	0.701623	-0.413482	-0.105657	0.014191	0.064960	-0.705811	-0.234619	-0.810547	0.086054	0.006070	0.037969	0.822095	0.124971	-0.517404	0.202077	-0.480556	-64.318657	27.922017
02563		8.494057	0.604717	3.995677	-0.226128	0.607850	-0.428685	-0.108603	-0.003659	0.061235	-0.706787	-0.236084	-0.803711	0.084938	0.006095	0.039955	0.822088	0.124377	-0.517577	0.202029	-0.612693	-64.321924	27.998987
02564		8.478542	0.378153	3.713905	0.092552	0.527681	-0.564188	-0.106926	-0.028613	0.061945	-0.711914	-0.237305	-0.804932	0.084779	0.003828	0.037149	0.822016	0.123811	-0.517850	0.201971	-0.745167	-64.339352	28.077144
02565		8.459871	0.277974	3.795960	0.059026	0.406485	-0.545148	-0.052085	-0.045401	0.059949	-0.710693	-0.232178	-0.801025	0.084589	0.002815	0.037978	0.821867	0.123494	-0.518136	0.202037	-0.844208	-64.366399	28.153301
02566		8.507755	0.250958	3.885648	0.010773	0.358436	-0.463113	-0.020171	-0.053096	0.055000	-0.711426	-0.231934	-0.805176	0.085067	0.002537	0.038879	0.821683	0.123329	-0.518419	0.202161	-0.919382	-64.397850	28.223210
02567		8.573643	0.190228	3.856217	0.080118	0.331537	-0.416006	0.017124	-0.064968	0.056919	-0.719238	-0.236084	-0.805664	0.085723	0.001923	0.038590	0.821443	0.123324	-0.518713	0.202383	-0.975879	-64.436047	28.296121
02568		8.669887	0.107656	3.787042	0.202990	0.306284	-0.358313	0.048420	-0.065989	0.050569	-0.716797	-0.234131	-0.795654	0.086686	0.001089	0.037899	0.821188	0.123465	-0.518976	0.202658	-1.007034	-64.474871	28.360727
02569		8.736836	-0.003924	3.635944	0.393613	0.282235	-0.361877	0.062177	-0.078965	0.056694	-0.721191	-0.232666	-0.802490	0.087354	-0.000026	0.036394	0.820884	0.123660	-0.519282	0.202987	-1.038093	-64.521048	28.434005
02570		8.790961	-0.093757	3.399633	0.636661	0.310084	-0.413443	0.060791	-0.089721	0.060193	-0.725098	-0.228760	-0.804199	0.087895	-0.000921	0.034035	0.820549	0.123851	-0.519636	0.203320	-1.074613	-64.573391	28.512459
02571		8.954282	-0.090825	3.205766	0.842821	0.425625	-0.348394	0.050417	-0.097062	0.069167	-0.719971	-0.228516	-0.802490	0.089528	-0.000885	0.032101	0.820192	0.123984	-0.520035	0.203658	-1.128321	-64.629754	28.603287
02572		9.107136	-0.126341	3.116322	0.977431	0.463072	-0.247253	0.004654	-0.101715	0.077939	-0.722168	-0.226563	-0.802002	0.091056	-0.001229	0.031209	0.819842	0.123909	-0.520506	0.203908	-1.219465	-64.688677	28.706162
02573		9.260205	-0.080805	2.885316	1.186787	0.633008	-0.206763	-0.034526	-0.102255	0.085434	-0.729980	-0.233887	-0.794678	0.092588	-0.000764	0.028901	0.819507	0.123656	-0.521023	0.204088	-1.342516	-64.747684	28.819768
02574		9.462709	0.035018	2.785771	1.275447	0.822507	-0.065826	-0.080292	-0.099662	0.090607	-0.718018	-0.223145	-0.790283	0.094613	0.000404	0.027905	0.819201	0.123199	-0.521580	0.204171	-1.498652	-64.805122	28.940803
02575		9.582143	0.231203	2.650945	1.324345	1.082640	-0.016136	-0.116041	-0.081867	0.093718	-0.720459	-0.230957	-0.798340	0.095809	0.002372	0.026547	0.818960	0.122569	-0.522101	0.204185	-1.679003	-64.852058	29.066012
02576		9.731125	0.361178	3.127064	0.925038	1.038406	0.319923	-0.065724	-0.051234	0.092299	-0.725830	-0.223145	-0.789551	0.097302	0.003667	0.031294	0.818769	0.122118	-0.522445	0.204342	-1.828165	-64.881423	29.188413
02577		9.942663	0.871053	4.489089	-0.337515	0.974602	1.082423	0.079389	-0.040853	0.067094	-0.722412	-0.233643	-0.791260	0.099415	0.008726	0.044915	0.818542	0.122316	-0.522582	0.204782	-1.863170	-64.905125	29.276701
02578		10.365258	0.910819	4.774255	-0.437278	0.977151	1.585367	0.050623	-0.085562	0.032429	-0.726563	-0.220703	-0.792725	0.103631	0.009113	0.047789	0.818250	0.122534	-0.522911	0.204979	-1.874096	-64.955229	29.320292
02579		10.506508	0.407139	3.624869	0.766146	1.032325	1.234461	0.020853	-0.070201	-0.005826	-0.719971	-0.224365	-0.789063	0.105052	0.004065	0.036286	0.818057	0.122713	-0.523183	0.204950	-1.854678	-64.997084	29.311446
02580		10.454194	0.040843	2.892290	1.504788	0.994203	0.883310	0.083869	-0.017446	-0.057480	-0.723145	-0.227051	-0.795166	0.104540	0.000366	0.028932	0.818015	0.123230	-0.523144	0.204904	-1.733590	-65.009796	29.229974
02581		10.207554	0.185827	3.182765	1.114547	0.937947	0.781495	0.135907	-0.056851	-0.111585	-0.714355	-0.230469	-0.793457	0.102067	0.001780	0.031858	0.817894	0.124143	-0.523178	0.204752	-1.517332	-65.045708	29.076712
02582		9.868169	0.464048	3.727765	0.419633	0.866071	0.702355	0.168912	-0.148101	-0.134795	-0.723145	-0.229004	-0.795166	0.098657	0.004542	0.037355	0.817536	0.125344	-0.523537	0.204531	-1.255436	-65.134042	28.893823
02583		9.733778	0.651779	4.001619	0.053378	0.862599	0.696223	0.182495	-0.230574	-0.133017	-0.728760	-0.234375	-0.784912	0.097296	0.006416	0.040134	0.816950	0.126681	-0.524218	0.204304	-0.988345	-65.269142	28.714183
02584		9.775153	0.617950	3.865305	0.178818	0.869218	0.679617	0.158955	-0.266983	-0.107686	-0.733887	-0.233643	-0.779053	0.097703	0.006096	0.038788	0.816255	0.127891	-0.525089	0.204092	-0.764626	-65.424729	28.567403
02585		9.843717	0.450540	3.782008	0.332277	0.742456	0.710791	0.152710	-0.248407	-0.103059	-0.727051	-0.239746	-0.786621	0.098392	0.004426	0.037946	0.815606	0.129045	-0.525890	0.203897	-0.547877	-65.569232	28.424759
02586		9.862282	0.264725	4.024665	0.216977	0.452518	0.830653	0.171011	-0.200371	-0.104561	-0.730957	-0.240479	-0.784912	0.098584	0.002561	0.040348	0.815071	0.130229	-0.526476	0.203772	-0.316114	-65.686204	28.277174
02587		9.840461	0.167681	4.477323	-0.118710	0.142377	0.998177	0.227928	-0.171376	-0.115789	-0.734863	-0.237549	-0.782227	0.098367	0.001569	0.044859	0.814585	0.131644	-0.526876	0.203772	-0.035654	-65.786093	28.112187
02588		9.855420	-0.018955	4.881446	-0.354873	-0.223112	1.177416	0.298297	-0.150740	-0.129311	-0.734375	-0.247070	-0.784912	0.098517	-0.000326	0.048888	0.814119	0.133358	-0.527111	0.203912	0.304278	-65.873946	27.925978
02589		10.023864	-0.252910	5.056129	-0.323851	-0.507776	1.400850	0.401020	-0.151067	-0.140422	-0.736816	-0.240967	-0.784424	0.100199	-0.002701	0.050632	0.813592	0.135521	-0.527231	0.204279	0.719208	-65.961252	27.722566
02590		10.251052	-0.528343	4.742874	0.142749	-0.610746	1.477332	0.443106	-0.168818	-0.167796	-0.734131	-0.254150	-0.781494	0.102466	-0.005475	0.047503	0.813012	0.137943	-0.527361	0.204629	1.196220	-66.057942	27.477192
02591		10.333400	-0.745076	4.076866	0.814396	-0.532604	1.278214	0.426350	-0.128485	-0.183114	-0.730957	-0.260254	-0.780273	0.103301	-0.007632	0.040819	0.812561	0.140297	-0.527329	0.204903	1.684810	-66.130342	27.209362
02592		10.042804	-0.856474	3.864520	0.943128	-0.624332	0.922610	0.373303	-0.051261	-0.189385	-0.732422	-0.256348	-0.781006	0.100410	-0.008732	0.038655	0.812354	0.142371	-0.527031	0.205061	2.149848	-66.157570	26.933769
02593		9.507834	-0.728054	3.779104	0.767731	-0.598928	0.398210	0.267674	-0.039736	-0.154041	-0.736572	-0.265869	-0.773682	0.095065	-0.007404	0.037800	0.812213	0.143911	-0.526817	0.205095	2.508531	-66.178148	26.708718
02594		9.110729	-0.553203	3.976772	0.390050	-0.627478	0.116071	0.198266	-0.035010	-0.112685	-0.741455	-0.272461	-0.771973	0.091097	-0.005623	0.039778	0.812090	0.145053	-0.526685	0.205114	2.773909	-66.196737	26.541640
02595		8.842522	-0.118338	4.366511	-0.221953	-0.485561	0.035438	0.117714	0.010293	-0.071336	-0.735596	-0.267334	-0.770996	0.088427	-0.001241	0.043660	0.812102	0.145715	-0.526480	0.205124	2.936831	-66.190210	26.436688
02596		8.592928	0.231817	4.625067	-0.681941	-0.347063	-0.081403	0.004760	0.052531	-0.039980	-0.734131	-0.268555	-0.778320	0.085942	0.002300	0.046228	0.812274	0.145793	-0.526244	0.204994	2.991502	-66.160569	26.379129
02597		8.249112	0.499133	4.775225	-1.048247	-0.240088	-0.328844	-0.101059	0.118847	-0.030695	-0.730957	-0.265869	-0.779053	0.082520	0.005003	0.047701	0.812689	0.145348	-0.525851	0.204674	2.968892	-66.093048	26.339938
02598		7.887525	0.641343	4.948519	-1.376035	-0.248601	-0.584637	-0.186226	0.171743	-0.036167	-0.732666	-0.258301	-0.779541	0.078919	0.006445	0.049411	0.813310	0.144515	-0.525328	0.204141	2.900973	-65.995185	26.296317
02599		7.626714	0.688572	5.092832	-1.595712	-0.304205	-0.760673	-0.254577	0.210641	-0.069868	-0.728516	-0.261475	-0.781738	0.076323	0.006924	0.050839	0.814114	0.143455	-0.524689	0.203323	2.834680	-65.874044	26.208577
02600		7.259999	0.576443	5.059306	-1.634432	-0.436663	-1.107840	-0.302752	0.236733	-0.099640	-0.734863	-0.259033	-0.779297	0.072663	0.005805	0.050498	0.815050	0.142246	-0.523972	0.202270	2.776711	-65.737250	26.080565
02601		6.983408	0.382344	5.039698	-1.610629	-0.631997	-1.367621	-0.297596	0.270028	-0.151145	-0.729492	-0.253174	-0.781982	0.069905	0.003846	0.050297	0.816117	0.141162	-0.523073	0.201049	2.784321	-65.579919	25.884467
02602		6.672659	0.189787	5.010545	-1.591132	-0.831417	-1.661433	-0.277823	0.292337	-0.210274	-0.723145	-0.262207	-0.785156	0.066802	0.001897	0.050005	0.817284	0.140288	-0.522021	0.199650	2.874264	-65.408228	25.609466
02603		6.584522	0.064442	5.004581	-1.538480	-0.947554	-1.741685	-0.228499	0.261610	-0.274493	-0.719238	-0.265869	-0.784668	0.065911	0.000611	0.049959	0.818396	0.139816	-0.520996	0.198098	3.071824	-65.251777	25.247394
02604		6.604340	0.111321	5.024055	-1.545938	-0.911256	-1.710190	-0.154695	0.229184	-0.334532	-0.715332	-0.258789	-0.792480	0.066103	0.001041	0.050164	0.819428	0.139834	-0.519986	0.196467	3.384606	-65.111316	24.804421
02605		6.885438	0.168592	5.011421	-1.432335	-0.814646	-1.455850	-0.063853	0.157521	-0.376581	-0.716553	-0.265137	-0.794189	0.068897	0.001572	0.050059	0.820247	0.140403	-0.519148	0.194851	3.802369	-65.009092	24.302749
02606		7.483651	0.311041	5.072487	-1.295596	-0.630312	-0.882069	0.023392	0.070707	-0.396636	-0.711426	-0.260010	-0.793457	0.074860	0.002956	0.050699	0.820797	0.141463	-0.518566	0.193314	4.298789	-64.953956	23.768636
02607		8.181440	0.433149	5.240302	-1.194888	-0.503884	-0.174089	0.105044	0.040874	-0.393313	-0.714844	-0.262207	-0.801758	0.081833	0.004143	0.052389	0.821204	0.142881	-0.518027	0.191984	4.838743	-64.914005	23.238384
02608		8.816012	0.489828	5.399688	-1.079513	-0.450539	0.470802	0.167159	0.023943	-0.370249	-0.714355	-0.270020	-0.793945	0.088175	0.004690	0.053990	0.821499	0.144505	-0.517512	0.190891	5.386162	-64.882685	22.738114
02609		9.579385	0.356981	5.420305	-0.715222	-0.488219	1.165551	0.195138	0.004164	-0.317949	-0.708252	-0.269775	-0.793457	0.095800	0.003365	0.054204	0.821667	0.146131	-0.517088	0.190076	5.887521	-64.863726	22.307243
02610		10.013451	0.169855	5.224836	-0.283922	-0.531809	1.467092	0.208889	0.023712	-0.240005	-0.713379	-0.272949	-0.790039	0.100143	0.001524	0.052238	0.821801	0.147590	-0.516626	0.189625	6.298728	-64.836860	21.983878
02611		10.130411	0.056904	4.978921	0.028561	-0.530910	1.462744	0.232438	0.068704	-0.157642	-0.716553	-0.278564	-0.789551	0.101322	0.000431	0.049755	0.821953	0.148894	-0.516015	0.189611	6.616865	-64.788868	21.778881
02612		9.884024	-0.135436	5.029360	-0.000224	-0.778181	1.250817	0.228854	0.103422	-0.069270	-0.707520	-0.294189	-0.796631	0.098866	-0.001446	0.050241	0.822112	0.149918	-0.515331	0.189973	6.820253	-64.726666	21.697811
02613		9.629551	-0.454242	5.021863	0.069927	-1.103229	1.000808	0.204121	0.097523	0.020007	-0.705078	-0.284180	-0.791748	0.096320	-0.004584	0.050167	0.822188	0.150620	-0.514761	0.190638	6.902540	-64.673828	21.735550
02614		9.314061	-0.627454	4.918282	0.119132	-1.258608	0.662838	0.170943	0.093186	0.093739	-0.710693	-0.287109	-0.792236	0.093166	-0.006273	0.049134	0.822207	0.150997	-0.514294	0.191514	6.877998	-64.628419	21.870202
02615		8.925198	-0.689108	4.902392	0.015273	-1.360130	0.302513	0.148222	0.116980	0.140461	-0.703369	-0.288818	-0.794434	0.089285	-0.006865	0.048967	0.822258	0.151140	-0.513786	0.192543	6.781363	-64.572709	22.070586
02616		8.577776	-0.597513	4.872012	-0.134382	-1.309536	-0.017852	0.112933	0.121786	0.178537	-0.710693	-0.286621	-0.790283	0.085813	-0.005926	0.048665	0.822311	0.151033	-0.513320	0.193640	6.618948	-64.516533	22.321152
02617		8.374138	-0.436272	4.818206	-0.244572	-1.161932	-0.214682	0.090358	0.100660	0.202157	-0.703613	-0.272949	-0.793945	0.083770	-0.004300	0.048138	0.822302	0.150794	-0.512980	0.194762	6.419261	-64.473661	22.599156
02618		8.380711	-0.319497	4.676921	-0.185052	-0.979013	-0.261810	0.073275	0.076783	0.215165	-0.716553	-0.287354	-0.794189	0.083828	-0.003122	0.046736	0.822231	0.150472	-0.512765	0.195872	6.197872	-64.444699	22.889803
02619		8.486512	-0.066559	4.589235	-0.196768	-0.684004	-0.190849	0.087671	0.042619	0.232983	-0.704834	-0.283691	-0.791504	0.084876	-0.000587	0.045874	0.822043	0.150200	-0.512688	0.197069	5.968598	-64.435857	23.199026
02620		8.554776	0.030393	4.436701	-0.102220	-0.503300	-0.189505	0.071061	0.011920	0.241654	-0.710449	-0.284424	-0.804199	0.085550	0.000392	0.044362	0.821779	0.149865	-0.512759	0.198235	5.723140	-64.444396	23.515378
02621		8.452932	0.082707	4.265541	-0.040193	-0.383397	-0.351973	0.103134	0.019876	0.229721	-0.714600	-0.290527	-0.797119	0.084533	0.000902	0.042647	0.821522	0.149687	-0.512756	0.199441	5.509373	-64.447253	23.817217
02622		8.559461	0.427619	4.285347	-0.184772	-0.058740	-0.232822	0.120090	0.032285	0.213740	-0.710205	-0.281982	-0.807617	0.085597	0.004342	0.042842	0.821299	0.149605	-0.512672	0.200632	5.322846	-64.441582	24.099356
02623		8.532701	0.322511	4.090990	0.004238	-0.055027	-0.344629	0.111051	0.057243	0.199639	-0.711182	-0.284424	-0.800781	0.085335	0.003288	0.040887	0.821159	0.149498	-0.512484	0.201763	5.145552	-64.420678	24.365827
02624		8.481805	0.205226	3.920290	0.174135	-0.077418	-0.468412	0.137432	0.075960	0.171048	-0.707764	-0.291260	-0.802002	0.084831	0.002098	0.039172	0.821076	0.149551	-0.512170	0.202854	5.015665	-64.387174	24.596031
02625		8.482898	0.199873	3.849602	0.234502	-0.039974	-0.498057	0.153520	0.081461	0.145740	-0.709229	-0.282471	-0.802246	0.084843	0.002031	0.038463	0.821019	0.149732	-0.511798	0.203889	4.925201	-64.349241	24.793325
02626		8.492945	0.219485	3.803812	0.268427	0.007885	-0.508110	0.152024	0.089512	0.119464	-0.710938	-0.289307	-0.792725	0.084945	0.002217	0.038002	0.821010	0.149964	-0.511374	0.204817	4.864563	-64.305172	24.956326
02627		8.638114	0.245027	3.850750	0.281722	0.042193	-0.356252	0.148144	0.094486	0.099880	-0.716553	-0.288086	-0.793945	0.086398	0.002465	0.038469	0.821035	0.150226	-0.510918	0.205659	4.824930	-64.257397	25.093925
02628		8.645666	0.163798	3.904605	0.289936	-0.045007	-0.329322	0.137986	0.119694	0.086563	-0.705078	-0.291748	-0.801758	0.086479	0.001648	0.038995	0.821146	0.150454	-0.510359	0.206440	4.792954	-64.194502	25.216610
02629		8.670712	0.094949	4.016889	0.256807	-0.143855	-0.260777	0.123439	0.157010	0.077813	-0.704346	-0.291992	-0.802979	0.086738	0.000958	0.040101	0.821370	0.150607	-0.509654	0.207176	4.759845	-64.109904	25.331380
02630		8.639751	0.113675	4.046652	0.225997	-0.137846	-0.275209	0.117956	0.195559	0.067161	-0.708252	-0.284668	-0.801758	0.086437	0.001142	0.040383	0.821707	0.150723	-0.508788	0.207881	4.732765	-64.002626	25.435856
02631		8.578161	0.056175	4.137869	0.176410	-0.230694	-0.292940	0.108103	0.229440	0.064097	-0.710693	-0.284912	-0.798096	0.085829	0.000567	0.041281	0.822140	0.150772	-0.507790	0.208575	4.701056	-63.875970	25.539495
02632		8.507740	0.018329	4.068387	0.239843	-0.233840	-0.388171	0.116871	0.240951	0.053683	-0.706299	-0.298828	-0.803711	0.085126	0.000182	0.040581	0.822605	0.150869	-0.506727	0.209255	4.685736	-63.742175	25.630218
02633		8.463115	-0.011201	4.032033	0.284742	-0.240779	-0.445584	0.136216	0.244276	0.051502	-0.703125	-0.293945	-0.815430	0.084680	-0.000118	0.040217	0.823063	0.151050	-0.505627	0.209979	4.684491	-63.606433	25.718075
02634		8.450591	0.030908	3.991098	0.310747	-0.178752	-0.473857	0.154581	0.238148	0.035437	-0.699219	-0.292480	-0.809814	0.084553	0.000293	0.039811	0.823509	0.151352	-0.504520	0.210678	4.713066	-63.473330	25.784390
02635		8.366547	0.135692	3.991767	0.244571	-0.097784	-0.545416	0.171073	0.225774	0.022815	-0.694336	-0.290771	-0.811523	0.083710	0.001332	0.039824	0.823921	0.151767	-0.503436	0.211358	4.766912	-63.346832	25.833175
02636		8.354008	0.282592	3.926096	0.235832	0.061558	-0.580997	0.177658	0.201695	0.001701	-0.693115	-0.297852	-0.807617	0.083580	0.002792	0.039179	0.824290	0.152286	-0.502428	0.211946	4.850483	-63.232972	25.852552
02637		8.406803	0.313377	3.798754	0.357304	0.159083	-0.590427	0.179043	0.172216	-0.021389	-0.694336	-0.297363	-0.807617	0.084101	0.003091	0.037918	0.824606	0.152901	-0.501521	0.212421	4.963706	-63.134945	25.840020
02638		8.483811	0.426729	3.632730	0.474767	0.347600	-0.592730	0.195409	0.139159	-0.043723	-0.695557	-0.299805	-0.815430	0.084864	0.004213	0.036272	0.824850	0.153674	-0.500715	0.212820	5.114055	-63.054567	25.796215
02639		8.532522	0.527633	3.562884	0.512607	0.472238	-0.577392	0.192974	0.126891	-0.067112	-0.691406	-0.300537	-0.815674	0.085350	0.005213	0.035580	0.825087	0.154510	-0.499944	0.213106	5.290055	-62.980000	25.722176
02640		8.613540	0.508810	3.422882	0.676411	0.531005	-0.569931	0.191416	0.098931	-0.077877	-0.686035	-0.300537	-0.811035	0.086154	0.005022	0.034191	0.825268	0.155393	-0.499280	0.213321	5.479268	-62.920597	25.631886
02641		8.552026	0.512267	3.385993	0.690613	0.530395	-0.641742	0.194286	0.071838	-0.097197	-0.680420	-0.306396	-0.810547	0.085535	0.005048	0.033834	0.825397	0.156367	-0.498710	0.213443	5.694224	-62.875521	25.514852
02642		8.500824	0.506316	3.377716	0.689947	0.507768	-0.691534	0.184994	0.029285	-0.108836	-0.679932	-0.311768	-0.811768	0.085016	0.004986	0.033769	0.825439	0.157375	-0.498315	0.213459	5.920953	-62.853719	25.378203
02643		8.492304	0.464977	3.360578	0.727909	0.464618	-0.708668	0.177125	-0.028747	-0.115932	-0.697021	-0.310059	-0.812500	0.084921	0.004571	0.033622	0.825349	0.158432	-0.498163	0.213382	6.157856	-62.864405	25.225416
02644		8.484791	0.457638	3.331843	0.754298	0.453914	-0.728236	0.171808	-0.065698	-0.124615	-0.694092	-0.310303	-0.807861	0.084840	0.004495	0.033350	0.825180	0.159526	-0.498161	0.213226	6.405961	-62.895246	25.056420
02645		8.497096	0.430231	3.363026	0.750912	0.399125	-0.703764	0.174429	-0.111635	-0.125346	-0.685303	-0.314941	-0.806885	0.084955	0.004220	0.033681	0.824893	0.160684	-0.498345	0.213036	6.662927	-62.951899	24.879453
02646		8.595883	0.355228	3.482650	0.737840	0.275966	-0.564788	0.170647	-0.143355	-0.119761	-0.688232	-0.313477	-0.806396	0.085936	0.003471	0.034891	0.824524	0.161843	-0.498667	0.212834	6.916451	-63.026621	24.703732
02647		8.727481	0.350735	3.594049	0.705877	0.221732	-0.396656	0.164859	-0.169633	-0.117156	-0.690430	-0.319092	-0.798340	0.087246	0.003427	0.036017	0.824089	0.163002	-0.499105	0.212607	7.168779	-63.116112	24.526051
02648		8.910410	0.300394	3.731464	0.697647	0.124938	-0.173855	0.142898	-0.160647	-0.107787	-0.692139	-0.320068	-0.806641	0.089076	0.002929	0.037388	0.823683	0.164035	-0.499537	0.212370	7.397849	-63.200859	24.360174
02649		9.111587	0.243313	3.693192	0.833215	0.111454	-0.014055	0.121386	-0.139583	-0.107191	-0.689453	-0.321045	-0.800781	0.091091	0.002362	0.036997	0.823346	0.164957	-0.499904	0.212100	7.612153	-63.273373	24.197441
02650		9.176818	0.210492	3.555752	0.977864	0.144041	-0.018572	0.080857	-0.084686	-0.112176	-0.689697	-0.325928	-0.805908	0.091754	0.002039	0.035597	0.823185	0.165665	-0.500084	0.211751	7.801122	-63.314070	24.036743
02651		9.160913	0.146906	3.455476	1.079964	0.120347	-0.081120	0.049557	-0.060764	-0.116093	-0.699219	-0.316895	-0.795898	0.091599	0.001407	0.034583	0.823112	0.166230	-0.500194	0.211330	7.973522	-63.340661	23.874976
02652		9.137542	0.087701	3.378267	1.159242	0.088811	-0.139875	0.037399	-0.078908	-0.112828	-0.691650	-0.324463	-0.801025	0.091363	0.000819	0.033819	0.823001	0.166753	-0.500396	0.210874	8.138225	-63.377651	23.713607
02653		9.146030	0.035478	3.253464	1.280493	0.091214	-0.190414	0.007931	-0.131583	-0.111166	-0.706543	-0.330078	-0.797607	0.091439	0.000303	0.032595	0.822779	0.167209	-0.500845	0.210309	8.293608	-63.444389	23.544319
02654		9.273314	-0.046983	2.984492	1.569871	0.156676	-0.199433	-0.013296	-0.188868	-0.118133	-0.690674	-0.320313	-0.798340	0.092705	-0.000523	0.029933	0.822438	0.167654	-0.501547	0.209614	8.455017	-63.542926	23.354599
02655		9.341779	-0.045276	2.697709	1.801170	0.289291	-0.261742	0.005837	-0.242124	-0.113779	-0.690186	-0.333740	-0.787354	0.093385	-0.000507	0.027090	0.821942	0.168223	-0.502450	0.208940	8.633218	-63.671638	23.158787
02656		9.351380	0.007359	2.403281	1.985920	0.456629	-0.374909	0.030302	-0.261325	-0.119546	-0.703369	-0.334229	-0.791992	0.093482	0.000014	0.024155	0.821382	0.168925	-0.503402	0.208286	8.837120	-63.810511	22.949848
02657		9.343745	0.005146	2.245517	2.087708	0.505650	-0.446063	0.078834	-0.286267	-0.121488	-0.693359	-0.326660	-0.789063	0.093405	-0.000014	0.022589	0.820718	0.169859	-0.504401	0.207726	9.078140	-63.962888	22.731125
02658		9.425938	-0.008529	2.091544	2.228702	0.556426	-0.434727	0.137398	-0.289963	-0.128514	-0.706299	-0.328369	-0.775146	0.094229	-0.000160	0.021052	0.819999	0.171053	-0.505349	0.207280	9.364101	-64.116423	22.499742
02659		9.653910	-0.248556	3.162279	1.617835	-0.164169	0.218032	0.211113	-0.266187	-0.118986	-0.698486	-0.337158	-0.784180	0.096495	-0.002576	0.031749	0.819265	0.172502	-0.506128	0.207081	9.679777	-64.256734	22.282837
02660		9.874128	-0.127549	4.458673	0.645545	-0.693036	0.980704	0.206062	-0.295764	-0.075901	-0.704346	-0.342041	-0.783447	0.098675	-0.001359	0.044731	0.818412	0.173849	-0.507071	0.207018	9.950466	-64.417738	22.112720
02661		10.389366	0.232272	4.232608	0.809562	-0.219624	1.376774	0.052176	-0.409989	-0.016241	-0.707275	-0.331299	-0.779053	0.103807	0.002303	0.042540	0.817340	0.174534	-0.508688	0.206710	10.089061	-64.648602	21.991716
02662		10.754654	0.626537	3.210153	1.488672	0.660050	1.309734	-0.108610	-0.394147	0.037142	-0.717529	-0.335449	-0.771973	0.107482	0.006303	0.032310	0.816389	0.174407	-0.510454	0.206222	10.069555	-64.876010	21.943453
02663		10.512814	0.859791	3.276254	1.184783	0.777675	1.141022	-0.168697	-0.306800	0.093523	-0.716797	-0.334961	-0.779541	0.105074	0.008675	0.032916	0.815653	0.173803	-0.511970	0.205888	9.928982	-65.059588	21.991319
02664		10.268414	0.945483	4.161216	0.329827	0.374032	1.295920	-0.235304	-0.334578	0.146350	-0.722412	-0.332031	-0.763184	0.102607	0.009579	0.041773	0.814845	0.172817	-0.513714	0.205573	9.689590	-65.264228	22.105608
02665		10.264291	0.994018	4.516683	-0.018769	0.242046	1.442755	-0.265449	-0.433106	0.183368	-0.715576	-0.327148	-0.761963	0.102536	0.010094	0.045376	0.813768	0.171716	-0.515917	0.205246	9.404916	-65.527545	22.250830
02666		10.436669	1.281951	4.594793	-0.222715	0.478429	1.650326	-0.262624	-0.535399	0.224400	-0.724609	-0.331299	-0.760498	0.104229	0.012997	0.046210	0.812373	0.170623	-0.518566	0.205004	9.086203	-65.852524	22.434786
02667		10.684975	1.599741	4.728896	-0.467341	0.725456	1.949333	-0.279586	-0.569078	0.263927	-0.737305	-0.328125	-0.762939	0.106693	0.016205	0.047570	0.810858	0.169392	-0.521395	0.204847	8.707332	-66.199244	22.673513
02668		10.812000	1.532368	5.016406	-0.685252	0.553796	2.172097	-0.281700	-0.517549	0.313962	-0.733154	-0.312744	-0.757080	0.107965	0.015564	0.050422	0.809417	0.167969	-0.524056	0.204930	8.243304	-66.520574	23.003513
02669		10.596809	1.368232	5.212883	-0.907637	0.298916	2.037416	-0.271648	-0.445208	0.367134	-0.738525	-0.312744	-0.758789	0.105826	0.013948	0.052346	0.808095	0.166370	-0.526451	0.205312	7.690746	-66.803585	23.435199
02670		10.326307	1.150726	5.209828	-0.960367	0.094686	1.770379	-0.268210	-0.361452	0.410301	-0.741943	-0.316162	-0.747559	0.103145	0.011789	0.052269	0.806938	0.164581	-0.528536	0.205943	7.055966	-67.040588	23.957168
02671		9.859123	0.773758	5.254342	-1.030076	-0.293436	1.334582	-0.286357	-0.260170	0.441898	-0.743652	-0.299316	-0.750732	0.098505	0.008031	0.052660	0.806025	0.162532	-0.530251	0.206738	6.340970	-67.219445	24.554502
02672		9.221748	0.413389	5.316006	-1.170364	-0.699174	0.751997	-0.264846	-0.182729	0.448576	-0.744629	-0.290039	-0.741455	0.092159	0.004411	0.053239	0.805285	0.160472	-0.531634	0.207677	5.608698	-67.351866	25.183376
02673		8.826088	0.230651	5.409294	-1.330712	-0.928565	0.413760	-0.208318	-0.130440	0.455213	-0.749268	-0.288818	-0.747314	0.088220	0.002564	0.054148	0.804627	0.158565	-0.532748	0.208834	4.885758	-67.451465	25.836562
02674		8.543012	0.110711	5.678173	-1.614622	-1.170584	0.250091	-0.150591	-0.072399	0.454587	-0.759766	-0.285400	-0.750977	0.085407	0.001344	0.056812	0.804073	0.156829	-0.533567	0.210186	4.184631	-67.515020	26.501275
02675		8.267495	0.019001	5.897547	-1.864412	-1.364462	0.076445	-0.117534	-0.034353	0.458136	-0.756836	-0.282959	-0.750732	0.082664	0.000414	0.058989	0.803586	0.155177	-0.534196	0.211670	3.491055	-67.553597	27.178345
02676		7.962022	-0.138220	5.793907	-1.830474	-1.468490	-0.248430	-0.077052	-0.017054	0.460479	-0.758057	-0.272705	-0.749512	0.079618	-0.001177	0.057946	0.803107	0.153661	-0.534712	0.213283	2.813680	-67.579465	27.862653
02677		7.799495	-0.190184	5.576364	-1.707978	-1.405634	-0.481503	-0.030579	-0.019348	0.473072	-0.754395	-0.280273	-0.750977	0.077994	-0.001709	0.055771	0.802569	0.152301	-0.535194	0.215069	2.144473	-67.603677	28.566976
02678		7.592066	-0.334199	5.496735	-1.661256	-1.497537	-0.704299	-0.013053	-0.008611	0.486262	-0.758789	-0.269287	-0.754395	0.075926	-0.003154	0.054971	0.802028	0.150962	-0.535621	0.216960	1.464946	-67.618883	29.293061
02679		7.507507	-0.527205	5.429977	-1.559503	-1.616182	-0.808186	-0.029197	-0.056920	0.496354	-0.760742	-0.275879	-0.755127	0.075072	-0.005078	0.054322	0.801354	0.149584	-0.536263	0.218812	0.762387	-67.658473	30.034065
02680		7.812538	-0.551564	5.336406	-1.400291	-1.504765	-0.561097	-0.069275	-0.143947	0.483766	-0.760010	-0.261719	-0.741455	0.078100	-0.005308	0.053422	0.800485	0.148173	-0.537284	0.220440	0.051970	-67.744315	30.758354
02681		8.422896	-0.598856	5.157228	-1.070217	-1.314161	-0.064444	-0.092980	-0.196101	0.455304	-0.767334	-0.254883	-0.741943	0.084192	-0.005773	0.051658	0.799520	0.146801	-0.538517	0.221849	-0.638213	-67.856837	31.445663
02682		8.964899	-0.479560	5.022536	-0.889757	-1.014945	0.385513	-0.120181	-0.219483	0.417565	-0.771240	-0.254883	-0.738037	0.089604	-0.004578	0.050327	0.798548	0.145446	-0.539843	0.223017	-1.298744	-67.980180	32.083523
02683		9.341145	-0.506122	4.855058	-0.661516	-0.857862	0.671160	-0.146065	-0.161058	0.358706	-0.772949	-0.244141	-0.743652	0.093381	-0.004858	0.048629	0.797815	0.144081	-0.540917	0.223921	-1.894197	-68.068237	32.634794
02684		9.598001	-0.312492	4.875904	-0.727660	-0.624934	0.914548	-0.126854	-0.093565	0.291915	-0.766113	-0.244873	-0.736816	0.095962	-0.002954	0.048806	0.797321	0.142896	-0.541653	0.224659	-2.384453	-68.117249	33.084156
02685		9.750095	-0.006856	4.553699	-0.598971	-0.155850	0.930564	-0.126003	0.014800	0.224553	-0.771973	-0.241699	-0.743652	0.097504	0.000070	0.045530	0.797196	0.141776	-0.541905	0.225206	-2.771929	-68.104558	33.423345
02686		9.546994	0.310002	4.394312	-0.702285	0.174120	0.676717	-0.111862	0.146323	0.164943	-0.775879	-0.241211	-0.746094	0.095499	0.003203	0.043871	0.797482	0.140724	-0.541574	0.225648	-3.056648	-68.017574	33.660426
02687		9.261635	0.609942	4.205568	-0.787604	0.485644	0.335243	-0.103003	0.204078	0.125332	-0.761963	-0.240234	-0.742676	0.092655	0.006179	0.041958	0.797962	0.139751	-0.540973	0.225995	-3.273212	-67.898444	33.829808
02688		9.057180	0.831315	4.056994	-0.833434	0.726129	0.084830	-0.093441	0.250113	0.096003	-0.770264	-0.236328	-0.747070	0.090618	0.008376	0.040453	0.798592	0.138842	-0.540157	0.226284	-3.437697	-67.753697	33.948918
02689		8.780719	0.916297	4.078132	-0.962668	0.753317	-0.165020	-0.081083	0.296109	0.056533	-0.760498	-0.237549	-0.752197	0.087865	0.009204	0.040648	0.799380	0.138038	-0.539114	0.226479	-3.534232	-67.583977	34.002466
02690		8.607017	0.934503	4.113615	-1.033257	0.735528	-0.311784	-0.044222	0.308273	0.027497	-0.769287	-0.234375	-0.751221	0.086132	0.009366	0.041001	0.800207	0.137443	-0.537959	0.226665	-3.568001	-67.408208	34.010777
02691		8.434410	0.847596	4.222921	-1.106964	0.590470	-0.425640	-0.030075	0.318339	0.002168	-0.759277	-0.240479	-0.753662	0.084411	0.008483	0.042094	0.801078	0.136963	-0.536730	0.226795	-3.557637	-67.227685	33.980277
02692		8.235975	0.827590	4.208719	-1.124648	0.551887	-0.611599	-0.024114	0.297082	-0.016887	-0.764160	-0.237305	-0.755859	0.082423	0.008274	0.041964	0.801907	0.136582	-0.535565	0.226850	-3.520432	-67.060007	33.924337
02693		8.224779	0.831076	4.154516	-1.064182	0.589313	-0.641108	-0.032896	0.255269	-0.042027	-0.755371	-0.241455	-0.757813	0.082302	0.008300	0.041439	0.802657	0.136280	-0.534559	0.226751	-3.458344	-66.917079	33.835812
02694		8.291453	0.759298	4.080690	-0.926521	0.585510	-0.605329	-0.069012	0.225662	-0.063980	-0.760254	-0.247559	-0.765625	0.082963	0.007581	0.040711	0.803376	0.135927	-0.533697	0.226448	-3.390850	-66.791804	33.718993
02695		8.392092	0.623530	3.949009	-0.700989	0.558524	-0.560266	-0.100959	0.189881	-0.090947	-0.755127	-0.229492	-0.763184	0.083961	0.006217	0.039407	0.804051	0.135556	-0.532996	0.225925	-3.309538	-66.687832	33.566931
02696		8.370742	0.506477	3.883438	-0.579447	0.488187	-0.602214	-0.120857	0.169026	-0.109637	-0.750000	-0.236328	-0.764648	0.083743	0.005042	0.038761	0.804704	0.135178	-0.532387	0.225260	-3.217530	-66.596240	33.390669
02697		8.402120	0.233790	3.834293	-0.376822	0.285628	-0.586177	-0.140233	0.137758	-0.121854	-0.756836	-0.235596	-0.767822	0.084049	0.002314	0.038283	0.805300	0.134791	-0.531917	0.224473	-3.123705	-66.522878	33.200235
02698		8.452367	-0.020738	3.783681	-0.177848	0.101308	-0.554325	-0.151172	0.127256	-0.139616	-0.759277	-0.239014	-0.772217	0.084548	-0.000238	0.037783	0.805894	0.134416	-0.531489	0.223577	-3.014609	-66.455860	32.986036
02699		8.563416	-0.158531	3.698391	0.009928	0.044391	-0.483527	-0.145034	0.120402	-0.158293	-0.750000	-0.235596	-0.762939	0.085655	-0.001626	0.036934	0.806485	0.134125	-0.531069	0.222618	-2.878706	-66.393206	32.746495
02700		8.587530	-0.270827	3.534923	0.219051	0.023583	-0.524731	-0.099449	0.129508	-0.167641	-0.746826	-0.239258	-0.775391	0.085896	-0.002763	0.035295	0.807078	0.134032	-0.530555	0.221749	-2.705095	-66.325387	32.494219
02701		8.564097	-0.232071	3.408300	0.309363	0.105100	-0.598169	-0.052425	0.151432	-0.167819	-0.746826	-0.237793	-0.773438	0.085665	-0.002384	0.034019	0.807698	0.134105	-0.529898	0.221017	-2.504185	-66.244650	32.241375
02702		8.515326	-0.273233	3.318508	0.403595	0.095663	-0.678912	-0.020538	0.172045	-0.151480	-0.744385	-0.240723	-0.768799	0.085180	-0.002793	0.033112	0.808332	0.134239	-0.529133	0.220448	-2.306722	-66.151184	32.011914
02703		8.421131	-0.306623	3.267102	0.447930	0.066553	-0.786153	0.014440	0.166626	-0.133497	-0.743896	-0.230469	-0.780762	0.084236	-0.003125	0.032601	0.808907	0.134474	-0.528363	0.220042	-2.114313	-66.060292	31.809920
02704		8.405015	-0.252753	3.320081	0.390672	0.083063	-0.780990	0.030071	0.140237	-0.108410	-0.739746	-0.239502	-0.788330	0.084072	-0.002578	0.033141	0.809375	0.134731	-0.527699	0.219759	-1.948251	-65.983637	31.645953
02705		8.429425	-0.269019	3.292620	0.444096	0.084174	-0.770310	0.045531	0.127984	-0.082775	-0.744873	-0.239258	-0.780518	0.084314	-0.002733	0.032872	0.809769	0.135000	-0.527085	0.219613	-1.807279	-65.913447	31.519548
02706		8.512231	-0.205278	3.238602	0.497904	0.180283	-0.718275	0.053429	0.127742	-0.060101	-0.737549	-0.245850	-0.787109	0.085142	-0.002087	0.032331	0.810135	0.135238	-0.526477	0.219577	-1.691866	-65.842627	31.425415
02707		8.621781	-0.137605	3.217904	0.533118	0.272515	-0.628437	0.041643	0.156270	-0.046680	-0.744629	-0.245117	-0.781982	0.086243	-0.001403	0.032111	0.810566	0.135365	-0.525776	0.219587	-1.599521	-65.755435	31.349732
02708		8.690644	-0.068043	3.214647	0.541298	0.352935	-0.568863	0.012443	0.193821	-0.034227	-0.734619	-0.243652	-0.781494	0.086937	-0.000697	0.032062	0.811103	0.135298	-0.524962	0.219594	-1.538999	-65.646331	31.290357
02709		8.757560	-0.034493	3.221310	0.560982	0.400877	-0.506912	-0.025314	0.230633	-0.022017	-0.735596	-0.243652	-0.780762	0.087613	-0.000351	0.032112	0.811746	0.135007	-0.524048	0.219577	-1.514725	-65.516107	31.247170
02710		8.784460	0.034194	3.238874	0.542089	0.469470	-0.477597	-0.076506	0.259394	-0.012966	-0.746094	-0.240723	-0.792480	0.087887	0.000349	0.032275	0.812489	0.134451	-0.523080	0.219481	-1.530581	-65.369198	31.215607
02711		8.775736	0.174808	3.181943	0.533651	0.628874	-0.512765	-0.129380	0.254855	-0.005262	-0.742432	-0.239502	-0.791748	0.087798	0.001766	0.031706	0.813245	0.133667	-0.522192	0.219276	-1.586328	-65.224850	31.194773
02712		8.853445	0.301584	3.074313	0.602131	0.819755	-0.491141	-0.191918	0.255794	0.002880	-0.732666	-0.244385	-0.788330	0.088574	0.003047	0.030627	0.814034	0.132602	-0.521375	0.218939	-1.688207	-65.079928	31.184765
02713		8.838531	0.408185	3.047220	0.582413	0.938874	-0.520161	-0.248525	0.238817	0.009161	-0.729980	-0.231445	-0.794189	0.088421	0.004124	0.030362	0.814807	0.131312	-0.520689	0.218470	-1.829710	-64.944542	31.183180
02714		8.774210	0.494339	3.008159	0.562092	1.035802	-0.599041	-0.294120	0.216078	0.019922	-0.733154	-0.243164	-0.799805	0.087774	0.004996	0.029979	0.815537	0.129830	-0.520153	0.217908	-2.010892	-64.821990	31.196214
02715		8.672945	0.650203	2.968353	0.491681	1.185840	-0.712915	-0.326600	0.175154	0.027647	-0.731934	-0.228760	-0.799316	0.086754	0.006562	0.029597	0.816170	0.128243	-0.519821	0.217268	-2.220678	-64.722672	31.220657
02716		8.530398	0.816603	2.885962	0.431968	1.353974	-0.882770	-0.357727	0.141226	0.030589	-0.723633	-0.238037	-0.796387	0.085323	0.008231	0.028785	0.816729	0.126555	-0.519663	0.216536	-2.452757	-64.642725	31.249849
02717		8.444545	0.818812	2.872707	0.415534	1.359946	-0.968984	-0.357005	0.104919	0.028522	-0.722656	-0.225098	-0.803955	0.084459	0.008251	0.028668	0.817193	0.124917	-0.519647	0.215774	-2.683008	-64.583505	31.277694
02718		8.470128	1.032048	3.393657	-0.088606	1.345075	-0.729296	-0.296951	0.085258	0.024540	-0.721680	-0.231445	-0.801758	0.084714	0.010381	0.033885	0.817570	0.123554	-0.519644	0.215138	-2.874506	-64.535579	31.300675
02719		8.377444	1.100032	4.084871	-0.703389	1.105184	-0.519593	-0.272004	0.070265	0.022413	-0.728027	-0.221436	-0.808105	0.083788	0.011065	0.040804	0.817893	0.122315	-0.519672	0.214549	-3.049909	-64.496289	31.321734
02720		8.417327	0.689039	3.913535	-0.356456	0.840254	-0.549382	-0.314201	0.018511	0.018758	-0.728760	-0.229980	-0.805664	0.084176	0.006960	0.039117	0.818109	0.120968	-0.519954	0.213802	-3.248041	-64.486697	31.341090
02721		8.501580	0.301117	3.772541	-0.031764	0.589694	-0.525554	-0.269756	0.019852	0.018445	-0.723145	-0.216309	-0.797363	0.085019	0.003070	0.037713	0.818301	0.119803	-0.520182	0.213172	-3.420356	-64.476317	31.360161
02722		8.635290	0.007450	3.887067	0.062264	0.323466	-0.348594	-0.203388	0.032502	0.014560	-0.725830	-0.217529	-0.802979	0.086359	0.000120	0.038857	0.818487	0.118907	-0.520284	0.212705	-3.548678	-64.458986	31.372859
02723		8.733259	-0.109495	3.988347	0.071654	0.207784	-0.213708	-0.135528	0.034902	-0.001947	-0.719971	-0.206543	-0.799561	0.087340	-0.001069	0.039869	0.818658	0.118327	-0.520294	0.212349	-3.618447	-64.440694	31.363516
02724		8.823750	-0.248544	3.807134	0.315682	0.184433	-0.206390	-0.081990	0.010783	-0.013389	-0.720459	-0.206055	-0.803467	0.088239	-0.002476	0.038068	0.818745	0.118020	-0.520341	0.212068	-3.645848	-64.436740	31.340803
02725		8.889744	-0.349641	3.275644	0.812786	0.330016	-0.372873	-0.046981	-0.020659	-0.024420	-0.719727	-0.216309	-0.806641	0.088894	-0.003500	0.032766	0.818742	0.117920	-0.520470	0.211817	-3.642204	-64.451041	31.306320
02726		8.945219	-0.557483	2.600921	1.469252	0.435391	-0.607023	-0.055704	-0.050988	-0.026556	-0.716064	-0.210449	-0.803711	0.089445	-0.005579	0.026034	0.818669	0.117819	-0.520733	0.211513	-3.643390	-64.482756	31.271122
02727		9.235797	-0.657865	1.974576	2.120851	0.665926	-0.609959	-0.081053	-0.082281	-0.037488	-0.722900	-0.213623	-0.807129	0.092349	-0.006588	0.019786	0.818539	0.117679	-0.521143	0.211084	-3.648216	-64.532769	31.224415
02728		9.424026	-0.737049	1.697851	2.441658	0.746649	-0.554231	-0.140375	-0.100554	-0.026117	-0.724121	-0.209961	-0.813232	0.094231	-0.007371	0.017031	0.818384	0.117283	-0.521697	0.210532	-3.702065	-64.592808	31.193902
02729		9.548961	-0.663219	1.502799	2.598074	0.914175	-0.523167	-0.221149	-0.153198	-0.021310	-0.725830	-0.208252	-0.800049	0.095477	-0.006626	0.015108	0.818133	0.116602	-0.522554	0.209761	-3.812247	-64.682797	31.175008
02730		9.744879	-0.494046	1.614773	2.482422	1.054380	-0.297433	-0.274800	-0.227611	-0.006582	-0.731934	-0.199463	-0.810059	0.097430	-0.004921	0.016265	0.817702	0.115737	-0.523780	0.208863	-3.977710	-64.814855	31.182661
02731		10.104727	-0.066920	3.293726	1.035123	0.817503	0.733343	-0.098636	-0.257472	-0.016154	-0.732422	-0.207520	-0.801514	0.101005	-0.000661	0.033068	0.817098	0.115652	-0.524935	0.208373	-4.033528	-64.964271	31.181287
02732		10.525705	0.576768	4.771465	-0.333051	0.862633	1.721386	-0.044173	-0.294272	-0.051166	-0.735596	-0.210693	-0.793945	0.105188	0.005751	0.047868	0.816400	0.115915	-0.526166	0.207856	-4.018841	-65.136314	31.135757
02733		11.150593	0.323122	3.644019	0.895543	1.213441	1.825374	-0.062021	-0.288621	-0.078882	-0.734375	-0.208740	-0.800781	0.111454	0.003199	0.036600	0.815755	0.116176	-0.527372	0.207187	-3.978649	-65.306040	31.051750
02734		11.194959	-0.258039	2.542270	2.057306	1.137029	1.427039	0.031505	-0.124275	-0.109742	-0.727783	-0.206787	-0.795898	0.111932	-0.002646	0.025492	0.815518	0.116730	-0.527794	0.206732	-3.831269	-65.383250	30.908744
02735		10.585085	-0.381152	3.279736	1.295977	0.573990	1.184443	0.170853	-0.066921	-0.179828	-0.730713	-0.200195	-0.790527	0.105836	-0.003935	0.032829	0.815424	0.117977	-0.527795	0.206393	-3.511001	-65.429712	30.663581
02736		10.229648	-0.276723	4.459121	0.162099	0.073599	1.348594	0.215958	-0.226561	-0.237864	-0.736572	-0.208008	-0.794678	0.102242	-0.002937	0.044704	0.814940	0.119721	-0.528366	0.205837	-3.102397	-65.568916	30.349000
02737		10.042657	-0.118354	4.766458	-0.238924	0.001242	1.301752	0.240692	-0.345600	-0.263006	-0.737305	-0.212646	-0.788574	0.100342	-0.001373	0.047836	0.814148	0.121759	-0.529377	0.205177	-2.650390	-65.775819	30.003692
02738		10.046046	-0.311671	4.810672	-0.204250	-0.242034	1.325631	0.255810	-0.425711	-0.267748	-0.739258	-0.212646	-0.786133	0.100353	-0.003313	0.048316	0.813134	0.123947	-0.530695	0.204483	-2.181346	-66.027779	29.648906
02739		10.365828	-0.657052	5.110972	-0.198773	-0.669299	1.742237	0.274319	-0.441986	-0.291998	-0.746826	-0.222412	-0.776123	0.103535	-0.006792	0.051329	0.812083	0.126296	-0.532038	0.203732	-1.661698	-66.288035	29.252017
02740		10.521666	-0.991748	5.650922	-0.445687	-1.226863	2.100236	0.262390	-0.357265	-0.348284	-0.742188	-0.228027	-0.779297	0.105098	-0.010175	0.056684	0.811314	0.128653	-0.533013	0.202768	-1.063162	-66.499287	28.761439
02741		10.440348	-1.100979	6.337079	-0.984487	-1.697910	2.291819	0.294071	-0.231977	-0.429459	-0.741699	-0.228760	-0.778076	0.104306	-0.011327	0.063475	0.810936	0.131232	-0.533387	0.201643	-0.327207	-66.636688	28.142376
02742		10.279522	-1.085742	6.540625	-1.199031	-1.871390	2.215902	0.317614	-0.112053	-0.504800	-0.739746	-0.242188	-0.765625	0.102731	-0.011221	0.065446	0.810932	0.133981	-0.533198	0.200346	0.528768	-66.701927	27.406841
02743		9.785869	-1.016804	5.695654	-0.690711	-1.602084	1.420897	0.273109	0.015001	-0.557028	-0.753662	-0.245605	-0.778320	0.097834	-0.010518	0.056935	0.811340	0.136564	-0.532497	0.198808	1.429321	-66.689339	26.596079
02744		8.944172	-0.894625	5.070197	-0.501670	-1.425599	0.396189	0.157478	0.155868	-0.571719	-0.739014	-0.252197	-0.774170	0.089455	-0.009242	0.050625	0.812208	0.138575	-0.531328	0.196995	2.274335	-66.591209	25.772928
02745		7.729589	-0.636669	5.095185	-1.037816	-1.456391	-0.706948	0.011923	0.222435	-0.567971	-0.742920	-0.250488	-0.775879	0.077334	-0.006589	0.050865	0.813343	0.139919	-0.530026	0.194856	3.019654	-66.450274	24.967184
02746		7.142427	-0.325754	5.349770	-1.565737	-1.417336	-1.136287	-0.125285	0.231724	-0.580039	-0.738770	-0.251953	-0.776855	0.071476	-0.003431	0.053417	0.814602	0.140723	-0.528809	0.192306	3.691696	-66.299845	24.153961
02747		6.818635	-0.164077	5.569906	-1.903871	-1.441501	-1.336733	-0.222503	0.274806	-0.606505	-0.730225	-0.269043	-0.774658	0.068258	-0.001786	0.055607	0.816060	0.141162	-0.527483	0.189422	4.329247	-66.119833	23.317288
02748		6.796715	-0.059586	5.523750	-1.889242	-1.346893	-1.367143	-0.270201	0.286505	-0.615862	-0.732178	-0.260498	-0.782959	0.068044	-0.000731	0.055141	0.817580	0.141416	-0.526143	0.186379	4.938844	-65.929291	22.479737
02749		6.860130	0.305629	5.335946	-1.843911	-0.945572	-1.366809	-0.231511	0.301618	-0.610106	-0.723633	-0.271240	-0.787109	0.068691	0.002909	0.053252	0.819097	0.141799	-0.524701	0.183471	5.550251	-65.726565	21.663579
02750		7.208848	0.694112	5.406983	-1.904604	-0.591971	-0.997550	-0.192676	0.276705	-0.590666	-0.722656	-0.279297	-0.782227	0.072183	0.006780	0.053963	0.820494	0.142309	-0.523333	0.180723	6.150719	-65.535768	20.882112
02751		7.685233	1.036083	5.547654	-1.948193	-0.295426	-0.483708	-0.105369	0.214588	-0.553415	-0.717285	-0.278076	-0.792236	0.076940	0.010177	0.055389	0.821623	0.143137	-0.522161	0.178311	6.753762	-65.379244	20.152208
02752		8.484200	1.237074	5.745951	-1.850631	-0.110286	0.340677	-0.052401	0.119879	-0.493550	-0.715576	-0.270508	-0.793213	0.084907	0.012176	0.057405	0.822407	0.144112	-0.521370	0.176216	7.320534	-65.277798	19.495216
02753		9.526431	1.306121	5.641974	-1.359280	0.110282	1.252157	-0.001375	0.040686	-0.407802	-0.713623	-0.274414	-0.785156	0.095302	0.012867	0.056400	0.822868	0.145140	-0.520918	0.174548	7.819207	-65.225154	18.944641
02754		10.219270	1.206972	5.379510	-0.807898	0.195352	1.769127	0.044447	0.039468	-0.315113	-0.712646	-0.288574	-0.791992	0.102222	0.011897	0.053778	0.823210	0.146109	-0.520499	0.173374	8.227654	-65.178893	18.521254
02755		10.412501	0.881038	5.133458	-0.368734	0.005603	1.824010	0.152334	0.086866	-0.224653	-0.706299	-0.285156	-0.792969	0.104157	0.008654	0.051296	0.823515	0.147252	-0.519854	0.172892	8.577813	-65.112063	18.230941
02756		10.334262	0.544069	4.967402	-0.096103	-0.258535	1.663022	0.261038	0.116799	-0.136063	-0.709473	-0.292480	-0.797363	0.103375	0.005306	0.049621	0.823741	0.148585	-0.519055	0.173078	8.875172	-65.035140	18.067217
02757		10.149459	0.069926	4.792702	0.201896	-0.650103	1.391015	0.354100	0.139619	-0.060282	-0.714844	-0.288330	-0.792725	0.101528	0.000584	0.047857	0.823887	0.150085	-0.518137	0.173835	9.128044	-64.951921	18.011455
02758		9.861192	-0.306566	4.757019	0.305018	-1.020987	1.088268	0.417457	0.155405	0.010800	-0.713867	-0.295654	-0.789795	0.098649	-0.003160	0.047487	0.823962	0.151645	-0.517151	0.175058	9.327081	-64.866193	18.054716
02759		9.536561	-0.512637	4.841753	0.221598	-1.290596	0.814475	0.415066	0.157885	0.071089	-0.710938	-0.300537	-0.795410	0.095406	-0.005193	0.048331	0.823988	0.153039	-0.516199	0.176526	9.451671	-64.784771	18.179221
02760		9.194913	-0.732578	4.794385	0.240209	-1.510805	0.469771	0.345849	0.153791	0.140926	-0.714844	-0.299316	-0.798584	0.091991	-0.007344	0.047860	0.823991	0.153969	-0.515377	0.178099	9.453749	-64.712433	18.395222
02761		8.670709	-0.939314	4.741338	0.180584	-1.733759	-0.040010	0.267354	0.173885	0.186369	-0.723145	-0.305420	-0.793945	0.086757	-0.009376	0.047325	0.824063	0.154441	-0.514574	0.179672	9.353592	-64.632772	18.674897
02762		8.006655	-1.137107	4.722708	0.031881	-1.977577	-0.658910	0.209566	0.206898	0.232653	-0.708496	-0.300537	-0.788818	0.080129	-0.011327	0.047132	0.824218	0.154525	-0.513724	0.181312	9.159838	-64.538719	19.021541
02763		7.567210	-0.986567	4.714781	-0.194140	-1.883377	-1.044547	0.174981	0.222814	0.263632	-0.708008	-0.300293	-0.800781	0.075738	-0.009807	0.047055	0.824412	0.154373	-0.512859	0.183003	8.909091	-64.437553	19.409860
02764		7.540809	-0.970583	4.516535	-0.043069	-1.764088	-1.147181	0.149289	0.203475	0.290129	-0.704102	-0.296387	-0.798828	0.075468	-0.009630	0.045081	0.824548	0.154061	-0.512117	0.184720	8.617832	-64.348911	19.826734
02765		7.542680	-0.851479	4.308010	0.077823	-1.543468	-1.222718	0.170991	0.209337	0.304628	-0.710449	-0.300537	-0.807129	0.075485	-0.008437	0.042994	0.824666	0.153799	-0.511339	0.186558	8.323858	-64.257202	20.261088
02766		7.397748	-0.835366	4.150549	0.147766	-1.459325	-1.416257	0.221090	0.236043	0.281755	-0.702393	-0.300049	-0.802002	0.074038	-0.008295	0.041409	0.824834	0.153771	-0.510384	0.188446	8.082802	-64.147451	20.668234
02767		7.635132	-0.555978	4.324823	-0.008846	-1.235970	-1.107475	0.280131	0.198349	0.265966	-0.709473	-0.302979	-0.809814	0.076402	-0.005519	0.043165	0.824869	0.154067	-0.509515	0.190393	7.903418	-64.057329	21.045456
02768		7.907947	-0.227503	4.367718	-0.074237	-0.908619	-0.821957	0.278447	0.158604	0.246183	-0.698242	-0.307373	-0.801270	0.079117	-0.002238	0.043611	0.824821	0.154440	-0.508793	0.192221	7.753740	-63.987557	21.388440
02769		7.998450	-0.146902	4.264588	0.013824	-0.764627	-0.779491	0.273317	0.134253	0.225264	-0.703857	-0.290527	-0.795898	0.080015	-0.001437	0.042590	0.824730	0.154872	-0.508159	0.193932	7.630938	-63.929844	21.698803
02770		8.048400	0.152069	4.287146	-0.118939	-0.494590	-0.706607	0.286626	0.113198	0.212345	-0.705566	-0.306152	-0.800049	0.080507	0.001545	0.042828	0.824586	0.155407	-0.507587	0.195606	7.534241	-63.882780	21.988353
02771		8.094906	0.342753	4.118603	-0.054520	-0.234993	-0.727002	0.266901	0.118008	0.190000	-0.700928	-0.301025	-0.807129	0.080970	0.003450	0.041143	0.824489	0.155916	-0.506995	0.197141	7.452709	-63.831188	22.248917
02772		8.209261	0.567246	4.016704	-0.030925	0.035069	-0.655971	0.255194	0.129595	0.175884	-0.698975	-0.302490	-0.803955	0.082114	0.005693	0.040121	0.824442	0.156398	-0.506355	0.198596	7.379264	-63.771665	22.492835
02773		8.232442	0.715695	3.823064	0.063603	0.266064	-0.711793	0.246067	0.155416	0.164026	-0.692627	-0.303711	-0.804443	0.082348	0.007177	0.038175	0.824476	0.156849	-0.505606	0.199999	7.311684	-63.696616	22.724804
02774		8.273657	0.814532	3.647201	0.177502	0.450344	-0.747115	0.227143	0.192509	0.152155	-0.696777	-0.318848	-0.794189	0.082765	0.008167	0.036402	0.824631	0.157210	-0.504712	0.201332	7.241864	-63.599148	22.946778
02775		8.226638	0.859208	3.482439	0.275191	0.568266	-0.860341	0.212646	0.217251	0.129836	-0.697266	-0.311279	-0.801758	0.082299	0.008609	0.034744	0.824877	0.157547	-0.503713	0.202558	7.187331	-63.486257	23.143170
02776		8.178285	0.876688	3.272785	0.422190	0.683571	-0.996878	0.218448	0.250216	0.115783	-0.695313	-0.310547	-0.806885	0.081819	0.008779	0.032635	0.825213	0.157913	-0.502558	0.203769	7.148913	-63.353497	23.326216
02777		8.004879	0.865038	3.186146	0.438835	0.693619	-1.192699	0.238762	0.246739	0.101373	-0.690918	-0.322998	-0.815918	0.080084	0.008653	0.031773	0.825538	0.158399	-0.501385	0.204965	7.139545	-63.221706	23.489235
02778		7.835819	0.843795	3.206182	0.379893	0.643927	-1.337272	0.254687	0.226517	0.089173	-0.690674	-0.314697	-0.818115	0.078391	0.008432	0.031984	0.825810	0.159001	-0.500265	0.206134	7.156783	-63.100181	23.632962
02779		7.823566	0.816767	3.249595	0.368458	0.603362	-1.331217	0.260520	0.164576	0.077933	-0.692871	-0.326172	-0.812744	0.078259	0.008156	0.032442	0.825931	0.159718	-0.499388	0.207220	7.198968	-63.013462	23.752469
02780		7.790121	0.681967	3.279086	0.410084	0.469248	-1.356027	0.266226	0.122910	0.064640	-0.688477	-0.316650	-0.813477	0.077919	0.006801	0.032752	0.825956	0.160535	-0.498662	0.208233	7.265397	-62.949185	23.848553
