// General information: 
//  MT Manager version: 2021.4.0 
//  XDA version: 2021.4.0 build 6323 rev 112641 built on 2021-09-28
// Device information: 
//  DeviceId: 00B4778F
//  ProductCode: MTW2-3A7G6
//  Firmware Version: 4.6.0
//  Hardware Version: 2.0.0
// Device settings: 
//  Filter Profile: human(46.1)
//  Option Flags: Orientation Smoother Disabled, Position/Velocity Smoother Disabled, Continuous Zero Rotation Update Disabled, AHS Disabled, ICC Disabled
// Coordinate system: ENU
PacketCounter	SampleTimeFine	Acc_X	Acc_Y	Acc_Z	FreeAcc_E	FreeAcc_N	FreeAcc_U	Gyr_X	Gyr_Y	Gyr_Z	Mag_X	Mag_Y	Mag_Z	VelInc_X	VelInc_Y	VelInc_Z	Quat_q0	Quat_q1	Quat_q2	Quat_q3	Roll	Pitch	Yaw
52456		9.446721	-0.066547	2.367257	-0.100167	0.020905	-0.074186	0.023306	0.014886	0.002568	-0.892822	-0.241943	-0.633057	0.094469	-0.000667	0.023665	-0.556270	-0.428003	0.440757	-0.559562	-3.988916	-75.777449	93.442609
52457		9.425575	-0.015473	2.365941	-0.149963	0.018438	-0.095869	0.022090	0.012261	-0.005560	-0.885986	-0.235840	-0.631592	0.094257	-0.000160	0.023654	-0.556267	-0.428056	0.440650	-0.559609	-3.956097	-75.772279	93.421870
52458		9.429625	-0.070817	2.386245	-0.093640	-0.000126	-0.086011	0.028537	0.004270	-0.003434	-0.898682	-0.232178	-0.634277	0.094297	-0.000713	0.023860	-0.556227	-0.428144	0.440555	-0.559657	-3.925927	-75.771731	93.407331
52459		9.428104	-0.046554	2.393216	-0.116832	-0.007189	-0.086172	0.023143	-0.001189	-0.001814	-0.887939	-0.239502	-0.619629	0.094281	-0.000469	0.023933	-0.556182	-0.428229	0.440491	-0.559687	-3.903048	-75.774097	93.397469
52460		9.466851	-0.099916	2.411898	-0.063401	-0.016712	-0.043133	0.022917	-0.003859	0.000313	-0.884033	-0.238770	-0.626953	0.094668	-0.001002	0.024121	-0.556123	-0.428317	0.440443	-0.559716	-3.886444	-75.778275	93.393767
52461		9.465436	-0.076143	2.418431	-0.086592	-0.023776	-0.043295	0.018553	-0.002159	0.002412	-0.886230	-0.232178	-0.631836	0.094654	-0.000763	0.024185	-0.556073	-0.428383	0.440403	-0.559746	-3.875866	-75.781031	93.393883
52462		9.501155	-0.083224	2.450931	-0.080043	-0.046865	-0.000586	0.008412	0.001639	0.002522	-0.894287	-0.237549	-0.627930	0.095012	-0.000832	0.024508	-0.556060	-0.428404	0.440389	-0.559755	-3.871436	-75.781729	93.392754
52463		9.467932	-0.095318	2.484950	-0.067735	-0.088099	-0.024253	-0.002664	0.002966	0.002717	-0.893555	-0.239746	-0.625244	0.094680	-0.000952	0.024848	-0.556066	-0.428395	0.440395	-0.559750	-3.872919	-75.781543	93.392770
52464		9.514890	-0.044771	2.408006	-0.118211	-0.001881	0.001570	-0.003533	-0.000513	0.001456	-0.886475	-0.239746	-0.630127	0.095149	-0.000447	0.024080	-0.556064	-0.428402	0.440410	-0.559735	-3.873181	-75.783776	93.391857
52465		9.531018	-0.011609	2.471137	-0.152498	-0.059047	0.032119	-0.008026	0.003204	0.006245	-0.893066	-0.234131	-0.631836	0.095311	-0.000112	0.024710	-0.556072	-0.428371	0.440438	-0.559729	-3.885661	-75.783317	93.400049
52466		9.564026	-0.000285	2.437963	-0.164315	-0.018364	0.055794	-0.005868	0.009808	0.002604	-0.892822	-0.238281	-0.625244	0.095641	-0.000001	0.024375	-0.556104	-0.428331	0.440440	-0.559726	-3.888289	-75.779385	93.398247
52467		9.578704	0.042419	2.468647	-0.207788	-0.043639	0.076827	0.000614	0.007512	0.006639	-0.898682	-0.233643	-0.631836	0.095788	0.000427	0.024683	-0.556102	-0.428311	0.440433	-0.559749	-3.896042	-75.776448	93.406669
52468		9.474878	0.048402	2.511620	-0.213245	-0.109887	-0.013385	-0.009426	0.015997	0.007308	-0.885498	-0.237549	-0.632080	0.094751	0.000489	0.025109	-0.556138	-0.428236	0.440436	-0.559768	-3.910697	-75.768987	93.415867
52469		9.442776	0.012478	2.540116	-0.177496	-0.144315	-0.036899	-0.004767	0.015956	0.001735	-0.884521	-0.239746	-0.630859	0.094430	0.000126	0.025394	-0.556180	-0.428188	0.440410	-0.559783	-3.909172	-75.761414	93.411537
52470		9.424504	0.015958	2.525434	-0.180411	-0.133174	-0.058249	-0.004473	0.017618	-0.001739	-0.879883	-0.236572	-0.624023	0.094247	0.000159	0.025246	-0.556238	-0.428142	0.440374	-0.559790	-3.899510	-75.753089	93.398301
52471		9.373261	-0.005806	2.504631	-0.157017	-0.124295	-0.112629	-0.002284	0.017520	-0.008629	-0.886230	-0.238281	-0.627686	0.093735	-0.000062	0.025038	-0.556307	-0.428119	0.440314	-0.559786	-3.873014	-75.745024	93.369674
52472		9.371929	-0.008948	2.432779	-0.151697	-0.053996	-0.131488	0.001404	0.009316	-0.016022	-0.888428	-0.228271	-0.634277	0.093720	-0.000097	0.024323	-0.556369	-0.428147	0.440252	-0.559751	-3.829257	-75.742122	93.325542
52473		9.403439	0.027871	2.406579	-0.186935	-0.020088	-0.107961	0.002942	0.006903	-0.014621	-0.885498	-0.239746	-0.632813	0.094035	0.000271	0.024063	-0.556421	-0.428181	0.440195	-0.559719	-3.787935	-75.740345	93.284708
52474		9.421338	0.026092	2.422607	-0.183551	-0.031760	-0.086608	0.005434	-0.012134	-0.021706	-0.890625	-0.235840	-0.636475	0.094212	0.000250	0.024232	-0.556457	-0.428281	0.440179	-0.559619	-3.732877	-75.749760	93.228428
52475		9.493369	0.000140	2.446152	-0.156371	-0.038975	-0.010557	0.005237	-0.021506	-0.022827	-0.898926	-0.241699	-0.630371	0.094931	-0.000010	0.024472	-0.556464	-0.428419	0.440177	-0.559508	-3.675867	-75.764512	93.172765
52476		9.495116	-0.007083	2.477417	-0.146950	-0.071168	-0.001050	0.017119	-0.018344	-0.020414	-0.899170	-0.232666	-0.627686	0.094949	-0.000083	0.024783	-0.556447	-0.428575	0.440142	-0.559434	-3.617443	-75.777566	93.122061
52477		9.533902	-0.044904	2.535144	-0.107727	-0.119356	0.051308	0.023194	-0.006383	-0.016745	-0.889404	-0.239258	-0.631592	0.095338	-0.000460	0.025354	-0.556431	-0.428708	0.440060	-0.559411	-3.561521	-75.783424	93.078141
52478		9.499130	-0.031339	2.576085	-0.118920	-0.167430	0.027459	0.029529	0.013942	-0.013303	-0.889648	-0.235840	-0.633789	0.094993	-0.000324	0.025754	-0.556440	-0.428791	0.439918	-0.559451	-3.507813	-75.777811	93.039178
52479		9.482010	-0.035501	2.594955	-0.112646	-0.188174	0.015612	0.028765	0.027543	-0.008857	-0.891602	-0.244385	-0.634521	0.094824	-0.000363	0.025936	-0.556465	-0.428827	0.439743	-0.559536	-3.461816	-75.763973	93.008789
52480		9.427014	0.004555	2.629385	-0.150436	-0.231593	-0.029742	0.022587	0.043888	-0.011228	-0.888184	-0.240967	-0.632080	0.094276	0.000037	0.026273	-0.556551	-0.428801	0.439539	-0.559630	-3.412183	-75.740953	92.969920
52481		9.403668	0.065490	2.597847	-0.209430	-0.202134	-0.060901	0.019371	0.049227	0.000332	-0.888672	-0.240723	-0.637207	0.094043	0.000653	0.025955	-0.556618	-0.428730	0.439350	-0.559766	-3.389505	-75.714389	92.958032
52482		9.364878	0.110479	2.616611	-0.253236	-0.225057	-0.094405	0.011200	0.050246	-0.004333	-0.892822	-0.239502	-0.636230	0.093655	0.001101	0.026143	-0.556723	-0.428640	0.439175	-0.559868	-3.361145	-75.687458	92.934396
52483		9.412688	0.125138	2.497021	-0.265949	-0.093277	-0.077697	0.020818	0.037924	-0.012412	-0.889648	-0.242432	-0.630615	0.094132	0.001243	0.024952	-0.556798	-0.428632	0.438986	-0.559948	-3.310722	-75.667780	92.894726
52484		9.412917	0.117257	2.533746	-0.256523	-0.125463	-0.068198	0.003099	0.037855	-0.015491	-0.886475	-0.245361	-0.637207	0.094134	0.001165	0.025320	-0.556920	-0.428582	0.438843	-0.559977	-3.263995	-75.648412	92.847983
52485		9.412191	0.118962	2.536363	-0.256269	-0.125721	-0.068194	-0.003940	0.017727	-0.020966	-0.883301	-0.238770	-0.628906	0.094124	0.001180	0.025355	-0.557028	-0.428581	0.438761	-0.559935	-3.211418	-75.640549	92.791442
52486		9.517150	0.091063	2.488981	-0.226830	-0.053319	0.022208	-0.013283	0.001213	-0.028551	-0.885742	-0.239258	-0.634277	0.095172	0.000899	0.024889	-0.557142	-0.428616	0.438737	-0.559814	-3.149299	-75.642445	92.719186
52487		9.572848	0.031823	2.451381	-0.165083	-0.003652	0.067719	-0.004667	-0.000168	-0.030052	-0.883789	-0.237305	-0.632080	0.095729	0.000304	0.024514	-0.557237	-0.428683	0.438687	-0.559707	-3.079074	-75.645072	92.643997
52488		9.541975	0.004093	2.551430	-0.134454	-0.108685	0.063000	0.019503	0.000122	-0.033270	-0.886963	-0.242188	-0.629883	0.095420	0.000023	0.025514	-0.557298	-0.428816	0.438570	-0.559636	-2.988229	-75.647683	92.559996
52489		9.439055	-0.013538	2.513086	-0.111410	-0.097423	-0.045926	0.028755	-0.000444	-0.031382	-0.877441	-0.244385	-0.636963	0.094390	-0.000154	0.025131	-0.557324	-0.428980	0.438425	-0.559598	-2.895852	-75.650451	92.481710
52490		9.442519	-0.070618	2.460015	-0.049986	-0.045400	-0.054959	0.024784	0.007592	-0.032218	-0.879395	-0.245605	-0.628174	0.094426	-0.000724	0.024596	-0.557382	-0.429110	0.438268	-0.559563	-2.802800	-75.648640	92.399817
52491		9.428083	-0.105771	2.505702	-0.011088	-0.091245	-0.057174	0.015822	0.042791	-0.035776	-0.881836	-0.243164	-0.633545	0.094286	-0.001077	0.025037	-0.557544	-0.429126	0.438029	-0.559576	-2.703393	-75.626722	92.306621
52492		9.341532	-0.126970	2.489384	0.015128	-0.091409	-0.144762	-0.009152	0.079161	-0.041815	-0.878662	-0.244141	-0.641846	0.093425	-0.001288	0.024857	-0.557855	-0.428985	0.437746	-0.559596	-2.601202	-75.584185	92.195843
52493		9.286558	-0.107993	2.522161	0.000777	-0.127994	-0.189969	-0.015188	0.108343	-0.052150	-0.881348	-0.238037	-0.641602	0.092879	-0.001102	0.025171	-0.558272	-0.428767	0.437375	-0.559637	-2.477577	-75.525075	92.059257
52494		9.224951	-0.008487	2.543783	-0.093130	-0.153021	-0.245110	-0.013170	0.120436	-0.062167	-0.875977	-0.245605	-0.640381	0.092265	-0.000112	0.025382	-0.558757	-0.428528	0.436957	-0.559663	-2.330963	-75.459020	91.896436
52495		9.330697	0.160738	2.544462	-0.257270	-0.114493	-0.144042	-0.005912	0.126128	-0.064560	-0.874756	-0.247559	-0.643555	0.093324	0.001578	0.025386	-0.559227	-0.428313	0.436484	-0.559727	-2.175531	-75.389838	91.732396
52496		9.388275	0.274500	2.549922	-0.365652	-0.091871	-0.087719	-0.018635	0.138514	-0.059952	-0.870605	-0.240479	-0.640381	0.093901	0.002719	0.025434	-0.559748	-0.428010	0.436027	-0.559794	-2.037605	-75.313186	91.577090
52497		9.482030	0.370797	2.622240	-0.458514	-0.124047	0.020771	-0.035730	0.137702	-0.048045	-0.879150	-0.247314	-0.641846	0.094839	0.003690	0.026156	-0.560261	-0.427643	0.435640	-0.559863	-1.937270	-75.236857	91.452241
52498		9.478272	0.378124	2.709147	-0.463357	-0.194884	0.039592	-0.068998	0.149237	-0.043127	-0.872803	-0.246094	-0.645264	0.094804	0.003770	0.027019	-0.560865	-0.427131	0.435332	-0.559889	-1.867011	-75.153727	91.336750
52499		9.499530	0.272848	2.746635	-0.356946	-0.211314	0.071008	-0.108559	0.158499	-0.034669	-0.868896	-0.246582	-0.647461	0.095017	0.002727	0.027390	-0.561541	-0.426472	0.435118	-0.559880	-1.837842	-75.065166	91.242267
52500		9.449192	0.189952	2.685367	-0.272406	-0.150092	0.007585	-0.131837	0.160380	-0.039993	-0.875977	-0.246094	-0.645508	0.094514	0.001898	0.026777	-0.562294	-0.425746	0.434958	-0.559801	-1.810880	-74.975460	91.134418
52501		9.433947	0.104432	2.730841	-0.186619	-0.182367	0.005645	-0.156796	0.176851	-0.049881	-0.868896	-0.245605	-0.654785	0.094364	0.001042	0.027224	-0.563153	-0.424932	0.434795	-0.559683	-1.777279	-74.876638	91.006641
52502		9.402292	-0.002167	2.934391	-0.081562	-0.369522	0.029595	-0.192996	0.211282	-0.070522	-0.863037	-0.234375	-0.656494	0.094054	-0.000027	0.029245	-0.564228	-0.423958	0.434596	-0.559493	-1.719585	-74.758352	90.830940
52503		9.447166	0.005563	3.116992	-0.091147	-0.513377	0.121733	-0.242782	0.206759	-0.084549	-0.857910	-0.236328	-0.649170	0.094504	0.000053	0.031072	-0.565429	-0.422891	0.434513	-0.559152	-1.663374	-74.642927	90.628509
52504		9.545268	-0.001137	3.274327	-0.086180	-0.620881	0.259076	-0.264895	0.164601	-0.106802	-0.863770	-0.234863	-0.657471	0.095480	-0.000019	0.032665	-0.566668	-0.421909	0.434580	-0.558588	-1.578476	-74.551719	90.378612
52505		9.856754	-0.077597	3.548102	-0.014475	-0.788230	0.633801	-0.276578	0.137010	-0.105558	-0.856445	-0.240723	-0.654053	0.098591	-0.000779	0.035415	-0.567845	-0.420985	0.434742	-0.557963	-1.505636	-74.476428	90.138651
52506		10.167164	-0.341137	3.674348	0.246741	-0.819256	0.969537	-0.278960	0.135115	-0.103685	-0.867676	-0.239502	-0.660156	0.101695	-0.003413	0.036680	-0.569028	-0.420044	0.434928	-0.557322	-1.439694	-74.401985	89.902004
52507		10.619978	-0.653489	3.749252	0.557906	-0.761890	1.429025	-0.280079	0.183537	-0.096880	-0.865967	-0.241943	-0.659912	0.106231	-0.006534	0.037404	-0.570286	-0.418960	0.434983	-0.556809	-1.387394	-74.299779	89.681100
52508		10.646928	-1.070272	3.716211	0.975221	-0.710677	1.450376	-0.267099	0.294677	-0.070985	-0.859619	-0.231934	-0.659912	0.106520	-0.010691	0.037019	-0.571685	-0.417544	0.434739	-0.556628	-1.376656	-74.133560	89.510765
52509		10.280965	-1.394410	3.691201	1.297108	-0.760934	1.096296	-0.227873	0.416910	-0.037812	-0.860596	-0.236816	-0.673828	0.102884	-0.013922	0.036713	-0.573172	-0.415827	0.434103	-0.556880	-1.406058	-73.896835	89.405597
52510		9.870311	-1.623809	3.594083	1.523879	-0.744873	0.680167	-0.177607	0.474377	0.018841	-0.850586	-0.228760	-0.676270	0.098790	-0.016197	0.035721	-0.574526	-0.413962	0.433284	-0.557513	-1.516205	-73.626368	89.412882
52511		9.283209	-2.056518	3.594434	1.948153	-0.881379	0.124863	-0.072761	0.439327	0.060857	-0.849609	-0.237305	-0.677734	0.092917	-0.020524	0.035748	-0.575458	-0.412409	0.432351	-0.558425	-1.647000	-73.375341	89.505875
52512		8.848459	-1.908658	3.912246	1.782393	-1.267684	-0.197083	0.082201	0.309691	0.093529	-0.838135	-0.232422	-0.684082	0.088554	-0.019061	0.038978	-0.575706	-0.411584	0.431430	-0.559490	-1.755967	-73.197785	89.667265
52513		8.573128	-1.677981	4.007563	1.544356	-1.405843	-0.431150	0.169213	0.151410	0.128865	-0.851318	-0.228271	-0.685791	0.085772	-0.016758	0.039997	-0.575325	-0.411383	0.430787	-0.560524	-1.888642	-73.110291	89.907247
52514		8.579560	-1.341662	3.837038	1.210330	-1.216396	-0.475276	0.240715	0.061618	0.159793	-0.843506	-0.231689	-0.686768	0.085818	-0.013394	0.038328	-0.574528	-0.411560	0.430274	-0.561605	-2.043347	-73.073159	90.210635
52515		8.601097	-0.900540	3.567167	0.772526	-0.931053	-0.536327	0.268285	0.033164	0.199006	-0.849121	-0.236816	-0.682861	0.086026	-0.008968	0.035645	-0.573490	-0.411823	0.429836	-0.562808	-2.256508	-73.051464	90.594208
52516		8.760147	-0.591914	3.165324	0.466094	-0.486793	-0.503789	0.281084	0.027065	0.235358	-0.854980	-0.237549	-0.686523	0.087613	-0.005861	0.031633	-0.572314	-0.412053	0.429457	-0.564124	-2.530616	-73.031699	91.047978
52517		8.864819	-0.344254	3.014559	0.209252	-0.302236	-0.450212	0.309709	0.020707	0.267650	-0.842773	-0.238037	-0.684570	0.088656	-0.003371	0.030131	-0.570966	-0.412319	0.429076	-0.565583	-2.848238	-73.014236	91.565667
52518		8.939675	-0.168410	2.912818	0.020467	-0.176946	-0.410618	0.328890	0.011964	0.283416	-0.850830	-0.226563	-0.685791	0.089401	-0.001605	0.029120	-0.569515	-0.412626	0.428698	-0.567107	-3.184554	-73.000241	92.113922
52519		9.165401	-0.105188	2.705689	-0.057165	0.088962	-0.256266	0.324549	-0.005218	0.282847	-0.845459	-0.230957	-0.681396	0.091655	-0.000966	0.027058	-0.568033	-0.412971	0.428377	-0.568583	-3.523470	-72.995345	92.662839
52520		9.301452	-0.016853	2.558137	-0.160947	0.270885	-0.171005	0.326220	0.000253	0.256937	-0.846191	-0.236328	-0.686279	0.093015	-0.000091	0.025581	-0.566639	-0.413350	0.427987	-0.569991	-3.812859	-72.987190	93.159086
52521		9.507020	0.034652	2.474360	-0.228504	0.413786	-0.000265	0.292553	0.049660	0.210852	-0.848145	-0.248047	-0.683594	0.095076	0.000411	0.024721	-0.565541	-0.413599	0.427449	-0.571303	-4.027633	-72.952158	93.559076
52522		9.574191	0.099223	2.327156	-0.303152	0.584423	0.018749	0.236734	0.158922	0.149441	-0.850586	-0.234131	-0.690674	0.095760	0.001036	0.023197	-0.564966	-0.413508	0.426632	-0.572547	-4.143619	-72.856641	93.822449
52523		9.456011	-0.004125	2.298898	-0.203845	0.595632	-0.101626	0.177932	0.242194	0.096435	-0.842773	-0.239258	-0.686768	0.094588	-0.000016	0.022874	-0.564840	-0.413124	0.425639	-0.573686	-4.182368	-72.715850	93.969802
52524		9.297855	-0.068249	2.321788	-0.139486	0.552372	-0.246036	0.130833	0.290935	0.046114	-0.845215	-0.243896	-0.687744	0.093012	-0.000676	0.023082	-0.565062	-0.412570	0.424541	-0.574679	-4.148649	-72.549134	94.012187
52525		9.312645	-0.100164	2.287155	-0.107483	0.618065	-0.243318	0.100717	0.301575	0.012432	-0.845459	-0.241943	-0.697998	0.093161	-0.001007	0.022731	-0.565460	-0.411974	0.423426	-0.575537	-4.069669	-72.377897	93.989936
52526		9.401664	-0.112077	2.116724	-0.094316	0.836270	-0.211851	0.114206	0.302594	-0.006871	-0.834717	-0.239502	-0.695068	0.094048	-0.001136	0.021024	-0.565886	-0.411454	0.422229	-0.576369	-3.949581	-72.206781	93.932604
52527		9.572977	-0.084163	2.013778	-0.121294	1.015599	-0.083451	0.126591	0.303159	-0.023425	-0.839844	-0.242188	-0.705078	0.095760	-0.000866	0.019992	-0.566334	-0.411001	0.420960	-0.577180	-3.794671	-72.036000	93.846105
52528		9.656249	0.033724	1.844548	-0.234557	1.231824	-0.062090	0.160382	0.318269	-0.038387	-0.848633	-0.247559	-0.701660	0.096592	0.000304	0.018292	-0.566788	-0.410628	0.419519	-0.578048	-3.595280	-71.857006	93.732655
52529		9.696388	0.152118	1.854676	-0.346065	1.265872	-0.026952	0.150434	0.340469	-0.057634	-0.834717	-0.244385	-0.696289	0.096996	0.001479	0.018383	-0.567361	-0.410204	0.418002	-0.578885	-3.368667	-71.665901	93.584866
52530		9.617093	0.129674	1.984166	-0.312718	1.151791	-0.064986	0.113765	0.354803	-0.080332	-0.834473	-0.257568	-0.703613	0.096206	0.001247	0.019672	-0.568101	-0.409681	0.416503	-0.579610	-3.127011	-71.467255	93.399081
52531		9.435878	-0.129040	2.026362	-0.039603	1.089886	-0.222637	0.106544	0.344773	-0.102138	-0.830322	-0.245117	-0.703613	0.094393	-0.001349	0.020100	-0.568898	-0.409210	0.415007	-0.580234	-2.857626	-71.274629	93.179283
52532		9.262470	-0.271724	2.114873	0.119402	0.982633	-0.359648	0.132722	0.306091	-0.122594	-0.830322	-0.252441	-0.708008	0.092655	-0.002788	0.021005	-0.569617	-0.408967	0.413502	-0.580774	-2.547257	-71.104450	92.931896
52533		9.153779	-0.402727	2.275347	0.267709	0.822831	-0.411502	0.131527	0.242098	-0.136577	-0.821289	-0.245361	-0.714355	0.091562	-0.004105	0.022640	-0.570247	-0.408934	0.412152	-0.581138	-2.223191	-70.970690	92.668980
52534		9.054142	-0.409672	2.445809	0.292736	0.649596	-0.452154	0.122781	0.186856	-0.140772	-0.831055	-0.256836	-0.718750	0.090561	-0.004175	0.024371	-0.570792	-0.409044	0.410978	-0.581358	-1.904750	-70.868278	92.406293
52535		9.020297	-0.444180	2.446644	0.342688	0.653882	-0.485089	0.094239	0.147933	-0.129708	-0.819580	-0.259521	-0.708008	0.090218	-0.004512	0.024398	-0.571282	-0.409163	0.410018	-0.581471	-1.625253	-70.787407	92.167609
52536		9.001086	-0.395744	2.413170	0.307105	0.690205	-0.515976	0.088302	0.098985	-0.103873	-0.823975	-0.264893	-0.719727	0.090021	-0.004015	0.024085	-0.571607	-0.409354	0.409269	-0.581544	-1.395912	-70.733977	91.978337
52537		9.012732	-0.268155	2.362639	0.189215	0.747164	-0.523487	0.081769	0.048474	-0.074460	-0.826172	-0.258545	-0.718994	0.090132	-0.002725	0.023603	-0.571757	-0.409612	0.408742	-0.581585	-1.220950	-70.708733	91.842674
52538		9.070765	-0.291194	2.306045	0.218409	0.821854	-0.487546	0.074432	-0.008243	-0.041911	-0.821777	-0.262939	-0.710938	0.090706	-0.002940	0.023063	-0.571711	-0.409948	0.408467	-0.581587	-1.105996	-70.715636	91.766037
52539		9.084178	-0.136826	2.218347	0.067898	0.903960	-0.504610	0.062363	-0.057907	-0.024225	-0.821777	-0.260986	-0.714111	0.090835	-0.001386	0.022209	-0.571538	-0.410357	0.408403	-0.581514	-1.027950	-70.750608	91.721271
52540		9.092082	0.086789	2.144400	-0.152998	0.965711	-0.522051	0.049518	-0.103853	-0.019784	-0.822266	-0.274902	-0.708984	0.090910	0.000854	0.021491	-0.571283	-0.410855	0.408519	-0.581332	-0.966052	-70.812026	91.685774
52541		9.197469	0.235406	1.997901	-0.300781	1.125020	-0.470080	0.020853	-0.141455	-0.030525	-0.825684	-0.269287	-0.711670	0.091961	0.002338	0.020044	-0.571042	-0.411401	0.408801	-0.580984	-0.903123	-70.894886	91.631867
52542		9.252782	0.353301	1.855179	-0.416356	1.261586	-0.463061	-0.005915	-0.170661	-0.052694	-0.828125	-0.261230	-0.712158	0.092513	0.003509	0.018631	-0.570858	-0.412002	0.409200	-0.580457	-0.819222	-70.994862	91.539696
52543		9.266568	0.394460	1.901676	-0.450651	1.204417	-0.432522	-0.032933	-0.195343	-0.084746	-0.825439	-0.275635	-0.701904	0.092649	0.003908	0.019107	-0.570774	-0.412662	0.409680	-0.579732	-0.696499	-71.108951	91.390052
52544		9.248398	0.191025	2.201536	-0.235469	0.898315	-0.349408	-0.092423	-0.211634	-0.115096	-0.827393	-0.263428	-0.697266	0.092462	0.001867	0.022112	-0.570865	-0.413261	0.410317	-0.578764	-0.555796	-71.232699	91.185455
52545		9.231533	0.168666	2.295042	-0.201730	0.781833	-0.332980	-0.112527	-0.271869	-0.147921	-0.828613	-0.264404	-0.700195	0.092285	0.001631	0.023075	-0.570970	-0.414043	0.411114	-0.577535	-0.368860	-71.390673	90.920113
52546		9.298431	0.247723	2.326004	-0.268261	0.747312	-0.257481	-0.146712	-0.273141	-0.178118	-0.832031	-0.273682	-0.701172	0.092955	0.002412	0.023385	-0.571226	-0.414792	0.411952	-0.576145	-0.146307	-71.549428	90.596669
52547		9.368349	0.273001	2.378363	-0.278690	0.694460	-0.172299	-0.181559	-0.259179	-0.209841	-0.825928	-0.277344	-0.696045	0.093655	0.002653	0.023903	-0.571675	-0.415465	0.412781	-0.574620	0.116182	-71.699472	90.210522
52548		9.415893	0.081597	2.855687	-0.070130	0.233172	0.024045	-0.269333	-0.241112	-0.220495	-0.827881	-0.264160	-0.700195	0.094125	0.000751	0.028669	-0.572369	-0.415857	0.413788	-0.572919	0.351666	-71.838886	89.800250
52549		9.527423	-0.114853	3.170746	0.139919	-0.057362	0.228014	-0.337266	-0.283101	-0.232775	-0.843506	-0.269775	-0.692139	0.095228	-0.001206	0.031844	-0.573152	-0.416196	0.415081	-0.570951	0.575781	-72.001508	89.361279
52550		9.859222	0.127795	3.249463	-0.089580	-0.060509	0.568441	-0.364300	-0.321316	-0.244275	-0.830322	-0.267090	-0.700684	0.098541	0.001217	0.032651	-0.573939	-0.416589	0.416536	-0.568810	0.811583	-72.185688	88.894011
52551		10.207069	0.318816	3.062330	-0.265950	0.193726	0.843551	-0.414360	-0.289584	-0.233882	-0.838623	-0.269043	-0.690918	0.102030	0.003132	0.030765	-0.574864	-0.416722	0.418059	-0.566658	1.006390	-72.350950	88.440295
52552		10.407583	0.416736	2.796305	-0.349747	0.482363	0.955586	-0.451028	-0.233453	-0.210515	-0.839844	-0.267578	-0.691650	0.104047	0.004121	0.028075	-0.575911	-0.416540	0.419571	-0.564607	1.141172	-72.484175	88.027742
52553		10.250982	0.406129	2.519016	-0.329395	0.680863	0.723960	-0.480532	-0.147052	-0.179121	-0.835693	-0.263184	-0.691895	0.102495	0.004030	0.025256	-0.577109	-0.415959	0.420978	-0.562762	1.202312	-72.567795	87.675060
52554		9.948701	0.325665	2.515099	-0.248060	0.581126	0.434712	-0.524897	-0.099664	-0.159315	-0.837646	-0.263916	-0.682373	0.099477	0.003243	0.025192	-0.578438	-0.415072	0.422414	-0.560974	1.201362	-72.624754	87.360854
52555		9.476602	0.012780	2.530281	0.059109	0.406317	-0.012694	-0.581166	-0.140126	-0.153904	-0.841553	-0.249023	-0.688232	0.094748	0.000129	0.025369	-0.579778	-0.414121	0.424130	-0.558994	1.161212	-72.704687	87.054146
52556		9.076542	-0.275434	2.473668	0.342345	0.313323	-0.412523	-0.607267	-0.233879	-0.167496	-0.840332	-0.248047	-0.697998	0.090734	-0.002755	0.024851	-0.581005	-0.413382	0.426160	-0.556719	1.136158	-72.838583	86.716048
52557		8.841312	-0.623038	2.408026	0.688040	0.265258	-0.657814	-0.591795	-0.306913	-0.178833	-0.841797	-0.253418	-0.684570	0.088370	-0.006238	0.024234	-0.582070	-0.412909	0.428329	-0.554288	1.147200	-73.013838	86.349851
52558		8.691179	-0.785088	2.430483	0.846905	0.158038	-0.795045	-0.550899	-0.358046	-0.182385	-0.843018	-0.253174	-0.685059	0.086861	-0.007863	0.024482	-0.582944	-0.412699	0.430523	-0.551820	1.194454	-73.218599	85.970431
52559		8.702934	-1.004690	2.519779	1.063134	0.025087	-0.759030	-0.521244	-0.405088	-0.182215	-0.845947	-0.247314	-0.683105	0.086969	-0.010060	0.025400	-0.583648	-0.412701	0.432765	-0.549315	1.266425	-73.449883	85.583618
52560		8.902527	-1.144144	2.502677	1.208551	0.046535	-0.573395	-0.480341	-0.418664	-0.175029	-0.840820	-0.247314	-0.680176	0.088963	-0.011459	0.025241	-0.584211	-0.412840	0.434947	-0.546884	1.354920	-73.689228	85.204480
52561		9.188635	-1.100556	2.435833	1.177438	0.150163	-0.317084	-0.406852	-0.379278	-0.161894	-0.857910	-0.244385	-0.681641	0.091831	-0.011030	0.024555	-0.584668	-0.413053	0.436833	-0.544728	1.464822	-73.905666	84.847341
52562		9.527844	-0.943635	2.518915	1.027543	0.135291	0.033171	-0.316091	-0.333848	-0.149054	-0.854004	-0.245850	-0.670654	0.095229	-0.009467	0.025363	-0.584995	-0.413376	0.438365	-0.542897	1.604468	-74.096400	84.513642
52563		9.885630	-0.678372	2.824719	0.756574	-0.077601	0.462836	-0.229104	-0.305750	-0.124147	-0.856689	-0.233154	-0.667969	0.098809	-0.006813	0.028406	-0.585136	-0.413821	0.439626	-0.541385	1.747928	-74.270895	84.228164
52564		10.274400	-0.387550	3.214723	0.454235	-0.359003	0.944294	-0.148395	-0.277291	-0.089495	-0.854248	-0.240479	-0.667236	0.102698	-0.003898	0.032293	-0.585074	-0.414347	0.440658	-0.540208	1.868758	-74.429980	84.014333
52565		10.494633	-0.128597	3.491433	0.185203	-0.575977	1.231671	-0.078543	-0.234712	-0.054200	-0.853271	-0.236816	-0.668213	0.104905	-0.001301	0.035038	-0.584867	-0.414884	0.441446	-0.539377	1.957626	-74.564810	83.875468
52566		10.625860	-0.009389	3.690176	0.056005	-0.747442	1.410706	-0.023681	-0.186867	-0.002362	-0.863525	-0.238525	-0.671631	0.106224	-0.000091	0.037001	-0.584509	-0.415337	0.442057	-0.538916	1.967438	-74.673571	83.851068
52567		10.680636	-0.000763	3.877633	0.032182	-0.930208	1.511874	0.017751	-0.122143	0.052860	-0.855713	-0.243652	-0.664307	0.106783	0.000017	0.038842	-0.584061	-0.415615	0.442477	-0.538842	1.881355	-74.745993	83.950912
52568		10.529699	-0.041664	3.991117	0.053491	-1.089564	1.395136	0.058922	-0.016219	0.110752	-0.859131	-0.245117	-0.664795	0.105294	-0.000370	0.039920	-0.583604	-0.415599	0.442600	-0.539248	1.688748	-74.759033	84.185477
52569		10.120185	-0.130580	3.943027	0.124677	-1.152259	0.987284	0.103991	0.092093	0.155451	-0.859375	-0.238037	-0.667969	0.101221	-0.001248	0.039383	-0.583173	-0.415323	0.442376	-0.540110	1.422701	-74.710176	84.523075
52570		9.509525	-0.155896	3.805006	0.132012	-1.166183	0.363558	0.134123	0.188880	0.208229	-0.860107	-0.247803	-0.664795	0.095133	-0.001485	0.037959	-0.582749	-0.414757	0.441899	-0.541392	1.061467	-74.606325	84.977393
52571		8.975162	-0.278090	3.745546	0.231697	-1.237538	-0.165162	0.162518	0.217127	0.247969	-0.854004	-0.238770	-0.672363	0.089796	-0.002700	0.037356	-0.582221	-0.414108	0.441342	-0.542910	0.639756	-74.485532	85.511590
52572		8.657294	-0.461015	3.547220	0.404540	-1.125341	-0.522157	0.172986	0.139523	0.281941	-0.860596	-0.233887	-0.676270	0.086604	-0.004519	0.035408	-0.581403	-0.413624	0.441052	-0.544388	0.161681	-74.408460	86.110962
52573		8.788470	-0.770114	3.306959	0.711642	-0.869369	-0.458331	0.191111	0.019835	0.310122	-0.861816	-0.240479	-0.659668	0.087900	-0.007596	0.033054	-0.580208	-0.413455	0.441116	-0.545738	-0.359738	-74.398305	86.766057
52574		9.329801	-1.019287	3.147560	0.957012	-0.583062	0.022728	0.221185	-0.024684	0.312365	-0.862549	-0.237061	-0.669189	0.093310	-0.010082	0.031476	-0.578842	-0.413488	0.441233	-0.547068	-0.869984	-74.412329	87.427489
52575		9.880131	-1.014670	3.075847	0.941662	-0.362230	0.535713	0.247805	0.018114	0.297989	-0.854980	-0.231689	-0.674316	0.098819	-0.010038	0.030737	-0.577555	-0.413511	0.441120	-0.548500	-1.333472	-74.400213	88.056154
52576		10.170909	-0.816416	2.897250	0.735573	-0.092037	0.768352	0.266755	0.082415	0.283978	-0.866211	-0.241943	-0.671631	0.101733	-0.008058	0.028920	-0.576405	-0.413441	0.440741	-0.550065	-1.753083	-74.350333	88.650432
52577		10.339253	-0.429618	2.897338	0.330759	-0.012264	0.928340	0.268372	0.125832	0.269358	-0.866699	-0.233643	-0.670410	0.103416	-0.004196	0.028903	-0.575387	-0.413287	0.440198	-0.551678	-2.134452	-74.274608	89.206330
52578		10.333669	-0.011793	2.839896	-0.102089	0.079667	0.903330	0.290583	0.174902	0.263574	-0.857910	-0.239746	-0.667969	0.103362	-0.000023	0.028308	-0.574442	-0.413075	0.439439	-0.553425	-2.483157	-74.170201	89.741993
52579		10.254797	0.460368	2.839060	-0.590586	0.101450	0.820935	0.316498	0.218820	0.254309	-0.861084	-0.229492	-0.680176	0.102573	0.004689	0.028286	-0.573565	-0.412832	0.438461	-0.555288	-2.787504	-74.039842	90.247047
52580		10.027991	0.857583	2.797465	-1.000937	0.119096	0.584704	0.316428	0.262069	0.254415	-0.854980	-0.250244	-0.674072	0.100305	0.008659	0.027857	-0.572779	-0.412466	0.437358	-0.557238	-3.081513	-73.884157	90.741576
52581		9.764135	1.074088	2.752236	-1.229177	0.122805	0.313554	0.280177	0.287561	0.236089	-0.861328	-0.242920	-0.672363	0.097668	0.010818	0.027397	-0.572172	-0.411963	0.436242	-0.559105	-3.348956	-73.713665	91.187306
52582		9.512183	1.163479	2.629481	-1.325862	0.199024	0.033727	0.244176	0.297944	0.216693	-0.853271	-0.233154	-0.679443	0.095148	0.011706	0.026167	-0.571708	-0.411373	0.435151	-0.560861	-3.590675	-73.537576	91.586058
52583		9.338554	1.102358	2.602085	-1.274102	0.199367	-0.141519	0.212486	0.279276	0.180913	-0.860352	-0.236816	-0.674316	0.093412	0.011081	0.025902	-0.571372	-0.410817	0.434130	-0.562401	-3.777630	-73.372842	91.908150
52584		9.260530	1.124194	2.670264	-1.306124	0.135650	-0.198784	0.184545	0.256283	0.137160	-0.855713	-0.240234	-0.684570	0.092632	0.011281	0.026594	-0.571162	-0.410339	0.433164	-0.563706	-3.896251	-73.222909	92.142453
52585		9.354712	0.902303	2.750962	-1.093011	0.100198	-0.081920	0.139431	0.214183	0.083629	-0.856201	-0.240479	-0.685059	0.093573	0.009043	0.027416	-0.571106	-0.409966	0.432332	-0.564673	-3.941806	-73.098819	92.273575
52586		9.502951	0.680392	2.774291	-0.874331	0.132833	0.070813	0.128767	0.175067	0.024953	-0.854004	-0.237061	-0.688721	0.095053	0.006798	0.027664	-0.571149	-0.409800	0.431522	-0.565369	-3.887878	-72.999572	92.294599
52587		9.688265	0.516555	2.632449	-0.704231	0.334151	0.209861	0.124862	0.160749	-0.029516	-0.845459	-0.239258	-0.684570	0.096905	0.005135	0.026250	-0.571325	-0.409779	0.430651	-0.565870	-3.736587	-72.910411	92.211245
52588		9.785041	0.359943	2.545609	-0.536966	0.458333	0.279799	0.148753	0.186910	-0.076715	-0.852051	-0.242920	-0.691162	0.097876	0.003543	0.025367	-0.571640	-0.409854	0.429542	-0.566341	-3.482894	-72.808068	92.034914
52589		9.661341	0.346561	2.536189	-0.508216	0.449411	0.158950	0.191264	0.211055	-0.104570	-0.839600	-0.245361	-0.695313	0.096642	0.003391	0.025263	-0.571998	-0.410040	0.428184	-0.566871	-3.153406	-72.692413	91.804716
52590		9.380782	0.353184	2.512027	-0.495160	0.409322	-0.116229	0.224925	0.222757	-0.116445	-0.841553	-0.244873	-0.684570	0.093838	0.003449	0.025020	-0.572345	-0.410315	0.426673	-0.567462	-2.785851	-72.570130	91.554617
52591		9.185126	0.351870	2.540450	-0.475219	0.343778	-0.294276	0.253098	0.223470	-0.120520	-0.847900	-0.254639	-0.693359	0.091882	0.003431	0.025306	-0.572645	-0.410675	0.425069	-0.568102	-2.398843	-72.446927	91.300951
52592		8.920158	0.388621	2.505592	-0.491603	0.317383	-0.557647	0.269290	0.224119	-0.115162	-0.838379	-0.253174	-0.698486	0.089232	0.003801	0.024961	-0.572894	-0.411069	0.423428	-0.568791	-2.016762	-72.322965	91.062231
52593		8.724857	0.438592	2.440055	-0.522652	0.340913	-0.763935	0.268783	0.235889	-0.099478	-0.839600	-0.249512	-0.698730	0.087279	0.004310	0.024303	-0.573125	-0.411391	0.421784	-0.569546	-1.666431	-72.191275	90.856156
52594		8.524635	0.523610	2.420575	-0.591465	0.318960	-0.961069	0.263747	0.237072	-0.086878	-0.830322	-0.261230	-0.703125	0.085277	0.005167	0.024112	-0.573332	-0.411667	0.420178	-0.570326	-1.345538	-72.058506	90.677479
52595		8.475572	0.669551	2.404295	-0.724120	0.339807	-1.013575	0.238216	0.229144	-0.063877	-0.832520	-0.264648	-0.699951	0.084785	0.006640	0.023954	-0.573506	-0.411844	0.418712	-0.571101	-1.083221	-71.929568	90.545229
52596		8.502052	0.748168	2.370178	-0.791887	0.398863	-0.999278	0.213899	0.213081	-0.049375	-0.840332	-0.261230	-0.700195	0.085048	0.007435	0.023619	-0.573653	-0.411966	0.417390	-0.571832	-0.863221	-71.809665	90.442804
52597		8.566577	0.770958	2.357337	-0.806311	0.448496	-0.942155	0.180322	0.210882	-0.030782	-0.833984	-0.266113	-0.704346	0.085692	0.007675	0.023490	-0.573811	-0.411957	0.416208	-0.572541	-0.696773	-71.690625	90.376389
52598		8.686990	0.785964	2.291077	-0.815145	0.566206	-0.849123	0.145529	0.200635	-0.013874	-0.831299	-0.260742	-0.702393	0.086893	0.007837	0.022829	-0.573969	-0.411844	0.415190	-0.573203	-0.581060	-71.577549	90.342358
52599		8.808565	0.723783	2.311918	-0.749541	0.601660	-0.727765	0.102968	0.201677	0.000332	-0.823975	-0.264404	-0.708984	0.088109	0.007226	0.023034	-0.574177	-0.411574	0.414318	-0.573820	-0.514706	-71.463530	90.334660
52600		8.828047	0.618979	2.353901	-0.643089	0.585026	-0.696627	0.074925	0.196334	0.011655	-0.824707	-0.272217	-0.708984	0.088303	0.006186	0.023455	-0.574398	-0.411214	0.413567	-0.574397	-0.484220	-71.352726	90.347550
52601		8.793319	0.527616	2.414824	-0.551399	0.532246	-0.710772	0.062313	0.173962	0.022042	-0.826416	-0.270020	-0.707275	0.087954	0.005278	0.024073	-0.574568	-0.410861	0.412936	-0.574934	-0.478792	-71.254478	90.379571
52602		8.852120	0.525356	2.269280	-0.549610	0.702677	-0.702812	0.042745	0.139934	0.026735	-0.826172	-0.265625	-0.714844	0.088536	0.005261	0.022632	-0.574693	-0.410542	0.412468	-0.575373	-0.492636	-71.175945	90.420270
52603		8.854731	0.518625	2.206857	-0.544253	0.773091	-0.721397	0.020563	0.100222	0.028267	-0.818604	-0.267334	-0.707031	0.088558	0.005197	0.022025	-0.574778	-0.410268	0.412180	-0.575689	-0.522270	-71.119909	90.464093
52604		8.853171	0.516503	2.213604	-0.544008	0.772816	-0.721359	0.026213	0.054909	0.031350	-0.817139	-0.265625	-0.715820	0.088537	0.005176	0.022112	-0.574749	-0.410135	0.412015	-0.575931	-0.554306	-71.090065	90.513715
52605		8.864899	0.632199	2.159270	-0.661891	0.829853	-0.728536	0.041469	-0.004192	0.040843	-0.825928	-0.268555	-0.719727	0.088647	0.006336	0.021596	-0.574540	-0.410195	0.411993	-0.576112	-0.594425	-71.093762	90.581297
52606		8.932513	0.731887	2.080256	-0.764991	0.923023	-0.690422	0.030651	-0.058211	0.055045	-0.829346	-0.266602	-0.713379	0.089317	0.007340	0.020830	-0.574201	-0.410351	0.412189	-0.576199	-0.665499	-71.128548	90.674783
52607		9.013054	0.754255	1.904704	-0.792604	1.107176	-0.670594	-0.008036	-0.106597	0.067710	-0.821777	-0.266113	-0.714111	0.090118	0.007574	0.019095	-0.573805	-0.410509	0.412659	-0.576145	-0.781539	-71.190663	90.792587
52608		9.049041	0.740327	1.928408	-0.785911	1.083898	-0.627946	-0.033651	-0.157843	0.085549	-0.834473	-0.266846	-0.706543	0.090472	0.007445	0.019354	-0.573304	-0.410705	0.413388	-0.575982	-0.944438	-71.282210	90.944198
52609		9.072435	0.671795	1.950860	-0.726360	1.053747	-0.597036	-0.062586	-0.196740	0.094422	-0.833740	-0.265625	-0.701660	0.090702	0.006767	0.019596	-0.572755	-0.410911	0.414327	-0.575706	-1.142004	-71.395472	91.114938
52610		9.100606	0.554655	1.958046	-0.619881	1.037058	-0.565913	-0.089816	-0.211659	0.108947	-0.835693	-0.259277	-0.703125	0.090982	0.005605	0.019674	-0.572188	-0.411053	0.415418	-0.575382	-1.382727	-71.517284	91.314717
52611		9.037769	0.430288	2.048021	-0.507125	0.911433	-0.594614	-0.115941	-0.230994	0.112030	-0.832520	-0.261475	-0.700684	0.090352	0.004365	0.020582	-0.571625	-0.411166	0.416644	-0.574973	-1.647813	-71.649445	91.524156
52612		8.989945	0.399769	2.072900	-0.489021	0.849791	-0.630396	-0.144007	-0.269345	0.115943	-0.824463	-0.255127	-0.700928	0.089869	0.004065	0.020847	-0.571028	-0.411302	0.418070	-0.574435	-1.941257	-71.803567	91.746252
52613		9.060741	0.395950	2.124886	-0.499348	0.796786	-0.545290	-0.147147	-0.291748	0.113253	-0.837158	-0.257813	-0.689697	0.090574	0.004026	0.021378	-0.570396	-0.411496	0.419559	-0.573837	-2.237848	-71.969819	91.969662
52614		9.134629	0.495142	1.989154	-0.611590	0.921867	-0.516485	-0.151115	-0.296857	0.111783	-0.841309	-0.246338	-0.696777	0.091314	0.005018	0.020023	-0.569764	-0.411697	0.421073	-0.573212	-2.539009	-72.139062	92.195170
52615		9.276041	0.589988	1.889006	-0.720126	1.032950	-0.411851	-0.153229	-0.309369	0.105169	-0.842041	-0.249756	-0.696045	0.092728	0.005963	0.019029	-0.569128	-0.411939	0.422611	-0.572538	-2.835875	-72.314882	92.414780
52616		9.286045	0.615713	1.727563	-0.756535	1.160431	-0.449185	-0.169836	-0.329704	0.093892	-0.852295	-0.243652	-0.689209	0.092829	0.006215	0.017423	-0.568514	-0.412215	0.424232	-0.571750	-3.128759	-72.502745	92.619677
52617		9.100981	0.705833	1.560634	-0.852953	1.234482	-0.674303	-0.201931	-0.339685	0.072423	-0.842773	-0.241211	-0.683350	0.090981	0.007107	0.015754	-0.568003	-0.412471	0.425925	-0.570813	-3.407367	-72.696289	92.790460
52618		8.727046	0.798390	1.786437	-0.952179	0.878529	-0.963305	-0.215565	-0.351851	0.053931	-0.846680	-0.242676	-0.684326	0.087237	0.008027	0.018009	-0.567545	-0.412762	0.427655	-0.569764	-3.665688	-72.897679	92.931381
52619		8.347361	1.017671	2.013914	-1.177910	0.520800	-1.262182	-0.231392	-0.397756	0.049594	-0.848145	-0.229004	-0.683594	0.083431	0.010221	0.020293	-0.567031	-0.413145	0.429545	-0.568575	-3.935758	-73.124806	93.075205
52620		8.323398	1.121998	2.281297	-1.295204	0.222337	-1.209489	-0.233922	-0.508256	0.035040	-0.851807	-0.230469	-0.677246	0.083174	0.011261	0.023011	-0.566324	-0.413865	0.431727	-0.567102	-4.200013	-73.415931	93.210782
52621		8.674937	0.956708	2.245385	-1.142842	0.306434	-0.878968	-0.262176	-0.636546	0.009483	-0.855713	-0.223145	-0.663330	0.086677	0.009601	0.022717	-0.565464	-0.414918	0.434292	-0.565230	-4.457272	-73.780822	93.322425
52622		9.345696	0.727025	2.068599	-0.925111	0.600529	-0.276812	-0.276287	-0.676494	-0.044491	-0.856201	-0.236084	-0.679443	0.093388	0.007278	0.020992	-0.564693	-0.416157	0.436896	-0.563079	-4.628751	-74.171353	93.335646
52623		9.843020	0.406270	2.250929	-0.616379	0.491761	0.261771	-0.304356	-0.626736	-0.117358	-0.869629	-0.233398	-0.664551	0.098361	0.004040	0.022811	-0.564286	-0.417329	0.439277	-0.560762	-4.662586	-74.536348	93.189749
52624		10.166883	0.138208	2.408840	-0.350089	0.356642	0.624602	-0.301352	-0.609572	-0.196857	-0.874023	-0.227539	-0.653320	0.101596	0.001319	0.024396	-0.564127	-0.418633	0.441432	-0.558252	-4.520142	-74.895561	92.862877
52625		10.492095	-0.101009	2.497417	-0.102162	0.285467	0.968734	-0.273249	-0.585748	-0.271849	-0.876953	-0.224609	-0.649658	0.104846	-0.001118	0.025283	-0.564163	-0.420108	0.443276	-0.555640	-4.184381	-75.243654	92.353414
52626		10.485702	-0.253660	2.671337	0.068040	0.047566	1.010577	-0.231646	-0.561890	-0.327814	-0.872314	-0.216309	-0.640137	0.104777	-0.002677	0.027011	-0.564312	-0.421756	0.444819	-0.553001	-3.675993	-75.579912	91.690670
52627		10.383580	-0.229237	2.848372	0.067032	-0.211959	0.954609	-0.193195	-0.578920	-0.372928	-0.873535	-0.220459	-0.644043	0.103748	-0.002458	0.028786	-0.564461	-0.423651	0.446199	-0.550282	-3.017114	-75.925127	90.896739
52628		10.295049	-0.128763	2.956475	-0.005185	-0.400748	0.891717	-0.179321	-0.613460	-0.387584	-0.882568	-0.221436	-0.631348	0.102856	-0.001460	0.029882	-0.564538	-0.425708	0.447606	-0.547465	-2.282714	-76.288590	90.033556
52629		10.346924	-0.268376	2.961465	0.166575	-0.467850	0.941568	-0.176112	-0.638132	-0.387994	-0.884277	-0.221436	-0.621582	0.103369	-0.002858	0.029947	-0.564544	-0.427836	0.449062	-0.544600	-1.503844	-76.662935	89.128753
52630		10.506277	-0.220165	2.963424	0.150889	-0.503205	1.093077	-0.161006	-0.650879	-0.371668	-0.884766	-0.234375	-0.632324	0.104961	-0.002373	0.029978	-0.564437	-0.430000	0.450545	-0.541776	-0.708630	-77.042020	88.216998
52631		10.718476	-0.088600	3.186895	0.040813	-0.741371	1.345182	-0.154244	-0.651599	-0.328454	-0.884033	-0.230957	-0.621338	0.107079	-0.001037	0.032219	-0.564187	-0.432080	0.452094	-0.539083	0.030389	-77.418001	87.368683
52632		10.946167	0.042754	3.318298	-0.070034	-0.888518	1.590673	-0.156449	-0.642049	-0.262943	-0.888672	-0.227051	-0.613281	0.109355	0.000310	0.033534	-0.563781	-0.433976	0.453759	-0.536581	0.644078	-77.786858	86.648361
52633		11.094762	0.024214	3.319116	-0.032843	-0.930719	1.730412	-0.163580	-0.592284	-0.196462	-0.894775	-0.223389	-0.611816	0.110849	0.000161	0.033519	-0.563317	-0.435561	0.455440	-0.534355	1.109620	-78.125946	86.076568
52634		11.074866	-0.085961	3.313847	0.088289	-0.997360	1.704206	-0.166051	-0.468799	-0.152420	-0.892090	-0.229492	-0.607910	0.110670	-0.000916	0.033399	-0.563018	-0.436706	0.456874	-0.532508	1.472272	-78.394405	85.608809
52635		10.685448	-0.184781	3.344251	0.186290	-1.155154	1.324088	-0.179676	-0.303086	-0.114936	-0.896973	-0.230225	-0.607910	0.106803	-0.001879	0.033606	-0.563024	-0.437283	0.457955	-0.531098	1.723914	-78.567629	85.246990
52636		10.161260	-0.276869	3.553959	0.261417	-1.496788	0.847976	-0.211120	-0.187352	-0.084804	-0.899170	-0.231201	-0.599365	0.101578	-0.002774	0.035638	-0.563282	-0.437395	0.458860	-0.529949	1.870143	-78.675236	84.974388
52637		9.771051	-0.408186	3.678077	0.377710	-1.718448	0.486466	-0.274321	-0.104707	-0.074907	-0.900391	-0.223633	-0.598389	0.097690	-0.004068	0.036838	-0.563840	-0.437085	0.459719	-0.528866	1.945755	-78.735230	84.737062
52638		9.396746	-0.629258	3.688126	0.587036	-1.822012	0.118714	-0.335890	-0.016382	-0.078044	-0.897461	-0.225342	-0.600098	0.093962	-0.006267	0.036899	-0.564743	-0.436376	0.460485	-0.527822	1.988588	-78.744881	84.497135
52639		9.030216	-0.810758	3.663063	0.757747	-1.879857	-0.246491	-0.395470	0.074650	-0.098460	-0.903564	-0.225586	-0.605713	0.090312	-0.008080	0.036613	-0.566037	-0.435301	0.461103	-0.526782	2.045239	-78.701612	84.208378
52640		8.763157	-0.994217	3.595711	0.934653	-1.872265	-0.521209	-0.485776	0.137128	-0.130726	-0.896729	-0.218018	-0.605469	0.087650	-0.009912	0.035921	-0.567754	-0.433880	0.461711	-0.525573	2.134974	-78.622109	83.832969
52641		8.628281	-1.208887	3.358372	1.157884	-1.674079	-0.699836	-0.537984	0.158033	-0.162797	-0.899658	-0.219238	-0.603516	0.086299	-0.012069	0.033548	-0.569712	-0.432325	0.462322	-0.524196	2.278688	-78.529493	83.371936
52642		8.513043	-1.389300	3.182087	1.346611	-1.532922	-0.848061	-0.538007	0.127770	-0.197890	-0.890869	-0.221436	-0.607910	0.085137	-0.013892	0.031804	-0.571687	-0.430928	0.462941	-0.522647	2.520559	-78.453296	82.810510
52643		8.653008	-1.373022	2.898140	1.359753	-1.226352	-0.768016	-0.492466	0.055341	-0.242502	-0.901367	-0.216553	-0.606445	0.086521	-0.013764	0.028991	-0.573509	-0.429949	0.463547	-0.520918	2.917189	-78.416473	82.117709
52644		8.826740	-1.400553	2.752687	1.412831	-1.059179	-0.629431	-0.461158	-0.025847	-0.272482	-0.898682	-0.212402	-0.606445	0.088245	-0.014062	0.027571	-0.575148	-0.429339	0.464237	-0.518996	3.426440	-78.424259	81.328176
52645		9.191303	-1.495578	2.702409	1.536019	-0.961727	-0.287169	-0.384384	-0.117166	-0.299702	-0.899658	-0.210449	-0.612549	0.091875	-0.015041	0.027107	-0.576478	-0.429245	0.464928	-0.516975	4.074442	-78.481428	80.442061
52646		9.678447	-1.139405	2.615264	1.224550	-0.768099	0.173333	-0.243200	-0.181217	-0.314675	-0.897949	-0.208984	-0.603760	0.096743	-0.011514	0.026254	-0.577391	-0.429757	0.465405	-0.515098	4.869333	-78.572463	79.488780
52647		10.079252	-0.804847	2.505555	0.938704	-0.574002	0.546182	-0.158528	-0.197525	-0.281430	-0.894043	-0.215088	-0.606201	0.100756	-0.008170	0.025162	-0.577997	-0.430476	0.465780	-0.513478	5.636298	-78.671770	78.613848
52648		10.185875	-0.586632	2.213712	0.775276	-0.271339	0.595096	-0.059942	-0.210135	-0.235882	-0.896240	-0.217041	-0.600098	0.101828	-0.005980	0.022246	-0.578241	-0.431405	0.466035	-0.512189	6.348177	-78.778920	77.852955
52649		10.473081	-0.109009	2.038619	0.346797	-0.021474	0.851856	0.004532	-0.214684	-0.163582	-0.904785	-0.217529	-0.604492	0.104708	-0.001176	0.020499	-0.578150	-0.432362	0.466292	-0.511250	6.903091	-78.891618	77.290041
52650		10.813092	0.252731	1.686293	0.046430	0.400867	1.126578	0.033342	-0.183676	-0.071282	-0.894287	-0.217529	-0.603516	0.108116	0.002486	0.016963	-0.577832	-0.433108	0.466586	-0.510710	7.204928	-78.992526	77.001976
52651		10.892096	0.474170	1.670480	-0.167402	0.437137	1.207021	0.044362	-0.109274	0.030424	-0.903320	-0.221191	-0.601318	0.108911	0.004755	0.016765	-0.577404	-0.433458	0.466856	-0.510652	7.190532	-79.058138	77.042588
52652		10.669167	0.474561	1.988697	-0.215706	0.078216	1.048187	-0.004834	-0.017954	0.112078	-0.898682	-0.215820	-0.602295	0.106687	0.004806	0.019896	-0.577086	-0.433242	0.467165	-0.510910	6.873638	-79.077700	77.362530
52653		10.212043	0.148810	2.126874	0.061660	-0.172958	0.617931	-0.080642	0.030359	0.152968	-0.907959	-0.215820	-0.599854	0.102122	0.001575	0.021253	-0.576941	-0.432588	0.467616	-0.511216	6.374903	-79.071860	77.823473
52654		9.789721	-0.017314	2.066705	0.199061	-0.202875	0.188782	-0.138986	0.071824	0.154263	-0.899658	-0.205811	-0.605957	0.097905	-0.000083	0.020632	-0.577015	-0.431656	0.468100	-0.511476	5.827298	-79.041854	78.300123
52655		9.458320	-0.180040	2.092785	0.329182	-0.297136	-0.134087	-0.207420	0.101929	0.135313	-0.899170	-0.209961	-0.605469	0.094595	-0.001715	0.020881	-0.577355	-0.430494	0.468630	-0.511588	5.290403	-78.992597	78.726033
52656		9.268026	-0.401854	2.044673	0.533216	-0.296814	-0.332918	-0.258235	0.144729	0.098166	-0.902344	-0.201416	-0.604492	0.092697	-0.003947	0.020385	-0.577999	-0.429161	0.469086	-0.511563	4.826897	-78.916499	79.047549
52657		9.136310	-0.522094	2.030729	0.638023	-0.305673	-0.465599	-0.284541	0.184707	0.068580	-0.901855	-0.211670	-0.607422	0.091384	-0.005161	0.020230	-0.578867	-0.427719	0.469428	-0.511476	4.429952	-78.815572	79.286008
52658		9.025268	-0.709081	1.932093	0.821568	-0.235138	-0.595261	-0.281817	0.182965	0.043920	-0.895508	-0.207275	-0.618164	0.090272	-0.007044	0.019248	-0.579786	-0.426345	0.469715	-0.511318	4.111438	-78.714469	79.446139
52659		9.051395	-0.834605	1.915756	0.942329	-0.213163	-0.573586	-0.250286	0.176789	0.033100	-0.891602	-0.198975	-0.612061	0.090532	-0.008307	0.019088	-0.580650	-0.425103	0.469914	-0.511189	3.846831	-78.616142	79.569811
52660		9.138663	-0.892227	1.880873	1.001631	-0.154970	-0.494875	-0.194099	0.154631	0.022757	-0.893311	-0.195801	-0.612549	0.091402	-0.008894	0.018747	-0.581367	-0.424104	0.470012	-0.511113	3.650845	-78.530161	79.656317
52661		9.280701	-0.980793	1.807730	1.099251	-0.053918	-0.370761	-0.145464	0.137759	0.025328	-0.891113	-0.205566	-0.614990	0.092821	-0.009783	0.018020	-0.581935	-0.423283	0.470038	-0.511124	3.480322	-78.453704	79.745342
52662		9.438217	-1.017850	1.808708	1.138904	-0.016665	-0.216335	-0.052519	0.122340	0.027288	-0.888916	-0.188721	-0.613525	0.094395	-0.010161	0.018032	-0.582263	-0.422767	0.469877	-0.511324	3.361620	-78.386253	79.835811
52663		9.502437	-1.031868	1.735221	1.162345	0.078277	-0.168266	0.029495	0.136809	0.029862	-0.899170	-0.197754	-0.623047	0.095038	-0.010307	0.017286	-0.582446	-0.422447	0.469468	-0.511757	3.281603	-78.310414	79.934824
52664		9.515880	-1.067239	1.641764	1.208674	0.182584	-0.174632	0.105559	0.160751	0.035643	-0.895264	-0.197510	-0.616943	0.095174	-0.010664	0.016336	-0.582509	-0.422273	0.468808	-0.512434	3.226447	-78.221216	80.052943
52665		9.433107	-1.016018	1.575341	1.163285	0.253647	-0.269108	0.171127	0.168729	0.041027	-0.893799	-0.205811	-0.620850	0.094346	-0.010154	0.015665	-0.582438	-0.422256	0.467966	-0.513297	3.194351	-78.127437	80.185967
52666		9.336664	-0.891153	1.390562	1.057733	0.445794	-0.400803	0.197754	0.168824	0.039788	-0.883057	-0.190918	-0.622803	0.093380	-0.008907	0.013818	-0.582313	-0.422318	0.467054	-0.514218	3.181769	-78.033734	80.314644
52667		9.173213	-0.764623	1.247865	0.943258	0.581475	-0.589792	0.204153	0.141459	0.034545	-0.889648	-0.203613	-0.619629	0.091742	-0.007643	0.012406	-0.582123	-0.422481	0.466191	-0.515080	3.192304	-77.955338	80.423519
52668		8.996586	-0.512561	1.113689	0.702282	0.715332	-0.788461	0.173932	0.088630	0.022231	-0.886230	-0.205078	-0.619141	0.089971	-0.005125	0.011093	-0.581904	-0.422721	0.465535	-0.515724	3.226405	-77.906973	80.490562
52669		8.858540	-0.258793	1.044843	0.453523	0.787435	-0.935376	0.126921	0.029477	0.012859	-0.887695	-0.205811	-0.626465	0.088587	-0.002589	0.010434	-0.581672	-0.422998	0.465151	-0.516106	3.267983	-77.891955	80.522470
52670		8.742020	-0.031365	0.976556	0.231446	0.854735	-1.060921	0.078618	-0.022637	-0.003138	-0.885742	-0.196777	-0.626709	0.087419	-0.000319	0.009775	-0.581461	-0.423306	0.465011	-0.516218	3.332045	-77.906442	80.503026
52671		8.713480	0.211211	0.957333	-0.007006	0.889590	-1.089477	0.035772	-0.065390	-0.027223	-0.882080	-0.202637	-0.628418	0.087132	0.002099	0.009602	-0.581304	-0.423655	0.465053	-0.516070	3.443340	-77.944344	80.410230
52672		8.707352	0.282510	0.976763	-0.077200	0.869040	-1.089692	-0.026745	-0.106904	-0.053050	-0.893066	-0.206299	-0.623291	0.087069	0.002803	0.009814	-0.581248	-0.423990	0.465324	-0.515614	3.595329	-78.005271	80.239159
52673		8.974520	0.430896	1.071291	-0.220798	0.835409	-0.805542	-0.075854	-0.163341	-0.080215	-0.884766	-0.197998	-0.618164	0.089738	0.004277	0.010785	-0.581236	-0.424391	0.465825	-0.514844	3.804915	-78.097112	79.980566
52674		9.362267	0.455981	1.175555	-0.236772	0.798211	-0.402658	-0.116625	-0.199362	-0.107711	-0.890625	-0.211914	-0.616211	0.093613	0.004516	0.011846	-0.581295	-0.424829	0.466480	-0.513822	4.076472	-78.208494	79.634819
52675		9.871040	0.481441	1.246866	-0.243182	0.814856	0.112066	-0.121458	-0.183608	-0.119795	-0.894043	-0.209717	-0.610596	0.098702	0.004763	0.012556	-0.581432	-0.425240	0.467072	-0.512787	4.381546	-78.309745	79.252206
52676		10.200432	0.245563	1.271155	0.010216	0.813700	0.437323	-0.122115	-0.127399	-0.124451	-0.892578	-0.208740	-0.613525	0.101998	0.002400	0.012775	-0.581713	-0.425516	0.467494	-0.511855	4.691872	-78.378540	78.863904
52677		10.315810	-0.090484	1.300145	0.355971	0.759116	0.551265	-0.094338	-0.056783	-0.126301	-0.894287	-0.203613	-0.613281	0.103154	-0.000964	0.013031	-0.582104	-0.425696	0.467634	-0.511133	5.010402	-78.406219	78.483601
52678		10.358825	-0.431635	1.265560	0.712165	0.757402	0.580212	-0.077317	0.006352	-0.128126	-0.894775	-0.208252	-0.618652	0.103586	-0.004378	0.012654	-0.582610	-0.425768	0.467544	-0.510578	5.328584	-78.397650	78.113545
52679		10.323196	-0.700464	1.235698	0.994163	0.749684	0.533112	-0.064109	0.066183	-0.134820	-0.891113	-0.207520	-0.610107	0.103231	-0.007070	0.012325	-0.583246	-0.425740	0.467229	-0.510163	5.656206	-78.353872	77.741620
52680		10.159419	-0.962481	1.095056	1.276831	0.829486	0.337236	-0.055439	0.099516	-0.131879	-0.895264	-0.207031	-0.617432	0.101593	-0.009689	0.010903	-0.583931	-0.425647	0.466804	-0.509846	5.968025	-78.291170	77.390757
52681		9.999434	-1.104087	0.985887	1.436291	0.896008	0.152948	-0.034588	0.123054	-0.125294	-0.882813	-0.214355	-0.618164	0.099993	-0.011102	0.009799	-0.584612	-0.425538	0.466268	-0.509648	6.263543	-78.214761	77.068734
52682		9.879619	-1.278385	0.898366	1.625680	0.946143	0.011271	-0.030671	0.114874	-0.095828	-0.888428	-0.213623	-0.612305	0.098795	-0.012830	0.008929	-0.585188	-0.425392	0.465810	-0.509527	6.479458	-78.144943	76.830165
52683		9.801296	-1.117226	0.771614	1.485622	1.081362	-0.089902	0.017264	0.090821	-0.070991	-0.892822	-0.209717	-0.608398	0.098012	-0.011208	0.007671	-0.585544	-0.425390	0.465351	-0.509539	6.661242	-78.089924	76.654565
52684		9.811852	-0.986033	0.606178	1.381202	1.268205	-0.112374	0.062759	0.095465	-0.038910	-0.884521	-0.217285	-0.613525	0.098119	-0.009881	0.006012	-0.585730	-0.425435	0.464834	-0.509760	6.779118	-78.034708	76.570814
52685		9.850986	-0.674810	0.455892	1.094837	1.469108	-0.099388	0.123648	0.111621	-0.004614	-0.890137	-0.209229	-0.614990	0.098512	-0.006753	0.004500	-0.585738	-0.425536	0.464183	-0.510258	6.834743	-77.972215	76.586432
52686		9.793967	-0.395841	0.415805	0.820474	1.540667	-0.158438	0.175657	0.116847	0.029441	-0.887695	-0.218506	-0.619873	0.097943	-0.003948	0.004097	-0.585559	-0.425698	0.463460	-0.510986	6.827015	-77.909495	76.697210
52687		9.783180	-0.114077	0.243447	0.556982	1.751010	-0.199852	0.205397	0.131633	0.052239	-0.879639	-0.217529	-0.618652	0.097834	-0.001118	0.002369	-0.585293	-0.425855	0.462663	-0.511881	6.772812	-77.839473	76.873077
52688		9.722740	-0.001406	0.011429	0.463003	1.990815	-0.307212	0.206278	0.152630	0.063762	-0.885986	-0.218994	-0.618652	0.097227	0.000017	0.000040	-0.585042	-0.425934	0.461829	-0.512855	6.682985	-77.758695	77.085851
52689		9.645932	0.164771	-0.030415	0.294356	2.048626	-0.389920	0.205959	0.151829	0.060103	-0.874756	-0.219727	-0.619141	0.096459	0.001677	-0.000376	-0.584799	-0.426021	0.460986	-0.513817	6.605528	-77.677600	77.285950
52690		9.598849	0.156606	0.583472	0.235449	1.458199	-0.308949	0.117184	0.211110	0.041113	-0.876709	-0.218506	-0.623291	0.095994	0.001582	0.005734	-0.584929	-0.425740	0.460161	-0.514642	6.510154	-77.561972	77.452273
52691		9.438381	-0.184487	1.286657	0.497068	0.726362	-0.325969	0.009568	0.256443	0.010103	-0.876953	-0.223633	-0.627197	0.094400	-0.001841	0.012745	-0.585472	-0.425098	0.459409	-0.515225	6.422857	-77.417961	77.547367
52692		9.206550	0.106014	1.846060	0.144845	0.186067	-0.425243	0.019081	0.200373	-0.022681	-0.875488	-0.216797	-0.617676	0.092084	0.001048	0.018368	-0.585948	-0.424704	0.458730	-0.515614	6.440879	-77.304297	77.540029
52693		9.423638	0.740612	2.069850	-0.492116	0.101590	-0.149085	-0.010749	0.191230	-0.051828	-0.879395	-0.223145	-0.630859	0.094258	0.007383	0.020608	-0.586544	-0.424311	0.458089	-0.515830	6.518040	-77.193413	77.454660
52694		9.672478	0.947921	2.191334	-0.691715	0.086147	0.125690	-0.109622	0.348715	-0.048278	-0.874268	-0.224854	-0.626709	0.096765	0.009468	0.021739	-0.587697	-0.423215	0.457252	-0.516161	6.483195	-76.993646	77.425905
52695		9.548202	1.190252	2.389299	-0.952629	-0.065268	0.055527	-0.116709	0.477512	-0.027808	-0.869873	-0.223389	-0.630127	0.095540	0.011903	0.023658	-0.589106	-0.421715	0.456092	-0.516809	6.360412	-76.721323	77.483379
52696		9.174779	1.541213	2.300148	-1.306921	0.022662	-0.318802	-0.148156	0.461904	-0.007046	-0.868896	-0.213867	-0.632568	0.091801	0.015426	0.022778	-0.590486	-0.420114	0.455104	-0.517408	6.177705	-76.459691	77.583893
52697		8.872216	1.765046	2.207894	-1.534100	0.109782	-0.628965	-0.230830	0.377288	0.001949	-0.866455	-0.219482	-0.633789	0.088763	0.017677	0.021891	-0.591824	-0.418464	0.454592	-0.517666	5.953817	-76.246195	77.678246
52698		8.663266	1.699937	2.193495	-1.480247	0.101774	-0.837621	-0.303361	0.272670	-0.004199	-0.855957	-0.202393	-0.642578	0.086663	0.017031	0.021791	-0.593087	-0.416884	0.454566	-0.517519	5.731552	-76.092419	77.728068
52699		8.405734	1.371778	2.345560	-1.186718	-0.120862	-1.059582	-0.354594	0.126861	-0.039857	-0.861084	-0.210205	-0.648193	0.084075	0.013743	0.023378	-0.594217	-0.415607	0.455025	-0.516845	5.597842	-76.019192	77.656559
52700		8.169264	0.785601	2.732705	-0.664007	-0.611268	-1.209946	-0.420437	-0.014817	-0.077177	-0.854492	-0.214600	-0.655273	0.081694	0.007882	0.027317	-0.595254	-0.414586	0.456000	-0.515612	5.543547	-76.025225	77.464187
52701		8.105833	0.097899	2.884999	-0.006783	-0.863853	-1.251670	-0.398560	-0.156365	-0.117995	-0.851318	-0.210449	-0.641357	0.081036	0.000989	0.028911	-0.596027	-0.414084	0.457249	-0.514013	5.628391	-76.109170	77.141549
52702		8.325726	-0.318647	3.039419	0.397049	-1.033621	-1.013185	-0.310621	-0.264939	-0.132893	-0.860596	-0.209717	-0.638428	0.083215	-0.003194	0.030509	-0.596403	-0.414156	0.458567	-0.512342	5.826673	-76.254464	76.754031
52703		8.792796	-0.848104	3.212031	0.923931	-1.191990	-0.535021	-0.220774	-0.359286	-0.103143	-0.860840	-0.203613	-0.636963	0.087866	-0.008491	0.032288	-0.596300	-0.414667	0.459991	-0.510770	6.036946	-76.454462	76.407540
52704		9.616994	-1.177384	3.130228	1.301365	-1.010772	0.234986	-0.089292	-0.450049	-0.031055	-0.863525	-0.203369	-0.635742	0.096097	-0.011775	0.031524	-0.595526	-0.415635	0.461500	-0.509523	6.181775	-76.710784	76.206001
52705		10.763967	-1.238569	3.495136	1.368697	-1.168801	1.428899	0.013957	-0.551255	0.060964	-0.862305	-0.203613	-0.625732	0.107547	-0.012355	0.035247	-0.594068	-0.416952	0.463233	-0.508576	6.194172	-77.029898	76.201540
52706		12.023953	-1.682280	3.992694	1.791561	-1.504550	2.752072	0.005341	-0.647088	0.147783	-0.864014	-0.197754	-0.618896	0.120122	-0.016735	0.040315	-0.592177	-0.418283	0.465453	-0.507661	6.006718	-77.409349	76.396845
52707		13.145055	-2.067832	4.082589	2.188714	-1.483258	3.852774	0.088962	-0.602242	0.204962	-0.871338	-0.199707	-0.617920	0.131348	-0.020562	0.041212	-0.590067	-0.419609	0.467438	-0.507199	5.694426	-77.765936	76.768860
52708		13.533115	-1.887511	4.017689	2.003986	-1.374543	4.220993	0.188606	-0.341126	0.256993	-0.875000	-0.203369	-0.602295	0.135287	-0.018739	0.040390	-0.588219	-0.420442	0.468509	-0.507667	5.213843	-77.976289	77.370906
52709		13.279092	-1.579995	4.326807	1.616973	-1.704612	4.044857	0.199997	-0.039550	0.310133	-0.864990	-0.197510	-0.602295	0.132807	-0.015637	0.043279	-0.586918	-0.420417	0.468771	-0.508950	4.512666	-78.015315	78.204967
52710		12.759717	-1.226754	4.484744	1.193359	-1.904781	3.580438	0.224618	0.126430	0.353709	-0.868652	-0.201660	-0.613525	0.127647	-0.012092	0.044753	-0.585839	-0.419938	0.468576	-0.510766	3.673653	-77.959316	79.194311
52711		12.326747	-0.847160	4.358963	0.782353	-1.795460	3.142273	0.295284	0.192458	0.409449	-0.868896	-0.201660	-0.617188	0.123326	-0.008283	0.043459	-0.584622	-0.419364	0.468118	-0.513046	2.728036	-77.863742	80.334449
52712		11.855939	-0.252862	4.346597	0.142532	-1.774068	2.691403	0.349803	0.253698	0.470315	-0.871338	-0.200195	-0.619141	0.118620	-0.002326	0.043311	-0.583271	-0.418646	0.467468	-0.515756	1.663571	-77.730599	81.628549
52713		11.412857	0.247896	4.239730	-0.394992	-1.666442	2.243711	0.373021	0.297730	0.540872	-0.875000	-0.199951	-0.610352	0.114184	0.002709	0.042232	-0.581788	-0.417712	0.466769	-0.518812	0.455058	-77.567247	83.084538
52714		11.240912	0.528683	4.136790	-0.712419	-1.532154	2.057244	0.368611	0.311394	0.611090	-0.873779	-0.201904	-0.614746	0.112457	0.005554	0.041203	-0.580154	-0.416560	0.466184	-0.522083	-0.901642	-77.389249	84.690616
52715		10.896824	0.652367	4.041963	-0.884184	-1.460656	1.702004	0.352921	0.345184	0.673989	-0.868164	-0.193115	-0.626709	0.109015	0.006820	0.040243	-0.578460	-0.415122	0.465663	-0.525562	-2.378584	-77.182040	86.412025
52716		10.520314	0.579770	3.967461	-0.864896	-1.435152	1.320405	0.349002	0.389272	0.705669	-0.863770	-0.189209	-0.621826	0.105259	0.006100	0.039480	-0.576780	-0.413475	0.465085	-0.529206	-3.877875	-76.939059	88.155530
52717		10.137301	0.548622	3.797768	-0.873074	-1.313637	0.911146	0.375259	0.422045	0.683744	-0.872314	-0.172607	-0.633057	0.101433	0.005762	0.037774	-0.575172	-0.411860	0.464286	-0.532905	-5.240333	-76.668479	89.775829
52718		9.881501	0.460306	3.613159	-0.815585	-1.156944	0.623156	0.384616	0.396434	0.634178	-0.865967	-0.182617	-0.631836	0.098871	0.004847	0.035945	-0.573604	-0.410447	0.463427	-0.536421	-6.429081	-76.407385	91.224740
52719		9.708172	0.235858	3.475219	-0.618498	-1.044743	0.429732	0.422437	0.327551	0.542479	-0.871094	-0.179688	-0.630371	0.097132	0.002549	0.034598	-0.572038	-0.409533	0.462466	-0.539611	-7.354602	-76.185452	92.426562
52720		9.866794	0.003389	3.365858	-0.409302	-0.889849	0.566289	0.416352	0.228908	0.423196	-0.865723	-0.181885	-0.636230	0.098706	0.000173	0.033546	-0.570570	-0.409139	0.461556	-0.542238	-8.012328	-76.024883	93.349858
52721		10.276328	-0.373083	3.078039	-0.034850	-0.516419	0.908715	0.427371	0.210370	0.264972	-0.868652	-0.186035	-0.639160	0.102800	-0.003660	0.030664	-0.569461	-0.409188	0.460339	-0.544396	-8.294598	-75.885757	93.893294
52722		10.237476	-0.199902	2.822647	-0.190843	-0.237553	0.804293	0.443840	0.302525	0.109785	-0.853760	-0.180176	-0.638916	0.102418	-0.002005	0.028067	-0.568948	-0.409388	0.458496	-0.546334	-8.184034	-75.707018	94.041570
52723		9.830841	0.061936	2.592456	-0.417557	-0.062392	0.345644	0.405932	0.383032	-0.032583	-0.864014	-0.189697	-0.639404	0.098358	0.000551	0.025737	-0.569083	-0.409583	0.456231	-0.547941	-7.755750	-75.493981	93.839580
52724		9.296283	0.447188	2.681065	-0.777496	-0.218745	-0.160930	0.407012	0.439133	-0.141918	-0.850342	-0.185791	-0.642578	0.093025	0.004352	0.026615	-0.569637	-0.409873	0.453577	-0.549350	-7.084934	-75.256783	93.387313
52725		8.743709	0.809086	2.627904	-1.097809	-0.247269	-0.716181	0.402744	0.471748	-0.206440	-0.847656	-0.194092	-0.646240	0.087507	0.007948	0.026089	-0.570447	-0.410204	0.450704	-0.550627	-6.288043	-75.003786	92.801622
52726		8.243421	1.136535	2.609944	-1.384913	-0.303762	-1.207627	0.442569	0.480177	-0.240949	-0.851318	-0.201660	-0.652344	0.082510	0.011208	0.025926	-0.571281	-0.410697	0.447622	-0.551906	-5.418356	-74.745937	92.163406
52727		7.725337	1.434759	2.666149	-1.647757	-0.444585	-1.692664	0.444492	0.477576	-0.244756	-0.853516	-0.205811	-0.663086	0.077334	0.014194	0.026509	-0.572110	-0.411208	0.444528	-0.553166	-4.564237	-74.487187	91.541748
52728		7.291413	1.547570	2.507596	-1.717970	-0.372322	-2.147342	0.416796	0.456033	-0.236774	-0.843262	-0.207031	-0.655273	0.072989	0.015337	0.024942	-0.572919	-0.411676	0.441585	-0.554337	-3.769814	-74.238164	90.964791
52729		6.918572	1.550322	2.362859	-1.684511	-0.307773	-2.538017	0.398255	0.426447	-0.214780	-0.841797	-0.219727	-0.665771	0.069252	0.015382	0.023512	-0.573634	-0.412121	0.438817	-0.555464	-3.053544	-74.003189	90.457400
52730		6.808512	1.732726	2.345004	-1.841487	-0.290551	-2.644589	0.378277	0.372033	-0.192139	-0.837646	-0.218506	-0.670654	0.068145	0.017218	0.023356	-0.574203	-0.412606	0.436304	-0.556494	-2.416023	-73.797201	90.019461
52731		6.945615	1.679065	2.229345	-1.762023	-0.125745	-2.538747	0.305987	0.277865	-0.166682	-0.835693	-0.218018	-0.670166	0.069501	0.016699	0.022223	-0.574642	-0.413087	0.434312	-0.557242	-1.888316	-73.643269	89.652411
52732		7.263973	1.555326	2.125859	-1.616142	0.071415	-2.257122	0.251482	0.193058	-0.142267	-0.836914	-0.234131	-0.670898	0.072671	0.015475	0.021208	-0.574938	-0.413593	0.432765	-0.557764	-1.451888	-73.536717	89.347660
52733		7.567094	1.391414	2.134668	-1.436815	0.152199	-1.959909	0.185944	0.131090	-0.119603	-0.836182	-0.232666	-0.676758	0.075693	0.013849	0.021310	-0.575172	-0.414034	0.431624	-0.558081	-1.103262	-73.464706	89.095234
52734		7.855819	1.259999	2.025445	-1.288270	0.340500	-1.711556	0.110115	0.072806	-0.105191	-0.832764	-0.229248	-0.674805	0.078572	0.012548	0.020233	-0.575395	-0.414388	0.430892	-0.558153	-0.830147	-73.425643	88.876194
52735		8.069230	1.128934	2.132171	-1.149810	0.298987	-1.474723	0.041363	0.056928	-0.093800	-0.837402	-0.232178	-0.668457	0.080704	0.011247	0.021301	-0.575695	-0.414564	0.430420	-0.558077	-0.619521	-73.395246	88.681208
52736		8.164011	0.839973	2.044281	-0.849826	0.404084	-1.407319	-0.045919	0.032744	-0.087842	-0.837402	-0.244629	-0.675781	0.081647	0.008369	0.020428	-0.576107	-0.414543	0.430274	-0.557780	-0.471529	-73.378593	88.499331
52737		8.194669	0.679200	2.014964	-0.682092	0.439492	-1.385613	-0.073123	0.058828	-0.075791	-0.832520	-0.235840	-0.677002	0.081955	0.006768	0.020123	-0.576598	-0.414345	0.430153	-0.557513	-0.362118	-73.346733	88.341471
52738		8.212362	0.666724	1.997907	-0.664313	0.466400	-1.373482	-0.105312	0.074460	-0.069027	-0.838867	-0.236816	-0.672119	0.082133	0.006649	0.019945	-0.577170	-0.413996	0.430091	-0.557229	-0.284474	-73.305922	88.197517
52739		8.213043	0.657024	1.964172	-0.649807	0.504908	-1.382590	-0.130660	0.064080	-0.064969	-0.830811	-0.231689	-0.674316	0.082139	0.006556	0.019611	-0.577761	-0.413593	0.430137	-0.556880	-0.229646	-73.270899	88.062166
52740		8.349830	0.489591	1.899390	-0.475641	0.605475	-1.270194	-0.147014	0.054108	-0.065654	-0.833984	-0.235596	-0.678711	0.083505	0.004882	0.018968	-0.578365	-0.413173	0.430257	-0.556472	-0.183326	-73.241677	87.925862
52741		8.480188	0.392039	1.856140	-0.371860	0.685816	-1.157983	-0.145621	0.059213	-0.067894	-0.825684	-0.232910	-0.679688	0.084809	0.003905	0.018533	-0.578983	-0.412746	0.430352	-0.556071	-0.132252	-73.209380	87.785434
52742		8.593881	0.309205	1.763539	-0.280519	0.809711	-1.076204	-0.147403	0.072055	-0.068988	-0.831787	-0.231934	-0.680176	0.085946	0.003075	0.017602	-0.579636	-0.412281	0.430414	-0.555689	-0.080434	-73.169812	87.643071
52743		8.726249	0.178831	1.747127	-0.144089	0.864790	-0.954740	-0.156927	0.078331	-0.071409	-0.825195	-0.233643	-0.681885	0.087270	0.001771	0.017436	-0.580327	-0.411776	0.430477	-0.555293	-0.029999	-73.126490	87.496485
52744		8.895509	0.028265	1.724509	0.013197	0.935395	-0.799937	-0.156928	0.073692	-0.063821	-0.826660	-0.233398	-0.681885	0.088962	0.000268	0.017212	-0.580988	-0.411267	0.430570	-0.554907	0.005705	-73.085937	87.365185
52745		9.139898	0.016462	1.692773	0.032869	1.042308	-0.576021	-0.132196	0.067570	-0.051000	-0.830811	-0.227539	-0.678711	0.091405	0.000152	0.016897	-0.581548	-0.410819	0.430638	-0.554600	0.031016	-73.048731	87.259611
52746		9.420457	0.109734	1.822796	-0.060050	1.009960	-0.270360	-0.105757	0.061791	-0.030562	-0.827881	-0.229492	-0.676514	0.094210	0.001093	0.018198	-0.581984	-0.410420	0.430692	-0.554396	0.032904	-73.015012	87.194272
52747		9.583526	0.183364	1.891731	-0.134100	1.001522	-0.094909	-0.064728	0.071369	0.001503	-0.818359	-0.239014	-0.676025	0.095842	0.001840	0.018883	-0.582268	-0.410044	0.430668	-0.554395	-0.001946	-72.975639	87.191992
52748		9.722749	0.338108	1.934741	-0.290982	1.016394	0.049952	-0.050003	0.085819	0.036485	-0.826660	-0.231201	-0.683105	0.097235	0.003404	0.019305	-0.582454	-0.409596	0.430634	-0.554555	-0.093435	-72.928175	87.257857
52749		9.795508	0.460382	1.968890	-0.419171	1.020423	0.128312	-0.036323	0.098762	0.072854	-0.830322	-0.231445	-0.686279	0.097963	0.004643	0.019640	-0.582541	-0.409073	0.430598	-0.554879	-0.244350	-72.872989	87.394036
52750		9.767623	0.547310	1.991954	-0.516052	1.004732	0.106893	-0.051669	0.102548	0.100635	-0.828613	-0.219482	-0.682861	0.097684	0.005527	0.019868	-0.582589	-0.408436	0.430652	-0.555256	-0.454445	-72.815635	87.582935
52751		9.612301	0.538348	1.946474	-0.517809	1.012824	-0.056615	-0.076465	0.111632	0.116409	-0.830811	-0.231934	-0.685303	0.096131	0.005447	0.019409	-0.582664	-0.407666	0.430779	-0.555645	-0.706433	-72.752535	87.800935
52752		9.435950	0.376491	1.886638	-0.367000	1.020539	-0.243880	-0.090733	0.105590	0.114127	-0.819336	-0.218506	-0.687744	0.094367	0.003827	0.018815	-0.582760	-0.406877	0.430959	-0.555982	-0.960750	-72.692892	88.012781
52753		9.353284	0.250134	1.983166	-0.257741	0.906512	-0.294745	-0.084418	0.072302	0.104592	-0.824463	-0.228271	-0.690430	0.093539	0.002559	0.019797	-0.582798	-0.406218	0.431198	-0.556239	-1.193768	-72.651893	88.206268
52754		9.332175	0.189339	2.134794	-0.214914	0.757827	-0.270037	-0.061841	0.031162	0.088710	-0.828613	-0.221924	-0.689209	0.093324	0.001941	0.021333	-0.582746	-0.405774	0.431463	-0.556412	-1.385450	-72.634710	88.369884
52755		9.474777	0.180763	2.411656	-0.228012	0.536981	-0.051549	-0.039312	-0.016546	0.077788	-0.833008	-0.216553	-0.686523	0.094745	0.001849	0.024124	-0.582575	-0.405551	0.431780	-0.556508	-1.546417	-72.644604	88.514992
52756		9.754602	0.026590	2.621053	-0.090552	0.410066	0.279217	0.013944	-0.041769	0.081458	-0.825195	-0.209961	-0.696289	0.097540	0.000304	0.026231	-0.582231	-0.405546	0.432032	-0.556675	-1.684986	-72.669073	88.668465
52757		10.062107	0.000699	2.763582	-0.077064	0.361002	0.615501	0.082032	-0.027400	0.090776	-0.821777	-0.221924	-0.690674	0.100617	0.000041	0.027650	-0.581755	-0.405679	0.432069	-0.557048	-1.801350	-72.684748	88.839651
52758		10.162280	-0.121938	2.672923	0.043724	0.471105	0.685287	0.124418	0.025546	0.106264	-0.819336	-0.220703	-0.683105	0.101627	-0.001182	0.026716	-0.581263	-0.405754	0.431868	-0.557662	-1.918663	-72.669981	89.036958
52759		10.154063	-0.085928	2.384365	0.014258	0.751869	0.590776	0.160965	0.090990	0.128139	-0.821777	-0.208740	-0.687256	0.101552	-0.000813	0.023797	-0.580777	-0.405704	0.431416	-0.558553	-2.050613	-72.616907	89.271887
52760		10.133589	0.051941	2.171742	-0.123350	0.966881	0.505195	0.180255	0.137480	0.162311	-0.823730	-0.217041	-0.690674	0.101350	0.000582	0.021648	-0.580256	-0.405508	0.430847	-0.559676	-2.229166	-72.536601	89.567132
52761		10.018592	0.265944	2.004012	-0.343738	1.117003	0.340789	0.174256	0.160510	0.210118	-0.818848	-0.207275	-0.692139	0.100199	0.002747	0.019962	-0.579661	-0.405124	0.430321	-0.560973	-2.493827	-72.441333	89.949405
52762		9.846511	0.667089	1.696220	-0.751449	1.389436	0.075723	0.147759	0.132046	0.283360	-0.825684	-0.206787	-0.693604	0.098467	0.006798	0.016902	-0.578853	-0.404586	0.430101	-0.562363	-2.904389	-72.360027	90.468711
52763		9.796485	0.953085	1.588858	-1.061738	1.498218	-0.013100	0.051313	0.087468	0.361646	-0.822998	-0.208984	-0.688232	0.097954	0.009704	0.015848	-0.577921	-0.403724	0.430437	-0.563683	-3.511003	-72.299997	91.136275
52764		9.913909	1.118137	1.467262	-1.261798	1.664221	0.052744	-0.079045	0.076556	0.451826	-0.822998	-0.196289	-0.687012	0.099119	0.011411	0.014630	-0.576972	-0.402321	0.431354	-0.564956	-4.350016	-72.240491	91.969407
52765		10.165635	1.547087	1.805142	-1.758590	1.446414	0.375890	-0.183009	0.107731	0.536313	-0.819336	-0.203613	-0.693604	0.101624	0.015760	0.017982	-0.576057	-0.400344	0.432639	-0.566310	-5.387623	-72.154549	92.949125
52766		10.250491	1.726578	2.045650	-2.010993	1.263575	0.511905	-0.306283	0.087956	0.585738	-0.819824	-0.196777	-0.690918	0.102463	0.017597	0.020385	-0.575200	-0.397959	0.434427	-0.567492	-6.576467	-72.071537	94.013840
52767		10.376410	1.525344	1.941497	-1.872603	1.400849	0.593877	-0.412897	-0.039998	0.551902	-0.814697	-0.180420	-0.702637	0.103718	0.015580	0.019404	-0.574367	-0.395697	0.436811	-0.568086	-7.786980	-72.056441	95.037586
52768		10.645472	0.799349	1.821238	-1.209210	1.566336	0.834663	-0.507778	-0.085195	0.443327	-0.816162	-0.172119	-0.703125	0.106429	0.008276	0.018237	-0.573925	-0.393526	0.439377	-0.568063	-8.871670	-72.070094	95.871794
52769		10.683547	-0.089224	1.792030	-0.370381	1.564441	0.900516	-0.469553	-0.000201	0.302972	-0.826416	-0.160400	-0.692627	0.106837	-0.000688	0.017922	-0.573987	-0.391526	0.441307	-0.567885	-9.665843	-72.043994	96.423837
52770		10.222366	-0.861480	1.538178	0.399551	1.629555	0.424000	-0.313200	0.048960	0.188062	-0.821777	-0.166260	-0.697021	0.102235	-0.008495	0.015370	-0.574175	-0.390089	0.442428	-0.567813	-10.153228	-72.000069	96.747431
52771		9.804452	-1.214816	1.767831	0.733822	1.264472	0.116607	-0.142208	-0.042362	0.105560	-0.817383	-0.159424	-0.691406	0.098047	-0.012084	0.017708	-0.574061	-0.389581	0.443161	-0.567705	-10.427404	-72.014915	96.950094
52772		9.645833	-1.399397	2.239156	0.882040	0.748934	0.120858	-0.031482	-0.136891	0.069131	-0.817871	-0.157471	-0.690186	0.096448	-0.013957	0.022460	-0.573623	-0.389742	0.443782	-0.567551	-10.605620	-72.087111	97.118400
52773		9.338893	-1.298399	2.760981	0.749821	0.149489	-0.017832	-0.044849	-0.164816	0.074558	-0.826660	-0.151367	-0.697510	0.093371	-0.012943	0.027690	-0.573135	-0.389930	0.444529	-0.567332	-10.812063	-72.173740	97.308367
52774		8.686856	-0.808904	3.073259	0.255915	-0.337442	-0.572486	-0.117774	-0.196724	0.085948	-0.821045	-0.148438	-0.689453	0.086842	-0.008034	0.030823	-0.572684	-0.389975	0.445599	-0.566916	-11.093025	-72.277369	97.532450
52775		8.351377	-0.351436	3.732192	-0.245914	-1.065058	-0.724049	-0.252212	-0.310203	0.072989	-0.825195	-0.144775	-0.695068	0.083457	-0.003437	0.037456	-0.572278	-0.389983	0.447346	-0.565944	-11.472007	-72.445277	97.778552
52776		8.763092	-0.159062	3.966496	-0.489208	-1.194074	-0.279336	-0.403886	-0.532004	0.012805	-0.830078	-0.150391	-0.684326	0.087525	-0.001505	0.039901	-0.571887	-0.390279	0.450072	-0.563971	-11.919297	-72.744599	97.994700
52777		10.039888	-0.261580	3.737312	-0.440151	-0.664365	0.873743	-0.495399	-0.603925	-0.064449	-0.833008	-0.132568	-0.671875	0.100285	-0.002555	0.037682	-0.571673	-0.390721	0.453068	-0.561477	-12.318135	-73.092471	98.115060
52778		10.708294	-0.389962	4.022251	-0.373849	-0.811277	1.597832	-0.479181	-0.441751	-0.137221	-0.833740	-0.136475	-0.681396	0.106991	-0.003876	0.040468	-0.571992	-0.390916	0.455410	-0.559117	-12.514214	-73.358875	98.033027
52779		10.598408	-0.508490	4.281540	-0.277460	-1.146378	1.568221	-0.400048	-0.357877	-0.176004	-0.834229	-0.140625	-0.668701	0.105903	-0.005092	0.043015	-0.572450	-0.391186	0.457208	-0.556988	-12.557685	-73.582741	97.839338
52780		10.128506	-0.451936	4.323074	-0.316540	-1.360611	1.120207	-0.275864	-0.442323	-0.211996	-0.838379	-0.133545	-0.671631	0.101184	-0.004567	0.043461	-0.572568	-0.392127	0.458830	-0.554867	-12.493460	-73.858774	97.607704
52781		9.858209	-0.419453	4.184657	-0.317253	-1.355502	0.814317	-0.201835	-0.544760	-0.246671	-0.847412	-0.139893	-0.666504	0.098462	-0.004274	0.042119	-0.572396	-0.393639	0.460465	-0.552615	-12.357365	-74.195814	97.345916
52782		9.627820	-0.579554	4.228972	-0.139304	-1.532033	0.605958	-0.171951	-0.522553	-0.301361	-0.844971	-0.137207	-0.660156	0.096158	-0.005904	0.042546	-0.572410	-0.395258	0.461879	-0.550259	-12.074600	-74.527220	96.939920
52783		8.977023	-0.676874	4.417947	-0.020080	-1.943493	0.025280	-0.219010	-0.379413	-0.364059	-0.857910	-0.145020	-0.657471	0.089674	-0.006884	0.044357	-0.572967	-0.396528	0.462848	-0.547947	-11.614286	-74.784600	96.332529
52784		8.332759	-0.906517	4.277208	0.260539	-2.031621	-0.628153	-0.321470	-0.266025	-0.423224	-0.854248	-0.144531	-0.656982	0.083251	-0.009173	0.042898	-0.574147	-0.397330	0.463653	-0.545445	-11.023885	-74.983836	95.530141
52785		7.903789	-0.970393	4.077095	0.374947	-1.984244	-1.097395	-0.363782	-0.236581	-0.477951	-0.852783	-0.133301	-0.656494	0.078966	-0.009818	0.040882	-0.575623	-0.398050	0.464374	-0.542744	-10.312033	-75.169523	94.577795
52786		7.804159	-1.021762	3.893432	0.469136	-1.869652	-1.245782	-0.385711	-0.331015	-0.534559	-0.860596	-0.144531	-0.654053	0.077949	-0.010351	0.039083	-0.577117	-0.399052	0.465344	-0.539582	-9.502631	-75.411152	93.502460
52787		8.136264	-0.978416	3.670016	0.470804	-1.610740	-0.991765	-0.383566	-0.494186	-0.574403	-0.861084	-0.149902	-0.648193	0.081243	-0.009947	0.036920	-0.578278	-0.400625	0.466657	-0.536028	-8.627060	-75.744374	92.371544
52788		8.677942	-1.156933	3.575847	0.682154	-1.464668	-0.494918	-0.410046	-0.610207	-0.585676	-0.866699	-0.145020	-0.636963	0.086636	-0.011749	0.036047	-0.579239	-0.402452	0.468345	-0.532135	-7.728186	-76.140197	91.202727
52789		9.283974	-1.445279	3.435886	1.011575	-1.287819	0.056658	-0.385631	-0.663342	-0.551218	-0.867676	-0.145752	-0.630371	0.092685	-0.014642	0.034695	-0.579923	-0.404400	0.470180	-0.528281	-6.852210	-76.558991	90.073981
52790		9.613322	-1.745233	3.142843	1.371749	-1.039930	0.305393	-0.306173	-0.660061	-0.454756	-0.864502	-0.146484	-0.624512	0.095989	-0.017622	0.031772	-0.580233	-0.406295	0.472016	-0.524838	-6.101999	-76.966092	89.113085
52791		9.658943	-1.790260	2.876124	1.470348	-0.851469	0.281119	-0.169253	-0.640282	-0.309443	-0.864502	-0.151367	-0.629883	0.096469	-0.018027	0.029085	-0.579874	-0.408225	0.473688	-0.522224	-5.582964	-77.350763	88.481332
52792		9.615428	-1.690863	2.609074	1.414858	-0.657112	0.171741	-0.054638	-0.591121	-0.133349	-0.877686	-0.152588	-0.622559	0.096065	-0.016966	0.026379	-0.578977	-0.409897	0.475309	-0.520433	-5.410363	-77.697083	88.262500
52793		9.314014	-1.440254	2.550579	1.170162	-0.687009	-0.143705	0.043643	-0.472647	0.030324	-0.887207	-0.150879	-0.620361	0.093082	-0.014394	0.025723	-0.577684	-0.411194	0.476626	-0.519642	-5.579339	-77.966643	88.460996
52794		8.779045	-1.319816	2.624933	1.026777	-0.893085	-0.655621	0.064776	-0.349646	0.165380	-0.886719	-0.154541	-0.618408	0.087755	-0.013134	0.026399	-0.576333	-0.411868	0.477846	-0.519489	-6.077426	-78.158183	88.998033
52795		8.385661	-1.126239	2.603718	0.816489	-0.954098	-1.049695	0.060584	-0.264372	0.260241	-0.888916	-0.151123	-0.614990	0.083837	-0.011161	0.026145	-0.574900	-0.412120	0.478987	-0.519826	-6.828638	-78.293626	89.800904
52796		8.177015	-1.212725	2.386498	0.903594	-0.813468	-1.294979	0.025616	-0.231878	0.320550	-0.878906	-0.144775	-0.611084	0.081762	-0.011999	0.023958	-0.573503	-0.412000	0.480285	-0.520266	-7.772595	-78.403946	90.769716
52797		8.309906	-1.426247	2.258548	1.101538	-0.706687	-1.182691	0.008225	-0.308558	0.342891	-0.886963	-0.145996	-0.603027	0.083088	-0.014121	0.022713	-0.571852	-0.412016	0.481856	-0.520619	-8.840383	-78.552232	91.864329
52798		8.840246	-1.696742	2.367334	1.320809	-0.766681	-0.631150	-0.015871	-0.398244	0.333132	-0.891602	-0.135986	-0.611328	0.088383	-0.016818	0.023851	-0.570102	-0.412175	0.483759	-0.520647	-9.966937	-78.748070	92.994090
52799		9.380235	-1.857338	2.457459	1.431354	-0.800887	-0.076813	0.004366	-0.389169	0.288050	-0.888428	-0.142578	-0.598633	0.093781	-0.018439	0.024757	-0.568400	-0.412516	0.485451	-0.520662	-10.986615	-78.939102	94.036012
52800		9.614406	-1.845859	2.549687	1.376332	-0.876700	0.171393	-0.009409	-0.339111	0.243268	-0.898193	-0.135742	-0.593018	0.096123	-0.018340	0.025661	-0.567007	-0.412753	0.486978	-0.520567	-11.888741	-79.103830	94.939482
52801		9.502457	-1.799422	2.409473	1.324253	-0.781870	0.034907	-0.024003	-0.253025	0.207035	-0.894287	-0.134033	-0.589600	0.095013	-0.017893	0.024217	-0.565901	-0.412852	0.488186	-0.520560	-12.662785	-79.222082	95.713635
52802		9.298389	-1.616692	2.078088	1.166366	-0.493983	-0.232097	-0.010057	-0.180699	0.184213	-0.902832	-0.124512	-0.590332	0.092980	-0.016080	0.020866	-0.565046	-0.412815	0.489142	-0.520621	-13.327799	-79.301162	96.374661
52803		9.122813	-1.502118	1.606686	1.096106	-0.067518	-0.492952	0.035480	-0.181870	0.177547	-0.897949	-0.127197	-0.584961	0.091227	-0.014943	0.016147	-0.564066	-0.412968	0.489931	-0.520820	-13.957187	-79.380274	97.035842
52804		9.151359	-1.328771	1.138613	0.963643	0.397926	-0.554046	0.120581	-0.248254	0.178779	-0.898193	-0.130615	-0.587646	0.091511	-0.013213	0.011492	-0.562788	-0.413487	0.490725	-0.521045	-14.603105	-79.494798	97.753198
52805		9.261006	-1.249310	0.768842	0.909518	0.766352	-0.511960	0.207653	-0.310769	0.178517	-0.893311	-0.132568	-0.585938	0.092609	-0.012419	0.007819	-0.561130	-0.414456	0.491428	-0.521400	-15.264181	-79.642352	98.546415
52806		9.407140	-0.982996	0.579923	0.645544	0.980412	-0.409558	0.281939	-0.358208	0.185744	-0.894775	-0.136719	-0.571289	0.094070	-0.009751	0.005954	-0.559224	-0.415694	0.492120	-0.521808	-15.967775	-79.813349	99.415662
52807		9.583276	-0.853510	0.460898	0.505984	1.113652	-0.258434	0.302572	-0.337933	0.195678	-0.913086	-0.126709	-0.579590	0.095833	-0.008448	0.004758	-0.557252	-0.416953	0.492683	-0.522383	-16.697376	-79.969525	100.332917
52808		9.640525	-0.787306	0.555767	0.407739	1.012966	-0.185849	0.311973	-0.270729	0.195531	-0.910889	-0.125244	-0.566406	0.096405	-0.007788	0.005676	-0.555422	-0.418060	0.493031	-0.523118	-17.381343	-80.087031	101.208878
52809		9.741140	-0.666558	0.785433	0.240373	0.798213	-0.052767	0.310535	-0.207812	0.193523	-0.904541	-0.135010	-0.569824	0.097410	-0.006584	0.007945	-0.553753	-0.419002	0.493201	-0.523972	-18.012573	-80.168676	102.030249
52810		9.870015	-0.730761	0.832300	0.278071	0.755080	0.086627	0.318970	-0.117434	0.173820	-0.911865	-0.127197	-0.572510	0.098702	-0.007235	0.008369	-0.552384	-0.419735	0.493093	-0.524932	-18.493616	-80.203444	102.693914
52811		9.959510	-0.690616	0.895883	0.215168	0.708570	0.183462	0.358379	-0.011657	0.145986	-0.910156	-0.132324	-0.562500	0.099600	-0.006850	0.008952	-0.551219	-0.420408	0.492492	-0.526180	-18.753547	-80.184993	103.166136
52812		9.999216	-0.723525	0.963319	0.231165	0.652885	0.235003	0.400371	0.085481	0.112745	-0.903809	-0.132813	-0.565186	0.100000	-0.007198	0.009576	-0.550336	-0.420979	0.491479	-0.527594	-18.781114	-80.119921	103.416942
52813		9.952902	-0.670881	0.895504	0.183173	0.733280	0.174353	0.449326	0.188353	0.083197	-0.913086	-0.135742	-0.571533	0.099540	-0.006687	0.008846	-0.549632	-0.421527	0.489950	-0.529310	-18.578530	-80.004353	103.472695
52814		9.747344	-0.716923	0.962826	0.231296	0.655069	-0.016309	0.475451	0.288709	0.054013	-0.902344	-0.140625	-0.568115	0.097489	-0.007166	0.009471	-0.549238	-0.421907	0.488050	-0.531168	-18.173415	-79.839706	103.327910
52815		9.409205	-0.652879	0.959657	0.185899	0.638443	-0.355518	0.521864	0.343142	0.018992	-0.906982	-0.146240	-0.574219	0.094109	-0.006545	0.009418	-0.548921	-0.422394	0.485761	-0.533202	-17.592363	-79.651176	103.041344
52816		9.054670	-0.703773	1.137494	0.244510	0.434163	-0.673331	0.502551	0.380617	-0.016343	-0.897949	-0.144531	-0.576660	0.090568	-0.007073	0.011185	-0.548825	-0.422811	0.483343	-0.535166	-16.900850	-79.447767	102.630956
52817		8.807250	-0.933447	1.037949	0.502601	0.510164	-0.924307	0.458394	0.414443	-0.057810	-0.895508	-0.146729	-0.582520	0.088091	-0.009383	0.010175	-0.549010	-0.423111	0.480856	-0.536976	-16.105541	-79.231393	102.088991
52818		8.417928	-0.971112	0.983615	0.573903	0.529730	-1.317870	0.461668	0.439096	-0.099876	-0.897217	-0.151611	-0.583008	0.084196	-0.009776	0.009629	-0.549400	-0.423410	0.478237	-0.538677	-15.196689	-79.006644	101.422845
52819		8.207903	-0.688577	1.206752	0.302139	0.326254	-1.499914	0.456251	0.395270	-0.133843	-0.893311	-0.158203	-0.583984	0.082098	-0.006968	0.011889	-0.549738	-0.423930	0.475638	-0.540221	-14.257623	-78.808964	100.732349
52820		8.081719	-0.416771	1.391973	0.042968	0.167302	-1.603209	0.430402	0.336963	-0.148705	-0.884521	-0.155762	-0.593506	0.080837	-0.004258	0.013774	-0.550026	-0.424569	0.473236	-0.541535	-13.360094	-78.643862	100.068601
52821		8.271891	-0.348765	1.511768	-0.018463	0.115037	-1.397368	0.360891	0.253980	-0.166833	-0.884277	-0.156250	-0.588135	0.082735	-0.003584	0.015006	-0.550312	-0.425281	0.471206	-0.542455	-12.524718	-78.525273	99.427373
52822		8.292943	-0.155930	1.478718	-0.188941	0.179661	-1.391536	0.354451	0.196735	-0.175579	-0.883301	-0.167969	-0.596924	0.082942	-0.001658	0.014703	-0.550543	-0.426109	0.469369	-0.543163	-11.717959	-78.438210	98.801271
52823		8.522453	-0.222889	1.538107	-0.111966	0.176114	-1.152199	0.282684	0.107329	-0.175375	-0.882324	-0.167480	-0.596680	0.085231	-0.002325	0.015332	-0.550669	-0.427020	0.467933	-0.543558	-11.010184	-78.399513	98.244176
52824		8.785797	-0.475640	1.381452	0.161089	0.376048	-0.915638	0.249483	0.026289	-0.191079	-0.893066	-0.178467	-0.593018	0.087855	-0.004858	0.013797	-0.550764	-0.428055	0.466815	-0.543610	-10.324271	-78.406976	97.679874
52825		9.155338	-0.486793	1.128743	0.196589	0.697504	-0.603668	0.253706	-0.001477	-0.220086	-0.880127	-0.171875	-0.592773	0.091548	-0.004983	0.011282	-0.550816	-0.429285	0.465659	-0.543579	-9.567337	-78.431353	97.055652
52826		9.370068	-0.579925	0.804165	0.323758	1.054292	-0.455083	0.252172	0.006010	-0.248275	-0.875000	-0.182617	-0.589111	0.093694	-0.005926	0.008031	-0.550962	-0.430554	0.464427	-0.543481	-8.728097	-78.452553	96.346496
52827		9.422311	-0.642984	0.374623	0.430531	1.483968	-0.488196	0.268164	0.017324	-0.268229	-0.885010	-0.183350	-0.589600	0.094215	-0.006561	0.003729	-0.551153	-0.431882	0.463073	-0.543388	-7.816175	-78.466568	95.572632
52828		9.681397	-0.539703	0.089719	0.361496	1.816589	-0.294387	0.254534	-0.050654	-0.289021	-0.875977	-0.188965	-0.599609	0.096806	-0.005538	0.000915	-0.551270	-0.433403	0.461900	-0.543057	-6.876235	-78.518505	94.762212
52829		10.120806	-0.690124	-0.022413	0.537147	2.001464	0.117722	0.188767	-0.085792	-0.280095	-0.877197	-0.196533	-0.589844	0.101198	-0.007043	-0.000187	-0.551424	-0.434817	0.461017	-0.542521	-6.000994	-78.587032	93.979615
52830		10.257589	-1.237494	0.508666	1.089926	1.483974	0.366610	0.114975	-0.022885	-0.241198	-0.880371	-0.194092	-0.587402	0.102560	-0.012502	0.005091	-0.551821	-0.435725	0.460286	-0.542009	-5.253453	-78.615622	93.274193
52831		10.324800	-1.233466	1.307903	1.081602	0.707019	0.587492	0.187410	-0.120016	-0.212519	-0.875488	-0.193848	-0.590576	0.103227	-0.012457	0.013129	-0.551713	-0.437070	0.459647	-0.541579	-4.563634	-78.696200	92.680203
52832		11.057668	-0.548816	1.744452	0.400297	0.422245	1.380063	0.210436	-0.281588	-0.193330	-0.879883	-0.199219	-0.583008	0.110547	-0.005613	0.017594	-0.551174	-0.438830	0.459473	-0.540851	-3.940347	-78.867295	92.157649
52833		12.498056	-0.094279	1.302149	-0.027537	1.122162	2.703135	0.100445	-0.145305	-0.162350	-0.878906	-0.213135	-0.579346	0.124970	-0.001051	0.013112	-0.551060	-0.439886	0.459246	-0.540302	-3.429004	-78.957971	91.695283
52834		13.267753	0.203681	1.189995	-0.309153	1.397538	3.432766	0.024237	0.291261	-0.084147	-0.874268	-0.204346	-0.575439	0.132696	0.001980	0.011707	-0.551901	-0.439373	0.458197	-0.540752	-3.115575	-78.796098	91.389959
52835		13.010928	0.603416	1.253177	-0.700081	1.346218	3.184085	0.039637	0.466185	-0.023538	-0.879150	-0.201172	-0.595459	0.130139	0.006016	0.012230	-0.552945	-0.438288	0.456751	-0.541787	-2.947899	-78.531680	91.242165
52836		12.656626	1.270174	2.150795	-1.389689	0.467753	3.004459	-0.086250	0.337173	0.005765	-0.867676	-0.208984	-0.595459	0.126602	0.012715	0.021289	-0.553934	-0.437097	0.456107	-0.542282	-2.958653	-78.340591	91.192639
52837		12.100196	0.786014	2.641625	-0.923196	-0.102438	2.562605	-0.350160	0.222842	-0.000347	-0.868164	-0.205566	-0.585693	0.121031	0.007906	0.026268	-0.555208	-0.435537	0.456439	-0.541955	-3.118631	-78.214702	91.151181
52838		11.122469	0.279057	2.617052	-0.418372	-0.268360	1.606115	-0.378072	0.192898	-0.030433	-0.864014	-0.193604	-0.597656	0.111250	0.002823	0.026058	-0.556552	-0.434047	0.456865	-0.541412	-3.216939	-78.107332	91.030238
52839		10.014973	0.072504	2.426623	-0.204387	-0.302386	0.485867	-0.352024	0.079052	-0.056064	-0.869385	-0.199219	-0.596191	0.100160	0.000740	0.024225	-0.557648	-0.432995	0.457477	-0.540610	-3.247585	-78.065527	90.855481
52840		9.591386	-0.013602	2.141380	-0.105664	-0.111088	0.013649	-0.327206	-0.007022	-0.083269	-0.862793	-0.194580	-0.597656	0.095913	-0.000141	0.021417	-0.558611	-0.432266	0.458242	-0.539550	-3.204565	-78.074243	90.609837
52841		9.606054	-0.300315	2.393672	0.169792	-0.367148	0.083398	-0.330675	0.026343	-0.078095	-0.858643	-0.204590	-0.592041	0.096063	-0.003001	0.023929	-0.559597	-0.431463	0.458892	-0.538617	-3.171696	-78.063266	90.382654
52842		9.696175	-0.816880	2.803379	0.664772	-0.772095	0.262231	-0.248185	0.036628	-0.052446	-0.874023	-0.192871	-0.609863	0.096965	-0.008159	0.028026	-0.560356	-0.430805	0.459349	-0.537965	-3.160465	-78.045978	90.225772
52843		9.866626	-1.148933	3.355014	0.964734	-1.295103	0.546775	-0.167039	-0.048117	-0.007935	-0.871094	-0.196533	-0.594482	0.098658	-0.011465	0.033583	-0.560628	-0.430498	0.459917	-0.537442	-3.235055	-78.075362	90.204246
52844		9.979588	-1.380592	3.881629	1.160545	-1.809961	0.767596	-0.113509	-0.139393	0.045493	-0.867920	-0.202393	-0.595947	0.099772	-0.013761	0.038894	-0.560475	-0.430423	0.460753	-0.536945	-3.439788	-78.155558	90.336954
52845		10.319619	-1.477974	4.252119	1.223429	-2.123156	1.176164	-0.098655	-0.138700	0.130005	-0.860352	-0.188232	-0.598877	0.103176	-0.014692	0.042600	-0.560019	-0.430233	0.461687	-0.536771	-3.869235	-78.231734	90.717992
52846		10.357196	-1.000589	4.679716	0.700407	-2.516839	1.293497	-0.051091	-0.029423	0.239056	-0.864990	-0.182861	-0.606445	0.103577	-0.009870	0.046815	-0.559418	-0.429631	0.462425	-0.537245	-4.554565	-78.240438	91.388090
52847		10.349826	-0.317580	5.305294	-0.051370	-3.088372	1.404489	-0.072970	0.088530	0.385450	-0.875977	-0.185303	-0.603271	0.103528	-0.002957	0.053008	-0.558744	-0.428310	0.463202	-0.538330	-5.621628	-78.171977	92.435511
52848		10.620799	0.084117	5.615312	-0.525584	-3.298199	1.727912	-0.087820	0.149620	0.552346	-0.871826	-0.175293	-0.598145	0.106247	0.001159	0.056073	-0.557836	-0.426355	0.464242	-0.539926	-7.115577	-78.053588	93.900756
52849		11.055813	-0.103302	5.347434	-0.400483	-2.933124	2.106730	-0.071892	0.190271	0.703440	-0.873047	-0.174805	-0.608643	0.110612	-0.000625	0.053369	-0.556529	-0.424018	0.465403	-0.542110	-8.952228	-77.891012	95.736564
52850		11.257504	-0.523182	4.716905	-0.031035	-2.265983	2.192227	0.068555	0.257516	0.784108	-0.872803	-0.170898	-0.600098	0.112655	-0.004806	0.047022	-0.554900	-0.421656	0.466199	-0.544932	-10.834885	-77.670347	97.693043
52851		11.063213	-0.624196	4.267183	0.022923	-1.826240	1.920033	0.248217	0.443938	0.783915	-0.870605	-0.164307	-0.605225	0.110750	-0.005861	0.042419	-0.553270	-0.419317	0.465940	-0.548603	-12.440366	-77.332374	99.483209
52852		10.357069	-0.729801	4.144958	0.092447	-1.800267	1.220530	0.278693	0.593118	0.742331	-0.861328	-0.159668	-0.610596	0.103719	-0.006971	0.041132	-0.552025	-0.416740	0.465089	-0.552530	-13.751531	-76.906886	100.992023
52853		9.398533	-1.167430	3.970434	0.523140	-1.794889	0.285025	0.255577	0.562155	0.664907	-0.869385	-0.153076	-0.617432	0.094135	-0.011412	0.039425	-0.550958	-0.414355	0.464213	-0.556112	-14.826241	-76.502563	102.246846
52854		8.874049	-1.654400	3.686686	1.003119	-1.605954	-0.247552	0.198731	0.344096	0.562084	-0.860107	-0.148926	-0.619141	0.088850	-0.016331	0.036698	-0.549778	-0.412652	0.463877	-0.558820	-15.775026	-76.229297	103.340327
52855		8.911806	-2.186842	3.418554	1.508431	-1.328477	-0.228912	0.188235	0.074463	0.430232	-0.864258	-0.147949	-0.617920	0.089178	-0.021709	0.034132	-0.548360	-0.411977	0.464035	-0.560578	-16.576622	-76.121536	104.276960
52856		9.511894	-2.333398	3.494668	1.590789	-1.262047	0.385851	0.242110	-0.099379	0.272964	-0.862793	-0.144531	-0.608887	0.095133	-0.023246	0.034966	-0.546865	-0.412298	0.464193	-0.561671	-17.107597	-76.132593	104.966808
52857		10.451293	-2.360316	3.084253	1.568851	-0.646336	1.207031	0.279840	-0.037277	0.088313	-0.866455	-0.144775	-0.621826	0.104518	-0.023600	0.030829	-0.545954	-0.412976	0.463692	-0.562472	-17.164479	-76.140001	105.190603
52858		10.980725	-1.417751	2.587594	0.625603	-0.000627	1.540308	0.385944	0.216079	-0.068680	-0.859619	-0.149170	-0.617188	0.109830	-0.014265	0.025730	-0.545850	-0.413593	0.461876	-0.563613	-16.642981	-76.034826	104.881196
52859		10.857312	-0.645900	2.357650	-0.104129	0.249584	1.313117	0.402141	0.413928	-0.164140	-0.864014	-0.159424	-0.630127	0.108616	-0.006595	0.023339	-0.546435	-0.413915	0.459273	-0.564934	-15.783542	-75.835241	104.232786
52860		10.492101	0.345251	2.602243	-1.046101	-0.006684	0.952086	0.508233	0.492116	-0.224835	-0.858398	-0.168457	-0.619141	0.104988	0.003269	0.025773	-0.547145	-0.414440	0.456027	-0.566490	-14.709719	-75.598889	103.425236
52861		9.981038	1.200223	2.544831	-1.829913	-0.013613	0.394601	0.540492	0.509983	-0.243115	-0.858643	-0.168701	-0.628174	0.099889	0.011812	0.025226	-0.547873	-0.415039	0.452595	-0.568098	-13.598532	-75.351468	102.597327
52862		9.417015	1.935141	2.528608	-2.493491	-0.087231	-0.190139	0.563465	0.499386	-0.258014	-0.852539	-0.180176	-0.640869	0.094258	0.019159	0.025105	-0.548563	-0.415758	0.449090	-0.569686	-12.481132	-75.107862	101.775668
52863		8.941496	2.420351	2.479521	-2.914716	-0.120877	-0.677805	0.531157	0.477236	-0.259673	-0.854248	-0.185303	-0.640137	0.089505	0.024022	0.024646	-0.549267	-0.416449	0.445727	-0.571142	-11.418282	-74.872958	100.990417
52864		8.458158	2.473323	2.316790	-2.907283	-0.055591	-1.177312	0.448498	0.452560	-0.258502	-0.847900	-0.188721	-0.639404	0.084666	0.024572	0.023032	-0.550078	-0.416975	0.442664	-0.572359	-10.443167	-74.648198	100.246139
52865		8.148910	2.519897	2.256187	-2.908607	-0.049602	-1.483077	0.346164	0.387358	-0.253491	-0.845459	-0.188477	-0.652100	0.081564	0.025057	0.022447	-0.550938	-0.417392	0.440079	-0.573220	-9.583019	-74.456654	99.559584
52866		7.896854	2.422252	2.241609	-2.773591	-0.077587	-1.716176	0.226215	0.314927	-0.245719	-0.841064	-0.202148	-0.649658	0.079033	0.024100	0.022319	-0.551863	-0.417665	0.438052	-0.573684	-8.848805	-74.302824	98.931822
52867		7.836089	2.386075	2.189104	-2.712734	-0.022852	-1.779611	0.084539	0.229457	-0.229593	-0.836426	-0.200684	-0.653320	0.078413	0.023762	0.021811	-0.552848	-0.417757	0.436697	-0.573702	-8.265173	-74.194123	98.375804
52868		7.908437	2.085908	2.081207	-2.397547	0.119192	-1.721747	-0.073862	0.148367	-0.220253	-0.834717	-0.201660	-0.650391	0.079123	0.020780	0.020746	-0.553959	-0.417621	0.436040	-0.573228	-7.820538	-74.129324	97.869706
52869		7.936931	1.658525	1.954079	-1.956637	0.265280	-1.709282	-0.181433	0.103143	-0.205904	-0.840576	-0.210449	-0.648193	0.079396	0.016521	0.019485	-0.555154	-0.417285	0.435845	-0.572464	-7.481450	-74.088173	97.409119
52870		7.947356	1.275174	1.926586	-1.562379	0.306951	-1.690926	-0.282057	0.072174	-0.190277	-0.842773	-0.205566	-0.655762	0.079493	0.012703	0.019219	-0.556445	-0.416724	0.436056	-0.571459	-7.240735	-74.062856	96.990842
52871		7.909129	0.961698	1.719177	-1.237633	0.505345	-1.772312	-0.365963	0.059506	-0.162690	-0.840088	-0.205811	-0.656250	0.079104	0.009584	0.017151	-0.557803	-0.415903	0.436598	-0.570318	-7.107130	-74.042371	96.633873
52872		7.780090	0.684013	1.716797	-0.950981	0.479091	-1.887338	-0.436578	0.051016	-0.134120	-0.839111	-0.197998	-0.650146	0.077810	0.006825	0.017133	-0.559205	-0.414846	0.437422	-0.569082	-7.073210	-74.024581	96.338485
52873		7.680979	0.521535	1.746652	-0.784301	0.428408	-1.969119	-0.452877	0.047713	-0.104537	-0.838623	-0.199219	-0.655518	0.076817	0.005215	0.017436	-0.560546	-0.413685	0.438361	-0.567884	-7.108683	-74.006545	96.105528
52874		7.740814	0.340159	1.681822	-0.604327	0.510280	-1.923529	-0.488948	0.043581	-0.072968	-0.837158	-0.192871	-0.652344	0.077413	0.003414	0.016793	-0.561861	-0.412364	0.439476	-0.566683	-7.228395	-73.988746	95.938673
52875		7.852357	0.154277	1.634390	-0.423540	0.589156	-1.823442	-0.501291	0.079103	-0.051475	-0.843506	-0.192871	-0.656494	0.078530	0.001563	0.016309	-0.563214	-0.410857	0.440568	-0.565585	-7.389042	-73.949248	95.807038
52876		7.914721	0.289080	1.613660	-0.563823	0.637335	-1.774891	-0.482610	0.097807	-0.025928	-0.832031	-0.192383	-0.664795	0.079155	0.002919	0.016091	-0.564494	-0.409291	0.441605	-0.564635	-7.584216	-73.897411	95.722432
52877		8.114841	0.471931	1.538920	-0.755553	0.777811	-1.611116	-0.476692	0.067583	0.004974	-0.844971	-0.183105	-0.667236	0.081153	0.004758	0.015350	-0.565604	-0.407756	0.442771	-0.563720	-7.844504	-73.860371	95.709128
52878		8.357210	0.613536	1.270805	-0.900930	1.113839	-1.459124	-0.475661	0.040235	0.045258	-0.837891	-0.183594	-0.663330	0.083573	0.006184	0.012677	-0.566536	-0.406210	0.444090	-0.562862	-8.189687	-73.835705	95.784746
52879		8.529279	0.752929	1.074779	-1.046804	1.361709	-1.355703	-0.494087	0.046896	0.090028	-0.838135	-0.170898	-0.663818	0.085292	0.007594	0.010709	-0.567390	-0.404491	0.445531	-0.562101	-8.630561	-73.803310	95.949095
52880		8.483494	0.714855	0.911734	-1.013059	1.512647	-1.446234	-0.528138	0.070905	0.134235	-0.834961	-0.171387	-0.664307	0.084833	0.007229	0.009068	-0.568239	-0.402508	0.447087	-0.561432	-9.167946	-73.753134	96.193561
52881		8.310922	0.679232	0.949461	-0.991495	1.436903	-1.603762	-0.554105	0.077450	0.172586	-0.842041	-0.167969	-0.672119	0.083107	0.006890	0.009443	-0.569042	-0.400342	0.448769	-0.560824	-9.790060	-73.694833	96.510972
52882		8.137704	0.539541	1.133669	-0.877723	1.214021	-1.716129	-0.551321	0.054628	0.187813	-0.840088	-0.159424	-0.665039	0.081375	0.005503	0.011299	-0.569741	-0.398212	0.450536	-0.560214	-10.444027	-73.647038	96.863239
52883		8.034206	0.331315	1.364254	-0.703826	0.957629	-1.743799	-0.553575	-0.006013	0.193121	-0.829346	-0.148438	-0.675049	0.080338	0.003428	0.013636	-0.570287	-0.396229	0.452488	-0.559490	-11.129415	-73.631496	97.247049
52884		8.088929	0.132016	1.501259	-0.540080	0.827117	-1.644081	-0.550944	-0.112116	0.183065	-0.844971	-0.153320	-0.670410	0.080880	0.001436	0.015054	-0.570613	-0.394569	0.454713	-0.558526	-11.834641	-73.675525	97.652792
52885		8.456704	0.011394	1.514896	-0.458131	0.896452	-1.280554	-0.563429	-0.216921	0.163580	-0.828857	-0.141602	-0.662598	0.084550	0.000226	0.015240	-0.570774	-0.393207	0.457228	-0.557268	-12.557137	-73.779019	98.069204
52886		9.028989	-0.011659	1.557275	-0.484872	0.991336	-0.717088	-0.560861	-0.290769	0.149975	-0.845703	-0.132813	-0.667725	0.090267	-0.000005	0.015704	-0.570792	-0.392087	0.459916	-0.555825	-13.291869	-73.924227	98.499548
52887		9.804547	0.107311	1.646631	-0.667338	1.098564	0.046305	-0.525216	-0.340821	0.138691	-0.841064	-0.134033	-0.656982	0.098016	0.001185	0.016630	-0.570651	-0.391228	0.462620	-0.554329	-14.019145	-74.097066	98.943112
52888		10.533623	0.055508	1.757096	-0.682465	1.152233	0.782317	-0.491868	-0.352149	0.134887	-0.845947	-0.125244	-0.659912	0.105305	0.000670	0.017755	-0.570424	-0.390502	0.465253	-0.552870	-14.737884	-74.275445	99.397042
52889		11.076667	-0.063463	1.745994	-0.612694	1.264848	1.312496	-0.460060	-0.292702	0.132371	-0.848145	-0.120850	-0.656494	0.110741	-0.000521	0.017623	-0.570274	-0.389703	0.467618	-0.551591	-15.414580	-74.419521	99.826110
52890		11.485863	-0.296397	1.543368	-0.404721	1.517342	1.673332	-0.432677	-0.256435	0.145402	-0.843750	-0.115479	-0.663086	0.114841	-0.002847	0.015587	-0.570117	-0.388850	0.469828	-0.550476	-16.090608	-74.540476	100.270204
52891		11.637958	-0.627952	1.172017	-0.069020	1.856791	1.752669	-0.401476	-0.215235	0.166176	-0.839355	-0.111572	-0.651123	0.116372	-0.006159	0.011858	-0.569934	-0.387920	0.471870	-0.549574	-16.774584	-74.633720	100.741143
52892		11.541862	-0.840912	0.886271	0.151946	2.063630	1.607708	-0.372184	-0.171517	0.191870	-0.844727	-0.104248	-0.655029	0.115419	-0.008282	0.008977	-0.569725	-0.386891	0.473756	-0.548893	-17.472200	-74.697416	101.243110
52893		11.319819	-1.014749	0.825101	0.313663	2.030599	1.395658	-0.373410	-0.128173	0.230134	-0.851318	-0.095703	-0.648193	0.113204	-0.010002	0.008342	-0.569512	-0.385647	0.475592	-0.548402	-18.223996	-74.728826	101.800744
52894		10.829736	-1.044278	1.371333	0.272623	1.367903	1.064292	-0.377044	-0.019012	0.258292	-0.848389	-0.093262	-0.654785	0.108309	-0.010277	0.013743	-0.569533	-0.383984	0.477214	-0.548137	-18.961908	-74.694260	102.331564
52895		10.194153	-1.005645	2.517299	0.094476	0.110001	0.734717	-0.379054	0.065061	0.275261	-0.851074	-0.087402	-0.647705	0.101963	-0.009868	0.025159	-0.569661	-0.382082	0.478597	-0.548127	-19.672895	-74.608854	102.843690
52896		9.795546	-1.247351	2.739699	0.293645	-0.236392	0.428032	-0.358233	-0.144935	0.231494	-0.850098	-0.085938	-0.657715	0.097950	-0.012311	0.027490	-0.569412	-0.380879	0.480470	-0.547586	-20.431009	-74.643733	103.406993
52897		10.944045	-1.650836	2.626633	0.607300	0.091157	1.545974	-0.400537	-0.408963	0.083446	-0.852051	-0.082031	-0.640625	0.109393	-0.016410	0.026523	-0.568962	-0.380670	0.482890	-0.546068	-21.125878	-74.847820	103.889423
52898		12.758485	-2.987234	3.176777	1.723971	-0.182077	3.558511	-0.539013	-0.301708	-0.105990	-0.856689	-0.070068	-0.646973	0.127521	-0.029854	0.032041	-0.569595	-0.380188	0.485052	-0.543823	-21.453926	-75.033301	103.899282
52899		13.661345	-4.220975	3.151746	2.897483	-0.115956	4.539092	-0.398578	0.029987	-0.271002	-0.857666	-0.071533	-0.644531	0.136561	-0.042332	0.031581	-0.571161	-0.379642	0.485536	-0.542127	-21.113548	-75.075630	103.310680
52900		13.498053	-4.109272	3.039391	2.850439	-0.038597	4.336331	-0.025514	0.173349	-0.363131	-0.846924	-0.082275	-0.643799	0.134932	-0.041334	0.030282	-0.572661	-0.379953	0.484456	-0.541291	-20.263108	-75.058550	102.405328
52901		12.555759	-2.916226	3.225404	1.754257	-0.288161	3.355223	0.282414	0.183593	-0.390948	-0.846680	-0.080078	-0.645264	0.125530	-0.029453	0.032097	-0.573626	-0.381225	0.482424	-0.541191	-19.175244	-75.037057	101.446881
52902		11.310574	-1.630120	3.239253	0.605576	-0.441632	2.041302	0.489272	0.107848	-0.364432	-0.851318	-0.083496	-0.650146	0.113093	-0.016586	0.032291	-0.573985	-0.383187	0.480131	-0.541464	-18.076642	-75.047472	100.589874
52903		9.936385	-0.269341	3.025395	-0.593194	-0.416375	0.552248	0.623296	0.034394	-0.282133	-0.852295	-0.092773	-0.653564	0.099365	-0.002928	0.030228	-0.573635	-0.385572	0.477804	-0.542200	-17.115736	-75.079472	99.965034
52904		8.582807	1.336237	3.047836	-2.087572	-0.602818	-0.867410	0.530715	-0.015224	-0.175057	-0.842041	-0.105469	-0.650391	0.085837	0.013206	0.030520	-0.573095	-0.387526	0.476107	-0.542870	-16.456226	-75.119025	99.587193
52905		7.664014	2.039200	3.248447	-2.747342	-0.962107	-1.752025	0.317107	-0.041584	-0.084583	-0.849121	-0.109375	-0.646484	0.076642	0.020308	0.032533	-0.572611	-0.388762	0.475203	-0.543289	-16.120409	-75.157380	99.427788
52906		6.945958	2.276141	3.804376	-3.008119	-1.659381	-2.322821	0.130535	0.007230	-0.053942	-0.844971	-0.099365	-0.649902	0.069467	0.022718	0.038056	-0.572569	-0.389218	0.474760	-0.543393	-15.924772	-75.164140	99.292753
52907		6.364624	1.966664	4.016620	-2.697599	-2.042990	-2.808503	-0.091624	0.028798	-0.079159	-0.846924	-0.107178	-0.650635	0.063660	0.019660	0.040148	-0.573032	-0.389079	0.474774	-0.542993	-15.791471	-75.162546	99.100605
52908		5.991264	1.077838	4.163632	-1.819263	-2.371752	-3.070441	-0.284364	-0.030521	-0.147401	-0.842285	-0.098633	-0.652344	0.059914	0.010793	0.041630	-0.573913	-0.388713	0.475349	-0.541820	-15.660229	-75.204437	98.796307
52909		5.969563	0.175144	4.294571	-0.941722	-2.607270	-2.999098	-0.378658	-0.155194	-0.261910	-0.850830	-0.101074	-0.648438	0.059665	0.001755	0.042989	-0.574989	-0.388682	0.476312	-0.539853	-15.413757	-75.332182	98.317185
52910		6.258762	-0.409254	4.127364	-0.349985	-2.457904	-2.726723	-0.413151	-0.287742	-0.393548	-0.849854	-0.101563	-0.642090	0.062520	-0.004130	0.041372	-0.576215	-0.389180	0.477523	-0.537110	-14.973809	-75.552479	97.608090
52911		6.828247	-0.836562	4.189870	0.056217	-2.459206	-2.142694	-0.431916	-0.409147	-0.527610	-0.846924	-0.102783	-0.639893	0.068174	-0.008455	0.042056	-0.577491	-0.390305	0.478834	-0.533746	-14.301478	-75.857559	96.658962
52912		7.814634	-1.383650	4.334907	0.568707	-2.479176	-1.134885	-0.474044	-0.601131	-0.646981	-0.854980	-0.099365	-0.636963	0.077970	-0.013986	0.043617	-0.578744	-0.392057	0.480602	-0.529498	-13.449537	-76.282849	95.491412
52913		9.218369	-1.977841	4.274036	1.163402	-2.247758	0.224778	-0.494244	-0.778496	-0.743450	-0.871094	-0.106445	-0.638916	0.091942	-0.020014	0.043148	-0.579801	-0.394482	0.482699	-0.524611	-12.409245	-76.814759	94.130683
52914		10.988391	-2.386421	4.097112	1.606973	-1.839802	1.903001	-0.505709	-0.827969	-0.776801	-0.872803	-0.102783	-0.627686	0.109619	-0.024186	0.041486	-0.580873	-0.397027	0.484921	-0.519430	-11.215318	-77.372145	92.598615
52915		11.904745	-3.015852	3.686349	2.334068	-1.447373	2.711830	-0.547416	-0.599616	-0.742457	-0.876709	-0.114746	-0.612793	0.118823	-0.030498	0.037303	-0.582426	-0.398802	0.486605	-0.514736	-9.910216	-77.789680	90.941152
52916		11.996600	-2.817014	3.443714	2.228392	-1.251389	2.724489	-0.442238	-0.361084	-0.639744	-0.874268	-0.108887	-0.616699	0.119813	-0.028477	0.034716	-0.584116	-0.399968	0.487551	-0.511007	-8.621718	-78.054686	89.354428
52917		11.678787	-2.047722	3.135979	1.563513	-0.958579	2.314052	-0.307283	-0.284265	-0.476462	-0.867432	-0.117920	-0.616943	0.116694	-0.020707	0.031557	-0.585252	-0.400970	0.488213	-0.508282	-7.612466	-78.256207	88.143390
52918		10.897334	-1.574714	2.216360	1.274488	-0.197493	1.344390	-0.173770	-0.271496	-0.315795	-0.873535	-0.117188	-0.606934	0.108918	-0.015900	0.022325	-0.585784	-0.401893	0.488851	-0.506324	-6.930154	-78.435111	87.335117
52919		10.194023	-1.446445	1.514720	1.278829	0.331030	0.510085	-0.009462	-0.154625	-0.197145	-0.876709	-0.114746	-0.611816	0.101914	-0.014564	0.015227	-0.585924	-0.402752	0.488934	-0.505399	-6.428706	-78.537933	86.817897
52920		9.495555	-1.493219	1.590381	1.318434	0.098368	-0.159883	0.085623	-0.052006	-0.098860	-0.881348	-0.117188	-0.609375	0.094944	-0.014986	0.015922	-0.585918	-0.403347	0.488707	-0.505150	-6.110318	-78.575411	86.533162
52921		9.082112	-1.565320	1.871421	1.345464	-0.270602	-0.509263	0.169631	-0.033070	-0.012803	-0.875488	-0.125732	-0.618164	0.090817	-0.015675	0.018716	-0.585528	-0.403972	0.488352	-0.505447	-5.980034	-78.596701	86.499459
52922		8.724884	-1.587102	1.985479	1.346338	-0.455134	-0.836895	0.223894	-0.025989	0.052658	-0.877197	-0.124268	-0.611816	0.087250	-0.015870	0.019848	-0.584879	-0.404578	0.487970	-0.506081	-6.001168	-78.610027	86.651939
52923		8.558001	-1.471092	1.996576	1.226333	-0.479007	-1.000396	0.218225	-0.029303	0.100547	-0.882813	-0.129883	-0.614502	0.085584	-0.014690	0.019962	-0.584111	-0.405058	0.487709	-0.506835	-6.162629	-78.622295	86.944240
52924		8.641254	-1.432037	2.028405	1.177886	-0.487049	-0.912587	0.121727	-0.038703	0.114221	-0.882080	-0.126953	-0.616211	0.086417	-0.014283	0.020292	-0.583525	-0.405204	0.487782	-0.507323	-6.421519	-78.638827	87.269514
52925		8.924664	-1.357134	1.945338	1.111732	-0.340096	-0.651674	0.029921	-0.034831	0.101839	-0.881104	-0.123535	-0.611328	0.089250	-0.013529	0.019467	-0.583121	-0.405145	0.488016	-0.507610	-6.697612	-78.653676	87.568661
52926		9.026612	-1.201946	1.838357	0.969124	-0.191852	-0.575375	0.003167	0.014526	0.068122	-0.881836	-0.123291	-0.617676	0.090272	-0.011989	0.018377	-0.582978	-0.404965	0.488105	-0.507833	-6.877212	-78.642464	87.753758
52927		8.882408	-1.074558	1.587717	0.878019	0.043994	-0.768361	0.010084	0.011386	0.028035	-0.885986	-0.118408	-0.608643	0.088826	-0.010734	0.015872	-0.582914	-0.404910	0.488105	-0.507949	-6.940142	-78.635752	87.823897
52928		8.899509	-1.004501	1.312805	0.851131	0.322391	-0.806835	0.060431	-0.062761	0.007356	-0.880371	-0.118164	-0.603516	0.088991	-0.010046	0.013153	-0.582620	-0.405241	0.488152	-0.507978	-6.941429	-78.672607	87.860586
52929		8.979643	-0.961406	1.226768	0.822920	0.424007	-0.745920	0.099336	-0.038301	0.000800	-0.884277	-0.123779	-0.610352	0.089794	-0.009620	0.012280	-0.582323	-0.405639	0.488014	-0.508132	-6.893219	-78.696033	87.869522
52930		8.821738	-0.914980	1.280518	0.767844	0.349094	-0.891447	0.145870	0.039390	0.035395	-0.885254	-0.124756	-0.611084	0.088222	-0.009144	0.012781	-0.582033	-0.405891	0.487603	-0.508658	-6.890208	-78.672872	87.951747
52931		8.705690	-1.002023	1.278329	0.851466	0.322199	-1.003693	0.162059	0.082748	0.082779	-0.881348	-0.125488	-0.611816	0.087066	-0.009995	0.012739	-0.581695	-0.405964	0.487120	-0.509449	-6.996553	-78.621772	88.154976
52932		8.648841	-1.053480	1.140527	0.917934	0.447614	-1.085140	0.201756	0.105365	0.127489	-0.883057	-0.120850	-0.608398	0.086501	-0.010491	0.011349	-0.581217	-0.405985	0.486560	-0.510512	-7.196786	-78.554532	88.477238
52933		8.576265	-1.108645	1.064929	0.975541	0.513978	-1.169794	0.207599	0.175337	0.167748	-0.877930	-0.127197	-0.622070	0.085781	-0.011026	0.010563	-0.580793	-0.405745	0.485862	-0.511847	-7.476700	-78.444325	88.884326
52934		8.418536	-1.141145	1.106006	0.991065	0.458605	-1.315357	0.208944	0.218233	0.194900	-0.885986	-0.117432	-0.616943	0.084208	-0.011341	0.010956	-0.580445	-0.405290	0.485126	-0.513299	-7.808162	-78.307262	89.335006
52935		8.337389	-1.058101	1.136204	0.893017	0.446954	-1.390972	0.224482	0.199805	0.210826	-0.876221	-0.124756	-0.614502	0.083396	-0.010506	0.011267	-0.579932	-0.404931	0.484399	-0.514847	-8.171480	-78.178823	89.837541
52936		8.518670	-1.007408	1.149781	0.828602	0.497002	-1.212050	0.254402	0.140582	0.215996	-0.881592	-0.125977	-0.620117	0.085206	-0.009997	0.011425	-0.579246	-0.404754	0.483811	-0.516310	-8.546923	-78.082882	90.360183
52937		8.831049	-1.040835	1.247348	0.834142	0.478119	-0.885078	0.275419	0.109244	0.214947	-0.880615	-0.126465	-0.614746	0.088328	-0.010331	0.012411	-0.578397	-0.404762	0.483220	-0.517806	-8.912944	-78.004060	90.895680
52938		9.217672	-1.118495	1.395399	0.876394	0.418648	-0.473507	0.303342	0.092620	0.198062	-0.876709	-0.127197	-0.608643	0.092194	-0.011115	0.013894	-0.577538	-0.404892	0.482604	-0.519236	-9.220366	-77.935541	91.377763
52939		9.599166	-1.176481	1.441040	0.915279	0.462213	-0.088836	0.353618	0.125247	0.169961	-0.875977	-0.128418	-0.616699	0.096011	-0.011709	0.014330	-0.576682	-0.405190	0.481670	-0.520819	-9.405622	-77.850717	91.774507
52940		9.795348	-1.100571	1.409793	0.836315	0.564720	0.093332	0.428831	0.197331	0.144375	-0.880371	-0.122803	-0.617920	0.097975	-0.010965	0.013978	-0.575956	-0.405535	0.480313	-0.522604	-9.446300	-77.727420	92.057564
52941		9.818319	-1.083185	1.259720	0.836485	0.746759	0.081863	0.512614	0.289972	0.101960	-0.873779	-0.126465	-0.621582	0.098207	-0.010814	0.012427	-0.575344	-0.406021	0.478345	-0.524701	-9.286400	-77.555738	92.194602
52942		9.464539	-0.851059	1.133349	0.627765	0.859441	-0.301989	0.577235	0.410099	0.077721	-0.875732	-0.136230	-0.622070	0.094672	-0.008506	0.011115	-0.574991	-0.406389	0.475845	-0.527072	-8.980669	-77.318473	92.210245
52943		9.008257	-0.624094	1.011313	0.426076	0.946407	-0.785863	0.606402	0.436990	0.060028	-0.870605	-0.140137	-0.623535	0.090106	-0.006244	0.009897	-0.574637	-0.406848	0.473111	-0.529559	-8.608623	-77.067521	92.185071
52944		8.580948	-0.341487	0.680282	0.192071	1.241282	-1.290112	0.630913	0.405378	0.037431	-0.863037	-0.144775	-0.639893	0.085824	-0.003420	0.006618	-0.574255	-0.407469	0.470387	-0.531917	-8.187506	-76.836418	92.113909
52945		8.146708	0.131443	0.449947	-0.244863	1.445327	-1.785260	0.617561	0.353197	0.013387	-0.857178	-0.143555	-0.631592	0.081475	0.001306	0.004360	-0.573789	-0.408282	0.467757	-0.534112	-7.741312	-76.636661	92.019078
52946		7.853424	0.348982	0.343632	-0.443658	1.523132	-2.105590	0.507443	0.239541	-0.003367	-0.858887	-0.154053	-0.640381	0.078538	0.003480	0.003351	-0.573367	-0.409077	0.465745	-0.535713	-7.362264	-76.502660	91.918300
52947		7.921916	0.345443	0.313077	-0.433622	1.578830	-2.047807	0.394066	0.083850	-0.031514	-0.863281	-0.155273	-0.640381	0.079221	0.003436	0.003104	-0.572840	-0.410068	0.464385	-0.536698	-7.031328	-76.458961	91.810207
52948		8.426869	0.609839	0.538491	-0.715398	1.501239	-1.511574	0.315815	-0.042747	-0.067045	-0.854004	-0.161621	-0.643799	0.084270	0.006062	0.005413	-0.572319	-0.411216	0.463561	-0.537088	-6.699141	-76.489708	91.644674
52949		9.260368	0.611759	0.755699	-0.733212	1.476622	-0.648534	0.244238	-0.102228	-0.107148	-0.851074	-0.159912	-0.627686	0.092603	0.006059	0.007612	-0.571868	-0.412451	0.462979	-0.537124	-6.326694	-76.556553	91.405639
52950		10.020888	0.466991	1.231973	-0.621999	1.170397	0.207158	0.168638	-0.051110	-0.118850	-0.859131	-0.170166	-0.632813	0.100208	0.004600	0.012349	-0.571767	-0.413319	0.462466	-0.537006	-5.954459	-76.594814	91.112296
52951		10.481519	-0.203282	1.259981	0.056354	1.192678	0.678520	0.120114	0.031175	-0.135896	-0.850586	-0.167236	-0.626221	0.104816	-0.002112	0.012582	-0.571956	-0.413906	0.461775	-0.536946	-5.547338	-76.586513	90.764571
52952		10.689694	-0.433417	1.410616	0.289909	1.083034	0.919982	0.136939	0.120846	-0.141694	-0.856445	-0.169434	-0.629150	0.106902	-0.004420	0.014039	-0.572378	-0.414274	0.460808	-0.537044	-5.098621	-76.526984	90.373921
52953		10.655587	-0.994081	1.149566	0.888806	1.299234	0.834997	0.137121	0.196982	-0.141448	-0.859619	-0.175049	-0.628418	0.106560	-0.010024	0.011384	-0.572928	-0.414477	0.459585	-0.537349	-4.638631	-76.423054	89.981675
52954		10.618757	-1.272656	0.685893	1.222833	1.740494	0.690806	0.259088	0.233201	-0.131840	-0.848633	-0.172363	-0.639404	0.106187	-0.012805	0.006719	-0.573327	-0.414869	0.457987	-0.537986	-4.132517	-76.297501	89.603651
52955		10.545903	-1.510637	0.097569	1.523409	2.301892	0.477504	0.376460	0.243944	-0.123107	-0.848389	-0.181641	-0.636230	0.105451	-0.015173	0.000819	-0.573435	-0.415586	0.456020	-0.538987	-3.585345	-76.164417	89.262425
52956		10.200337	-1.526135	-0.453432	1.593506	2.781370	0.000883	0.531169	0.255904	-0.113377	-0.845947	-0.186523	-0.638428	0.101989	-0.015307	-0.004705	-0.573264	-0.416650	0.453658	-0.540338	-2.980075	-76.023658	88.942354
52957		10.093301	-1.431735	-0.313268	1.500987	2.658388	-0.081159	0.625821	0.260186	-0.112630	-0.841797	-0.187256	-0.645752	0.100921	-0.014364	-0.003309	-0.572853	-0.418007	0.450986	-0.541961	-2.330371	-75.879323	88.642301
52958		9.804102	-1.689714	0.921275	1.692964	1.416180	-0.068336	0.581402	0.399045	-0.086483	-0.841553	-0.190918	-0.639893	0.098052	-0.016966	0.008968	-0.572815	-0.418759	0.448125	-0.543791	-1.764846	-75.654537	88.392472
52959		9.230089	-1.751281	2.394961	1.683356	-0.106557	-0.265328	0.520646	0.443605	-0.044035	-0.841553	-0.193359	-0.635010	0.092350	-0.017595	0.023699	-0.572836	-0.419153	0.445346	-0.545744	-1.336307	-75.402709	88.258032
52960		9.248104	-0.995452	3.019110	0.914899	-0.625074	-0.096437	0.472246	0.284133	-0.030152	-0.833984	-0.201416	-0.638428	0.092522	-0.010040	0.030036	-0.572605	-0.419772	0.443221	-0.547239	-0.982547	-75.242277	88.161990
52961		10.561892	-0.557154	2.691036	0.519532	0.076626	1.088221	0.312360	0.241924	-0.027608	-0.828369	-0.204590	-0.643555	0.105651	-0.005628	0.026774	-0.572562	-0.420078	0.441616	-0.548346	-0.730216	-75.105462	88.086159
52962		12.090385	-0.201182	2.343925	0.204333	0.855857	2.472973	0.280258	0.355521	-0.011717	-0.829834	-0.212158	-0.644775	0.120945	-0.002052	0.023221	-0.572835	-0.419906	0.439846	-0.549613	-0.531516	-74.903776	88.036715
52963		13.171055	1.698772	2.111633	-1.664302	1.481563	3.448402	0.494278	0.316214	0.017300	-0.817871	-0.204834	-0.645996	0.131742	0.016947	0.020950	-0.572444	-0.420426	0.437618	-0.551398	-0.274452	-74.724067	88.063856
52964		14.110607	3.451240	3.007171	-3.442070	0.953945	4.585419	0.314625	0.136240	0.163840	-0.821289	-0.204834	-0.646484	0.141098	0.034581	0.030030	-0.571675	-0.420568	0.436746	-0.552778	-0.430548	-74.647366	88.402590
52965		13.584264	2.538225	4.359174	-2.607863	-0.508843	4.432212	-0.034185	0.107687	0.310230	-0.827881	-0.199707	-0.654053	0.135826	0.025600	0.043514	-0.571126	-0.419508	0.437186	-0.553802	-1.087559	-74.584859	89.063758
52966		11.510445	1.595967	6.015934	-1.782599	-2.679935	2.870725	-0.227753	-0.011810	0.371186	-0.821289	-0.194336	-0.651123	0.115071	0.016242	0.060148	-0.570597	-0.418054	0.438669	-0.554274	-1.985159	-74.587891	89.849348
52967		10.528476	1.286529	5.758372	-1.517689	-2.724799	1.846409	-0.251547	-0.405439	0.330118	-0.833008	-0.195313	-0.645996	0.105146	0.013112	0.057781	-0.569317	-0.417747	0.441213	-0.553801	-2.850487	-74.813595	90.597103
52968		11.199398	0.847847	4.566455	-1.081916	-1.456829	2.175001	-0.353035	-0.346836	0.248689	-0.829590	-0.197021	-0.643555	0.111904	0.008698	0.045843	-0.568647	-0.417128	0.443737	-0.552940	-3.617165	-75.005910	91.171608
52969		11.519330	-0.146377	3.740214	-0.092332	-0.635508	2.282482	-0.200230	-0.000240	0.203142	-0.831055	-0.192871	-0.648682	0.115195	-0.001309	0.037404	-0.568503	-0.416122	0.444716	-0.553060	-4.159989	-74.999777	91.614862
52970		11.085823	-0.575292	4.200669	0.291838	-1.204008	1.991430	-0.003692	0.090114	0.204442	-0.831543	-0.179199	-0.642822	0.110883	-0.005639	0.041957	-0.568193	-0.415383	0.444935	-0.553756	-4.577678	-74.941313	92.035166
52971		10.581059	-0.746164	5.044406	0.401863	-2.155876	1.726473	0.045069	-0.110664	0.318944	-0.836182	-0.188477	-0.638916	0.105794	-0.007304	0.050501	-0.566971	-0.415121	0.445788	-0.554519	-5.244674	-74.990492	92.752596
52972		10.823325	-0.689245	5.481053	0.279771	-2.540227	2.067125	0.048754	-0.401889	0.496899	-0.839844	-0.176514	-0.630859	0.108140	-0.006637	0.055026	-0.564642	-0.415239	0.447862	-0.555137	-6.363568	-75.192731	93.929335
52973		11.605971	-0.470533	5.786412	-0.035631	-2.678704	2.884748	-0.067439	-0.486084	0.699410	-0.847900	-0.171387	-0.638672	0.115934	-0.004280	0.058147	-0.561748	-0.414841	0.450871	-0.555933	-8.046486	-75.420505	95.629250
52974		12.372048	-0.703723	5.528347	0.086066	-2.291074	3.561455	-0.180888	-0.272416	0.884930	-0.840820	-0.162109	-0.636963	0.123674	-0.006440	0.055458	-0.559092	-0.413065	0.454009	-0.557378	-10.171315	-75.496300	97.707290
52975		12.370151	-0.863325	5.289871	0.127465	-2.072602	3.507791	-0.144235	0.107162	1.060241	-0.840332	-0.155273	-0.638184	0.123773	-0.007939	0.052838	-0.556671	-0.409964	0.456296	-0.560214	-12.490959	-75.318502	100.018895
52976		11.815628	-1.211076	4.804890	0.382551	-1.713862	2.878926	-0.098720	0.426586	1.165809	-0.843506	-0.139893	-0.639160	0.118326	-0.011398	0.047802	-0.554620	-0.405800	0.457805	-0.564037	-14.770662	-74.925394	102.309101
52977		10.549050	-1.101739	4.774151	0.213857	-1.933171	1.654839	0.033893	0.610717	1.182490	-0.834717	-0.136963	-0.650146	0.105698	-0.010401	0.047417	-0.552604	-0.401470	0.458406	-0.568607	-16.778270	-74.406272	104.410974
52978		9.233168	-1.626368	4.363100	0.738257	-1.820278	0.339824	0.170754	0.633801	1.076691	-0.836426	-0.124268	-0.648438	0.092555	-0.015803	0.043324	-0.550692	-0.397638	0.458359	-0.573174	-18.361929	-73.875729	106.148982
52979		8.291160	-1.296117	3.966766	0.427714	-1.614635	-0.682083	0.412173	0.551800	0.876779	-0.837158	-0.124512	-0.653809	0.083077	-0.012679	0.039412	-0.548617	-0.395190	0.457397	-0.577609	-19.393711	-73.415948	107.470431
52980		8.306711	-1.787183	3.291424	0.896148	-0.923809	-0.792035	0.280586	0.298940	0.623021	-0.835938	-0.123291	-0.657227	0.083171	-0.017659	0.032765	-0.546995	-0.393643	0.457031	-0.580487	-20.155569	-73.135950	108.423838
52981		8.513047	-2.271549	2.947678	1.341850	-0.516994	-0.633755	0.249585	0.136488	0.337715	-0.834961	-0.121826	-0.660645	0.085189	-0.022608	0.029390	-0.545835	-0.393170	0.456599	-0.582236	-20.516178	-72.997339	108.950330
52982		8.865439	-2.124451	2.592007	1.165748	-0.058355	-0.407083	0.204268	0.122082	0.064748	-0.840576	-0.121826	-0.663086	0.088677	-0.021242	0.025844	-0.545575	-0.393198	0.455835	-0.583059	-20.430349	-72.920759	108.973033
52983		8.283673	-1.353173	2.410467	0.469332	-0.013436	-1.092589	0.229990	0.345080	-0.121230	-0.835693	-0.127197	-0.667236	0.082870	-0.013610	0.023946	-0.546263	-0.393109	0.453985	-0.583917	-19.863794	-72.761023	108.518057
52984		7.581715	-1.037939	2.271872	0.247755	-0.039007	-1.834089	0.218507	0.491713	-0.260978	-0.833252	-0.139160	-0.672607	0.075859	-0.010503	0.022521	-0.547760	-0.392835	0.451526	-0.584605	-18.984824	-72.546954	107.718410
52985		7.026741	-0.070694	2.262400	-0.636496	-0.139836	-2.459210	0.261641	0.576702	-0.327242	-0.830566	-0.137695	-0.678955	0.070331	-0.000851	0.022420	-0.549503	-0.392616	0.448538	-0.585416	-17.940124	-72.294835	106.779850
52986		6.741567	0.736581	2.176659	-1.383333	-0.094282	-2.826528	0.238714	0.586201	-0.351008	-0.820313	-0.143555	-0.674561	0.067492	0.007222	0.021578	-0.551425	-0.392315	0.445573	-0.586075	-16.891829	-72.036421	105.812427
52987		6.408269	1.353954	2.204922	-1.942459	-0.179603	-3.182815	0.325710	0.555211	-0.337671	-0.818359	-0.141113	-0.680664	0.064166	0.013396	0.021893	-0.553010	-0.392350	0.442425	-0.586942	-15.859033	-71.787646	104.922320
52988		6.395453	1.801088	2.280848	-2.360299	-0.224582	-3.200091	0.387873	0.435242	-0.329607	-0.824219	-0.145264	-0.687744	0.064034	0.017861	0.022704	-0.554229	-0.392847	0.439471	-0.587679	-14.883884	-71.599109	104.119305
52989		6.537094	2.148385	2.344190	-2.689878	-0.221529	-3.062890	0.394813	0.306401	-0.310731	-0.816162	-0.152832	-0.688721	0.065440	0.021336	0.023384	-0.555039	-0.393736	0.436851	-0.588273	-14.006734	-71.475373	103.433104
52990		6.800371	2.569396	2.139520	-3.096871	0.065250	-2.896804	0.336170	0.184080	-0.296121	-0.812500	-0.158447	-0.691650	0.068061	0.025557	0.021376	-0.555701	-0.394748	0.434805	-0.588485	-13.245948	-71.414684	102.823719
52991		7.176489	2.677604	2.048680	-3.204383	0.275465	-2.565299	0.226061	0.150286	-0.276718	-0.811035	-0.160889	-0.687744	0.071817	0.026654	0.020463	-0.556397	-0.395549	0.433177	-0.588491	-12.596783	-71.368039	102.275471
52992		7.372423	2.596857	2.075559	-3.114970	0.320966	-2.356273	0.125248	0.144971	-0.257012	-0.817627	-0.173096	-0.690430	0.073773	0.025861	0.020718	-0.557272	-0.396003	0.431933	-0.588272	-12.043030	-71.320126	101.756753
52993		7.543199	2.344384	2.252315	-2.858280	0.216771	-2.115147	-0.057517	0.055203	-0.233988	-0.808594	-0.171631	-0.690186	0.075466	0.023362	0.022496	-0.558195	-0.396199	0.431486	-0.587592	-11.665121	-71.318518	101.323099
52994		7.777300	1.832245	2.071080	-2.344461	0.469028	-1.912283	-0.232204	-0.055585	-0.226074	-0.809326	-0.167236	-0.694336	0.077788	0.018259	0.020711	-0.559251	-0.396179	0.431911	-0.586288	-11.437208	-71.377531	100.932362
52995		8.118701	1.238383	1.903029	-1.758126	0.733663	-1.600554	-0.363326	-0.134574	-0.203602	-0.813721	-0.170166	-0.688965	0.081187	0.012336	0.019062	-0.560277	-0.396010	0.432950	-0.584653	-11.346705	-71.477956	100.617339
52996		8.377485	0.590445	1.724581	-1.114339	0.973746	-1.367860	-0.450283	-0.160133	-0.170860	-0.811035	-0.163818	-0.686523	0.083766	0.005872	0.017300	-0.561373	-0.395562	0.434411	-0.582819	-11.367443	-71.589043	100.357262
52997		8.557810	0.042616	1.706223	-0.572256	1.029053	-1.166146	-0.486871	-0.194115	-0.139624	-0.820068	-0.163086	-0.695801	0.085562	0.000408	0.017144	-0.562321	-0.395077	0.436099	-0.580971	-11.472662	-71.715697	100.174278
52998		8.669841	-0.300949	1.664680	-0.231378	1.080173	-1.048697	-0.465008	-0.213125	-0.113328	-0.819092	-0.153809	-0.690918	0.086679	-0.003020	0.016746	-0.563155	-0.394610	0.437860	-0.579152	-11.616098	-71.850229	100.034771
