// General information: 
//  MT Manager version: 2021.4.0 
//  XDA version: 2021.4.0 build 6323 rev 112641 built on 2021-09-28
// Device information: 
//  DeviceId: 00B47792
//  ProductCode: MTW2-3A7G6
//  Firmware Version: 4.6.0
//  Hardware Version: 2.0.0
// Device settings: 
//  Filter Profile: human(46.1)
//  Option Flags: Orientation Smoother Disabled, Position/Velocity Smoother Disabled, Continuous Zero Rotation Update Disabled, AHS Disabled, ICC Disabled
// Coordinate system: ENU
PacketCounter	SampleTimeFine	Acc_X	Acc_Y	Acc_Z	FreeAcc_E	FreeAcc_N	FreeAcc_U	Gyr_X	Gyr_Y	Gyr_Z	Mag_X	Mag_Y	Mag_Z	VelInc_X	VelInc_Y	VelInc_Z	Quat_q0	Quat_q1	Quat_q2	Quat_q3	Roll	Pitch	Yaw
52456		9.567926	-0.312332	-1.780545	-0.077595	0.195856	-0.077764	0.025177	0.006845	0.000046	-0.848145	0.359619	0.248535	0.095679	-0.003121	-0.017809	-0.237076	0.719442	0.278838	0.590294	-176.419845	-78.984807	39.419469
52457		9.570885	-0.165927	-1.707664	0.075067	0.137627	-0.090501	0.038122	0.004218	-0.000482	-0.846191	0.364014	0.250000	0.095708	-0.001656	-0.017079	-0.237206	0.719399	0.278965	0.590235	-176.405110	-78.983717	39.427304
52458		9.576487	-0.068796	-1.683633	0.159944	0.083498	-0.090758	0.031004	-0.004912	-0.002141	-0.855957	0.368652	0.247803	0.095765	-0.000686	-0.016834	-0.237299	0.719386	0.279091	0.590154	-176.399913	-78.977604	39.441477
52459		9.529006	0.000580	-1.709087	0.183108	0.010471	-0.133364	0.029337	-0.007760	0.002461	-0.847656	0.362305	0.261475	0.095291	0.000009	-0.017087	-0.237390	0.719392	0.279196	0.590060	-176.383785	-78.969560	39.442765
52460		9.534062	0.015615	-1.627245	0.254536	0.055543	-0.144252	0.026642	-0.014016	0.007808	-0.842773	0.363281	0.253174	0.095342	0.000162	-0.016266	-0.237476	0.719430	0.279275	0.589942	-176.353236	-78.957621	39.427091
52461		9.581100	-0.055840	-1.604314	0.232025	0.129660	-0.101674	0.019017	-0.026979	0.017118	-0.844971	0.369385	0.249268	0.095813	-0.000549	-0.016030	-0.237546	0.719525	0.279319	0.589777	-176.303768	-78.938050	39.388384
52462		9.567865	-0.171177	-1.541456	0.200523	0.255467	-0.125378	0.029263	-0.035866	0.021941	-0.852051	0.362549	0.258057	0.095682	-0.001699	-0.015398	-0.237658	0.719643	0.279383	0.589558	-176.233416	-78.913166	39.334416
52463		9.553503	-0.180679	-1.514374	0.216344	0.280086	-0.144692	0.043301	-0.046629	0.023434	-0.852295	0.362549	0.258301	0.095539	-0.001792	-0.015122	-0.237807	0.719776	0.279500	0.589280	-176.155848	-78.882103	39.281247
52464		9.521626	-0.098912	-1.534022	0.259565	0.205270	-0.173452	0.041021	-0.063792	0.024711	-0.842773	0.362061	0.257568	0.095221	-0.000974	-0.015310	-0.237917	0.719970	0.279614	0.588944	-176.079712	-78.840920	39.226409
52465		9.528875	-0.053980	-1.564961	0.276650	0.155322	-0.161221	0.053094	-0.076213	0.027824	-0.851318	0.368164	0.253662	0.095295	-0.000522	-0.015613	-0.238072	0.720184	0.279779	0.588541	-175.990595	-78.792746	39.167171
52466		9.521345	0.089891	-1.601103	0.356670	0.028174	-0.163873	0.061223	-0.086166	0.032781	-0.848145	0.364014	0.261475	0.095220	0.000919	-0.015970	-0.238255	0.720428	0.279955	0.588084	-175.883972	-78.738542	39.094002
52467		9.573380	0.194543	-1.620733	0.432217	-0.051499	-0.110896	0.044420	-0.102160	0.044970	-0.855713	0.369141	0.252686	0.095742	0.001971	-0.016158	-0.238393	0.720753	0.280063	0.587579	-175.757671	-78.674782	38.991755
52468		9.530626	0.111578	-1.626960	0.375733	0.003100	-0.150851	0.019730	-0.103632	0.053838	-0.844238	0.367188	0.255859	0.095314	0.001143	-0.016220	-0.238464	0.721125	0.280064	0.587092	-175.621207	-78.609736	38.864233
52469		9.548554	-0.035243	-1.639906	0.280907	0.107236	-0.128939	0.014170	-0.115549	0.063109	-0.839600	0.365479	0.253174	0.095495	-0.000321	-0.016344	-0.238528	0.721550	0.280033	0.586559	-175.466647	-78.537424	38.715425
52470		9.614374	-0.113888	-1.598901	0.280088	0.203880	-0.071763	0.026899	-0.125221	0.072340	-0.834717	0.365967	0.262939	0.096154	-0.001102	-0.015929	-0.238654	0.722000	0.280018	0.585961	-175.281546	-78.459151	38.543194
52471		9.577152	-0.101345	-1.583733	0.308132	0.203871	-0.111976	0.040843	-0.130273	0.072457	-0.842529	0.366943	0.259766	0.095782	-0.000976	-0.015775	-0.238820	0.722449	0.280049	0.585325	-175.093317	-78.377801	38.375536
52472		9.464572	-0.172161	-1.734800	0.149538	0.144165	-0.191142	0.019882	-0.148511	0.070907	-0.840820	0.374756	0.257813	0.094659	-0.001686	-0.017278	-0.238874	0.722979	0.280035	0.584655	-174.927027	-78.285771	38.216370
52473		9.567690	-0.264653	-1.855589	0.032815	0.148452	-0.064313	0.060682	-0.155522	0.069107	-0.839355	0.367920	0.258545	0.095692	-0.002608	-0.018482	-0.239066	0.723471	0.280166	0.583904	-174.747845	-78.189982	38.069455
52474		9.592624	-0.201696	-1.843782	0.105496	0.118932	-0.043688	0.081955	-0.165614	0.070893	-0.841553	0.366943	0.259033	0.095942	-0.001975	-0.018359	-0.239333	0.723969	0.280366	0.583082	-174.554737	-78.088373	37.921411
52475		9.585383	-0.193300	-1.876393	0.104191	0.095129	-0.044481	0.058446	-0.154661	0.073600	-0.850342	0.367432	0.264893	0.095869	-0.001892	-0.018690	-0.239531	0.724467	0.280472	0.582330	-174.369921	-77.992633	37.767320
52476		9.523278	-0.268765	-1.873301	0.061487	0.149434	-0.104538	0.046851	-0.163326	0.075090	-0.849854	0.375977	0.266602	0.095249	-0.002648	-0.018656	-0.239682	0.725003	0.280554	0.581561	-174.193286	-77.891987	37.615287
52477		9.544146	-0.270404	-1.820363	0.118995	0.194818	-0.095413	0.050103	-0.173050	0.074357	-0.836670	0.375244	0.268066	0.095458	-0.002664	-0.018122	-0.239826	0.725564	0.280655	0.580752	-174.021597	-77.785525	37.469619
52478		9.558282	-0.237084	-1.630422	0.296954	0.306715	-0.122850	0.068485	-0.179265	0.072966	-0.835938	0.375732	0.262451	0.095598	-0.002330	-0.016219	-0.240023	0.726120	0.280817	0.579896	-173.845946	-77.675500	37.330272
52479		9.554407	-0.062850	-1.439554	0.570028	0.315069	-0.172214	0.078005	-0.195457	0.078919	-0.842285	0.369629	0.265381	0.095558	-0.000585	-0.014302	-0.240250	0.726718	0.281009	0.578960	-173.658453	-77.555804	37.184667
52480		9.482227	0.151709	-1.195319	0.898423	0.322405	-0.301995	0.077750	-0.221838	0.088891	-0.836426	0.372314	0.271484	0.094835	0.001564	-0.011847	-0.240526	0.727376	0.281266	0.577894	-173.455706	-77.420672	37.034645
52481		9.483968	0.332759	-0.968156	1.206999	0.353104	-0.356889	0.102357	-0.247944	0.106937	-0.832520	0.374756	0.267334	0.094850	0.003383	-0.009562	-0.240848	0.728133	0.281489	0.576697	-173.205870	-77.269016	36.839294
52482		9.388160	0.466999	-1.174156	1.164830	0.113609	-0.412450	0.087458	-0.295608	0.132330	-0.837891	0.379150	0.271729	0.093896	0.004737	-0.011601	-0.241173	0.729053	0.281697	0.575295	-172.920644	-77.088460	36.609068
52483		9.380715	0.123909	-1.859894	0.477333	-0.089751	-0.260914	0.030372	-0.356661	0.135419	-0.830078	0.378174	0.279785	0.093839	0.001305	-0.018431	-0.241160	0.730246	0.281738	0.573766	-172.687329	-76.872573	36.388058
52484		9.482068	-0.194934	-2.174244	0.091153	-0.044723	-0.083118	0.114070	-0.345358	0.159258	-0.826416	0.377197	0.279053	0.094860	-0.001861	-0.021580	-0.241536	0.731336	0.281915	0.572129	-172.352087	-76.661186	36.111365
52485		9.468632	-0.110829	-2.415946	0.015331	-0.260694	-0.043566	0.160281	-0.354747	0.176270	-0.818359	0.388672	0.291260	0.094730	-0.001006	-0.023992	-0.242115	0.732418	0.282175	0.570370	-171.964044	-76.442644	35.807407
52486		9.624620	-0.037563	-2.573101	0.024755	-0.389041	0.142386	0.086866	-0.341371	0.180531	-0.819092	0.390137	0.289795	0.096290	-0.000278	-0.025567	-0.242446	0.733561	0.282175	0.568757	-171.612402	-76.230522	35.495130
52487		9.628390	-0.337118	-2.634892	-0.186965	-0.203961	0.171577	-0.018679	-0.320185	0.192245	-0.815430	0.396729	0.293701	0.096329	-0.003281	-0.026194	-0.242461	0.734778	0.281823	0.567353	-171.298536	-76.029352	35.161415
52488		9.418739	-0.763257	-2.935858	-0.694844	-0.117135	0.057359	-0.116349	-0.346347	0.215252	-0.817383	0.392822	0.301025	0.094246	-0.007548	-0.029191	-0.242136	0.736228	0.281117	0.565961	-171.003494	-75.810356	34.786569
52489		9.107780	-1.404584	-3.110716	-1.280886	0.198872	-0.173149	-0.127478	-0.374554	0.256090	-0.804443	0.395996	0.299805	0.091154	-0.013949	-0.030928	-0.241854	0.737814	0.280284	0.564428	-170.648878	-75.571733	34.345823
52490		8.918282	-1.616757	-3.043158	-1.374002	0.382824	-0.358808	-0.008247	-0.409635	0.285537	-0.801758	0.398682	0.315430	0.089268	-0.016041	-0.030248	-0.242030	0.739405	0.279693	0.562560	-170.185989	-75.308990	33.859923
52491		9.130786	-1.189015	-2.739353	-0.775865	0.315463	-0.242558	0.092418	-0.440883	0.278683	-0.802734	0.405762	0.311523	0.091384	-0.011750	-0.027198	-0.242527	0.740934	0.279474	0.560440	-169.711826	-75.029048	33.424800
52492		9.505685	-0.527645	-2.392407	0.050297	0.131021	0.002615	0.081576	-0.437331	0.274483	-0.800537	0.408936	0.308105	0.095116	-0.005136	-0.023718	-0.242963	0.742467	0.279208	0.558350	-169.265347	-74.749970	33.008078
52493		9.681710	-0.056033	-2.141074	0.637402	-0.007875	0.082579	0.033912	-0.424654	0.285037	-0.797607	0.419189	0.312500	0.096863	-0.000419	-0.021205	-0.243280	0.744020	0.278777	0.556356	-168.837188	-74.476755	32.584760
52494		9.708351	0.258233	-2.069986	0.959287	-0.175222	0.069237	-0.005835	-0.445344	0.301237	-0.791992	0.413574	0.323242	0.097125	0.002728	-0.020484	-0.243466	0.745697	0.278196	0.554316	-168.421211	-74.189301	32.149855
52495		9.681207	0.570471	-2.021313	1.253283	-0.363624	0.007380	-0.066784	-0.465155	0.323604	-0.785400	0.416260	0.321289	0.096849	0.005855	-0.019990	-0.243455	0.747528	0.277387	0.552256	-168.021008	-73.887259	31.694412
52496		9.515875	0.792829	-2.021219	1.420805	-0.540026	-0.171360	-0.117948	-0.492208	0.360554	-0.779785	0.425781	0.334473	0.095194	0.008088	-0.019983	-0.243316	0.749541	0.276328	0.550117	-167.606220	-73.564795	31.192414
52497		9.375933	0.890819	-2.147579	1.425091	-0.707589	-0.284734	-0.158135	-0.548971	0.423450	-0.782227	0.424072	0.335205	0.093799	0.009090	-0.021226	-0.243118	0.751837	0.274990	0.547737	-167.139712	-73.201563	30.611633
52498		9.390015	0.730779	-2.325109	1.262186	-0.698246	-0.219383	-0.204037	-0.598499	0.482037	-0.771484	0.426270	0.342773	0.093951	0.007511	-0.022978	-0.242836	0.754393	0.273362	0.545155	-166.636618	-72.801808	29.963899
52499		9.823249	0.278142	-2.453869	1.053044	-0.380155	0.254143	-0.203851	-0.650817	0.570190	-0.766113	0.430664	0.346436	0.098303	0.003037	-0.024222	-0.242720	0.757200	0.271461	0.542259	-166.028159	-72.359047	29.204398
52500		10.131305	-0.172673	-2.647700	0.786545	-0.128669	0.629892	-0.076255	-0.665750	0.681087	-0.766357	0.436279	0.358887	0.101406	-0.001392	-0.026139	-0.243361	0.760026	0.269498	0.538987	-165.199129	-71.889535	28.288018
52501		11.080660	-0.644031	-2.782316	0.744819	0.260969	1.602787	0.132797	-0.664474	0.794658	-0.756104	0.442383	0.355957	0.110923	-0.005981	-0.027459	-0.245099	0.762728	0.267659	0.535286	-164.109003	-71.398711	27.220245
52502		12.117800	-0.945770	-2.987457	0.832149	0.467959	2.667170	0.495392	-0.666078	1.020531	-0.742432	0.461182	0.359375	0.121323	-0.008766	-0.029493	-0.248813	0.765265	0.265921	0.530799	-162.512530	-70.862240	25.833694
52503		10.185345	0.319724	-1.818278	2.041907	-0.005320	0.335163	0.453198	-0.578619	0.997229	-0.734131	0.467285	0.371094	0.101888	0.003746	-0.017880	-0.252410	0.767561	0.264041	0.526709	-161.011226	-70.365461	24.518064
52504		9.876566	0.333281	-2.400065	1.673897	-0.466016	0.207190	-0.101128	-0.744108	0.761454	-0.731689	0.472168	0.374268	0.098840	0.003697	-0.023635	-0.253032	0.770654	0.261805	0.522997	-160.327665	-69.815908	23.730055
52505		11.012130	-1.010421	-4.021130	0.154714	-0.393290	1.946463	-0.029564	-0.790604	0.680938	-0.723389	0.473389	0.381592	0.110313	-0.009735	-0.039774	-0.253651	0.773652	0.260119	0.519097	-159.781520	-69.254009	23.129668
52506		10.999924	-1.469440	-3.677598	0.193602	0.169923	1.875548	0.288829	-0.673830	0.674394	-0.726074	0.477295	0.380859	0.110171	-0.014270	-0.036426	-0.255630	0.775913	0.259130	0.515232	-159.032782	-68.753940	22.505576
52507		10.504678	-2.127807	-3.003023	0.150779	1.024081	1.269801	0.195546	-0.670817	0.674572	-0.719482	0.482422	0.386719	0.105218	-0.020894	-0.029698	-0.257245	0.778269	0.257889	0.511484	-158.366371	-68.252504	21.910392
52508		10.000484	-3.344863	-3.912400	-1.327613	1.244424	1.286527	0.006812	-0.709612	0.641157	-0.708984	0.490479	0.397705	0.100249	-0.033126	-0.038770	-0.257984	0.780904	0.256339	0.507862	-157.898822	-67.735665	21.410954
52509		9.907995	-3.410566	-4.348238	-1.589806	0.990347	1.376523	0.300869	-0.637377	0.555657	-0.707275	0.495605	0.392578	0.099312	-0.033765	-0.043217	-0.259741	0.782850	0.255772	0.504243	-157.356452	-67.273891	21.011136
52510		10.067507	-2.376392	-3.776332	-0.382715	0.623357	1.174898	0.455570	-0.538536	0.444247	-0.697510	0.506104	0.394043	0.100829	-0.023454	-0.037546	-0.261945	0.784189	0.255897	0.500949	-156.829918	-66.887920	20.723505
52511		10.317365	-1.708397	-3.664937	0.296293	0.233686	1.262315	0.378581	-0.397015	0.322623	-0.695801	0.502441	0.396484	0.103273	-0.016848	-0.036476	-0.263719	0.785108	0.256117	0.498460	-156.433285	-66.602939	20.528527
52512		11.183119	-1.343742	-2.793075	1.472818	0.657946	1.679347	0.551757	-0.145913	0.194660	-0.686035	0.510254	0.394043	0.111865	-0.013252	-0.027886	-0.266174	0.785000	0.256937	0.496899	-155.964642	-66.478807	20.362916
52513		11.294120	-1.241372	-1.682687	2.315809	1.322372	1.359505	0.529872	0.106069	0.128149	-0.696777	0.513428	0.389404	0.112940	-0.012297	-0.016919	-0.268698	0.784205	0.257628	0.496439	-155.454964	-66.501189	20.138812
52514		9.792180	-2.317765	-1.799037	0.951416	1.790425	0.206518	0.163757	0.232586	0.015842	-0.689941	0.511475	0.385986	0.097903	-0.023155	-0.018123	-0.269670	0.783438	0.257677	0.497097	-155.218840	-66.615972	19.984357
52515		8.264852	-3.173222	-2.291695	-0.529583	1.847668	-0.872075	0.056349	0.337606	-0.100483	-0.697998	0.508545	0.388184	0.082594	-0.031767	-0.023065	-0.270067	0.782404	0.257774	0.498459	-155.124584	-66.812918	19.917526
52516		7.706770	-2.182551	-2.032422	0.063837	1.219932	-1.639797	0.142064	0.400808	-0.245259	-0.701660	0.503662	0.383301	0.077000	-0.021905	-0.020494	-0.270519	0.780905	0.258563	0.500152	-155.120721	-67.077867	20.002429
52517		7.978650	-0.291109	-1.897134	1.482948	-0.020699	-1.741569	-0.041073	0.448687	-0.400374	-0.692139	0.508057	0.381348	0.079738	-0.003075	-0.019150	-0.269927	0.779329	0.259435	0.502473	-155.389852	-67.404575	20.269393
52518		8.219872	0.841362	-2.352962	1.984666	-1.112279	-1.528114	-0.368389	0.511016	-0.516320	-0.705322	0.508545	0.380127	0.082159	0.008158	-0.023755	-0.267847	0.777876	0.259847	0.505614	-155.967442	-67.790721	20.666461
52519		8.310312	1.393216	-2.741661	2.062197	-1.757839	-1.376116	-0.554786	0.634309	-0.573471	-0.703857	0.501709	0.383057	0.083055	0.013617	-0.027718	-0.265051	0.776273	0.259841	0.509541	-156.674861	-68.252683	21.087163
52520		8.244334	1.674555	-2.687396	2.174320	-1.933184	-1.474246	-0.708331	0.741455	-0.564562	-0.708740	0.488770	0.376953	0.082389	0.016417	-0.027238	-0.261813	0.774586	0.259259	0.514058	-157.421852	-68.767494	21.454425
52521		8.130401	1.068493	-2.960951	1.449634	-1.691792	-1.383700	-0.981466	0.788515	-0.516950	-0.715820	0.473389	0.379639	0.081213	0.010328	-0.029981	-0.257690	0.773168	0.257718	0.519026	-158.261075	-69.294728	21.751563
52522		8.078127	-0.407027	-3.746271	-0.181276	-1.131002	-0.972815	-1.078924	0.838907	-0.505872	-0.724854	0.474609	0.377930	0.080612	-0.004478	-0.037778	-0.253272	0.771720	0.255805	0.524277	-159.141198	-69.845275	22.031719
52523		8.120355	-1.353153	-4.121111	-1.157727	-0.658083	-0.703339	-0.914896	0.956373	-0.555097	-0.723145	0.463379	0.374512	0.080967	-0.013946	-0.041535	-0.249494	0.769654	0.254349	0.529804	-159.966647	-70.466848	22.352597
52524		8.066958	-2.048927	-4.185053	-1.791084	-0.176281	-0.672212	-0.762572	1.059009	-0.625514	-0.731201	0.451904	0.374512	0.080382	-0.020901	-0.042197	-0.246234	0.766996	0.253427	0.535595	-160.794119	-71.156072	22.766740
52525		7.931904	-2.617887	-4.093435	-2.259878	0.299216	-0.794555	-0.576851	1.144675	-0.696330	-0.739258	0.450439	0.360840	0.078991	-0.026573	-0.041311	-0.243591	0.763751	0.253154	0.541536	-161.629174	-71.902443	23.299283
52526		7.801441	-2.841644	-4.029848	-2.522998	0.492815	-0.948871	-0.388200	1.186166	-0.789049	-0.741211	0.442627	0.359863	0.077661	-0.028802	-0.040704	-0.241458	0.760004	0.253683	0.547482	-162.550596	-72.685399	24.033636
52527		7.892436	-2.946200	-4.105913	-2.752033	0.530467	-0.869960	-0.239898	1.212419	-0.916675	-0.755127	0.436523	0.348145	0.078537	-0.029872	-0.041500	-0.239558	0.755803	0.255056	0.553461	-163.684270	-73.499577	25.075443
52528		7.908050	-2.874549	-4.189348	-2.901525	0.418671	-0.882130	-0.060953	1.241369	-1.039442	-0.774414	0.420654	0.343262	0.078668	-0.029168	-0.042374	-0.238018	0.751103	0.257338	0.559436	-165.050422	-74.342140	26.461421
52529		7.698577	-2.443177	-3.731626	-2.486228	0.354416	-1.277267	0.122039	1.266787	-1.145005	-0.773682	0.420410	0.337891	0.076606	-0.024848	-0.037817	-0.236885	0.745928	0.260480	0.565356	-166.673102	-75.203106	28.216158
52530		7.637608	-2.060286	-3.507373	-2.229392	0.196239	-1.453917	0.131211	1.223450	-1.186782	-0.783936	0.399902	0.330322	0.076036	-0.021032	-0.035553	-0.235595	0.740754	0.263835	0.571112	-168.609503	-76.030421	30.293336
52531		7.723662	-2.459568	-3.665367	-2.726136	0.397724	-1.354101	0.136104	1.135136	-1.132705	-0.791016	0.406738	0.315430	0.076886	-0.025007	-0.037108	-0.234344	0.735849	0.267091	0.576431	-170.695718	-76.783605	32.520437
52532		7.855592	-2.831542	-4.393418	-3.604036	0.203475	-1.095004	0.343647	1.072373	-1.041294	-0.801025	0.391113	0.306396	0.078170	-0.028647	-0.044403	-0.234023	0.730957	0.270665	0.581099	-172.700484	-77.474599	34.779342
52533		8.266910	-2.674764	-4.630567	-3.720428	-0.044760	-0.697138	0.630338	0.982157	-1.014902	-0.800293	0.393799	0.290039	0.082303	-0.027019	-0.046795	-0.234689	0.725985	0.275066	0.584984	-174.731374	-78.094290	37.227353
52534		8.663005	-2.282398	-4.102312	-3.127599	0.032554	-0.469149	0.665755	0.939682	-0.933209	-0.819336	0.380127	0.281006	0.086328	-0.023090	-0.041506	-0.235652	0.721166	0.279306	0.588536	-176.754324	-78.667577	39.682546
52535		8.740690	-1.379263	-3.541781	-2.209719	-0.269758	-0.545023	0.506481	0.873364	-0.877710	-0.812744	0.378662	0.280762	0.087190	-0.014085	-0.035834	-0.236099	0.716772	0.282944	0.591978	-178.941774	-79.183079	42.207760
52536		8.765760	-0.662488	-3.248110	-1.606192	-0.601023	-0.599340	0.178622	0.760305	-0.801450	-0.825439	0.365967	0.264648	0.087506	-0.006947	-0.032820	-0.235429	0.713181	0.285458	0.595365	178.697783	-79.614240	44.713802
52537		8.704912	-1.083458	-3.316581	-2.043138	-0.349618	-0.666552	-0.122917	0.670631	-0.639283	-0.826416	0.369629	0.263184	0.086902	-0.011133	-0.033451	-0.234031	0.710424	0.286597	0.598656	176.499565	-79.979221	46.876356
52538		8.786400	-1.664572	-3.503099	-2.641334	-0.043173	-0.578812	-0.134253	0.531980	-0.440983	-0.827881	0.363770	0.264893	0.087733	-0.016863	-0.035253	-0.232984	0.708368	0.287153	0.601229	174.841026	-80.260418	48.482290
52539		8.918535	-1.890831	-3.258397	-2.660111	0.299225	-0.508562	-0.065308	0.395951	-0.255581	-0.830811	0.363281	0.258057	0.089096	-0.019033	-0.032754	-0.232541	0.706900	0.287417	0.602999	173.809132	-80.468004	49.491585
52540		9.000031	-1.770184	-2.978566	-2.402104	0.404411	-0.481436	-0.118698	0.274419	-0.112506	-0.828857	0.349609	0.263428	0.089949	-0.017770	-0.029899	-0.232166	0.706064	0.287153	0.604248	173.248450	-80.613215	49.991550
52541		8.837567	-1.660249	-2.861878	-2.279082	0.377582	-0.663231	-0.204248	0.174737	0.008994	-0.830811	0.354980	0.253174	0.088351	-0.016628	-0.028679	-0.231711	0.705801	0.286318	0.605126	173.086367	-80.709525	50.037803
52542		8.555782	-1.534533	-2.843346	-2.215051	0.259478	-0.943244	-0.294234	0.088809	0.129446	-0.834473	0.358887	0.255615	0.085555	-0.015332	-0.028449	-0.231181	0.706074	0.284883	0.605687	173.331000	-80.765030	49.619616
52543		8.456267	-1.261682	-2.450069	-1.748168	0.307195	-1.097605	-0.398450	0.006516	0.275279	-0.830566	0.350098	0.262451	0.084579	-0.012549	-0.024478	-0.230605	0.706920	0.282713	0.605936	174.061302	-80.782358	48.649045
52544		9.364653	0.073651	-1.397674	0.035367	0.120468	-0.344860	-0.180409	0.096161	0.428926	-0.826660	0.363770	0.265869	0.093638	0.000925	-0.014023	-0.231392	0.707458	0.280553	0.606012	175.439138	-80.855899	47.149103
52545		9.094881	3.247711	-2.142639	1.617925	-2.769826	-0.455032	-0.397775	0.104236	0.176237	-0.828613	0.365967	0.262451	0.090909	0.032514	-0.021538	-0.230653	0.707863	0.278621	0.606712	175.805686	-80.919481	46.547638
52546		9.841278	3.911214	-1.575569	2.529359	-2.823049	0.200464	-0.795999	0.280075	0.013137	-0.831787	0.356445	0.260986	0.098388	0.039055	-0.016049	-0.228254	0.707961	0.275849	0.608769	175.316064	-81.076229	46.582097
52547		9.375418	0.966284	-1.436811	0.577326	-0.623997	-0.316698	-0.961034	0.276125	0.232814	-0.825439	0.348633	0.261719	0.093723	0.009702	-0.014544	-0.225927	0.708544	0.271798	0.610776	175.534216	-81.240897	45.804658
52548		10.403815	0.445454	-1.488442	0.301261	-0.193454	0.700393	0.484159	0.215319	0.381213	-0.823486	0.366943	0.254395	0.104013	0.004689	-0.014985	-0.229088	0.707871	0.271697	0.610424	177.182703	-81.374075	44.418157
52549		14.125660	4.928537	2.191539	6.434121	-0.756338	3.849573	0.951249	-0.022877	0.316948	-0.837646	0.367676	0.256836	0.141176	0.049404	0.022166	-0.233377	0.707288	0.273519	0.608659	178.920179	-81.363514	43.212639
52550		14.376115	1.248122	0.141387	2.535840	0.635207	4.379434	-0.522239	-0.165684	0.308801	-0.820313	0.371826	0.250000	0.143740	0.012707	0.001500	-0.232232	0.708837	0.271045	0.608402	179.781013	-81.266869	42.039658
52551		10.480606	-1.661019	-1.917432	-1.321908	1.036620	0.838909	0.150346	-0.206981	0.224642	-0.825928	0.374268	0.258789	0.104844	-0.016478	-0.019078	-0.233156	0.709611	0.270964	0.607182	-179.310969	-81.144155	41.208595
52552		8.065979	-0.439195	-1.199489	-0.229072	0.350087	-1.656916	0.520031	-0.191024	0.183220	-0.825439	0.372803	0.255859	0.080675	-0.004287	-0.011929	-0.235287	0.709846	0.272130	0.605561	-178.363748	-81.028934	40.551918
52553		7.421643	-0.351477	-2.196814	-0.947011	-0.445771	-2.135795	0.326068	-0.324787	0.225935	-0.817871	0.380615	0.254639	0.074256	-0.003395	-0.021853	-0.236675	0.710766	0.272714	0.603675	-177.416747	-80.834648	39.782710
52554		8.119566	-0.252240	-3.024877	-1.353534	-1.004676	-1.309796	0.579518	-0.416948	0.335161	-0.816895	0.378906	0.266357	0.081262	-0.002299	-0.030086	-0.239165	0.711806	0.273780	0.600980	-176.002997	-80.581481	38.687146
52555		9.462136	0.745535	-2.748224	-0.243461	-1.430284	-0.038478	0.862441	-0.322335	0.391871	-0.818359	0.399170	0.258301	0.094650	0.007759	-0.027297	-0.242957	0.712286	0.275376	0.598154	-174.276398	-80.374938	37.438068
52556		10.461031	1.724413	-1.777739	1.316070	-1.407077	0.763462	0.544405	-0.157870	0.396541	-0.813721	0.399658	0.249023	0.104590	0.017500	-0.017647	-0.245852	0.712655	0.275798	0.596335	-172.709035	-80.255711	36.165012
52557		10.197773	0.699770	-1.719202	0.662133	-0.671354	0.509649	-0.156985	-0.073121	0.438525	-0.811279	0.394287	0.263428	0.101968	0.007208	-0.017160	-0.246488	0.713683	0.273875	0.595729	-171.398381	-80.176073	34.744333
52558		9.549601	-1.034081	-2.433167	-1.091385	0.019884	0.035806	-0.234873	-0.068954	0.501231	-0.806641	0.397461	0.258789	0.095530	-0.010130	-0.024287	-0.247037	0.714877	0.271487	0.595162	-169.949035	-80.087015	33.137177
52559		9.388155	-1.340129	-2.354550	-1.229831	0.254123	-0.122484	0.122907	-0.066225	0.487481	-0.808350	0.405762	0.256348	0.093922	-0.013158	-0.023523	-0.248826	0.715597	0.270210	0.594133	-168.366703	-79.993883	31.602728
52560		9.421587	-1.035899	-2.170622	-0.850637	0.132113	-0.127141	0.122766	-0.072935	0.387375	-0.799316	0.405273	0.256104	0.094244	-0.010163	-0.021678	-0.250306	0.716199	0.269295	0.593200	-167.131852	-79.902480	30.420606
52561		9.484826	-1.217216	-2.464648	-1.149005	0.050895	-0.004774	0.033692	-0.033214	0.258861	-0.808594	0.413574	0.249756	0.094868	-0.012045	-0.024633	-0.251139	0.716618	0.268527	0.592690	-166.338931	-79.846687	29.635342
52562		9.334173	-1.150039	-2.966950	-1.467115	-0.366615	-0.067673	0.086348	-0.023491	0.195069	-0.807617	0.410645	0.258301	0.093356	-0.011397	-0.029663	-0.251984	0.716857	0.268130	0.592222	-165.712726	-79.803200	29.049931
52563		9.126101	-1.071452	-3.280287	-1.654375	-0.667851	-0.220451	0.097450	-0.015424	0.176461	-0.806885	0.424561	0.258789	0.091273	-0.010618	-0.032801	-0.252825	0.717030	0.267824	0.591792	-165.136835	-79.766010	28.522090
52564		9.218880	-0.786501	-3.446319	-1.547899	-0.995392	-0.112347	0.138630	-0.012852	0.208910	-0.802002	0.417969	0.256592	0.092199	-0.007745	-0.034463	-0.253912	0.717189	0.267518	0.591273	-164.439403	-79.724057	27.894587
52565		9.567189	-0.060672	-3.266945	-0.850761	-1.390538	0.164801	0.142976	-0.000891	0.233576	-0.799805	0.423828	0.255615	0.095673	-0.000472	-0.032669	-0.255103	0.717336	0.267122	0.590760	-163.660846	-79.683645	27.187141
52566		10.321785	0.522014	-2.746198	0.056467	-1.417080	0.786463	0.017224	0.020943	0.247839	-0.807861	0.426025	0.249756	0.103208	0.005350	-0.027472	-0.255915	0.717599	0.266274	0.590472	-162.896363	-79.650846	26.420623
52567		10.680918	0.276431	-2.672200	0.013898	-1.178445	1.137660	-0.199487	0.022805	0.265431	-0.797363	0.422607	0.255127	0.106802	0.002879	-0.026737	-0.256002	0.718154	0.264721	0.590458	-162.207482	-79.614621	25.604707
52568		10.413001	-0.897692	-2.670490	-0.818589	-0.359378	0.937601	-0.316971	0.076511	0.247744	-0.801758	0.419678	0.256836	0.104131	-0.008890	-0.026731	-0.255686	0.718677	0.262815	0.590810	-161.589645	-79.608786	24.792482
52569		9.774926	-2.055612	-2.670728	-1.703468	0.423811	0.376820	-0.241932	0.119413	0.212843	-0.798584	0.429688	0.253174	0.097755	-0.020484	-0.026741	-0.255591	0.718927	0.261200	0.591263	-160.989498	-79.631429	24.042019
52570		9.312281	-2.767315	-2.479363	-2.119753	1.026377	-0.067072	-0.128212	0.121621	0.182435	-0.801270	0.423340	0.259521	0.093133	-0.027604	-0.024833	-0.255818	0.718986	0.260027	0.591610	-160.408162	-79.659259	23.376921
52571		9.115504	-2.949729	-2.226561	-2.092080	1.300297	-0.289910	0.037874	0.138857	0.139478	-0.797607	0.432373	0.253174	0.091160	-0.029429	-0.022334	-0.256537	0.718722	0.259478	0.591860	-159.837149	-79.703913	22.819170
52572		9.336321	-2.565875	-1.692096	-1.416195	1.376309	-0.183880	0.157700	0.161314	0.068035	-0.802246	0.435547	0.246826	0.093358	-0.025614	-0.017016	-0.257504	0.718148	0.259510	0.592123	-159.378416	-79.773576	22.445321
52573		9.766514	-2.182201	-1.464355	-0.932334	1.262200	0.178745	0.120230	0.166332	-0.001204	-0.804932	0.427246	0.257324	0.097653	-0.021814	-0.014738	-0.258137	0.717513	0.259674	0.592545	-159.137700	-79.859986	22.271334
52574		9.966406	-2.102993	-1.841182	-1.131807	0.950825	0.432149	0.047931	0.192903	-0.074343	-0.808105	0.429688	0.248779	0.099638	-0.021063	-0.018513	-0.258329	0.716800	0.259850	0.593246	-159.124099	-79.975049	22.285912
52575		9.877424	-1.834742	-2.168188	-1.220285	0.518025	0.379138	0.051106	0.232485	-0.112683	-0.800537	0.435303	0.237061	0.098739	-0.018397	-0.021801	-0.258470	0.715913	0.260123	0.594137	-159.181330	-80.119555	22.374338
52576		9.579762	-1.301867	-2.075489	-0.865894	0.161988	0.036082	0.098707	0.286641	-0.140630	-0.813232	0.425049	0.239990	0.095759	-0.013076	-0.020899	-0.258768	0.714767	0.260565	0.595192	-159.235063	-80.298285	22.486742
52577		9.630788	-0.760567	-1.921357	-0.409972	-0.136130	0.027813	0.082801	0.312315	-0.160789	-0.812256	0.432373	0.237061	0.096272	-0.007675	-0.019367	-0.258981	0.713535	0.261000	0.596386	-159.336105	-80.495286	22.637926
52578		9.884340	-0.815669	-1.956669	-0.465475	-0.114285	0.285046	-0.023367	0.297319	-0.128666	-0.810791	0.424805	0.238525	0.098809	-0.008223	-0.019713	-0.258892	0.712527	0.261020	0.597619	-159.415734	-80.677255	22.705552
52579		9.931084	-1.106985	-2.083443	-0.777441	0.002369	0.365135	0.002818	0.311302	-0.084715	-0.813965	0.434570	0.228271	0.099274	-0.011112	-0.020989	-0.259045	0.711497	0.260945	0.598812	-159.320747	-80.858318	22.611545
52580		9.847783	-0.978992	-1.857349	-0.569435	0.041652	0.240218	0.047800	0.337423	-0.081997	-0.812744	0.417236	0.232910	0.098442	-0.009826	-0.018742	-0.259399	0.710335	0.260958	0.600031	-159.151313	-81.052305	22.468186
52581		9.793187	-0.723064	-1.411713	-0.113374	0.138451	0.106493	-0.006069	0.346584	-0.086771	-0.822510	0.422607	0.230957	0.097904	-0.007274	-0.014287	-0.259558	0.709203	0.260816	0.601361	-159.012202	-81.252594	22.324470
52582		9.760793	-0.789766	-1.175945	-0.025070	0.330689	0.044775	-0.076743	0.339895	-0.103010	-0.814453	0.429443	0.230225	0.097584	-0.007952	-0.011922	-0.259410	0.708164	0.260525	0.602775	-158.972638	-81.452115	22.240446
52583		9.788180	-1.168093	-1.111323	-0.262948	0.639400	0.083266	-0.112762	0.316474	-0.099284	-0.823486	0.427734	0.227051	0.097858	-0.011736	-0.011261	-0.259112	0.707241	0.260144	0.604149	-158.972045	-81.638830	22.175118
52584		9.725464	-1.123087	-0.871853	-0.097886	0.754126	-0.013313	-0.025074	0.317151	-0.116013	-0.825195	0.422363	0.220703	0.097234	-0.011288	-0.008871	-0.259076	0.706181	0.260083	0.605429	-158.978533	-81.828859	22.167620
52585		9.818682	-0.702365	-0.433459	0.484969	0.740931	0.000745	-0.058084	0.303952	-0.179062	-0.830078	0.423340	0.218262	0.098174	-0.007113	-0.004482	-0.258713	0.705118	0.260164	0.606788	-159.266087	-82.025185	22.425029
52586		10.045178	-1.033229	-0.595812	0.138487	0.879539	0.263785	-0.162242	0.280466	-0.193797	-0.829346	0.424561	0.214600	0.100433	-0.010435	-0.006091	-0.257907	0.704242	0.260007	0.608214	-159.717792	-82.211158	22.787655
52587		9.802732	-1.012112	-0.742656	-0.016493	0.749103	0.041649	-0.126467	0.276330	-0.198532	-0.823730	0.420898	0.217773	0.098007	-0.010223	-0.007556	-0.257206	0.703320	0.259983	0.609585	-160.195972	-82.395893	23.197650
52588		9.461296	-0.707654	-0.846374	0.042006	0.436472	-0.297389	-0.151230	0.258452	-0.202123	-0.832275	0.420654	0.214355	0.094595	-0.007179	-0.008581	-0.256384	0.702481	0.259915	0.610926	-160.748981	-82.570705	23.668500
52589		9.327688	-0.547578	-0.808844	0.132429	0.336965	-0.440991	-0.119291	0.238086	-0.187892	-0.822754	0.419189	0.207520	0.093262	-0.005568	-0.008196	-0.255690	0.701677	0.259924	0.612137	-161.279434	-82.731692	24.135019
52590		9.433775	-0.199730	-0.618825	0.490471	0.214579	-0.371698	-0.087366	0.236146	-0.180581	-0.828125	0.416748	0.217285	0.094329	-0.002085	-0.006299	-0.255127	0.700849	0.260003	0.613286	-161.782090	-82.889312	24.591649
52591		9.621555	-0.133486	-0.503467	0.613369	0.251692	-0.199884	-0.129727	0.223132	-0.158190	-0.835449	0.416016	0.208252	0.096209	-0.001414	-0.005141	-0.254467	0.700139	0.259893	0.614416	-162.252274	-83.035826	24.991097
52592		9.626124	-0.447061	-0.493912	0.384586	0.486925	-0.183511	-0.130031	0.194688	-0.134062	-0.831299	0.415771	0.204102	0.096253	-0.004538	-0.005030	-0.253843	0.699550	0.259730	0.615414	-162.668769	-83.161833	25.336029
52593		9.445600	-0.512083	-0.395069	0.373386	0.590898	-0.370809	-0.063984	0.153269	-0.113582	-0.833008	0.422607	0.202393	0.094450	-0.005176	-0.004021	-0.253458	0.699027	0.259753	0.616156	-163.027803	-83.261835	25.661265
52594		9.374714	-0.332081	-0.142423	0.655341	0.624745	-0.474807	0.001765	0.126858	-0.113432	-0.829590	0.413574	0.200928	0.093744	-0.003374	-0.001484	-0.253269	0.698505	0.260010	0.616718	-163.392569	-83.346685	26.029996
52595		9.403244	0.169749	0.236518	1.259423	0.513443	-0.503768	0.090102	0.098255	-0.109639	-0.831787	0.410156	0.207275	0.094035	0.001645	0.002320	-0.253363	0.697961	0.260564	0.617061	-163.740598	-83.415326	26.432918
52596		9.431786	0.371092	0.323171	1.450835	0.427796	-0.489984	0.079157	0.055881	-0.080345	-0.840088	0.414063	0.203613	0.094320	0.003672	0.003207	-0.253454	0.697601	0.261033	0.617232	-164.016840	-83.455370	26.757077
52597		9.258025	0.087131	0.204287	1.148545	0.549644	-0.639951	0.127734	0.017680	-0.029231	-0.838623	0.413330	0.202881	0.092581	0.000856	0.002035	-0.253822	0.697362	0.261524	0.617143	-164.077504	-83.466567	26.892390
52598		9.095595	-0.005062	-0.070375	0.870725	0.424584	-0.768552	0.275090	-0.043914	0.025876	-0.835693	0.422607	0.205078	0.090956	-0.000038	-0.000684	-0.254793	0.697199	0.262354	0.616574	-163.870849	-83.434833	26.843472
52599		9.032247	-0.060814	0.119070	0.971011	0.592024	-0.851326	0.402018	-0.081403	0.068154	-0.830322	0.420898	0.199951	0.090322	-0.000580	0.001226	-0.256286	0.697042	0.263477	0.615654	-163.447571	-83.375958	26.649835
52600		9.329641	0.207468	0.132045	1.208309	0.423188	-0.568037	0.438887	-0.163282	0.112239	-0.833008	0.412598	0.200195	0.093294	0.002124	0.001401	-0.257936	0.697145	0.264660	0.614339	-162.916274	-83.264399	26.368534
52601		9.759622	0.529921	0.039564	1.430709	0.153988	-0.145118	0.379573	-0.229158	0.133487	-0.835449	0.421143	0.203857	0.097592	0.005363	0.000518	-0.259354	0.697550	0.265674	0.612844	-162.432420	-83.113187	26.100854
52602		9.852916	0.739233	-0.390775	1.306321	-0.281175	-0.015060	0.307724	-0.266746	0.174761	-0.834717	0.423096	0.200684	0.098528	0.007484	-0.003765	-0.260598	0.698216	0.266368	0.611254	-161.874544	-82.933693	25.716898
52603		9.662850	0.847862	-0.580404	1.260779	-0.493511	-0.190153	0.227811	-0.315922	0.213292	-0.823486	0.422852	0.204834	0.096628	0.008588	-0.005642	-0.261613	0.699182	0.266749	0.609548	-161.294149	-82.720292	25.264069
52604		9.668405	1.067903	-0.725006	1.353320	-0.743891	-0.181537	0.148078	-0.390190	0.263490	-0.822754	0.430176	0.205322	0.096684	0.010812	-0.007053	-0.262403	0.700543	0.266804	0.607618	-160.686218	-82.456487	24.737040
52605		9.880134	1.306250	-0.879077	1.483832	-1.001759	0.030614	0.071887	-0.434615	0.305271	-0.828613	0.427490	0.203369	0.098800	0.013216	-0.008571	-0.262990	0.702189	0.266541	0.605576	-160.060861	-82.160181	24.148158
52606		10.187419	1.020578	-0.826171	1.416779	-0.735187	0.334214	-0.044612	-0.445553	0.356941	-0.826172	0.432861	0.213135	0.101874	0.010386	-0.008037	-0.263310	0.704086	0.265753	0.603577	-159.365051	-81.846634	23.420192
52607		10.126952	0.218757	-0.868759	0.882982	-0.185605	0.313681	-0.157400	-0.463467	0.405674	-0.817139	0.436279	0.215820	0.101285	0.002386	-0.008455	-0.263352	0.706243	0.264477	0.601597	-158.637668	-81.512472	22.594521
52608		9.778865	-0.503279	-0.769116	0.469402	0.388112	-0.009640	-0.190889	-0.460639	0.429681	-0.826416	0.440186	0.227295	0.097817	-0.004830	-0.007461	-0.263350	0.708460	0.263007	0.599632	-157.900437	-81.173036	21.738664
52609		9.475040	-0.727198	-0.414021	0.587069	0.781058	-0.351103	-0.150714	-0.496717	0.438882	-0.819336	0.438965	0.231934	0.094776	-0.007067	-0.003899	-0.263466	0.710736	0.261671	0.597468	-157.220671	-80.811104	20.963573
52610		9.454260	-0.465925	-0.180304	0.993796	0.757188	-0.428056	-0.093611	-0.542759	0.419972	-0.815186	0.447266	0.239990	0.094557	-0.004461	-0.001544	-0.263667	0.713042	0.260629	0.595083	-156.683847	-80.427704	20.365613
52611		9.494375	0.001820	0.134955	1.611637	0.645606	-0.477443	-0.075507	-0.603801	0.427763	-0.810547	0.447510	0.244385	0.094939	0.000222	0.001636	-0.263871	0.715505	0.259692	0.592440	-156.238989	-80.009811	19.870887
52612		9.370384	0.301700	0.210412	1.922143	0.483392	-0.646957	-0.124407	-0.681112	0.466108	-0.794189	0.452881	0.244141	0.093689	0.003237	0.002421	-0.263911	0.718301	0.258568	0.589523	-155.847676	-79.541781	19.401339
52613		9.198936	0.414269	0.046319	1.932087	0.291613	-0.814045	-0.147472	-0.775080	0.526856	-0.802002	0.453125	0.263672	0.091975	0.004386	0.000816	-0.263918	0.721468	0.257280	0.586206	-155.459444	-79.009929	18.920807
52614		8.923822	0.384090	-0.002648	1.913916	0.275617	-1.092459	-0.071166	-0.843615	0.613928	-0.802490	0.465088	0.259521	0.089225	0.004115	0.000348	-0.264363	0.724830	0.255983	0.582415	-154.927382	-78.420717	18.337204
52615		8.941852	0.214816	-0.190667	1.764978	0.284654	-1.046723	-0.043823	-0.944823	0.681980	-0.792725	0.464600	0.266113	0.089418	0.002453	-0.001485	-0.264966	0.728514	0.254646	0.578114	-154.388301	-77.761449	17.761210
52616		9.408271	0.004837	-0.587169	1.544665	0.213079	-0.516032	-0.013885	-1.015068	0.724568	-0.791016	0.473145	0.281738	0.094110	0.000389	-0.005394	-0.265703	0.732389	0.253323	0.573442	-153.870149	-77.054222	17.222684
52617		9.389172	-0.242827	-0.545315	1.518898	0.436084	-0.538288	0.008354	-1.015968	0.759781	-0.776611	0.479492	0.288086	0.093926	-0.002071	-0.004976	-0.266610	0.736252	0.251928	0.568668	-153.321706	-76.336530	16.664644
52618		9.145298	-0.668283	-0.708895	1.180961	0.633947	-0.713907	-0.039351	-1.072654	0.791947	-0.771240	0.482666	0.296387	0.091515	-0.006322	-0.006597	-0.267351	0.740350	0.250342	0.563679	-152.847992	-75.580426	16.153659
52619		9.003071	-1.050008	-0.952587	0.843585	0.755463	-0.769376	-0.044990	-1.154258	0.814776	-0.762451	0.499023	0.302002	0.090125	-0.010135	-0.009004	-0.268020	0.744678	0.248755	0.558338	-152.464188	-74.775873	15.730593
52620		9.023504	-1.406889	-1.067431	0.659605	0.961730	-0.692334	-0.010067	-1.224932	0.818481	-0.753418	0.498779	0.311035	0.090355	-0.013700	-0.010120	-0.268728	0.749123	0.247331	0.552656	-152.159811	-73.933883	15.409089
52621		9.482210	-1.601288	-1.342430	0.601218	0.977978	-0.171175	-0.001552	-1.306578	0.832100	-0.747070	0.510498	0.330078	0.094973	-0.015618	-0.012804	-0.269388	0.753755	0.245976	0.546607	-151.932337	-73.046484	15.171521
52622		9.794586	-1.590810	-1.714811	0.591156	0.774224	0.209992	-0.055064	-1.365254	0.841477	-0.730713	0.503174	0.321045	0.098126	-0.015500	-0.016474	-0.269784	0.758584	0.244502	0.540357	-151.791749	-72.126754	14.991698
52623		9.854973	-1.057035	-1.781390	1.074858	0.376963	0.192888	-0.099003	-1.379195	0.840577	-0.735840	0.508545	0.339844	0.098713	-0.010164	-0.017128	-0.269975	0.763460	0.242918	0.534073	-151.704623	-71.200067	14.840770
52624		9.896156	-0.054213	-1.833161	1.870465	-0.356022	0.070112	-0.160902	-1.407460	0.832214	-0.725098	0.515137	0.356934	0.099088	-0.000144	-0.017634	-0.269857	0.768432	0.241220	0.527733	-151.695881	-70.261447	14.734446
52625		10.069348	0.455697	-2.155846	2.200928	-0.894115	0.217326	-0.316766	-1.473421	0.875916	-0.714844	0.524658	0.368652	0.100828	0.004965	-0.020824	-0.269155	0.773788	0.239016	0.521229	-151.769617	-69.277610	14.620225
52626		10.099137	0.545066	-2.701017	2.066194	-1.280053	0.369397	-0.422372	-1.516808	0.962301	-0.696045	0.536377	0.387695	0.101165	0.005881	-0.026255	-0.268197	0.779438	0.236241	0.514526	-151.823953	-68.248651	14.419502
52627		10.442448	0.779658	-3.165625	2.205698	-1.689412	0.768022	-0.384635	-1.596287	1.028006	-0.681885	0.542725	0.388428	0.104631	0.008274	-0.030837	-0.267436	0.785250	0.233393	0.507334	-151.837024	-67.161685	14.196077
52628		11.790625	1.287921	-2.922365	3.400206	-1.740842	1.789974	-0.334311	-1.621993	1.059367	-0.676758	0.546387	0.407471	0.118068	0.013457	-0.028289	-0.266897	0.791021	0.230561	0.499893	-151.811334	-66.053421	13.960047
52629		13.262547	2.131317	-2.349009	5.116509	-1.822842	2.695269	-0.460470	-1.600899	1.156343	-0.663330	0.554932	0.427734	0.132682	0.022028	-0.022478	-0.266099	0.796941	0.226980	0.492500	-151.751328	-64.929283	13.604792
52630		13.506843	1.243015	-2.677173	4.683838	-1.315075	3.128472	-0.834092	-1.646404	1.301974	-0.644775	0.547607	0.429199	0.135199	0.013201	-0.025713	-0.264088	0.803542	0.221933	0.485101	-151.794721	-63.742977	13.123422
52631		12.988574	0.287953	-3.761739	3.415019	-1.308123	3.208706	-0.668547	-1.713344	1.407116	-0.624512	0.556396	0.444580	0.130178	0.003671	-0.036514	-0.262889	0.810099	0.216925	0.477045	-151.698300	-62.493977	12.586535
52632		12.796081	1.569408	-2.977470	4.878518	-1.797301	2.354136	-0.461703	-1.726979	1.424188	-0.611816	0.566650	0.464355	0.128096	0.016539	-0.028707	-0.262518	0.816327	0.212330	0.468627	-151.504981	-61.233243	12.068067
52633		13.668599	3.308044	-2.145269	7.120004	-2.524994	2.241293	-0.580900	-1.843672	1.460977	-0.596924	0.578613	0.472900	0.136630	0.034019	-0.020291	-0.261586	0.822911	0.207429	0.459742	-151.432856	-59.902740	11.603785
52634		14.466710	4.477888	-1.411239	8.928780	-2.907240	2.151614	-0.788392	-1.949602	1.569758	-0.572754	0.574707	0.487549	0.144440	0.045861	-0.012883	-0.259899	0.829989	0.201711	0.450425	-151.459144	-58.489590	11.109256
52635		14.509272	4.787619	-1.030939	9.637062	-2.941679	1.718400	-0.970256	-2.093965	1.732818	-0.556152	0.579834	0.506592	0.144770	0.049086	-0.009029	-0.257630	0.837638	0.195054	0.440391	-151.543667	-56.958868	10.552416
52636		14.079210	4.068206	-1.170307	9.191783	-2.537280	1.376876	-1.152490	-2.234933	1.818408	-0.537354	0.582275	0.530273	0.140536	0.041898	-0.010371	-0.254589	0.845723	0.187778	0.429740	-151.747542	-55.335337	10.003581
52637		14.388776	2.777896	-1.163722	8.970159	-1.502855	1.736015	-1.174758	-2.327471	1.849647	-0.513428	0.587402	0.554199	0.143747	0.029046	-0.010132	-0.251373	0.853857	0.180390	0.418567	-151.995067	-53.657025	9.481540
52638		14.297097	1.400633	-1.369925	8.392671	-0.539287	1.913525	-1.143670	-2.351135	1.837581	-0.488525	0.585449	0.569336	0.142983	0.015248	-0.012103	-0.248176	0.861769	0.173107	0.407181	-152.257170	-51.972379	8.988825
52639		13.365161	-0.977522	-2.264205	6.421205	0.805858	2.137862	-1.082955	-2.337762	1.754153	-0.469971	0.582031	0.584473	0.133983	-0.008718	-0.021028	-0.245023	0.869296	0.166242	0.395794	-152.545078	-50.317070	8.562484
52640		12.027686	-4.100274	-4.123455	3.297238	2.260252	2.934356	-0.988588	-2.342052	1.592719	-0.437500	0.585693	0.601074	0.121070	-0.040239	-0.039620	-0.241897	0.876372	0.160238	0.384424	-152.885099	-48.704778	8.265622
52641		11.035649	-6.476569	-5.751643	0.934959	3.321948	3.784810	-0.598286	-2.166528	1.394807	-0.421143	0.587402	0.618896	0.111418	-0.064160	-0.056121	-0.240195	0.882310	0.155601	0.373664	-153.066199	-47.233184	8.048714
52642		9.963140	-7.386759	-7.511014	-0.876901	3.082982	4.328041	-0.135975	-1.961219	1.325953	-0.394287	0.581299	0.622803	0.100848	-0.073252	-0.074075	-0.240525	0.887111	0.151865	0.363482	-152.970059	-45.885699	7.809932
52643		8.171682	-8.165063	-8.293859	-2.590250	3.155673	3.809272	0.206496	-1.689016	1.248187	-0.387207	0.592529	0.632080	0.082921	-0.081050	-0.082326	-0.242409	0.890839	0.148745	0.354286	-152.657849	-44.695450	7.537943
52644		6.410083	-9.400644	-9.039897	-4.519669	3.603692	3.520020	0.343657	-1.435585	1.150352	-0.367188	0.597168	0.635986	0.065287	-0.093478	-0.090094	-0.244895	0.893786	0.145987	0.346210	-152.264834	-43.660048	7.257440
52645		4.995028	-10.419053	-9.431413	-5.952523	4.068579	3.243615	0.558470	-1.346777	1.064350	-0.350098	0.606934	0.628906	0.051138	-0.103657	-0.094262	-0.248236	0.896182	0.143858	0.338440	-151.781129	-42.689858	7.019028
52646		5.019963	-8.912014	-8.100222	-4.399658	3.435941	1.980156	1.273760	-1.087880	0.698402	-0.338623	0.619141	0.632568	0.050951	-0.088426	-0.081291	-0.254330	0.896911	0.144251	0.331751	-151.004939	-41.949610	6.951345
52647		6.089824	-5.765300	-6.691344	-1.426047	1.563277	0.704875	1.899488	-0.741822	0.137598	-0.326172	0.626465	0.621338	0.061187	-0.056973	-0.067230	-0.262525	0.895786	0.147739	0.326836	-150.043872	-41.538237	7.143363
52648		6.246520	-2.201100	-5.245124	1.026956	-0.623145	-1.450162	1.696563	-0.283750	-0.348636	-0.329346	0.634277	0.617432	0.062502	-0.021674	-0.052547	-0.269332	0.893734	0.152461	0.324738	-149.298831	-41.497226	7.486996
52649		5.424044	0.786204	-4.299717	2.232512	-2.604551	-3.749839	0.761962	0.260998	-0.609603	-0.337891	0.638916	0.605469	0.054208	0.007861	-0.043038	-0.271939	0.891816	0.156088	0.326114	-149.062827	-41.802093	7.789673
52650		4.413805	0.866825	-3.396891	1.942399	-2.238883	-5.018300	-0.338623	0.728580	-0.655712	-0.337158	0.629883	0.604004	0.044042	0.008466	-0.034144	-0.269922	0.890568	0.157489	0.330497	-149.357210	-42.351627	7.940508
52651		3.817024	-0.466180	-4.058423	0.499244	-1.596587	-4.477995	-0.812022	0.938620	-0.676135	-0.352783	0.617432	0.610107	0.037963	-0.004956	-0.040743	-0.265918	0.889566	0.157906	0.336194	-149.881852	-43.008968	8.028964
52652		3.379636	-0.920058	-4.763924	-0.464670	-1.664918	-4.158041	-0.437617	1.078427	-0.685128	-0.358398	0.616211	0.610107	0.033507	-0.009420	-0.047800	-0.263662	0.887777	0.158803	0.342222	-150.164214	-43.738932	8.076053
52653		3.009086	-0.550855	-4.660838	-0.586097	-1.940228	-4.619148	-0.101984	1.383974	-0.804784	-0.377441	0.611084	0.607178	0.029745	-0.005653	-0.046812	-0.262918	0.884884	0.160390	0.349470	-150.230615	-44.653641	8.088319
52654		2.862078	-0.373219	-4.037237	-0.364711	-1.745618	-5.181377	-0.217816	1.809775	-1.001291	-0.382568	0.614014	0.598877	0.028235	-0.003918	-0.040625	-0.261638	0.881162	0.162074	0.358931	-150.341852	-45.837148	8.070213
52655		2.926794	-0.843451	-3.926203	-0.594810	-1.293389	-5.051955	-0.673389	2.186207	-1.226325	-0.404541	0.593018	0.597412	0.028784	-0.008745	-0.039549	-0.258216	0.877060	0.163414	0.370657	-150.725358	-47.270785	8.067797
52656		3.092675	-1.767752	-4.225846	-1.239611	-0.678376	-4.469639	-1.116742	2.450662	-1.461512	-0.431885	0.586182	0.595947	0.030275	-0.018137	-0.042532	-0.252578	0.872668	0.164593	0.384141	-151.427822	-48.903254	8.152823
52657		3.280551	-2.759892	-4.788755	-2.106771	-0.125987	-3.742032	-1.333185	2.679917	-1.708020	-0.457031	0.559326	0.591309	0.031923	-0.028194	-0.048133	-0.245644	0.867678	0.166095	0.399006	-152.359921	-50.716056	8.373711
52658		3.349232	-3.333667	-5.328045	-2.889635	0.109483	-3.304934	-1.308266	2.937753	-1.982430	-0.478516	0.541504	0.581055	0.032372	-0.034011	-0.053540	-0.238405	0.861629	0.168470	0.415182	-153.421829	-52.730303	8.772297
52659		3.578965	-3.342323	-5.507667	-3.122454	0.096114	-3.138256	-1.099844	3.201176	-2.289375	-0.504639	0.531494	0.574463	0.034516	-0.034127	-0.055450	-0.231556	0.854198	0.172216	0.432515	-154.567891	-54.951158	9.411774
52660		3.948952	-3.109851	-5.450263	-3.039980	0.015690	-3.051008	-0.897960	3.414715	-2.561792	-0.535889	0.509033	0.565430	0.038148	-0.031839	-0.055020	-0.225061	0.845451	0.177242	0.450716	-155.849451	-57.341038	10.335977
52661		4.648708	-3.026283	-5.592961	-3.033070	-0.020378	-2.543604	-0.847264	3.513479	-2.724718	-0.569092	0.482666	0.545898	0.045077	-0.031122	-0.056599	-0.218390	0.835868	0.182869	0.469243	-157.375896	-59.805688	11.556227
52662		5.702198	-2.944056	-5.882601	-3.025066	-0.089551	-1.650877	-0.873909	3.530369	-2.811974	-0.597900	0.471191	0.530518	0.055550	-0.030488	-0.059684	-0.211305	0.825756	0.188687	0.487723	-159.235068	-62.278882	13.109091
52663		6.959060	-2.487868	-6.265085	-2.896812	-0.488207	-0.581089	-0.809588	3.592091	-2.882811	-0.638916	0.440674	0.503662	0.068081	-0.026124	-0.063779	-0.204258	0.814920	0.194786	0.506204	-161.435787	-64.770121	15.049509
52664		8.213190	-1.906149	-6.897828	-3.008110	-1.118770	0.596320	-0.663346	3.705113	-2.951964	-0.668701	0.417969	0.492432	0.080541	-0.020490	-0.070414	-0.197627	0.803122	0.201314	0.524796	-164.037390	-67.297497	17.480642
52665		8.831319	-2.047535	-7.709875	-3.990199	-1.317323	1.320270	-0.383138	3.853796	-2.971836	-0.696289	0.392822	0.466553	0.086488	-0.021919	-0.078736	-0.192104	0.790173	0.208391	0.543412	-167.060486	-69.858269	20.492011
52666		8.687616	-3.261280	-8.196910	-5.604466	-0.576806	1.211242	0.123497	3.992763	-2.937768	-0.713867	0.380127	0.437500	0.084726	-0.033817	-0.083696	-0.188703	0.775914	0.216452	0.561692	-170.529326	-72.428078	24.231982
52667		8.293479	-4.572580	-7.394875	-6.315034	0.832539	0.374186	0.774123	4.002923	-2.888203	-0.748535	0.355713	0.405273	0.080762	-0.046612	-0.075759	-0.187860	0.760590	0.226002	0.578908	-174.687083	-74.914116	29.026032
52668		8.160603	-4.451038	-5.970402	-5.621019	1.393742	-0.405732	1.151021	3.758684	-2.953184	-0.767090	0.336182	0.376953	0.079796	-0.045347	-0.061474	-0.187870	0.745076	0.236983	0.594479	179.534812	-77.137843	35.659053
52669		8.992328	-4.000108	-4.780160	-4.713973	1.721741	-0.091260	1.135405	3.366622	-3.025390	-0.791992	0.318848	0.335938	0.088483	-0.041069	-0.049530	-0.187036	0.730232	0.248417	0.608332	171.293562	-78.923858	44.747242
52670		9.859239	-4.219772	-4.520707	-4.965427	2.116554	0.497135	1.101946	2.980561	-2.959032	-0.809082	0.308105	0.314697	0.097266	-0.043388	-0.046900	-0.185707	0.716303	0.259743	0.620449	160.748104	-80.174034	56.111421
52671		9.833189	-4.679746	-4.627949	-5.754472	2.367753	0.250684	1.348150	2.627231	-2.836407	-0.820557	0.284424	0.287598	0.097036	-0.047861	-0.047880	-0.185099	0.703084	0.271605	0.630589	148.867582	-80.844814	68.938981
52672		9.749391	-3.949421	-4.019016	-5.212214	2.096168	-0.054290	1.661334	2.286249	-2.741066	-0.842041	0.262207	0.265381	0.096473	-0.040479	-0.041630	-0.185354	0.690495	0.284325	0.638764	137.056301	-80.941673	81.864351
52673		10.090694	-2.319117	-3.066325	-3.774879	1.462668	0.197514	1.421371	1.924324	-2.612418	-0.845703	0.249268	0.248535	0.100292	-0.024281	-0.031800	-0.184613	0.679227	0.296072	0.645686	126.688988	-80.557929	93.193022
52674		9.883827	0.355627	-3.378704	-2.585846	-0.766512	0.284439	1.259182	1.692541	-2.545794	-0.858887	0.215576	0.232178	0.098584	0.002516	-0.034604	-0.183139	0.668755	0.307194	0.651811	118.147823	-79.841402	102.592594
52675		9.484158	3.243160	-2.820184	-0.493255	-2.560755	0.267814	1.372036	1.425137	-2.312888	-0.871338	0.204346	0.218750	0.095007	0.031529	-0.028660	-0.182344	0.659241	0.318074	0.656491	111.984408	-78.982791	109.662640
52676		9.201078	4.719261	-1.851003	1.055658	-2.974192	0.207032	0.939568	1.162179	-1.787795	-0.874512	0.190430	0.203125	0.092319	0.046456	-0.018827	-0.181396	0.651699	0.325984	0.660393	107.700185	-78.242453	114.582365
52677		9.127343	4.613448	-1.547720	1.076759	-2.655092	0.125987	0.143938	0.935185	-1.174856	-0.883789	0.186768	0.196045	0.091469	0.045609	-0.015872	-0.179491	0.646563	0.329446	0.664232	104.499487	-77.741990	117.939502
52678		9.284048	3.638352	-1.588160	0.267324	-1.942336	0.092282	-0.476938	0.702623	-0.545414	-0.882568	0.176025	0.186035	0.092882	0.036092	-0.016294	-0.177280	0.643768	0.329006	0.667750	102.125891	-77.528636	120.090263
52679		9.482117	2.379243	-1.558029	-0.642751	-1.002106	0.014878	-0.918408	0.496827	0.014090	-0.880371	0.176758	0.189209	0.094780	0.023727	-0.015925	-0.175172	0.642954	0.325464	0.670819	100.356749	-77.590225	121.363674
52680		9.543269	1.082615	-1.793091	-1.712465	-0.244739	-0.196629	-1.262492	0.324291	0.426769	-0.886230	0.180176	0.188232	0.095380	0.010916	-0.018154	-0.173054	0.643668	0.319582	0.673506	98.996325	-77.860757	122.016238
52681		9.405657	-0.218254	-2.071365	-2.749655	0.465541	-0.591673	-1.415181	0.193075	0.710361	-0.871826	0.174072	0.189209	0.094044	-0.001995	-0.020790	-0.171182	0.645374	0.312368	0.675733	97.968400	-78.277962	122.238707
52682		8.994901	-1.204195	-1.778565	-3.079589	1.282435	-1.187559	-1.282254	0.086559	0.885854	-0.878418	0.184082	0.193115	0.089994	-0.011757	-0.017749	-0.170154	0.647561	0.305109	0.677216	97.342279	-78.786014	122.128523
52683		8.516728	-1.786969	-1.749886	-3.324212	1.628197	-1.744963	-0.986754	-0.044355	0.967144	-0.880859	0.193359	0.202393	0.085257	-0.017544	-0.017393	-0.170149	0.650028	0.298682	0.677718	97.290601	-79.330807	121.605916
52684		8.366296	-2.308582	-1.868976	-3.664708	1.899116	-1.952644	-0.684639	-0.215352	0.951586	-0.869141	0.196777	0.201904	0.083792	-0.022751	-0.018521	-0.170811	0.652768	0.293462	0.677199	97.978198	-79.853329	120.508550
52685		8.158296	-2.738490	-2.186761	-4.091615	1.980223	-2.185376	-0.474086	-0.373284	0.894826	-0.874756	0.210449	0.204590	0.081745	-0.027071	-0.021651	-0.171731	0.655758	0.289266	0.675881	99.379532	-80.326258	118.810851
52686		7.837967	-2.720395	-2.331146	-4.099456	1.815501	-2.452905	-0.256732	-0.466497	0.816595	-0.868164	0.211426	0.202637	0.078544	-0.026913	-0.023094	-0.172960	0.658747	0.286131	0.673993	101.335148	-80.736974	116.679631
52687		7.410976	-2.027192	-2.367842	-3.607800	1.179064	-2.725245	0.023556	-0.558633	0.777399	-0.861572	0.218262	0.209717	0.074254	-0.019981	-0.023474	-0.174844	0.661731	0.284145	0.671418	103.933250	-81.099786	114.062829
52688		7.002617	-1.289443	-2.250275	-2.969682	0.606590	-2.988058	0.104185	-0.704646	0.783817	-0.864746	0.223389	0.217529	0.070155	-0.012608	-0.022262	-0.176805	0.665130	0.282527	0.668222	107.332998	-81.421830	110.684062
52689		6.934922	-0.862091	-2.417392	-2.760834	0.152746	-2.954555	0.103490	-0.816690	0.822643	-0.853027	0.231201	0.223389	0.069482	-0.008323	-0.023895	-0.178729	0.668935	0.280870	0.664601	111.445993	-81.708996	106.586679
52690		8.533676	-0.407856	-0.641893	-1.065638	1.090516	-1.381998	0.727238	-0.611802	0.812510	-0.853271	0.239746	0.221680	0.085371	-0.003709	-0.006172	-0.182988	0.671466	0.281123	0.660772	115.426097	-81.994653	102.987422
52691		12.185205	8.407051	3.055768	7.290432	-2.903420	3.106747	2.364288	0.006862	0.332457	-0.854980	0.244385	0.210693	0.121714	0.083904	0.031546	-0.192008	0.669717	0.287807	0.657099	117.384362	-82.164384	102.378571
52692		16.943463	12.928869	5.017361	11.634404	-4.382129	8.210849	-0.020469	-0.275041	0.073298	-0.851074	0.251953	0.226563	0.169318	0.129356	0.050393	-0.191773	0.670764	0.287772	0.656115	118.546448	-82.125095	101.194133
52693		14.361046	4.194177	-0.577668	1.873509	-1.645515	4.950320	-0.917762	-0.389591	0.444773	-0.854248	0.249023	0.220703	0.143528	0.042235	-0.005690	-0.189579	0.673568	0.283655	0.655672	120.367683	-82.234471	98.825620
52694		9.599879	4.110077	0.195034	2.583837	-1.761869	0.152624	0.348554	-0.335026	0.697078	-0.850586	0.251221	0.228271	0.095851	0.041431	0.002183	-0.192549	0.675337	0.282780	0.653361	123.372115	-82.469575	95.996290
52695		10.108345	5.137212	0.732198	3.755468	-2.163965	0.690521	0.430347	-0.837828	1.004323	-0.842285	0.261719	0.232666	0.100792	0.051862	0.007856	-0.196082	0.679080	0.281611	0.648920	129.208122	-82.646430	90.360045
52696		10.975313	4.533510	-0.514764	2.567202	-2.399738	1.541751	0.024305	-1.066320	1.136603	-0.843018	0.279541	0.241455	0.109518	0.045959	-0.004558	-0.198333	0.684113	0.278884	0.644110	136.172427	-82.707666	83.353238
52697		9.718748	2.975612	-1.189742	1.196799	-1.820496	0.186075	0.041643	-0.984144	1.226913	-0.835205	0.284912	0.253418	0.097059	0.030354	-0.011413	-0.201037	0.688947	0.275805	0.639428	143.262745	-82.728571	76.230058
52698		8.332628	1.856001	-1.264046	0.528036	-1.209729	-1.284419	0.127250	-1.024949	1.277520	-0.819580	0.306396	0.254883	0.083269	0.019100	-0.012202	-0.204127	0.693850	0.272849	0.634395	150.618528	-82.631769	68.888125
52699		8.160000	-0.389134	-1.517939	-0.968277	0.309501	-1.566105	-0.143160	-1.135833	1.323541	-0.819336	0.309082	0.260986	0.081708	-0.003361	-0.014713	-0.206260	0.699394	0.268968	0.629254	157.883223	-82.370769	61.478813
52700		9.159859	-2.996895	-3.052810	-3.577771	1.454754	-0.470110	-0.170216	-1.332238	1.549292	-0.804688	0.313965	0.270996	0.092028	-0.029283	-0.029891	-0.208725	0.705824	0.264392	0.623171	165.635172	-81.918731	53.555893
52701		9.932056	-5.581594	-4.633738	-6.157147	2.526705	0.529971	0.084184	-1.357974	1.748950	-0.790527	0.330078	0.285156	0.100115	-0.054923	-0.045683	-0.212653	0.712252	0.259900	0.616383	173.343348	-81.331447	45.814328
52702		9.508776	-5.345238	-4.127486	-5.467882	2.540137	0.170807	0.849361	-0.880570	1.615982	-0.790771	0.342041	0.286865	0.095696	-0.052506	-0.041079	-0.219492	0.716143	0.257702	0.610371	179.923038	-80.877712	39.647891
52703		8.866622	-4.077937	-3.560129	-4.154739	1.761268	-0.455633	0.832537	-0.877242	1.366560	-0.781250	0.361572	0.289551	0.089097	-0.040024	-0.035379	-0.225493	0.719653	0.256319	0.604610	-175.006949	-80.337988	34.993199
52704		8.710694	-3.495794	-4.348134	-4.259632	0.739906	-0.415393	0.414630	-0.895183	1.124737	-0.776123	0.371094	0.293213	0.087495	-0.034377	-0.043162	-0.229222	0.723330	0.254543	0.599549	-171.474385	-79.748868	31.648435
52705		9.155127	-1.800147	-5.202082	-3.619497	-1.097678	0.177889	0.526902	-0.707089	0.769839	-0.765137	0.378662	0.299072	0.091803	-0.017512	-0.051743	-0.232521	0.725828	0.254162	0.595407	-169.199927	-79.272023	29.642964
52706		10.361526	0.537142	-4.669440	-1.405425	-2.455321	1.207681	0.515405	-0.623556	0.604545	-0.756348	0.385742	0.302246	0.103743	0.005805	-0.046357	-0.235386	0.727861	0.254240	0.591754	-167.529834	-78.848532	28.243273
52707		10.077469	1.407873	-4.364770	-0.572550	-2.964497	0.839647	-0.134512	-0.429373	0.625762	-0.759766	0.391357	0.299561	0.100823	0.014365	-0.043441	-0.236190	0.730095	0.252086	0.589600	-166.150889	-78.524087	26.759007
52708		9.158026	0.280247	-4.488268	-1.499740	-2.277887	0.018608	-0.539250	-0.317585	0.612877	-0.760986	0.390137	0.318604	0.091642	0.002962	-0.044745	-0.235616	0.732451	0.248648	0.588366	-165.033105	-78.256790	25.303005
52709		9.213114	-1.941479	-4.836584	-3.124129	-0.785951	0.270225	-0.799534	-0.400486	0.609896	-0.746094	0.395752	0.323730	0.092287	-0.019326	-0.048104	-0.233971	0.735334	0.244548	0.587144	-164.190718	-77.939644	23.974549
52710		10.020365	-4.529681	-5.735961	-5.207506	0.741559	1.419314	-0.856553	-0.514558	0.784749	-0.743652	0.395508	0.318848	0.100528	-0.045147	-0.056908	-0.232482	0.738809	0.239762	0.585344	-163.087773	-77.526381	22.344148
52711		10.693494	-6.462884	-6.335974	-6.625079	1.937520	2.378167	-0.437604	-0.382637	1.028940	-0.740234	0.397949	0.322510	0.107387	-0.064215	-0.063014	-0.233404	0.741673	0.235139	0.583227	-161.151225	-77.133584	20.102902
52712		10.439825	-7.448396	-6.012566	-6.939639	2.842011	2.203231	0.062860	-0.078033	1.033040	-0.739990	0.406982	0.323486	0.104805	-0.073924	-0.060108	-0.236546	0.743051	0.231594	0.581623	-158.779638	-76.885028	17.706507
52713		9.461288	-7.585710	-5.119786	-6.499247	3.349618	1.133086	0.389670	0.135063	0.761289	-0.743164	0.413086	0.323730	0.094866	-0.075396	-0.051409	-0.240353	0.743086	0.229755	0.580746	-156.714586	-76.788560	15.815631
52714		8.515953	-6.902175	-4.323719	-5.667143	3.172891	0.019496	0.560049	0.151318	0.308440	-0.743164	0.413574	0.322754	0.085233	-0.068769	-0.043494	-0.243493	0.742344	0.230067	0.580263	-155.564513	-76.792599	14.964349
52715		8.307258	-5.746349	-3.995311	-4.761847	2.414373	-0.352826	0.650802	0.124627	-0.130661	-0.741943	0.419922	0.309326	0.083010	-0.057387	-0.040192	-0.245663	0.741051	0.232305	0.580111	-155.366347	-76.885848	15.144376
52716		8.686677	-3.809914	-3.664013	-3.248938	1.119214	-0.242404	0.807942	0.182489	-0.417258	-0.740234	0.417725	0.310303	0.086754	-0.038132	-0.036873	-0.247648	0.739057	0.235981	0.580326	-155.665460	-77.076209	15.926909
52717		9.280914	-1.722379	-2.887992	-1.262265	0.037050	-0.022509	0.726623	0.265643	-0.472277	-0.755371	0.432373	0.297363	0.092730	-0.017337	-0.029066	-0.249264	0.736836	0.239521	0.581007	-156.072673	-77.322929	16.772032
52718		10.073749	-0.321005	-2.300306	0.193883	-0.601867	0.505979	0.433048	0.292933	-0.396694	-0.756104	0.420410	0.296631	0.100697	-0.003360	-0.023158	-0.250049	0.734988	0.241887	0.582031	-156.463776	-77.564083	17.427304
52719		11.127345	0.695448	-1.848392	1.356786	-1.008406	1.361394	0.224037	0.294669	-0.301702	-0.764404	0.420410	0.300049	0.111256	0.006807	-0.018640	-0.250340	0.733498	0.243296	0.583196	-156.765629	-77.784814	17.868268
52720		11.365421	0.758230	-1.419325	1.717651	-0.764053	1.511090	-0.112847	0.336980	-0.182097	-0.761230	0.417725	0.292480	0.113637	0.007471	-0.014389	-0.249797	0.732455	0.243226	0.584768	-156.932223	-77.999390	17.972921
52721		10.674538	-0.322860	-1.685458	0.646107	-0.172530	0.978209	-0.390566	0.312861	-0.063483	-0.765625	0.415527	0.291992	0.106718	-0.003296	-0.017015	-0.248551	0.731963	0.241943	0.586444	-156.993236	-78.175723	17.807170
52722		9.684779	-1.397578	-2.051696	-0.537238	0.333328	0.165181	-0.297122	0.272729	0.028373	-0.760498	0.422363	0.291748	0.096822	-0.013993	-0.020628	-0.247868	0.731586	0.240642	0.587737	-156.806106	-78.309135	17.442545
52723		9.008803	-1.208337	-1.634658	-0.255875	0.404005	-0.589782	-0.039156	0.268601	0.009034	-0.772461	0.414795	0.292480	0.090067	-0.012083	-0.016465	-0.248064	0.730871	0.240179	0.588733	-156.520495	-78.445543	17.128645
52724		9.121528	-0.894451	-1.194186	0.276314	0.444594	-0.584776	-0.113144	0.218168	-0.050373	-0.766113	0.423340	0.291016	0.091200	-0.008974	-0.012036	-0.247756	0.730329	0.239772	0.589700	-156.479684	-78.567745	17.021240
52725		9.305004	-1.285094	-1.512298	-0.194026	0.542790	-0.315882	-0.290049	0.208196	-0.049328	-0.765137	0.421875	0.290771	0.093031	-0.012896	-0.015201	-0.246791	0.730029	0.238857	0.590846	-156.550177	-78.685571	16.924225
52726		9.307990	-1.174768	-1.707782	-0.288540	0.328459	-0.286718	-0.234855	0.260926	-0.060977	-0.775146	0.420898	0.288818	0.093054	-0.011796	-0.017185	-0.246057	0.729495	0.238076	0.592125	-156.556191	-78.832689	16.793552
52727		9.312078	-0.774823	-1.199417	0.324009	0.341900	-0.403552	-0.243863	0.264715	-0.075042	-0.781250	0.420654	0.277100	0.093102	-0.007798	-0.012108	-0.245250	0.728936	0.237320	0.593451	-156.601707	-78.986107	16.698145
52728		9.229041	-0.510792	-0.825419	0.734379	0.368849	-0.569202	-0.406745	0.234532	-0.087388	-0.773926	0.424072	0.290283	0.092278	-0.005165	-0.008352	-0.243778	0.728655	0.236156	0.594866	-156.807442	-79.125388	16.670713
52729		9.283054	-0.506769	-0.823362	0.727524	0.368794	-0.515134	-0.479804	0.185931	-0.096564	-0.776123	0.416992	0.284424	0.092820	-0.005132	-0.008308	-0.241952	0.728585	0.234871	0.596204	-157.143075	-79.242209	16.733130
52730		9.196783	-0.215661	-0.786174	0.905962	0.164510	-0.625874	-0.403077	0.138208	-0.100657	-0.779541	0.416992	0.280762	0.091961	-0.002219	-0.007921	-0.240338	0.728562	0.233881	0.597273	-157.503641	-79.333563	16.865430
52731		9.169886	0.172372	-0.395107	1.426080	0.110362	-0.744791	-0.327782	0.109133	-0.087920	-0.782227	0.426025	0.285645	0.091697	0.001677	-0.004004	-0.238999	0.728541	0.233109	0.598137	-157.825449	-79.407651	17.002366
52732		9.334945	0.650461	-0.180248	1.907051	-0.116563	-0.650464	-0.296689	0.044422	-0.052137	-0.783447	0.407959	0.283203	0.093351	0.006478	-0.001833	-0.237806	0.728723	0.232371	0.598678	-158.102245	-79.438527	17.111418
52733		9.361392	0.602348	-0.456785	1.667898	-0.249343	-0.573474	-0.290319	-0.033379	0.015576	-0.786621	0.413574	0.282959	0.093614	0.006024	-0.004561	-0.236746	0.729200	0.231502	0.598853	-158.274537	-79.414541	17.118065
52734		9.338585	0.080474	-0.668806	1.183132	0.025116	-0.524926	-0.097692	-0.064292	0.074675	-0.782715	0.417236	0.285400	0.093388	0.000836	-0.006658	-0.236531	0.729616	0.231027	0.598615	-158.201076	-79.360595	16.986797
52735		9.717996	0.430488	-0.505104	1.606007	-0.128831	-0.206231	0.198313	-0.105765	0.149381	-0.786865	0.417969	0.288574	0.097179	0.004382	-0.004995	-0.237570	0.729885	0.231218	0.597802	-157.799359	-79.269439	16.694216
52736		9.450327	0.589181	-0.030819	2.038879	0.022579	-0.566111	0.191172	-0.115484	0.207867	-0.787598	0.412842	0.286133	0.094497	0.005990	-0.000248	-0.238747	0.730263	0.231181	0.596884	-157.254717	-79.158957	16.251690
52737		9.033888	-0.284478	0.159287	1.587525	0.792115	-0.948733	0.093313	-0.151338	0.250180	-0.784180	0.421143	0.285889	0.090341	-0.002733	0.001660	-0.239650	0.730907	0.230744	0.595903	-156.704922	-79.020231	15.746817
52738		8.887083	-0.618364	-0.072548	1.207926	0.891105	-1.031195	0.260478	-0.290481	0.344562	-0.788086	0.423584	0.292725	0.088882	-0.006030	-0.000604	-0.241285	0.731876	0.230622	0.594099	-155.984209	-78.784876	15.164894
52739		8.846580	-0.261887	0.298343	1.741647	0.836469	-1.170556	0.544469	-0.279822	0.357093	-0.779541	0.434326	0.288818	0.088466	-0.002469	0.003100	-0.244004	0.732472	0.231286	0.591991	-155.086323	-78.551409	14.567913
52740		9.031917	-0.698020	0.389661	1.609504	1.233077	-0.975069	0.647266	-0.312876	0.359334	-0.781982	0.437500	0.282715	0.090325	-0.006831	0.004016	-0.247067	0.733038	0.232279	0.589627	-154.191933	-78.297650	14.033922
52741		9.076364	-1.684860	-0.304246	0.514758	1.541706	-0.720399	0.887247	-0.397929	0.414484	-0.770752	0.444336	0.281982	0.090804	-0.016647	-0.002936	-0.251066	0.733601	0.233882	0.586596	-153.163232	-77.985269	13.502827
52742		9.220997	-2.223538	-0.471000	0.117995	1.831901	-0.494813	1.143404	-0.389718	0.429036	-0.773926	0.451416	0.281738	0.092266	-0.022011	-0.004657	-0.256050	0.733814	0.236160	0.583252	-151.982916	-77.670421	12.966055
52743		9.550327	-2.139124	-0.736269	0.086966	1.583122	-0.126995	1.245965	-0.389433	0.422936	-0.767090	0.458740	0.278076	0.095562	-0.021144	-0.007309	-0.261380	0.733852	0.238753	0.579775	-150.802525	-77.355894	12.488848
52744		9.827838	-2.274071	-1.108389	-0.169065	1.421825	0.234000	1.258285	-0.388282	0.370956	-0.766846	0.463623	0.279053	0.098342	-0.022489	-0.011035	-0.266595	0.733777	0.241555	0.576324	-149.763663	-77.053998	12.163298
52745		10.009516	-2.438026	-1.801110	-0.688742	1.057249	0.569314	1.217013	-0.410208	0.328545	-0.770996	0.475830	0.276611	0.100172	-0.024106	-0.017953	-0.271496	0.733732	0.244416	0.572877	-148.897255	-76.753312	11.990272
52746		9.972194	-1.851583	-2.282711	-0.594770	0.269163	0.563116	1.210529	-0.391202	0.276635	-0.765381	0.477783	0.277344	0.099792	-0.018240	-0.022743	-0.276239	0.733550	0.247407	0.569549	-148.136669	-76.476130	11.921820
52747		9.931354	-0.605029	-2.222026	0.335465	-0.616170	0.357996	1.186617	-0.334189	0.208681	-0.754395	0.476074	0.274658	0.099357	-0.005815	-0.022089	-0.280757	0.733120	0.250497	0.566535	-147.471564	-76.247957	11.937627
52748		9.638411	0.346950	-1.867623	1.219200	-1.077867	-0.124611	1.061522	-0.321631	0.269247	-0.761719	0.486572	0.269531	0.096409	0.003698	-0.018502	-0.284996	0.732885	0.252977	0.563613	-146.753140	-76.006227	11.824489
52749		9.383211	0.360303	-1.591094	1.414777	-0.912658	-0.438723	0.938646	-0.359298	0.345872	-0.765137	0.490723	0.263428	0.093854	0.003839	-0.015725	-0.288942	0.733000	0.254883	0.560587	-146.023616	-75.722721	11.627386
52750		9.536152	-0.176128	-1.323910	1.320521	-0.346377	-0.280750	0.803297	-0.422425	0.456548	-0.759277	0.503906	0.264160	0.095393	-0.001491	-0.013044	-0.292616	0.733613	0.256082	0.557323	-145.264484	-75.372251	11.319226
52751		9.280061	-0.846686	-1.477490	0.751860	-0.014778	-0.407719	0.821513	-0.443871	0.546915	-0.756836	0.497314	0.262451	0.092856	-0.008153	-0.014603	-0.296571	0.734351	0.257030	0.553813	-144.390248	-74.981573	10.902398
52752		9.368024	-1.911715	-1.572139	0.031340	0.637399	-0.144265	0.826251	-0.487100	0.584923	-0.744629	0.517334	0.267578	0.093774	-0.018778	-0.015571	-0.300586	0.735232	0.257903	0.550062	-143.533438	-74.555775	10.505518
52753		9.619179	-2.368098	-2.119019	-0.506055	0.541373	0.290624	0.818100	-0.558968	0.614374	-0.743896	0.515137	0.261475	0.096323	-0.023299	-0.021017	-0.304548	0.736333	0.258750	0.545998	-142.755966	-74.086186	10.185461
52754		9.706464	-1.914975	-2.428839	-0.275840	-0.011969	0.370877	0.819662	-0.548867	0.542242	-0.746338	0.525146	0.262451	0.097182	-0.018787	-0.024099	-0.308324	0.737289	0.259837	0.542057	-142.106341	-73.644601	9.998562
52755		9.677916	-1.134481	-2.915703	0.048901	-0.911291	0.317317	0.659635	-0.588630	0.473833	-0.745361	0.535156	0.266602	0.096891	-0.011020	-0.028909	-0.311261	0.738487	0.260802	0.538272	-141.719353	-73.209557	9.989735
52756		9.726656	-0.978436	-3.395518	-0.041020	-1.372201	0.444478	0.526187	-0.616677	0.490772	-0.731689	0.543701	0.259277	0.097394	-0.009457	-0.033680	-0.313710	0.739975	0.261377	0.534513	-141.423789	-72.755151	9.996414
52757		10.172493	-0.511534	-3.422960	0.501363	-1.680146	0.788394	0.499981	-0.630884	0.497170	-0.725830	0.540283	0.265869	0.101844	-0.004777	-0.033921	-0.316051	0.741531	0.261880	0.530718	-141.158677	-72.292852	10.019417
52758		10.264163	-0.462709	-3.060038	0.883483	-1.433854	0.774748	0.336027	-0.604588	0.547434	-0.721191	0.544678	0.277100	0.102746	-0.004295	-0.030297	-0.317947	0.743330	0.261710	0.527141	-140.893806	-71.823447	9.943879
52759		10.126935	-1.141294	-2.904706	0.538781	-0.873034	0.734421	0.156104	-0.622173	0.610170	-0.719238	0.561523	0.273926	0.101393	-0.011081	-0.028741	-0.319309	0.745525	0.260861	0.523628	-140.676731	-71.324160	9.809965
52760		10.037315	-1.614075	-2.685757	0.399222	-0.398219	0.687192	0.123494	-0.647867	0.662625	-0.715332	0.561768	0.278320	0.100512	-0.015791	-0.026542	-0.320648	0.747896	0.259761	0.519963	-140.446296	-70.793523	9.641655
52761		9.857268	-1.744662	-3.124975	0.079025	-0.646392	0.653930	0.130066	-0.707773	0.674556	-0.707031	0.571045	0.279297	0.098741	-0.017094	-0.030912	-0.321955	0.750406	0.258728	0.516037	-140.270238	-70.232631	9.534569
52762		10.098812	-0.957991	-3.428993	0.644682	-1.367990	0.787966	0.115248	-0.748550	0.596998	-0.709229	0.576416	0.284668	0.101143	-0.009259	-0.033917	-0.322949	0.752931	0.258003	0.512087	-140.242106	-69.681406	9.575440
52763		10.797674	-0.413094	-2.675320	1.833224	-1.103632	1.111513	-0.133833	-0.717362	0.628481	-0.700195	0.577637	0.294434	0.108084	-0.003809	-0.026363	-0.323115	0.755798	0.256470	0.508517	-140.288922	-69.133107	9.544160
52764		10.246856	-1.175102	-3.339947	0.796201	-1.109614	0.942220	-0.480939	-0.755984	0.733099	-0.693604	0.583008	0.305176	0.102636	-0.011455	-0.032984	-0.322179	0.759439	0.253711	0.505058	-140.449422	-68.528872	9.421315
52765		9.936333	-1.837457	-3.967465	-0.059824	-1.130321	0.983864	-0.485014	-0.743461	0.768612	-0.683838	0.580566	0.308350	0.099580	-0.018088	-0.039261	-0.321321	0.763072	0.250781	0.501581	-140.562154	-67.918021	9.244090
52766		10.480056	-1.822212	-2.729811	1.009939	-0.170459	1.121379	-0.360860	-0.682095	0.795492	-0.677490	0.582520	0.318604	0.104964	-0.017854	-0.026908	-0.321071	0.766362	0.247949	0.498120	-140.523955	-67.323894	8.979731
52767		10.548039	-2.059343	-1.812688	1.538494	0.681052	0.955595	-0.527094	-0.680854	0.846196	-0.666504	0.597412	0.313965	0.105627	-0.020194	-0.017714	-0.320300	0.769951	0.244503	0.494774	-140.535067	-66.712502	8.664396
52768		10.712510	-2.316083	-1.400487	1.793038	1.178560	1.026051	-0.642135	-0.684511	0.827397	-0.660400	0.597168	0.325928	0.107267	-0.022761	-0.013564	-0.319025	0.773683	0.240837	0.491564	-140.640605	-66.105826	8.378657
52769		10.625808	-2.195310	-0.087344	2.759429	2.058379	0.477216	-0.603288	-0.688670	0.855417	-0.660889	0.606934	0.342773	0.106353	-0.021500	-0.000442	-0.317949	0.777364	0.237159	0.488229	-140.705582	-65.487931	8.071565
52770		10.368546	-1.286889	0.678132	3.857859	1.979425	-0.282730	-0.566912	-0.806464	0.856865	-0.648926	0.600586	0.348389	0.103711	-0.012405	0.007235	-0.316868	0.781247	0.233739	0.484369	-140.845712	-64.816916	7.868632
52771		10.591906	0.027644	0.798780	5.031159	1.178109	-0.532325	-0.558411	-0.976561	0.862708	-0.639648	0.610107	0.363281	0.105876	0.000756	0.008503	-0.315619	0.785497	0.230578	0.479805	-141.105386	-64.068922	7.802466
52772		10.819907	1.237835	0.866083	6.104561	0.407065	-0.761765	-0.524934	-1.140505	0.963623	-0.626953	0.613525	0.373047	0.108086	0.012923	0.009244	-0.314538	0.790160	0.227344	0.474371	-141.368132	-63.211253	7.760672
52773		11.213826	2.768758	1.043390	7.535532	-0.507819	-1.011589	-0.501610	-1.329079	1.124358	-0.620605	0.622314	0.376709	0.111908	0.028344	0.011108	-0.313691	0.795358	0.223813	0.467880	-141.603142	-62.212150	7.702370
52774		11.932394	3.838553	0.943327	8.660331	-1.289152	-0.793900	-0.645373	-1.515911	1.316860	-0.601074	0.626221	0.395752	0.118992	0.039202	0.010210	-0.312485	0.801357	0.219450	0.460459	-141.876442	-61.060710	7.593429
52775		12.987747	4.236047	1.064205	9.680025	-1.433578	-0.221388	-0.773654	-1.694701	1.546106	-0.588135	0.631104	0.401855	0.129449	0.043406	0.011574	-0.311055	0.808115	0.214125	0.452045	-142.147623	-59.748061	7.396180
52776		14.139571	4.378269	0.984203	10.524453	-1.545538	0.526635	-0.904841	-1.902428	1.804275	-0.569580	0.632813	0.430176	0.140892	0.045103	0.010982	-0.309404	0.815685	0.207748	0.442456	-142.419136	-58.251469	7.108862
52777		15.233258	5.151771	0.443667	11.511099	-2.446929	1.154678	-1.147532	-2.067436	1.918802	-0.543213	0.647705	0.457520	0.151774	0.053006	0.005706	-0.306779	0.823943	0.200578	0.432173	-142.838564	-56.640613	6.827096
52778		15.899759	6.082647	0.017815	12.447444	-3.434917	1.280055	-1.510694	-2.128762	2.004165	-0.520508	0.645752	0.466309	0.158367	0.062423	0.001399	-0.302703	0.832765	0.192318	0.421766	-143.432823	-54.974336	6.499867
52779		16.354391	7.250500	0.151630	13.707115	-4.287009	0.854033	-1.828640	-2.144170	2.146013	-0.497803	0.645508	0.496094	0.162729	0.074274	0.002590	-0.297500	0.841997	0.182761	0.411259	-144.116735	-53.254443	6.051481
52780		16.667948	8.621956	1.134680	15.436036	-4.839099	-0.234742	-2.128480	-2.123297	2.340426	-0.469971	0.646240	0.517578	0.165528	0.088288	0.012176	-0.291351	0.851519	0.171682	0.400693	-144.841048	-51.484034	5.426983
52781		15.467578	8.220267	1.024211	14.575931	-4.914226	-1.372280	-2.649294	-2.121583	2.523638	-0.446289	0.639893	0.540039	0.153509	0.084285	0.010767	-0.283236	0.861614	0.158702	0.390144	-145.757986	-49.659215	4.649594
52782		13.371884	3.627050	-1.363143	9.738471	-3.068444	-0.349310	-2.997769	-2.238347	2.739769	-0.412842	0.636719	0.570801	0.133353	0.037904	-0.012698	-0.273808	0.872171	0.144207	0.378883	-146.803392	-47.720414	3.755471
52783		12.532279	-0.682607	-3.469036	6.270106	-0.953718	1.559147	-2.622154	-2.364543	2.980238	-0.388184	0.622559	0.594727	0.125808	-0.005395	-0.033128	-0.266238	0.882164	0.129462	0.366257	-147.565004	-45.654026	2.738126
52784		13.505538	-3.581485	-5.176706	5.184216	0.466754	4.148163	-2.171405	-2.345540	3.136561	-0.344238	0.619385	0.621338	0.136192	-0.034233	-0.049797	-0.260813	0.891161	0.114770	0.353039	-148.018721	-43.558632	1.613422
52785		13.666333	-5.839442	-6.615252	4.150787	1.555655	5.838217	-2.213813	-2.089505	3.115213	-0.310303	0.629395	0.637207	0.138235	-0.056966	-0.064078	-0.255184	0.899320	0.099700	0.340828	-148.473612	-41.598794	0.411888
52786		10.435151	-7.494000	-8.014011	0.899803	2.254557	5.132623	-2.358492	-1.772672	2.751113	-0.287842	0.606689	0.654541	0.106077	-0.074420	-0.078325	-0.248328	0.906541	0.085579	0.330442	-149.118729	-39.912924	-0.668843
52787		8.737457	-7.215829	-8.912001	-0.366216	1.681433	4.500237	-1.695518	-1.748717	2.025772	-0.265869	0.599365	0.672119	0.088876	-0.072011	-0.087736	-0.243209	0.912297	0.075775	0.320659	-149.693195	-38.457211	-1.296284
52788		8.790122	-6.445239	-8.495646	0.488031	1.296276	3.937075	-0.974220	-1.686837	1.549768	-0.240234	0.597168	0.682373	0.089110	-0.064175	-0.083895	-0.240587	0.916704	0.069218	0.311417	-150.034075	-37.175623	-1.649885
52789		7.509522	-6.404719	-8.337955	-0.157425	1.423405	3.027838	-0.840310	-1.377799	1.074281	-0.223633	0.593994	0.696045	0.076010	-0.063989	-0.082589	-0.237920	0.920197	0.064658	0.304059	-150.411128	-36.182198	-1.823717
52790		4.785112	-6.438875	-8.386972	-2.196518	1.571694	1.474485	-0.873221	-1.037238	0.713102	-0.204834	0.590820	0.703369	0.048514	-0.064581	-0.083338	-0.234640	0.923019	0.061307	0.298700	-150.866569	-35.463319	-1.899660
52791		3.428031	-6.665240	-8.314009	-3.181297	1.936475	0.743199	-1.062143	-0.900036	0.509915	-0.187256	0.580566	0.701416	0.034823	-0.067004	-0.082629	-0.230217	0.925748	0.058439	0.294239	-151.471362	-34.868072	-1.905203
52792		4.512044	-7.619377	-7.836897	-2.159316	3.062967	1.402682	-0.757387	-0.711647	0.467427	-0.188965	0.569336	0.709229	0.045577	-0.076383	-0.077918	-0.227187	0.927793	0.056001	0.290604	-151.877319	-34.380437	-1.953194
52793		4.850799	-6.679959	-7.886810	-1.598649	2.223949	1.271172	0.083163	-0.431818	0.297007	-0.188232	0.572510	0.707031	0.048777	-0.066695	-0.078791	-0.227883	0.928413	0.055252	0.288212	-151.808285	-34.079368	-1.990174
52794		4.326311	-4.625045	-7.317843	-1.226699	0.634957	-0.234034	0.630683	-0.154136	0.087540	-0.184814	0.569336	0.698975	0.043340	-0.046000	-0.073290	-0.230890	0.927938	0.055954	0.287211	-151.446949	-33.977465	-1.989185
52795		3.675463	-3.084084	-5.734506	-0.605605	-0.029966	-2.360350	0.645284	0.262155	-0.267130	-0.184082	0.572510	0.698486	0.036638	-0.030704	-0.057492	-0.233572	0.926743	0.057835	0.288526	-151.120478	-34.180127	-1.910957
52796		3.417575	-1.824955	-4.400448	0.124076	-0.538147	-3.975822	0.523865	0.633908	-0.751927	-0.179932	0.573975	0.696533	0.033967	-0.018262	-0.044160	-0.235093	0.924987	0.061358	0.292174	-150.959589	-34.705950	-1.663537
52797		3.339687	-1.063298	-3.977414	0.410817	-1.010064	-4.624760	0.247163	0.920091	-1.086574	-0.197754	0.570557	0.697754	0.033155	-0.010764	-0.039940	-0.234925	0.923002	0.065680	0.297597	-151.022192	-35.466307	-1.307248
52798		2.933201	-1.446547	-4.394870	-0.312852	-0.847321	-4.409493	-0.113328	1.265818	-1.244902	-0.210693	0.568848	0.685059	0.028962	-0.014671	-0.044125	-0.232956	0.920808	0.069791	0.304914	-151.287867	-36.445048	-0.963992
52799		1.841821	-2.208480	-5.178828	-1.914238	-0.508872	-4.230089	-0.215699	1.645018	-1.401807	-0.225586	0.556641	0.690674	0.017836	-0.022267	-0.051913	-0.230385	0.918016	0.074014	0.314151	-151.605429	-37.654227	-0.641103
52800		0.820916	-2.656256	-5.484050	-3.137699	-0.234876	-4.530440	0.023254	1.964335	-1.640029	-0.255371	0.557373	0.689453	0.007452	-0.026619	-0.054919	-0.228623	0.914224	0.079335	0.325010	-151.826589	-39.089937	-0.262077
52801		0.487334	-2.619061	-5.058664	-3.280912	-0.070263	-5.131290	0.246162	2.233532	-1.925323	-0.272461	0.549561	0.681152	0.004056	-0.026170	-0.050667	-0.227479	0.909458	0.085991	0.337260	-151.997318	-40.735699	0.224704
52802		0.718572	-2.524736	-4.687233	-3.003410	0.014341	-5.358755	0.181246	2.538307	-2.217929	-0.309082	0.545166	0.668213	0.006310	-0.025278	-0.046979	-0.225621	0.903892	0.093507	0.351186	-152.290570	-42.614508	0.823051
52803		1.109262	-2.436018	-4.806257	-2.916999	-0.116355	-5.150192	0.027877	2.891976	-2.496854	-0.333252	0.535645	0.662354	0.010091	-0.024484	-0.048217	-0.222672	0.897459	0.101578	0.366968	-152.758617	-44.741995	1.524632
52804		1.702199	-2.579221	-5.121345	-2.933301	-0.123774	-4.601800	0.077019	3.254143	-2.734429	-0.362793	0.522461	0.645508	0.015831	-0.025994	-0.051487	-0.219600	0.889816	0.110367	0.384478	-153.285337	-47.113412	2.320073
52805		2.413454	-2.590071	-5.464692	-2.909723	-0.256725	-3.994042	0.255651	3.542641	-2.948243	-0.395996	0.506592	0.626709	0.022777	-0.026173	-0.055092	-0.216964	0.880872	0.120073	0.403205	-153.826707	-49.680427	3.240521
52806		3.114573	-2.843902	-5.446469	-2.821565	0.000033	-3.529195	0.236682	3.722904	-3.080056	-0.430176	0.492676	0.622070	0.029682	-0.028839	-0.055060	-0.213964	0.871008	0.130064	0.422668	-154.508477	-52.368274	4.292610
52807		3.923078	-3.064243	-5.463441	-2.748753	0.231688	-2.956391	0.035721	3.868429	-3.197155	-0.484619	0.486572	0.594238	0.037668	-0.031243	-0.055379	-0.209808	0.860453	0.139901	0.442751	-155.477705	-55.148677	5.520059
52808		4.881250	-2.727061	-5.618045	-2.531452	-0.060167	-2.302687	-0.066786	4.047753	-3.328208	-0.517334	0.470947	0.580811	0.047200	-0.028084	-0.057137	-0.204908	0.848946	0.149798	0.463534	-156.739246	-58.040338	6.985775
52809		6.023065	-1.992211	-6.128384	-2.391837	-0.840765	-1.365351	-0.032737	4.220311	-3.479586	-0.552490	0.441406	0.552734	0.058561	-0.020961	-0.062528	-0.199784	0.836288	0.160129	0.484837	-158.323075	-61.034233	8.801502
52810		7.435652	-1.618186	-6.879506	-2.592878	-1.387424	0.013908	-0.017602	4.336903	-3.558236	-0.588135	0.423828	0.525146	0.072538	-0.017489	-0.070380	-0.194473	0.822623	0.170589	0.506331	-160.321558	-64.077872	11.041968
52811		8.497069	-1.946749	-7.416672	-3.273101	-1.240188	1.082847	0.028418	4.505415	-3.522094	-0.625977	0.403564	0.506348	0.082911	-0.020929	-0.076053	-0.189431	0.807864	0.180713	0.528028	-162.728860	-67.163466	13.702412
52812		8.404917	-2.387569	-7.392308	-4.109598	-0.843639	0.834090	0.240563	4.703908	-3.444016	-0.656494	0.378662	0.472412	0.081853	-0.025207	-0.075895	-0.185472	0.791772	0.190747	0.549830	-165.584230	-70.294188	16.913884
52813		8.054414	-2.894643	-6.453809	-4.312310	0.013003	-0.000640	0.421821	4.730091	-3.439750	-0.697754	0.356445	0.431396	0.078475	-0.030169	-0.066473	-0.182110	0.774773	0.201071	0.571080	-169.425778	-73.365363	21.210365
52814		8.675557	-3.466765	-5.539365	-4.266462	1.011674	0.122631	0.454219	4.525789	-3.448862	-0.718018	0.330566	0.405518	0.084858	-0.036013	-0.057409	-0.178488	0.757666	0.211544	0.591045	-175.091820	-76.202526	27.350430
52815		9.926750	-3.951143	-5.243994	-4.594667	1.703061	1.031928	0.422686	4.200003	-3.384305	-0.749756	0.305176	0.368652	0.097450	-0.041057	-0.054585	-0.174457	0.741037	0.221803	0.609288	176.588034	-78.637499	36.121243
52816		11.376949	-5.124377	-5.007034	-5.417630	2.983945	2.123352	0.363873	4.009547	-3.312336	-0.766602	0.285645	0.343018	0.111866	-0.053013	-0.052421	-0.170092	0.724593	0.231630	0.626404	164.483614	-80.599954	48.636321
52817		11.280752	-5.852977	-4.528195	-6.049399	3.836827	1.618081	0.472488	3.805127	-3.252761	-0.783936	0.263184	0.306396	0.110947	-0.060234	-0.047546	-0.165960	0.708296	0.241600	0.642187	147.946457	-81.853235	65.639939
52818		10.672372	-5.140250	-4.174650	-5.952294	3.355481	0.724456	0.788030	3.361622	-3.198896	-0.807373	0.236328	0.283936	0.105161	-0.052923	-0.043729	-0.162484	0.692802	0.252618	0.655598	129.539512	-82.092623	84.682227
52819		11.432340	-4.311338	-3.685486	-5.564821	3.056038	1.257031	0.888182	2.860231	-2.980572	-0.818115	0.213379	0.255371	0.113121	-0.044636	-0.038674	-0.159356	0.678803	0.263489	0.666637	114.110582	-81.497101	100.783180
52820		10.876202	-2.985128	-3.326456	-4.926021	2.122301	0.650731	0.710422	2.483089	-2.650661	-0.824951	0.199707	0.233154	0.107930	-0.031164	-0.034717	-0.156165	0.666368	0.272844	0.676109	102.949770	-80.501980	112.494384
52821		9.325135	-1.188543	-3.339617	-4.131165	0.456930	-0.743994	0.654454	2.117906	-2.268823	-0.835938	0.185303	0.218506	0.092748	-0.012828	-0.034421	-0.153534	0.655536	0.280942	0.683938	95.404321	-79.407840	120.537966
52822		8.203463	0.581197	-2.783039	-2.770441	-0.785113	-1.622115	0.743254	1.604133	-1.732401	-0.840088	0.165283	0.198730	0.081855	0.005207	-0.028467	-0.152276	0.647013	0.287922	0.689411	90.873719	-78.464928	125.588504
52823		7.925692	1.479367	-1.819599	-1.572186	-0.952041	-1.754330	0.526694	0.986121	-0.979628	-0.837891	0.157715	0.189453	0.079237	0.014454	-0.018548	-0.152006	0.641802	0.292163	0.692549	88.507223	-77.899314	128.315100
52824		8.105820	0.488384	-1.567723	-2.036879	0.006191	-1.796979	-0.167835	0.348744	-0.120427	-0.850586	0.152344	0.195068	0.081034	0.004822	-0.015823	-0.151547	0.640562	0.291716	0.693985	87.509931	-77.822487	129.237338
52825		8.024966	-1.278894	-2.812068	-4.046738	0.622236	-2.250950	-0.526819	-0.266629	0.710614	-0.838623	0.166748	0.198975	0.080332	-0.012577	-0.027980	-0.151922	0.642934	0.287825	0.693334	87.868297	-78.234474	128.563047
52826		7.540203	-3.335967	-3.940475	-6.013316	1.485789	-3.093942	-0.532135	-0.811712	1.375208	-0.830811	0.168945	0.207275	0.075788	-0.032944	-0.039010	-0.153794	0.648126	0.282179	0.690402	89.814869	-79.030930	126.267092
52827		7.178120	-5.149117	-5.042939	-7.792423	2.211868	-3.660314	-0.343217	-1.199062	1.889504	-0.832764	0.184570	0.215332	0.072564	-0.050894	-0.049908	-0.157490	0.655172	0.275790	0.685483	93.538569	-80.092355	122.281579
52828		6.644539	-6.157105	-5.811768	-8.805814	2.475165	-4.141629	-0.136464	-1.470783	2.247951	-0.815430	0.203857	0.222412	0.067557	-0.060855	-0.057582	-0.162695	0.663380	0.269103	0.679000	99.479978	-81.277055	116.182479
52829		7.717907	-7.382145	-3.354542	-7.432479	4.971291	-3.078346	0.540451	-1.309217	2.479183	-0.808594	0.221191	0.231689	0.078304	-0.072765	-0.033233	-0.171114	0.670670	0.263768	0.671824	107.235603	-82.486431	108.662377
52830		10.585765	-1.222778	0.075387	-1.039937	2.264453	0.548161	3.637509	-0.439574	1.778525	-0.806152	0.247559	0.231689	0.105959	-0.011300	0.000776	-0.188661	0.671262	0.270354	0.663870	114.143718	-83.349800	103.801970
52831		18.622354	17.106049	7.964542	16.455805	-6.151864	10.040941	2.937168	-0.711031	0.231679	-0.800049	0.260986	0.223877	0.185735	0.170075	0.082809	-0.198293	0.671105	0.279981	0.657198	119.464166	-83.281895	100.140113
52832		19.853294	-0.840840	-3.165498	-3.284917	0.970944	10.015148	-0.844700	-1.046603	0.405721	-0.797607	0.258789	0.237793	0.198712	-0.008136	-0.030581	-0.195313	0.675951	0.276887	0.654429	124.321513	-83.159900	94.761696
52833		7.550195	-4.124498	-3.284731	-5.211319	1.970036	-2.480116	2.112830	-0.602850	0.272824	-0.798584	0.255371	0.240479	0.075657	-0.040793	-0.033052	-0.202488	0.676213	0.283466	0.649139	128.622758	-83.077193	91.649191
52834		6.612528	-1.397075	-3.341925	-3.418321	-0.304906	-3.099531	2.048520	-1.403465	0.511714	-0.791260	0.274414	0.256104	0.066393	-0.013461	-0.033094	-0.209060	0.679384	0.289794	0.640898	136.185476	-82.748119	85.211597
52835		10.343348	0.718549	-4.897821	-2.960641	-2.418517	0.997912	1.794242	-1.954796	0.475459	-0.793213	0.287598	0.250732	0.103887	0.007865	-0.047896	-0.213815	0.684416	0.295962	0.631082	144.175336	-82.057550	78.189014
52836		11.051924	1.827325	-5.677125	-2.505120	-3.607856	1.952307	1.908887	-1.631733	0.461121	-0.776611	0.286377	0.260254	0.110933	0.019064	-0.055688	-0.219361	0.688169	0.302140	0.622106	150.295054	-81.410365	73.110907
52837		11.370278	1.969612	-4.382625	-1.199779	-2.758377	2.158815	2.026309	-1.248947	0.624477	-0.779053	0.294922	0.274414	0.113910	0.020489	-0.042910	-0.226360	0.690738	0.307658	0.613995	155.608117	-80.931714	68.909735
52838		11.117104	-0.019449	-4.518672	-2.458276	-1.479795	1.839356	1.210473	-1.457723	1.267540	-0.760742	0.318359	0.275146	0.111494	0.000782	-0.044372	-0.232165	0.695766	0.308639	0.605600	162.263572	-80.408822	62.868669
52839		9.125549	-2.067766	-6.042377	-4.878184	-1.433496	0.097083	0.912336	-1.484109	1.798103	-0.760010	0.325195	0.283691	0.091880	-0.019580	-0.059834	-0.238463	0.701936	0.306862	0.596873	169.710391	-79.828415	55.841280
52840		9.552843	-2.630059	-4.886232	-4.204599	-0.254235	0.400060	1.696775	-0.984634	1.669507	-0.746826	0.346680	0.284180	0.095981	-0.025088	-0.048607	-0.247860	0.705373	0.307228	0.588748	176.237605	-79.380909	50.194318
52841		10.317226	-3.181972	-3.526666	-3.380101	1.083626	0.976335	1.453823	-0.843238	1.729885	-0.736084	0.356201	0.289551	0.103589	-0.030670	-0.035056	-0.256754	0.708674	0.306447	0.581333	-177.731988	-78.906630	44.902975
52842		8.483518	-2.436934	-3.598002	-2.980697	0.178670	-0.760809	0.992927	-0.266051	1.036107	-0.744629	0.375244	0.271240	0.085007	-0.023751	-0.035986	-0.262861	0.709761	0.306008	0.577497	-174.225693	-78.708763	41.909217
52843		8.409949	-1.951619	-3.554771	-2.520628	-0.189824	-0.824796	0.972736	-0.344797	0.597301	-0.740967	0.379639	0.282715	0.084218	-0.019092	-0.035496	-0.267494	0.710393	0.307163	0.573969	-172.108443	-78.468440	40.318449
52844		8.520219	-3.164764	-4.615044	-4.012988	-0.178875	-0.444042	0.765619	-0.648658	0.604175	-0.732666	0.382568	0.285889	0.085446	-0.031213	-0.045994	-0.270938	0.712166	0.308090	0.569643	-170.300356	-78.044053	38.920310
52845		8.764035	-2.828614	-6.136583	-4.609874	-1.520178	0.132372	0.605683	-0.532940	0.580465	-0.720703	0.394775	0.278564	0.087885	-0.027846	-0.061217	-0.273912	0.713762	0.308485	0.565998	-168.699271	-77.679856	37.638186
52846		9.463318	-0.652375	-6.681017	-3.103471	-3.306714	0.866677	0.892534	-0.387688	0.593120	-0.723145	0.407471	0.268799	0.094781	-0.005945	-0.066654	-0.278165	0.714560	0.309432	0.562388	-166.901044	-77.386645	36.320827
52847		11.214727	1.663550	-5.227714	-0.008119	-3.556170	2.154708	0.854678	-0.331356	0.724603	-0.733154	0.409912	0.272461	0.112172	0.017265	-0.052018	-0.282727	0.715425	0.309721	0.558843	-164.845959	-77.097972	34.716423
52848		11.491314	0.099833	-4.404184	-0.515292	-1.937680	2.329630	0.113587	-0.184055	0.933549	-0.724609	0.419434	0.280762	0.114947	0.001560	-0.043935	-0.285445	0.717237	0.306969	0.556653	-162.693566	-76.842839	32.574520
52849		9.752825	-4.036775	-4.802510	-4.143265	0.179296	1.016792	-0.108253	0.014965	0.996551	-0.723633	0.424316	0.270020	0.097724	-0.039907	-0.048011	-0.287839	0.718883	0.303088	0.555422	-160.451305	-76.667397	30.207883
52850		8.515785	-6.866185	-4.408738	-6.209745	2.101593	-0.008549	0.464767	0.098531	0.947490	-0.720459	0.429199	0.277588	0.085460	-0.068155	-0.044288	-0.292277	0.719388	0.300840	0.553670	-157.977074	-76.523153	27.938660
52851		7.479101	-7.589687	-3.231403	-6.193001	3.240800	-1.145243	1.046078	0.093475	0.793583	-0.721191	0.441162	0.270508	0.075076	-0.075429	-0.032744	-0.298360	0.718792	0.300757	0.551240	-155.565008	-76.390166	26.074718
52852		7.049337	-6.895423	-2.037703	-5.005884	3.546278	-1.827945	1.289733	0.008896	0.576337	-0.714111	0.447266	0.262207	0.070691	-0.068617	-0.020823	-0.304582	0.717714	0.302232	0.548427	-153.597843	-76.248615	24.811160
52853		7.825426	-4.836959	-1.578136	-2.974737	2.588268	-1.352467	1.364292	-0.133471	0.313355	-0.727051	0.459229	0.256592	0.078340	-0.048138	-0.016058	-0.310117	0.716471	0.305064	0.545374	-152.317933	-76.096193	24.298663
52854		9.051547	-3.185060	-1.309697	-1.257657	1.838513	-0.387802	1.196234	-0.152104	0.152450	-0.720459	0.463867	0.249756	0.090550	-0.031703	-0.013218	-0.314574	0.715273	0.308020	0.542726	-151.493416	-75.973755	24.155791
52855		10.458066	-1.691142	-1.205339	0.290952	1.120766	0.786519	1.021715	-0.097500	0.004070	-0.723633	0.465820	0.249023	0.104587	-0.016848	-0.012089	-0.318074	0.713939	0.310947	0.540770	-151.017512	-75.921051	24.269265
52856		11.268313	-0.817070	-1.467578	1.016825	0.457497	1.525436	0.794531	-0.063439	-0.013358	-0.722412	0.468018	0.253174	0.112687	-0.008120	-0.014672	-0.320767	0.712843	0.313251	0.539293	-150.664925	-75.888670	24.375594
52857		10.809361	-1.059979	-1.906199	0.480257	0.200586	1.202237	0.472169	0.003964	0.009132	-0.730713	0.472412	0.235840	0.108094	-0.010550	-0.019089	-0.322468	0.712100	0.314504	0.538531	-150.382247	-75.885504	24.363671
52858		9.915447	-1.931470	-2.596877	-0.794211	0.064373	0.587095	0.352523	0.026175	0.067605	-0.725342	0.474365	0.243408	0.099158	-0.019235	-0.026016	-0.323941	0.711588	0.315180	0.537928	-150.022604	-75.874966	24.201599
52859		9.516575	-2.865572	-3.067471	-1.878819	0.180365	0.415876	0.399091	-0.011356	0.167820	-0.730713	0.468750	0.227295	0.095191	-0.028515	-0.030726	-0.325782	0.711247	0.315694	0.536965	-149.488058	-75.818382	23.886740
52860		9.376985	-2.476270	-3.288851	-1.701058	-0.268243	0.282391	0.613949	-0.017405	0.190041	-0.730713	0.474121	0.239990	0.093796	-0.024572	-0.032956	-0.328441	0.710612	0.316703	0.535590	-148.793184	-75.749644	23.533292
52861		9.664660	-1.719799	-2.869906	-0.771217	-0.372899	0.378768	0.660137	-0.054840	0.199941	-0.731934	0.479736	0.229004	0.096672	-0.017007	-0.028729	-0.331221	0.709999	0.317869	0.533997	-148.106968	-75.660459	23.216068
52862		9.769243	-0.783662	-2.793912	0.075457	-0.862322	0.341564	0.535388	-0.073804	0.138062	-0.734619	0.480713	0.222412	0.097708	-0.007694	-0.027924	-0.333367	0.709549	0.318938	0.532622	-147.632485	-75.578236	23.043410
52863		10.066167	0.285012	-2.709529	1.075302	-1.387185	0.466899	0.419312	-0.060413	0.077457	-0.740723	0.486572	0.219482	0.100669	0.002946	-0.027059	-0.334952	0.709144	0.319901	0.531588	-147.329887	-75.522773	22.979625
52864		10.245339	0.884723	-2.477093	1.745977	-1.524634	0.507813	0.187747	-0.069689	0.083493	-0.738525	0.489502	0.223633	0.102458	0.008913	-0.024727	-0.335722	0.709170	0.320230	0.530868	-147.156465	-75.458996	22.912106
52865		10.288909	1.148486	-2.609420	1.914200	-1.778892	0.539177	-0.012175	-0.072078	0.133433	-0.739014	0.493896	0.214355	0.102891	0.011552	-0.026058	-0.335906	0.709607	0.319866	0.530387	-147.013600	-75.380386	22.757882
52866		10.083518	0.709164	-2.704572	1.476256	-1.628579	0.417822	-0.219893	-0.084875	0.230433	-0.737305	0.486084	0.220947	0.100838	0.007178	-0.027011	-0.335594	0.710591	0.318618	0.530018	-146.825143	-75.263318	22.433332
52867		9.526254	0.150670	-2.849190	0.834567	-1.486950	-0.015619	-0.307959	-0.047383	0.313467	-0.734619	0.494141	0.219971	0.095267	0.001612	-0.028472	-0.335243	0.711743	0.316787	0.529792	-146.500606	-75.139555	21.915762
52868		9.222590	-0.380442	-2.605877	0.490082	-1.022475	-0.288729	-0.271046	-0.059186	0.391907	-0.736084	0.497070	0.224365	0.092241	-0.003659	-0.026026	-0.335215	0.712995	0.314784	0.529321	-146.033595	-74.982437	21.272190
52869		9.124196	-0.967107	-2.369935	0.154301	-0.512125	-0.351363	-0.294482	-0.081477	0.447941	-0.738281	0.490723	0.227783	0.091273	-0.009502	-0.023648	-0.335210	0.714418	0.312564	0.528720	-145.524001	-74.797163	20.570183
52870		9.074407	-1.725926	-2.427185	-0.460564	-0.133690	-0.274093	-0.280376	-0.064536	0.478053	-0.742920	0.498779	0.227539	0.090793	-0.017076	-0.024219	-0.335363	0.715825	0.310234	0.528092	-144.946435	-74.606413	19.805352
52871		9.199077	-2.175635	-2.252200	-0.654005	0.267846	-0.120980	-0.189851	-0.046352	0.478656	-0.737549	0.500488	0.223389	0.092048	-0.021557	-0.022480	-0.335863	0.717017	0.308116	0.527396	-144.313777	-74.423730	19.036597
52872		8.985932	-1.870304	-2.037886	-0.309401	0.227056	-0.418510	-0.103300	-0.024070	0.456770	-0.737549	0.509033	0.229248	0.089904	-0.018508	-0.020358	-0.336653	0.717978	0.306258	0.526668	-143.654229	-74.254517	18.290649
52873		9.123938	-1.298592	-1.403957	0.562455	0.397373	-0.515951	-0.102731	-0.021126	0.398890	-0.734131	0.511963	0.231201	0.091267	-0.012811	-0.014023	-0.337290	0.718827	0.304611	0.526056	-143.101419	-74.106258	17.655506
52874		9.568434	-0.833105	-0.734472	1.447854	0.685758	-0.314172	-0.246632	-0.060155	0.361913	-0.733154	0.516602	0.234619	0.095701	-0.008167	-0.007306	-0.337257	0.719973	0.302774	0.525571	-142.744800	-73.949610	17.138070
52875		9.738526	-1.417407	-0.746280	1.060541	1.024190	-0.054050	-0.470761	-0.098371	0.425641	-0.739502	0.516357	0.231201	0.097419	-0.013984	-0.007382	-0.336519	0.721678	0.300189	0.525189	-142.473629	-73.754570	16.575563
52876		9.322347	-2.121780	-1.212115	0.179893	1.029841	-0.232279	-0.485141	-0.133683	0.480622	-0.727051	0.517334	0.231934	0.093282	-0.021023	-0.012008	-0.335821	0.723583	0.297416	0.524590	-142.176070	-73.521599	15.976242
52877		8.836602	-2.154682	-1.525132	-0.106630	0.758222	-0.622052	-0.382503	-0.163729	0.506079	-0.738037	0.523926	0.229736	0.088433	-0.021352	-0.015138	-0.335509	0.725416	0.294875	0.523693	-141.832504	-73.267034	15.389637
52878		8.770454	-1.598095	-1.998637	0.088917	0.038554	-0.677056	-0.268381	-0.206710	0.483508	-0.730957	0.525391	0.239502	0.087763	-0.015796	-0.019874	-0.335489	0.727138	0.292775	0.522494	-141.518899	-72.998319	14.901750
52879		9.032397	-1.021558	-2.263518	0.504616	-0.501317	-0.472174	-0.365463	-0.221699	0.453352	-0.727051	0.533203	0.243896	0.090372	-0.010052	-0.022517	-0.335008	0.729002	0.290563	0.521439	-141.336043	-72.734950	14.491894
52880		9.031685	-0.476537	-2.184514	1.011567	-0.773834	-0.595947	-0.392019	-0.159215	0.508748	-0.723145	0.534668	0.243164	0.090346	-0.004578	-0.021764	-0.334667	0.730830	0.287964	0.520540	-141.025374	-72.477160	13.931462
52881		8.923602	-0.280763	-1.725458	1.432288	-0.550646	-0.849882	-0.431418	-0.138995	0.560249	-0.731201	0.536621	0.241699	0.089255	-0.002595	-0.017187	-0.334336	0.732728	0.285045	0.519692	-140.657899	-72.210635	13.287031
52882		9.065742	-0.864179	-1.446925	1.235618	0.022068	-0.674822	-0.557734	-0.180248	0.662776	-0.723389	0.541748	0.257813	0.090698	-0.008381	-0.014364	-0.333748	0.735087	0.281478	0.518681	-140.283571	-71.885366	12.558132
52883		9.556906	-1.796237	-1.404137	0.763376	0.654874	-0.039228	-0.572618	-0.268133	0.700165	-0.712158	0.552734	0.249268	0.095650	-0.017667	-0.013862	-0.333068	0.737727	0.277884	0.517306	-139.987502	-71.508275	11.901333
52884		10.198407	-2.463332	-1.415168	0.531333	1.101211	0.703139	-0.554133	-0.365956	0.717349	-0.720459	0.543213	0.262207	0.102097	-0.024306	-0.013897	-0.332362	0.740604	0.274423	0.515493	-139.782773	-71.079256	11.350488
52885		10.483234	-2.164876	-1.053347	1.141535	1.211496	0.813835	-0.439376	-0.381786	0.687717	-0.699707	0.555908	0.267090	0.104926	-0.021311	-0.010286	-0.331970	0.743266	0.271396	0.513513	-139.585077	-70.655515	10.875390
52886		10.568803	-1.098680	-0.615715	2.303067	0.877754	0.541569	-0.443409	-0.428998	0.670854	-0.708496	0.559814	0.265625	0.105737	-0.010645	-0.005907	-0.331454	0.746026	0.268486	0.511369	-139.471955	-70.215265	10.486234
52887		10.398269	-0.284862	-0.480887	3.011204	0.449750	0.145532	-0.518637	-0.493441	0.704786	-0.699951	0.561035	0.281738	0.104003	-0.002494	-0.004546	-0.330645	0.749096	0.265365	0.509029	-139.439614	-69.735938	10.136157
52888		10.463871	-0.008000	-0.680609	3.209401	0.120506	0.169311	-0.524851	-0.584511	0.773760	-0.692627	0.567383	0.284912	0.104657	0.000308	-0.006501	-0.329863	0.752486	0.262106	0.506218	-139.429039	-69.189581	9.804281
52889		10.580722	-0.252235	-0.885096	3.053829	0.128267	0.358610	-0.501762	-0.676742	0.867213	-0.689941	0.574219	0.288086	0.105846	-0.002085	-0.008487	-0.329267	0.756160	0.258705	0.502868	-139.400415	-68.569862	9.466033
52890		10.686065	-0.677688	-1.047078	2.805696	0.287930	0.569577	-0.435760	-0.736549	0.953077	-0.672852	0.576172	0.291504	0.106929	-0.006290	-0.010063	-0.329052	0.759965	0.255226	0.499037	-139.306936	-67.890479	9.097103
52891		10.774697	-1.019518	-1.021713	2.738916	0.535761	0.693837	-0.427210	-0.800851	1.027485	-0.660400	0.583008	0.310303	0.107837	-0.009663	-0.009764	-0.328953	0.763971	0.251588	0.494815	-139.204713	-67.156613	8.722215
52892		10.560932	-1.165584	-1.091285	2.653301	0.567680	0.517784	-0.392297	-0.877648	1.096375	-0.659424	0.591064	0.312012	0.105718	-0.011097	-0.010427	-0.329050	0.768163	0.247880	0.490109	-139.094497	-66.362035	8.358256
52893		10.568695	-0.710886	-0.928905	3.219917	0.390518	0.313669	-0.298774	-0.960023	1.141396	-0.656006	0.603027	0.323486	0.105768	-0.006519	-0.008771	-0.329491	0.772411	0.244356	0.484878	-138.974002	-65.515968	8.039465
52894		10.626672	-0.176937	-0.580760	3.975061	0.300648	0.056499	-0.318607	-1.062576	1.203863	-0.640869	0.600830	0.331787	0.106304	-0.001138	-0.005241	-0.329865	0.776973	0.240691	0.479135	-138.903279	-64.600678	7.760792
52895		10.814021	-0.139244	0.046217	4.612412	0.754352	-0.059831	-0.358372	-1.175244	1.287950	-0.630859	0.614258	0.342285	0.108141	-0.000694	0.001099	-0.330123	0.781909	0.236778	0.472835	-138.881308	-63.606172	7.508768
52896		11.567725	-0.492600	-0.101544	4.805571	0.931687	0.680140	-0.320132	-1.357104	1.391573	-0.614990	0.615967	0.344727	0.115711	-0.004122	-0.000223	-0.330534	0.787270	0.232824	0.465560	-138.893493	-62.493149	7.317373
52897		12.267468	-0.795059	-0.983602	4.632879	0.541714	1.603433	-0.324002	-1.498571	1.460306	-0.601074	0.623535	0.367432	0.122797	-0.007069	-0.008904	-0.330887	0.792960	0.228806	0.457576	-138.959846	-61.294171	7.182800
52898		12.742040	-0.118130	-0.902169	5.596310	0.191938	1.668859	-0.331989	-1.525233	1.474238	-0.589600	0.642578	0.370361	0.127488	-0.000256	-0.008049	-0.331175	0.798652	0.224727	0.449417	-139.039928	-60.077802	7.057264
52899		12.793456	0.972104	-0.668022	6.711361	-0.356120	1.136650	-0.465700	-1.631891	1.529437	-0.574707	0.646973	0.387207	0.127904	0.010685	-0.005661	-0.330890	0.804767	0.220281	0.440839	-139.225433	-58.795379	6.963492
52900		12.877870	2.257490	-1.592991	7.301212	-1.880188	0.986572	-0.865256	-1.796416	1.547312	-0.549316	0.642334	0.405762	0.128736	0.023505	-0.014874	-0.328810	0.811808	0.215120	0.431944	-139.716887	-57.434585	6.959241
52901		13.444044	4.426738	-2.687454	8.589303	-4.106817	0.999927	-1.269077	-1.920816	1.568643	-0.531006	0.655518	0.425781	0.134340	0.045155	-0.025869	-0.324941	0.819661	0.209169	0.422868	-140.473556	-56.011752	6.995226
52902		14.423074	7.443442	-2.792121	11.125116	-6.230855	0.609838	-1.713885	-1.955880	1.580488	-0.513672	0.655029	0.442871	0.143906	0.075338	-0.027156	-0.319171	0.828147	0.202242	0.414005	-141.462449	-54.568956	7.004404
52903		15.177485	10.158478	-2.897180	13.239632	-8.255696	0.111835	-2.558530	-1.983152	1.664615	-0.494141	0.645996	0.467529	0.151210	0.102476	-0.028778	-0.309959	0.837890	0.193205	0.405632	-142.855365	-53.084426	6.914583
52904		15.140160	12.499070	-2.685196	14.693285	-9.990844	-1.040827	-3.074138	-2.004619	1.838136	-0.466064	0.634521	0.500244	0.150519	0.125960	-0.027271	-0.298799	0.848326	0.182359	0.397250	-144.404525	-51.533575	6.646999
52905		13.793364	14.101746	-1.152804	15.502998	-10.573895	-3.625564	-3.553767	-2.074234	2.033533	-0.449463	0.623779	0.539795	0.136619	0.142193	-0.012626	-0.285790	0.859394	0.169747	0.388526	-146.101648	-49.890755	6.209568
52906		11.219948	10.929550	-1.232646	12.021186	-8.649356	-4.565729	-4.137779	-2.267491	2.283518	-0.416748	0.620361	0.568115	0.111091	0.110299	-0.013338	-0.270414	0.871358	0.155108	0.378884	-148.026285	-48.088192	5.618480
52907		10.920589	4.038420	-1.277453	8.502333	-3.353332	-2.487396	-3.925641	-2.453579	2.512885	-0.389160	0.599365	0.604248	0.108841	0.041510	-0.012245	-0.256072	0.882968	0.140008	0.367685	-149.733411	-46.138182	4.879204
52908		14.309021	-3.623676	-2.049438	7.384941	2.701062	2.844899	-2.984113	-2.609157	2.887873	-0.349854	0.599121	0.632324	0.143843	-0.034445	-0.018098	-0.246291	0.893344	0.125102	0.354437	-150.750915	-44.018620	3.901473
52909		16.750179	-9.420011	-3.580026	6.627944	6.885025	7.238002	-2.376573	-2.381360	3.240823	-0.321045	0.587158	0.652100	0.169405	-0.091866	-0.032690	-0.239860	0.902282	0.109333	0.341174	-151.218489	-41.922137	2.590579
52910		11.296595	-13.548774	-3.424525	1.933495	10.361351	4.739565	-2.722610	-1.716019	2.737963	-0.291748	0.575928	0.679199	0.115088	-0.134362	-0.031430	-0.231248	0.909772	0.094401	0.331554	-151.985110	-40.311007	1.384468
52911		7.798767	-13.068167	-5.989301	-1.421263	8.754027	3.927642	-1.341339	-2.221428	1.577373	-0.258301	0.575195	0.686768	0.079669	-0.130452	-0.058139	-0.226684	0.915653	0.087578	0.320193	-152.583527	-38.761278	1.118097
52912		10.101649	-8.107809	-6.717266	1.905838	4.134226	4.049725	0.448239	-2.559507	1.028315	-0.241455	0.578369	0.686035	0.102281	-0.080405	-0.066050	-0.229236	0.919605	0.086506	0.307075	-152.448871	-37.188253	1.317581
52913		11.189026	-5.000437	-5.077255	4.874435	2.194331	2.327971	0.755230	-2.176262	0.690568	-0.231201	0.580566	0.677490	0.112607	-0.049427	-0.049737	-0.232809	0.922320	0.086997	0.295901	-152.187184	-35.897599	1.605809
52914		10.459854	-4.340446	-5.354781	4.562321	1.484621	1.758799	0.294938	-1.719561	0.358801	-0.210693	0.583252	0.689697	0.105132	-0.043138	-0.052709	-0.233940	0.924640	0.087803	0.287408	-152.217101	-34.930281	1.950226
52915		7.869570	-4.210934	-6.941682	1.851454	0.569521	1.327131	0.026065	-1.145172	0.104907	-0.201904	0.581055	0.697510	0.079114	-0.042059	-0.068970	-0.233704	0.926293	0.088712	0.281947	-152.377311	-34.318758	2.259492
52916		5.780614	-4.735020	-9.674702	-1.238637	-0.313351	2.344713	-0.250608	-0.879830	-0.027496	-0.188232	0.583008	0.694092	0.058224	-0.047479	-0.096432	-0.232109	0.927803	0.089540	0.278009	-152.689183	-33.878992	2.560859
52917		6.821318	-7.029896	-9.926124	-1.062409	1.690918	3.989042	-0.588596	-0.956257	0.187767	-0.173096	0.573486	0.694336	0.068752	-0.070526	-0.098726	-0.229207	0.929891	0.088977	0.273586	-153.129783	-33.339532	2.748634
52918		8.674022	-9.516403	-9.168250	0.245140	4.390718	5.370100	-0.514563	-0.680499	0.429762	-0.166504	0.565186	0.708984	0.087255	-0.095212	-0.091141	-0.227096	0.931592	0.087080	0.270150	-153.396823	-32.880650	2.699083
52919		7.175690	-8.686180	-8.351280	-0.318658	3.999759	3.625482	0.115910	0.042824	0.286366	-0.163574	0.570313	0.700439	0.071863	-0.086711	-0.083578	-0.228040	0.931532	0.085872	0.269946	-153.229745	-32.826182	2.514596
52920		4.668521	-5.128761	-7.081210	-0.845311	1.301178	-0.023206	1.200160	0.491328	-0.215489	-0.170654	0.574707	0.695313	0.046456	-0.050911	-0.071233	-0.233544	0.929387	0.087959	0.271954	-152.531207	-33.133159	2.495989
52921		3.939382	-1.176932	-5.315950	0.471174	-1.433779	-3.264045	1.939678	0.544289	-0.621350	-0.170410	0.576904	0.681396	0.039213	-0.011374	-0.053378	-0.241938	0.926064	0.092861	0.274314	-151.531729	-33.572904	2.700544
52922		3.493874	1.207008	-4.029560	1.403398	-2.934181	-5.416971	1.503221	0.766212	-0.876905	-0.178711	0.589355	0.674561	0.034838	0.012220	-0.040338	-0.248039	0.922745	0.098078	0.278207	-150.825154	-34.199970	2.979365
52923		2.880556	1.152715	-3.607346	1.043662	-2.711860	-6.044980	0.173287	1.310623	-1.113987	-0.196045	0.583252	0.667236	0.028632	0.011399	-0.036252	-0.247922	0.920133	0.101848	0.285513	-150.859718	-35.164134	3.215614
52924		2.080977	-0.263739	-4.206713	-0.438458	-1.824917	-5.503062	-0.934104	1.823229	-1.327187	-0.214355	0.573242	0.669189	0.020406	-0.002971	-0.042241	-0.242637	0.917942	0.104379	0.295996	-151.513906	-36.446218	3.420123
52925		1.569320	-1.968474	-5.016294	-1.943391	-0.744494	-4.600430	-1.229935	2.161446	-1.490226	-0.233643	0.562012	0.676758	0.015002	-0.020107	-0.050205	-0.235888	0.915369	0.106784	0.308308	-152.349661	-37.938088	3.637803
52926		1.274061	-3.449140	-5.543522	-3.110424	0.318756	-3.941523	-0.957910	2.474836	-1.596150	-0.257813	0.549316	0.671143	0.011778	-0.034853	-0.055419	-0.230333	0.911721	0.109707	0.321987	-153.030494	-39.617787	3.849532
52927		1.226432	-4.130715	-5.673401	-3.640793	0.885340	-3.753762	-0.510298	2.800519	-1.727807	-0.288330	0.545166	0.675781	0.011111	-0.041551	-0.056789	-0.226728	0.906734	0.113539	0.336951	-153.462955	-41.493534	4.065807
52928		1.339395	-4.130493	-5.502959	-3.668940	0.986297	-3.922169	-0.153732	3.108387	-1.909726	-0.311523	0.537842	0.667236	0.012142	-0.041467	-0.055193	-0.224537	0.900437	0.118421	0.353233	-153.725540	-43.575273	4.324921
52929		1.600964	-3.912100	-5.104770	-3.389929	0.997485	-4.206112	0.024620	3.467274	-2.136899	-0.346680	0.526855	0.651855	0.014702	-0.039276	-0.051315	-0.222877	0.892843	0.124186	0.371126	-153.934094	-45.895494	4.642040
52930		1.954355	-3.398255	-4.422479	-2.765064	0.892750	-4.667068	0.013574	3.845359	-2.431219	-0.379883	0.512451	0.637451	0.018274	-0.034207	-0.044587	-0.220753	0.883953	0.130771	0.390888	-154.241960	-48.485696	5.073192
52931		2.664420	-2.819208	-4.285726	-2.224706	0.493696	-4.500931	-0.124854	4.084901	-2.716286	-0.418457	0.501465	0.621582	0.025376	-0.028569	-0.043366	-0.217494	0.874077	0.138001	0.411877	-154.788124	-51.265362	5.694466
52932		3.800787	-2.704461	-4.642832	-1.991734	0.300604	-3.547739	-0.450049	4.091474	-2.845504	-0.455566	0.492676	0.608887	0.036658	-0.027678	-0.047126	-0.212418	0.863906	0.145040	0.433023	-155.703339	-54.076475	6.521771
52933		5.515100	-3.405876	-5.314935	-2.116468	0.731538	-1.735841	-0.767251	4.070864	-2.875734	-0.491455	0.464355	0.580811	0.053557	-0.035043	-0.054117	-0.205758	0.853559	0.151448	0.454053	-156.979474	-56.871317	7.537429
52934		6.990660	-3.884486	-6.078909	-2.525575	0.936095	-0.136200	-0.752361	4.244490	-2.885429	-0.534180	0.453369	0.570801	0.068026	-0.040067	-0.062097	-0.199137	0.842228	0.157658	0.475541	-158.396280	-59.748249	8.696262
52935		7.342281	-3.389949	-6.686598	-3.091458	0.280699	0.209743	-0.388700	4.460110	-2.966816	-0.563232	0.425049	0.548828	0.071394	-0.035101	-0.068406	-0.193885	0.829383	0.164746	0.497385	-159.858223	-62.738904	10.109932
52936		7.121714	-2.843116	-6.934368	-3.654433	-0.319677	-0.148086	0.006621	4.529435	-3.051409	-0.598145	0.405762	0.521484	0.069178	-0.029495	-0.070927	-0.189977	0.815294	0.172984	0.518922	-161.499939	-65.765760	11.936947
52937		6.809207	-3.023185	-7.061794	-4.478500	-0.268710	-0.581302	0.315193	4.598812	-3.103011	-0.635254	0.388916	0.500000	0.065965	-0.031153	-0.072200	-0.187109	0.800080	0.182032	0.540117	-163.481522	-68.811020	14.280676
52938		6.731819	-3.613349	-7.044975	-5.286224	0.195632	-0.868731	0.611296	4.696703	-3.184683	-0.665283	0.368896	0.467773	0.065053	-0.036963	-0.072107	-0.185145	0.783607	0.191973	0.561094	-166.091510	-71.886274	17.423576
52939		7.379888	-3.710874	-6.524854	-5.232764	0.533735	-0.696201	0.942257	4.651104	-3.347530	-0.697998	0.352051	0.429932	0.071621	-0.038006	-0.067109	-0.183825	0.766161	0.203361	0.581249	-169.998632	-74.889761	22.063224
52940		8.614742	-3.134246	-5.643840	-4.444586	0.556782	-0.025157	1.099264	4.445548	-3.495814	-0.735352	0.337402	0.394531	0.084301	-0.032509	-0.058503	-0.182312	0.748368	0.215794	0.600118	-176.278717	-77.661132	29.174464
52941		9.704958	-2.702028	-5.148249	-4.160554	0.534807	0.692722	0.996005	4.235975	-3.619453	-0.753906	0.311523	0.359131	0.095422	-0.028494	-0.053655	-0.179667	0.730563	0.228393	0.617927	173.443041	-80.043419	40.229099
52942		10.267101	-3.433094	-5.266656	-5.177949	1.128200	0.995462	0.831961	4.145633	-3.769786	-0.783691	0.275879	0.328857	0.100880	-0.036018	-0.054918	-0.175712	0.712421	0.240933	0.635243	156.979100	-81.805427	57.380024
52943		10.101945	-4.207918	-5.063990	-6.059437	1.843667	0.446208	1.006067	4.122647	-3.912146	-0.803467	0.251221	0.294434	0.099099	-0.043768	-0.052913	-0.171753	0.693452	0.254356	0.651865	134.298545	-82.501054	80.851087
52944		10.042786	-3.371817	-3.866852	-5.172042	1.821805	0.040122	1.351132	3.889472	-3.944948	-0.816895	0.217773	0.247803	0.098960	-0.035409	-0.040838	-0.168447	0.674330	0.269007	0.666738	112.384053	-81.821588	103.748428
52945		11.577028	-2.413006	-2.593426	-4.190153	2.024383	1.362717	1.257414	3.438506	-3.683885	-0.830566	0.197510	0.223877	0.114831	-0.026079	-0.028074	-0.164962	0.656646	0.282647	0.679496	97.532942	-80.274411	119.508926
52946		12.682081	-1.239450	-2.708301	-4.227543	1.235248	2.446226	0.970100	3.048180	-3.306728	-0.844238	0.165039	0.194580	0.126161	-0.014346	-0.029076	-0.161166	0.640658	0.294223	0.690663	88.286305	-78.462878	129.481047
52947		12.604028	0.626862	-2.954543	-3.793502	-0.330326	2.575385	0.766308	2.751989	-2.873254	-0.857422	0.142822	0.167969	0.125692	0.004579	-0.031257	-0.157702	0.626197	0.303810	0.700505	82.224038	-76.688052	136.137800
52948		10.648589	1.801731	-2.460760	-2.778269	-1.204039	0.841662	0.310151	2.468802	-2.332976	-0.858154	0.122803	0.144287	0.106372	0.016816	-0.025894	-0.154217	0.613687	0.310221	0.709484	77.788520	-75.124452	140.894027
52949		8.402734	2.412918	-1.116380	-1.203581	-1.178010	-1.162028	-0.056541	2.085142	-1.628170	-0.858154	0.111572	0.137939	0.084098	0.023441	-0.012047	-0.151475	0.603774	0.313396	0.717144	74.390373	-73.930938	144.386678
52950		6.760911	2.894284	0.032815	0.164030	-1.096831	-2.542440	-0.499854	1.514537	-0.809214	-0.869141	0.092773	0.122314	0.067725	0.028669	-0.000256	-0.149419	0.597447	0.312899	0.723067	71.756090	-73.234630	146.834710
52951		5.935882	2.095470	0.040683	-0.190709	-0.652243	-3.554480	-1.090723	0.762616	0.059972	-0.859619	0.098877	0.126221	0.059353	0.020973	0.000066	-0.147554	0.595604	0.308214	0.726972	69.742206	-73.123104	148.286340
52952		5.643369	-0.023968	-1.284634	-2.394973	0.067989	-4.544112	-1.460543	-0.015267	0.816880	-0.863770	0.104980	0.125000	0.056435	-0.000103	-0.012841	-0.146132	0.597992	0.300485	0.728532	68.385395	-73.563633	148.829538
52953		5.699010	-2.423501	-3.192847	-5.237524	0.773414	-5.283254	-1.379396	-0.648443	1.353762	-0.865234	0.107666	0.130127	0.057256	-0.024067	-0.031577	-0.145944	0.603384	0.291885	0.727620	67.801560	-74.422166	148.615305
52954		5.798804	-4.046754	-4.200208	-6.899657	1.481724	-5.588832	-0.802293	-1.111207	1.776519	-0.855957	0.128418	0.132324	0.058577	-0.040116	-0.041516	-0.148344	0.610586	0.284411	0.724078	68.133613	-75.605132	147.796178
52955		6.434266	-4.850909	-4.265799	-7.430026	2.167548	-4.993984	-0.239589	-1.502725	2.142828	-0.850098	0.139893	0.150879	0.065176	-0.047864	-0.042113	-0.153208	0.619217	0.278106	0.718160	69.489067	-77.061441	146.260674
52956		7.259536	-5.087638	-4.412865	-7.683670	2.345632	-4.023951	-0.066939	-1.862782	2.540201	-0.845459	0.157227	0.169434	0.073640	-0.049960	-0.043429	-0.159503	0.629434	0.271403	0.710430	71.930210	-78.789015	143.725818
52957		9.080821	-6.512016	-3.225373	-7.603672	4.331809	-2.152606	0.086984	-1.930038	2.883917	-0.831299	0.188477	0.179443	0.092040	-0.063785	-0.031397	-0.167365	0.640058	0.264150	0.701812	75.286431	-80.687010	140.366774
52958		14.274512	-0.552586	1.456684	-0.795813	2.672652	4.272923	3.469948	-0.685603	2.475784	-0.826172	0.217773	0.182617	0.142750	-0.004016	0.014978	-0.186205	0.642704	0.268922	0.692777	77.630727	-82.159024	140.007108
52959		23.634103	20.549351	9.908164	18.050763	-7.783788	16.503670	2.316763	-1.071883	0.764531	-0.825928	0.227783	0.193604	0.235012	0.205218	0.102722	-0.194828	0.645249	0.275480	0.685424	82.986189	-82.694004	135.944288
52960		21.438665	-2.557926	-5.538056	-7.692909	0.419828	11.102903	-0.814081	-1.284009	0.987068	-0.818848	0.227783	0.202637	0.214859	-0.024741	-0.053900	-0.193799	0.651795	0.270756	0.681392	88.174876	-83.315213	130.247346
52961		5.872526	-4.444126	-1.508025	-4.370265	2.994281	-4.479298	2.328902	-0.586859	0.671472	-0.807861	0.239258	0.200684	0.058919	-0.044065	-0.015422	-0.202855	0.652414	0.277066	0.675604	92.515936	-83.696863	127.221855
52962		4.693673	-2.417875	-3.788822	-4.720362	-0.182391	-5.350020	1.463347	-1.592361	0.790675	-0.808838	0.242188	0.210205	0.047332	-0.023716	-0.037687	-0.208073	0.657383	0.281036	0.667512	102.358320	-84.028477	118.166714
52963		7.257776	-0.232045	-7.639634	-6.201716	-4.107100	-2.345718	1.427613	-2.531599	0.689311	-0.791992	0.260498	0.227539	0.073543	-0.001527	-0.075482	-0.211473	0.665258	0.286154	0.656374	117.417008	-83.903171	103.848108
52964		9.923349	3.647323	-8.222064	-3.864175	-7.075968	0.881456	1.751280	-2.214123	0.598735	-0.789307	0.268066	0.239014	0.100022	0.037484	-0.080791	-0.216066	0.671483	0.292230	0.645776	129.750824	-83.482948	92.449785
52965		12.400472	5.137118	-5.657830	-0.626982	-6.128416	3.386235	1.904788	-1.520805	0.807702	-0.788818	0.282959	0.235107	0.124217	0.052402	-0.055138	-0.222817	0.675477	0.297304	0.636941	138.973304	-83.200517	84.264280
52966		14.524353	2.395517	-5.300047	-1.832298	-3.628176	5.295247	0.949389	-1.903644	1.707585	-0.771240	0.299805	0.252197	0.145525	0.025444	-0.051498	-0.228602	0.682981	0.296666	0.627111	151.228156	-82.860157	72.467486
52967		12.142194	-3.323207	-7.185512	-6.825034	-1.101413	2.926884	-0.337717	-1.927254	2.736511	-0.766113	0.316162	0.269043	0.122547	-0.031680	-0.070623	-0.233125	0.693387	0.288441	0.617793	165.497146	-82.404436	57.886569
52968		11.077278	-7.730541	-8.686814	-10.658423	0.907337	2.165945	-0.414715	-1.010270	2.746551	-0.748047	0.330078	0.274170	0.112258	-0.075950	-0.086145	-0.238680	0.700901	0.278797	0.611589	177.329300	-82.060291	45.706483
52969		8.951794	-11.111858	-8.336001	-12.648230	3.284020	0.302547	0.373005	-0.422782	2.786008	-0.739014	0.353271	0.269775	0.091229	-0.109700	-0.083374	-0.247882	0.705577	0.270668	0.606180	-171.342617	-81.729923	34.481343
52970		5.478126	-8.898996	-6.619090	-10.174034	2.362578	-3.185730	1.467246	-0.193521	1.335981	-0.738770	0.378418	0.273438	0.055436	-0.088133	-0.066786	-0.256827	0.706147	0.270639	0.601790	-165.576184	-81.462522	29.502718
52971		6.913679	-3.967711	-3.713942	-4.470163	0.786068	-2.280464	1.708809	-0.811106	-0.005207	-0.737061	0.375488	0.277100	0.069287	-0.039361	-0.037196	-0.261724	0.706369	0.276846	0.596573	-165.384094	-81.010183	30.299588
52972		8.055691	-2.650565	-4.197007	-3.680196	-0.391523	-1.104255	0.431338	-1.072379	-0.318778	-0.740723	0.381592	0.289063	0.080738	-0.026544	-0.041595	-0.260804	0.708580	0.280665	0.592556	-167.119434	-80.450979	32.308789
52973		10.427903	-2.947468	-6.548819	-5.145846	-1.550223	1.651697	-0.285218	-0.654027	-0.178505	-0.740479	0.376709	0.281250	0.104466	-0.029661	-0.065105	-0.258334	0.710649	0.281322	0.590847	-168.341299	-80.103258	33.383246
52974		12.628296	-2.320930	-7.015175	-4.649622	-2.082506	3.902875	0.664860	-0.441104	0.271302	-0.733398	0.382080	0.280762	0.126469	-0.022805	-0.069949	-0.260871	0.711500	0.282897	0.587948	-167.400772	-79.817500	32.815509
52975		12.395008	0.060428	-4.570776	-1.199188	-2.100834	3.174945	1.194336	-0.393524	0.638265	-0.729492	0.389893	0.277100	0.124036	0.001272	-0.045457	-0.266422	0.711999	0.284662	0.583990	-165.073328	-79.508247	31.145865
52976		11.283868	-1.229504	-3.392818	-1.395009	-0.515424	1.940455	-0.023203	-0.156350	0.660305	-0.730957	0.399658	0.281250	0.112905	-0.011926	-0.033839	-0.268039	0.713455	0.282458	0.582541	-163.271210	-79.312623	29.299547
52977		9.656835	-4.591298	-4.672656	-4.879176	0.741900	0.761396	-0.309815	0.029933	0.557698	-0.729980	0.398438	0.272217	0.096689	-0.045716	-0.046670	-0.268588	0.714581	0.279543	0.582314	-161.823536	-79.230052	27.646045
52978		8.058123	-4.844884	-3.707448	-4.638870	1.425166	-0.946977	0.661409	0.097655	0.353342	-0.733887	0.410889	0.277344	0.080648	-0.048183	-0.037273	-0.272110	0.713932	0.280080	0.581216	-160.345398	-79.210949	26.527637
52979		8.248153	-3.490816	-0.688434	-1.588759	2.600863	-1.362662	1.004606	0.066505	0.234845	-0.740479	0.409668	0.270752	0.082520	-0.034776	-0.007087	-0.276457	0.712705	0.282085	0.579698	-159.050248	-79.197022	25.795712
52980		8.935994	-2.842175	0.499806	-0.206318	3.033836	-0.928264	0.575855	-0.050032	0.254206	-0.740479	0.412842	0.265381	0.089395	-0.028322	0.004939	-0.279172	0.712444	0.282922	0.578309	-158.069409	-79.110603	25.133476
52981		9.585600	-2.586144	-0.080725	-0.284095	2.471528	-0.200759	0.600158	-0.140261	0.226197	-0.741455	0.415527	0.260498	0.095886	-0.025751	-0.000817	-0.281753	0.712342	0.284065	0.576621	-157.275750	-78.984135	24.675932
52982		10.366889	-2.449718	-0.359740	-0.221352	2.218701	0.609944	0.967524	-0.099793	0.157322	-0.747070	0.424561	0.260498	0.103690	-0.024398	-0.003664	-0.285506	0.711516	0.286435	0.574618	-156.414211	-78.889724	24.363440
52983		10.227096	-2.148037	-0.158695	0.105748	2.128703	0.419131	1.042731	0.045000	0.072287	-0.745605	0.425049	0.250244	0.102278	-0.021435	-0.001722	-0.289473	0.710006	0.289125	0.573153	-155.582833	-78.893609	24.125631
52984		9.547654	-2.227712	-0.261667	-0.151319	2.025595	-0.217749	0.890462	0.118310	0.043571	-0.752441	0.419189	0.245850	0.095480	-0.022244	-0.002772	-0.292927	0.708468	0.291351	0.572173	-154.813312	-78.938382	23.861898
52985		8.958762	-1.796608	-0.814785	-0.297382	1.255152	-0.730442	0.900859	0.110058	0.049171	-0.757568	0.430908	0.238525	0.089587	-0.017907	-0.008278	-0.296405	0.706911	0.293609	0.571152	-154.040061	-78.980349	23.600547
52986		9.166769	-0.359318	-0.936719	0.743851	0.218038	-0.623819	0.994155	0.117028	0.081140	-0.750732	0.433838	0.243164	0.091664	-0.003509	-0.009438	-0.300319	0.705247	0.295987	0.569936	-153.104341	-79.013492	23.228102
52987		9.344130	0.981255	-0.564771	2.033494	-0.367666	-0.629862	0.916191	0.151777	0.138840	-0.754883	0.445068	0.231934	0.093430	0.009903	-0.005673	-0.304155	0.703650	0.297896	0.568880	-152.021521	-79.051351	22.660435
52988		9.620905	1.111950	-0.725363	2.098269	-0.568187	-0.347024	0.637796	0.050055	0.202028	-0.764893	0.453857	0.225586	0.096196	0.011240	-0.007242	-0.307047	0.702867	0.298924	0.567753	-151.062914	-79.015335	22.056738
52989		9.559549	0.599519	-1.563954	1.204649	-0.909168	-0.225588	0.604714	-0.056066	0.279164	-0.763184	0.455078	0.222900	0.095591	0.006176	-0.015594	-0.309867	0.702525	0.299764	0.566200	-150.096748	-78.906210	21.425961
52990		9.440592	0.259211	-1.900065	0.753787	-0.980817	-0.259057	0.696550	-0.104204	0.325363	-0.758789	0.459229	0.216553	0.094411	0.002812	-0.018942	-0.313076	0.702255	0.300756	0.564240	-149.040527	-78.754374	20.756655
52991		9.481836	0.454758	-1.806392	1.014951	-1.043850	-0.259934	0.737325	-0.148592	0.378499	-0.760498	0.468506	0.218750	0.094823	0.004793	-0.017976	-0.316495	0.702096	0.301756	0.561992	-147.931722	-78.565963	20.057237
52992		9.969257	0.970121	-1.780112	1.577603	-1.321995	0.150205	0.639462	-0.213800	0.423374	-0.766113	0.462158	0.218262	0.099691	0.009969	-0.017663	-0.319604	0.702350	0.302407	0.559561	-146.893203	-78.326257	19.371710
52993		10.407348	1.111082	-1.566600	1.957340	-1.222645	0.515684	0.402023	-0.215923	0.482743	-0.759033	0.472412	0.215088	0.104063	0.011393	-0.015531	-0.322027	0.703050	0.302200	0.557400	-145.901555	-78.067770	18.594559
52994		10.636354	1.277763	-1.399794	2.292633	-1.192955	0.677521	0.169844	-0.205236	0.553268	-0.758545	0.478271	0.211670	0.106342	0.013084	-0.013878	-0.323853	0.704212	0.301062	0.555487	-144.902589	-77.785276	17.673016
52995		10.399359	1.391302	-1.039262	2.607377	-1.012497	0.352867	-0.084798	-0.214269	0.630472	-0.757813	0.483643	0.216064	0.103960	0.014236	-0.010287	-0.324970	0.705902	0.298972	0.553816	-143.950370	-77.472998	16.649024
52996		9.940418	1.095637	-0.905585	2.423488	-0.778853	-0.099187	-0.293901	-0.245744	0.718039	-0.752930	0.491943	0.220459	0.099375	0.011300	-0.008950	-0.325548	0.708158	0.296027	0.552177	-143.031150	-77.109548	15.534596
52997		9.402114	0.726153	-0.906921	2.086013	-0.609720	-0.591739	-0.313928	-0.285629	0.773341	-0.757813	0.494629	0.213623	0.094005	0.007611	-0.008947	-0.326135	0.710608	0.292904	0.550345	-142.137933	-76.708164	14.433485
52998		9.403546	-0.192395	-0.962276	1.416795	-0.107596	-0.465484	-0.395515	-0.381265	0.838630	-0.752197	0.507813	0.224365	0.094061	-0.001548	-0.009440	-0.326472	0.713550	0.289461	0.548156	-141.366176	-76.233827	13.407117
52999		9.828903	-1.123955	-1.378198	0.639887	0.153328	0.154071	-0.470241	-0.461443	0.911488	-0.739014	0.505615	0.223145	0.098370	-0.010823	-0.013529	-0.326608	0.716903	0.285689	0.545673	-140.688540	-75.697715	12.431525
