// General information: 
//  MT Manager version: 2021.4.0 
//  XDA version: 2021.4.0 build 6323 rev 112641 built on 2021-09-28
// Device information: 
//  DeviceId: 00B47796
//  ProductCode: MTW2-3A7G6
//  Firmware Version: 4.6.0
//  Hardware Version: 2.0.0
// Device settings: 
//  Filter Profile: human(46.1)
//  Option Flags: Orientation Smoother Disabled, Position/Velocity Smoother Disabled, Continuous Zero Rotation Update Disabled, AHS Disabled, ICC Disabled
// Coordinate system: ENU
PacketCounter	SampleTimeFine	Acc_X	Acc_Y	Acc_Z	FreeAcc_E	FreeAcc_N	FreeAcc_U	Gyr_X	Gyr_Y	Gyr_Z	Mag_X	Mag_Y	Mag_Z	VelInc_X	VelInc_Y	VelInc_Z	Quat_q0	Quat_q1	Quat_q2	Quat_q3	Roll	Pitch	Yaw
52456		4.652323	-3.512501	7.755685	-0.017840	0.015526	-0.110530	-0.000177	0.004673	-0.001439	-0.719727	0.406494	-0.571289	0.046525	-0.035125	0.077556	-0.013864	0.254698	-0.186376	0.948789	-24.249910	-28.564089	-172.064971
52457		4.631469	-3.487932	7.769022	0.005309	-0.010003	-0.118682	-0.000149	0.006250	-0.000635	-0.717285	0.413818	-0.571777	0.046317	-0.034879	0.077689	-0.013869	0.254702	-0.186406	0.948782	-24.253951	-28.564160	-172.063188
52458		4.650795	-3.526478	7.736594	-0.024659	0.034484	-0.121504	0.005779	0.007429	-0.003506	-0.726563	0.417969	-0.576172	0.046510	-0.035268	0.077363	-0.013868	0.254702	-0.186403	0.948783	-24.253561	-28.564193	-172.063511
52459		4.630567	-3.487014	7.769971	0.006562	-0.011299	-0.118684	0.004057	0.008259	-0.006036	-0.715332	0.410156	-0.558105	0.046308	-0.034873	0.077697	-0.013851	0.254701	-0.186406	0.948783	-24.253399	-28.564485	-172.065480
52460		4.641532	-3.483821	7.738101	-0.018834	-0.004524	-0.140115	0.007527	0.008174	-0.000172	-0.711914	0.411621	-0.572021	0.046418	-0.034841	0.077378	-0.013870	0.254695	-0.186400	0.948785	-24.252994	-28.563418	-172.063554
52461		4.628054	-3.514432	7.731712	-0.008321	0.027904	-0.140633	0.006434	0.010108	-0.004484	-0.715576	0.417236	-0.574951	0.046284	-0.035148	0.077314	-0.013862	0.254684	-0.186393	0.948790	-24.251674	-28.562379	-172.065095
52462		4.627487	-3.513640	7.732411	-0.007727	0.027248	-0.140630	0.007895	0.009220	-0.005805	-0.723389	0.410889	-0.565430	0.046277	-0.035141	0.077321	-0.013856	0.254677	-0.186377	0.948795	-24.249251	-28.561886	-172.066571
52463		4.616077	-3.501043	7.785349	0.027019	-0.001102	-0.108235	0.007061	0.011211	-0.006267	-0.723633	0.408447	-0.568848	0.046164	-0.035015	0.077850	-0.013840	0.254662	-0.186365	0.948801	-24.246924	-28.560691	-172.069468
52464		4.628301	-3.468722	7.793244	0.017787	-0.034829	-0.107723	0.009778	0.012530	-0.011151	-0.713867	0.410889	-0.569580	0.046286	-0.034694	0.077928	-0.013800	0.254646	-0.186335	0.948812	-24.241458	-28.560008	-172.075927
52465		4.605250	-3.486051	7.747907	0.016695	0.000435	-0.148803	0.009381	0.009907	-0.006322	-0.721924	0.416016	-0.571533	0.046055	-0.034866	0.077475	-0.013787	0.254637	-0.186312	0.948819	-24.237953	-28.559506	-172.078507
52466		4.592591	-3.501821	7.761414	0.035266	0.012600	-0.138351	0.008889	0.011366	-0.013221	-0.721680	0.409424	-0.564209	0.045928	-0.035025	0.077610	-0.013743	0.254627	-0.186283	0.948828	-24.232596	-28.559750	-172.085197
52467		4.617946	-3.438164	7.776198	0.016153	-0.054212	-0.137335	0.006977	0.006479	-0.008679	-0.726563	0.415527	-0.574951	0.046180	-0.034386	0.077759	-0.013719	0.254637	-0.186268	0.948829	-24.230237	-28.561594	-172.088261
52468		4.638220	-3.461681	7.763730	-0.005726	-0.030001	-0.129151	0.008465	0.007167	-0.009195	-0.713867	0.413086	-0.573242	0.046383	-0.034622	0.077634	-0.013694	0.254644	-0.186246	0.948832	-24.226793	-28.563203	-172.091829
52469		4.625908	-3.477582	7.776971	0.012867	-0.017834	-0.118700	0.006089	0.005315	-0.010748	-0.712402	0.408936	-0.573975	0.046259	-0.034781	0.077767	-0.013661	0.254662	-0.186233	0.948830	-24.224503	-28.566141	-172.095813
52470		4.624655	-3.505349	7.737867	-0.002710	0.022046	-0.140614	0.005435	0.002635	-0.009769	-0.710449	0.410889	-0.566650	0.046246	-0.035058	0.077377	-0.013636	0.254689	-0.186223	0.948825	-24.223139	-28.570028	-172.098234
52471		4.567226	-3.544843	7.769634	0.066224	0.055255	-0.128409	0.009846	0.001547	-0.012926	-0.718994	0.410400	-0.567383	0.045671	-0.035455	0.077694	-0.013601	0.254727	-0.186189	0.948822	-24.218558	-28.575446	-172.102506
52472		4.614330	-3.490979	7.790902	0.032679	-0.006971	-0.108255	0.010240	0.004166	-0.017757	-0.714355	0.419189	-0.574219	0.046142	-0.034918	0.077906	-0.013543	0.254755	-0.186146	0.948823	-24.212056	-28.580536	-172.110029
52473		4.614354	-3.503621	7.771532	0.025223	0.012641	-0.119208	0.010968	-0.004134	-0.020507	-0.718262	0.409424	-0.572998	0.046138	-0.035045	0.077714	-0.013479	0.254826	-0.186097	0.948815	-24.205398	-28.590703	-172.117294
52474		4.627293	-3.484803	7.759213	0.007866	-0.000833	-0.129660	0.014021	0.001973	-0.019132	-0.718506	0.409180	-0.576416	0.046270	-0.034858	0.077589	-0.013424	0.254866	-0.186034	0.948817	-24.196603	-28.597155	-172.124796
52475		4.650064	-3.464536	7.805965	0.010265	-0.037429	-0.088610	0.010495	0.004223	-0.013908	-0.727295	0.409180	-0.569092	0.046500	-0.034653	0.078057	-0.013382	0.254891	-0.185996	0.948819	-24.191024	-28.601403	-172.130372
52476		4.682667	-3.484996	7.760820	-0.037677	-0.005768	-0.101795	0.008016	-0.003939	-0.018671	-0.731445	0.413818	-0.568848	0.046822	-0.034857	0.077608	-0.013319	0.254959	-0.185963	0.948808	-24.186458	-28.610989	-172.136984
52477		4.663684	-3.444785	7.793628	-0.006429	-0.051542	-0.099066	0.005066	-0.003741	-0.016835	-0.717773	0.413330	-0.570313	0.046632	-0.034454	0.077936	-0.013264	0.255025	-0.185947	0.948794	-24.184172	-28.620086	-172.142174
52478		4.683772	-3.496923	7.741131	-0.044503	0.013183	-0.112732	0.003604	-0.002853	-0.015516	-0.718018	0.411865	-0.574707	0.046834	-0.034974	0.077411	-0.013214	0.255086	-0.185939	0.948780	-24.183031	-28.628398	-172.146562
52479		4.651942	-3.488400	7.766783	-0.003391	0.000495	-0.110501	0.002090	-0.005120	-0.015801	-0.721924	0.407227	-0.574707	0.046515	-0.034888	0.077669	-0.013161	0.255158	-0.185937	0.948762	-24.182920	-28.637974	-172.150770
52480		4.640202	-3.518790	7.759557	0.007080	0.032939	-0.110989	0.001203	-0.006286	-0.017871	-0.720459	0.410156	-0.571777	0.046396	-0.035193	0.077597	-0.013097	0.255236	-0.185937	0.948742	-24.182769	-28.648503	-172.156068
52481		4.592818	-3.613172	7.679435	0.017547	0.154685	-0.163932	0.007334	-0.008200	-0.018497	-0.720947	0.410889	-0.574951	0.045922	-0.036139	0.076795	-0.013041	0.255324	-0.185907	0.948724	-24.179276	-28.660320	-172.161058
52482		4.503178	-3.658345	7.717253	0.118829	0.196153	-0.160460	0.024027	-0.001161	-0.030628	-0.728027	0.408691	-0.569824	0.045026	-0.036600	0.077168	-0.012943	0.255389	-0.185783	0.948733	-24.161785	-28.671179	-172.175159
52483		4.540470	-3.403570	7.805940	0.113441	-0.072969	-0.163094	0.028196	-0.000740	-0.036838	-0.723389	0.408203	-0.565430	0.045398	-0.034055	0.078055	-0.012819	0.255458	-0.185631	0.948746	-24.140133	-28.683393	-172.193081
52484		4.596574	-3.403209	7.807279	0.067296	-0.077282	-0.135217	0.021308	-0.007826	-0.038443	-0.730225	0.402344	-0.567871	0.045956	-0.034049	0.078071	-0.012683	0.255562	-0.185510	0.948743	-24.122852	-28.699734	-172.210373
52485		4.651841	-3.431786	7.768851	0.004935	-0.041063	-0.129191	0.020415	-0.008999	-0.040515	-0.728271	0.410400	-0.557129	0.046508	-0.034335	0.077687	-0.012540	0.255674	-0.185390	0.948738	-24.105648	-28.717118	-172.228297
52486		4.757608	-3.349701	7.738341	-0.104928	-0.116919	-0.132162	0.013818	-0.014442	-0.037463	-0.728760	0.406982	-0.558594	0.047564	-0.033511	0.077385	-0.012404	0.255810	-0.185306	0.948720	-24.093808	-28.736816	-172.243468
52487		5.526978	-3.043379	7.371733	-0.970919	-0.364316	-0.165062	0.006281	-0.029563	-0.050783	-0.733398	0.409668	-0.556885	0.055251	-0.030450	0.073725	-0.012213	0.256030	-0.185239	0.948676	-24.084374	-28.767351	-172.262049
52488		5.835046	-2.661781	7.508408	-1.194644	-0.800820	-0.043320	0.007931	-0.017829	-0.045690	-0.739258	0.403809	-0.555176	0.058338	-0.026634	0.075088	-0.012036	0.256191	-0.185172	0.948648	-24.074069	-28.790816	-172.280814
52489		6.857718	-2.532591	7.050200	-2.311775	-0.881786	0.037479	-0.009735	-0.049670	-0.043797	-0.732178	0.399902	-0.551758	0.068554	-0.025337	0.070520	-0.011876	0.256501	-0.185188	0.948563	-24.078381	-28.830232	-172.289879
52490		5.954884	-2.864242	7.286691	-1.380597	-0.548880	-0.088847	-0.024784	-0.063870	-0.032331	-0.738037	0.401367	-0.545166	0.059521	-0.028643	0.072889	-0.011757	0.256870	-0.185291	0.948444	-24.096464	-28.874803	-172.289192
52491		5.045533	-3.328906	7.528471	-0.430791	-0.094753	-0.167879	-0.025604	-0.072268	-0.024273	-0.742188	0.406738	-0.547607	0.050424	-0.033286	0.075307	-0.011690	0.257270	-0.185406	0.948314	-24.118420	-28.921473	-172.280536
52492		4.778152	-3.517191	7.668772	-0.106584	0.061165	-0.117517	-0.033600	-0.093202	-0.034376	-0.747803	0.402588	-0.552734	0.047740	-0.035167	0.076716	-0.011582	0.257780	-0.185545	0.948150	-24.144783	-28.981674	-172.272523
52493		4.350172	-3.667578	7.846779	0.374122	0.187622	-0.129099	-0.029899	-0.098582	-0.037383	-0.752930	0.408447	-0.550781	0.043456	-0.036672	0.078495	-0.011473	0.258317	-0.185662	0.947982	-24.168863	-29.045168	-172.264594
52494		4.382805	-3.649541	7.886947	0.376588	0.150990	-0.088109	-0.032358	-0.119391	-0.044749	-0.750732	0.400879	-0.544678	0.043773	-0.036492	0.078902	-0.011344	0.258959	-0.185780	0.947786	-24.194894	-29.121292	-172.255502
52495		4.662903	-3.551164	7.889314	0.142644	0.023458	0.014509	-0.037248	-0.143674	-0.054483	-0.752441	0.396973	-0.544678	0.046563	-0.035510	0.078933	-0.011185	0.259725	-0.185907	0.947553	-24.224167	-29.212361	-172.245594
52496		5.094903	-3.346140	7.565123	-0.389810	-0.108424	-0.105884	-0.044693	-0.175576	-0.058706	-0.753174	0.402344	-0.535400	0.050873	-0.033459	0.075703	-0.011027	0.260647	-0.186061	0.947271	-24.260667	-29.321091	-172.229559
52497		4.929791	-3.258143	7.828156	-0.102092	-0.265229	-0.008731	-0.051371	-0.211111	-0.063308	-0.761963	0.398438	-0.535645	0.049205	-0.032577	0.078342	-0.010871	0.261741	-0.186240	0.946936	-24.304493	-29.449449	-172.206550
52498		4.879435	-3.358185	7.617699	-0.131333	-0.097056	-0.164428	-0.063008	-0.256809	-0.074270	-0.763672	0.398438	-0.531494	0.048684	-0.033576	0.076250	-0.010773	0.263079	-0.186432	0.946529	-24.357920	-29.604245	-172.167575
52499		4.861500	-3.527137	7.665297	-0.049978	0.041632	-0.074754	-0.068013	-0.289825	-0.094624	-0.765137	0.398438	-0.527344	0.048487	-0.035268	0.076735	-0.010520	0.264575	-0.186643	0.946073	-24.412854	-29.781051	-172.141609
52500		4.507259	-2.937413	8.081482	0.451818	-0.613076	-0.134154	-0.090727	-0.331210	-0.154777	-0.777832	0.396973	-0.517822	0.044916	-0.029372	0.080903	-0.010074	0.266339	-0.186855	0.945541	-24.468545	-29.993696	-172.130282
52501		4.205889	-5.111538	7.087315	0.422041	1.788603	-0.290609	-0.100583	-0.385161	-0.245478	-0.775635	0.397949	-0.522949	0.041860	-0.051131	0.070980	-0.009154	0.268427	-0.187013	0.944928	-24.510050	-30.256000	-172.168594
52502		4.269334	-3.218676	8.202119	0.832246	-0.365664	-0.064087	-0.062534	-0.528991	-0.292506	-0.776855	0.400391	-0.519775	0.042429	-0.032223	0.082144	-0.008279	0.271250	-0.186897	0.944153	-24.535252	-30.604480	-172.185621
52503		4.037510	-3.893450	8.109477	1.109391	0.326611	-0.020543	-0.052911	-0.721157	-0.368263	-0.781250	0.398926	-0.500000	0.040011	-0.038987	0.081250	-0.007157	0.275031	-0.186645	0.943117	-24.558588	-31.071155	-172.205291
52504		4.202941	-3.635272	8.284166	1.129577	0.015821	0.098427	-0.030175	-0.961312	-0.456184	-0.794678	0.393066	-0.497803	0.041548	-0.036435	0.083048	-0.005957	0.280036	-0.186128	0.941754	-24.575678	-31.683898	-172.201549
52505		4.330811	-4.031648	8.295404	1.183453	0.380290	0.300530	-0.017769	-1.182487	-0.571326	-0.799072	0.383057	-0.482910	0.042701	-0.040432	0.083211	-0.004356	0.286163	-0.185402	0.940063	-24.581135	-32.439348	-172.216293
52506		5.050842	-4.636930	7.931802	0.589102	1.010489	0.606303	0.047462	-1.356271	-0.702508	-0.820557	0.376465	-0.477051	0.049806	-0.046564	0.079646	-0.002475	0.293227	-0.184142	0.938138	-24.531285	-33.316539	-172.253667
52507		5.499717	-4.252528	7.745500	0.235275	0.700177	0.568821	0.132093	-1.404867	-0.779014	-0.829590	0.368652	-0.462891	0.054285	-0.042789	0.077810	-0.000321	0.300555	-0.182387	0.936163	-24.412265	-34.237227	-172.337192
52508		5.441958	-5.679216	7.629867	0.536211	2.127794	0.923498	0.304833	-1.369162	-0.820684	-0.837158	0.364502	-0.447021	0.053662	-0.057130	0.076581	0.001719	0.307749	-0.179721	0.934338	-24.169718	-35.148797	-172.451878
52509		5.869956	-7.049686	8.226712	0.850351	3.237593	2.045863	0.578993	-1.299484	-0.747216	-0.849609	0.354248	-0.445313	0.057900	-0.070953	0.082440	0.003138	0.314519	-0.175902	0.932806	-23.780059	-36.006273	-172.556750
52510		6.245151	-8.617959	11.414634	2.748053	3.724098	5.091713	0.758598	-1.034369	-0.445605	-0.848633	0.351563	-0.438232	0.061668	-0.086751	0.114138	0.003020	0.319786	-0.171678	0.931802	-23.353175	-36.654700	-172.538966
52511		7.952904	-11.278885	13.632763	3.099629	5.375824	8.566832	0.075511	-0.558543	0.567589	-0.849854	0.346924	-0.427734	0.079468	-0.112615	0.136507	-0.000237	0.321932	-0.172271	0.930958	-23.633337	-36.821787	-172.003454
52512		1.745854	-11.794498	7.355273	4.274543	8.521374	0.452355	-0.047577	-0.181950	1.261971	-0.836670	0.360352	-0.422363	0.018135	-0.117814	0.073597	-0.006285	0.321731	-0.174524	0.930586	-24.191052	-36.627020	-171.111829
52513		0.556889	-5.454062	7.958616	4.869673	2.499440	-1.848054	0.144122	-0.272581	1.268429	-0.839844	0.374268	-0.418945	0.005806	-0.054562	0.079555	-0.012668	0.321913	-0.175912	0.930197	-24.652498	-36.471919	-170.203521
52514		2.366271	-4.168457	10.315202	4.707617	0.274535	0.538226	-0.083790	-0.087607	1.114032	-0.825684	0.382080	-0.418213	0.023849	-0.041509	0.103180	-0.017885	0.321387	-0.178091	0.929879	-25.148264	-36.251508	-169.444024
52515		1.884433	-3.045963	10.430640	5.029520	-0.782542	-0.029109	-0.163718	0.299063	0.896461	-0.819824	0.385010	-0.409912	0.019136	-0.030289	0.104303	-0.021536	0.319242	-0.180347	0.930105	-25.532345	-35.879932	-168.956231
52516		1.262409	-1.450486	9.760229	4.949262	-2.000532	-1.418529	-0.263111	0.573685	0.597044	-0.817871	0.388184	-0.412842	0.012947	-0.014338	0.097584	-0.023469	0.316106	-0.182588	0.930692	-25.808012	-35.438128	-168.737719
52517		1.811832	-1.420856	9.500289	4.288405	-2.073881	-1.276589	-0.339292	0.820190	0.281688	-0.799805	0.394531	-0.414063	0.018528	-0.014022	0.094951	-0.023508	0.312101	-0.184735	0.931619	-25.965661	-34.947973	-168.806872
52518		1.995348	-1.584128	8.925822	3.733148	-1.804548	-1.508019	-0.370527	1.060268	0.023652	-0.799805	0.400879	-0.422363	0.020428	-0.015674	0.089180	-0.022155	0.307223	-0.186625	0.932896	-26.007947	-34.398477	-169.101499
52519		1.812949	-2.117159	7.827509	3.196379	-0.953387	-2.202662	-0.425898	1.192656	-0.139927	-0.785645	0.398438	-0.422852	0.018581	-0.021018	0.078210	-0.019747	0.301864	-0.188554	0.934310	-26.005669	-33.822561	-169.546231
52520		1.939348	-2.856025	6.723132	2.443309	0.055009	-2.661103	-0.431838	1.192908	-0.220170	-0.780518	0.393066	-0.434570	0.019763	-0.028437	0.067176	-0.017038	0.296580	-0.190358	0.935689	-25.984842	-33.265943	-170.027561
52521		1.729274	-3.196076	5.857327	2.097835	0.670650	-3.281029	-0.458701	1.096252	-0.204757	-0.771240	0.381592	-0.432373	0.017581	-0.031844	0.058551	-0.014370	0.291712	-0.192320	0.936862	-26.005650	-32.755881	-170.477472
52522		1.752602	-3.879676	5.058551	1.653289	1.553461	-3.602562	-0.483397	0.882078	-0.128296	-0.771240	0.389648	-0.439697	0.017724	-0.038686	0.050601	-0.012312	0.287778	-0.194464	0.937665	-26.104261	-32.336508	-170.805057
52523		2.612846	-4.585905	5.276835	1.086751	1.983430	-2.700212	-0.469130	0.659976	-0.003296	-0.760742	0.388916	-0.435059	0.026302	-0.045736	0.052789	-0.010993	0.284746	-0.196727	0.938135	-26.272313	-32.001090	-171.000101
52524		3.555923	-5.085416	5.671368	0.523813	2.143377	-1.700856	-0.433864	0.515651	0.185805	-0.757324	0.385742	-0.435059	0.035753	-0.050698	0.056732	-0.010837	0.282211	-0.199061	0.938411	-26.504038	-31.691426	-171.028321
52525		3.681224	-4.803691	5.262332	0.141302	1.981322	-2.042670	-0.369082	0.392325	0.363748	-0.750244	0.395996	-0.440430	0.037003	-0.047873	0.052639	-0.011646	0.280059	-0.201356	0.938556	-26.773249	-31.400099	-170.923886
52526		3.065997	-3.684750	4.339938	0.042988	1.343902	-3.487757	-0.333350	0.165185	0.463670	-0.741455	0.395996	-0.437988	0.030781	-0.036704	0.043435	-0.013205	0.278861	-0.203610	0.938406	-27.087681	-31.197661	-170.692744
52527		3.161838	-3.344632	3.806218	-0.360616	1.186413	-3.970310	-0.311877	-0.163268	0.470900	-0.741943	0.405273	-0.436768	0.031666	-0.033312	0.038140	-0.015160	0.279199	-0.205748	0.937809	-27.442671	-31.160217	-170.358207
52528		4.123346	-3.476848	3.721803	-1.199300	1.168971	-3.477283	-0.188035	-0.462574	0.437975	-0.754150	0.403320	-0.426514	0.041223	-0.034643	0.037346	-0.017442	0.280957	-0.207237	0.936916	-27.765165	-31.281031	-169.950413
52529		5.401940	-3.008908	4.633501	-1.801064	0.172383	-2.300694	-0.029291	-0.756372	0.403489	-0.743408	0.413574	-0.415283	0.053904	-0.029973	0.046543	-0.020090	0.284114	-0.207902	0.935763	-28.035920	-31.558813	-169.469186
52530		8.389058	-3.131421	6.861166	-3.035965	-1.062059	0.999901	0.099659	-0.816571	0.432622	-0.744141	0.404053	-0.407959	0.083677	-0.031167	0.068938	-0.023119	0.287498	-0.207999	0.934637	-28.255806	-31.856647	-168.948643
52531		9.195558	-2.752742	7.627988	-3.256485	-1.869119	1.858792	0.227979	-0.604994	0.489596	-0.739990	0.421631	-0.405029	0.091792	-0.027390	0.076526	-0.026378	0.289820	-0.207594	0.933924	-28.387032	-32.031647	-168.459610
52532		9.858295	-2.210932	8.402453	-3.373310	-2.798568	2.575373	0.327768	-0.401960	0.504753	-0.740967	0.417480	-0.405273	0.098469	-0.021999	0.084186	-0.029643	0.291155	-0.206772	0.933593	-28.432841	-32.098914	-168.025902
52533		12.098879	-2.286153	9.679796	-4.504293	-3.628109	4.742581	0.320965	-0.015689	0.585720	-0.732666	0.431641	-0.409668	0.121048	-0.022662	0.096771	-0.032874	0.290606	-0.206152	0.933793	-28.441543	-31.949941	-167.668549
52534		11.575468	-1.281050	8.440962	-4.862208	-4.029230	3.110392	0.342436	0.471044	0.605904	-0.735596	0.424316	-0.413330	0.115991	-0.012604	0.084115	-0.035730	0.287752	-0.205540	0.934706	-28.360373	-31.549826	-167.456180
52535		10.352262	1.000416	6.183393	-5.283090	-5.079363	-0.184970	0.350007	0.724861	0.430756	-0.721191	0.430176	-0.409180	0.103724	0.010120	0.061476	-0.037516	0.283889	-0.204680	0.936005	-28.177689	-31.070096	-167.427791
52536		9.985232	1.936069	4.422658	-6.049817	-5.219501	-2.120536	0.286112	0.738269	0.093467	-0.722656	0.422363	-0.429443	0.100006	0.019344	0.043885	-0.037618	0.280313	-0.203640	0.937305	-27.928392	-30.674201	-167.600355
52537		10.517222	1.439475	3.290874	-7.145659	-4.416858	-2.536406	0.278909	0.663634	-0.306727	-0.720703	0.427979	-0.434082	0.105303	0.014188	0.032579	-0.035910	0.277493	-0.202054	0.938553	-27.577505	-30.422515	-167.982413
52538		10.789399	0.509127	2.486767	-7.811792	-3.251172	-2.653127	0.346093	0.543017	-0.671869	-0.718506	0.416992	-0.431641	0.107977	0.004686	0.024583	-0.032703	0.275590	-0.199622	0.939751	-27.100188	-30.325761	-168.540315
52539		10.208409	0.101851	1.353864	-7.930761	-2.274737	-3.649689	0.396817	0.339712	-0.956955	-0.723633	0.412598	-0.436279	0.102110	0.000503	0.013367	-0.028428	0.274913	-0.196520	0.940742	-26.539866	-30.402475	-169.205134
52540		8.725141	-0.057448	-0.109840	-7.443287	-1.269854	-5.439188	0.413257	-0.026431	-1.200522	-0.730225	0.390625	-0.436768	0.087246	-0.001096	-0.001089	-0.023389	0.276186	-0.192946	0.941247	-25.947800	-30.723338	-169.909816
52541		7.683173	-0.290909	-0.826837	-6.907483	-0.556997	-6.381247	0.385921	-0.556087	-1.415916	-0.743408	0.389160	-0.439697	0.076831	-0.003437	-0.008061	-0.017809	0.280148	-0.189132	0.940972	-25.374755	-31.364953	-170.598241
52542		8.528832	-1.382602	1.605886	-6.180726	-0.414322	-3.579221	0.262208	-1.129640	-1.500921	-0.761230	0.385498	-0.433105	0.085089	-0.014487	0.016521	-0.012195	0.286881	-0.185716	0.939713	-24.917007	-32.319649	-171.186837
52543		23.535721	-14.790906	31.480595	-1.294104	-0.032126	32.164129	-0.296192	0.198518	-0.534045	-0.758301	0.374023	-0.431152	0.235274	-0.148071	0.314792	-0.009090	0.286494	-0.186382	0.939734	-24.885971	-32.348465	-171.567960
52544		-5.081559	-2.014943	3.653248	6.405105	1.222808	-8.971830	-0.215334	1.485609	0.008029	-0.752441	0.386963	-0.438965	-0.050541	-0.020112	0.036930	-0.007448	0.279543	-0.187496	0.941619	-24.794000	-31.577570	-171.980493
52545		3.527252	-1.353425	11.075683	2.969691	-3.032143	1.092839	-0.207004	0.733242	-0.293134	-0.751709	0.393066	-0.447266	0.035659	-0.013472	0.110641	-0.005105	0.276403	-0.188116	0.942437	-24.717116	-31.269545	-172.361404
52546		5.779434	-2.768060	8.334915	-0.330278	-1.024627	0.645558	-0.445300	1.146320	-0.170763	-0.749756	0.382813	-0.453857	0.058247	-0.027545	0.083078	-0.002621	0.271203	-0.190033	0.943573	-24.758805	-30.717335	-172.781740
52547		4.363364	-6.694624	6.557865	0.266362	3.398021	-0.053348	-0.065751	0.839243	0.000941	-0.737549	0.384766	-0.456787	0.043909	-0.066925	0.065417	-0.001753	0.267273	-0.190383	0.944625	-24.683414	-30.283483	-173.010619
52548		4.438530	-2.165856	9.031101	0.948545	-1.693130	0.296002	0.132244	0.494577	0.155114	-0.735352	0.395996	-0.470215	0.044625	-0.021684	0.090187	-0.002206	0.264822	-0.189998	0.945392	-24.590958	-29.992231	-173.049887
52549		4.532432	-3.345768	8.301829	0.570856	-0.342240	0.198024	0.025403	0.383018	0.056603	-0.746826	0.394531	-0.465820	0.045493	-0.033455	0.082927	-0.002157	0.262989	-0.189987	0.945905	-24.545964	-29.782328	-173.117203
52550		4.564104	-4.009216	7.591674	0.224484	0.529298	-0.106618	0.092671	0.210467	0.026098	-0.731689	0.395020	-0.477051	0.045726	-0.040121	0.075850	-0.002217	0.262002	-0.189613	0.946254	-24.476996	-29.669764	-173.155262
52551		4.538902	-2.991109	8.230476	0.451624	-0.634049	0.020069	0.077219	0.107477	-0.004332	-0.738770	0.396973	-0.469238	0.045433	-0.029944	0.082269	-0.002210	0.261529	-0.189273	0.946453	-24.421988	-29.617907	-173.183300
52552		4.640259	-3.196500	7.664693	0.096719	-0.246022	-0.303363	0.047472	0.041113	-0.017051	-0.743652	0.394043	-0.473633	0.046416	-0.031987	0.076630	-0.002167	0.261384	-0.189055	0.946537	-24.389112	-29.603851	-173.200857
52553		4.818536	-3.089923	7.501951	-0.149982	-0.300900	-0.382304	0.047012	0.022680	-0.020359	-0.737549	0.396973	-0.476807	0.048191	-0.030922	0.075007	-0.002125	0.261328	-0.188836	0.946596	-24.358114	-29.600006	-173.215363
52554		4.723700	-2.852546	7.788728	0.049507	-0.610749	-0.286976	0.027669	0.036120	0.004192	-0.740967	0.394287	-0.466064	0.047252	-0.028535	0.077875	-0.002162	0.261187	-0.188739	0.946654	-24.343558	-29.583523	-173.218794
52555		4.752737	-3.188555	7.641897	-0.020887	-0.248496	-0.268485	0.007304	0.066001	0.011884	-0.743164	0.404053	-0.470459	0.047554	-0.031886	0.076402	-0.002180	0.260896	-0.188750	0.946732	-24.339068	-29.549443	-173.225704
52556		5.060932	-3.576589	7.499295	-0.329090	0.131343	-0.090605	0.018789	0.108494	0.029048	-0.741455	0.403076	-0.482666	0.050655	-0.035766	0.074962	-0.002254	0.260389	-0.188729	0.946876	-24.327268	-29.489308	-173.233852
52557		5.315325	-3.460496	7.629468	-0.507619	-0.048628	0.095715	0.017191	0.137681	0.041109	-0.741455	0.398926	-0.472168	0.053213	-0.034601	0.076255	-0.002355	0.259731	-0.188732	0.947056	-24.316199	-29.410904	-173.242643
52558		5.364052	-3.633764	7.459039	-0.632361	0.166874	0.045649	-0.003651	0.159190	0.060637	-0.741211	0.400635	-0.478271	0.053711	-0.036320	0.074548	-0.002502	0.258954	-0.188858	0.947243	-24.319843	-29.316855	-173.245559
52559		5.214154	-3.493073	7.396548	-0.562676	0.072057	-0.128884	0.008995	0.167531	0.059386	-0.742920	0.405518	-0.480713	0.052214	-0.034919	0.073920	-0.002651	0.258136	-0.188924	0.947453	-24.314908	-29.218553	-173.251461
52560		4.755871	-3.528070	7.703817	-0.028440	0.041152	-0.096111	0.016316	0.172552	0.057591	-0.733398	0.401367	-0.486816	0.047635	-0.035273	0.076994	-0.002797	0.257299	-0.188952	0.947674	-24.304490	-29.118259	-173.259784
52561		4.648401	-3.376205	7.694246	0.029037	-0.085376	-0.210622	0.026578	0.175825	0.053156	-0.741699	0.405762	-0.491211	0.046561	-0.033760	0.076897	-0.002931	0.256447	-0.188926	0.947910	-24.286629	-29.017093	-173.271591
52562		4.817949	-3.188573	7.567309	-0.214521	-0.231209	-0.297211	0.022419	0.182507	0.053031	-0.740479	0.406250	-0.485107	0.048257	-0.031881	0.075626	-0.003053	0.255566	-0.188919	0.948149	-24.270163	-28.912670	-173.285237
52563		5.038722	-2.922315	7.743655	-0.362614	-0.564468	-0.146111	0.010405	0.177384	0.067368	-0.740234	0.423096	-0.486084	0.050466	-0.029210	0.077390	-0.003233	0.254694	-0.188988	0.948369	-24.265533	-28.807337	-173.288908
52564		4.713081	-2.912713	7.952952	0.004388	-0.618510	-0.139845	-0.024908	0.150755	0.102207	-0.737061	0.416016	-0.488770	0.047206	-0.029093	0.079498	-0.003558	0.253917	-0.189266	0.948521	-24.294428	-28.707920	-173.264701
52565		4.473306	-2.757909	8.110989	0.262116	-0.802986	-0.185063	-0.075875	0.096434	0.119976	-0.734131	0.420898	-0.491211	0.044789	-0.027521	0.081099	-0.003954	0.253380	-0.189810	0.948554	-24.364652	-28.632435	-173.215412
52566		4.522862	-2.947054	8.115422	0.229997	-0.649075	-0.090174	-0.133213	0.022563	0.137277	-0.743896	0.422363	-0.495117	0.045258	-0.029385	0.081169	-0.004430	0.253180	-0.190644	0.948438	-24.481920	-28.591531	-173.136092
52567		4.681907	-3.330840	7.951061	0.043703	-0.270224	-0.006610	-0.155529	-0.028292	0.137913	-0.735596	0.418213	-0.487793	0.046831	-0.033214	0.079543	-0.004929	0.253219	-0.191585	0.948236	-24.618810	-28.576612	-173.042717
52568		4.766970	-3.674730	7.815176	-0.065119	0.067673	0.051174	-0.151111	-0.044504	0.140792	-0.740723	0.418213	-0.490479	0.047678	-0.036655	0.078190	-0.005462	0.253333	-0.192506	0.948016	-24.755892	-28.569459	-172.943287
52569		5.284882	-3.515807	7.499258	-0.681126	-0.040758	-0.011456	-0.132574	-0.050705	0.128672	-0.739014	0.425293	-0.488281	0.052852	-0.035074	0.075029	-0.005968	0.253485	-0.193325	0.947805	-24.879881	-28.568035	-172.849340
52570		5.362038	-3.528016	7.429408	-0.779514	-0.030526	-0.025663	-0.116524	-0.036833	0.122490	-0.745117	0.419189	-0.484863	0.053628	-0.035204	0.074324	-0.006451	0.253579	-0.194059	0.947627	-24.990929	-28.560949	-172.762890
52571		5.301687	-3.626176	7.394447	-0.735436	0.063782	-0.045910	-0.093849	-0.015870	0.114176	-0.738525	0.427979	-0.490967	0.053032	-0.036197	0.073966	-0.006904	0.253579	-0.194677	0.947497	-25.084006	-28.544641	-172.687148
52572		5.018851	-3.944180	7.460386	-0.431327	0.352363	-0.010006	-0.065247	-0.004608	0.097370	-0.744141	0.434326	-0.494385	0.050206	-0.039393	0.074618	-0.007301	0.253543	-0.195138	0.947409	-25.154268	-28.526723	-172.624502
52573		4.695833	-4.179842	7.502995	-0.111977	0.581787	-0.042025	-0.032343	0.016582	0.079295	-0.744629	0.429932	-0.480713	0.046981	-0.041768	0.075033	-0.007635	0.253421	-0.195421	0.947381	-25.197903	-28.501928	-172.578418
52574		4.659563	-4.107589	7.628490	-0.029488	0.467780	0.013705	-0.004341	0.022063	0.061852	-0.746094	0.433838	-0.489990	0.046617	-0.041060	0.076281	-0.007916	0.253291	-0.195549	0.947387	-25.219687	-28.478771	-172.544183
52575		4.988566	-3.648145	7.540225	-0.400999	0.035568	-0.071657	0.012377	0.023031	0.046643	-0.739502	0.444580	-0.494629	0.049903	-0.036474	0.075394	-0.008145	0.253168	-0.195579	0.947411	-25.227614	-28.458573	-172.519186
52576		4.751894	-3.685178	7.600261	-0.166087	0.073727	-0.122900	0.017405	0.033501	0.033274	-0.750732	0.430908	-0.493164	0.047538	-0.036850	0.075991	-0.008306	0.253011	-0.195568	0.947454	-25.227377	-28.436460	-172.504994
52577		5.109880	-3.506117	7.532291	-0.529326	-0.107715	-0.073727	0.023464	0.031071	0.018525	-0.750488	0.438477	-0.494141	0.051114	-0.035065	0.075311	-0.008408	0.252877	-0.195511	0.947501	-25.219979	-28.418960	-172.498811
52578		4.950400	-3.484602	7.700705	-0.314009	-0.170733	-0.023815	0.015182	0.034229	0.023002	-0.749023	0.433594	-0.493164	0.049521	-0.034846	0.076996	-0.008518	0.252727	-0.195498	0.947543	-25.218031	-28.398988	-172.490876
52579		4.734221	-3.601180	7.667336	-0.134781	-0.026671	-0.109569	0.001025	0.026213	0.015103	-0.752197	0.444824	-0.496582	0.047355	-0.036009	0.076667	-0.008580	0.252621	-0.195542	0.947561	-25.223169	-28.384841	-172.485362
52580		4.680801	-3.540513	7.655577	-0.100879	-0.073586	-0.167098	-0.004951	0.021836	0.016285	-0.751465	0.427002	-0.491455	0.046819	-0.035399	0.076552	-0.008644	0.252536	-0.195615	0.947568	-25.232503	-28.372937	-172.477949
52581		4.749570	-3.440847	7.673903	-0.161640	-0.182103	-0.157257	-0.012047	0.014699	0.010708	-0.762207	0.433105	-0.486572	0.047503	-0.034401	0.076738	-0.008681	0.252489	-0.195716	0.947560	-25.245415	-28.365831	-172.471834
52582		4.858846	-3.515740	7.485781	-0.341935	-0.058494	-0.227001	-0.012326	0.008394	0.003594	-0.753174	0.443359	-0.494141	0.048592	-0.035152	0.074858	-0.008689	0.252481	-0.195807	0.947543	-25.257190	-28.363995	-172.468168
52583		4.498553	-3.596875	7.695212	0.080384	-0.020438	-0.201033	-0.008318	-0.003099	0.001220	-0.760742	0.440674	-0.489990	0.044985	-0.035965	0.076954	-0.008702	0.252528	-0.195877	0.947516	-25.267658	-28.368428	-172.462698
52584		4.204734	-3.748217	7.773175	0.388560	0.122583	-0.221798	-0.020084	-0.021200	0.002559	-0.762207	0.440186	-0.494385	0.042040	-0.037474	0.077740	-0.008724	0.252662	-0.196002	0.947454	-25.287499	-28.382179	-172.451414
52585		4.548793	-3.747390	7.676438	0.045245	0.115480	-0.135562	-0.011884	-0.036892	-0.008430	-0.762451	0.442627	-0.491455	0.045472	-0.037471	0.076775	-0.008721	0.252878	-0.196075	0.947381	-25.301785	-28.406478	-172.442217
52586		4.651609	-3.768116	7.598106	-0.075748	0.150388	-0.141130	-0.005352	-0.042369	-0.017084	-0.764404	0.445068	-0.497559	0.046497	-0.037683	0.075992	-0.008689	0.253130	-0.196105	0.947308	-25.310502	-28.435994	-172.436594
52587		5.107900	-3.553732	7.470592	-0.547675	-0.053455	-0.105649	0.006532	-0.043019	-0.024338	-0.758789	0.442871	-0.489014	0.051059	-0.035546	0.074716	-0.008639	0.253390	-0.196071	0.947246	-25.310598	-28.467360	-172.435050
52588		5.042238	-3.596623	7.531049	-0.452546	-0.027466	-0.072512	0.011638	-0.038237	-0.026798	-0.771240	0.442139	-0.492920	0.050403	-0.035977	0.075318	-0.008579	0.253632	-0.196008	0.947195	-25.306312	-28.497121	-172.436297
52589		4.976782	-3.611681	7.631689	-0.340901	-0.042117	-0.017929	-0.000082	-0.031869	-0.026593	-0.760254	0.442627	-0.494385	0.049751	-0.036123	0.076325	-0.008500	0.253842	-0.196002	0.947141	-25.308081	-28.523265	-172.439191
52590		4.776257	-3.725829	7.654576	-0.141509	0.078659	-0.052526	0.005046	-0.023949	-0.027424	-0.766602	0.440186	-0.484131	0.047748	-0.037267	0.076551	-0.008414	0.254017	-0.195970	0.947101	-25.305492	-28.545788	-172.444792
52591		5.009763	-3.529100	7.573821	-0.397185	-0.099123	-0.078857	0.011048	-0.014871	-0.026169	-0.775879	0.439453	-0.490723	0.050087	-0.035302	0.075740	-0.008334	0.254145	-0.195914	0.947079	-25.298734	-28.563024	-172.452178
52592		5.026745	-3.450811	7.550325	-0.427848	-0.162927	-0.118664	0.014882	0.002780	-0.031106	-0.773438	0.441162	-0.491699	0.050263	-0.034522	0.075500	-0.008218	0.254197	-0.195832	0.947083	-25.285903	-28.572607	-172.467408
52593		4.899540	-3.548791	7.623811	-0.272821	-0.082523	-0.084344	0.020306	0.018582	-0.024008	-0.774170	0.448730	-0.492676	0.048998	-0.035502	0.076230	-0.008127	0.254164	-0.195735	0.947113	-25.269987	-28.571979	-172.482849
52594		4.334162	-3.798603	7.781064	0.315119	0.158359	-0.136173	0.030130	0.045310	-0.027696	-0.770264	0.440186	-0.495361	0.043354	-0.038004	0.077795	-0.008004	0.254010	-0.195587	0.947186	-25.243715	-28.558690	-172.507912
52595		4.656531	-3.734390	7.560462	-0.081993	0.147654	-0.181436	0.051229	0.076536	-0.033624	-0.770996	0.437988	-0.490234	0.046588	-0.037371	0.075577	-0.007850	0.253711	-0.195334	0.947319	-25.199682	-28.530357	-172.545129
52596		4.697407	-3.619134	7.669243	-0.081854	0.003848	-0.118652	0.077253	0.109933	-0.033350	-0.782715	0.441650	-0.492920	0.047010	-0.036229	0.076653	-0.007697	0.253255	-0.194958	0.947520	-25.136311	-28.484896	-172.591409
52597		5.221520	-3.579363	7.472358	-0.647234	-0.010554	-0.040625	0.100605	0.136677	-0.040982	-0.781738	0.438232	-0.492188	0.052259	-0.035842	0.074670	-0.007512	0.252676	-0.194464	0.947778	-25.054097	-28.427073	-172.649490
52598		5.259952	-3.528195	7.395318	-0.735035	-0.021896	-0.103661	0.124642	0.166652	-0.035435	-0.779053	0.445068	-0.492432	0.052655	-0.035337	0.073887	-0.007354	0.251951	-0.193862	0.948095	-24.955745	-28.352559	-172.712415
52599		4.923337	-3.588259	7.521500	-0.391494	0.038754	-0.141441	0.134767	0.197992	-0.029096	-0.776611	0.437500	-0.497314	0.049303	-0.035940	0.075142	-0.007209	0.251068	-0.193223	0.948461	-24.849594	-28.259833	-172.779978
52600		4.551242	-3.570503	7.772483	0.034105	-0.013948	-0.123911	0.132920	0.214292	-0.023654	-0.779785	0.430176	-0.499023	0.045591	-0.035762	0.077652	-0.007072	0.250105	-0.192599	0.948843	-24.744019	-28.157521	-172.848523
52601		4.635255	-3.579893	7.711953	-0.086945	0.020889	-0.129331	0.133384	0.219904	-0.023106	-0.783447	0.432129	-0.500244	0.046433	-0.035856	0.077045	-0.006932	0.249112	-0.191974	0.949232	-24.637978	-28.051736	-172.917981
52602		4.511629	-3.233733	7.845633	0.037683	-0.322398	-0.207461	0.108190	0.198547	-0.015704	-0.783691	0.434814	-0.503174	0.045192	-0.032383	0.078394	-0.006816	0.248216	-0.191476	0.949568	-24.551242	-27.955518	-172.977041
52603		4.568318	-3.096064	7.913727	-0.006403	-0.471589	-0.176311	0.074629	0.146608	-0.011243	-0.775146	0.433594	-0.500732	0.045739	-0.030993	0.079092	-0.006730	0.247561	-0.191142	0.949807	-24.491797	-27.884939	-173.019301
52604		4.509774	-3.174873	7.950003	0.057885	-0.400602	-0.145393	0.024778	0.096496	0.003541	-0.776123	0.437744	-0.506104	0.045137	-0.031758	0.079474	-0.006700	0.247134	-0.191059	0.949935	-24.471220	-27.837263	-173.039311
52605		4.616575	-3.191659	7.847391	-0.089435	-0.358283	-0.171908	0.008945	0.056103	-0.000150	-0.784912	0.433105	-0.512451	0.046188	-0.031920	0.078460	-0.006672	0.246900	-0.191048	0.949998	-24.463914	-27.811215	-173.050633
52606		4.534373	-3.209422	7.891067	0.002037	-0.349428	-0.168634	-0.017518	0.020186	0.000591	-0.793213	0.428711	-0.503174	0.045352	-0.032087	0.078909	-0.006649	0.246839	-0.191160	0.949991	-24.476326	-27.804031	-173.051889
52607		4.546283	-3.194620	7.878087	-0.015312	-0.362911	-0.179069	-0.041871	-0.010807	0.000660	-0.785156	0.431641	-0.504395	0.045459	-0.031930	0.078790	-0.006626	0.246924	-0.191389	0.949924	-24.506738	-27.812682	-173.044775
52608		4.633132	-3.309418	7.805148	-0.113268	-0.244620	-0.155264	-0.059659	-0.036367	-0.002236	-0.799072	0.427246	-0.498535	0.046317	-0.033071	0.078070	-0.006591	0.247136	-0.191696	0.949807	-24.549603	-27.835650	-173.032497
52609		4.462730	-3.495921	7.810224	0.058781	-0.061583	-0.162310	-0.064760	-0.041132	0.000215	-0.800781	0.424561	-0.493408	0.044611	-0.034934	0.078123	-0.006566	0.247367	-0.192032	0.949679	-24.596836	-27.860200	-173.017458
52610		4.679533	-3.511215	7.664274	-0.193589	-0.024410	-0.172683	-0.068801	-0.050023	-0.007971	-0.800537	0.426758	-0.494629	0.046775	-0.035088	0.076667	-0.006506	0.247649	-0.192375	0.949537	-24.645111	-27.891633	-173.004825
52611		4.470792	-3.477932	7.840602	0.076682	-0.103504	-0.140954	-0.072597	-0.062903	-0.000545	-0.796631	0.426025	-0.493652	0.044683	-0.034751	0.078433	-0.006489	0.247983	-0.192746	0.949374	-24.699423	-27.927676	-172.984285
52612		4.801612	-3.426440	7.705376	-0.273818	-0.145301	-0.113579	-0.081967	-0.076623	-0.010151	-0.787109	0.427002	-0.498047	0.047985	-0.034235	0.077086	-0.006428	0.248395	-0.193147	0.949185	-24.758071	-27.973455	-172.965645
52613		5.169880	-3.323233	7.532476	-0.678299	-0.225622	-0.117393	-0.084970	-0.081186	-0.010794	-0.798340	0.423584	-0.484619	0.051666	-0.033203	0.075360	-0.006365	0.248826	-0.193564	0.948988	-24.819048	-28.021434	-172.946068
52614		4.848251	-3.459190	7.647007	-0.321391	-0.114470	-0.126003	-0.082026	-0.082956	-0.013420	-0.806885	0.427002	-0.492676	0.048448	-0.034564	0.076504	-0.006294	0.249271	-0.193961	0.948791	-24.877719	-28.071270	-172.927502
52615		4.399434	-3.709892	7.813099	0.181551	0.098114	-0.111129	-0.076732	-0.089121	-0.017689	-0.805420	0.421875	-0.493408	0.043956	-0.037073	0.078165	-0.006216	0.249746	-0.194330	0.948591	-24.933177	-28.125001	-172.909688
52616		4.429066	-3.766686	7.753469	0.143011	0.162770	-0.123834	-0.068916	-0.101817	-0.034727	-0.817871	0.422607	-0.485840	0.044245	-0.037648	0.077570	-0.006079	0.250300	-0.194638	0.948382	-24.980945	-28.189755	-172.898378
52617		4.687202	-3.614565	7.726700	-0.096859	-0.001177	-0.079886	-0.058141	-0.099028	-0.045477	-0.811768	0.420898	-0.480957	0.046826	-0.036134	0.077301	-0.005902	0.250848	-0.194883	0.948188	-25.019385	-28.255333	-172.894096
52618		4.695000	-3.472646	7.677044	-0.126655	-0.119522	-0.168573	-0.068837	-0.122832	-0.055626	-0.811768	0.414551	-0.483887	0.046893	-0.034713	0.076811	-0.005686	0.251522	-0.195163	0.947954	-25.064096	-28.336048	-172.889196
52619		4.849388	-3.529442	7.586784	-0.284583	-0.055791	-0.145801	-0.073140	-0.142183	-0.059240	-0.816406	0.427734	-0.484131	0.048429	-0.035281	0.075915	-0.005467	0.252288	-0.195461	0.947690	-25.113004	-28.427357	-172.880994
52620		4.594741	-3.565622	7.749556	0.037354	-0.060014	-0.123730	-0.086271	-0.180458	-0.077526	-0.813721	0.418945	-0.481201	0.045864	-0.035641	0.077552	-0.005182	0.253256	-0.195794	0.947364	-25.169245	-28.543289	-172.872892
52621		4.774596	-3.606897	7.792631	-0.071547	-0.063646	0.011891	-0.100754	-0.233576	-0.098828	-0.817627	0.423828	-0.468750	0.047637	-0.036053	0.078000	-0.004830	0.254494	-0.196169	0.946957	-25.235079	-28.691621	-172.862443
52622		4.710853	-3.671087	7.700130	-0.025390	0.029720	-0.067976	-0.114271	-0.295027	-0.119152	-0.817627	0.407715	-0.486816	0.046973	-0.036695	0.077092	-0.004424	0.256046	-0.196579	0.946455	-25.311104	-28.877080	-172.846647
52623		4.461422	-3.726682	7.867654	0.314484	0.038309	-0.035576	-0.131595	-0.368630	-0.141728	-0.833984	0.408447	-0.474121	0.044443	-0.037247	0.078783	-0.003963	0.257964	-0.197041	0.945840	-25.400962	-29.105839	-172.823215
52624		4.479424	-3.952028	7.849603	0.356639	0.241969	0.041960	-0.148650	-0.457128	-0.174446	-0.837891	0.404785	-0.462158	0.044580	-0.039501	0.078627	-0.003411	0.260335	-0.197537	0.945089	-25.503488	-29.388726	-172.793725
52625		4.819621	-3.797399	7.647254	0.003282	0.128277	-0.008978	-0.155020	-0.561354	-0.210033	-0.844482	0.407227	-0.455811	0.047941	-0.037965	0.076637	-0.002786	0.263229	-0.198015	0.944189	-25.614491	-29.733913	-172.755050
52626		4.869882	-3.358908	7.841319	0.081228	-0.362325	0.002910	-0.154693	-0.705584	-0.247116	-0.838867	0.410889	-0.445068	0.048380	-0.033588	0.078610	-0.002128	0.266840	-0.198437	0.943088	-25.735449	-30.163031	-172.696215
52627		3.506440	-3.524968	8.390242	1.629138	-0.275916	-0.200940	-0.248830	-0.900945	-0.331609	-0.844727	0.410156	-0.445801	0.034627	-0.035203	0.084103	-0.001141	0.271449	-0.199186	0.941615	-25.914793	-30.713542	-172.629752
52628		2.100828	-4.759308	8.435331	3.094654	0.985119	-0.449441	-0.283363	-1.248015	-0.549017	-0.856445	0.401611	-0.426514	0.020351	-0.047530	0.084549	0.000571	0.277901	-0.199790	0.939603	-26.100779	-31.497500	-172.589713
52629		3.250309	-4.417625	8.196720	2.113291	0.625118	-0.199848	-0.297141	-1.603486	-0.801351	-0.869385	0.399902	-0.406494	0.031667	-0.044182	0.082289	0.003132	0.286254	-0.200099	0.937021	-26.272190	-32.527622	-172.593383
52630		3.066247	-4.432811	8.158977	2.443110	0.671229	-0.368258	-0.293969	-1.967909	-1.037098	-0.880615	0.376709	-0.402344	0.029627	-0.044363	0.081950	0.006429	0.296522	-0.200038	0.933819	-26.424901	-33.805025	-172.627541
52631		3.316300	-4.106243	8.071009	2.379168	0.382935	-0.475263	-0.267643	-2.384551	-1.268851	-0.891602	0.370361	-0.376465	0.031936	-0.041159	0.081151	0.010351	0.308920	-0.199495	0.929872	-26.555319	-35.355158	-172.673422
52632		3.486310	-4.115649	8.122758	2.549398	0.370096	-0.409090	-0.225405	-2.814616	-1.499114	-0.910889	0.357178	-0.343262	0.033406	-0.041319	0.081751	0.014704	0.323513	-0.198329	0.925089	-26.656689	-37.184849	-172.708114
52633		3.706122	-4.014227	8.064943	2.649994	0.304154	-0.444300	-0.121246	-3.295383	-1.751580	-0.934814	0.345459	-0.314697	0.035372	-0.040408	0.081266	0.019718	0.340457	-0.196295	0.919330	-26.693279	-39.325587	-172.766230
52634		4.027757	-4.340706	7.933609	2.752298	0.670337	-0.327577	0.050814	-3.768709	-2.004121	-0.948975	0.319092	-0.282471	0.038336	-0.043818	0.080060	0.025128	0.359705	-0.193006	0.912540	-26.620931	-41.773682	-172.837287
52635		3.864745	-4.876364	8.122248	3.517512	1.184771	-0.279074	0.296554	-4.181346	-2.269309	-0.970215	0.296631	-0.240723	0.036382	-0.049306	0.081926	0.030895	0.380936	-0.188074	0.904744	-26.368429	-44.500906	-172.962531
52636		4.690236	-4.889284	8.212402	3.474021	1.201089	0.177784	0.547300	-4.564970	-2.555467	-0.993896	0.268311	-0.193848	0.044382	-0.049697	0.083021	0.036960	0.403997	-0.181342	0.895843	-25.893279	-47.496964	-173.173928
52637		5.758207	-5.042548	8.723197	3.708577	1.228887	1.113328	0.826984	-4.942637	-2.817577	-1.010742	0.242432	-0.144287	0.054686	-0.051573	0.088396	0.043403	0.428703	-0.172818	0.885700	-25.152951	-50.751224	-173.530173
52638		7.614884	-4.902808	9.076159	3.437718	1.047876	2.493081	1.042196	-5.330848	-3.043981	-1.026855	0.201904	-0.089844	0.072936	-0.050634	0.092473	0.049875	0.455009	-0.162715	0.874073	-24.158089	-54.257672	-174.017150
52639		11.412696	-4.247501	9.802620	2.494346	0.210101	5.615504	0.981184	-5.656501	-3.157721	-1.046143	0.164551	-0.036865	0.110604	-0.044731	0.100972	0.056806	0.482323	-0.152601	0.860727	-23.068379	-57.955218	-174.655839
52640		15.893734	-6.647885	13.337893	4.741005	1.430646	11.400924	0.610180	-5.633550	-3.045736	-1.044922	0.136230	0.025146	0.154061	-0.069265	0.137556	0.064107	0.508837	-0.144184	0.846278	-22.088251	-61.608791	-175.388525
52641		12.868444	-5.927909	9.087794	3.555138	2.458841	6.452373	0.694420	-5.301617	-3.033892	-1.048584	0.101318	0.078857	0.125298	-0.061520	0.094019	0.071319	0.533463	-0.135193	0.831897	-20.681543	-65.074600	-176.520165
52642		16.059106	-3.199476	10.450623	3.703140	-0.388335	9.249755	0.289092	-5.080298	-2.848372	-1.034424	0.067139	0.128174	0.157390	-0.034407	0.108483	0.078927	0.556418	-0.128181	0.817153	-19.272030	-68.371159	-177.877004
52643		17.796144	-4.791999	10.211873	4.328079	1.416736	10.757099	-0.081311	-4.204240	-2.759034	-1.041504	0.046143	0.173096	0.175079	-0.050306	0.105840	0.087703	0.575180	-0.122491	0.804035	-17.308448	-71.158409	179.977946
52644		14.083742	-8.035778	8.897070	6.075683	5.126017	6.886064	0.039220	-3.121586	-2.472815	-1.027588	0.017578	0.200195	0.138418	-0.082097	0.091128	0.095485	0.589185	-0.116519	0.793830	-14.583720	-73.271187	177.153526
52645		12.493509	-11.343793	20.978565	19.018458	4.869884	8.610772	0.206661	-1.359008	-1.833865	-1.020752	0.000732	0.207764	0.122458	-0.114786	0.210505	0.101356	0.595733	-0.110972	0.788996	-11.566093	-74.271474	174.130937
52646		4.231142	-9.648633	14.956729	15.414588	4.936749	-1.285054	0.003235	0.255434	-1.296453	-1.011963	-0.012939	0.208496	0.041876	-0.096761	0.149512	0.106456	0.595472	-0.106900	0.789083	-8.891594	-74.262533	171.371211
52647		-0.563371	-9.438363	8.609890	10.828093	6.456718	-7.669491	0.351682	0.853248	-1.087781	-1.003906	-0.026123	0.196289	-0.005781	-0.094504	0.085957	0.110154	0.592885	-0.101851	0.791189	-6.311148	-73.864327	168.893999
52648		1.773124	-8.444555	9.832276	10.984283	5.335091	-5.121243	0.495092	1.112324	-0.760484	-1.004150	-0.034424	0.183105	0.017955	-0.084756	0.098014	0.112078	0.589168	-0.096936	0.794306	-4.369820	-73.273412	167.187388
52649		1.954544	-8.571291	10.236882	11.271922	5.415412	-4.743609	0.202741	1.742035	-0.155229	-1.004395	-0.031006	0.153076	0.020369	-0.085832	0.102107	0.112937	0.582441	-0.094729	0.799396	-3.749154	-72.288245	166.655988
52650		-0.078510	-8.831847	7.967748	9.803614	6.205922	-7.192651	0.108716	2.263809	0.365106	-0.990479	-0.029541	0.123779	0.000278	-0.088362	0.079630	0.111994	0.573286	-0.093959	0.806209	-4.063938	-70.982920	167.081297
52651		-1.079425	-7.497901	6.804426	8.623095	5.209553	-8.335496	0.155261	2.560571	0.789351	-0.994385	-0.024658	0.098877	-0.009626	-0.075071	0.068114	0.109559	0.562655	-0.094189	0.813969	-4.919054	-69.488993	168.081087
52652		-1.510010	-5.828292	6.611039	8.067702	3.665519	-8.618682	0.027609	2.738981	1.212574	-0.985840	-0.009521	0.069092	-0.013839	-0.058379	0.066298	0.105533	0.550936	-0.095838	0.822282	-6.296203	-67.861841	169.611278
52653		-1.808092	-4.653491	6.625821	7.817790	2.533119	-8.679111	-0.237496	2.861969	1.604212	-0.988525	0.007324	0.041016	-0.016756	-0.046594	0.066560	0.100947	0.538228	-0.099745	0.830765	-8.104505	-66.123609	171.424404
52654		-1.334849	-4.010379	6.904833	7.637936	1.877521	-7.896557	-0.470755	2.993366	1.904641	-0.970703	0.037354	0.003174	-0.011931	-0.040059	0.069328	0.095358	0.524586	-0.105099	0.839446	-10.132283	-64.259230	173.411705
52655		-0.253961	-3.181524	7.757104	7.582635	0.878576	-6.336697	-0.625335	3.187771	2.124355	-0.968262	0.053223	-0.027344	-0.000966	-0.031588	0.077694	0.089737	0.509722	-0.111790	0.848313	-12.167390	-62.235495	175.285680
52656		0.704610	-2.114985	8.495687	7.318082	-0.356144	-4.969651	-0.795780	3.420868	2.294069	-0.958496	0.077637	-0.057373	0.008738	-0.020718	0.084900	0.083262	0.493563	-0.119145	0.857477	-14.151690	-60.029030	177.110816
52657		1.531112	-0.878449	8.868642	6.671574	-1.710108	-3.954110	-0.988527	3.668370	2.393548	-0.945557	0.090820	-0.101807	0.017035	-0.008150	0.088426	0.077600	0.475903	-0.127766	0.866701	-16.011520	-57.646277	178.618299
52658		2.633055	-0.256133	8.803108	5.591232	-2.374597	-2.914901	-1.149423	3.905246	2.363499	-0.926514	0.113525	-0.137939	0.028066	-0.001733	0.087506	0.071882	0.457007	-0.136539	0.875976	-17.659500	-55.113304	179.886279
52659		3.903229	-0.497592	8.650662	4.457522	-2.225880	-1.720939	-1.191255	4.128439	2.218088	-0.907715	0.143311	-0.168701	0.040855	-0.004017	0.085702	0.067681	0.436880	-0.145334	0.885118	-18.981847	-52.471779	-179.324990
52660		5.284309	-1.073175	8.729963	3.397885	-1.841230	-0.308403	-1.085839	4.334363	2.043430	-0.891357	0.158936	-0.208008	0.054822	-0.009708	0.086180	0.063507	0.415830	-0.152872	0.894250	-19.958973	-49.740752	-178.798149
52661		6.668101	-1.022229	9.010558	2.196550	-2.123064	1.019706	-1.022323	4.463388	1.911411	-0.865479	0.171875	-0.250000	0.068761	-0.009116	0.088635	0.060470	0.393991	-0.159985	0.903061	-20.707036	-46.965644	-178.585292
52662		7.934706	-0.999452	8.785738	0.617879	-2.210754	1.842765	-1.115998	4.462569	1.862413	-0.844482	0.198730	-0.290039	0.081367	-0.008759	0.086108	0.057240	0.372004	-0.167131	0.911265	-21.435647	-44.196575	-178.399497
52663		9.308521	-2.139836	8.066822	-1.163030	-1.043066	2.590120	-1.195693	4.367268	1.834690	-0.826904	0.209229	-0.332275	0.095007	-0.020058	0.078730	0.054727	0.350152	-0.174724	0.918624	-22.170211	-41.486218	-178.331484
52664		10.615995	-4.019719	6.931661	-3.021129	0.965516	3.102999	-1.106703	4.217753	1.855048	-0.801514	0.220703	-0.356689	0.107957	-0.038825	0.067270	0.051292	0.328866	-0.181734	0.925305	-22.862024	-38.847221	-178.189107
52665		11.743140	-6.444587	5.608745	-4.737931	3.562822	3.443227	-0.816629	3.969127	1.999872	-0.768066	0.230225	-0.387939	0.119152	-0.063037	0.053993	0.046964	0.308425	-0.187768	0.931349	-23.458079	-36.308941	-177.984203
52666		12.659329	-7.396115	4.880143	-6.263390	4.563230	3.554822	-0.416513	3.589608	2.347254	-0.732910	0.258789	-0.412598	0.128299	-0.072363	0.046661	0.040019	0.289348	-0.192479	0.936818	-23.986669	-33.885781	-177.486564
52667		13.055651	-5.969007	4.490152	-7.609797	3.196546	2.760366	-0.271822	2.995663	2.869341	-0.704834	0.270264	-0.430176	0.132048	-0.057743	0.043010	0.029833	0.272470	-0.197293	0.941247	-24.657020	-31.647743	-176.541686
52668		14.702470	-5.322775	4.584520	-9.564471	2.185220	3.195818	-0.321025	2.276481	3.374512	-0.669922	0.287598	-0.441650	0.148404	-0.050660	0.044244	0.016613	0.258337	-0.203058	0.944327	-25.556304	-29.647070	-175.146073
52669		16.704531	-4.830383	5.018420	-11.615514	0.987729	4.029887	-0.167647	1.728598	3.736669	-0.642090	0.308838	-0.459717	0.168334	-0.045125	0.048772	0.000924	0.246345	-0.208519	0.946484	-26.474192	-27.820889	-173.443345
52670		17.609388	-2.605965	5.016150	-13.024752	-1.652524	3.211243	0.131818	1.348903	3.892008	-0.614990	0.331055	-0.460449	0.176890	-0.022655	0.048955	-0.016268	0.235869	-0.212675	0.948088	-27.239029	-26.124878	-171.599087
52671		17.205620	0.123188	4.261757	-13.429507	-4.311608	0.921988	0.400052	1.008925	3.790185	-0.588135	0.341309	-0.463135	0.172205	0.004410	0.041756	-0.033646	0.227010	-0.215318	0.949196	-27.801204	-24.611641	-169.759367
52672		16.634725	2.161970	3.693427	-13.316780	-6.324938	-1.000107	0.566822	0.669129	3.451641	-0.577148	0.348877	-0.463867	0.166065	0.024384	0.036445	-0.049962	0.220007	-0.216657	0.949821	-28.178288	-23.346204	-168.041295
52673		16.141669	2.797101	3.479122	-12.948412	-7.132251	-1.942876	0.666651	0.410590	2.915761	-0.547363	0.361572	-0.462646	0.161058	0.030205	0.034559	-0.064108	0.214741	-0.216804	0.950143	-28.373919	-22.350500	-166.561797
52674		17.216262	2.288050	4.833506	-13.299328	-7.763180	-0.439988	0.714357	0.310623	2.292977	-0.540771	0.351807	-0.463623	0.171961	0.024681	0.048154	-0.075445	0.210559	-0.215986	0.950433	-28.401305	-21.570989	-165.403096
52675		17.235520	1.809743	5.724393	-12.949162	-7.930376	0.312968	0.633364	0.559431	1.744522	-0.533936	0.356689	-0.465576	0.172349	0.019420	0.056822	-0.083812	0.205802	-0.215040	0.950989	-28.324910	-20.817016	-164.619193
52676		14.831446	2.260690	4.973567	-11.103840	-7.613043	-1.532476	0.377376	0.811976	1.227732	-0.523438	0.356201	-0.469482	0.148373	0.023424	0.049177	-0.089180	0.200484	-0.214870	0.951674	-28.261872	-20.076071	-164.189762
52677		12.770916	2.255628	4.059350	-9.676479	-6.818890	-3.139679	-0.065634	0.885945	0.740887	-0.522217	0.363770	-0.471436	0.127803	0.023043	0.040020	-0.091704	0.195534	-0.216342	0.952131	-28.351640	-19.430799	-164.044581
52678		11.509578	1.244628	3.396237	-8.954679	-5.374864	-3.773042	-0.481700	0.845293	0.307053	-0.514648	0.359619	-0.478027	0.115218	0.012704	0.033445	-0.091798	0.191426	-0.219345	0.952269	-28.605347	-18.923658	-164.121596
52679		11.238584	0.117955	3.252299	-8.926749	-4.252961	-3.557941	-0.787293	0.784231	-0.042584	-0.507568	0.368164	-0.471680	0.112512	0.001282	0.032077	-0.089998	0.188132	-0.223435	0.952147	-28.980112	-18.544532	-164.368863
52680		11.015463	-0.994784	3.239358	-8.877285	-3.190268	-3.191586	-0.970902	0.741149	-0.313236	-0.512451	0.371826	-0.471924	0.110258	-0.009964	0.032033	-0.086782	0.185420	-0.228116	0.951867	-29.419475	-18.264104	-164.748470
52681		10.746749	-1.672681	3.420588	-8.657413	-2.569753	-2.853079	-1.065611	0.711766	-0.485503	-0.496094	0.366455	-0.470459	0.107548	-0.016807	0.033913	-0.082688	0.183079	-0.233066	0.951486	-29.888876	-18.050180	-165.211352
52682		9.714936	-2.480918	3.122485	-7.911995	-1.453110	-3.061873	-1.026933	0.645601	-0.575102	-0.502686	0.368164	-0.471436	0.097178	-0.024929	0.031039	-0.078277	0.181133	-0.237710	0.951082	-30.328693	-17.898393	-165.702191
52683		8.926788	-3.510467	3.052784	-7.288856	-0.300650	-2.876372	-0.717486	0.522374	-0.630184	-0.507080	0.376465	-0.463623	0.089236	-0.035277	0.030421	-0.074027	0.179710	-0.240778	0.950921	-30.594878	-17.826250	-166.184698
52684		8.927235	-3.550276	4.051462	-6.919957	-0.651863	-2.040727	-0.340335	0.434150	-0.640021	-0.499268	0.369385	-0.470703	0.089246	-0.035720	0.040382	-0.070174	0.178577	-0.242004	0.951115	-30.651879	-17.802088	-166.645280
52685		8.439990	-3.242580	4.487175	-6.301739	-0.950448	-1.985366	-0.077761	0.430293	-0.601426	-0.505127	0.380615	-0.471924	0.084398	-0.032662	0.044703	-0.066742	0.177318	-0.242012	0.951596	-30.565317	-17.768140	-167.084666
52686		6.985528	-1.900561	4.109516	-5.050750	-1.592819	-3.390040	0.108347	0.395184	-0.671696	-0.502930	0.373291	-0.481689	0.069872	-0.019262	0.040947	-0.063182	0.176251	-0.241054	0.952279	-30.364266	-17.771406	-167.549581
52687		6.426639	-0.831108	3.996071	-4.547762	-2.310375	-4.161070	0.093597	0.244839	-0.776558	-0.497803	0.375488	-0.481445	0.064282	-0.008579	0.039878	-0.059291	0.176024	-0.240026	0.952831	-30.168627	-17.877310	-168.023622
52688		6.150495	-1.270671	3.586022	-4.454745	-1.638455	-4.356206	0.058307	0.063183	-0.869922	-0.510010	0.371094	-0.484375	0.061460	-0.012985	0.035837	-0.055140	0.176787	-0.239023	0.953192	-29.993385	-18.099291	-168.492186
52689		-0.270630	-5.464386	3.584180	1.464714	3.304421	-4.361608	0.204515	-0.103535	-0.912122	-0.504150	0.371094	-0.481689	-0.002974	-0.054667	0.035784	-0.051116	0.178346	-0.237237	0.953571	-29.740760	-18.413821	-168.934416
52690		-7.052588	-9.200877	15.785121	12.259557	2.604165	5.236679	0.813904	-0.367615	-1.178731	-0.513428	0.367676	-0.491455	-0.071359	-0.092231	0.157346	-0.046675	0.181323	-0.232229	0.954470	-29.114756	-18.932660	-169.442131
52691		-9.097619	-3.152085	5.348955	10.431555	2.082215	-6.956260	0.445035	-0.711595	-1.132746	-0.522461	0.361328	-0.492676	-0.091343	-0.031123	0.053095	-0.042516	0.185959	-0.228933	0.954569	-28.734477	-19.606312	-169.831146
52692		-1.962548	-2.154683	2.508389	2.795144	1.200403	-7.460724	0.623674	-1.792860	-1.604683	-0.536621	0.359863	-0.472412	-0.020021	-0.021465	0.024839	-0.037504	0.196242	-0.224091	0.953869	-28.263928	-20.951036	-170.166108
52693		9.631196	-6.691675	12.322640	-3.735158	-0.527468	6.774645	0.614553	-2.072068	-1.500878	-0.557129	0.348145	-0.477051	0.094522	-0.068011	0.124004	-0.033286	0.207707	-0.219307	0.952709	-27.836553	-22.406120	-170.378156
52694		9.052956	-5.356696	8.998555	-4.279376	-0.156029	3.350884	0.439745	-1.820876	-1.045338	-0.567871	0.336182	-0.465820	0.089424	-0.054235	0.090684	-0.030775	0.217478	-0.215837	0.951405	-27.569815	-23.611581	-170.423413
52695		6.534674	-3.621750	8.100666	-2.202197	-0.906130	0.946689	0.381752	-2.006268	-0.859291	-0.577393	0.335938	-0.454834	0.064373	-0.036651	0.081586	-0.029283	0.227910	-0.212792	0.949694	-27.397972	-24.861552	-170.316724
52696		7.107387	-2.780146	9.664201	-1.805238	-2.321375	2.145036	0.158351	-2.099866	-0.650411	-0.595947	0.346191	-0.442871	0.069963	-0.028107	0.097358	-0.028623	0.238573	-0.211005	0.947492	-27.418156	-26.104634	-170.065711
52697		7.848214	-2.215449	10.026250	-2.054406	-3.057479	2.574951	0.109686	-1.969776	-0.663440	-0.603760	0.340088	-0.434082	0.077416	-0.022468	0.101016	-0.027704	0.248608	-0.209429	0.945286	-27.452024	-27.284430	-169.857319
52698		6.667454	-3.347466	9.492109	-0.972582	-1.604894	2.113519	0.064673	-1.807561	-0.719348	-0.610352	0.350586	-0.431396	0.065692	-0.033743	0.095507	-0.026291	0.257921	-0.207994	0.943146	-27.478827	-28.396973	-169.726652
52699		17.647201	-7.171388	15.142873	-7.184198	-1.878316	13.360748	0.513176	-1.122591	-0.773810	-0.625244	0.340820	-0.430664	0.175339	-0.072784	0.152229	-0.024486	0.263978	-0.204452	0.942293	-27.135513	-29.174884	-169.835416
52700		7.260362	-4.969228	6.779397	-2.478799	0.924720	0.974646	0.300916	-0.214819	-0.262325	-0.626709	0.333496	-0.439209	0.072465	-0.049889	0.067797	-0.023882	0.265259	-0.202686	0.942330	-26.924206	-29.356514	-169.920685
52701		5.356429	-4.055284	8.818199	0.163112	-0.330913	1.267065	0.399729	-0.205012	-0.251638	-0.626953	0.340332	-0.429932	0.053423	-0.040796	0.088155	-0.023449	0.266464	-0.200473	0.942474	-26.657501	-29.529381	-170.003627
52702		6.437651	-3.690956	8.253248	-1.060672	-0.581870	1.219943	0.242963	-0.006871	-0.153369	-0.636719	0.336426	-0.436279	0.064345	-0.037059	0.082490	-0.023071	0.266660	-0.199148	0.942709	-26.479540	-29.575956	-170.087881
52703		5.970861	-4.202443	7.645613	-0.939016	0.206395	0.715499	0.218845	0.029312	-0.091978	-0.638184	0.344727	-0.438232	0.059700	-0.042136	0.076401	-0.022915	0.266621	-0.198026	0.942960	-26.328201	-29.587401	-170.146713
52704		4.995259	-3.034947	7.988255	-0.001511	-0.827978	0.050891	0.136713	0.009665	-0.057835	-0.643799	0.348145	-0.444580	0.049948	-0.030419	0.079859	-0.022829	0.266656	-0.197331	0.943098	-26.236405	-29.600911	-170.179646
52705		5.008382	-3.003804	8.454192	0.226762	-1.016347	0.409627	0.053680	-0.044557	-0.045381	-0.640625	0.348877	-0.439453	0.050058	-0.030072	0.084545	-0.022746	0.266938	-0.197041	0.943081	-26.203882	-29.638364	-170.189481
52706		5.663171	-3.302574	7.771002	-0.660529	-0.590663	0.315579	-0.027992	-0.026849	-0.009596	-0.639893	0.356445	-0.441162	0.056620	-0.033018	0.077722	-0.022704	0.267116	-0.197182	0.943002	-26.225749	-29.658403	-170.183290
52707		5.170098	-3.335343	7.869392	-0.182694	-0.527605	0.160778	-0.057422	-0.018219	0.022391	-0.650879	0.362793	-0.448730	0.051698	-0.033325	0.078708	-0.022766	0.267219	-0.197509	0.942903	-26.272917	-29.665152	-170.160710
52708		6.166360	-3.535871	7.423193	-1.249488	-0.337744	0.383139	-0.077397	-0.014813	0.024044	-0.655029	0.358398	-0.436768	0.061662	-0.035323	0.074250	-0.022804	0.267313	-0.197930	0.942787	-26.331194	-29.670478	-170.138117
52709		6.242102	-3.715822	7.448877	-1.288439	-0.201602	0.509920	-0.072497	-0.002729	0.041520	-0.649414	0.370605	-0.440186	0.062428	-0.037118	0.074503	-0.022921	0.267326	-0.198355	0.942691	-26.390359	-29.664371	-170.108754
52710		5.380353	-3.811397	7.544149	-0.496251	-0.029283	0.194410	-0.080999	0.015101	0.056010	-0.657227	0.361572	-0.447266	0.053820	-0.038068	0.075453	-0.023076	0.267248	-0.198839	0.942608	-26.455694	-29.646201	-170.076053
52711		5.489112	-3.794720	7.399340	-0.665785	-0.018616	0.128986	-0.076271	0.004637	0.055627	-0.658936	0.366455	-0.448486	0.054903	-0.037904	0.074007	-0.023246	0.267212	-0.199302	0.942516	-26.520041	-29.632655	-170.040556
52712		5.740620	-3.607600	7.338162	-0.924762	-0.215704	0.132985	-0.065659	0.004813	0.053422	-0.662354	0.370850	-0.450928	0.057418	-0.036037	0.073392	-0.023420	0.267183	-0.199708	0.942434	-26.577292	-29.620379	-170.006405
52713		5.682251	-3.795699	7.227110	-0.921565	-0.002184	0.090703	-0.053229	0.019853	0.058060	-0.672852	0.373779	-0.444336	0.056841	-0.037921	0.072276	-0.023617	0.267071	-0.200067	0.942384	-26.626891	-29.598352	-169.974006
52714		5.578258	-3.821687	7.245664	-0.824503	0.024091	0.063623	-0.025615	0.036691	0.048691	-0.677246	0.370850	-0.443115	0.055805	-0.038194	0.072451	-0.023790	0.266892	-0.200282	0.942385	-26.655134	-29.570952	-169.952095
52715		4.939124	-3.968540	7.435479	-0.175334	0.183108	-0.047118	0.003636	0.047962	0.039399	-0.676514	0.375244	-0.453613	0.049417	-0.039677	0.074342	-0.023947	0.266659	-0.200352	0.942432	-26.662588	-29.539301	-169.939030
52716		5.570543	-3.817967	6.977117	-0.965388	0.115572	-0.151287	0.030984	0.052216	0.023509	-0.675293	0.375488	-0.448242	0.055728	-0.038184	0.069751	-0.024061	0.266426	-0.200268	0.942513	-26.648816	-29.510436	-169.936544
52717		5.138626	-3.637762	7.380931	-0.404598	-0.130453	-0.120618	0.036619	0.042916	0.025209	-0.685547	0.394287	-0.456299	0.051407	-0.036385	0.073792	-0.024201	0.266227	-0.200163	0.942588	-26.633985	-29.485018	-169.930335
52718		4.596776	-3.806673	7.675251	0.217421	0.000844	-0.092435	0.024489	0.018488	0.023349	-0.687012	0.387207	-0.453125	0.045979	-0.038071	0.076744	-0.024339	0.266153	-0.200106	0.942617	-26.628793	-29.473495	-169.917977
52719		4.533267	-3.919187	7.698800	0.290215	0.105642	-0.061448	0.014418	-0.010896	0.005662	-0.695068	0.387695	-0.447266	0.045330	-0.039196	0.076988	-0.024411	0.266230	-0.200073	0.942601	-26.628834	-29.480660	-169.907389
52720		4.703394	-3.882472	7.575810	0.083102	0.091150	-0.087813	0.006587	-0.057279	-0.016402	-0.695068	0.382813	-0.453857	0.047009	-0.038831	0.075770	-0.024414	0.266556	-0.200038	0.942516	-26.633395	-29.518145	-169.896064
52721		4.997492	-3.691207	7.396537	-0.264162	-0.063782	-0.156869	-0.001252	-0.091133	-0.035794	-0.702148	0.387451	-0.450439	0.049935	-0.036921	0.073988	-0.024349	0.267054	-0.200014	0.942382	-26.642079	-29.577051	-169.886181
52722		4.776813	-3.838956	7.536131	0.016665	0.055013	-0.099527	-0.012980	-0.111355	-0.041645	-0.696533	0.396729	-0.446777	0.047718	-0.038395	0.075390	-0.024261	0.267662	-0.200031	0.942208	-26.658436	-29.648717	-169.873713
52723		4.871106	-3.893076	7.535604	-0.048125	0.090635	-0.032171	-0.007330	-0.121196	-0.050254	-0.707031	0.390381	-0.443604	0.048656	-0.038940	0.075387	-0.024151	0.268317	-0.200012	0.942029	-26.670832	-29.726730	-169.863409
52724		5.496161	-3.717467	7.170730	-0.767892	-0.032263	-0.073282	0.001952	-0.115954	-0.058984	-0.704102	0.398926	-0.444092	0.054909	-0.037192	0.071739	-0.024005	0.268962	-0.199934	0.941865	-26.674289	-29.805208	-169.859756
52725		5.157119	-3.533530	7.501468	-0.306344	-0.268516	-0.056265	-0.006169	-0.108051	-0.051969	-0.706055	0.399902	-0.441162	0.051521	-0.035346	0.075044	-0.023875	0.269556	-0.199909	0.941704	-26.683619	-29.876931	-169.854324
52726		5.060337	-3.650232	7.374918	-0.269794	-0.100092	-0.156715	-0.018662	-0.099596	-0.052052	-0.716553	0.397461	-0.443848	0.050557	-0.036509	0.073778	-0.023719	0.270120	-0.199940	0.941540	-26.698529	-29.945270	-169.851400
52727		4.762187	-3.501236	7.608039	0.107231	-0.277072	-0.182990	-0.030704	-0.095811	-0.046881	-0.720703	0.403320	-0.450684	0.047577	-0.035012	0.076109	-0.023567	0.270654	-0.200038	0.941369	-26.721637	-30.009416	-169.846548
52728		5.032698	-3.677042	7.472926	-0.170893	-0.110334	-0.083765	-0.056116	-0.095191	-0.035417	-0.718994	0.408203	-0.438965	0.050285	-0.036758	0.074764	-0.023433	0.271185	-0.200268	0.941171	-26.762307	-30.071216	-169.835034
52729		5.088229	-3.458106	7.576650	-0.167695	-0.362493	-0.061038	-0.069737	-0.084261	-0.029470	-0.720215	0.403076	-0.439453	0.050845	-0.034562	0.075800	-0.023299	0.271651	-0.200575	0.940974	-26.811275	-30.124953	-169.823231
52730		4.884559	-3.832508	7.481778	-0.009729	0.041131	-0.090432	-0.073060	-0.073714	-0.009828	-0.722900	0.406738	-0.444336	0.048816	-0.038300	0.074850	-0.023242	0.272057	-0.200922	0.940784	-26.866099	-30.169146	-169.802883
52731		4.623008	-3.905872	7.507329	0.238866	0.132684	-0.173530	-0.073757	-0.054919	-0.015390	-0.724854	0.419189	-0.439941	0.046206	-0.039035	0.075100	-0.023139	0.272372	-0.201270	0.940621	-26.917210	-30.204221	-169.791430
52732		4.975004	-3.763303	7.322739	-0.159474	0.010011	-0.194471	-0.058743	-0.044741	-0.018929	-0.727295	0.407471	-0.438477	0.049730	-0.037616	0.073250	-0.023029	0.272649	-0.201540	0.940486	-26.956819	-30.235944	-169.785065
52733		5.286604	-3.559301	7.278557	-0.456092	-0.212587	-0.151374	-0.037235	-0.023819	-0.016570	-0.729248	0.416016	-0.440918	0.052854	-0.035584	0.072798	-0.022939	0.272814	-0.201719	0.940402	-26.981982	-30.255432	-169.783602
52734		4.866369	-3.833262	7.309013	-0.061259	0.089332	-0.232219	-0.029260	-0.012389	-0.011196	-0.730469	0.418945	-0.440430	0.048657	-0.038325	0.073099	-0.022873	0.272928	-0.201864	0.940339	-27.002113	-30.268635	-169.782370
52735		5.118095	-3.684697	7.370413	-0.251109	-0.109038	-0.116300	0.004929	-0.003550	-0.016908	-0.734619	0.423340	-0.436279	0.051177	-0.036853	0.073704	-0.022818	0.272994	-0.201846	0.940325	-26.999948	-30.277863	-169.787199
52736		5.159410	-3.713980	7.272440	-0.334897	-0.050386	-0.159354	0.033290	0.019300	-0.025647	-0.737305	0.411865	-0.443115	0.051596	-0.037159	0.072713	-0.022737	0.272965	-0.201682	0.940371	-26.975122	-30.278651	-169.804053
52737		5.513321	-3.603550	7.095158	-0.738312	-0.135960	-0.160747	0.050982	0.063443	-0.038639	-0.734619	0.424316	-0.446777	0.055149	-0.036064	0.070925	-0.022576	0.272733	-0.201425	0.940497	-26.929934	-30.259304	-169.841884
52738		5.093674	-3.771277	7.274786	-0.282937	0.023912	-0.168523	0.088747	0.109402	-0.040642	-0.744629	0.424316	-0.439453	0.050969	-0.037755	0.072703	-0.022409	0.272290	-0.200990	0.940723	-26.855267	-30.217932	-169.894629
52739		4.830266	-4.152408	7.125488	-0.122879	0.480485	-0.268027	0.131894	0.183789	-0.066792	-0.737305	0.432617	-0.443115	0.048354	-0.041587	0.071183	-0.022105	0.271510	-0.200328	0.941096	-26.737366	-30.144219	-169.984982
52740		5.333681	-4.083529	6.904033	-0.690940	0.440642	-0.214908	0.193983	0.292752	-0.087918	-0.742920	0.430420	-0.453613	0.053420	-0.040926	0.068923	-0.021757	0.270257	-0.199329	0.941677	-26.561363	-30.020918	-170.109866
52741		4.802806	-4.175485	7.239328	-0.087599	0.505787	-0.187416	0.225460	0.395632	-0.092244	-0.735596	0.433838	-0.456787	0.048152	-0.041859	0.072251	-0.021248	0.268494	-0.198214	0.942428	-26.351903	-29.844575	-170.276951
52742		4.464338	-4.233887	7.336631	0.219639	0.599274	-0.258908	0.230332	0.456817	-0.097089	-0.745117	0.435791	-0.460449	0.044790	-0.042445	0.073215	-0.020661	0.266453	-0.197071	0.943260	-26.130082	-29.638465	-170.463644
52743		4.630721	-4.174515	7.514618	0.123094	0.482563	-0.061206	0.235957	0.495953	-0.094212	-0.739014	0.436768	-0.466553	0.046474	-0.041856	0.074982	-0.020057	0.264214	-0.195912	0.944144	-25.901895	-29.409853	-170.658625
52744		4.967231	-4.058231	7.320984	-0.315369	0.424549	-0.093660	0.235389	0.507048	-0.098488	-0.741211	0.436768	-0.468994	0.049838	-0.040693	0.073036	-0.019420	0.261933	-0.194746	0.945033	-25.672358	-29.176890	-170.857788
52745		4.875912	-3.605501	7.647667	-0.145792	-0.070736	-0.053872	0.227518	0.491766	-0.094329	-0.747803	0.445068	-0.470215	0.048930	-0.036165	0.076315	-0.018808	0.259711	-0.193623	0.945889	-25.452352	-28.949135	-171.048699
52746		4.645973	-3.796613	7.625340	0.012013	0.171707	-0.111383	0.228973	0.475475	-0.102032	-0.744385	0.440674	-0.471924	0.046621	-0.038077	0.076099	-0.018176	0.257580	-0.192477	0.946718	-25.232547	-28.732055	-171.238166
52747		5.718922	-3.208342	7.267405	-1.173799	-0.360025	-0.101506	0.253588	0.459748	-0.120814	-0.736816	0.436523	-0.476074	0.057337	-0.032210	0.072502	-0.017504	0.255529	-0.191191	0.947547	-24.996975	-28.526055	-171.433033
52748		4.995219	-3.142522	7.817619	-0.318290	-0.489886	-0.035095	0.262205	0.430956	-0.119139	-0.750000	0.441162	-0.482422	0.050102	-0.031557	0.078027	-0.016876	0.253619	-0.189859	0.948339	-24.761618	-28.334927	-171.617659
52749		4.911237	-3.544974	7.587457	-0.367644	0.006876	-0.111080	0.289754	0.398462	-0.137997	-0.756104	0.437744	-0.488037	0.049239	-0.035593	0.075725	-0.016226	0.251868	-0.188372	0.949113	-24.510775	-28.163527	-171.803410
52750		4.531109	-3.488764	7.777470	0.019941	-0.029265	-0.159190	0.322032	0.369685	-0.153600	-0.754150	0.447021	-0.492432	0.045428	-0.035048	0.077634	-0.015568	0.250273	-0.186705	0.949875	-24.241416	-28.011118	-171.989487
52751		4.708277	-3.628738	7.814751	-0.137856	0.103736	0.004439	0.342724	0.337901	-0.173807	-0.760010	0.434082	-0.497070	0.047183	-0.036462	0.078005	-0.014871	0.248836	-0.184914	0.950614	-23.959776	-27.878249	-172.178052
52752		4.252333	-3.470545	7.955934	0.293421	0.001659	-0.151547	0.344773	0.286512	-0.185160	-0.752686	0.440674	-0.495117	0.042605	-0.034882	0.079438	-0.014169	0.247661	-0.183091	0.951284	-23.680557	-27.775154	-172.358933
52753		4.149544	-3.381586	8.057864	0.407043	-0.066090	-0.147657	0.329624	0.211509	-0.194295	-0.761230	0.432617	-0.499756	0.041548	-0.033989	0.080479	-0.013474	0.246842	-0.181326	0.951845	-23.417406	-27.711764	-172.525162
52754		4.255126	-3.093207	8.007697	0.259878	-0.294477	-0.239660	0.306417	0.139925	-0.198894	-0.768799	0.431885	-0.503418	0.042576	-0.031097	0.080000	-0.012793	0.246377	-0.179657	0.952291	-23.174755	-27.687450	-172.675401
52755		4.776192	-2.423239	8.158323	-0.172672	-0.999028	-0.106278	0.227152	0.016590	-0.194813	-0.776611	0.434814	-0.501953	0.047745	-0.024372	0.081552	-0.012145	0.246491	-0.178365	0.952513	-22.993562	-27.725723	-172.791837
52756		4.071233	-2.669466	8.379766	0.574823	-0.740638	-0.166836	0.146619	-0.086728	-0.176043	-0.775146	0.430664	-0.509277	0.040652	-0.026792	0.083796	-0.011579	0.247094	-0.177470	0.952531	-22.875308	-27.815067	-172.871179
52757		4.472885	-2.637838	8.345951	0.221729	-0.786509	-0.017180	0.095430	-0.194764	-0.170130	-0.775635	0.423828	-0.501221	0.044625	-0.026456	0.083490	-0.011074	0.248200	-0.176823	0.952370	-22.800855	-27.959012	-172.920071
52758		4.473839	-2.658476	8.361875	0.258353	-0.761142	0.003498	0.036250	-0.305216	-0.172473	-0.779053	0.420410	-0.495361	0.044588	-0.026638	0.083682	-0.010581	0.249845	-0.176444	0.952015	-22.772074	-28.162785	-172.942816
52759		4.772962	-3.190887	7.969152	-0.115044	-0.156728	0.007309	0.013389	-0.433241	-0.202114	-0.788330	0.431885	-0.492432	0.047525	-0.031962	0.079792	-0.010033	0.252117	-0.176133	0.951480	-22.763504	-28.439759	-172.951232
52760		3.969599	-4.276154	7.880997	0.673051	0.986088	-0.079874	0.082880	-0.614921	-0.179684	-0.798828	0.418457	-0.488281	0.039415	-0.042830	0.078914	-0.009838	0.255237	-0.175505	0.950766	-22.743042	-28.808758	-172.900394
52761		4.482938	-1.319427	8.950395	0.612385	-2.185844	0.025690	0.059505	-0.819426	-0.148444	-0.800781	0.420654	-0.483887	0.044452	-0.013254	0.089683	-0.009942	0.259290	-0.175020	0.949757	-22.771172	-29.277880	-172.778591
52762		4.079914	-3.208235	8.335891	0.881653	-0.165016	-0.034125	-0.100269	-0.908520	-0.280727	-0.818359	0.421387	-0.473389	0.040375	-0.032097	0.083559	-0.009287	0.263894	-0.175110	0.948478	-22.863529	-29.824317	-172.713188
52763		4.176232	-3.016799	8.268931	0.852119	-0.336478	-0.113363	-0.166159	-1.042307	-0.360257	-0.821533	0.412842	-0.463623	0.041276	-0.030174	0.082930	-0.008286	0.269189	-0.175401	0.946944	-22.988441	-30.458011	-172.660180
52764		4.588261	-2.839137	8.170830	0.551060	-0.522162	-0.050631	-0.215322	-1.157743	-0.413576	-0.836426	0.409668	-0.449219	0.045350	-0.028397	0.082002	-0.007066	0.275077	-0.175837	0.945179	-23.141378	-31.165368	-172.607613
52765		4.650669	-3.069939	7.856652	0.479914	-0.216459	-0.194911	-0.240317	-1.259279	-0.467322	-0.841797	0.397705	-0.439453	0.045939	-0.030713	0.078894	-0.005648	0.281474	-0.176311	0.943215	-23.307825	-31.937247	-172.558571
52766		5.095322	-3.141590	7.775832	0.207869	-0.177277	-0.003556	-0.225644	-1.374506	-0.513228	-0.853760	0.389648	-0.427734	0.050336	-0.031458	0.078141	-0.004134	0.288448	-0.176634	0.941053	-23.468894	-32.780978	-172.504098
52767		4.570239	-3.956025	7.578947	0.765605	0.706766	-0.174742	-0.194029	-1.478276	-0.579232	-0.855469	0.393799	-0.421875	0.045026	-0.039618	0.076162	-0.002448	0.295942	-0.176705	0.938716	-23.607630	-33.693260	-172.459452
52768		5.641025	-3.846197	7.051572	-0.258488	0.667257	-0.023686	-0.146892	-1.584389	-0.726856	-0.871338	0.379395	-0.406006	0.055709	-0.038613	0.070987	-0.000231	0.304051	-0.176317	0.936197	-23.684852	-34.696008	-172.476496
52769		5.196569	-4.149976	7.090628	0.336580	1.003674	-0.149348	-0.098452	-1.694240	-0.867340	-0.892578	0.373047	-0.379150	0.051182	-0.041688	0.071363	0.002472	0.312765	-0.175480	0.933477	-23.700807	-35.787827	-172.551960
52770		5.037951	-4.375618	7.160604	0.723229	1.236720	-0.130475	-0.025872	-1.809294	-1.025202	-0.901367	0.352295	-0.366211	0.049504	-0.044002	0.072062	0.005699	0.322131	-0.174035	0.930543	-23.630911	-36.977215	-172.699277
52771		5.121540	-4.200691	7.107017	0.811430	1.122262	-0.196884	0.045124	-1.931378	-1.213753	-0.912842	0.345215	-0.343262	0.050270	-0.042330	0.071549	0.009580	0.332185	-0.171945	0.927360	-23.460054	-38.272720	-172.941841
52772		4.885654	-3.786431	7.462530	1.383398	0.695093	-0.247433	0.138355	-2.093548	-1.426436	-0.925537	0.326416	-0.321777	0.047800	-0.038260	0.075103	0.014153	0.343137	-0.169047	0.923840	-23.162798	-39.701865	-173.292588
52773		4.684858	-3.693949	7.584563	1.845171	0.656481	-0.364039	0.229093	-2.296837	-1.640978	-0.950195	0.312744	-0.310303	0.045668	-0.037405	0.076332	0.019385	0.355147	-0.165349	0.919867	-22.736308	-41.283574	-173.751942
52774		4.242288	-3.684799	7.628208	2.467738	0.752612	-0.696729	0.325947	-2.550206	-1.873476	-0.956543	0.287598	-0.274658	0.041098	-0.037362	0.076751	0.025302	0.368449	-0.160777	0.915290	-22.161948	-43.048026	-174.333323
52775		4.613949	-3.296318	7.611221	2.415933	0.461979	-0.646173	0.480416	-2.917633	-2.120048	-0.973633	0.268555	-0.262207	0.044669	-0.033626	0.076691	0.031759	0.383535	-0.155047	0.909864	-21.401724	-45.054456	-175.035104
52776		4.011282	-3.539111	7.574532	3.184769	0.857996	-1.146788	0.685647	-3.382145	-2.385014	-0.994629	0.231934	-0.221436	0.038398	-0.036117	0.076281	0.038657	0.400830	-0.147885	0.903311	-20.404312	-47.356435	-175.876194
52777		4.363025	-3.962667	7.523291	3.359623	1.400251	-0.976789	0.900123	-3.875966	-2.738905	-1.008301	0.206787	-0.174805	0.041613	-0.040546	0.075871	0.046336	0.420447	-0.139069	0.895398	-19.068183	-49.980214	-176.972433
52778		5.259858	-4.238869	7.185720	3.021414	1.905265	-0.621093	1.086194	-4.357436	-3.135959	-1.023682	0.169434	-0.140625	0.050343	-0.043583	0.072736	0.055037	0.442261	-0.128601	0.885911	-17.286927	-52.917067	-178.457162
52779		5.894397	-3.791590	7.312135	3.144491	1.637867	-0.326659	1.200931	-4.860800	-3.554028	-1.039551	0.127686	-0.084717	0.056457	-0.039378	0.074280	0.064965	0.466225	-0.116734	0.874521	-14.943996	-56.161956	179.508490
52780		6.982302	-3.508103	7.451108	3.179542	1.574615	0.382613	1.256594	-5.447200	-3.924387	-1.051270	0.085449	-0.033447	0.067052	-0.036890	0.076135	0.075828	0.492514	-0.103753	0.860764	-11.895524	-59.724594	176.777443
52781		11.450480	-2.736402	10.952039	4.512533	0.381286	5.612262	1.001455	-5.909475	-4.103011	-1.062988	0.038818	0.027344	0.110606	-0.030219	0.112681	0.087898	0.520153	-0.091547	0.844591	-8.135048	-63.473358	173.153708
52782		13.436049	-2.709263	12.403414	6.041583	0.459282	7.646919	0.568158	-6.432530	-4.189384	-1.054199	-0.004639	0.097656	0.129671	-0.030202	0.128173	0.101098	0.549122	-0.081046	0.825637	-3.399621	-67.389119	168.305139
52783		16.379878	-1.980955	12.847015	6.534641	0.160211	10.045037	-0.369845	-6.842843	-4.031759	-1.054932	-0.057373	0.168945	0.158837	-0.022801	0.134003	0.115899	0.578402	-0.074934	0.803992	2.432453	-71.339429	161.848049
52784		19.709473	-4.209987	12.190417	7.176221	2.989960	12.414783	-0.935787	-7.056363	-3.955421	-1.031982	-0.102783	0.243164	0.191752	-0.045336	0.128941	0.131763	0.607245	-0.071318	0.780260	10.930717	-75.108105	152.415490
52785		19.863052	-3.844068	11.037389	7.683302	3.153256	11.679166	-0.644954	-6.683350	-4.117997	-1.005127	-0.130615	0.312012	0.193951	-0.042097	0.117040	0.147299	0.633909	-0.065715	0.756402	24.953788	-78.053011	137.624772
52786		16.794452	-2.521836	10.719818	8.918401	1.737519	8.092570	-0.629641	-6.229482	-3.953067	-0.979980	-0.187744	0.364746	0.163959	-0.028137	0.112433	0.162097	0.657885	-0.060146	0.733004	44.538319	-79.725124	117.305166
52787		13.726353	-1.796506	9.614845	8.983563	1.003479	4.409799	-0.772810	-5.509988	-3.720279	-0.947021	-0.225586	0.416016	0.134184	-0.020099	0.099949	0.176527	0.678221	-0.055210	0.711201	65.322894	-79.799668	95.739067
52788		13.259563	-3.197800	9.293570	9.958041	2.381380	3.129794	-0.853836	-4.657758	-3.437713	-0.912354	-0.263184	0.458740	0.129811	-0.033820	0.096123	0.190289	0.694704	-0.050714	0.691813	81.325907	-78.669571	78.952972
52789		12.554238	-3.119455	14.691343	15.604744	0.353898	1.997668	-0.903235	-3.629639	-3.052023	-0.883789	-0.292969	0.491211	0.122359	-0.032407	0.149298	0.203012	0.706989	-0.046712	0.675848	91.031620	-77.058837	68.495101
52790		21.996921	-7.393213	21.537982	24.764621	3.779163	9.546505	-1.268832	-1.922990	-2.684686	-0.856934	-0.315674	0.493164	0.216875	-0.075480	0.217951	0.216095	0.712728	-0.043494	0.665905	94.514272	-75.470030	64.158545
52791		14.843129	-11.822336	18.755143	23.233665	7.160866	1.176362	-1.157899	0.596141	-1.754261	-0.844238	-0.340088	0.469482	0.147953	-0.118436	0.187795	0.226186	0.709850	-0.040488	0.665818	92.368594	-74.488668	65.689951
52792		8.842429	-11.469886	14.198307	18.195428	7.169611	-4.440751	-0.355014	2.068499	-1.136214	-0.856201	-0.354004	0.445801	0.089235	-0.114953	0.141267	0.231406	0.702763	-0.035130	0.671819	87.985728	-73.846196	70.066940
52793		5.279023	-8.040547	11.745693	14.245869	4.230857	-6.710308	-0.186839	2.914274	-0.293465	-0.868652	-0.350830	0.412842	0.054377	-0.080375	0.116747	0.233542	0.692753	-0.031389	0.681591	82.249410	-73.538298	75.928530
52794		2.540859	-6.601055	8.930244	10.841402	3.318535	-8.708339	-0.802886	3.333888	0.766787	-0.877686	-0.354980	0.368896	0.027147	-0.065551	0.089123	0.233840	0.680252	-0.032627	0.693910	75.142665	-73.602644	82.908984
52795		-0.295416	-7.435069	5.423197	7.809903	4.548713	-11.568751	-1.274374	3.420493	1.723298	-0.890381	-0.341309	0.334717	-0.001382	-0.074019	0.054737	0.232712	0.666495	-0.038942	0.707186	66.954157	-73.903771	90.673296
52796		-2.677204	-8.312684	2.945549	5.981744	5.596371	-14.035673	-1.160052	3.222839	2.417215	-0.891113	-0.318359	0.295898	-0.025282	-0.083264	0.030354	0.228201	0.653167	-0.047077	0.720473	58.282812	-74.294108	99.053225
52797		-3.630976	-7.832551	2.788925	5.858868	5.039852	-14.563884	-0.681378	2.959111	2.871590	-0.906982	-0.293457	0.268555	-0.034761	-0.078735	0.028679	0.220734	0.640932	-0.055560	0.733073	49.475569	-74.628618	107.784861
52798		-2.386356	-6.283101	4.623539	6.938148	3.405950	-12.420493	-0.325497	2.797539	3.219581	-0.916260	-0.257813	0.225098	-0.022198	-0.063122	0.046656	0.210236	0.629323	-0.063692	0.745451	40.336584	-74.804925	117.125867
52799		-0.034487	-5.022224	7.091686	8.422537	2.011482	-9.092685	-0.287007	2.879023	3.583658	-0.922363	-0.230957	0.203857	0.001575	-0.050104	0.070975	0.198647	0.617005	-0.073031	0.757965	30.528661	-74.655235	127.117269
52800		2.096427	-4.420720	8.578827	9.083361	1.423184	-6.209539	-0.428407	3.236362	3.954991	-0.936523	-0.189941	0.172363	0.023216	-0.043580	0.085519	0.185671	0.602715	-0.083395	0.771561	20.127208	-73.952055	137.717510
52801		3.211754	-3.896978	8.989221	8.798755	0.978441	-4.529887	-0.561828	3.717403	4.235325	-0.934326	-0.151123	0.130371	0.034594	-0.038003	0.089372	0.172503	0.585870	-0.094877	0.786128	10.160173	-72.529332	147.784260
52802		3.886391	-3.255496	8.377113	7.525766	0.649176	-3.584250	-0.604609	4.203988	4.407056	-0.943848	-0.105957	0.079346	0.041315	-0.031411	0.083016	0.158441	0.566514	-0.106300	0.801660	1.551159	-70.388121	156.546138
52803		4.018490	-2.453326	7.260207	5.844601	0.227687	-3.437431	-0.548028	4.589543	4.407519	-0.933105	-0.068359	0.037598	0.042362	-0.023418	0.071712	0.144686	0.545080	-0.117325	0.817428	-5.148295	-67.680180	163.377967
52804		4.431357	-1.353320	6.626681	4.361059	-0.620493	-3.033453	-0.480200	4.807986	4.272771	-0.923828	-0.033203	-0.015137	0.046163	-0.012403	0.065202	0.130904	0.522345	-0.127260	0.832961	-10.112617	-64.622590	168.543139
52805		5.696397	-0.374212	7.324248	3.623112	-1.783944	-1.452079	-0.551028	4.923826	4.067988	-0.907227	0.002197	-0.072266	0.058801	-0.002359	0.071818	0.118465	0.498651	-0.136925	0.847682	-13.768578	-61.382483	172.286546
52806		7.641894	-0.331205	8.377553	2.972544	-2.221051	0.905679	-0.776486	5.076152	3.867105	-0.892334	0.032715	-0.109619	0.078553	-0.001487	0.081808	0.107205	0.473803	-0.146739	0.861676	-16.586195	-57.993907	175.053460
52807		9.447684	-1.004660	8.899053	1.925953	-1.890237	2.920021	-0.980315	5.275403	3.686938	-0.883301	0.076416	-0.171387	0.096939	-0.007846	0.086497	0.097452	0.447625	-0.156825	0.874952	-18.792829	-54.475447	177.027249
52808		10.421635	-1.946642	8.397530	0.448286	-1.011618	3.664293	-1.042080	5.465142	3.471874	-0.851563	0.105225	-0.213623	0.106772	-0.017200	0.081174	0.088817	0.420242	-0.166452	0.887582	-20.476399	-50.856406	178.387473
52809		10.965209	-2.835685	7.880884	-0.866470	-0.175415	3.954567	-0.955821	5.529356	3.223223	-0.813477	0.128906	-0.266357	0.112211	-0.026195	0.075858	0.081069	0.392410	-0.174956	0.899351	-21.703170	-47.239284	179.281883
52810		12.373203	-3.611242	8.112974	-2.352706	0.292760	5.229221	-0.907707	5.477727	3.080603	-0.778320	0.154297	-0.310303	0.126427	-0.033820	0.077848	0.073733	0.364513	-0.182818	0.910094	-22.687106	-43.665142	179.926409
52811		13.916663	-5.493943	7.794941	-4.137262	1.968577	6.421065	-0.897014	5.365557	3.143367	-0.737549	0.173584	-0.336182	0.142031	-0.052383	0.074403	0.065922	0.336748	-0.190592	0.919744	-23.608958	-40.133628	-179.467960
52812		14.648328	-6.786325	7.157341	-5.754096	3.189878	6.572512	-0.728645	5.140513	3.360670	-0.692139	0.190186	-0.369141	0.149372	-0.065117	0.067999	0.056545	0.309501	-0.197859	0.928366	-24.476197	-36.657920	-178.751005
52813		15.135423	-6.412696	6.955502	-7.317193	2.663981	6.245014	-0.608736	4.744465	3.670688	-0.663330	0.203125	-0.400635	0.154090	-0.061111	0.066110	0.045104	0.283568	-0.204965	0.935705	-25.363931	-33.309522	-177.816963
52814		15.868614	-6.040587	6.693988	-9.057593	2.078195	5.892650	-0.608476	4.241076	3.991842	-0.618408	0.212158	-0.412109	0.161221	-0.057007	0.063716	0.031600	0.259374	-0.212469	0.941586	-26.336363	-30.124056	-176.638952
52815		16.815439	-5.100929	6.687475	-10.875928	0.763039	5.501967	-0.591582	3.707755	4.225844	-0.595459	0.221680	-0.430664	0.170382	-0.047233	0.063873	0.016385	0.237266	-0.220093	0.946042	-27.336482	-27.138284	-175.266275
52816		18.173533	-3.796639	6.266002	-13.168359	-0.834554	4.670389	-0.603568	3.158944	4.328228	-0.561523	0.241455	-0.439453	0.183458	-0.033825	0.059877	0.000078	0.217425	-0.227784	0.949126	-28.338516	-24.378558	-173.766262
52817		19.648386	-2.664918	4.934920	-15.739628	-1.978555	3.062702	-0.548109	2.631266	4.255560	-0.540771	0.256104	-0.452393	0.197617	-0.022321	0.046819	-0.016540	0.200056	-0.234966	0.951049	-29.259915	-21.885556	-172.228706
52818		20.999845	-1.574897	3.126039	-18.161796	-2.893071	0.908724	-0.339945	2.149248	3.942256	-0.533691	0.261719	-0.456543	0.210574	-0.011551	0.029021	-0.032438	0.185187	-0.240681	0.952222	-29.974428	-19.698041	-170.775749
52819		22.236755	0.287263	1.510337	-20.201619	-4.535260	-1.560360	-0.063614	1.760007	3.450537	-0.513916	0.268799	-0.468506	0.222395	0.006714	0.013145	-0.046702	0.172664	-0.244446	0.953023	-30.423506	-17.834772	-169.502955
52820		22.351754	2.662560	-0.018602	-20.930376	-6.404167	-4.563570	0.083994	1.419306	2.877619	-0.498047	0.282715	-0.478271	0.223095	0.029838	-0.001758	-0.058767	0.162353	-0.246863	0.953544	-30.689014	-16.296452	-168.446695
52821		22.636186	4.082749	-1.004803	-21.478932	-7.609656	-6.526776	0.085561	1.071185	2.222776	-0.490967	0.296631	-0.479980	0.225831	0.043344	-0.011240	-0.068127	0.154499	-0.248582	0.953780	-30.863553	-15.120228	-167.632394
52822		23.677036	4.480465	-1.444625	-22.546885	-8.232124	-7.240106	-0.005800	0.855145	1.567560	-0.487061	0.293213	-0.492920	0.236345	0.046658	-0.015459	-0.074554	0.148488	-0.250132	0.953849	-31.007028	-14.239407	-167.092750
52823		22.623347	5.317705	-3.150487	-22.007776	-8.102098	-9.648445	-0.083609	0.699714	0.925065	-0.475830	0.299072	-0.495117	0.225872	0.054209	-0.032318	-0.078048	0.144057	-0.251499	0.953889	-31.120262	-13.625257	-166.834238
52824		21.065704	6.488737	-4.968240	-20.995695	-7.973331	-12.294007	-0.231822	0.347621	0.246920	-0.488281	0.294189	-0.491455	0.210490	0.065089	-0.050124	-0.078643	0.142208	-0.252944	0.953736	-31.261452	-13.383823	-166.812065
52825		20.985234	4.725988	-6.004503	-21.390302	-5.918942	-12.300494	-0.294504	-0.120886	-0.407063	-0.481445	0.299805	-0.489990	0.209984	0.046744	-0.059987	-0.076665	0.143448	-0.254035	0.953421	-31.395069	-13.566988	-166.976023
52826		20.882610	2.846548	-5.152309	-21.194450	-4.584420	-10.524056	-0.221229	-0.592048	-0.913306	-0.487061	0.290771	-0.483154	0.209104	0.027454	-0.050935	-0.072924	0.147552	-0.254228	0.953037	-31.459339	-14.132527	-167.249790
52827		20.100104	0.378749	-3.810476	-20.195457	-2.807203	-8.100349	-0.279089	-0.979967	-1.169786	-0.501465	0.287842	-0.476807	0.201202	0.002559	-0.037123	-0.068407	0.153839	-0.254355	0.952343	-31.551160	-14.964215	-167.533118
52828		10.998924	-11.725654	-4.746616	-12.484107	10.031556	-4.862076	-0.228614	-1.226842	-1.106807	-0.507568	0.286133	-0.475586	0.109626	-0.117918	-0.046658	-0.064537	0.161208	-0.254187	0.951439	-31.638835	-15.899407	-167.707323
52829		-3.805304	-18.119843	15.100165	8.067431	9.767331	10.442706	2.885232	-1.688930	-1.104458	-0.520508	0.270020	-0.469238	-0.040319	-0.183130	0.148035	-0.063766	0.169723	-0.239014	0.953939	-29.975682	-17.057370	-167.753381
52830		-11.935158	-3.478127	11.643910	15.180260	0.568004	-2.108704	1.336251	-1.809091	0.134072	-0.531006	0.270264	-0.456543	-0.120373	-0.035634	0.115117	-0.067713	0.177801	-0.232190	0.953881	-29.397612	-17.924166	-167.141171
52831		-8.120262	4.896654	-0.785086	7.407550	-2.259585	-15.339948	1.398124	-3.430464	-0.477658	-0.548584	0.264648	-0.445801	-0.080939	0.049220	-0.008897	-0.070667	0.194246	-0.223922	0.952436	-28.845778	-19.777294	-166.379211
52832		13.058786	2.887818	17.866621	-4.228308	-12.428035	8.233788	1.577312	-3.863921	-1.282033	-0.572021	0.248535	-0.419678	0.127277	0.026632	0.181363	-0.070420	0.213519	-0.213775	0.950658	-28.103521	-22.077453	-165.936477
52833		17.912473	3.651531	19.957381	-6.937645	-14.663308	11.850394	1.054713	-2.541384	-1.349263	-0.584229	0.229492	-0.402344	0.176804	0.034256	0.202015	-0.067858	0.226679	-0.206428	0.949421	-27.501809	-23.729000	-165.937632
52834		8.779881	-0.942489	8.971921	-3.587592	-4.262604	1.475365	0.756597	-2.127811	-1.413215	-0.594727	0.233887	-0.384521	0.086767	-0.010382	0.090608	-0.064212	0.238007	-0.200517	0.948168	-26.999248	-25.188001	-166.111098
52835		6.233780	-8.524376	5.942015	-2.737153	4.394393	1.142823	0.696254	-2.555146	-1.050252	-0.612549	0.230469	-0.381104	0.061125	-0.085775	0.059908	-0.062633	0.250959	-0.195152	0.946051	-26.665466	-26.769004	-165.969381
52836		10.613938	-6.571725	7.409884	-5.459272	1.290993	3.576363	1.098280	-2.796364	-0.885156	-0.613037	0.216309	-0.363770	0.104800	-0.066594	0.075206	-0.062559	0.264722	-0.187970	0.943756	-26.176173	-28.434138	-165.673282
52837		26.358494	2.699626	27.223606	-7.975706	-16.756931	23.334549	1.156606	-1.053745	-0.809753	-0.615723	0.213623	-0.350830	0.262247	0.024352	0.273766	-0.061271	0.270118	-0.181131	0.943649	-25.433308	-29.182728	-165.846047
52838		3.594715	-1.859490	7.713831	1.038978	-1.403869	-1.278500	0.295415	-0.214007	-0.511934	-0.607666	0.219727	-0.360840	0.035817	-0.018801	0.077149	-0.059461	0.271550	-0.178999	0.943761	-25.149096	-29.424022	-166.085958
52839		6.056275	-5.842248	9.179648	-0.292994	1.387692	2.559227	0.433277	-0.235790	-0.356728	-0.610596	0.216309	-0.358887	0.060350	-0.058729	0.091741	-0.058591	0.272886	-0.176426	0.943914	-24.833274	-29.635956	-166.229314
52840		6.057320	-2.597464	8.815827	-0.423578	-1.467503	1.087936	0.276922	-0.035246	-0.307630	-0.602051	0.221680	-0.364746	0.060517	-0.026190	0.088133	-0.057560	0.273292	-0.174708	0.944180	-24.592631	-29.733135	-166.399803
52841		5.048485	-4.911325	7.012075	-0.568244	1.471366	0.000039	0.203285	0.118301	-0.273910	-0.593506	0.217041	-0.365723	0.050459	-0.049254	0.070041	-0.056456	0.272948	-0.173436	0.944580	-24.383560	-29.739668	-166.592705
52842		5.661350	-4.286885	7.567401	-0.790458	0.634977	0.515219	0.244670	0.216337	-0.286734	-0.605469	0.228271	-0.383545	0.056634	-0.043043	0.075560	-0.055260	0.272156	-0.171969	0.945148	-24.133259	-29.699364	-166.819749
52843		6.690392	-3.717991	7.510781	-1.709980	-0.048955	0.773625	0.208864	0.379841	-0.200533	-0.595947	0.234863	-0.381836	0.067009	-0.037325	0.074942	-0.054284	0.270509	-0.170841	0.945881	-23.908545	-29.550542	-167.038490
52844		7.013604	-3.051877	7.811046	-1.855464	-0.797291	0.931540	0.128919	0.407830	-0.110907	-0.590332	0.233887	-0.389404	0.070278	-0.030608	0.077948	-0.053597	0.268691	-0.170212	0.946552	-23.752957	-29.367769	-167.209651
52845		5.326757	-2.614095	7.800140	-0.460803	-0.864519	-0.061268	0.061825	0.377694	-0.063419	-0.578857	0.248047	-0.399658	0.053406	-0.026182	0.077893	-0.053073	0.266974	-0.169963	0.947112	-23.655081	-29.187442	-167.343663
52846		4.774604	-3.122653	8.092590	0.124738	-0.361209	0.081336	0.047977	0.359018	-0.060803	-0.581299	0.257568	-0.414795	0.047882	-0.031260	0.080833	-0.052556	0.265365	-0.169769	0.947628	-23.568314	-29.018305	-167.470494
52847		5.293374	-2.571372	8.321101	-0.222857	-1.037921	0.323657	0.022617	0.278336	-0.060350	-0.590332	0.260498	-0.417236	0.053042	-0.025739	0.083134	-0.052078	0.264125	-0.169682	0.948016	-23.507528	-28.889130	-167.575663
52848		5.305776	-2.996548	7.959558	-0.446881	-0.530420	0.187515	0.034182	0.216696	-0.052352	-0.585693	0.269287	-0.416748	0.053136	-0.029993	0.079533	-0.051704	0.263186	-0.169526	0.948325	-23.449832	-28.792621	-167.659570
52849		5.334797	-3.170904	7.675073	-0.638274	-0.282145	0.032840	0.064983	0.191384	-0.053240	-0.589600	0.273193	-0.434814	0.053413	-0.031748	0.076689	-0.051389	0.262341	-0.169225	0.948630	-23.378263	-28.707347	-167.737370
52850		5.985437	-3.678587	7.192750	-1.466604	0.225739	0.131717	0.131664	0.211008	-0.060645	-0.590820	0.278564	-0.434326	0.059919	-0.036851	0.071840	-0.051108	0.261410	-0.168594	0.949015	-23.263455	-28.615552	-167.824327
52851		5.962368	-3.902351	7.063328	-1.538362	0.494984	0.089691	0.193659	0.281740	-0.067848	-0.592529	0.284668	-0.437256	0.059710	-0.039112	0.070511	-0.050815	0.260114	-0.167686	0.949547	-23.103380	-28.485709	-167.933549
52852		5.006021	-3.905554	7.187951	-0.681354	0.659494	-0.269055	0.257862	0.332195	-0.072605	-0.589844	0.288574	-0.447998	0.050165	-0.039166	0.071746	-0.050540	0.258585	-0.166470	0.950193	-22.898928	-28.332338	-168.057707
52853		5.646291	-4.025132	7.020460	-1.352355	0.731072	-0.065604	0.306513	0.368527	-0.096681	-0.599609	0.298584	-0.455566	0.056573	-0.040386	0.070039	-0.050184	0.256871	-0.165009	0.950932	-22.656817	-28.162367	-168.204715
52854		4.463317	-3.745634	7.944783	0.103136	0.446982	0.029056	0.334406	0.369447	-0.114283	-0.597900	0.302734	-0.464355	0.044758	-0.037615	0.079302	-0.049778	0.255178	-0.163384	0.951689	-22.393918	-27.997581	-168.361280
52855		4.793606	-3.672211	7.701593	-0.338866	0.422526	-0.041058	0.349673	0.356392	-0.129393	-0.604736	0.307861	-0.468018	0.048049	-0.036888	0.076866	-0.049331	0.253534	-0.161671	0.952444	-22.121057	-27.839976	-168.522737
52856		4.893139	-3.577886	7.868111	-0.372606	0.305635	0.107938	0.364291	0.304686	-0.148710	-0.604248	0.313965	-0.467041	0.049024	-0.035958	0.078541	-0.048851	0.252167	-0.159842	0.953140	-21.840502	-27.715686	-168.682040
52857		4.340404	-3.401778	8.111819	0.202528	0.205011	-0.008118	0.369944	0.264436	-0.151687	-0.615234	0.316895	-0.487305	0.043485	-0.034201	0.080998	-0.048397	0.250972	-0.157979	0.953789	-21.561637	-27.610379	-168.832786
52858		5.756522	-2.809049	7.680006	-1.256783	-0.440744	0.098764	0.351539	0.204434	-0.161736	-0.616699	0.319580	-0.484131	0.057621	-0.028272	0.076692	-0.047917	0.250093	-0.156169	0.954342	-21.296994	-27.540945	-168.974577
52859		4.474383	-2.561213	8.254680	0.127552	-0.579338	-0.098387	0.336738	0.155501	-0.143551	-0.624756	0.318115	-0.502197	0.044790	-0.025783	0.082469	-0.047546	0.249417	-0.154447	0.954818	-21.052106	-27.490933	-169.093702
52860		5.042602	-2.669997	7.959923	-0.526045	-0.457996	-0.043834	0.312575	0.102264	-0.137322	-0.631104	0.319092	-0.490967	0.050448	-0.026859	0.079532	-0.047214	0.249015	-0.152827	0.955200	-20.828014	-27.470146	-169.196372
52861		4.406197	-2.297237	8.232719	0.160125	-0.748864	-0.227124	0.267419	0.049401	-0.134394	-0.638428	0.329590	-0.498047	0.044067	-0.023112	0.082285	-0.046881	0.248853	-0.151422	0.955482	-20.636889	-27.474318	-169.285225
52862		3.821181	-2.650847	8.389903	0.740773	-0.332622	-0.254473	0.213776	-0.008344	-0.124964	-0.645752	0.325928	-0.508545	0.038192	-0.026622	0.083872	-0.046569	0.248992	-0.150262	0.955644	-20.484448	-27.509804	-169.355177
52863		4.175406	-2.249093	8.406738	0.451580	-0.756159	-0.200719	0.149827	-0.090887	-0.138064	-0.656006	0.332520	-0.511475	0.041700	-0.022583	0.084069	-0.046178	0.249530	-0.149381	0.955661	-20.374159	-27.589617	-169.414695
52864		3.844516	-2.533736	8.481881	0.787123	-0.435128	-0.203656	0.087801	-0.164429	-0.140381	-0.661865	0.332764	-0.503662	0.038358	-0.025402	0.084839	-0.045752	0.250455	-0.148767	0.955535	-20.305507	-27.711771	-169.459166
52865		4.345951	-2.362183	8.324084	0.297680	-0.626233	-0.154700	0.039077	-0.251330	-0.165643	-0.669434	0.340088	-0.511230	0.043335	-0.023674	0.083291	-0.045210	0.251804	-0.148343	0.955272	-20.267266	-27.883155	-169.499768
52866		4.494203	-2.330167	8.321911	0.197893	-0.671348	-0.097144	-0.014213	-0.291405	-0.161468	-0.674561	0.336182	-0.504639	0.044802	-0.023332	0.083286	-0.044649	0.253373	-0.148160	0.954912	-20.264008	-28.077676	-169.528868
52867		4.719154	-2.584410	7.945336	-0.153424	-0.362482	-0.225043	-0.049085	-0.332509	-0.162336	-0.679199	0.344482	-0.504639	0.047038	-0.025863	0.079538	-0.044072	0.255126	-0.148142	0.954475	-20.285540	-28.292027	-169.549354
52868		4.850736	-2.489157	8.072902	-0.163968	-0.503423	-0.085569	-0.050932	-0.382767	-0.176461	-0.691162	0.345459	-0.501221	0.048331	-0.024914	0.080828	-0.043460	0.257149	-0.148094	0.953967	-20.308549	-28.538653	-169.566983
52869		4.875774	-2.907738	7.875246	-0.246124	-0.052764	-0.107838	-0.035762	-0.399827	-0.169966	-0.696289	0.341064	-0.498291	0.048575	-0.029105	0.078855	-0.042913	0.259224	-0.147986	0.953447	-20.327420	-28.790706	-169.576786
52870		4.866612	-2.996056	7.712039	-0.279402	0.081686	-0.218370	-0.007276	-0.390255	-0.172580	-0.713623	0.347900	-0.498047	0.048490	-0.030000	0.077216	-0.042381	0.261268	-0.147731	0.952952	-20.327261	-29.040616	-169.590282
52871		4.590496	-3.098290	7.932730	0.109196	0.173359	-0.140140	0.023060	-0.359572	-0.139725	-0.714600	0.346680	-0.492920	0.045741	-0.031024	0.079406	-0.042025	0.263113	-0.147391	0.952513	-20.316939	-29.265024	-169.590677
52872		4.886442	-1.973856	8.022466	-0.059462	-0.960537	-0.262446	0.037691	-0.355079	-0.078733	-0.719482	0.354248	-0.489014	0.048714	-0.019773	0.080308	-0.041972	0.264909	-0.147051	0.952070	-20.315309	-29.477376	-169.554463
52873		4.725344	-2.822364	7.793067	-0.007669	-0.063282	-0.272123	-0.027664	-0.330528	-0.083806	-0.725830	0.355225	-0.488770	0.047113	-0.028233	0.078013	-0.041793	0.266584	-0.147030	0.951614	-20.347837	-29.675048	-169.526922
52874		5.109058	-2.947502	7.649585	-0.376706	0.034909	-0.160580	-0.041108	-0.305662	-0.142208	-0.730225	0.360107	-0.480957	0.050953	-0.029496	0.076580	-0.041298	0.268206	-0.146990	0.951186	-20.366554	-29.873501	-169.541036
52875		4.942290	-3.329971	7.463079	-0.298147	0.478713	-0.278835	-0.041906	-0.302976	-0.204632	-0.742188	0.364258	-0.485352	0.049276	-0.033335	0.074712	-0.040504	0.269840	-0.146880	0.950774	-20.366929	-30.080453	-169.594510
52876		5.124532	-3.101506	7.605294	-0.344304	0.204307	-0.140032	-0.032667	-0.288427	-0.257962	-0.736572	0.359375	-0.486084	0.051096	-0.031069	0.076132	-0.039457	0.271462	-0.146647	0.950393	-20.342526	-30.292742	-169.684609
52877		4.870242	-3.254387	7.714614	-0.036073	0.371513	-0.133527	-0.036521	-0.266361	-0.271046	-0.750732	0.370605	-0.482666	0.048555	-0.032596	0.077217	-0.038327	0.272967	-0.146428	0.950041	-20.314081	-30.493210	-169.788287
52878		4.813331	-2.992930	7.776676	0.076055	0.127207	-0.190816	-0.002693	-0.253502	-0.303015	-0.752197	0.368652	-0.479492	0.047989	-0.030001	0.077828	-0.037081	0.274448	-0.145996	0.949731	-20.253192	-30.695598	-169.915262
52879		5.390743	-2.695040	7.655149	-0.450251	-0.197523	-0.082177	0.001597	-0.218941	-0.313356	-0.754883	0.376953	-0.472656	0.053781	-0.027035	0.076610	-0.035768	0.275750	-0.145546	0.949473	-20.182698	-30.878776	-170.057221
52880		5.152419	-2.422801	7.751869	-0.173495	-0.431943	-0.205809	-0.013403	-0.189510	-0.293025	-0.756348	0.373535	-0.473877	0.051415	-0.024298	0.077569	-0.034507	0.276920	-0.145190	0.949233	-20.122347	-31.044538	-170.193696
52881		5.636466	-2.322987	7.549903	-0.667906	-0.532659	-0.146397	-0.001435	-0.182360	-0.260037	-0.770020	0.376953	-0.481445	0.056266	-0.023303	0.075551	-0.033416	0.278009	-0.144834	0.949009	-20.065359	-31.197272	-170.311513
52882		5.125442	-2.482729	7.746829	-0.104072	-0.343840	-0.204444	-0.005897	-0.197320	-0.260390	-0.773926	0.378174	-0.471191	0.051146	-0.024892	0.077520	-0.032326	0.279190	-0.144485	0.948753	-20.011179	-31.360633	-170.426497
52883		5.328381	-2.647412	7.560049	-0.344607	-0.154819	-0.199573	-0.008193	-0.257154	-0.272768	-0.769775	0.390625	-0.476318	0.053150	-0.026544	0.075670	-0.031219	0.280642	-0.144130	0.948416	-19.961842	-31.555944	-170.535937
52884		4.941196	-2.772664	8.044914	0.281932	-0.091447	0.022745	-0.017871	-0.333501	-0.313676	-0.786377	0.378418	-0.469971	0.049234	-0.027797	0.080534	-0.029957	0.282507	-0.143740	0.947962	-19.912077	-31.802914	-170.654228
52885		4.318156	-3.323479	7.999713	0.837449	0.546895	-0.185291	-0.025227	-0.403908	-0.367123	-0.776123	0.384766	-0.460693	0.042959	-0.033304	0.080088	-0.028484	0.284722	-0.143308	0.947410	-19.857309	-32.095518	-170.790867
52886		4.556479	-3.198763	8.038899	0.709774	0.401627	-0.068351	-0.018353	-0.487044	-0.437309	-0.799805	0.387695	-0.464111	0.045299	-0.032079	0.080502	-0.026746	0.287398	-0.142720	0.946741	-19.782797	-32.449031	-170.954075
52887		4.460607	-3.271997	8.038586	0.855876	0.505272	-0.105289	0.002048	-0.598034	-0.509289	-0.804199	0.378662	-0.452637	0.044282	-0.032834	0.080518	-0.024777	0.290624	-0.141927	0.945928	-19.684815	-32.873526	-171.139169
52888		4.980603	-3.025614	7.891803	0.411751	0.266071	-0.014713	0.026419	-0.736392	-0.594795	-0.813477	0.379150	-0.448975	0.049425	-0.030414	0.079096	-0.022535	0.294577	-0.140863	0.944920	-19.556758	-33.391380	-171.349650
52889		5.194283	-3.072705	7.855280	0.310434	0.327939	0.082898	0.063718	-0.892179	-0.681324	-0.826172	0.379639	-0.443848	0.051487	-0.030928	0.078773	-0.020050	0.299294	-0.139485	0.943697	-19.393632	-34.006921	-171.583411
52890		5.259150	-2.864445	7.760293	0.305088	0.186813	-0.016949	0.109014	-1.065879	-0.798024	-0.831787	0.371826	-0.440918	0.052062	-0.028895	0.077866	-0.017200	0.304916	-0.137685	0.942217	-19.178113	-34.740360	-171.858262
52891		5.264566	-2.866722	7.727243	0.410364	0.247707	-0.044758	0.148881	-1.233882	-0.905864	-0.840088	0.361328	-0.418945	0.052037	-0.028962	0.077573	-0.014020	0.311365	-0.135522	0.940473	-18.914998	-35.581478	-172.172373
52892		4.998957	-2.864459	7.970040	0.914268	0.273526	-0.024777	0.177292	-1.393251	-1.015525	-0.858887	0.355469	-0.411865	0.049286	-0.028967	0.080020	-0.010473	0.318634	-0.133023	0.938439	-18.603456	-36.530461	-172.532676
52893		5.098448	-2.642272	7.764346	0.859879	0.163470	-0.195416	0.212937	-1.564461	-1.124913	-0.879395	0.345703	-0.391357	0.050225	-0.026790	0.078010	-0.006586	0.326730	-0.130174	0.936087	-18.238950	-37.588091	-172.940165
52894		4.906464	-2.722268	7.853182	1.251298	0.309131	-0.247552	0.235115	-1.741524	-1.243625	-0.890381	0.323975	-0.381836	0.048208	-0.027617	0.078922	-0.002291	0.335716	-0.126996	0.933360	-17.818634	-38.763424	-173.405618
52895		5.061886	-2.587647	7.956506	1.386183	0.218370	-0.135344	0.275708	-1.960806	-1.360043	-0.910400	0.317627	-0.359375	0.049658	-0.026326	0.080019	0.002338	0.345736	-0.123425	0.930176	-17.334456	-40.073321	-173.924157
52896		5.369427	-2.818691	7.753229	1.271072	0.552402	-0.067852	0.350255	-2.226129	-1.465244	-0.922852	0.290527	-0.348145	0.052618	-0.028711	0.078072	0.007166	0.357017	-0.119298	0.926421	-16.768068	-41.544842	-174.486865
52897		5.014602	-2.801035	7.576933	1.669101	0.698017	-0.478766	0.420042	-2.481085	-1.652958	-0.940186	0.273682	-0.310547	0.048967	-0.028578	0.076322	0.012582	0.369503	-0.114507	0.922062	-16.071113	-43.179777	-175.168510
52898		4.983507	-2.683700	7.625416	1.988996	0.684213	-0.552471	0.489601	-2.803986	-1.927656	-0.961670	0.263184	-0.292480	0.048497	-0.027496	0.076874	0.018951	0.383559	-0.108869	0.916881	-15.183589	-45.030402	-176.043526
52899		4.022804	-2.256000	7.928320	3.128108	0.365029	-1.198610	0.548513	-3.181789	-2.177597	-0.978760	0.233643	-0.257324	0.038710	-0.023205	0.079844	0.026138	0.399341	-0.102491	0.910681	-14.100398	-47.113397	-177.115186
52900		3.884651	-1.338783	7.603043	3.184257	-0.343706	-1.786453	0.565619	-3.638070	-2.452114	-0.991943	0.193604	-0.217285	0.037286	-0.014068	0.076679	0.034298	0.417185	-0.095491	0.903140	-12.791301	-49.473338	-178.437040
52901		3.652231	-0.831092	7.515947	3.534959	-0.703385	-2.228819	0.620655	-4.215124	-2.726618	-1.007568	0.174561	-0.174072	0.034808	-0.009028	0.075878	0.043285	0.437524	-0.087726	0.893870	-11.182084	-52.164286	179.942329
52902		4.200255	0.149640	7.240564	3.208098	-1.491834	-2.226072	0.662576	-4.884365	-2.886982	-1.026855	0.140381	-0.127441	0.040231	0.000665	0.073406	0.052574	0.460626	-0.079493	0.882463	-9.267163	-55.218036	178.035415
52903		6.210957	0.555885	6.531606	1.877600	-1.589747	-1.125318	0.557602	-5.543295	-2.831822	-1.043213	0.103516	-0.067139	0.060336	0.004511	0.067018	0.061550	0.486158	-0.071963	0.868725	-7.187011	-58.598111	175.931294
52904		6.513937	0.333346	6.816816	2.551529	-1.289475	-0.823474	0.493426	-6.287406	-2.729587	-1.046387	0.063965	-0.002686	0.062990	0.002292	0.070178	0.069906	0.514350	-0.065099	0.852244	-4.826913	-62.350746	173.543029
52905		10.683745	0.037596	8.275624	2.729542	-0.933829	3.386772	0.315848	-6.999452	-2.494742	-1.056885	0.033447	0.073975	0.103848	-0.001067	0.086425	0.077394	0.544765	-0.059774	0.832868	-2.186262	-66.446327	170.814081
52906		14.423396	-1.214996	10.680928	4.815908	0.162944	7.513887	-0.198520	-7.523658	-2.177016	-1.049805	0.013428	0.152344	0.139939	-0.013579	0.112141	0.084694	0.576280	-0.057558	0.810811	0.744549	-70.779557	167.544509
52907		18.229785	-1.489229	13.734075	7.996508	0.054853	11.610322	-1.040471	-7.775369	-1.965527	-1.039063	-0.013672	0.235840	0.176622	-0.015908	0.144363	0.093352	0.607474	-0.059392	0.786596	4.482644	-75.186239	163.011808
52908		18.593664	-2.707467	9.634297	5.977925	1.960184	10.337927	-1.522955	-7.883764	-2.052321	-1.011963	-0.043701	0.317871	0.181657	-0.028182	0.103773	0.103632	0.637880	-0.062798	0.760543	11.625365	-79.509881	154.800669
52909		21.312887	-5.445663	11.481072	9.699913	4.237442	12.622361	-1.620229	-7.584259	-2.364829	-0.991211	-0.077881	0.394043	0.207906	-0.055960	0.123212	0.115325	0.666116	-0.065329	0.733977	29.028573	-83.166049	136.266947
52910		19.038124	-5.038924	9.925108	9.951785	3.974104	9.456113	-0.925732	-6.880779	-3.001356	-0.952637	-0.117432	0.460205	0.186033	-0.052723	0.105943	0.127099	0.691356	-0.062676	0.708480	67.394089	-84.596667	97.164959
52911		14.944755	-3.162215	8.080050	8.999219	2.326667	4.750869	-0.695295	-6.690851	-3.189799	-0.906494	-0.152588	0.518799	0.146105	-0.033678	0.085841	0.138619	0.715153	-0.058357	0.682595	104.057816	-82.977373	59.899144
52912		13.952915	-5.281281	8.859608	11.265612	4.054754	2.740680	-0.950287	-6.299164	-3.163197	-0.872314	-0.184570	0.564453	0.135789	-0.054545	0.093169	0.150895	0.736477	-0.054647	0.657149	121.105572	-79.880470	42.114599
52913		10.673561	-4.241168	6.846438	9.386149	3.274818	-0.873991	-0.998615	-5.487001	-3.285083	-0.839111	-0.222412	0.598389	0.104089	-0.043784	0.071561	0.163793	0.754281	-0.049978	0.633825	127.868725	-76.540967	34.621484
52914		11.314976	-2.958951	10.245998	12.878543	1.089169	-1.172142	-1.179487	-4.799916	-3.332695	-0.796143	-0.260742	0.638428	0.110138	-0.030826	0.105307	0.177540	0.769035	-0.045088	0.612399	130.627005	-73.319784	31.063109
52915		18.757058	-1.612610	15.184041	19.447125	-0.707975	4.546963	-1.932663	-3.818935	-3.508859	-0.764893	-0.299805	0.666992	0.184320	-0.017888	0.155548	0.194794	0.779525	-0.040922	0.593904	130.604141	-70.367740	29.918692
52916		24.969715	-13.458169	22.977756	32.362115	8.337311	4.874064	-2.526943	-1.235640	-2.568247	-0.742676	-0.332275	0.652832	0.246534	-0.134831	0.233010	0.211993	0.781122	-0.039647	0.585948	128.124371	-68.781034	31.015940
52917		21.922560	-19.519097	19.265880	30.166082	14.507889	0.784309	-1.697284	1.562876	-1.350989	-0.736572	-0.355957	0.624268	0.219413	-0.195038	0.192600	0.222881	0.774958	-0.037719	0.590204	124.129409	-68.682634	34.255870
52918		16.330094	-19.583113	14.032615	23.601181	15.624504	-3.038428	-0.251956	3.897414	-0.034763	-0.764648	-0.358154	0.591797	0.165963	-0.195686	0.137356	0.224402	0.763051	-0.033783	0.605190	118.943677	-69.841733	39.684355
52919		9.253064	-14.316028	8.720599	14.796128	11.710935	-6.574500	0.901787	5.175024	0.943520	-0.790283	-0.340088	0.544922	0.095409	-0.143099	0.084117	0.218912	0.747991	-0.028873	0.625902	112.494863	-71.618790	47.058123
52920		3.169216	-9.076832	4.418841	7.534872	7.427247	-9.780744	1.296938	5.485331	1.609218	-0.822754	-0.319336	0.493896	0.033607	-0.090783	0.042695	0.209174	0.731716	-0.024415	0.648261	104.701213	-73.516100	56.084025
52921		0.184436	-4.960396	2.581013	3.965300	3.740845	-11.069067	1.040827	5.221934	2.119538	-0.839111	-0.300049	0.440430	0.003039	-0.049709	0.025483	0.199057	0.715341	-0.023361	0.669416	95.523715	-75.244580	66.226559
52922		-0.575821	-3.107313	2.538767	3.298576	1.956859	-11.123767	0.356997	4.765833	2.609592	-0.861328	-0.274170	0.399902	-0.004746	-0.031185	0.025453	0.189073	0.699190	-0.026474	0.688973	84.769515	-76.769518	77.578298
52923		-0.763464	-3.037431	3.032345	3.784257	1.756165	-11.075564	-0.390811	4.365831	3.053804	-0.880859	-0.253906	0.351563	-0.006505	-0.030420	0.030533	0.180437	0.683150	-0.034395	0.706799	72.015519	-77.990288	90.412106
52924		-0.016205	-3.980515	4.199685	5.212535	2.482206	-10.189641	-0.883750	4.140888	3.379323	-0.893555	-0.226563	0.302979	0.001380	-0.039604	0.042154	0.171799	0.666902	-0.045138	0.723664	56.993643	-78.735255	105.272357
52925		1.946266	-5.325689	5.305686	6.537293	3.776242	-7.999091	-1.048949	4.205432	3.645369	-0.902344	-0.193115	0.269043	0.021539	-0.052599	0.052896	0.162993	0.649718	-0.057493	0.740266	40.347844	-78.716459	121.625337
52926		3.884082	-6.108552	6.185835	7.242508	4.521114	-5.600324	-0.878366	4.507731	3.842602	-0.912598	-0.162598	0.212402	0.041386	-0.060037	0.061210	0.152557	0.630935	-0.069424	0.757514	24.212067	-77.705640	137.621065
52927		5.386022	-5.431827	6.837647	7.077496	3.815568	-3.442249	-0.591053	4.912765	3.992294	-0.924805	-0.121826	0.170410	0.056587	-0.053007	0.067167	0.140934	0.610199	-0.080509	0.775444	11.005929	-75.706319	150.834497
52928		6.027103	-3.577306	7.152145	6.192449	1.933741	-2.186867	-0.482493	5.304224	4.111445	-0.923340	-0.087646	0.119629	0.062856	-0.034328	0.069961	0.128260	0.587304	-0.091077	0.793932	1.177985	-72.925174	160.775800
52929		6.310331	-1.813947	6.613003	4.560295	0.305924	-1.693641	-0.628623	5.548819	4.186989	-0.920654	-0.050293	0.061035	0.065264	-0.016584	0.064393	0.115936	0.562640	-0.102287	0.812116	-5.888145	-69.648245	167.848832
52930		6.599639	-0.269663	5.535754	2.497155	-0.990797	-1.625705	-0.895239	5.578338	4.147219	-0.912354	-0.020752	0.002197	0.067539	-0.001064	0.053495	0.104173	0.537010	-0.114265	0.829284	-11.061032	-66.131137	172.894262
52931		7.848093	0.414251	5.686768	1.352882	-1.825259	-0.383648	-1.197096	5.441534	3.998270	-0.896973	0.019043	-0.048096	0.079880	0.006062	0.054674	0.093856	0.511255	-0.127095	0.844782	-14.945750	-62.580076	176.437000
52932		9.530496	-0.237700	6.352220	0.662488	-1.607205	1.508383	-1.417340	5.367366	3.822080	-0.881592	0.059082	-0.094727	0.096980	-0.000096	0.060940	0.084680	0.485176	-0.140320	0.858920	-17.970647	-59.005756	178.964367
52933		11.135378	-1.246568	7.082413	-0.064518	-1.146847	3.390612	-1.398418	5.395646	3.621149	-0.853760	0.082275	-0.154053	0.113407	-0.009943	0.067858	0.076256	0.458636	-0.152780	0.872065	-20.252401	-55.408500	-179.279340
52934		11.831245	-1.281104	7.420202	-1.045761	-1.503366	4.088916	-1.256224	5.475379	3.410229	-0.829834	0.116211	-0.194092	0.120476	-0.010316	0.070993	0.068393	0.431404	-0.163964	0.884494	-21.924794	-51.773962	-178.102960
52935		11.956865	-1.542529	7.204841	-2.086906	-1.425942	4.000298	-1.156836	5.488750	3.212867	-0.790527	0.130615	-0.234619	0.121710	-0.013077	0.068808	0.061136	0.403909	-0.174079	0.896000	-23.182987	-48.166832	-177.330116
52936		12.384708	-3.049784	7.076507	-2.954755	-0.203793	4.467282	-1.016406	5.372030	3.089205	-0.757324	0.144531	-0.271240	0.126138	-0.028212	0.067544	0.053976	0.376617	-0.183198	0.906468	-24.178581	-44.632712	-176.766876
52937		13.239135	-4.917957	7.365210	-3.820667	1.173500	5.603398	-0.786494	5.165734	3.127358	-0.725342	0.160645	-0.295654	0.134982	-0.046801	0.070375	0.045980	0.349987	-0.191204	0.915880	-25.005409	-41.198885	-176.219360
52938		14.066803	-5.960824	8.119117	-4.685312	1.567195	6.765302	-0.564852	4.909187	3.371745	-0.695801	0.166504	-0.318359	0.143582	-0.056981	0.077854	0.036181	0.323969	-0.198529	0.924295	-25.781664	-37.825033	-175.516175
52939		14.476735	-6.465964	8.397728	-5.715869	1.602028	7.115786	-0.453293	4.603076	3.780574	-0.664795	0.182129	-0.346436	0.147836	-0.061699	0.080740	0.023985	0.298752	-0.205857	0.931555	-26.616833	-34.505265	-174.546790
52940		14.374895	-6.445852	7.840438	-6.879885	1.449192	6.316016	-0.368614	4.198070	4.185401	-0.651611	0.199463	-0.371582	0.146658	-0.061268	0.075461	0.009330	0.274690	-0.213282	0.937534	-27.508552	-31.267955	-173.303095
52941		14.824704	-5.972430	7.364937	-8.424514	0.736154	5.617228	-0.268265	3.717182	4.488091	-0.625244	0.212891	-0.385742	0.150871	-0.056262	0.070938	-0.007393	0.252384	-0.220468	0.942147	-28.394650	-28.184062	-171.832946
52942		15.403354	-5.501410	6.741407	-10.031215	0.004419	4.756715	-0.149428	3.237690	4.643817	-0.609375	0.225830	-0.409912	0.156319	-0.051353	0.064935	-0.025530	0.231896	-0.227111	0.945512	-29.210770	-25.272542	-170.219772
52943		16.921501	-4.879926	6.278354	-12.273978	-1.133600	4.242593	0.026651	2.760759	4.614792	-0.589844	0.242920	-0.421875	0.171126	-0.044873	0.060424	-0.044249	0.213552	-0.232634	0.947797	-29.875191	-22.595313	-168.552478
52944		19.669846	-4.206586	6.636364	-15.173107	-2.983187	4.658837	0.183643	2.437879	4.447571	-0.565430	0.259521	-0.455322	0.198359	-0.037726	0.063916	-0.062694	0.196701	-0.237021	0.949315	-30.363256	-20.105028	-166.935263
52945		21.712985	-3.574188	5.573571	-17.920374	-4.143185	3.487445	0.335733	2.333325	4.154869	-0.545654	0.285400	-0.466797	0.218441	-0.031303	0.053137	-0.079980	0.180575	-0.240203	0.950420	-30.645907	-17.747437	-165.480520
52946		21.927541	-1.298355	3.015214	-19.268984	-5.645269	-0.412860	0.465693	2.265990	3.684565	-0.529541	0.291016	-0.491211	0.219788	-0.009004	0.027640	-0.095191	0.165148	-0.242205	0.951316	-30.728803	-15.551454	-164.274079
52947		20.705859	1.841498	0.117829	-18.986365	-7.225785	-5.408720	0.359791	2.060718	3.072527	-0.513916	0.303467	-0.508057	0.206741	0.021593	-0.000916	-0.107610	0.151460	-0.243994	0.951812	-30.763512	-13.639444	-163.330555
52948		20.193669	4.310282	-1.722482	-18.786997	-8.691157	-8.911572	-0.020389	1.719643	2.349489	-0.491699	0.312256	-0.521729	0.201254	0.045468	-0.018962	-0.116689	0.140413	-0.246804	0.951712	-30.928301	-12.102817	-162.659954
52949		20.265604	5.707267	-2.956254	-18.965654	-9.516059	-11.131154	-0.504696	1.361481	1.609319	-0.475098	0.326416	-0.514160	0.201980	0.058623	-0.031086	-0.122326	0.132270	-0.251138	0.951037	-31.300154	-10.961235	-162.261831
52950		21.245782	5.841248	-3.768918	-20.062854	-9.594152	-12.078353	-0.795049	1.087834	0.858760	-0.472168	0.322266	-0.526123	0.211995	0.059170	-0.039077	-0.124536	0.126522	-0.256172	0.950189	-31.777099	-10.173731	-162.163326
52951		20.987989	6.488043	-5.011081	-20.088012	-9.411317	-13.761755	-0.790810	0.898547	0.106921	-0.461670	0.331299	-0.519775	0.209617	0.064791	-0.051309	-0.123412	0.122641	-0.260574	0.949647	-32.195260	-9.707304	-162.383573
52952		20.334834	7.430576	-5.436514	-19.499423	-9.627488	-14.847941	-0.684900	0.601239	-0.637341	-0.467285	0.333984	-0.522705	0.203418	0.073469	-0.055229	-0.119202	0.121073	-0.263825	0.949489	-32.507476	-9.614456	-162.879582
52953		20.380560	6.594114	-4.703358	-19.582690	-9.045879	-13.769038	-0.580084	0.299873	-1.335533	-0.477783	0.329346	-0.521484	0.204168	0.064441	-0.047528	-0.112133	0.121788	-0.265964	0.949661	-32.716919	-9.884788	-163.623647
52954		19.718466	5.016110	-3.895531	-19.105728	-7.634452	-12.226532	-0.436787	0.062321	-1.934858	-0.480225	0.329834	-0.528076	0.197645	0.048165	-0.039123	-0.102612	0.124354	-0.266899	0.950143	-32.799855	-10.459070	-164.586215
52955		18.963415	2.872051	-3.492504	-18.685874	-5.494395	-10.641999	-0.290359	-0.192531	-2.449411	-0.495605	0.317139	-0.521484	0.190000	0.026344	-0.034782	-0.091066	0.128710	-0.266660	0.950806	-32.754580	-11.314253	-165.723058
52956		15.256953	-2.750674	-3.318446	-15.739374	0.398068	-7.955175	-0.102617	-0.507830	-2.793785	-0.512207	0.302979	-0.514893	0.152249	-0.029652	-0.032783	-0.078405	0.134946	-0.265106	0.951505	-32.566361	-12.429148	-166.935214
52957		-9.588708	-30.553494	12.880285	10.908476	22.172809	14.282171	2.989790	-1.103559	-2.798067	-0.525879	0.283691	-0.517334	-0.100858	-0.306022	0.123683	-0.068577	0.142736	-0.248528	0.955593	-30.616081	-13.810276	-167.993343
52958		-14.380124	-7.896768	12.062773	16.972924	4.388342	0.545837	2.247668	-1.465838	-1.697729	-0.545410	0.264404	-0.505371	-0.145347	-0.079079	0.118678	-0.063898	0.151123	-0.236067	0.957785	-29.223419	-15.029606	-168.427102
52959		-9.254487	-4.429197	-11.758678	4.513968	10.682325	-20.253022	2.030447	-3.920836	-1.251177	-0.577881	0.250244	-0.479004	-0.090480	-0.042513	-0.119812	-0.064072	0.170720	-0.224110	0.957353	-28.194795	-17.347156	-167.954370
52960		14.546024	-5.046817	14.999504	-7.961209	-4.337057	9.674010	2.162407	-5.398319	-1.099696	-0.609375	0.232422	-0.446777	0.141066	-0.052898	0.153279	-0.066689	0.197077	-0.211023	0.955083	-27.261815	-20.383544	-167.018992
52961		19.910293	5.005765	21.638049	-8.660956	-16.684632	13.342098	1.862932	-4.010803	-0.776384	-0.625488	0.225342	-0.421631	0.194892	0.047253	0.220766	-0.069050	0.216411	-0.199998	0.953100	-26.451548	-22.637676	-166.325914
52962		9.287145	13.211051	14.893860	-0.942035	-19.188621	0.840205	1.289037	-3.295201	-1.423136	-0.650391	0.206787	-0.396729	0.091324	0.130487	0.151296	-0.066958	0.233114	-0.191164	0.951121	-25.760813	-24.698230	-166.214028
52963		10.400885	3.913641	15.703555	-1.399623	-10.964500	5.931777	0.492028	-3.079166	-1.564563	-0.654297	0.208008	-0.373047	0.101874	0.037945	0.158709	-0.063040	0.249086	-0.185967	0.948366	-25.461625	-26.679710	-166.260913
52964		19.725882	-4.996399	17.250285	-8.327627	-5.011818	15.029248	0.223131	-2.827324	-1.277515	-0.667725	0.204102	-0.350098	0.194469	-0.051407	0.175208	-0.059894	0.263644	-0.182415	0.945320	-25.355078	-28.463834	-166.218483
52965		23.121126	-7.437368	16.418091	-11.253817	-3.053963	17.084837	0.085376	-0.474511	-0.386500	-0.664795	0.207764	-0.349365	0.230677	-0.074890	0.164697	-0.058627	0.266246	-0.181386	0.944868	-25.265291	-28.807400	-166.310187
52966		5.874903	-6.806802	8.548129	-0.589609	2.458574	2.333293	0.328635	-0.424786	-0.323690	-0.654785	0.208984	-0.340576	0.058457	-0.068303	0.085494	-0.057931	0.268520	-0.179285	0.944668	-25.044859	-29.114271	-166.379550
52967		7.083736	-2.409822	10.252611	-0.616127	-2.356648	2.643998	0.159248	-0.238823	-0.220073	-0.653809	0.206055	-0.337891	0.070688	-0.024258	0.102591	-0.057334	0.269833	-0.178195	0.944537	-24.927046	-29.294697	-166.440312
52968		6.932575	-4.640714	7.393148	-2.005508	0.645968	1.133366	0.081250	-0.131769	-0.124002	-0.641113	0.203613	-0.336914	0.069248	-0.046480	0.073958	-0.056986	0.270615	-0.177614	0.944444	-24.865658	-29.400909	-166.473538
52969		6.045704	-3.562560	6.997985	-1.439741	-0.044245	-0.007620	0.084567	-0.074611	-0.060517	-0.631836	0.212158	-0.341064	0.060420	-0.035673	0.069987	-0.056895	0.271031	-0.177139	0.944419	-24.814606	-29.457414	-166.485090
52970		6.406513	-3.258829	7.488086	-1.472677	-0.539813	0.447655	0.058749	-0.058282	-0.074612	-0.626953	0.227295	-0.338379	0.064031	-0.032634	0.074890	-0.056684	0.271429	-0.176752	0.944390	-24.770512	-29.513642	-166.509324
52971		7.113215	-2.924602	7.423918	-2.096418	-0.967770	0.624464	0.030496	-0.005264	-0.057409	-0.616455	0.223389	-0.337646	0.071122	-0.029278	0.074237	-0.056474	0.271530	-0.176556	0.944410	-24.741864	-29.533306	-166.538244
52972		5.858212	-3.383828	7.733960	-0.872950	-0.375533	0.418637	0.016308	0.023313	-0.019424	-0.611816	0.236816	-0.335205	0.058588	-0.033850	0.077330	-0.056393	0.271507	-0.176466	0.944438	-24.727178	-29.534007	-166.552020
52973		5.600088	-3.310536	7.756788	-0.643090	-0.399043	0.282638	-0.016968	0.024175	0.017880	-0.606445	0.246338	-0.353027	0.056013	-0.033094	0.077564	-0.056448	0.271416	-0.176605	0.944435	-24.743913	-29.520292	-166.544033
52974		5.464104	-3.215688	7.875777	-0.463588	-0.499257	0.274967	-0.021990	0.000187	0.036281	-0.596924	0.252441	-0.356689	0.054647	-0.032138	0.078761	-0.056599	0.271465	-0.176765	0.944382	-24.770700	-29.519760	-166.518124
52975		5.291389	-2.971986	7.997870	-0.246215	-0.734200	0.197195	-0.051051	-0.067754	0.048823	-0.588623	0.262695	-0.366211	0.052894	-0.029687	0.080004	-0.056834	0.271790	-0.177081	0.944215	-24.828590	-29.546415	-166.466265
52976		5.632226	-2.717833	7.817675	-0.617394	-0.993118	0.130006	-0.061969	-0.120989	0.048319	-0.591797	0.272461	-0.370361	0.056282	-0.027140	0.078219	-0.057095	0.272412	-0.177411	0.943958	-24.898375	-29.606002	-166.399600
52977		5.558212	-3.377664	7.242731	-0.856451	-0.196871	-0.117988	-0.048000	-0.144895	0.032236	-0.587402	0.279297	-0.379883	0.055535	-0.033750	0.072476	-0.057325	0.273115	-0.177668	0.943693	-24.960360	-29.676641	-166.336097
52978		5.247119	-3.491737	7.506933	-0.440129	-0.110208	-0.021229	-0.005318	-0.109636	-0.014208	-0.595703	0.291260	-0.379150	0.052428	-0.034919	0.075099	-0.057357	0.273724	-0.177648	0.943518	-24.977786	-29.745448	-166.309786
52979		4.739814	-4.250729	7.372818	-0.083957	0.742820	-0.100111	0.034455	-0.053579	-0.036910	-0.604492	0.293457	-0.381836	0.047371	-0.042529	0.073734	-0.057292	0.274033	-0.177447	0.943470	-24.959543	-29.785343	-166.312964
52980		4.499121	-4.493727	7.470273	0.172756	0.996679	-0.054746	0.094104	0.003887	-0.068568	-0.603760	0.301270	-0.392334	0.044977	-0.044988	0.074681	-0.057103	0.274126	-0.176916	0.943554	-24.888180	-29.808344	-166.350822
52981		5.292928	-5.147300	6.921240	-0.801671	1.623574	0.143950	0.164717	0.080863	-0.106793	-0.608887	0.309570	-0.399170	0.052930	-0.051558	0.069149	-0.056768	0.273826	-0.176043	0.943825	-24.755907	-29.795128	-166.433264
52982		5.560749	-4.624099	6.634439	-1.186020	1.191813	-0.143517	0.241499	0.183048	-0.153885	-0.617920	0.315674	-0.405273	0.055633	-0.046364	0.066238	-0.056220	0.273106	-0.174752	0.944306	-24.550278	-29.745083	-166.571701
52983		5.706208	-4.134164	6.806657	-1.230525	0.685255	-0.117390	0.308540	0.259045	-0.181068	-0.621338	0.316406	-0.415283	0.057113	-0.041498	0.067929	-0.055574	0.271988	-0.173148	0.944962	-24.289644	-29.656002	-166.747152
52984		5.244960	-4.295722	7.027201	-0.750518	0.899066	-0.118741	0.346705	0.339983	-0.181472	-0.631104	0.314453	-0.417969	0.052530	-0.043126	0.070108	-0.054903	0.270520	-0.171365	0.945748	-23.995522	-29.529400	-166.943635
52985		4.907342	-3.907435	7.168551	-0.417463	0.599553	-0.315098	0.380269	0.382542	-0.202018	-0.636475	0.328857	-0.426758	0.049171	-0.039260	0.071517	-0.054148	0.268813	-0.169425	0.946627	-23.672828	-29.378891	-167.163049
52986		4.782648	-3.702102	7.642366	-0.094845	0.334549	-0.072880	0.389922	0.417354	-0.202899	-0.638428	0.333008	-0.422607	0.047948	-0.037218	0.076251	-0.053368	0.266982	-0.167428	0.947545	-23.339744	-29.214689	-167.390447
52987		4.836192	-3.499324	7.759315	-0.115571	0.142767	-0.024585	0.392454	0.422114	-0.221942	-0.646973	0.343994	-0.431885	0.048486	-0.035199	0.077422	-0.052501	0.265096	-0.165412	0.948476	-23.001646	-29.045627	-167.629383
52988		4.707008	-2.816383	7.988223	0.084582	-0.496953	-0.135640	0.395364	0.403071	-0.223404	-0.660889	0.348877	-0.441650	0.047199	-0.028374	0.079731	-0.051641	0.263344	-0.163354	0.949368	-22.663788	-28.891217	-167.862520
52989		4.567334	-2.855444	7.993129	0.171062	-0.394537	-0.183614	0.359039	0.362414	-0.231878	-0.661865	0.352295	-0.440186	0.045785	-0.028751	0.079797	-0.050731	0.261753	-0.161465	0.950179	-22.351696	-28.753530	-168.089556
52990		4.389113	-2.762916	7.976113	0.287899	-0.405638	-0.311699	0.331322	0.298056	-0.242620	-0.668701	0.358643	-0.445801	0.043976	-0.027814	0.079650	-0.049781	0.260528	-0.159657	0.950872	-22.059490	-28.656766	-168.305820
52991		4.212349	-2.741559	8.175538	0.518894	-0.413550	-0.238815	0.304306	0.238669	-0.230008	-0.675293	0.361816	-0.440186	0.042189	-0.027588	0.081663	-0.048907	0.259535	-0.157997	0.951465	-21.795430	-28.582444	-168.499522
52992		4.043090	-2.459501	8.238160	0.683074	-0.633335	-0.357785	0.294657	0.170268	-0.221573	-0.691650	0.357178	-0.442871	0.040474	-0.024761	0.082311	-0.048110	0.258907	-0.156357	0.951948	-21.546084	-28.547480	-168.670890
52993		4.618180	-2.623521	8.216335	0.166102	-0.537782	-0.045308	0.271714	0.058513	-0.238719	-0.693604	0.365967	-0.439209	0.046174	-0.026402	0.082114	-0.047294	0.258784	-0.154796	0.952277	-21.319286	-28.569600	-168.826088
52994		4.911226	-2.667069	8.057388	-0.164375	-0.469443	-0.019454	0.237480	-0.046279	-0.272951	-0.699463	0.374268	-0.442139	0.049057	-0.026833	0.080553	-0.046347	0.259238	-0.153308	0.952441	-21.112121	-28.659736	-168.977319
