// General information: 
//  MT Manager version: 2019.2.0 
//  XDA version: 2019.2.0 build 3853 rev 94535 built on 2019-09-09
// Device information: 
//  DeviceId: 00B47786
//  ProductCode: MTW2-3A7G6
//  Firmware Version: 4.6.0
//  Hardware Version: 2.0.0
// Device settings: 
//  Filter Profile: human(46.1)
//  Option Flags: Orientation Smoother Disabled, AHS Disabled, ICC Disabled
// Coordinate system: ENU
PacketCounter	SampleTimeFine	Acc_X	Acc_Y	Acc_Z	FreeAcc_E	FreeAcc_N	FreeAcc_U	Gyr_X	Gyr_Y	Gyr_Z	Mag_X	Mag_Y	Mag_Z	VelInc_X	VelInc_Y	VelInc_Z	Quat_q0	Quat_q1	Quat_q2	Quat_q3	Roll	Pitch	Yaw
40054		9.855723	-0.259237	0.430073	-0.038622	0.572816	0.039106	0.040925	-0.114125	-0.098472	-0.892090	0.008301	0.324707	0.098553	-0.002642	0.004356	0.028901	-0.690870	-0.050124	-0.720660	38.671879	-87.035857	147.736879
40055		9.815004	-0.262442	0.451711	-0.004928	0.588405	-0.001420	0.098252	-0.114926	-0.108788	-0.892090	0.003906	0.332275	0.098146	-0.002680	0.004572	0.028831	-0.691275	-0.050840	-0.720224	40.474639	-87.053044	145.986547
40056		9.791410	-0.078208	0.481971	0.057623	0.420237	-0.018292	0.157597	-0.119931	-0.111846	-0.895264	0.005859	0.320557	0.097911	-0.000841	0.004878	0.028963	-0.691688	-0.051789	-0.719755	42.395748	-87.068285	144.153197
40057		9.728683	0.180443	0.529080	0.147787	0.180462	-0.070751	0.180448	-0.126067	-0.133081	-0.887451	0.007324	0.325439	0.097285	0.001735	0.005354	0.029087	-0.692113	-0.052886	-0.719261	44.563363	-87.074330	142.084733
40058		9.799921	0.392369	0.596516	0.248792	-0.004764	0.010056	0.178454	-0.137248	-0.136309	-0.881348	-0.001465	0.332275	0.097998	0.003852	0.006036	0.029198	-0.692577	-0.053998	-0.718727	46.854528	-87.079418	139.892838
40059		9.818119	0.481784	0.581279	0.257215	-0.079312	0.030736	0.159815	-0.147321	-0.135546	-0.891602	0.004639	0.330811	0.098180	0.004747	0.005889	0.029236	-0.693078	-0.055032	-0.718164	49.217050	-87.084149	137.617322
40060		9.840651	0.538529	0.574955	0.271598	-0.120016	0.054976	0.148898	-0.155982	-0.138417	-0.889893	0.000000	0.329346	0.098406	0.005313	0.005830	0.029232	-0.693611	-0.056047	-0.717571	51.675837	-87.085891	135.240647
40061		9.794686	0.483544	0.472843	0.180701	-0.063760	0.003448	0.140875	-0.160725	-0.139658	-0.883057	-0.003906	0.326660	0.097946	0.004764	0.004811	0.029186	-0.694160	-0.057029	-0.716964	54.177145	-87.083467	132.815388
40062		9.743581	0.557375	0.435617	0.170056	-0.127550	-0.045775	0.141922	-0.163227	-0.144404	-0.885254	0.000977	0.335938	0.097436	0.005500	0.004440	0.029135	-0.694715	-0.058041	-0.716347	56.725986	-87.074185	130.344527
40063		9.712762	0.586778	0.422817	0.178004	-0.143792	-0.075725	0.130914	-0.170802	-0.136430	-0.882080	-0.003418	0.328613	0.097128	0.005799	0.004315	0.029062	-0.695300	-0.058977	-0.715706	59.272428	-87.065480	127.868205
40064		9.684767	0.597959	0.352749	0.127063	-0.149724	-0.105056	0.115690	-0.168857	-0.132346	-0.889404	0.002930	0.339844	0.096849	0.005913	0.003613	0.028960	-0.695881	-0.059854	-0.715072	61.752620	-87.052728	125.450990
40065		9.668658	0.622354	0.321004	0.115259	-0.163993	-0.120778	0.095621	-0.170319	-0.130558	-0.883301	0.000732	0.344971	0.096688	0.006159	0.003295	0.028787	-0.696469	-0.060644	-0.714440	64.199009	-87.035966	123.054720
40066		9.657350	0.613599	0.299698	0.109422	-0.144419	-0.132922	0.075942	-0.168389	-0.123995	-0.879395	-0.002197	0.340576	0.096575	0.006075	0.003081	0.028577	-0.697054	-0.061349	-0.713817	66.557381	-87.016979	120.736613
40067		9.651020	0.571703	0.288921	0.109515	-0.091038	-0.141483	0.060519	-0.168813	-0.121079	-0.883545	-0.006592	0.345947	0.096511	0.005658	0.002972	0.028316	-0.697644	-0.061980	-0.713197	68.864377	-86.994792	118.459676
40068		9.692591	0.590005	0.272137	0.110109	-0.095950	-0.099442	0.048745	-0.170224	-0.122387	-0.882324	-0.004639	0.349609	0.096927	0.005840	0.002805	0.028016	-0.698238	-0.062583	-0.712574	71.148574	-86.967388	116.200147
40069		9.696107	0.576530	0.231932	0.084520	-0.074421	-0.097341	0.039986	-0.171345	-0.115444	-0.879639	-0.004395	0.349121	0.096962	0.005709	0.002404	0.027701	-0.698839	-0.063121	-0.711950	73.371988	-86.939331	113.994817
40070		9.702319	0.547650	0.259035	0.123804	-0.029353	-0.092308	0.039536	-0.172352	-0.111697	-0.882324	-0.007324	0.343018	0.097024	0.005422	0.002675	0.027406	-0.699444	-0.063653	-0.711319	75.554072	-86.908991	111.832145
40071		9.702135	0.558546	0.242101	0.124689	-0.029884	-0.092320	0.028544	-0.172832	-0.111142	-0.877197	-0.006104	0.349365	0.097022	0.005531	0.002506	0.027067	-0.700052	-0.064136	-0.710691	77.685785	-86.874707	109.712114
40072		9.720615	0.456912	0.323240	0.208310	0.094585	-0.078663	0.021922	-0.178064	-0.109859	-0.874268	-0.004883	0.354004	0.097206	0.004515	0.003319	0.026715	-0.700679	-0.064600	-0.710044	79.818386	-86.837445	107.588752
40073		9.746466	0.388781	0.216518	0.110046	0.162189	-0.058038	0.028319	-0.177327	-0.113938	-0.873291	-0.007080	0.345459	0.097465	0.003832	0.002252	0.026364	-0.701300	-0.065093	-0.709398	81.898536	-86.793607	105.520144
40074		9.900850	0.412849	0.158939	0.070646	0.152363	0.096616	0.030674	-0.179037	-0.118506	-0.870361	-0.016846	0.351074	0.099009	0.004070	0.001679	0.026012	-0.701925	-0.065618	-0.708745	83.945649	-86.743127	103.487248
40075		9.900977	0.501066	0.033723	-0.024949	0.062631	0.100786	0.036110	-0.181557	-0.125703	-0.866455	-0.012695	0.358643	0.099013	0.004948	0.000428	0.025644	-0.702554	-0.066179	-0.708082	85.958486	-86.684669	101.490141
40076		9.842249	0.604473	-0.015063	-0.041617	-0.034933	0.047966	0.029672	-0.190337	-0.130851	-0.869629	-0.016113	0.360840	0.098427	0.005980	-0.000056	0.025241	-0.703213	-0.066746	-0.707389	87.985463	-86.619498	99.476604
40077		9.813960	0.682930	-0.159772	-0.156672	-0.118274	0.024343	0.017907	-0.191803	-0.132086	-0.869629	-0.020996	0.364990	0.098146	0.006765	-0.001503	0.024782	-0.703878	-0.067264	-0.706695	89.939217	-86.549636	97.527825
40078		9.789189	0.659841	-0.220454	-0.201683	-0.090349	-0.001300	0.006063	-0.190943	-0.124658	-0.869385	-0.016602	0.353516	0.097898	0.006537	-0.002111	0.024318	-0.704542	-0.067726	-0.706005	91.802703	-86.480163	95.664241
40079		9.784454	0.599823	-0.289752	-0.260483	-0.026644	-0.009082	0.015302	-0.185103	-0.116342	-0.868408	-0.021484	0.359619	0.097851	0.005942	-0.002807	0.023907	-0.705186	-0.068179	-0.705332	93.547157	-86.412122	93.923331
40080		9.750263	0.632633	-0.336147	-0.284990	-0.054592	-0.040450	0.031804	-0.175297	-0.108917	-0.865234	-0.013672	0.358887	0.097509	0.006274	-0.003275	0.023594	-0.705796	-0.068673	-0.704684	95.154947	-86.345577	92.330458
40081		9.715918	0.665125	-0.381750	-0.309524	-0.082538	-0.071818	0.044256	-0.169074	-0.112832	-0.858887	-0.020264	0.366699	0.097166	0.006597	-0.003734	0.023305	-0.706380	-0.069215	-0.704055	96.651377	-86.274534	90.854656
40082		9.701522	0.758120	-0.361647	-0.261640	-0.160991	-0.079720	0.056967	-0.160630	-0.102375	-0.864990	-0.016602	0.377441	0.097022	0.007533	-0.003536	0.023109	-0.706935	-0.069773	-0.703449	98.040565	-86.207618	89.495058
40083		9.720311	0.828555	-0.312363	-0.188348	-0.212023	-0.056251	0.061614	-0.152396	-0.095975	-0.858643	-0.019775	0.371094	0.097209	0.008240	-0.003047	0.022945	-0.707463	-0.070314	-0.702869	99.322571	-86.143042	88.243782
40084		9.714202	0.880349	-0.247022	-0.102070	-0.244908	-0.059158	0.052614	-0.147652	-0.086828	-0.862793	-0.017090	0.375244	0.097148	0.008762	-0.002396	0.022793	-0.707978	-0.070800	-0.702307	100.533426	-86.082236	87.060225
40085		9.746411	0.866562	-0.233127	-0.075746	-0.218006	-0.027775	0.032563	-0.143555	-0.076827	-0.857910	-0.034180	0.375977	0.097469	0.008629	-0.002260	0.022597	-0.708484	-0.071170	-0.701766	101.678205	-86.025933	85.929724
40086		9.655712	1.000216	-0.550777	-0.358726	-0.389430	-0.104124	0.013124	-0.157230	-0.078589	-0.860107	-0.032715	0.375977	0.096565	0.009965	-0.005431	0.022330	-0.709038	-0.071489	-0.701182	102.886120	-85.965328	84.726265
40087		9.490176	1.189431	-0.658795	-0.425400	-0.591240	-0.253314	-0.008086	-0.194993	-0.117219	-0.855957	-0.028809	0.380371	0.094915	0.011838	-0.006496	0.021825	-0.709714	-0.071861	-0.700476	104.261273	-85.876255	83.340524
40088		9.386899	1.317436	-0.894911	-0.623848	-0.741084	-0.341049	-0.017062	-0.241777	-0.153852	-0.852295	-0.021484	0.378418	0.093890	0.013101	-0.008837	0.021158	-0.710539	-0.072351	-0.699609	105.845497	-85.757425	81.742140
40089		9.506217	1.275763	-0.941422	-0.650935	-0.678903	-0.221165	-0.019301	-0.284437	-0.169358	-0.857178	-0.022949	0.383545	0.095086	0.012676	-0.009280	0.020402	-0.711506	-0.072882	-0.698592	107.609877	-85.619720	79.959759
40090		9.661299	1.076791	-0.816015	-0.524333	-0.434504	-0.081179	-0.011840	-0.303782	-0.168056	-0.848145	-0.025146	0.380127	0.096634	0.010686	-0.008014	0.019681	-0.712539	-0.073446	-0.697500	109.405106	-85.475080	78.152167
40091		9.930943	0.686862	-0.547350	-0.277730	0.025404	0.153111	-0.002963	-0.286027	-0.142733	-0.847900	-0.035889	0.385986	0.099322	0.006798	-0.005332	0.019077	-0.713516	-0.073940	-0.696465	111.039261	-85.343472	76.509399
40092		9.975993	0.483821	-0.412019	-0.143644	0.263003	0.179029	0.005905	-0.254256	-0.113611	-0.849365	-0.035645	0.392090	0.099768	0.004782	-0.003993	0.018626	-0.714391	-0.074367	-0.695535	112.463203	-85.230623	75.083894
40093		9.818575	0.503461	-0.366255	-0.076205	0.249866	0.022136	0.003513	-0.219608	-0.097539	-0.845703	-0.029785	0.395508	0.098192	0.004987	-0.003555	0.018224	-0.715151	-0.074712	-0.694727	113.649065	-85.131386	73.893651
40094		9.628228	0.604878	-0.385075	-0.065925	0.143667	-0.159092	-0.006216	-0.202958	-0.104728	-0.843262	-0.034668	0.390869	0.096289	0.005998	-0.003753	0.017780	-0.715849	-0.075061	-0.693981	114.662622	-85.030398	72.872646
40095		9.641103	0.540724	-0.651833	-0.320320	0.186432	-0.141558	0.000232	-0.186910	-0.122304	-0.842285	-0.033447	0.394531	0.096420	0.005348	-0.006428	0.017294	-0.716484	-0.075481	-0.693292	115.496254	-84.922813	72.034000
40096		9.738364	0.328008	-0.923099	-0.597148	0.384016	-0.050959	0.052483	-0.188351	-0.139808	-0.842773	-0.044189	0.397461	0.097395	0.003214	-0.009138	0.016945	-0.717111	-0.076157	-0.692578	116.284365	-84.804795	71.272775
40097		9.866046	0.131134	-0.875409	-0.554750	0.611290	0.058530	0.157500	-0.186715	-0.159071	-0.841553	-0.040527	0.404297	0.098670	0.001240	-0.008661	0.016893	-0.717717	-0.077253	-0.691830	117.034311	-84.676442	70.608096
40098		10.008376	-0.093231	-0.693192	-0.382576	0.885490	0.173618	0.273352	-0.187676	-0.163824	-0.843262	-0.035889	0.402344	0.100089	-0.001005	-0.006839	0.017253	-0.718311	-0.078779	-0.691033	117.808652	-84.544611	69.987505
40099		9.876628	0.045332	-0.584218	-0.241997	0.767902	0.048492	0.355387	-0.198620	-0.165892	-0.841064	-0.035400	0.397461	0.098772	0.000382	-0.005743	0.017884	-0.718933	-0.080583	-0.690161	118.646913	-84.407992	69.347755
40100		9.713426	0.741282	-0.626309	-0.171149	0.078334	-0.052723	0.366835	-0.214003	-0.187463	-0.834229	-0.036133	0.408936	0.097148	0.007333	-0.006146	0.018488	-0.719593	-0.082519	-0.689228	119.472585	-84.255382	68.729113
40101		9.804645	1.672345	-0.866897	-0.248582	-0.844830	0.132347	0.270565	-0.214425	-0.203695	-0.837158	-0.036377	0.411133	0.098073	0.016635	-0.008541	0.018678	-0.720255	-0.084169	-0.688331	120.163339	-84.093837	68.188620
40102		9.758829	2.236816	-0.956064	-0.232794	-1.395801	0.144702	0.094605	-0.221150	-0.216162	-0.838867	-0.043945	0.413574	0.097623	0.022267	-0.009442	0.018199	-0.720948	-0.085270	-0.687482	120.718660	-83.923548	67.684624
40103		9.626802	2.472037	-0.921690	-0.149732	-1.610887	0.037102	-0.106952	-0.235849	-0.227260	-0.835449	-0.049316	0.413574	0.096307	0.024606	-0.009117	0.016937	-0.721704	-0.085707	-0.686666	121.166882	-83.743024	67.169960
40104		9.529348	2.332501	-1.032934	-0.267827	-1.473885	-0.062208	-0.273857	-0.250808	-0.205021	-0.827637	-0.043213	0.411621	0.095330	0.023213	-0.010242	0.015155	-0.722531	-0.085504	-0.685863	121.617872	-83.568481	66.558187
40105		9.433242	1.935372	-1.247769	-0.526547	-1.098479	-0.179169	-0.359541	-0.257550	-0.175401	-0.836182	-0.033203	0.416992	0.094365	0.019249	-0.012391	0.013149	-0.723398	-0.084888	-0.685066	122.098494	-83.405728	65.864866
40106		9.474681	1.365628	-1.285368	-0.625810	-0.516071	-0.188309	-0.377833	-0.251563	-0.139290	-0.833496	-0.053223	0.419922	0.094772	0.013566	-0.012760	0.011216	-0.724256	-0.084090	-0.684293	122.610700	-83.261656	65.131090
40107		9.602767	0.943290	-1.323162	-0.697387	-0.072545	-0.098675	-0.349027	-0.230338	-0.104237	-0.823730	-0.055420	0.422607	0.096048	0.009360	-0.013137	0.009507	-0.725051	-0.083252	-0.683578	123.119978	-83.140261	64.415053
40108		9.661380	0.638646	-1.220810	-0.616844	0.263084	-0.076632	-0.309365	-0.196697	-0.097437	-0.832520	-0.050781	0.418701	0.096629	0.006321	-0.012123	0.007988	-0.725729	-0.082534	-0.682966	123.516985	-83.032085	63.836459
40109		9.679799	0.227932	-1.188262	-0.622218	0.689586	-0.101884	-0.234302	-0.159981	-0.119475	-0.831299	-0.057617	0.415039	0.096809	0.002208	-0.011808	0.006669	-0.726268	-0.082138	-0.682455	123.744366	-82.924606	63.470046
40110		9.753819	0.000158	-1.086817	-0.534107	0.951143	-0.059320	-0.117855	-0.132087	-0.150872	-0.829590	-0.058105	0.422607	0.097545	-0.000078	-0.010804	0.005690	-0.726692	-0.082264	-0.681997	123.844181	-82.811004	63.301271
40111		9.778957	-0.104256	-1.093380	-0.541595	1.074161	-0.046053	0.019385	-0.117242	-0.188546	-0.825928	-0.048828	0.426514	0.097795	-0.001134	-0.010877	0.005075	-0.727047	-0.082983	-0.681536	123.869101	-82.684142	63.285320
40112		9.749204	0.290712	-1.001252	-0.391715	0.711750	-0.041612	0.140359	-0.113534	-0.209033	-0.822998	-0.056396	0.424316	0.097501	0.002812	-0.009955	0.004844	-0.727374	-0.084200	-0.681038	123.898263	-82.548769	63.336876
40113		9.730944	0.435213	-0.894609	-0.258554	0.600835	-0.052918	0.203234	-0.112021	-0.230988	-0.820557	-0.063477	0.430420	0.097319	0.004249	-0.008887	0.004757	-0.727686	-0.085700	-0.680519	123.906017	-82.403429	63.444810
40114		9.645160	0.614477	-0.808126	-0.144073	0.446930	-0.125624	0.231566	-0.118479	-0.244973	-0.817139	-0.072266	0.434570	0.096464	0.006036	-0.008017	0.004733	-0.728010	-0.087358	-0.679962	123.921049	-82.249390	63.563390
40115		9.507465	0.860702	-0.648601	0.049868	0.231283	-0.247263	0.219948	-0.129419	-0.253113	-0.824951	-0.059326	0.422607	0.095090	0.008494	-0.006415	0.004620	-0.728367	-0.088991	-0.679368	123.950674	-82.087940	63.658160
40116		9.476118	0.969071	-0.606189	0.117302	0.150857	-0.269795	0.173603	-0.147330	-0.262702	-0.824219	-0.061523	0.423584	0.094778	0.009571	-0.005984	0.004311	-0.728778	-0.090517	-0.678728	123.993370	-81.916256	63.715359
40117		9.533086	1.011481	-0.556070	0.189749	0.149150	-0.213015	0.118451	-0.158646	-0.276122	-0.814453	-0.063965	0.437744	0.095349	0.009986	-0.005479	0.003742	-0.729221	-0.091893	-0.678069	124.013053	-81.734575	63.762260
40118		9.650532	1.073390	-0.440984	0.333743	0.146240	-0.099472	0.053862	-0.174846	-0.277500	-0.817627	-0.065918	0.440674	0.096524	0.010601	-0.004323	0.002934	-0.729717	-0.093067	-0.677380	124.045092	-81.547050	63.760940
40119		9.683036	1.080626	-0.432488	0.360226	0.173057	-0.068141	-0.007972	-0.187144	-0.277235	-0.809082	-0.080078	0.432373	0.096849	0.010672	-0.004235	0.001884	-0.730255	-0.094017	-0.676672	124.080763	-81.355695	63.718165
40120		9.623408	0.931034	-0.549231	0.235178	0.325817	-0.137104	-0.053921	-0.192708	-0.282164	-0.808105	-0.070557	0.436523	0.096252	0.009173	-0.005402	0.000659	-0.730806	-0.094842	-0.675964	124.095115	-81.160220	63.672257
40121		9.557288	0.771087	-0.756680	0.018812	0.477245	-0.206404	-0.069690	-0.201609	-0.301295	-0.813232	-0.079102	0.445557	0.095592	0.007564	-0.007473	-0.000706	-0.731377	-0.095670	-0.675229	124.087447	-80.952795	63.637273
40122		9.520365	0.733560	-0.962160	-0.176513	0.514351	-0.231175	-0.034232	-0.197749	-0.316380	-0.809326	-0.075928	0.440674	0.095225	0.007183	-0.009529	-0.001977	-0.731924	-0.096686	-0.674489	124.058012	-80.739466	63.647091
40123		9.540308	0.740830	-1.078491	-0.273801	0.528149	-0.201474	0.027824	-0.190499	-0.333198	-0.808105	-0.082520	0.442383	0.095425	0.007251	-0.010693	-0.003086	-0.732439	-0.097959	-0.673742	124.012055	-80.520480	63.707617
40124		9.573632	0.969902	-1.098721	-0.244310	0.339228	-0.136559	0.091602	-0.184710	-0.337970	-0.802246	-0.083496	0.437256	0.095763	0.009542	-0.010894	-0.003963	-0.732927	-0.099478	-0.672983	123.979261	-80.301070	63.793973
40125		9.503524	1.232128	-1.043106	-0.142093	0.113208	-0.174740	0.135364	-0.189303	-0.364235	-0.807373	-0.093994	0.445801	0.095067	0.012155	-0.010333	-0.004782	-0.733419	-0.101226	-0.672181	123.938825	-80.067712	63.911543
40126		9.295648	1.737821	-0.989931	-0.016245	-0.370891	-0.311577	0.135465	-0.213119	-0.385518	-0.799561	-0.080078	0.444336	0.093000	0.017206	-0.009789	-0.005672	-0.733973	-0.103066	-0.671289	123.926964	-79.816597	64.002286
40127		9.232540	2.223764	-0.843285	0.212676	-0.799658	-0.314729	0.099135	-0.233786	-0.382626	-0.802246	-0.086182	0.452393	0.092377	0.022065	-0.008314	-0.006708	-0.734596	-0.104758	-0.670335	123.955831	-79.560258	64.028514
40128		9.358315	2.422469	-0.716045	0.397464	-0.918990	-0.171295	0.020331	-0.255915	-0.365231	-0.803223	-0.091309	0.457031	0.093636	0.024054	-0.007038	-0.007975	-0.735293	-0.106134	-0.669340	124.024866	-79.305087	63.970007
40129		9.389678	2.539030	-0.695451	0.457861	-0.988375	-0.121985	-0.077028	-0.272045	-0.334820	-0.796875	-0.091553	0.450195	0.093948	0.025230	-0.006836	-0.009518	-0.736056	-0.107058	-0.668334	124.126247	-79.059158	63.819833
40130		9.445521	2.576208	-0.764547	0.419353	-0.989505	-0.051327	-0.189664	-0.281704	-0.305905	-0.799805	-0.097168	0.459473	0.094505	0.025610	-0.007537	-0.011373	-0.736854	-0.107512	-0.667351	124.228337	-78.823774	63.604956
40131		9.478545	2.508634	-0.776526	0.418647	-0.886677	-0.026091	-0.290109	-0.285976	-0.279120	-0.800781	-0.094482	0.452393	0.094831	0.024943	-0.007666	-0.013521	-0.737674	-0.107519	-0.666404	124.320106	-78.599609	63.339938
40132		9.482634	2.293090	-0.990497	0.194577	-0.670107	-0.031446	-0.360025	-0.289618	-0.269778	-0.792725	-0.104980	0.456787	0.094871	0.022785	-0.009809	-0.015888	-0.738499	-0.107269	-0.665477	124.388256	-78.378629	63.059746
40133		9.464327	2.101016	-1.106441	0.068683	-0.467837	-0.066495	-0.405126	-0.290338	-0.260830	-0.791260	-0.105957	0.458008	0.094687	0.020864	-0.010969	-0.018401	-0.739324	-0.106825	-0.664568	124.439893	-78.161565	62.768174
40134		9.481958	1.987682	-1.124080	0.054470	-0.324703	-0.065202	-0.414027	-0.289334	-0.249101	-0.785400	-0.111328	0.456787	0.094860	0.019736	-0.011145	-0.020897	-0.740143	-0.106318	-0.663663	124.495852	-77.950334	62.468376
40135		9.437994	1.769538	-1.170734	-0.006433	-0.094479	-0.139604	-0.399201	-0.293106	-0.243708	-0.780518	-0.117920	0.468018	0.094418	0.017557	-0.011604	-0.023333	-0.740975	-0.105828	-0.662731	124.570420	-77.740314	62.156263
40136		9.369991	1.638460	-1.213790	-0.052995	0.046055	-0.223655	-0.369462	-0.298752	-0.239865	-0.787109	-0.125732	0.456787	0.093737	0.016250	-0.012028	-0.025639	-0.741824	-0.105431	-0.661758	124.673018	-77.530205	61.834384
40137		9.232068	1.859464	-1.328101	-0.133608	-0.178003	-0.304644	-0.373159	-0.295315	-0.240581	-0.783203	-0.128906	0.460205	0.092362	0.018459	-0.013179	-0.027971	-0.742658	-0.105012	-0.660794	124.758254	-77.320710	61.525792
40138		9.263679	1.942023	-1.470286	-0.243049	-0.236325	-0.240127	-0.385636	-0.284415	-0.241288	-0.784668	-0.124268	0.467529	0.092681	0.019280	-0.014608	-0.030334	-0.743446	-0.104568	-0.659874	124.806591	-77.114426	61.249527
40139		9.252016	1.912903	-1.627416	-0.386372	-0.193874	-0.235605	-0.386497	-0.268895	-0.247679	-0.782471	-0.129395	0.468994	0.092566	0.018983	-0.016187	-0.032723	-0.744176	-0.104134	-0.659005	124.808963	-76.910128	61.017831
40140		9.262728	1.930121	-1.434557	-0.177157	-0.159997	-0.245851	-0.382290	-0.264514	-0.259915	-0.776367	-0.134521	0.465088	0.092671	0.019153	-0.014260	-0.035124	-0.744879	-0.103772	-0.658144	124.784382	-76.701572	60.817970
40141		9.266145	1.958260	-1.472123	-0.195945	-0.158541	-0.231469	-0.397987	-0.254333	-0.253572	-0.771240	-0.138428	0.469971	0.092705	0.019436	-0.014642	-0.037567	-0.745545	-0.103324	-0.657325	124.736921	-76.499296	60.630439
40142		9.399428	2.041217	-1.324305	-0.012508	-0.170212	-0.104939	-0.415775	-0.238282	-0.239422	-0.772705	-0.137451	0.464600	0.094034	0.020272	-0.013173	-0.040011	-0.746155	-0.102778	-0.656573	124.665180	-76.309026	60.459027
40143		9.484151	2.124023	-1.399409	-0.057025	-0.209743	0.004217	-0.467536	-0.224621	-0.227554	-0.766846	-0.148682	0.467529	0.094881	0.021100	-0.013937	-0.042611	-0.746712	-0.102010	-0.655896	124.552265	-76.128802	60.297625
40144		9.500970	2.259443	-1.315852	0.049454	-0.303287	0.036702	-0.535813	-0.215522	-0.220955	-0.771240	-0.149658	0.460205	0.095049	0.022454	-0.013116	-0.045430	-0.747220	-0.101004	-0.655283	124.391157	-75.954799	60.147163
40145		9.437359	2.182874	-1.519319	-0.159486	-0.225694	-0.011639	-0.604925	-0.215483	-0.209258	-0.773438	-0.153320	0.467773	0.094413	0.021684	-0.015157	-0.048479	-0.747712	-0.099716	-0.654701	124.205667	-75.786378	59.979074
40146		9.452467	2.020237	-1.983227	-0.624311	-0.059601	0.034661	-0.621037	-0.200469	-0.206321	-0.768555	-0.151123	0.477051	0.094565	0.020043	-0.019800	-0.051560	-0.748142	-0.098379	-0.654177	123.987040	-75.624394	59.837356
40147		9.546705	1.932752	-2.264874	-0.892885	0.064138	0.147399	-0.598322	-0.178641	-0.194751	-0.767090	-0.150635	0.463867	0.095506	0.019167	-0.022621	-0.054516	-0.748505	-0.097067	-0.653718	123.756493	-75.474955	59.719748
40148		9.626209	1.990195	-2.723856	-1.329132	0.037151	0.300478	-0.565614	-0.144531	-0.173104	-0.774414	-0.160889	0.463135	0.096299	0.019742	-0.027225	-0.057252	-0.748767	-0.095799	-0.653371	123.509731	-75.346857	59.639728
40149		9.568272	2.102408	-2.781910	-1.385681	-0.056243	0.276297	-0.530010	-0.108807	-0.152558	-0.766602	-0.171875	0.468506	0.095714	0.020877	-0.027822	-0.059778	-0.748927	-0.094572	-0.653140	123.244704	-75.239879	59.598470
40150		9.510945	2.080412	-2.836159	-1.450469	-0.021602	0.223527	-0.500401	-0.072346	-0.125749	-0.759033	-0.169678	0.479736	0.095133	0.020673	-0.028379	-0.062080	-0.748983	-0.093359	-0.653035	122.963584	-75.157290	59.592555
40151		9.519095	2.109761	-2.740767	-1.358251	-0.020862	0.223783	-0.479591	-0.039121	-0.115590	-0.768066	-0.171631	0.460938	0.095208	0.020977	-0.027439	-0.064266	-0.748938	-0.092175	-0.653043	122.647932	-75.089798	59.632947
40152		9.521408	2.252843	-2.422236	-1.042709	-0.129554	0.212065	-0.480365	-0.013909	-0.111406	-0.763916	-0.174072	0.464111	0.095228	0.022417	-0.024270	-0.066418	-0.748807	-0.090992	-0.653144	122.292325	-75.032139	59.716004
40153		9.502819	2.425435	-2.473813	-1.098583	-0.281491	0.238178	-0.515872	0.002789	-0.097758	-0.762207	-0.184326	0.471191	0.095040	0.024144	-0.024802	-0.068660	-0.748612	-0.089637	-0.653323	121.903775	-74.985931	59.810726
40154		9.420520	2.842291	-2.690209	-1.320789	-0.687455	0.279135	-0.566563	0.031690	-0.086486	-0.760010	-0.183105	0.463623	0.094213	0.028306	-0.026997	-0.071032	-0.748303	-0.088092	-0.653633	121.447391	-74.953851	59.947026
40155		9.356063	2.949902	-2.590407	-1.246846	-0.783526	0.226208	-0.627459	0.047944	-0.076110	-0.754395	-0.200195	0.459717	0.093566	0.029382	-0.026019	-0.073601	-0.747920	-0.086304	-0.654027	120.939717	-74.931215	60.098567
40156		9.256144	2.823276	-2.681932	-1.378071	-0.659701	0.112304	-0.660748	0.063282	-0.081288	-0.759277	-0.190186	0.455566	0.092564	0.028106	-0.026942	-0.076294	-0.747461	-0.084442	-0.654485	120.379798	-74.910306	60.286238
40157		9.280128	2.849758	-2.475529	-1.194566	-0.657793	0.112552	-0.661152	0.078939	-0.068249	-0.756836	-0.197266	0.457520	0.092801	0.028384	-0.024886	-0.078950	-0.746951	-0.082523	-0.654997	119.806289	-74.899655	60.485747
40158		9.475704	2.666389	-2.210287	-0.936004	-0.417006	0.223939	-0.634739	0.103555	-0.064354	-0.771729	-0.207764	0.455078	0.094754	0.026563	-0.022236	-0.081471	-0.746362	-0.080697	-0.655587	119.206435	-74.897575	60.730235
40159		9.683879	2.413937	-1.914185	-0.645596	-0.110590	0.328299	-0.601647	0.132511	-0.060916	-0.759521	-0.206787	0.446777	0.096833	0.024052	-0.019278	-0.083858	-0.745687	-0.078965	-0.656264	118.575929	-74.904306	61.024148
40160		9.708874	2.464398	-1.842433	-0.598733	-0.139892	0.353527	-0.571228	0.162530	-0.050510	-0.776367	-0.201172	0.447754	0.097080	0.024567	-0.018573	-0.086072	-0.744922	-0.077318	-0.657042	117.915935	-74.923805	61.368593
40161		9.483789	2.725260	-1.838461	-0.652737	-0.430718	0.194188	-0.556030	0.184841	-0.048743	-0.770508	-0.213135	0.455322	0.094827	0.027178	-0.018548	-0.088224	-0.744087	-0.075714	-0.657890	117.223678	-74.948820	61.753796
40162		9.268404	2.711850	-1.817849	-0.690693	-0.453727	-0.020906	-0.527510	0.200985	-0.045961	-0.770752	-0.222412	0.444092	0.092672	0.027049	-0.018343	-0.090245	-0.743203	-0.074210	-0.658785	116.517160	-74.978445	62.172272
40163		9.257135	2.687910	-2.020223	-0.925339	-0.412371	-0.016040	-0.504916	0.219882	-0.035589	-0.776855	-0.218018	0.439697	0.092554	0.026811	-0.020372	-0.092152	-0.742269	-0.072736	-0.659738	115.795539	-75.016537	62.617607
40164		9.466337	2.692821	-1.925518	-0.840465	-0.360743	0.173994	-0.468181	0.241939	-0.028987	-0.770020	-0.212646	0.440918	0.094644	0.026869	-0.019433	-0.093880	-0.741272	-0.071382	-0.660762	115.054519	-75.062272	63.106832
40165		9.668169	2.373971	-2.002477	-0.922715	0.010369	0.300052	-0.425665	0.272544	-0.029242	-0.775146	-0.212158	0.436523	0.096658	0.023683	-0.020207	-0.095450	-0.740193	-0.070173	-0.661876	114.274826	-75.113235	63.659502
40166		9.687275	2.056631	-1.959365	-0.906422	0.331542	0.236218	-0.388827	0.295970	-0.026176	-0.769287	-0.219727	0.436279	0.096846	0.020515	-0.019777	-0.096854	-0.739047	-0.069096	-0.663065	113.467126	-75.169529	64.264521
40167		9.495795	1.864180	-1.914828	-0.913965	0.482172	-0.002289	-0.331747	0.314960	-0.042875	-0.765869	-0.225098	0.427734	0.094932	0.018589	-0.019329	-0.098106	-0.737859	-0.068268	-0.664288	112.635935	-75.218785	64.925969
40168		9.306520	1.880960	-1.679912	-0.736194	0.419249	-0.207815	-0.253789	0.323636	-0.055438	-0.779785	-0.222168	0.428955	0.093043	0.018762	-0.016974	-0.099098	-0.736670	-0.067760	-0.665512	111.815864	-75.261078	65.623518
40169		9.260074	2.084088	-1.257078	-0.360596	0.196511	-0.246921	-0.177204	0.322743	-0.061119	-0.776855	-0.224854	0.426270	0.092587	0.020801	-0.012739	-0.099838	-0.735520	-0.067515	-0.666697	111.034021	-75.297386	66.324970
40170		9.481870	2.431416	-1.085772	-0.212621	-0.090880	0.033274	-0.130921	0.332959	-0.060200	-0.776367	-0.232666	0.424072	0.094808	0.024278	-0.011031	-0.100390	-0.734354	-0.067438	-0.667906	110.253764	-75.334086	67.053892
40171		9.608135	2.436335	-0.833200	0.016406	-0.073245	0.134195	-0.132866	0.344231	-0.053248	-0.781250	-0.224365	0.422363	0.096073	0.024332	-0.008514	-0.100934	-0.733152	-0.067322	-0.669154	109.451707	-75.373889	67.802108
40172		9.417014	2.124347	-0.518063	0.288083	0.173185	-0.150995	-0.134256	0.348421	-0.045188	-0.795898	-0.226563	0.423584	0.094166	0.021219	-0.005359	-0.101442	-0.731933	-0.067185	-0.670425	108.640514	-75.416445	68.560760
40173		9.274880	2.131800	-0.167954	0.589697	0.118398	-0.313513	-0.108346	0.336245	-0.053030	-0.787842	-0.233643	0.411377	0.092751	0.021292	-0.001847	-0.101896	-0.730766	-0.067148	-0.671632	107.861285	-75.449646	69.300046
40174		9.281533	2.393343	-0.188430	0.528254	-0.126032	-0.241093	-0.059465	0.328308	-0.057923	-0.798096	-0.222900	0.411621	0.092819	0.023906	-0.002044	-0.102179	-0.729644	-0.067299	-0.672793	107.119107	-75.476568	70.031437
40175		9.247242	2.570938	-0.158919	0.518183	-0.302171	-0.232156	-0.007060	0.317635	-0.044009	-0.797363	-0.227295	0.408203	0.092475	0.025689	-0.001737	-0.102238	-0.728590	-0.067560	-0.673899	106.436959	-75.506842	70.730181
40176		9.201052	2.607450	-0.183983	0.460660	-0.341640	-0.264755	0.024129	0.303205	-0.051490	-0.793457	-0.230713	0.405518	0.092014	0.026051	-0.001976	-0.102203	-0.727593	-0.067955	-0.674940	105.795046	-75.528902	71.407303
40177		9.289623	2.360064	-0.216786	0.419024	-0.073197	-0.234953	0.053239	0.297728	-0.053170	-0.793945	-0.224854	0.401855	0.092899	0.023577	-0.002300	-0.102080	-0.726631	-0.068442	-0.675946	105.179838	-75.547108	72.072466
40178		9.487280	2.005166	-0.107285	0.532523	0.318244	-0.135096	0.136432	0.290023	-0.069585	-0.802734	-0.224365	0.401855	0.094878	0.020019	-0.001197	-0.101702	-0.725727	-0.069276	-0.676889	104.617042	-75.553604	72.734235
40179		9.651962	2.307986	-0.003366	0.614935	0.065961	0.092091	0.212160	0.278444	-0.078268	-0.800049	-0.230225	0.400391	0.096528	0.023042	-0.000144	-0.101091	-0.724898	-0.070383	-0.677754	104.118610	-75.551913	73.373068
40180		9.716269	3.017093	-0.065589	0.513055	-0.595476	0.331039	0.239936	0.277747	-0.067679	-0.803467	-0.222412	0.403320	0.097172	0.030139	-0.000755	-0.100335	-0.724084	-0.071553	-0.678613	103.642154	-75.554846	74.006909
40181		9.510267	3.644526	-0.108545	0.417282	-1.244488	0.287641	0.186750	0.275353	-0.063989	-0.806641	-0.231934	0.400635	0.095113	0.036416	-0.001182	-0.099768	-0.723254	-0.072520	-0.679479	103.143200	-75.557970	74.631134
40182		9.283214	3.730708	-0.370600	0.119123	-1.364921	0.104790	0.045647	0.245616	-0.052269	-0.796143	-0.229004	0.394531	0.092837	0.037284	-0.003812	-0.099674	-0.722454	-0.072958	-0.680296	102.632353	-75.562665	75.185517
40183		9.293287	3.161826	-0.491876	-0.004511	-0.800136	-0.016566	-0.044350	0.221136	-0.055304	-0.804443	-0.222168	0.391602	0.092936	0.031591	-0.005029	-0.099934	-0.721693	-0.073080	-0.681052	102.122495	-75.561160	75.683987
40184		9.553331	2.365483	-0.652446	-0.144339	0.046870	0.049577	-0.003310	0.209918	-0.046032	-0.808594	-0.235107	0.393799	0.095532	0.023633	-0.006625	-0.100008	-0.720991	-0.073311	-0.681759	101.663898	-75.562736	76.155447
40185		9.639153	1.954584	-0.506193	0.001564	0.463905	0.024724	0.109432	0.202471	-0.051994	-0.814453	-0.226318	0.395996	0.096391	0.019524	-0.005149	-0.099709	-0.720370	-0.073936	-0.682392	101.284486	-75.559022	76.610420
40186		9.365073	2.441560	-0.559331	-0.095927	-0.067752	-0.119140	0.221032	0.197179	-0.064425	-0.802002	-0.222412	0.397705	0.093653	0.024392	-0.005659	-0.099041	-0.719814	-0.074993	-0.682960	100.974579	-75.547282	77.061089
40187		9.193451	3.287922	-0.334637	0.084883	-0.933974	-0.088366	0.222843	0.193215	-0.061599	-0.806152	-0.223145	0.398926	0.091941	0.032855	-0.003399	-0.098367	-0.719276	-0.076036	-0.683509	100.677377	-75.535907	77.498542
40188		9.181977	3.494643	-0.191095	0.212082	-1.137815	-0.054709	0.112798	0.174370	-0.051226	-0.811768	-0.223633	0.397217	0.091827	0.034924	-0.001971	-0.098052	-0.718747	-0.076663	-0.684040	100.361783	-75.528020	77.891082
40189		9.374685	3.377227	-0.238491	0.165495	-0.971152	0.105816	-0.018255	0.145423	-0.038488	-0.810059	-0.233154	0.396484	0.093752	0.033754	-0.002456	-0.098184	-0.718260	-0.076775	-0.684520	100.040925	-75.523599	78.210338
40190		9.421625	2.798413	-0.371265	0.035285	-0.390789	0.014926	-0.090174	0.138711	-0.028800	-0.806152	-0.231934	0.389893	0.094218	0.027969	-0.003791	-0.098536	-0.717762	-0.076610	-0.685011	99.696130	-75.523756	78.512944
40191		9.380751	2.234683	-0.296840	0.107786	0.145236	-0.166564	-0.085933	0.129180	-0.022117	-0.808838	-0.230713	0.384277	0.093808	0.022335	-0.003039	-0.098865	-0.717303	-0.076421	-0.685465	99.378051	-75.525998	78.788740
40192		9.373605	2.024212	-0.193066	0.203969	0.346046	-0.229482	-0.027686	0.130557	-0.031735	-0.822266	-0.224365	0.384521	0.093738	0.020227	-0.001995	-0.099005	-0.716861	-0.076477	-0.685900	99.085871	-75.522905	79.073981
40193		9.413906	2.033867	-0.241088	0.146080	0.351283	-0.186078	-0.003362	0.129512	-0.033072	-0.809570	-0.227295	0.390625	0.094141	0.020323	-0.002472	-0.099071	-0.716436	-0.076613	-0.686319	98.810240	-75.518394	79.355268
40194		9.270877	2.226368	-0.098472	0.266703	0.127728	-0.282309	-0.006667	0.104676	-0.041911	-0.818359	-0.223877	0.387207	0.092713	0.022244	-0.001034	-0.099181	-0.716090	-0.076764	-0.686649	98.583782	-75.506629	79.585083
40195		9.068393	2.074925	0.259739	0.611805	0.215458	-0.528949	-0.003942	0.076303	-0.050061	-0.822510	-0.221191	0.380615	0.090690	0.020727	0.002562	-0.099328	-0.715841	-0.076933	-0.686868	98.419894	-75.487448	79.750768
40196		9.217268	2.358573	0.250338	0.596157	-0.017945	-0.313854	-0.039996	0.052022	-0.048834	-0.812988	-0.225586	0.385010	0.092179	0.023564	0.002475	-0.099601	-0.715655	-0.076968	-0.687018	98.288183	-75.467031	79.863019
40197		9.419116	2.553159	0.384892	0.729624	-0.157626	-0.074653	-0.082728	0.035450	-0.043389	-0.822021	-0.227051	0.385254	0.094197	0.025513	0.003822	-0.100020	-0.715509	-0.076824	-0.687125	98.170975	-75.448154	79.934104
40198		9.248837	2.627380	0.164729	0.496307	-0.259166	-0.212804	-0.131653	0.009589	-0.057956	-0.813965	-0.230957	0.393799	0.092496	0.026248	0.001626	-0.100668	-0.715420	-0.076555	-0.687153	98.077184	-75.419015	79.952938
40199		9.154552	2.791262	0.093909	0.414149	-0.433571	-0.260396	-0.166101	-0.019507	-0.057503	-0.823486	-0.228760	0.396973	0.091553	0.027887	0.000925	-0.101458	-0.715415	-0.076146	-0.687087	98.028432	-75.387562	79.903676
40200		9.225385	2.677259	-0.017110	0.309041	-0.296300	-0.216207	-0.187309	-0.045372	-0.056975	-0.816895	-0.234375	0.390137	0.092262	0.026746	-0.000175	-0.102323	-0.715486	-0.075655	-0.686940	98.022789	-75.354575	79.798456
40201		9.594144	2.877140	-0.305586	0.031338	-0.380966	0.200944	-0.170790	-0.043955	-0.045874	-0.812744	-0.234863	0.381348	0.095949	0.028747	-0.003059	-0.103098	-0.715566	-0.075175	-0.686793	98.027892	-75.327757	79.690752
40202		9.721903	3.032436	-0.643032	-0.305585	-0.480798	0.375541	-0.156751	-0.025028	-0.022823	-0.825439	-0.227539	0.381592	0.097223	0.030308	-0.006442	-0.103729	-0.715595	-0.074678	-0.686723	98.005774	-75.315776	79.620639
40203		9.583495	2.980726	-0.917495	-0.586110	-0.450145	0.238369	-0.141637	-0.005778	-0.014864	-0.820557	-0.236328	0.382568	0.095837	0.029794	-0.009193	-0.104278	-0.715568	-0.074208	-0.686718	97.953378	-75.309664	79.589741
40204		9.384431	2.854204	-1.152810	-0.828366	-0.364687	0.022139	-0.109323	0.008477	-0.002130	-0.821289	-0.229980	0.378174	0.093844	0.028535	-0.011548	-0.104655	-0.715513	-0.073816	-0.686760	97.892157	-75.312101	79.588141
40205		9.591501	2.458162	-1.354728	-1.008419	0.079385	0.129723	-0.045015	0.028299	0.018873	-0.818848	-0.239502	0.388916	0.095911	0.024588	-0.013566	-0.104730	-0.715432	-0.073575	-0.686859	97.831542	-75.327793	79.622951
40206		9.750024	2.163784	-1.339614	-0.978350	0.400040	0.208405	0.033460	0.055943	0.028145	-0.821533	-0.231689	0.382568	0.097493	0.021654	-0.013420	-0.104475	-0.715300	-0.073590	-0.687034	97.758109	-75.351105	79.718536
40207		9.610666	2.373885	-1.285371	-0.942404	0.155328	0.124121	0.099578	0.069840	0.027504	-0.819580	-0.231934	0.375244	0.096099	0.023758	-0.012875	-0.103990	-0.715156	-0.073836	-0.687231	97.692939	-75.374806	79.843511
40208		9.408301	2.751509	-1.195013	-0.878520	-0.268823	0.019450	0.118304	0.069615	0.018470	-0.820801	-0.234131	0.377441	0.094076	0.027531	-0.011967	-0.103459	-0.715017	-0.074184	-0.687418	97.635014	-75.393615	79.973288
40209		9.325252	2.772196	-1.186381	-0.877477	-0.313914	-0.056439	0.089811	0.072920	0.027423	-0.823730	-0.223877	0.383545	0.093244	0.027740	-0.011885	-0.103007	-0.714856	-0.074398	-0.687630	97.556499	-75.417468	80.106308
40210		9.642756	2.589944	-0.928055	-0.604424	-0.074788	0.196355	0.058498	0.087423	0.033689	-0.821289	-0.230713	0.384277	0.096419	0.025918	-0.009315	-0.102632	-0.714630	-0.074496	-0.687911	97.429113	-75.446154	80.272421
40211		9.870892	2.274417	-0.832313	-0.496031	0.277826	0.335070	0.064873	0.116980	0.046714	-0.823486	-0.226563	0.385498	0.098699	0.022770	-0.008373	-0.102184	-0.714313	-0.074579	-0.688298	97.244950	-75.484085	80.500120
40212		9.667969	2.298726	-0.721224	-0.403642	0.193921	0.140874	0.123006	0.129945	0.037592	-0.826660	-0.225098	0.384766	0.096671	0.023010	-0.007261	-0.101548	-0.713974	-0.074907	-0.688708	97.060667	-75.517776	80.763126
40213		9.099511	2.343810	-0.413854	-0.128529	-0.007147	-0.407942	0.180509	0.120531	0.023978	-0.827148	-0.219971	0.379639	0.090990	0.023453	-0.004172	-0.100764	-0.713694	-0.075471	-0.689051	96.926979	-75.542672	81.007064
40214		9.238162	2.346421	-0.223908	0.061709	0.013719	-0.278776	0.243327	0.106690	0.020573	-0.821533	-0.220947	0.382080	0.092378	0.023476	-0.002260	-0.099766	-0.713488	-0.076262	-0.689323	96.856875	-75.564782	81.223289
40215		9.553581	2.358372	-0.062057	0.232721	0.071491	0.024864	0.308094	0.096849	0.009372	-0.830078	-0.224121	0.379883	0.095534	0.023589	-0.000631	-0.098585	-0.713345	-0.077307	-0.689524	96.843621	-75.579629	81.418474
40216		9.447586	2.414711	0.198779	0.488588	-0.017957	-0.071631	0.360744	0.074031	-0.019514	-0.832520	-0.222168	0.384766	0.094479	0.024134	0.001996	-0.097318	-0.713291	-0.078629	-0.689611	96.901948	-75.576679	81.571531
40217		9.128843	2.370232	0.655252	0.938825	-0.063320	-0.405365	0.411174	0.040811	-0.043718	-0.835938	-0.219238	0.382080	0.091295	0.023669	0.006583	-0.095975	-0.713366	-0.080190	-0.689541	97.057308	-75.557482	81.653352
40218		9.214999	2.528665	1.020637	1.313423	-0.197767	-0.294923	0.439309	0.005996	-0.056037	-0.830811	-0.217529	0.385986	0.092157	0.025238	0.010259	-0.094581	-0.713564	-0.081879	-0.689331	97.300835	-75.529103	81.661663
40219		9.459857	2.459879	1.200437	1.515977	-0.065025	-0.082399	0.456723	-0.025217	-0.061040	-0.824463	-0.211670	0.394531	0.094605	0.024542	0.012072	-0.093160	-0.713874	-0.083627	-0.688993	97.622073	-75.495355	81.599300
40220		9.305659	2.607072	1.330084	1.655121	-0.236507	-0.201973	0.453711	-0.062120	-0.085594	-0.833496	-0.219482	0.388916	0.093064	0.026001	0.013389	-0.091843	-0.714294	-0.085439	-0.688512	98.012971	-75.444914	81.463898
40221		9.035730	2.640560	1.157153	1.492616	-0.320410	-0.451845	0.447145	-0.108213	-0.103903	-0.828369	-0.214844	0.394775	0.090365	0.026333	0.011679	-0.090638	-0.714860	-0.087268	-0.687855	98.493722	-75.379812	81.230961
40222		9.064927	2.706594	0.832044	1.193866	-0.360555	-0.398047	0.437799	-0.164802	-0.115444	-0.828613	-0.210693	0.400146	0.090658	0.026995	0.008454	-0.089524	-0.715605	-0.089083	-0.686993	99.083301	-75.302911	80.880689
40223		9.205102	2.586030	0.386315	0.782327	-0.193278	-0.277425	0.428816	-0.195349	-0.123603	-0.824219	-0.212646	0.390625	0.092063	0.025795	0.004008	-0.088489	-0.716445	-0.090880	-0.686015	99.726100	-75.217361	80.469221
40224		9.323983	2.459869	0.161631	0.592533	-0.027961	-0.186589	0.423682	-0.220350	-0.137264	-0.823242	-0.211914	0.400635	0.093255	0.024531	0.001771	-0.087525	-0.717356	-0.092699	-0.684943	100.407006	-75.120630	80.015832
40225		9.517961	2.220462	-0.021739	0.447320	0.265680	-0.052988	0.419554	-0.242959	-0.141299	-0.830811	-0.210693	0.410645	0.095195	0.022138	-0.000055	-0.086605	-0.718338	-0.094505	-0.683783	101.124627	-75.017562	79.521000
40226		9.712720	1.761365	-0.073627	0.430095	0.772338	0.019055	0.424937	-0.262725	-0.144683	-0.827881	-0.201904	0.407471	0.097141	0.017545	-0.000571	-0.085680	-0.719381	-0.096336	-0.682546	101.876241	-74.908950	78.994706
40227		9.690610	1.335170	-0.003835	0.523766	1.193978	-0.117814	0.475573	-0.288981	-0.165397	-0.820068	-0.209473	0.411133	0.096917	0.013271	0.000133	-0.084660	-0.720522	-0.098400	-0.681174	102.692741	-74.783494	78.430523
40228		9.428062	1.403747	0.259955	0.811634	1.081279	-0.373494	0.518480	-0.325103	-0.200825	-0.816895	-0.202881	0.411377	0.094290	0.013936	0.002789	-0.083618	-0.721779	-0.100724	-0.679631	103.578066	-74.631583	77.820537
40229		9.103059	1.589513	0.456041	1.035412	0.842276	-0.657442	0.504024	-0.378225	-0.226464	-0.821533	-0.205566	0.417236	0.091040	0.015780	0.004772	-0.082747	-0.723190	-0.103064	-0.677884	104.533966	-74.455292	77.127651
40230		9.028215	1.738803	0.516791	1.141810	0.703745	-0.702257	0.451452	-0.436407	-0.249580	-0.814209	-0.209229	0.429443	0.090292	0.017263	0.005404	-0.082168	-0.724756	-0.105288	-0.675938	105.542679	-74.254595	76.348608
40231		9.248436	2.019545	0.334113	1.035158	0.513389	-0.411180	0.356715	-0.491323	-0.282399	-0.809082	-0.208740	0.435303	0.092504	0.020059	0.003604	-0.082076	-0.726444	-0.107283	-0.673820	106.562216	-74.023289	75.500385
40232		9.441875	1.646386	-0.021089	0.731907	0.944926	-0.303159	0.301530	-0.547424	-0.314244	-0.805664	-0.205078	0.435547	0.094445	0.016316	0.000072	-0.082317	-0.728271	-0.109188	-0.671508	107.609907	-73.761107	74.589573
40233		9.407593	0.984412	-0.306636	0.470538	1.597157	-0.496401	0.383202	-0.594190	-0.349050	-0.804932	-0.203857	0.436035	0.094101	0.009685	-0.002768	-0.082405	-0.730261	-0.111468	-0.668957	108.737334	-73.466747	73.642466
40234		9.505791	0.961130	-0.479604	0.366667	1.675731	-0.401477	0.542577	-0.629497	-0.383016	-0.800293	-0.210449	0.452637	0.095091	0.009442	-0.004471	-0.082040	-0.732401	-0.114393	-0.666162	109.959849	-73.142033	72.690572
40235		9.498861	1.540660	-0.437145	0.510623	1.156368	-0.263102	0.653802	-0.671208	-0.416089	-0.791748	-0.211182	0.457764	0.095034	0.015222	-0.004003	-0.081402	-0.734691	-0.117786	-0.663121	111.254727	-72.785186	71.727374
40236		9.398861	2.239613	-0.483601	0.577412	0.497178	-0.168671	0.671042	-0.708877	-0.431619	-0.780518	-0.204834	0.467773	0.094053	0.022209	-0.004428	-0.080769	-0.737082	-0.121279	-0.659908	112.565769	-72.405764	70.756225
40237		9.675416	2.566927	-0.470219	0.725708	0.306645	0.177429	0.654369	-0.739625	-0.434985	-0.787354	-0.211426	0.471680	0.096826	0.025473	-0.004261	-0.080229	-0.739545	-0.124708	-0.656570	113.866950	-72.011042	69.782578
40238		9.782553	2.152927	-0.080206	1.177960	0.796651	0.102796	0.597098	-0.781525	-0.432021	-0.783447	-0.210938	0.476074	0.097874	0.021319	-0.000356	-0.079911	-0.742102	-0.127922	-0.653096	115.154439	-71.601352	68.787323
40239		9.276175	2.511511	-0.077950	1.239729	0.352383	-0.289071	0.522444	-0.816078	-0.456505	-0.772949	-0.210693	0.485107	0.092821	0.024905	-0.000336	-0.079973	-0.744706	-0.130961	-0.649512	116.384021	-71.163682	67.804850
40240		9.216374	3.647611	-0.081215	1.422275	-0.700328	-0.028058	0.473697	-0.839452	-0.448082	-0.761475	-0.204590	0.488281	0.092247	0.036271	-0.000339	-0.080199	-0.747350	-0.133802	-0.645858	117.576367	-70.717723	66.830372
40241		9.563399	3.555221	-0.396476	1.240160	-0.476146	0.311036	0.344174	-0.864768	-0.419045	-0.763184	-0.211182	0.495117	0.095724	0.035358	-0.003490	-0.080832	-0.750023	-0.136099	-0.642191	118.704431	-70.273251	65.842139
40242		9.606267	4.237497	-0.967654	0.844557	-1.094625	0.640098	0.186537	-0.888190	-0.400726	-0.760986	-0.206787	0.505127	0.096189	0.042191	-0.009210	-0.082009	-0.752700	-0.137812	-0.638533	119.742684	-69.825224	64.851171
40243		9.866605	3.792160	-1.527589	0.378193	-0.573249	0.845238	0.094741	-0.895424	-0.379355	-0.746582	-0.215576	0.510010	0.098805	0.037741	-0.014816	-0.083468	-0.755359	-0.139142	-0.634905	120.711017	-69.379867	63.875462
40244		10.044517	3.335822	-1.718917	0.263341	-0.047260	0.906557	0.132794	-0.897156	-0.380998	-0.749512	-0.219482	0.515137	0.100584	0.033178	-0.016716	-0.084785	-0.758020	-0.140598	-0.631228	121.661054	-68.927534	62.940163
40245		10.061098	3.009672	-2.019899	0.032264	0.298529	0.877152	0.212772	-0.904422	-0.383464	-0.729736	-0.218262	0.530029	0.100758	0.029925	-0.019712	-0.085814	-0.760718	-0.142305	-0.627450	122.623812	-68.466274	62.036850
40246		9.896291	2.910597	-2.215695	-0.099021	0.374283	0.730868	0.323676	-0.921182	-0.385428	-0.729248	-0.217773	0.530029	0.099119	0.028950	-0.021654	-0.086433	-0.763493	-0.144360	-0.623513	123.629118	-67.993284	61.153903
40247		9.676421	2.351710	-1.933745	0.174647	0.885681	0.291130	0.428437	-0.931948	-0.396817	-0.732666	-0.212646	0.545166	0.096899	0.023366	-0.018836	-0.086697	-0.766318	-0.146772	-0.619434	124.657730	-67.505667	60.306982
40248		10.030833	2.011105	-1.407105	0.817286	1.391741	0.387124	0.522636	-0.947342	-0.389255	-0.720215	-0.214844	0.554199	0.100412	0.019952	-0.013543	-0.086581	-0.769211	-0.149440	-0.615212	125.723363	-67.010760	59.476080
40249		10.061618	2.935571	-1.073951	1.369004	0.592096	0.617133	0.500147	-0.981307	-0.378206	-0.709961	-0.214600	0.553955	0.100722	0.029191	-0.010172	-0.086541	-0.772182	-0.151975	-0.610860	126.781442	-66.503664	58.636054
40250		9.704139	3.452427	-1.249473	1.302669	0.018840	0.480624	0.351960	-1.036818	-0.357493	-0.699707	-0.211182	0.568604	0.097166	0.034372	-0.011931	-0.087048	-0.775247	-0.153950	-0.606394	127.788846	-65.980768	57.755574
40251		9.981586	3.344225	-1.392861	1.322498	0.252423	0.720213	0.197021	-1.089908	-0.359614	-0.691406	-0.220703	0.571777	0.099950	0.033276	-0.013351	-0.088202	-0.778378	-0.155432	-0.601821	128.718870	-65.432247	56.858551
40252		10.439153	3.033861	-1.390715	1.503440	0.750005	1.017366	0.107170	-1.142925	-0.369629	-0.681396	-0.220703	0.580811	0.104525	0.030153	-0.013294	-0.089772	-0.781594	-0.156657	-0.597085	129.600790	-64.854242	55.954133
40253		10.479838	3.000678	-1.462014	1.562383	0.841865	1.041678	0.049799	-1.197976	-0.365033	-0.681885	-0.215576	0.587158	0.104938	0.029819	-0.013984	-0.091595	-0.784922	-0.157656	-0.592159	130.463640	-64.252334	55.029303
40254		10.542027	2.576541	-1.429740	1.675555	1.310810	0.924620	0.045468	-1.220514	-0.357047	-0.668213	-0.224365	0.593018	0.105551	0.025580	-0.013648	-0.093423	-0.788289	-0.158600	-0.587127	131.309598	-63.639486	54.116523
40255		10.456419	2.226971	-1.300992	1.854072	1.660178	0.665542	0.080827	-1.236549	-0.386432	-0.658936	-0.222168	0.607178	0.104685	0.022073	-0.012354	-0.095208	-0.791664	-0.159746	-0.581967	132.126968	-63.002402	53.253069
40256		9.994186	2.160257	-1.177745	1.962766	1.608717	0.162056	0.168103	-1.270046	-0.428518	-0.650635	-0.225830	0.614990	0.100060	0.021398	-0.011124	-0.096790	-0.795109	-0.161293	-0.576557	132.951157	-62.328890	52.433579
40257		9.873782	2.086673	-1.189793	2.033523	1.684315	-0.000065	0.260380	-1.297197	-0.471929	-0.646973	-0.224854	0.617676	0.098861	0.020648	-0.011230	-0.098150	-0.798603	-0.163254	-0.570918	133.777822	-61.621513	51.665458
40258		10.142242	1.981836	-1.127752	2.287607	1.938796	0.140732	0.391030	-1.332549	-0.515373	-0.633789	-0.226074	0.634521	0.101545	0.019578	-0.010563	-0.099135	-0.802186	-0.165739	-0.564978	134.635158	-60.876698	50.942986
40259		10.171345	1.809758	-0.771580	2.741549	2.177784	-0.062514	0.538234	-1.363689	-0.558914	-0.612549	-0.229004	0.640381	0.101813	0.017833	-0.006974	-0.099672	-0.805846	-0.168786	-0.558739	135.527951	-60.096779	50.270925
40260		10.210795	1.492407	-0.346362	3.239293	2.559525	-0.349014	0.693827	-1.412735	-0.599849	-0.614014	-0.228027	0.649414	0.102173	0.014628	-0.002691	-0.099731	-0.809633	-0.172400	-0.552111	136.474574	-59.274777	49.634742
40261		10.326613	1.454583	-0.035684	3.701307	2.714419	-0.448623	0.819563	-1.463719	-0.642195	-0.593262	-0.218506	0.664795	0.103311	0.014213	0.000458	-0.099437	-0.813524	-0.176488	-0.545108	137.455545	-58.410023	49.036255
40262		10.540894	1.685738	0.311854	4.283708	2.671315	-0.402041	0.889290	-1.522980	-0.706283	-0.580078	-0.213135	0.671631	0.105439	0.016469	0.003995	-0.099075	-0.817486	-0.180988	-0.537721	138.428359	-57.489872	48.489534
40263		10.625450	1.438773	0.639291	4.716693	3.024976	-0.648745	0.892544	-1.591352	-0.788224	-0.555420	-0.213379	0.690430	0.106254	0.013938	0.007301	-0.098972	-0.821480	-0.185777	-0.529965	139.347823	-56.505295	48.002441
40264		10.708717	1.127412	0.232034	4.466303	3.422038	-0.629028	0.862104	-1.655964	-0.906576	-0.545410	-0.206055	0.698242	0.107112	0.010776	0.003254	-0.099358	-0.825436	-0.190924	-0.521853	140.171098	-55.444113	47.604960
40265		10.680549	1.532891	-0.120016	4.379610	3.135824	-0.462836	0.832089	-1.701608	-1.038934	-0.524658	-0.215576	0.701660	0.106888	0.014776	-0.000229	-0.100246	-0.829276	-0.196489	-0.513462	140.883779	-54.312432	47.315757
40266		10.790501	1.751521	-0.394070	4.388851	3.095421	-0.283275	0.828400	-1.745237	-1.136725	-0.520996	-0.212402	0.718750	0.108031	0.016915	-0.002927	-0.101430	-0.833031	-0.202410	-0.504778	141.528351	-53.123495	47.104821
40267		11.124384	1.556484	-0.621077	4.446055	3.540775	-0.104419	0.858437	-1.803369	-1.226847	-0.493652	-0.211914	0.729004	0.111386	0.014905	-0.005142	-0.102764	-0.836746	-0.208717	-0.495715	142.139307	-51.876093	46.953555
40268		11.337472	1.837677	-0.732121	4.683658	3.526867	0.090325	0.935087	-1.877456	-1.318076	-0.478027	-0.218018	0.735840	0.113554	0.017659	-0.006172	-0.104064	-0.840467	-0.215537	-0.486137	142.753205	-50.561346	46.853194
40269		11.466294	2.517389	-1.268133	4.646330	3.123321	0.583011	0.985175	-1.961060	-1.369308	-0.451416	-0.215088	0.742920	0.114948	0.024446	-0.011434	-0.105354	-0.844227	-0.222602	-0.476056	143.381122	-49.191143	46.768598
40270		11.770971	3.592624	-1.878507	4.777109	2.473224	1.414298	0.973701	-2.039782	-1.383645	-0.442383	-0.204102	0.762207	0.118137	0.035197	-0.017409	-0.106794	-0.848008	-0.229634	-0.465559	144.005594	-47.778146	46.679544
40271		12.157789	4.654244	-2.610846	4.895202	1.897870	2.382198	0.911371	-2.084021	-1.382964	-0.417725	-0.207031	0.767090	0.122158	0.045814	-0.024628	-0.108530	-0.851709	-0.236440	-0.454872	144.590832	-46.345484	46.591687
40272		12.328398	5.122054	-3.247726	4.856266	1.754748	2.919142	0.802380	-2.088439	-1.343272	-0.393555	-0.207275	0.776855	0.123954	0.050516	-0.030982	-0.110624	-0.855261	-0.242799	-0.444229	145.117275	-44.922100	46.498222
40273		11.992972	5.570967	-3.700571	4.730366	1.378857	3.004252	0.658772	-2.043838	-1.259303	-0.373291	-0.198242	0.783447	0.120646	0.055070	-0.035593	-0.113078	-0.858596	-0.248450	-0.433935	145.570212	-43.547944	46.387831
40274		11.311728	5.789163	-4.446145	4.114188	1.002801	2.966106	0.511662	-1.940994	-1.152098	-0.351318	-0.196777	0.794922	0.113872	0.057349	-0.043212	-0.115782	-0.861634	-0.253358	-0.424253	145.943117	-42.255176	46.270519
40275		10.493095	5.654180	-5.266507	3.227226	0.834874	2.784641	0.347028	-1.781743	-1.044954	-0.329346	-0.207031	0.798096	0.105688	0.056081	-0.051628	-0.118754	-0.864268	-0.257504	-0.415487	146.211259	-41.073420	46.164251
40276		9.328605	5.556294	-6.190604	2.060922	0.430101	2.507290	0.232326	-1.603385	-0.964819	-0.318115	-0.203857	0.803955	0.094045	0.055182	-0.061090	-0.121813	-0.866482	-0.261159	-0.407635	146.391784	-40.000360	46.091108
40277		8.376266	5.518970	-6.673483	1.336945	0.074345	2.160610	0.197154	-1.403227	-0.913079	-0.304688	-0.206787	0.801514	0.084479	0.054870	-0.066090	-0.124654	-0.868266	-0.264595	-0.400704	146.515476	-39.040599	46.070783
40278		7.310521	5.253167	-7.213368	0.396134	-0.176094	1.714750	0.169869	-1.198269	-0.848142	-0.282959	-0.214111	0.811279	0.073758	0.052281	-0.071649	-0.127197	-0.869653	-0.267830	-0.394705	146.595647	-38.197828	46.098061
40279		6.235005	5.342074	-8.141855	-0.741206	-0.739955	1.702696	0.105434	-1.033371	-0.797311	-0.269043	-0.220215	0.817627	0.062982	0.053213	-0.081066	-0.129702	-0.870701	-0.270780	-0.389531	146.616499	-37.451438	46.158398
40280		4.975129	5.496053	-8.621798	-1.638668	-1.484938	1.340892	0.099751	-0.837569	-0.724025	-0.261475	-0.215576	0.811523	0.050310	0.054822	-0.085981	-0.131810	-0.871429	-0.273545	-0.385241	146.615559	-36.820387	46.254406
40281		3.989812	3.841093	-8.088671	-2.337896	-0.651494	-0.314868	0.172443	-0.546086	-0.497394	-0.248535	-0.215088	0.813721	0.040214	0.038381	-0.080744	-0.132777	-0.871939	-0.275614	-0.382270	146.668620	-36.401585	46.325756
40282		4.454910	2.286536	-7.384082	-2.101739	0.889247	-1.187668	0.377663	-0.276157	-0.248165	-0.246338	-0.206543	0.815430	0.044679	0.022949	-0.073736	-0.131986	-0.872397	-0.277199	-0.380346	146.865459	-36.189218	46.358551
40283		5.837482	2.242894	-6.353422	-0.559570	1.701367	-1.079710	0.582599	0.012173	-0.135121	-0.253174	-0.209961	0.823486	0.058386	0.022574	-0.063472	-0.129682	-0.872589	-0.278863	-0.379481	147.152592	-36.152357	46.436698
40284		5.227426	2.660268	-5.595805	-0.168396	0.964377	-1.765481	0.554028	0.318081	0.049371	-0.244141	-0.194336	0.813477	0.052179	0.026771	-0.055967	-0.126728	-0.872435	-0.279870	-0.380093	147.419380	-36.318837	46.522153
40285		4.110012	2.903882	-5.279796	-0.468939	0.065963	-2.534194	0.401688	0.606128	0.298629	-0.254883	-0.191895	0.808594	0.040896	0.029206	-0.052864	-0.123556	-0.871971	-0.279673	-0.382340	147.621985	-36.703096	46.567552
40286		3.552642	3.493165	-5.216953	-0.528996	-0.791867	-2.661972	0.147174	0.870462	0.500283	-0.260010	-0.196045	0.806396	0.035211	0.035058	-0.052297	-0.120740	-0.871111	-0.278273	-0.386201	147.691945	-37.275625	46.591208
40287		3.219453	3.866910	-5.269929	-0.662207	-1.347880	-2.682893	-0.171590	1.126084	0.653588	-0.271484	-0.196533	0.812012	0.031771	0.038728	-0.052912	-0.118654	-0.869746	-0.275730	-0.391709	147.575012	-38.020439	46.620820
40288		3.144998	3.586312	-5.427360	-1.015805	-1.219107	-2.763600	-0.523269	1.351527	0.782187	-0.283936	-0.208252	0.797119	0.030942	0.035842	-0.054578	-0.117531	-0.867863	-0.272063	-0.398726	147.248279	-38.912111	46.663875
40289		3.357832	3.238993	-5.685456	-1.342925	-0.871978	-2.634593	-0.756710	1.579295	0.891545	-0.301514	-0.197266	0.798340	0.032983	0.032322	-0.057239	-0.116880	-0.865463	-0.267561	-0.407091	146.765951	-39.948611	46.739804
40290		3.634538	2.732613	-5.641929	-1.483770	-0.357260	-2.729106	-0.853482	1.811312	1.011087	-0.310059	-0.203613	0.790039	0.035694	0.027266	-0.056861	-0.116084	-0.862602	-0.262457	-0.416603	146.204746	-41.131674	46.850641
40291		3.944645	2.113260	-5.675990	-1.716455	0.259919	-2.796512	-0.868121	2.045168	1.162308	-0.329590	-0.224121	0.785156	0.038740	0.021111	-0.057250	-0.114710	-0.859318	-0.256764	-0.427183	145.617781	-42.474828	46.984207
40292		4.169033	1.675459	-5.749143	-1.966662	0.663129	-2.817677	-0.772275	2.297634	1.314385	-0.357422	-0.228760	0.769043	0.040915	0.016802	-0.058029	-0.112259	-0.855600	-0.250728	-0.438727	145.059107	-43.983990	47.153606
40293		4.342775	1.668647	-5.782089	-2.076116	0.654854	-2.718055	-0.618101	2.546652	1.443716	-0.371826	-0.222900	0.752441	0.042565	0.016816	-0.058418	-0.108547	-0.851414	-0.244527	-0.451130	144.545651	-45.652305	47.374046
40294		4.527246	1.957056	-5.581661	-1.909826	0.382948	-2.623644	-0.460181	2.778681	1.544210	-0.404053	-0.229248	0.743408	0.044339	0.019786	-0.056482	-0.103609	-0.846702	-0.238360	-0.464268	144.065915	-47.459676	47.671395
40295		4.611176	2.121624	-5.644346	-2.063383	0.133513	-2.509123	-0.383333	2.981456	1.642831	-0.428955	-0.222168	0.730713	0.045087	0.021480	-0.057162	-0.097843	-0.841441	-0.231987	-0.478107	143.571932	-49.393783	48.037430
40296		4.757925	2.314220	-5.893250	-2.358833	-0.140531	-2.254026	-0.348570	3.162626	1.707279	-0.455078	-0.217529	0.719238	0.046440	0.023438	-0.059714	-0.091540	-0.835582	-0.225449	-0.492541	143.017806	-51.429485	48.497045
40297		5.043802	2.611442	-6.192728	-2.639595	-0.469763	-1.849462	-0.354707	3.333518	1.783685	-0.489014	-0.212891	0.702148	0.049161	0.026446	-0.062801	-0.084869	-0.829103	-0.218543	-0.507567	142.372021	-53.567412	49.049803
40298		5.515254	2.617514	-6.340285	-2.831172	-0.474488	-1.492955	-0.337986	3.493962	1.848706	-0.516357	-0.216553	0.688477	0.053789	0.026568	-0.064395	-0.077738	-0.821979	-0.211431	-0.523072	141.624985	-55.795471	49.727686
40299		5.970928	2.224280	-6.310079	-3.007522	-0.137268	-1.366301	-0.307240	3.625897	1.904049	-0.545166	-0.205566	0.660889	0.058337	0.022704	-0.064201	-0.070185	-0.814250	-0.204103	-0.538900	140.762560	-58.097483	50.541467
40300		6.500322	1.815270	-6.563661	-3.442703	0.191978	-1.053159	-0.224103	3.727047	1.946597	-0.573486	-0.188477	0.645752	0.063585	0.018702	-0.066851	-0.062027	-0.805965	-0.196808	-0.554833	139.791133	-60.451368	51.521768
40301		7.234091	2.145254	-6.608362	-3.473086	-0.088888	-0.404225	-0.061145	3.807361	1.989992	-0.600342	-0.182129	0.614746	0.070847	0.022142	-0.067449	-0.053003	-0.797190	-0.189695	-0.570697	138.728455	-62.847939	52.684701
40302		7.989193	2.520450	-6.406858	-3.301216	-0.420128	0.194101	0.030843	3.838986	2.018909	-0.627441	-0.169922	0.594482	0.078383	0.026011	-0.065579	-0.043457	-0.788003	-0.182681	-0.586337	137.510446	-65.256794	54.058448
40303		8.794795	2.755012	-6.478018	-3.448551	-0.684268	0.888839	0.089421	3.847352	1.993107	-0.657471	-0.163086	0.572998	0.086400	0.028446	-0.066440	-0.033747	-0.778413	-0.175827	-0.601681	136.018413	-67.644939	55.737295
40304		9.473999	3.353492	-6.050510	-3.106077	-1.288387	1.424862	0.152616	3.816791	1.954031	-0.690430	-0.150879	0.544434	0.093229	0.034498	-0.062268	-0.023901	-0.768527	-0.169258	-0.616560	134.184617	-69.983758	57.797207
40305		10.055334	3.963167	-5.450784	-2.640925	-1.919854	1.842616	0.107827	3.734621	1.872970	-0.718750	-0.144043	0.531250	0.099135	0.040595	-0.056346	-0.014557	-0.758479	-0.162748	-0.630881	131.829064	-72.228495	60.347368
40306		10.531321	4.095075	-4.976486	-2.440304	-2.146642	2.097847	-0.017208	3.599130	1.695691	-0.730957	-0.129639	0.496826	0.104043	0.041832	-0.051648	-0.006330	-0.748388	-0.156468	-0.644510	128.693177	-74.303063	63.610885
40307		10.761135	4.442709	-4.566000	-2.292540	-2.628215	2.195941	-0.185609	3.404839	1.474118	-0.751709	-0.124512	0.479980	0.106482	0.045171	-0.047521	0.000379	-0.738470	-0.150381	-0.657303	124.582772	-76.146574	67.746710
40308		10.499629	5.609743	-4.101811	-1.947902	-3.959840	1.979101	-0.404828	3.166874	1.351208	-0.764893	-0.117920	0.459717	0.103946	0.056717	-0.042784	0.005720	-0.729002	-0.144009	-0.669168	119.509349	-77.767573	72.715578
40309		9.923636	6.254802	-3.905580	-1.976008	-4.875434	1.375107	-0.739230	2.898107	1.345353	-0.788086	-0.106445	0.427734	0.098231	0.063063	-0.040717	0.009570	-0.720240	-0.136438	-0.680108	113.505924	-79.202052	78.399021
40310		9.467256	5.486878	-3.741927	-2.292142	-4.377423	0.642467	-1.049299	2.607588	1.334780	-0.797852	-0.107178	0.409424	0.093803	0.055295	-0.038935	0.012123	-0.712281	-0.127899	-0.690037	106.577472	-80.436223	84.826726
40311		9.342853	4.239628	-3.579192	-2.647748	-3.320172	0.188911	-1.192598	2.297978	1.274828	-0.811523	-0.109131	0.393311	0.092735	0.042770	-0.037114	0.013699	-0.705207	-0.119003	-0.698808	98.876763	-81.443671	91.921916
40312		9.225998	3.303829	-3.492518	-2.961054	-2.547221	-0.170573	-1.173851	1.980257	1.195317	-0.821533	-0.099121	0.374268	0.091708	0.033378	-0.036030	0.014930	-0.699055	-0.110519	-0.706318	90.755712	-82.226318	99.446118
40313		8.906922	2.705720	-3.247937	-3.000780	-2.076930	-0.654011	-1.078092	1.675442	1.118469	-0.829102	-0.093750	0.364990	0.088640	0.027375	-0.033370	0.015993	-0.693832	-0.102584	-0.712614	82.580947	-82.815818	107.057425
40314		8.614736	2.351858	-2.826352	-2.777256	-1.791222	-1.048598	-0.968910	1.384764	0.997797	-0.841553	-0.091309	0.340820	0.085830	0.023808	-0.028973	0.016914	-0.689488	-0.095532	-0.717770	74.782242	-83.226091	114.354716
40315		8.374753	2.280045	-2.364146	-2.434348	-1.753046	-1.331908	-0.846550	1.105302	0.862399	-0.839600	-0.088379	0.334717	0.083516	0.023059	-0.024201	0.017574	-0.686021	-0.089340	-0.721862	67.804793	-83.496654	120.880572
40316		8.371728	2.469863	-2.149490	-2.282724	-1.975218	-1.345509	-0.733162	0.842592	0.737009	-0.851074	-0.084961	0.326660	0.083534	0.024927	-0.021938	0.018114	-0.683393	-0.084067	-0.724968	61.922928	-83.679515	126.376548
40317		8.278469	2.942223	-2.078509	-2.209379	-2.493369	-1.421555	-0.652952	0.599898	0.597851	-0.857666	-0.082275	0.317871	0.082633	0.029601	-0.021130	0.018259	-0.681558	-0.079519	-0.727201	57.281773	-83.806885	130.658894
40318		7.917575	3.385863	-2.052812	-2.151925	-2.995541	-1.765218	-0.629982	0.382244	0.413030	-0.853027	-0.088867	0.318359	0.079066	0.033957	-0.020786	0.017784	-0.680418	-0.075763	-0.728680	54.023513	-83.884553	133.572853
40319		7.535559	3.745609	-2.167585	-2.232285	-3.414720	-2.140066	-0.673015	0.181654	0.226741	-0.854980	-0.085449	0.318359	0.075293	0.037468	-0.021870	0.016410	-0.679930	-0.072500	-0.729499	52.141318	-83.931839	135.077741
40320		7.437853	3.867363	-2.445918	-2.519438	-3.576771	-2.254929	-0.785083	0.002262	0.043020	-0.848877	-0.084473	0.307861	0.074370	0.038593	-0.024612	0.013918	-0.680031	-0.069467	-0.729753	51.553203	-83.956364	135.216678
40321		7.455170	3.579530	-2.648275	-2.781125	-3.294733	-2.275054	-0.854284	-0.151667	-0.113847	-0.845703	-0.096191	0.308350	0.074592	0.035639	-0.026579	0.010565	-0.680631	-0.066725	-0.729505	52.105053	-83.964728	134.169406
40322		7.463761	3.188703	-2.715611	-2.906302	-2.879564	-2.295277	-0.861585	-0.294957	-0.234804	-0.841064	-0.096191	0.315430	0.074715	0.031682	-0.027183	0.006697	-0.681700	-0.064373	-0.728764	53.669979	-83.965328	132.099223
40323		7.228701	3.446866	-3.198963	-3.351007	-3.157815	-2.521112	-0.821301	-0.425578	-0.321283	-0.840576	-0.098877	0.318848	0.072410	0.034221	-0.031977	0.002610	-0.683200	-0.062468	-0.727550	56.105911	-83.960824	129.176419
40324		6.979679	3.639868	-3.385402	-3.502423	-3.333895	-2.738555	-0.772916	-0.538254	-0.384318	-0.844238	-0.106689	0.319580	0.069957	0.036134	-0.033806	-0.001577	-0.685073	-0.060952	-0.725919	59.255737	-83.945362	125.563521
40325		6.754693	3.638120	-3.394864	-3.491271	-3.296055	-2.932747	-0.722001	-0.626021	-0.419987	-0.834717	-0.116943	0.324219	0.067729	0.036117	-0.033868	-0.005746	-0.687236	-0.059743	-0.723950	62.915386	-83.913677	121.467189
40326		6.710284	3.841053	-3.659331	-3.724970	-3.463604	-2.935195	-0.707888	-0.699634	-0.450031	-0.843262	-0.109863	0.326904	0.067317	0.038130	-0.036493	-0.009996	-0.689637	-0.058683	-0.721705	66.946413	-83.855353	117.005069
40327		6.705030	4.240177	-3.998389	-4.022357	-3.820885	-2.874057	-0.718522	-0.734646	-0.480427	-0.836914	-0.119385	0.329834	0.067298	0.042097	-0.039889	-0.014404	-0.692134	-0.057688	-0.719316	71.098273	-83.753994	112.414737
40328		6.551751	4.414185	-4.269785	-4.263921	-3.958145	-2.972148	-0.718842	-0.740085	-0.509610	-0.832764	-0.124512	0.320801	0.065787	0.043821	-0.042613	-0.018918	-0.694618	-0.056788	-0.716884	75.148122	-83.602536	107.925618
40329		6.338833	4.403781	-4.661515	-4.638300	-3.918826	-3.146947	-0.719853	-0.717227	-0.553755	-0.822266	-0.136475	0.333252	0.063677	0.043694	-0.046545	-0.023650	-0.696992	-0.055981	-0.714499	78.913581	-83.389823	103.710723
40330		7.691062	3.534789	-0.880743	-0.924971	-2.665377	-1.783813	-0.620537	-0.527685	-0.527933	-0.818604	-0.136230	0.341553	0.077027	0.035118	-0.008713	-0.027827	-0.698681	-0.055517	-0.712733	81.553246	-83.147401	100.694606
40331		13.001481	-2.221786	4.873579	4.515242	3.920382	2.914044	-0.764833	-0.147226	-0.210759	-0.821533	-0.137451	0.344482	0.129955	-0.022168	0.048916	-0.031273	-0.699070	-0.053487	-0.712364	81.988367	-83.043852	99.814976
40332		20.058751	-8.024492	4.785739	4.143679	10.474912	9.233434	-0.841698	0.167267	0.191549	-0.822266	-0.133789	0.343994	0.200704	-0.079851	0.048026	-0.033468	-0.698420	-0.049820	-0.713167	80.622502	-83.142250	100.704908
40333		20.719339	-5.185141	3.136747	2.571529	7.617396	10.221730	-0.986446	0.177532	0.223953	-0.823730	-0.135742	0.333008	0.207279	-0.051464	0.031438	-0.036113	-0.697707	-0.045466	-0.714027	79.067041	-83.254892	101.692178
40334		14.933819	-1.630638	-0.555296	-0.921798	3.323613	4.819132	-1.090082	0.010583	0.118392	-0.828125	-0.145996	0.332031	0.149348	-0.016248	-0.005472	-0.039470	-0.697521	-0.041138	-0.714293	78.313591	-83.324804	101.821812
40335		10.450971	-1.583743	-3.142457	-3.379089	2.761823	0.314508	-0.719964	-0.128868	0.022244	-0.829102	-0.143555	0.327148	0.104532	-0.015939	-0.031300	-0.041970	-0.697876	-0.038378	-0.713957	78.536974	-83.356663	101.171503
40336		8.844052	-2.260040	-2.444208	-2.612328	3.266604	-1.338956	-0.364289	-0.247402	-0.081812	-0.822021	-0.148438	0.326904	0.088461	-0.022681	-0.024291	-0.043560	-0.698697	-0.037286	-0.713116	79.633421	-83.342033	99.857358
40337		9.794347	-0.161547	-2.416020	-2.588946	1.319346	-0.150964	-0.301156	-0.378994	-0.350804	-0.823730	-0.152588	0.338135	0.097986	-0.001824	-0.023972	-0.045975	-0.699953	-0.037269	-0.711733	81.592098	-83.183622	97.701173
40338		11.101500	1.553958	-2.286577	-2.458692	-0.173586	1.359176	-0.313325	-0.479885	-0.606540	-0.820557	-0.159668	0.335449	0.111116	0.015167	-0.022623	-0.049299	-0.701501	-0.038141	-0.709937	84.036015	-82.877421	95.058085
40339		10.913992	2.317876	-2.025728	-2.156459	-0.877906	1.285485	-0.317535	-0.540734	-0.714710	-0.807373	-0.159668	0.340332	0.109276	0.022757	-0.019998	-0.053094	-0.703237	-0.039299	-0.707881	86.562548	-82.498705	92.317286
40340		10.143668	4.521054	-1.803893	-1.926948	-3.081951	0.835111	-0.389482	-0.553695	-0.721030	-0.806641	-0.165771	0.352051	0.101648	0.044809	-0.017845	-0.057103	-0.704974	-0.040283	-0.705782	88.841931	-82.102428	89.791864
40341		9.376396	6.052471	-1.515841	-1.648840	-4.632887	0.319643	-0.623085	-0.525390	-0.610446	-0.803467	-0.178955	0.335693	0.093988	0.060191	-0.015100	-0.061601	-0.706557	-0.039998	-0.703834	90.657994	-81.757553	87.586964
40342		9.103550	5.500804	-1.228018	-1.340796	-4.071386	-0.001099	-0.898254	-0.471945	-0.456903	-0.796143	-0.183594	0.347656	0.091190	0.054745	-0.012311	-0.066455	-0.707871	-0.038279	-0.702166	91.972765	-81.493173	85.737685
40343		9.509788	4.379401	-0.892546	-0.961648	-2.864753	0.251112	-1.022923	-0.392554	-0.380836	-0.804932	-0.188965	0.338867	0.095199	0.043567	-0.008962	-0.071529	-0.708863	-0.035818	-0.700795	92.846638	-81.268882	84.250998
40344		9.966185	3.121423	-0.555867	-0.555853	-1.523723	0.519118	-0.884812	-0.293587	-0.417937	-0.796387	-0.196777	0.356934	0.099735	0.030981	-0.005550	-0.076161	-0.709522	-0.034066	-0.699727	93.367392	-81.024068	83.210758
40345		9.601135	1.735370	-0.957623	-0.873089	-0.139997	-0.049070	-0.552343	-0.204091	-0.477817	-0.803955	-0.198730	0.351318	0.096062	0.017098	-0.009526	-0.079869	-0.709978	-0.033665	-0.698870	93.709345	-80.746584	82.533901
40346		9.013066	1.021370	-1.668890	-1.536243	0.563387	-0.736007	-0.101770	-0.106917	-0.463564	-0.796143	-0.200439	0.354736	0.090163	0.009996	-0.016646	-0.081847	-0.710261	-0.034885	-0.698293	93.944617	-80.480840	82.236200
40347		8.632054	0.696793	-1.952601	-1.796555	0.875944	-1.163088	0.324646	-0.030921	-0.423415	-0.798096	-0.209473	0.352051	0.086338	0.006817	-0.019502	-0.082220	-0.710465	-0.037422	-0.697911	94.168312	-80.240527	82.187961
40348		8.887631	0.482365	-1.484156	-1.303962	1.127645	-0.955294	0.624088	0.009751	-0.415280	-0.800293	-0.202393	0.355957	0.088885	0.004685	-0.014831	-0.081430	-0.710636	-0.041052	-0.697625	94.421185	-80.006989	82.294104
40349		9.713749	0.337715	-0.863230	-0.652670	1.406186	-0.178753	0.828080	0.021936	-0.433460	-0.799561	-0.203369	0.353516	0.097144	0.003202	-0.008629	-0.080037	-0.710840	-0.045402	-0.697309	94.747687	-79.763348	82.434375
40350		10.273400	0.886957	-0.172829	0.030310	0.969217	0.454680	0.902744	0.015103	-0.458634	-0.790283	-0.201660	0.356689	0.102754	0.008642	-0.001697	-0.078403	-0.711067	-0.050158	-0.696937	95.122607	-79.505545	82.578915
40351		10.080525	1.956235	0.298001	0.470392	-0.089220	0.449046	0.805577	-0.015761	-0.465193	-0.791748	-0.201172	0.363525	0.100850	0.019316	0.003066	-0.077173	-0.711351	-0.054565	-0.696453	95.531945	-79.241575	82.627989
40352		9.577850	3.602268	0.237481	0.373550	-1.748730	0.265511	0.503294	-0.093955	-0.475766	-0.793701	-0.204834	0.361328	0.095863	0.035789	0.002510	-0.077046	-0.711770	-0.057947	-0.695766	95.983728	-78.968136	82.461438
40353		9.205534	4.428936	0.523491	0.653335	-2.593574	0.060393	0.022329	-0.159877	-0.447213	-0.794678	-0.214844	0.370117	0.092150	0.044083	0.005313	-0.078578	-0.712241	-0.059508	-0.694980	96.348881	-78.705703	82.098329
40354		9.454484	4.370389	-0.142938	0.005086	-2.427732	0.317168	-0.456495	-0.201241	-0.378003	-0.788818	-0.210205	0.364014	0.094629	0.043522	-0.001434	-0.081558	-0.712677	-0.059162	-0.694219	96.560677	-78.480648	81.615305
40355		9.677142	4.262669	-0.608282	-0.454562	-2.222667	0.533345	-0.740997	-0.198625	-0.350267	-0.791748	-0.216309	0.371826	0.096852	0.042434	-0.006144	-0.085484	-0.712992	-0.057710	-0.693545	96.602811	-78.270223	81.134691
40356		9.660465	2.971526	-0.986988	-0.792564	-0.905433	0.270992	-0.706454	-0.164701	-0.346302	-0.794189	-0.225586	0.364258	0.096664	0.029513	-0.009895	-0.089231	-0.713187	-0.056396	-0.692980	96.562170	-78.065400	80.762521
40357		9.421276	1.316149	-0.710797	-0.450418	0.689142	-0.309003	-0.351852	-0.100177	-0.351592	-0.786865	-0.221680	0.370605	0.094239	0.012983	-0.007084	-0.091743	-0.713314	-0.056341	-0.692526	96.548095	-77.860652	80.566793
40358		9.336662	1.364527	-0.680929	-0.418118	0.655834	-0.384336	0.170796	-0.034241	-0.352536	-0.788086	-0.222900	0.375977	0.093392	0.013486	-0.006782	-0.092345	-0.713441	-0.058146	-0.692165	96.653123	-77.660849	80.559318
40359		9.358683	2.994239	-0.417508	-0.213731	-0.913630	-0.022681	0.602800	0.010587	-0.338226	-0.797852	-0.224121	0.373535	0.093637	0.029796	-0.004090	-0.091370	-0.713618	-0.061399	-0.691831	96.894774	-77.471133	80.661918
40360		9.237972	4.574070	-0.306662	-0.142202	-2.459157	0.201726	0.772472	0.043284	-0.290229	-0.790771	-0.217529	0.374023	0.092445	0.045618	-0.002910	-0.089585	-0.713758	-0.065098	-0.691583	97.160099	-77.312190	80.843429
40361		9.466409	5.685733	-0.545964	-0.374199	-3.462097	0.680751	0.676502	0.068469	-0.249052	-0.797119	-0.222656	0.376709	0.094733	0.056757	-0.005300	-0.088016	-0.713777	-0.068315	-0.691454	97.323046	-77.177514	81.070478
40362		9.862825	5.514907	-0.895568	-0.681295	-3.180357	1.046073	0.399241	0.084140	-0.173598	-0.802734	-0.216797	0.379395	0.098672	0.055081	-0.008887	-0.087144	-0.713632	-0.070324	-0.691512	97.310309	-77.088034	81.318045
40363		9.823686	4.282357	-0.728253	-0.484480	-1.978344	0.733647	0.093999	0.083909	-0.132885	-0.792969	-0.219971	0.377930	0.098262	0.042762	-0.007304	-0.087246	-0.713375	-0.071119	-0.691684	97.141379	-77.020359	81.543369
40364		9.699112	3.044997	-0.703049	-0.445581	-0.789022	0.337088	-0.096163	0.073424	-0.104311	-0.795654	-0.225098	0.373047	0.097004	0.030396	-0.007081	-0.087906	-0.713073	-0.071163	-0.691907	96.896851	-76.969245	81.737647
40365		9.968931	1.680667	-0.497828	-0.211938	0.604992	0.288852	-0.109323	0.060248	-0.085381	-0.794434	-0.215576	0.375000	0.099695	0.016761	-0.005017	-0.088579	-0.712825	-0.071074	-0.692086	96.687475	-76.926513	81.884770
40366		9.970720	0.901171	-0.107502	0.189780	1.362426	0.104303	-0.006124	0.041729	-0.090680	-0.797363	-0.217529	0.374512	0.099711	0.008966	-0.001096	-0.088882	-0.712677	-0.071367	-0.692169	96.578800	-76.880765	81.992607
40367		9.745739	0.999875	0.344989	0.631364	1.212315	-0.105481	0.098829	0.021298	-0.102729	-0.793457	-0.217773	0.369141	0.097463	0.009947	0.003444	-0.088882	-0.712649	-0.072046	-0.692127	96.580625	-76.825627	82.046054
40368		9.380279	1.483423	0.727116	0.993971	0.658060	-0.362934	0.124211	-0.014417	-0.095371	-0.800781	-0.208252	0.376709	0.093809	0.014785	0.007287	-0.088757	-0.712752	-0.072782	-0.691961	96.682400	-76.773493	82.014477
40369		8.906174	1.936007	1.144328	1.393961	0.110021	-0.734015	0.117866	-0.063755	-0.131496	-0.799072	-0.222900	0.373047	0.089071	0.019295	0.011483	-0.088816	-0.713015	-0.073593	-0.691597	96.891709	-76.696385	81.866417
40370		8.702092	2.263625	1.438477	1.686479	-0.250443	-0.867707	0.059524	-0.124199	-0.141183	-0.799561	-0.227783	0.378662	0.087028	0.022571	0.014446	-0.089120	-0.713450	-0.074220	-0.691041	97.204020	-76.610433	81.580349
40371		8.900828	2.718376	1.606767	1.868585	-0.639357	-0.577127	-0.014314	-0.181652	-0.150994	-0.800293	-0.219727	0.385010	0.089014	0.027118	0.016147	-0.089766	-0.714053	-0.074588	-0.690295	97.606228	-76.513062	81.155297
40372		9.216502	2.800239	1.310482	1.600724	-0.626868	-0.244653	-0.114795	-0.239014	-0.156600	-0.808594	-0.219971	0.378662	0.092171	0.027938	0.013199	-0.090788	-0.714799	-0.074616	-0.689385	98.075219	-76.408478	80.605108
40373		9.255599	2.217081	1.202124	1.527797	-0.034940	-0.342143	-0.167569	-0.309521	-0.190085	-0.798096	-0.225830	0.392334	0.092558	0.022093	0.012146	-0.092159	-0.715755	-0.074541	-0.688219	98.660717	-76.276772	79.901410
40374		9.222133	1.594826	1.120785	1.486006	0.578336	-0.522661	-0.180436	-0.352156	-0.197457	-0.798340	-0.216064	0.390381	0.092217	0.015867	0.011356	-0.093597	-0.716840	-0.074436	-0.686905	99.319125	-76.136372	79.116860
40375		9.606677	1.699810	0.857528	1.271789	0.589921	-0.120043	-0.146209	-0.392010	-0.195083	-0.795410	-0.228760	0.392334	0.096066	0.016911	0.008751	-0.094937	-0.718080	-0.074414	-0.685427	100.075827	-75.990118	78.248696
40376		9.514355	2.130562	0.352330	0.790402	0.184077	-0.090156	-0.147463	-0.427839	-0.221280	-0.805664	-0.222168	0.397217	0.095159	0.021203	0.003711	-0.096365	-0.719424	-0.074472	-0.683811	100.881451	-75.823596	77.330820
40377		9.406321	2.241035	-0.045363	0.424848	0.085447	-0.152708	-0.184650	-0.460561	-0.233391	-0.800781	-0.232666	0.398926	0.094090	0.022300	-0.000258	-0.097998	-0.720856	-0.074423	-0.682074	101.713760	-75.642397	76.360787
40378		9.411503	2.032010	-0.634941	-0.116432	0.334423	-0.169917	-0.238474	-0.476070	-0.236713	-0.789551	-0.228760	0.398926	0.094154	0.020201	-0.006149	-0.099824	-0.722303	-0.074201	-0.680300	102.523047	-75.455099	75.383821
40379		9.669015	1.815457	-1.350933	-0.764211	0.663071	0.065918	-0.217187	-0.491873	-0.261093	-0.792969	-0.228516	0.403809	0.096747	0.018014	-0.013291	-0.101678	-0.723804	-0.074124	-0.678436	103.344325	-75.247681	74.404257
40380		9.384097	1.797232	-1.493252	-0.878983	0.646133	-0.203797	-0.185325	-0.501705	-0.294591	-0.787842	-0.231934	0.416748	0.093904	0.017820	-0.014714	-0.103515	-0.725330	-0.074277	-0.676509	104.159976	-75.017805	73.450355
40381		9.212740	1.654623	-1.515305	-0.861954	0.772204	-0.401578	-0.116263	-0.508709	-0.300663	-0.788818	-0.235352	0.412109	0.092190	0.016399	-0.014928	-0.105139	-0.726911	-0.074677	-0.674514	105.000639	-74.779075	72.508947
40382		9.502363	2.147236	-1.542613	-0.834395	0.399197	0.007157	-0.037500	-0.496208	-0.312337	-0.783936	-0.235107	0.423584	0.095095	0.021321	-0.015194	-0.106496	-0.728477	-0.075396	-0.672530	105.825431	-74.533237	71.631251
40383		9.638875	2.813341	-1.385567	-0.638934	-0.187805	0.301600	0.008480	-0.488315	-0.320748	-0.779053	-0.236328	0.433105	0.096467	0.027979	-0.013619	-0.107723	-0.730035	-0.076298	-0.670540	106.630992	-74.279802	70.798328
40384		9.564395	3.066671	-1.412078	-0.631566	-0.419980	0.301687	-0.000025	-0.462650	-0.307100	-0.791504	-0.233398	0.423096	0.095723	0.030520	-0.013899	-0.108912	-0.731497	-0.077141	-0.668655	107.363328	-74.036129	70.036925
40385		9.819876	3.370583	-1.656287	-0.813702	-0.603274	0.651909	-0.013362	-0.441919	-0.303846	-0.780762	-0.242188	0.421387	0.098286	0.033555	-0.016348	-0.110140	-0.732883	-0.077935	-0.666842	108.030390	-73.794398	69.333508
40386		9.648368	2.986006	-1.759615	-0.876165	-0.242756	0.398907	0.005938	-0.413199	-0.281242	-0.778076	-0.246094	0.432861	0.096562	0.029725	-0.017396	-0.111199	-0.734183	-0.078728	-0.665140	108.647985	-73.568904	68.693394
40387		9.479409	2.471900	-1.530559	-0.606839	0.220014	0.081515	0.069205	-0.390056	-0.268709	-0.775146	-0.245605	0.432373	0.094857	0.024597	-0.015112	-0.111988	-0.735447	-0.079694	-0.663495	109.252192	-73.351590	68.102967
40388		9.549769	2.527389	-1.314186	-0.343882	0.195881	0.145025	0.166656	-0.379469	-0.268736	-0.776123	-0.241699	0.437988	0.095556	0.025156	-0.012940	-0.112401	-0.736721	-0.080993	-0.661853	109.876235	-73.135526	67.550832
40389		9.320362	2.662218	-0.812806	0.168425	-0.001311	-0.087018	0.227488	-0.381127	-0.284909	-0.768799	-0.250488	0.436279	0.093257	0.026498	-0.007920	-0.112654	-0.738027	-0.082549	-0.660159	110.514012	-72.907718	67.019040
40390		9.096046	2.784080	-0.713355	0.283180	-0.160913	-0.278972	0.264354	-0.399235	-0.298974	-0.771729	-0.252930	0.449463	0.091016	0.027714	-0.006915	-0.112813	-0.739399	-0.084270	-0.658378	111.177726	-72.667927	66.482632
40391		9.058862	2.966952	-0.638466	0.395089	-0.325651	-0.272716	0.238059	-0.407636	-0.313065	-0.769531	-0.252930	0.445557	0.090648	0.029535	-0.006165	-0.113131	-0.740776	-0.085946	-0.656556	111.816211	-72.416029	65.954692
40392		8.905672	3.050539	-0.929380	0.133130	-0.405719	-0.362928	0.204410	-0.440861	-0.328031	-0.764404	-0.246826	0.451904	0.089127	0.030369	-0.009066	-0.113623	-0.742225	-0.087553	-0.654619	112.462464	-72.148305	65.399068
40393		8.780239	2.510491	-0.712855	0.389636	0.092764	-0.661586	0.179140	-0.455694	-0.337053	-0.760254	-0.250732	0.456787	0.087860	0.024963	-0.006906	-0.114256	-0.743703	-0.089098	-0.652620	113.095677	-71.869644	64.839949
40394		9.192355	2.138281	-1.046400	0.168008	0.610999	-0.338259	0.208131	-0.465590	-0.337865	-0.758301	-0.245117	0.460205	0.091984	0.021238	-0.010228	-0.114775	-0.745218	-0.090738	-0.650572	113.741305	-71.587411	64.285482
40395		9.295510	2.134837	-0.892094	0.385647	0.665419	-0.264491	0.243070	-0.470278	-0.376717	-0.757813	-0.253418	0.462646	0.093016	0.021184	-0.008676	-0.115300	-0.746748	-0.092630	-0.648455	114.370157	-71.280886	63.768052
40396		8.910991	1.994900	-0.805315	0.469970	0.716256	-0.685820	0.284725	-0.488179	-0.406308	-0.752686	-0.250244	0.468262	0.089169	0.019779	-0.007807	-0.115764	-0.748333	-0.094759	-0.646234	115.009453	-70.953830	63.264667
40397		9.122812	2.010250	-0.510490	0.845791	0.782728	-0.528345	0.313843	-0.508109	-0.428078	-0.748535	-0.251221	0.478027	0.091283	0.019915	-0.004842	-0.116206	-0.749983	-0.097048	-0.643897	115.661292	-70.607873	62.763834
40398		9.253319	2.748403	-0.598314	0.833281	0.158488	-0.178596	0.287916	-0.537998	-0.443661	-0.743408	-0.257568	0.479492	0.092609	0.027287	-0.005695	-0.116799	-0.751693	-0.099296	-0.641449	116.309182	-70.245472	62.251147
40399		9.076803	3.110306	-0.842456	0.624717	-0.187682	-0.202997	0.189018	-0.568956	-0.460941	-0.742676	-0.258057	0.484375	0.090863	0.030902	-0.008137	-0.117842	-0.753428	-0.101269	-0.638908	116.912201	-69.863527	61.723914
40400		9.292566	2.813953	-1.233040	0.335185	0.220580	-0.033678	0.115424	-0.596535	-0.473081	-0.742432	-0.255127	0.495605	0.093028	0.027927	-0.012037	-0.119204	-0.755187	-0.103038	-0.636290	117.480594	-69.467254	61.188130
40401		9.678601	2.628708	-1.606803	0.095139	0.578662	0.327470	0.097162	-0.613052	-0.488306	-0.733154	-0.262939	0.500000	0.096898	0.026058	-0.015758	-0.120698	-0.756973	-0.104794	-0.633595	118.029944	-69.056204	60.659559
40402		9.538931	2.666061	-1.729779	0.015694	0.552727	0.226482	0.120963	-0.621398	-0.500544	-0.731689	-0.253662	0.496338	0.095509	0.026432	-0.016985	-0.122135	-0.758776	-0.106666	-0.630844	118.573568	-68.635806	60.150827
40403		9.563960	2.418113	-1.694937	0.119954	0.840865	0.160647	0.167025	-0.634220	-0.510160	-0.724121	-0.261230	0.507813	0.095754	0.023951	-0.016626	-0.123438	-0.760634	-0.108710	-0.627998	119.133515	-68.204485	59.651135
40404		9.608589	2.489902	-1.396138	0.492823	0.819580	0.165217	0.250115	-0.654093	-0.534643	-0.718506	-0.265381	0.507080	0.096197	0.024659	-0.013616	-0.124505	-0.762574	-0.111093	-0.625009	119.726665	-67.754331	59.165749
40405		9.341878	2.900469	-1.021902	0.887856	0.374375	-0.025013	0.298023	-0.682582	-0.542914	-0.710449	-0.274170	0.508789	0.093531	0.028766	-0.009857	-0.125434	-0.764617	-0.113638	-0.621863	120.354793	-67.289218	58.670317
40406		9.262022	3.305920	-0.698161	1.273174	-0.001872	-0.036190	0.290235	-0.713603	-0.548733	-0.715088	-0.277344	0.524658	0.092734	0.032815	-0.006603	-0.126421	-0.766728	-0.116159	-0.618590	120.987151	-66.810892	58.164047
40407		9.220348	3.197794	-0.397387	1.636712	0.120925	-0.184376	0.255521	-0.776638	-0.568310	-0.700195	-0.277832	0.526367	0.092308	0.031720	-0.003575	-0.127642	-0.768986	-0.118603	-0.615062	121.634649	-66.301232	57.616989
40408		9.267538	2.709180	-0.648978	1.473063	0.659092	-0.271046	0.240008	-0.842608	-0.569125	-0.700684	-0.278809	0.540283	0.092778	0.026835	-0.006067	-0.128953	-0.771412	-0.120959	-0.611280	122.318661	-65.769476	57.018796
40409		9.682033	2.589675	-0.725328	1.578685	0.969871	0.063564	0.245338	-0.900494	-0.589735	-0.692871	-0.281738	0.539307	0.096927	0.025620	-0.006785	-0.130345	-0.773988	-0.123368	-0.607235	123.025492	-65.206223	56.395686
40410		9.370595	2.477280	-0.699259	1.624836	1.019834	-0.286267	0.278498	-0.962868	-0.635382	-0.687988	-0.283936	0.549805	0.093816	0.024484	-0.006507	-0.131775	-0.776717	-0.126012	-0.602883	123.753753	-64.599018	55.767564
40411		9.434760	2.875514	-0.430552	2.019173	0.715701	-0.175363	0.297050	-1.051200	-0.691303	-0.679688	-0.286133	0.548584	0.094467	0.028435	-0.003767	-0.133357	-0.779662	-0.128864	-0.598111	124.510200	-63.932838	55.116136
40412		10.001287	2.771848	-0.666937	2.043361	1.093375	0.325421	0.301318	-1.118672	-0.706473	-0.662598	-0.289551	0.568604	0.100145	0.027374	-0.006068	-0.135000	-0.782765	-0.131739	-0.593042	125.287139	-63.234345	54.441250
40413		10.722117	2.744968	-0.641704	2.382805	1.451110	0.916939	0.320063	-1.174085	-0.738321	-0.661621	-0.287109	0.576416	0.107357	0.027063	-0.005744	-0.136699	-0.785988	-0.134749	-0.587690	126.067497	-62.497916	53.769773
40414		10.875523	2.669073	-0.808275	2.399223	1.664293	1.028243	0.345194	-1.235427	-0.785395	-0.646484	-0.296143	0.586670	0.108906	0.026276	-0.007365	-0.138467	-0.789332	-0.137969	-0.582019	126.847174	-61.715394	53.111252
40415		11.370503	2.026474	-1.083869	2.386182	2.543300	1.250982	0.370262	-1.271788	-0.824078	-0.627197	-0.291992	0.584473	0.113853	0.019815	-0.010078	-0.140269	-0.792728	-0.141381	-0.576124	127.608730	-60.898099	52.484371
40416		11.768944	1.686955	-1.503734	2.237074	3.122423	1.538877	0.439093	-1.310755	-0.870423	-0.624756	-0.297363	0.596191	0.117856	0.016389	-0.014229	-0.141946	-0.796199	-0.145140	-0.569959	128.373989	-60.042650	51.893872
40417		11.456943	1.555281	-1.527142	2.269871	3.213304	1.166011	0.531146	-1.371707	-0.912248	-0.612793	-0.294922	0.614502	0.114740	0.015069	-0.014444	-0.143414	-0.799823	-0.149271	-0.563412	129.175069	-59.142452	51.317284
40418		11.578390	1.135730	-1.446993	2.516454	3.731738	1.012328	0.638955	-1.440904	-0.926803	-0.597168	-0.296143	0.629150	0.115935	0.010865	-0.013600	-0.144528	-0.803644	-0.153705	-0.556455	130.039979	-58.206707	50.733218
40419		12.213132	1.225961	-1.252397	3.094519	3.990174	1.444770	0.781972	-1.520709	-0.949126	-0.580566	-0.301270	0.634033	0.122278	0.011726	-0.011548	-0.145180	-0.807702	-0.158554	-0.549000	130.987101	-57.226758	50.142473
40420		12.639953	1.174413	-0.071653	4.528005	4.241586	1.262232	0.971425	-1.611832	-0.958512	-0.568359	-0.297607	0.640869	0.126454	0.011138	0.000358	-0.145148	-0.812055	-0.163879	-0.540965	132.051656	-56.202884	49.534700
40421		13.774883	0.132489	1.414000	6.394102	5.683329	1.076432	1.184279	-1.718442	-0.972796	-0.554443	-0.294678	0.659912	0.137625	0.000567	0.015328	-0.144362	-0.816740	-0.169736	-0.532245	133.246500	-55.125338	48.908717
40422		14.587256	-0.270854	3.348166	8.618828	6.414182	0.610186	1.423731	-1.828268	-1.039117	-0.537354	-0.285156	0.675537	0.145541	-0.003710	0.034789	-0.142844	-0.821714	-0.176402	-0.522747	134.551009	-53.969238	48.308601
40423		14.504534	-0.706979	4.327796	9.600284	6.860432	-0.306421	1.453416	-1.950906	-1.110073	-0.515381	-0.286621	0.680908	0.144571	-0.008194	0.044633	-0.141473	-0.826826	-0.183313	-0.512583	135.843949	-52.727584	47.734427
40424		13.825571	-0.133226	3.169265	8.554665	6.242403	-0.376164	1.309635	-2.023494	-1.229755	-0.499023	-0.279053	0.710205	0.137913	-0.002395	0.033076	-0.141045	-0.831763	-0.190272	-0.502070	136.972882	-51.401027	47.254343
40425		13.407541	1.167804	1.983099	7.748534	5.099026	0.137596	1.066391	-2.067620	-1.388216	-0.476563	-0.284180	0.718018	0.133937	0.010637	0.021275	-0.142042	-0.836334	-0.197203	-0.491406	137.854921	-49.990422	46.903082
40426		13.494702	0.422121	1.149086	7.116139	5.998187	0.035010	0.860466	-2.081716	-1.544787	-0.449707	-0.272949	0.723389	0.134845	0.003126	0.012910	-0.144272	-0.840486	-0.204247	-0.480679	138.512210	-48.510151	46.686107
40427		13.760756	-0.684352	0.043203	6.245587	7.320620	0.047268	0.856422	-2.088367	-1.674080	-0.437500	-0.282959	0.730469	0.137530	-0.008001	0.001836	-0.146809	-0.844356	-0.211767	-0.469750	139.082372	-46.978130	46.577374
40428		13.424682	0.533207	-1.387567	5.334795	6.359728	0.841600	1.013340	-2.151377	-1.813269	-0.408936	-0.272949	0.737793	0.134427	0.004179	-0.012407	-0.149047	-0.848165	-0.220165	-0.458180	139.683539	-45.364785	46.548732
40429		12.494870	2.466324	-2.451492	4.684802	4.486865	1.417745	1.165316	-2.248954	-1.882446	-0.373535	-0.269531	0.751709	0.125438	0.023621	-0.022967	-0.150868	-0.852033	-0.229065	-0.445879	140.358196	-43.684747	46.537378
40430		12.401743	4.109443	-3.862017	4.175717	3.331969	2.719389	1.239912	-2.306615	-1.820103	-0.354980	-0.268799	0.762695	0.124818	0.040193	-0.036933	-0.152263	-0.855943	-0.237779	-0.433172	141.101156	-42.000048	46.489399
40431		13.085498	5.622835	-4.200932	4.996580	2.669477	3.912678	1.217804	-2.285740	-1.705380	-0.329102	-0.274170	0.776123	0.131796	0.055356	-0.040168	-0.153441	-0.859716	-0.245893	-0.420572	141.848589	-40.367256	46.411886
40432		12.904568	6.539869	-4.497302	5.277274	2.041804	4.240416	1.122084	-2.144098	-1.524119	-0.309326	-0.256836	0.782959	0.130010	0.064656	-0.043219	-0.154441	-0.863150	-0.253099	-0.408732	142.548432	-38.859724	46.322439
40433		11.704395	6.894915	-5.196937	4.512929	1.306028	3.951669	0.952099	-1.954584	-1.297313	-0.282959	-0.257324	0.791260	0.117987	0.068429	-0.050493	-0.155446	-0.866195	-0.259054	-0.398038	143.163823	-37.518579	46.206331
40434		10.119639	6.732447	-5.331055	3.758806	0.696708	2.896837	0.757327	-1.735315	-1.110526	-0.255859	-0.254150	0.792969	0.102025	0.066958	-0.052174	-0.156614	-0.868772	-0.263971	-0.388622	143.663462	-36.339228	46.096746
40435		8.951197	5.923271	-5.751585	2.729370	0.828906	2.025770	0.534381	-1.499908	-0.919742	-0.246094	-0.243896	0.800049	0.090211	0.058971	-0.056683	-0.158046	-0.870875	-0.267773	-0.380651	144.032275	-35.335120	45.988872
40436		8.092872	5.904128	-6.299800	1.994309	0.483381	1.841806	0.321550	-1.276691	-0.734421	-0.229492	-0.252197	0.792480	0.081545	0.058843	-0.062384	-0.159749	-0.872576	-0.270531	-0.374038	144.281365	-34.493925	45.875326
40437		6.538963	6.933858	-7.471926	0.732269	-1.084470	2.226918	0.135089	-1.075141	-0.528873	-0.219238	-0.249268	0.797607	0.065973	0.069215	-0.074319	-0.161594	-0.873984	-0.272182	-0.368722	144.438688	-33.817454	45.731973
40438		3.974641	7.769237	-9.024278	-1.491164	-3.074024	2.267134	0.019533	-0.909846	-0.354872	-0.207520	-0.249512	0.805908	0.040294	0.077630	-0.090053	-0.163400	-0.875208	-0.272995	-0.364396	144.544645	-33.273136	45.560236
40439		1.406874	7.564723	-9.707552	-3.487780	-4.326418	1.257892	0.109135	-0.690852	-0.252000	-0.203369	-0.251465	0.796631	0.014499	0.075682	-0.096985	-0.164318	-0.876227	-0.273684	-0.361002	144.683046	-32.867443	45.420131
40440		1.252757	6.319279	-7.688198	-2.511286	-3.583240	-0.786909	0.282464	-0.407311	-0.178331	-0.199219	-0.249023	0.807861	0.012740	0.063290	-0.076767	-0.163961	-0.876971	-0.274604	-0.358652	144.881378	-32.615970	45.352409
40441		4.974958	4.996198	-6.607774	0.018892	-0.389291	-0.157484	0.031465	-0.155913	-0.093362	-0.185303	-0.258057	0.805176	0.049824	0.049949	-0.066031	-0.164200	-0.877169	-0.274898	-0.357833	144.907427	-32.512507	45.336439
40442		6.429497	3.990209	-6.160399	0.833915	1.239710	-0.170158	-0.042068	0.199968	0.138226	-0.193848	-0.250244	0.798340	0.064206	0.039934	-0.061677	-0.163864	-0.876990	-0.274344	-0.358849	144.886228	-32.649879	45.330791
40443		5.452461	3.416252	-5.842498	0.243659	1.055096	-1.189348	-0.128716	0.539617	0.470405	-0.197510	-0.251709	0.797607	0.054286	0.034253	-0.058594	-0.162839	-0.876576	-0.272447	-0.361760	144.843114	-33.058249	45.273261
40444		3.885535	3.834608	-5.792070	-0.552042	-0.262679	-1.876992	-0.283824	0.835044	0.752860	-0.204346	-0.257324	0.803955	0.038468	0.038409	-0.058136	-0.161582	-0.875870	-0.269273	-0.366382	144.734655	-33.695977	45.174562
40445		2.972810	4.382891	-5.872299	-1.036459	-1.293634	-2.080786	-0.353691	1.135517	0.948380	-0.210693	-0.260742	0.802246	0.029186	0.043864	-0.058967	-0.159855	-0.874776	-0.265337	-0.372572	144.580740	-34.541451	45.086677
40446		2.376588	4.171312	-5.667188	-1.409323	-1.553297	-2.687761	-0.474986	1.419251	1.060515	-0.217529	-0.258789	0.789795	0.023141	0.041702	-0.056937	-0.158068	-0.873147	-0.260901	-0.380209	144.327758	-35.554476	45.053055
40447		1.978581	3.417546	-5.626624	-1.977255	-1.235842	-3.346256	-0.631817	1.674099	1.114415	-0.236084	-0.267578	0.772949	0.019123	0.034105	-0.056536	-0.156510	-0.870891	-0.256100	-0.389186	143.936922	-36.706305	45.100991
40448		1.939272	2.883999	-5.642473	-2.308912	-0.882511	-3.664206	-0.668866	1.923200	1.221037	-0.258789	-0.274902	0.778320	0.018673	0.028766	-0.056703	-0.154572	-0.868153	-0.250933	-0.399313	143.490700	-38.006778	45.204544
40449		1.930187	2.427269	-5.544988	-2.510960	-0.587821	-4.006533	-0.602536	2.182043	1.382968	-0.272217	-0.264404	0.768066	0.018527	0.024235	-0.055728	-0.151669	-0.865011	-0.245348	-0.410558	143.059364	-39.483074	45.341245
40450		1.993964	1.991711	-5.306745	-2.550305	-0.286385	-4.379837	-0.487567	2.428895	1.560698	-0.302490	-0.276611	0.765869	0.019137	0.019939	-0.053352	-0.147577	-0.861502	-0.239378	-0.422768	142.676995	-41.130666	45.500233
40451		2.074259	1.927309	-5.517291	-2.828977	-0.275338	-4.301280	-0.348699	2.659628	1.713776	-0.318848	-0.279541	0.752197	0.019841	0.019349	-0.055474	-0.142247	-0.857587	-0.233148	-0.435835	142.348373	-42.937799	45.691867
40452		2.259494	2.365159	-5.582406	-2.811047	-0.666984	-4.023758	-0.163760	2.893461	1.843374	-0.347656	-0.272461	0.736816	0.021565	0.023808	-0.056160	-0.135535	-0.853214	-0.226876	-0.449647	142.085850	-44.893509	45.934838
40453		2.548829	2.761988	-5.581830	-2.721139	-1.003026	-3.740932	-0.074427	3.110264	1.963472	-0.379395	-0.269775	0.731934	0.024344	0.027842	-0.056213	-0.127878	-0.848277	-0.220360	-0.464235	141.829600	-46.990586	46.231395
40454		2.829714	2.926278	-5.738653	-2.852908	-1.166555	-3.488420	-0.053098	3.304985	2.077580	-0.407959	-0.261475	0.716553	0.027038	0.029533	-0.057848	-0.119612	-0.842727	-0.213464	-0.479519	141.538042	-49.212784	46.581970
40455		3.064495	3.039061	-5.718319	-2.890458	-1.330053	-3.394337	-0.040769	3.485586	2.177439	-0.439941	-0.260010	0.714844	0.029309	0.030703	-0.057708	-0.110807	-0.836515	-0.206190	-0.495429	141.192405	-51.552021	46.999698
40456		3.272118	3.100121	-5.843016	-3.097032	-1.479492	-3.280495	-0.050696	3.642433	2.261829	-0.470215	-0.253418	0.694824	0.031297	0.031346	-0.059017	-0.101630	-0.829632	-0.198543	-0.511822	140.766853	-53.987862	47.497395
40457		3.624978	3.435452	-5.961766	-3.202460	-1.832827	-2.967217	-0.057940	3.797512	2.323523	-0.507080	-0.243652	0.664063	0.034707	0.034746	-0.060296	-0.092152	-0.822019	-0.190563	-0.528657	140.226058	-56.513055	48.108408
40458		4.195356	3.756853	-6.134183	-3.316244	-2.117802	-2.474542	-0.090628	3.941299	2.369680	-0.540527	-0.234863	0.651611	0.040285	0.038024	-0.062164	-0.082474	-0.813630	-0.182319	-0.545862	139.520522	-59.113418	48.880331
40459		4.975758	4.050022	-6.134361	-3.257979	-2.324604	-1.890675	-0.121712	4.072492	2.424384	-0.582031	-0.231689	0.634521	0.047999	0.041051	-0.062358	-0.072604	-0.804472	-0.173715	-0.563362	138.615337	-61.786607	49.839971
40460		5.836724	4.076031	-5.993202	-3.153855	-2.285563	-1.362107	-0.181404	4.166659	2.472264	-0.601074	-0.210449	0.611816	0.056592	0.041412	-0.061161	-0.062721	-0.794611	-0.164693	-0.580978	137.450030	-64.507813	51.029100
40461		6.777826	3.959608	-5.961125	-3.217264	-2.134536	-0.744838	-0.295431	4.212666	2.503048	-0.645508	-0.201172	0.578613	0.066000	0.040340	-0.061073	-0.053174	-0.784144	-0.155058	-0.598538	135.926304	-67.248349	52.502260
40462		7.822514	3.771695	-6.080220	-3.478951	-1.942741	0.010059	-0.392550	4.234395	2.509135	-0.680176	-0.186523	0.556885	0.076433	0.038562	-0.062508	-0.043894	-0.773106	-0.145097	-0.615896	133.922288	-69.979012	54.412162
40463		8.735042	4.147049	-6.079436	-3.626859	-2.357961	0.756994	-0.469684	4.223644	2.474694	-0.705811	-0.180176	0.527344	0.085519	0.042390	-0.062712	-0.035051	-0.761598	-0.134869	-0.632890	131.236960	-72.661622	56.951557
40464		9.358768	4.508895	-5.912158	-3.723305	-2.851195	1.180475	-0.552533	4.195538	2.429184	-0.729980	-0.172119	0.493164	0.091763	0.046044	-0.061186	-0.026616	-0.749670	-0.124539	-0.649444	127.550627	-75.263742	60.456572
40465		9.807055	4.457167	-5.466869	-3.668012	-2.966818	1.306976	-0.623886	4.131858	2.376561	-0.765381	-0.149902	0.457275	0.096374	0.045549	-0.056813	-0.018639	-0.737463	-0.114089	-0.665421	122.384515	-77.739767	65.400085
40466		10.598682	4.291331	-4.565035	-3.166983	-2.854601	1.736390	-0.658351	4.013872	2.269495	-0.784668	-0.136475	0.425537	0.104546	0.043950	-0.047902	-0.011206	-0.725175	-0.103849	-0.680596	114.949902	-79.989201	72.590967
40467		11.447347	4.087915	-3.503338	-2.539419	-2.693394	2.282630	-0.698698	3.835218	2.154596	-0.803955	-0.133057	0.400391	0.113324	0.041976	-0.037359	-0.004455	-0.713063	-0.093758	-0.694788	104.170475	-81.898600	83.088515
40468		11.860388	3.920589	-2.730528	-2.220102	-2.677352	2.490753	-0.757413	3.597970	2.008616	-0.817383	-0.119141	0.371582	0.117684	0.040282	-0.029579	0.001527	-0.701367	-0.084001	-0.707832	88.990572	-83.292872	97.955774
40469		11.212707	4.568944	-2.004119	-1.810004	-3.579899	1.784981	-0.773430	3.298777	1.895212	-0.831543	-0.105957	0.341064	0.111335	0.046664	-0.022061	0.006927	-0.690393	-0.074551	-0.719549	69.983945	-84.030274	116.630699
40470		10.574121	4.455938	-1.960409	-2.096117	-3.763973	1.000964	-0.838891	2.962913	1.797307	-0.849854	-0.097168	0.316650	0.105028	0.045418	-0.021353	0.011620	-0.680357	-0.065191	-0.729883	50.364666	-84.085746	135.870596
40471		10.490147	3.035995	-1.953226	-2.526871	-2.573414	0.678146	-0.763119	2.615477	1.685423	-0.871582	-0.083496	0.301514	0.104373	0.031163	-0.021017	0.016046	-0.671351	-0.056489	-0.738810	33.887567	-83.623594	152.001544
40472		10.144719	2.204035	-1.811162	-2.677397	-1.934409	0.194112	-0.600467	2.248663	1.498227	-0.874512	-0.075439	0.281494	0.101066	0.022742	-0.019317	0.020219	-0.663485	-0.049034	-0.746307	21.995476	-82.889951	163.629089
40473		9.341179	2.494792	-1.360822	-2.300206	-2.355576	-0.620865	-0.425426	1.884914	1.234983	-0.879639	-0.058594	0.265137	0.093121	0.025493	-0.014541	0.023899	-0.656787	-0.043133	-0.752462	14.090044	-82.086166	171.356487
40474		8.428252	2.990644	-1.002628	-1.919765	-2.943478	-1.528191	-0.293651	1.513223	0.949092	-0.892578	-0.045654	0.252441	0.084060	0.030290	-0.010707	0.026852	-0.651340	-0.038708	-0.757322	9.047373	-81.350708	176.281965
40475		7.624050	3.417762	-0.624632	-1.490076	-3.414895	-2.308385	-0.254104	1.132045	0.644264	-0.889893	-0.054688	0.231445	0.076093	0.034415	-0.006721	0.028705	-0.647232	-0.035473	-0.760926	6.016348	-80.761225	179.202698
40476		6.908728	3.794731	-0.638029	-1.424689	-3.835370	-3.045311	-0.354097	0.715653	0.349227	-0.892090	-0.045654	0.238037	0.068997	0.038056	-0.006695	0.029037	-0.644650	-0.032872	-0.763219	4.370746	-80.376188	-179.334964
40477		6.657419	3.999465	-1.219034	-1.982590	-4.104084	-3.407323	-0.526666	0.283061	0.053875	-0.889404	-0.049316	0.234375	0.066546	0.039980	-0.012390	0.027613	-0.643686	-0.030628	-0.764178	3.802358	-80.221836	-179.064554
40478		6.679608	4.500155	-1.853670	-2.600543	-4.643100	-3.489449	-0.711409	-0.143984	-0.218457	-0.894043	-0.057617	0.233643	0.066859	0.044862	-0.018648	0.024489	-0.644330	-0.028612	-0.763819	4.135945	-80.300638	-179.816725
40479		6.650308	4.428314	-2.267950	-3.025665	-4.565124	-3.568902	-0.827798	-0.535679	-0.468549	-0.894531	-0.059326	0.235596	0.066667	0.044033	-0.022684	0.019977	-0.646436	-0.027008	-0.762229	5.384857	-80.589618	178.435834
40480		6.816862	3.872512	-3.102362	-3.908022	-4.003877	-3.505057	-0.863354	-0.892333	-0.673291	-0.889893	-0.069092	0.236084	0.068436	0.038362	-0.030885	0.014522	-0.649849	-0.025961	-0.759481	7.601963	-81.059422	175.688806
40481		7.156584	3.874230	-3.310496	-4.139367	-3.931363	-3.134778	-0.773290	-1.168020	-0.855923	-0.882324	-0.076660	0.249268	0.071923	0.038308	-0.032834	0.008628	-0.654243	-0.025873	-0.755792	11.039599	-81.646445	171.763643
40482		8.468162	3.568078	-1.309334	-2.306795	-3.404151	-1.491377	-0.655073	-1.311800	-0.977766	-0.887939	-0.077881	0.264648	0.084939	0.035224	-0.012653	0.002642	-0.659110	-0.026630	-0.751570	15.732522	-82.254179	166.644947
40483		11.851624	1.740891	0.893254	-0.540124	-1.276479	2.119044	-0.665942	-1.174857	-0.915757	-0.874268	-0.091064	0.264893	0.118539	0.016897	0.009572	-0.003131	-0.663426	-0.027143	-0.747743	20.725648	-82.736038	161.224069
40484		14.228375	-0.656892	2.862999	1.182356	1.369939	4.602529	-0.846552	-0.872708	-0.579868	-0.873291	-0.093262	0.270264	0.142137	-0.006858	0.029279	-0.008203	-0.666615	-0.025865	-0.744908	24.232390	-83.077209	157.201401
40485		14.796882	-2.097046	0.951907	-0.681057	2.831841	4.876315	-1.221273	-0.690497	-0.337989	-0.870605	-0.103516	0.267822	0.147899	-0.021160	0.010159	-0.013603	-0.669111	-0.022397	-0.742700	26.424635	-83.358203	154.289178
40486		12.925520	-1.703008	-0.433027	-1.743727	2.366343	2.896191	-1.459147	-0.593354	-0.310348	-0.876953	-0.104004	0.277588	0.129240	-0.017260	-0.003821	-0.019680	-0.671191	-0.017953	-0.740805	28.325540	-83.584468	151.534249
40487		10.250583	-3.100708	-1.746936	-2.675189	3.666672	0.043190	-1.506725	-0.609318	-0.228342	-0.860596	-0.111816	0.281738	0.102522	-0.031253	-0.016922	-0.025617	-0.673293	-0.013059	-0.738817	30.041930	-83.831793	148.939010
40488		8.730530	-3.365553	-2.694518	-3.366097	3.913453	-1.556622	-1.282365	-0.690200	-0.275749	-0.865479	-0.123779	0.277588	0.087350	-0.033946	-0.026427	-0.030975	-0.675674	-0.009138	-0.736493	32.520036	-84.093953	145.708122
40489		9.588710	-1.558307	-2.873442	-3.578929	2.224894	-0.600283	-1.021521	-0.779562	-0.388972	-0.853760	-0.128174	0.286621	0.095967	-0.015915	-0.028280	-0.035873	-0.678389	-0.006548	-0.733797	36.248253	-84.343336	141.372575
40490		11.946652	-1.505601	-3.283249	-4.065923	2.409621	1.738469	-0.886172	-0.846385	-0.536847	-0.858154	-0.126953	0.296631	0.119563	-0.015521	-0.032259	-0.040852	-0.681334	-0.004942	-0.730815	41.327528	-84.535026	135.759051
40491		13.197673	-0.163471	-3.375407	-4.193402	1.258533	3.088003	-0.736952	-0.884385	-0.680557	-0.846680	-0.135254	0.292236	0.132117	-0.002207	-0.033163	-0.045850	-0.684420	-0.004364	-0.727631	47.603761	-84.630153	129.030525
40492		12.888988	1.817049	-2.348355	-3.154192	-0.682695	3.014051	-0.546928	-0.902502	-0.818969	-0.840332	-0.140625	0.303223	0.129067	0.017579	-0.022950	-0.050697	-0.687576	-0.004945	-0.724323	54.702885	-84.594932	121.585095
40493		11.678533	5.356652	-1.698525	-2.581733	-4.225659	2.164088	-0.473446	-0.940341	-0.951620	-0.837646	-0.158203	0.307861	0.117117	0.052970	-0.016561	-0.055836	-0.690859	-0.006180	-0.720803	62.212198	-84.417660	113.758669
40494		10.280851	8.460289	-1.084761	-2.070477	-7.362813	1.139457	-0.677873	-0.948925	-0.946843	-0.829590	-0.161133	0.316162	0.103258	0.084078	-0.010644	-0.061595	-0.694072	-0.006717	-0.717234	69.043881	-84.152729	106.502500
40495		9.520895	7.871032	-1.003781	-1.895736	-6.758297	0.401946	-1.138109	-0.924332	-0.779028	-0.824707	-0.176514	0.320313	0.095561	0.078281	-0.010043	-0.068349	-0.697025	-0.005033	-0.713765	74.579765	-83.898374	100.280849
40496		9.366969	6.358174	-1.708453	-2.460502	-5.120036	0.127910	-1.580728	-0.863592	-0.666962	-0.822266	-0.183838	0.318604	0.093955	0.063133	-0.017179	-0.076234	-0.699548	-0.001394	-0.710506	78.927168	-83.644236	94.996470
40497		8.998924	4.290193	-1.887903	-2.416077	-3.003088	-0.426859	-1.643215	-0.762277	-0.657998	-0.821777	-0.194580	0.323730	0.090201	0.042450	-0.018886	-0.084304	-0.701631	0.002452	-0.707532	82.353183	-83.346688	90.600833
40498		9.223306	0.819617	-2.434167	-2.496686	0.599179	-0.589189	-1.163319	-0.654188	-0.663793	-0.818604	-0.195068	0.329102	0.092338	0.007749	-0.024086	-0.090701	-0.703473	0.004541	-0.704896	85.185307	-83.013340	87.077131
40499		9.156277	-0.221937	-2.569477	-2.428648	1.708544	-0.775501	-0.447884	-0.549558	-0.668735	-0.816406	-0.207764	0.330078	0.091625	-0.002583	-0.025438	-0.094664	-0.705252	0.004098	-0.702597	87.666256	-82.653391	84.308182
40500		9.101424	0.010201	-2.315588	-2.155597	1.495214	-0.795186	0.165705	-0.433505	-0.640330	-0.816650	-0.212646	0.333252	0.091064	-0.000170	-0.022959	-0.096298	-0.706890	0.001491	-0.700736	89.740371	-82.295973	82.311688
40501		9.689530	0.991292	-1.985162	-1.905854	0.610717	-0.075905	0.594100	-0.328052	-0.609456	-0.817139	-0.208252	0.343262	0.096957	0.009676	-0.019664	-0.096374	-0.708362	-0.002505	-0.699235	91.458665	-81.947362	80.910812
40502		9.780317	1.650977	-1.830027	-1.792943	-0.003894	0.112753	0.736893	-0.247871	-0.585331	-0.806885	-0.202148	0.336914	0.097874	0.016290	-0.018119	-0.095791	-0.709598	-0.007007	-0.698030	92.811568	-81.610430	79.970321
40503		9.728112	2.105617	-1.533229	-1.513519	-0.453746	0.133350	0.702432	-0.213646	-0.581204	-0.803711	-0.208252	0.345947	0.097358	0.020827	-0.015155	-0.095358	-0.710691	-0.011372	-0.696919	93.937654	-81.271689	79.233286
40504		9.798810	2.648067	-1.347817	-1.348457	-0.951251	0.292853	0.460318	-0.237022	-0.614300	-0.810059	-0.210938	0.347168	0.098085	0.026210	-0.013301	-0.095854	-0.711726	-0.015018	-0.695725	94.924797	-80.913575	78.500921
40505		9.722504	3.551014	-1.405236	-1.468194	-1.788562	0.373407	0.129476	-0.271787	-0.603565	-0.812500	-0.214355	0.350830	0.097351	0.035226	-0.013897	-0.097539	-0.712723	-0.017440	-0.694412	95.790792	-80.555329	77.693293
40506		9.586337	4.113963	-1.263333	-1.360672	-2.322217	0.344777	-0.246022	-0.319690	-0.563166	-0.810059	-0.219238	0.358154	0.095999	0.040854	-0.012530	-0.100378	-0.713690	-0.018409	-0.692988	96.551318	-80.217970	76.778831
40507		9.550758	3.605219	-1.060373	-1.078720	-1.798250	0.234270	-0.538501	-0.333895	-0.491863	-0.808594	-0.225098	0.358154	0.095613	0.035789	-0.010541	-0.104060	-0.714565	-0.018085	-0.691550	97.172105	-79.915614	75.830063
40508		9.842799	3.324615	-0.497702	-0.456017	-1.493677	0.470416	-0.652972	-0.326361	-0.453619	-0.807129	-0.231689	0.356445	0.098511	0.033007	-0.004924	-0.107969	-0.715337	-0.017250	-0.690173	97.669536	-79.636753	74.944307
40509		10.108398	2.628378	0.064043	0.218875	-0.795655	0.599374	-0.631518	-0.295461	-0.444465	-0.802734	-0.237549	0.351807	0.101141	0.026061	0.000707	-0.111814	-0.716010	-0.016455	-0.688881	98.059250	-79.361367	74.174548
40510		10.097980	1.979410	-0.034543	0.227362	-0.108176	0.474433	-0.369505	-0.235853	-0.459800	-0.806152	-0.239990	0.361572	0.101025	0.019561	-0.000263	-0.114719	-0.716604	-0.016667	-0.687779	98.380536	-79.084255	73.631842
40511		9.464182	1.929084	0.181348	0.439090	-0.161671	-0.163550	0.056659	-0.188964	-0.473010	-0.795166	-0.236084	0.360107	0.094685	0.019066	0.001908	-0.116184	-0.717284	-0.018404	-0.686779	98.786711	-78.800091	73.245856
40512		8.781899	1.883891	0.543280	0.792319	-0.255924	-0.853196	0.494673	-0.146986	-0.441911	-0.796875	-0.237305	0.360352	0.087856	0.018631	0.005544	-0.115920	-0.718061	-0.021573	-0.685919	99.313475	-78.539670	72.997542
40513		8.780570	2.301420	0.677276	0.903605	-0.643170	-0.778128	0.824440	-0.119752	-0.393405	-0.808594	-0.236084	0.366455	0.087847	0.022813	0.006920	-0.114341	-0.718939	-0.025702	-0.685122	99.963592	-78.306045	72.811801
40514		9.391624	2.845349	0.440912	0.680104	-0.988014	-0.063120	0.959708	-0.111041	-0.371323	-0.802002	-0.236084	0.369141	0.093966	0.028257	0.004597	-0.112156	-0.719841	-0.030232	-0.684351	100.656994	-78.088092	72.665030
40515		9.734248	3.115371	0.416292	0.690805	-1.145292	0.328578	0.885742	-0.113324	-0.360862	-0.800049	-0.230957	0.385254	0.097396	0.030959	0.004355	-0.110236	-0.720703	-0.034459	-0.683556	101.309562	-77.872759	72.512831
40516		9.684350	3.653416	0.397593	0.657200	-1.644007	0.393059	0.621495	-0.142733	-0.329710	-0.807861	-0.230957	0.385498	0.096901	0.036362	0.004158	-0.109127	-0.721502	-0.037664	-0.682721	101.885628	-77.673891	72.287608
40517		9.550305	4.291388	0.250297	0.477946	-2.248019	0.405181	0.199905	-0.192919	-0.280890	-0.802979	-0.229004	0.381836	0.095561	0.042777	0.002638	-0.109416	-0.722255	-0.039218	-0.681790	102.367284	-77.493281	71.908267
40518		9.414910	3.479787	0.018803	0.339273	-1.438827	0.115273	-0.188414	-0.244453	-0.237997	-0.798096	-0.233398	0.390869	0.094190	0.034686	0.000270	-0.110936	-0.722968	-0.039272	-0.680785	102.763686	-77.332244	71.391348
40519		9.478400	2.113780	-0.368104	0.109454	-0.034484	-0.095157	-0.359694	-0.278874	-0.235390	-0.803467	-0.229492	0.385254	0.094814	0.021020	-0.003587	-0.113105	-0.723708	-0.038710	-0.679673	103.140922	-77.164808	70.790078
40520		9.377435	1.274215	-0.410408	0.167031	0.786516	-0.374376	-0.313688	-0.301182	-0.259084	-0.803711	-0.245605	0.386963	0.093797	0.012614	-0.003983	-0.115159	-0.724532	-0.038382	-0.678467	103.567806	-76.982972	70.167550
40521		9.225217	0.714240	-0.422482	0.229557	1.322221	-0.647963	-0.195891	-0.315065	-0.285263	-0.801025	-0.242188	0.387207	0.092269	0.007007	-0.004086	-0.116909	-0.725471	-0.038535	-0.677155	104.068213	-76.780908	69.535485
40522		9.264979	1.405489	-0.431739	0.185280	0.686046	-0.458731	-0.064312	-0.332005	-0.317732	-0.806885	-0.237793	0.394531	0.092679	0.013906	-0.004168	-0.118262	-0.726524	-0.039247	-0.675749	104.642511	-76.559733	68.907277
40523		9.264775	2.396554	-0.475499	0.074837	-0.242317	-0.234528	-0.017179	-0.338026	-0.325996	-0.794189	-0.245850	0.393799	0.092695	0.023814	-0.004600	-0.119500	-0.727629	-0.040141	-0.674288	105.236299	-76.329144	68.283838
40524		9.323482	2.475093	-0.689927	-0.104759	-0.252512	-0.145501	-0.048338	-0.354333	-0.326107	-0.787842	-0.235840	0.402588	0.093287	0.024597	-0.006740	-0.120827	-0.728758	-0.040923	-0.672784	105.825096	-76.096996	67.648913
40525		9.421117	2.422315	-0.665394	-0.028874	-0.154127	-0.063686	-0.123858	-0.379954	-0.334911	-0.793701	-0.240967	0.405518	0.094264	0.024061	-0.006490	-0.122489	-0.729929	-0.041466	-0.671179	106.404492	-75.851947	66.976294
40526		9.460630	1.811989	-0.630934	0.110536	0.469151	-0.171505	-0.199043	-0.398191	-0.331158	-0.794434	-0.244873	0.406738	0.094648	0.017957	-0.006139	-0.124390	-0.731102	-0.041733	-0.669534	106.958124	-75.606821	66.287218
40527		9.467446	1.675564	-0.803331	-0.004965	0.654391	-0.186841	-0.211600	-0.413070	-0.359781	-0.794189	-0.257568	0.408203	0.094721	0.016577	-0.007855	-0.126456	-0.732313	-0.042054	-0.667801	107.499219	-75.339565	65.601303
40528		9.405090	1.625635	-0.713303	0.124378	0.708405	-0.268597	-0.181187	-0.425075	-0.379749	-0.787109	-0.259033	0.415771	0.094096	0.016071	-0.006948	-0.128457	-0.733565	-0.042540	-0.666012	108.043736	-75.060038	64.930583
40529		9.473125	1.581795	-0.746012	0.147309	0.803297	-0.214173	-0.165287	-0.426972	-0.377168	-0.782715	-0.253174	0.413330	0.094777	0.015633	-0.007271	-0.130416	-0.734835	-0.043067	-0.664194	108.583205	-74.777504	64.271428
40530		9.765129	1.704145	-0.755026	0.202618	0.788476	0.095335	-0.133828	-0.432858	-0.384184	-0.793457	-0.263184	0.412598	0.097700	0.016849	-0.007350	-0.132258	-0.736129	-0.043721	-0.662352	109.122930	-74.490948	63.632032
40531		9.806128	1.761072	-0.528321	0.471878	0.746891	0.125111	-0.069924	-0.439946	-0.410768	-0.777832	-0.266602	0.422119	0.098108	0.017407	-0.005074	-0.133973	-0.737485	-0.044681	-0.660432	109.675689	-74.184804	63.014732
40532		9.725397	1.944177	-0.529587	0.489938	0.587184	0.089761	0.007055	-0.464615	-0.435214	-0.777832	-0.264648	0.428467	0.097308	0.019230	-0.005069	-0.135468	-0.738953	-0.045967	-0.658395	110.276467	-73.861286	62.393878
40533		9.545561	2.555691	-0.220226	0.758777	-0.048468	0.042224	0.096567	-0.502367	-0.487246	-0.775879	-0.272461	0.421875	0.095523	0.025325	-0.001950	-0.136832	-0.740593	-0.047714	-0.656142	110.938891	-73.498140	61.759586
40534		9.382718	2.589750	-0.047102	0.962957	-0.105569	-0.127362	0.152268	-0.537114	-0.513140	-0.769531	-0.278076	0.429443	0.093894	0.025657	-0.000199	-0.138061	-0.742361	-0.049716	-0.653733	111.645892	-73.114096	61.112417
40535		9.611214	2.554948	0.222327	1.328859	-0.007439	0.045615	0.194594	-0.578053	-0.572373	-0.768066	-0.280762	0.438965	0.096178	0.025272	0.002526	-0.139355	-0.744274	-0.052045	-0.651097	112.377123	-72.685201	60.462120
40536		9.527046	1.743651	0.375432	1.619701	0.772476	-0.287714	0.251318	-0.599844	-0.598457	-0.763672	-0.270264	0.447754	0.095310	0.017146	0.004062	-0.140505	-0.746268	-0.054641	-0.648349	113.123172	-72.237572	59.830573
40537		9.456765	1.158673	0.432903	1.794017	1.354049	-0.544046	0.356007	-0.633632	-0.639305	-0.760254	-0.279297	0.444336	0.094590	0.011276	0.004649	-0.141419	-0.748426	-0.057706	-0.645391	113.921698	-71.756140	59.204145
40538		9.012145	0.931280	0.403876	1.787441	1.506567	-1.050053	0.442150	-0.687873	-0.685501	-0.756348	-0.283691	0.461182	0.090138	0.008994	0.004369	-0.142156	-0.750779	-0.061180	-0.642168	114.781830	-71.237133	58.564130
40539		8.818802	1.166343	0.151511	1.561804	1.317076	-1.153596	0.476833	-0.761022	-0.740031	-0.745605	-0.281982	0.466064	0.088224	0.011333	0.001878	-0.142970	-0.753359	-0.064918	-0.638589	115.692596	-70.666965	57.888485
40540		8.981156	1.470074	-0.208413	1.295371	1.177598	-0.879601	0.451903	-0.831894	-0.775829	-0.739258	-0.283447	0.468262	0.089875	0.014356	-0.001678	-0.143996	-0.756102	-0.068656	-0.634714	116.618225	-70.058989	57.180473
40541		9.216775	1.417511	-0.521388	1.128810	1.395818	-0.647182	0.405499	-0.895209	-0.815636	-0.733643	-0.296143	0.474121	0.092247	0.013809	-0.004773	-0.145351	-0.758975	-0.072352	-0.630552	117.529031	-69.408676	56.456394
40542		9.345669	1.633033	-0.427983	1.328957	1.281987	-0.497079	0.408032	-0.951363	-0.866978	-0.729492	-0.295654	0.483154	0.093545	0.015933	-0.003802	-0.146861	-0.761969	-0.076204	-0.626122	118.427637	-68.715204	55.744436
40543		9.611060	2.207158	-0.485386	1.398058	0.895783	-0.080214	0.465963	-1.008935	-0.885111	-0.714844	-0.289795	0.498779	0.096230	0.021656	-0.004318	-0.148235	-0.765148	-0.080261	-0.621395	119.368499	-67.990947	55.018283
40544		9.701855	2.746984	-0.124283	1.857109	0.441862	0.088900	0.504523	-1.063298	-0.910516	-0.705322	-0.296387	0.511719	0.097147	0.027030	-0.000658	-0.149541	-0.768469	-0.084490	-0.616405	120.324832	-67.235993	54.296503
40545		9.644018	3.107384	-0.343168	1.740979	0.188592	0.172907	0.525977	-1.112461	-0.936580	-0.702637	-0.308350	0.519775	0.096601	0.030630	-0.002814	-0.150865	-0.771906	-0.088847	-0.611152	121.278824	-66.447780	53.586182
40546		9.894773	3.784594	-0.477768	1.778136	-0.268456	0.638229	0.557649	-1.166949	-0.984115	-0.690918	-0.303223	0.520752	0.099158	0.037370	-0.004095	-0.152219	-0.775459	-0.093434	-0.605610	122.223475	-65.616998	52.901923
40547		10.265388	3.290424	-0.790273	1.739224	0.441401	0.845979	0.558728	-1.234529	-1.005227	-0.683594	-0.305664	0.528809	0.102863	0.032408	-0.007177	-0.153663	-0.779159	-0.098050	-0.599738	123.171635	-64.749113	52.209230
40548		11.184870	2.601857	-1.380992	1.594413	1.556672	1.536740	0.615782	-1.295850	-1.017004	-0.669189	-0.307373	0.547852	0.112065	0.025490	-0.013005	-0.154929	-0.783018	-0.102827	-0.593555	124.150105	-63.852908	51.514773
40549		11.444600	2.515388	-1.351979	1.870137	1.817416	1.690788	0.656792	-1.339423	-1.025838	-0.659180	-0.317383	0.559082	0.114660	0.024609	-0.012671	-0.156078	-0.786975	-0.107722	-0.587117	125.132467	-62.931986	50.836581
40550		11.210511	2.095369	-1.001052	2.322089	2.177247	1.184228	0.658415	-1.408092	-1.042472	-0.641602	-0.309326	0.565430	0.112279	0.020400	-0.009153	-0.157285	-0.791054	-0.112620	-0.580354	126.111764	-61.976681	50.157433
40551		11.017997	1.902937	-0.523067	2.898481	2.325377	0.745656	0.646103	-1.498106	-1.102510	-0.627197	-0.315674	0.583496	0.110317	0.018436	-0.004344	-0.158759	-0.795282	-0.117641	-0.573134	127.068443	-60.956648	49.489353
40552		11.252938	1.478381	-0.211420	3.448447	2.866521	0.615437	0.672147	-1.601905	-1.143147	-0.616943	-0.323242	0.597412	0.112623	0.014145	-0.001164	-0.160284	-0.799719	-0.122802	-0.565401	128.042763	-59.877875	48.811710
40553		12.163797	1.364448	-0.047460	4.099284	3.403179	1.206864	0.722450	-1.696053	-1.191719	-0.605957	-0.329346	0.607422	0.121714	0.012918	0.000605	-0.161790	-0.804344	-0.128210	-0.557151	129.030966	-58.737188	48.143291
40554		13.031076	1.051503	-0.105508	4.553641	4.150234	1.718081	0.843227	-1.778241	-1.249455	-0.586182	-0.319092	0.618896	0.130375	0.009702	0.000146	-0.162997	-0.809151	-0.134103	-0.548381	130.054685	-57.536170	47.506685
40555		14.098191	0.441790	-0.093346	5.161223	5.258061	2.215152	1.097145	-1.826925	-1.307055	-0.568359	-0.320313	0.629639	0.141007	0.003497	0.000375	-0.163348	-0.814145	-0.140865	-0.539113	131.164101	-56.285290	46.932273
40556		15.225361	-0.826403	1.398832	7.131257	6.844379	1.880910	1.513715	-1.881202	-1.364808	-0.551514	-0.319336	0.651367	0.152052	-0.009415	0.015351	-0.162164	-0.819439	-0.148917	-0.529193	132.452812	-54.983349	46.421656
40557		16.087211	-3.203533	3.908474	9.788938	9.257698	0.326062	1.983228	-1.977589	-1.441036	-0.519775	-0.310059	0.667969	0.160239	-0.033587	0.040343	-0.159296	-0.825133	-0.158410	-0.518349	133.960198	-53.605064	45.964253
40558		15.997962	-3.615447	6.051262	11.789437	9.598888	-1.182874	2.304574	-2.137520	-1.543084	-0.508301	-0.305420	0.688477	0.159035	-0.038091	0.061784	-0.155447	-0.831187	-0.168988	-0.506367	135.613902	-52.113974	45.546123
40559		15.215442	-1.358691	6.401846	12.181312	7.449963	-1.420479	2.257372	-2.318867	-1.627384	-0.476318	-0.295654	0.705322	0.151279	-0.015555	0.065608	-0.152112	-0.837327	-0.179594	-0.493449	137.215123	-50.508501	45.150974
40560		14.928412	1.554202	5.412726	11.821424	5.046027	-0.360843	1.764295	-2.506385	-1.726473	-0.459473	-0.285400	0.713623	0.148713	0.013767	0.056120	-0.151206	-0.843199	-0.189207	-0.479952	138.503759	-48.778802	44.786422
40561		15.898658	2.165471	3.945397	11.375937	5.294331	0.936971	1.057811	-2.625079	-1.830205	-0.430664	-0.285889	0.736084	0.158638	0.019985	0.041646	-0.153593	-0.848470	-0.197404	-0.466411	139.334729	-46.956216	44.482052
40562		17.115683	1.182565	2.007907	10.428194	7.119083	1.973774	0.502246	-2.672010	-1.916818	-0.402100	-0.285156	0.749268	0.170970	0.010132	0.022391	-0.158542	-0.853103	-0.204593	-0.453013	139.791378	-45.077282	44.247216
40563		16.834298	1.429733	-0.199752	8.807075	7.207144	2.675015	0.362250	-2.712137	-2.014552	-0.371338	-0.291748	0.756104	0.168482	0.012601	0.000311	-0.164304	-0.857371	-0.211780	-0.439396	140.116621	-43.145919	44.076818
40564		15.629543	2.437633	-2.400332	6.928880	6.216816	3.198925	0.492324	-2.783397	-2.086740	-0.342773	-0.295654	0.770996	0.156852	0.022797	-0.021766	-0.169695	-0.861573	-0.219452	-0.425130	140.493275	-41.153744	43.935744
40565		15.294488	4.030852	-3.343199	6.734621	5.074341	3.979166	0.813106	-2.784665	-2.037683	-0.310059	-0.297119	0.779541	0.153790	0.038874	-0.031135	-0.173547	-0.865832	-0.227506	-0.410435	141.051617	-39.180790	43.790245
40566		15.655959	5.744022	-3.807741	7.406869	4.161663	5.032972	0.973604	-2.623310	-1.846117	-0.279297	-0.289551	0.777832	0.157561	0.056167	-0.035740	-0.176078	-0.869863	-0.235152	-0.396280	141.702247	-37.344728	43.640267
40567		14.767983	6.841507	-4.842284	6.796373	3.136111	5.428712	0.924807	-2.350311	-1.581004	-0.258057	-0.283691	0.789551	0.148769	0.067459	-0.046365	-0.177933	-0.873401	-0.241701	-0.383525	142.320507	-35.727350	43.488055
40568		12.584275	6.575038	-5.003052	5.658500	2.351840	3.937371	0.720529	-2.020608	-1.283702	-0.235107	-0.282227	0.792725	0.126757	0.065115	-0.048518	-0.179675	-0.876321	-0.246835	-0.372627	142.821237	-34.359303	43.334778
40569		10.631910	5.441174	-5.742962	3.855233	2.410785	2.635004	0.413651	-1.668723	-0.999869	-0.216553	-0.281738	0.799805	0.107063	0.053995	-0.056426	-0.181779	-0.878546	-0.250409	-0.363881	143.140047	-33.252761	43.183488
40570		9.002661	6.303099	-6.585893	2.700592	1.012309	2.670487	0.238618	-1.318575	-0.802989	-0.191895	-0.289795	0.801514	0.090710	0.062746	-0.065187	-0.183837	-0.880153	-0.253128	-0.357017	143.334325	-32.370428	43.077013
40571		6.510793	7.346913	-9.026165	-0.125056	-0.812312	3.497516	0.017186	-1.047982	-0.635221	-0.180908	-0.282715	0.797119	0.065813	0.073269	-0.089912	-0.186209	-0.881236	-0.254934	-0.351792	143.388408	-31.673776	42.991943
40572		2.664714	8.711493	-11.268316	-3.567880	-3.711706	3.731957	0.137654	-0.806899	-0.617678	-0.173584	-0.287354	0.804443	0.027370	0.087109	-0.112514	-0.187716	-0.882008	-0.257106	-0.347450	143.465400	-31.089860	42.995279
40573		0.899710	6.316243	-7.889419	-2.954514	-3.302552	-0.685215	0.456397	-0.471569	-0.520753	-0.156982	-0.286621	0.807373	0.009348	0.063318	-0.078728	-0.187205	-0.882595	-0.259700	-0.344291	143.681843	-30.697448	43.081311
40574		4.493119	2.475602	-6.214133	-0.729854	1.616072	-1.952170	0.355690	-0.182513	-0.389833	-0.156738	-0.279541	0.811035	0.045036	0.024779	-0.062056	-0.186544	-0.882756	-0.261824	-0.342626	143.819053	-30.479254	43.211885
40575		6.867844	1.308327	-5.643227	0.783117	3.848090	-1.731605	0.579427	0.241153	-0.126442	-0.162598	-0.272705	0.806641	0.068619	0.013203	-0.056477	-0.183880	-0.882730	-0.263547	-0.342810	144.071156	-30.550319	43.367520
40576		6.265446	1.684637	-5.012259	0.960651	3.060919	-2.267882	0.670991	0.665883	0.263270	-0.161133	-0.270264	0.808838	0.062465	0.017097	-0.050274	-0.179589	-0.882565	-0.264108	-0.345071	144.399121	-30.946217	43.477727
40577		4.375128	3.651046	-5.547083	0.043759	0.376711	-1.869307	0.572484	1.029908	0.641096	-0.177979	-0.269043	0.806641	0.043348	0.036809	-0.055590	-0.174584	-0.882147	-0.263134	-0.349426	144.703772	-31.642088	43.521173
40578		2.652622	5.406671	-5.559017	-0.487336	-2.136436	-1.915358	0.356872	1.386354	0.898576	-0.186035	-0.258789	0.798828	0.025897	0.054283	-0.055674	-0.169611	-0.881210	-0.260958	-0.355811	144.888413	-32.586039	43.558220
40579		1.399925	5.822907	-5.344340	-1.050789	-3.321057	-2.581333	-0.149016	1.690026	1.011467	-0.197510	-0.259766	0.799805	0.013252	0.058257	-0.053601	-0.166246	-0.879371	-0.257606	-0.364290	144.751001	-33.713430	43.651866
40580		0.837400	5.216480	-5.570909	-1.882026	-3.206289	-3.095314	-0.608553	1.976929	1.056250	-0.217773	-0.272705	0.802002	0.007547	0.052036	-0.055945	-0.164441	-0.876590	-0.253444	-0.374587	144.293702	-34.985206	43.844092
40581		0.885980	3.899834	-5.355956	-2.262966	-2.187780	-3.916090	-0.870441	2.263223	1.165391	-0.229736	-0.270752	0.782227	0.008025	0.038813	-0.053823	-0.163183	-0.873050	-0.248494	-0.386530	143.637984	-36.428553	44.111507
40582		1.223835	2.843416	-5.214475	-2.436810	-1.202497	-4.391741	-0.965499	2.555626	1.346718	-0.265381	-0.277100	0.777832	0.011379	0.028260	-0.052431	-0.161600	-0.868920	-0.242771	-0.399907	142.893393	-38.061807	44.427426
40583		1.614849	2.118924	-5.052666	-2.457373	-0.468994	-4.677965	-0.869895	2.856284	1.575383	-0.287109	-0.282471	0.775879	0.015257	0.021091	-0.050841	-0.158730	-0.864312	-0.236412	-0.414582	142.172762	-39.911692	44.779138
40584		1.877625	2.252234	-5.079257	-2.458952	-0.524680	-4.514448	-0.698683	3.146752	1.796473	-0.315674	-0.282471	0.754150	0.017771	0.022507	-0.051156	-0.154277	-0.859237	-0.229622	-0.430330	141.513241	-41.963731	45.174382
40585		1.981113	3.226779	-5.364949	-2.560960	-1.394780	-3.929669	-0.472332	3.429643	2.012697	-0.354004	-0.291016	0.734375	0.018561	0.032331	-0.054051	-0.147997	-0.853650	-0.222511	-0.447065	140.936844	-44.219799	45.620616
40586		2.132096	3.526867	-5.307596	-2.561760	-1.725111	-3.845317	-0.375524	3.699562	2.225828	-0.382324	-0.285400	0.726318	0.019940	0.035395	-0.053520	-0.140470	-0.847406	-0.214823	-0.464783	140.364144	-46.666101	46.122030
40587		2.086892	3.420671	-5.378006	-2.875719	-1.813369	-4.032286	-0.408973	3.917096	2.389576	-0.423340	-0.285645	0.714355	0.019400	0.034334	-0.054240	-0.132394	-0.840376	-0.206396	-0.483364	139.699929	-49.267479	46.699530
40588		2.150767	3.720873	-5.882605	-3.439910	-2.206021	-3.782272	-0.457470	4.108745	2.500836	-0.465820	-0.276611	0.686768	0.019826	0.037328	-0.059330	-0.123988	-0.832507	-0.197409	-0.502582	138.897866	-51.985313	47.397574
40589		2.382642	4.103859	-6.637291	-4.180744	-2.623889	-3.316942	-0.505245	4.311432	2.585151	-0.493652	-0.279053	0.665039	0.021855	0.041161	-0.066962	-0.115325	-0.823673	-0.187910	-0.522448	137.895950	-54.816577	48.277038
40590		2.830394	4.176918	-6.816634	-4.429139	-2.704690	-3.106346	-0.505491	4.524088	2.652972	-0.536865	-0.262451	0.646729	0.026195	0.041953	-0.068881	-0.106180	-0.813801	-0.178176	-0.542870	136.652792	-57.751117	49.422754
40591		3.516847	3.665880	-6.677748	-4.440230	-2.177479	-3.035911	-0.442611	4.710841	2.729867	-0.569336	-0.255615	0.616455	0.033078	0.036971	-0.067655	-0.096361	-0.802936	-0.168227	-0.563656	135.134766	-60.778460	50.885815
40592		4.494281	3.244096	-6.613757	-4.452208	-1.659735	-2.610734	-0.286640	4.855311	2.828374	-0.607178	-0.250488	0.585205	0.042855	0.032961	-0.067242	-0.085410	-0.791207	-0.158308	-0.584496	133.336352	-63.879795	52.730117
