// General information: 
//  MT Manager version: 2019.2.0 
//  XDA version: 2019.2.0 build 3853 rev 94535 built on 2019-09-09
// Device information: 
//  DeviceId: 00B47795
//  ProductCode: MTW2-3A7G6
//  Firmware Version: 4.6.0
//  Hardware Version: 2.0.0
// Device settings: 
//  Filter Profile: human(46.1)
//  Option Flags: Orientation Smoother Disabled, AHS Disabled, ICC Disabled
// Coordinate system: ENU
PacketCounter	SampleTimeFine	Acc_X	Acc_Y	Acc_Z	FreeAcc_E	FreeAcc_N	FreeAcc_U	Gyr_X	Gyr_Y	Gyr_Z	Mag_X	Mag_Y	Mag_Z	VelInc_X	VelInc_Y	VelInc_Z	Quat_q0	Quat_q1	Quat_q2	Quat_q3	Roll	Pitch	Yaw
40054		9.696206	-0.428285	-0.301894	-0.002755	0.071414	-0.102597	0.035582	0.003308	0.005550	-0.879395	0.338867	0.263184	0.096962	-0.004280	-0.003021	0.306383	-0.657919	-0.292261	-0.622780	-133.052757	-86.931038	3.158863
40055		9.736752	-0.419193	-0.266225	0.029096	0.092738	-0.063765	0.021471	0.005381	0.011916	-0.880615	0.332764	0.274414	0.097368	-0.004186	-0.002665	0.306472	-0.657880	-0.292315	-0.622752	-132.989980	-86.930820	3.108869
40056		9.809931	-0.429733	-0.313665	-0.005260	0.062807	0.011458	-0.002620	0.004677	0.012736	-0.882324	0.334473	0.260498	0.098100	-0.004291	-0.003139	0.306482	-0.657885	-0.292289	-0.622755	-132.940754	-86.929571	3.058239
40057		9.843111	-0.303476	-0.336843	0.078383	-0.036295	0.040481	-0.007117	0.007549	0.009546	-0.875488	0.335938	0.264404	0.098431	-0.003030	-0.003372	0.306473	-0.657879	-0.292258	-0.622780	-132.894654	-86.931189	3.008544
40058		9.730411	-0.237479	-0.309961	0.140035	-0.058853	-0.075629	-0.020960	0.007317	0.012880	-0.870117	0.327637	0.269775	0.097304	-0.002369	-0.003103	0.306431	-0.657900	-0.292172	-0.622818	-132.829997	-86.931162	2.932457
40059		9.632107	-0.299818	-0.348182	0.062624	-0.048942	-0.169955	-0.030918	0.005187	0.013615	-0.880859	0.334473	0.264404	0.096321	-0.002992	-0.003484	0.306353	-0.657944	-0.292058	-0.622864	-132.786440	-86.930145	2.871651
40060		9.661449	-0.410616	-0.418298	-0.065505	-0.031864	-0.133748	-0.023392	0.006052	0.010734	-0.880615	0.331787	0.260742	0.096615	-0.004101	-0.004185	0.306289	-0.657973	-0.291972	-0.622905	-132.755200	-86.930421	2.827029
40061		9.765190	-0.350065	-0.470032	-0.046948	-0.110528	-0.030664	-0.011323	0.008759	0.009610	-0.876709	0.325928	0.259277	0.097652	-0.003496	-0.004704	0.306268	-0.657970	-0.291926	-0.622940	-132.701432	-86.932474	2.767241
40062		9.774703	-0.333014	-0.383967	0.021759	-0.055783	-0.024963	-0.003569	0.000875	0.012133	-0.878906	0.334229	0.267578	0.097747	-0.003324	-0.003840	0.306270	-0.657982	-0.291909	-0.622935	-132.685756	-86.930595	2.750180
40063		9.785830	-0.327265	-0.330762	0.061120	-0.018872	-0.016010	0.000072	0.003638	0.011850	-0.875244	0.332764	0.256836	0.097858	-0.003267	-0.003309	0.306286	-0.657981	-0.291898	-0.622932	-132.649442	-86.929712	2.714409
40064		9.766974	-0.358552	-0.266435	0.077773	0.050161	-0.035941	-0.015304	0.001227	0.015073	-0.883057	0.337646	0.265137	0.097670	-0.003578	-0.002665	0.306259	-0.658016	-0.291833	-0.622939	-132.614767	-86.926406	2.671535
40065		9.751931	-0.378487	-0.260747	0.065914	0.066925	-0.050383	-0.024319	0.002902	0.016411	-0.876465	0.334961	0.272705	0.097520	-0.003777	-0.002608	0.306208	-0.658061	-0.291733	-0.622964	-132.565384	-86.923312	2.608681
40066		9.810104	-0.407921	-0.302977	0.020163	0.053115	0.010404	-0.029739	0.002621	0.018899	-0.876953	0.333252	0.267334	0.098101	-0.004070	-0.003030	0.306146	-0.658123	-0.291605	-0.622989	-132.503757	-86.918634	2.530066
40067		9.908246	-0.461209	-0.317005	-0.023612	0.076574	0.111028	-0.030397	-0.001120	0.014544	-0.879883	0.331787	0.270264	0.099083	-0.004605	-0.003169	0.306063	-0.658187	-0.291498	-0.623012	-132.503065	-86.914766	2.512486
40068		9.812786	-0.354166	-0.322458	0.050367	0.003497	0.011652	-0.037641	-0.001917	0.013672	-0.880127	0.334961	0.268066	0.098128	-0.003536	-0.003223	0.305949	-0.658267	-0.291370	-0.623043	-132.521684	-86.910677	2.509576
40069		9.686746	-0.317964	-0.323564	0.071322	-0.020892	-0.115609	-0.054197	-0.001086	0.017884	-0.879395	0.333984	0.270996	0.096868	-0.003172	-0.003234	0.305799	-0.658372	-0.291179	-0.623095	-132.510448	-86.905411	2.467780
40070		9.688116	-0.443196	-0.409403	-0.078649	-0.006116	-0.106123	-0.064123	0.001528	0.017182	-0.882080	0.330811	0.263428	0.096882	-0.004425	-0.004093	0.305615	-0.658487	-0.290951	-0.623171	-132.491091	-86.901118	2.411701
40071		9.775270	-0.390428	-0.423606	-0.042119	-0.050787	-0.020679	-0.056621	0.000032	0.015016	-0.880859	0.333496	0.265137	0.097753	-0.003898	-0.004235	0.305449	-0.658588	-0.290760	-0.623234	-132.493177	-86.897495	2.381855
40072		9.820863	-0.302590	-0.433463	0.021734	-0.114885	0.021698	-0.056315	0.000732	0.017549	-0.877686	0.336670	0.270020	0.098209	-0.003019	-0.004334	0.305293	-0.658691	-0.290559	-0.623296	-132.470677	-86.893085	2.327570
40073		9.724895	-0.229744	-0.445050	0.065438	-0.171434	-0.076633	-0.060484	0.004952	0.023180	-0.875732	0.333984	0.261963	0.097249	-0.002288	-0.004452	0.305147	-0.658794	-0.290321	-0.623369	-132.378743	-86.887909	2.201348
40074		9.665746	-0.350488	-0.462585	-0.040077	-0.107779	-0.130216	-0.059039	0.000067	0.025424	-0.873779	0.328369	0.269775	0.096658	-0.003494	-0.004625	0.305007	-0.658916	-0.290086	-0.623419	-132.306070	-86.879600	2.095189
40075		9.673633	-0.515354	-0.443922	-0.152038	0.012086	-0.116370	-0.045718	0.004877	0.028172	-0.873779	0.330322	0.269775	0.096737	-0.005141	-0.004440	0.304924	-0.659004	-0.289877	-0.623463	-132.171933	-86.872256	1.935174
40076		9.804917	-0.554797	-0.534037	-0.231838	-0.032182	0.019638	-0.017357	0.006646	0.026599	-0.876465	0.330811	0.270752	0.098050	-0.005535	-0.005343	0.304929	-0.659045	-0.289757	-0.623473	-132.023623	-86.865989	1.776617
40077		9.848330	-0.490945	-0.516784	-0.168880	-0.061810	0.059767	0.002619	0.013210	0.024445	-0.877441	0.325928	0.273682	0.098484	-0.004897	-0.005174	0.305007	-0.659029	-0.289698	-0.623480	-131.824298	-86.863376	1.579050
40078		9.818558	-0.417658	-0.451587	-0.071887	-0.060849	0.024669	0.011857	0.004493	0.021491	-0.876709	0.332031	0.262695	0.098186	-0.004166	-0.004518	0.305087	-0.659025	-0.289689	-0.623449	-131.715181	-86.858458	1.476293
40079		9.755767	-0.437648	-0.356736	-0.028794	0.023183	-0.040665	0.004077	0.010048	0.019694	-0.877441	0.328857	0.265625	0.097558	-0.004367	-0.003572	0.305150	-0.659009	-0.289655	-0.623450	-131.573314	-86.856623	1.337105
40080		9.715141	-0.449161	-0.391019	-0.061575	0.003158	-0.079507	-0.003173	0.009268	0.018817	-0.873535	0.336182	0.266113	0.097152	-0.004483	-0.003915	0.305185	-0.659006	-0.289603	-0.623461	-131.447734	-86.854861	1.210037
40081		9.738989	-0.449065	-0.316703	-0.011758	0.058471	-0.058390	-0.010988	0.010732	0.024724	-0.869385	0.334473	0.270020	0.097390	-0.004479	-0.003172	0.305215	-0.659018	-0.289505	-0.623478	-131.274881	-86.851084	1.031172
40082		9.749374	-0.478477	-0.269637	-0.002595	0.111984	-0.048498	-0.026386	0.010102	0.020932	-0.877441	0.338623	0.277344	0.097494	-0.004775	-0.002701	0.305181	-0.659054	-0.289370	-0.623520	-131.141440	-86.848219	0.882622
40083		9.749299	-0.480400	-0.268927	-0.003086	0.112677	-0.048506	-0.041501	0.007803	0.020385	-0.871582	0.336426	0.270996	0.097493	-0.004795	-0.002692	0.305093	-0.659115	-0.289196	-0.623579	-131.039361	-86.845166	0.757129
40084		9.707735	-0.447026	-0.264127	0.023898	0.093927	-0.091559	-0.046668	0.005240	0.019829	-0.875977	0.342529	0.274902	0.097078	-0.004461	-0.002643	0.304979	-0.659198	-0.289006	-0.623636	-130.966584	-86.840710	0.657246
40085		9.706947	-0.482613	-0.271000	-0.006856	0.111205	-0.090611	-0.059700	0.001160	0.019601	-0.869385	0.328369	0.279541	0.097070	-0.004817	-0.002709	0.304819	-0.659307	-0.288787	-0.623700	-130.932788	-86.835485	0.589695
40086		9.646567	-0.557808	-0.249554	-0.052634	0.176137	-0.148532	-0.064547	0.001028	0.014586	-0.873291	0.331543	0.275146	0.096466	-0.005572	-0.002494	0.304620	-0.659424	-0.288564	-0.623777	-130.942236	-86.831662	0.561554
40087		9.593095	-0.651707	-0.824295	-0.496869	-0.200031	-0.177088	-0.083302	-0.026297	0.030190	-0.868164	0.338135	0.278320	0.095933	-0.006506	-0.008228	0.304376	-0.659670	-0.288279	-0.623768	-131.064339	-86.811540	0.636597
40088		9.431384	-0.546164	-0.910064	-0.475892	-0.330761	-0.339481	-0.096960	-0.077574	0.044076	-0.865967	0.345947	0.277344	0.094319	-0.005445	-0.009061	0.304050	-0.660123	-0.287977	-0.623587	-131.496174	-86.765342	1.012979
40089		9.732120	-0.416148	-1.167413	-0.519047	-0.605008	-0.034409	-0.087105	-0.104336	0.041774	-0.869385	0.348389	0.287109	0.097328	-0.004146	-0.011622	0.303716	-0.660634	-0.287760	-0.623309	-132.120672	-86.710408	1.589057
40090		9.830002	-0.560706	-1.272841	-0.681992	-0.583921	0.074545	-0.092143	-0.115587	0.046551	-0.863037	0.349609	0.279785	0.098309	-0.005590	-0.012669	0.303362	-0.661203	-0.287520	-0.622988	-132.776070	-86.647479	2.192292
40091		9.661555	-0.722495	-1.185839	-0.747694	-0.405500	-0.088986	-0.078389	-0.121834	0.051592	-0.860107	0.340088	0.282715	0.096625	-0.007205	-0.011797	0.303062	-0.661769	-0.287325	-0.622623	-133.412326	-86.580865	2.785223
40092		9.759342	-0.618750	-0.883142	-0.456063	-0.236002	-0.007391	-0.054453	-0.112493	0.045407	-0.865234	0.345459	0.285156	0.097600	-0.006168	-0.008775	0.302834	-0.662266	-0.287204	-0.622261	-133.987312	-86.519306	3.329973
40093		9.784431	-0.662723	-0.625466	-0.310350	-0.005402	0.009183	-0.029960	-0.108896	0.046393	-0.862061	0.351318	0.287842	0.097849	-0.006605	-0.006200	0.302697	-0.662710	-0.287156	-0.621877	-134.500135	-86.459310	3.827116
40094		9.797240	-0.702100	-0.387057	-0.175014	0.206813	0.013566	-0.012256	-0.094204	0.039263	-0.859375	0.348145	0.288574	0.097976	-0.007002	-0.003824	0.302615	-0.663075	-0.287161	-0.621526	-134.937090	-86.407387	4.258018
40095		9.740670	-0.610906	-0.338797	-0.069562	0.188730	-0.049073	-0.009514	-0.092256	0.043939	-0.858398	0.352539	0.290527	0.097410	-0.006088	-0.003343	0.302562	-0.663432	-0.287160	-0.621171	-135.318027	-86.354677	4.634808
40096		9.585096	-0.579612	-0.329612	-0.040815	0.179593	-0.206193	-0.032653	-0.100646	0.045180	-0.859863	0.343750	0.293457	0.095854	-0.005775	-0.003247	0.302422	-0.663855	-0.287093	-0.620818	-135.745791	-86.297589	5.044957
40097		9.721316	-0.551817	-0.508473	-0.118089	0.032163	-0.063224	-0.032727	-0.102961	0.045867	-0.857666	0.350098	0.294189	0.097217	-0.005497	-0.005034	0.302281	-0.664283	-0.287029	-0.620458	-136.170105	-86.239362	5.451935
40098		9.871328	-0.539382	-0.700606	-0.214257	-0.114684	0.095179	-0.033170	-0.108306	0.044715	-0.860107	0.355469	0.294189	0.098718	-0.005373	-0.006952	0.302126	-0.664729	-0.286973	-0.620082	-136.621406	-86.178953	5.885293
40099		9.793144	-0.392881	-0.745351	-0.127909	-0.238455	0.012908	-0.053806	-0.110711	0.046729	-0.858398	0.353516	0.287354	0.097936	-0.003908	-0.007398	0.301907	-0.665214	-0.286853	-0.619725	-137.071347	-86.116746	6.305909
40100		9.610335	-0.385626	-0.784148	-0.150313	-0.267856	-0.167596	-0.076082	-0.103563	0.048896	-0.851318	0.354248	0.297363	0.096108	-0.003836	-0.007790	0.301630	-0.665714	-0.286644	-0.619418	-137.467190	-86.056280	6.659448
40101		9.513438	-0.668757	-0.797721	-0.370207	-0.088067	-0.250037	-0.077315	-0.102640	0.050603	-0.856934	0.354980	0.303467	0.095140	-0.006667	-0.007926	0.301356	-0.666214	-0.286426	-0.619115	-137.836599	-85.995604	6.985897
40102		9.667437	-0.941087	-0.734204	-0.514077	0.145013	-0.086499	-0.041623	-0.100331	0.049693	-0.860107	0.349365	0.299805	0.096680	-0.009388	-0.007292	0.301200	-0.666654	-0.286315	-0.618769	-138.168930	-85.935897	7.295370
40103		9.916611	-0.879537	-0.594720	-0.349569	0.218133	0.152084	0.013176	-0.107734	0.039334	-0.856689	0.348389	0.301025	0.099171	-0.008775	-0.005894	0.301185	-0.667017	-0.286421	-0.618335	-138.560907	-85.877052	7.696472
40104		9.798650	-0.707491	-0.339381	-0.051749	0.303660	0.012503	0.040193	-0.117056	0.042755	-0.849854	0.354980	0.297363	0.097990	-0.007053	-0.003338	0.301256	-0.667376	-0.286611	-0.617826	-138.954565	-85.812471	8.114398
40105		9.683446	-0.512083	-0.110778	0.246937	0.354725	-0.124715	0.039989	-0.136341	0.038262	-0.859619	0.368896	0.303711	0.096836	-0.005102	-0.001043	0.301286	-0.667784	-0.286847	-0.617260	-139.458428	-85.741205	8.643162
40106		9.624015	-0.511249	-0.055428	0.291033	0.404211	-0.187824	0.019177	-0.159746	0.042843	-0.854492	0.353271	0.306152	0.096242	-0.005092	-0.000478	0.301227	-0.668305	-0.287037	-0.616637	-140.044338	-85.657411	9.242235
40107		9.569619	-0.652132	0.080304	0.282310	0.608562	-0.244027	0.016813	-0.181263	0.045721	-0.847656	0.354004	0.311768	0.095697	-0.006500	0.000889	0.301137	-0.668897	-0.287244	-0.615942	-140.693425	-85.562820	9.903447
40108		9.671688	-0.629285	0.001078	0.270457	0.546844	-0.139770	0.012260	-0.201561	0.042022	-0.856201	0.362305	0.305420	0.096718	-0.006273	0.000108	0.300990	-0.669555	-0.287476	-0.615190	-141.430170	-85.459685	10.649573
40109		9.723081	-0.519805	-0.146060	0.277317	0.378317	-0.085932	-0.001397	-0.222406	0.040462	-0.855957	0.360596	0.305664	0.097233	-0.005178	-0.001352	0.300764	-0.670292	-0.287705	-0.614390	-142.240260	-85.347156	11.462029
40110		9.627764	-0.181838	-0.263101	0.465758	0.082466	-0.191234	-0.022836	-0.237630	0.037249	-0.854736	0.359863	0.312744	0.096281	-0.001801	-0.002516	0.300434	-0.671104	-0.287901	-0.613573	-143.104260	-85.227657	12.316294
40111		9.577015	-0.175515	-0.490166	0.336287	-0.078499	-0.227752	-0.061829	-0.245660	0.045115	-0.846680	0.368896	0.318604	0.095776	-0.001735	-0.004783	0.299985	-0.672008	-0.287963	-0.612774	-143.937584	-85.100963	13.117597
40112		9.490461	-0.362033	-0.800744	0.004342	-0.176820	-0.283271	-0.082061	-0.249425	0.046767	-0.843750	0.363525	0.317139	0.094915	-0.003601	-0.007888	0.299466	-0.672957	-0.287961	-0.611986	-144.746173	-84.970807	13.882370
40113		9.538954	-0.604887	-1.037407	-0.310433	-0.178981	-0.205123	-0.061195	-0.253139	0.045322	-0.843994	0.358887	0.324219	0.095404	-0.006030	-0.010251	0.299009	-0.673881	-0.288035	-0.611158	-145.524311	-84.838677	14.628948
40114		9.690556	-0.666565	-1.150851	-0.398935	-0.203968	-0.041565	-0.031396	-0.251690	0.044027	-0.840820	0.354004	0.329590	0.096921	-0.006646	-0.011386	0.298647	-0.674755	-0.288199	-0.610292	-146.248913	-84.706585	15.338754
40115		9.743618	-0.719755	-1.286385	-0.503617	-0.253306	0.025660	-0.018005	-0.253848	0.044843	-0.847900	0.368408	0.322266	0.097454	-0.007177	-0.012740	0.298332	-0.675614	-0.288407	-0.609398	-146.934136	-84.572625	16.017181
40116		9.697746	-0.711180	-1.278902	-0.477530	-0.237727	-0.019677	-0.010586	-0.250568	0.041098	-0.844727	0.364502	0.319824	0.096995	-0.007093	-0.012667	0.298032	-0.676447	-0.288642	-0.608508	-147.590299	-84.440457	16.670494
40117		9.692855	-0.717082	-1.211645	-0.420159	-0.166899	-0.028553	-0.012932	-0.243991	0.043162	-0.833984	0.364746	0.336426	0.096945	-0.007151	-0.011998	0.297742	-0.677264	-0.288855	-0.607640	-148.187535	-84.310392	17.263729
40118		9.802463	-1.041153	-1.331640	-0.713913	-0.025912	0.108762	0.005036	-0.233456	0.039644	-0.838135	0.364258	0.340332	0.098042	-0.010392	-0.013202	0.297516	-0.678017	-0.289116	-0.606786	-148.733840	-84.185728	17.816057
40119		9.905247	-1.212438	-1.500017	-0.925534	-0.021948	0.236036	0.029947	-0.225803	0.024949	-0.831543	0.354980	0.331543	0.099071	-0.012110	-0.014890	0.297341	-0.678686	-0.289493	-0.605943	-149.291305	-84.068855	18.394267
40120		9.858297	-0.938503	-1.483496	-0.697060	-0.175269	0.174851	0.054955	-0.219883	0.017194	-0.831055	0.361572	0.336182	0.098600	-0.009372	-0.014729	0.297233	-0.679291	-0.289960	-0.605095	-149.832522	-83.956350	18.970199
40121		9.667422	-0.722737	-1.409780	-0.490259	-0.252706	-0.031858	0.046291	-0.214969	0.020584	-0.836914	0.359863	0.344238	0.096690	-0.007214	-0.013996	0.297115	-0.679895	-0.290384	-0.604270	-150.329916	-83.845022	19.497654
40122		9.578258	-0.754494	-1.437057	-0.526630	-0.241418	-0.115173	0.026831	-0.200099	0.013242	-0.833008	0.367432	0.337891	0.095797	-0.007537	-0.014276	0.296928	-0.680474	-0.290749	-0.603534	-150.815466	-83.742446	20.001607
40123		9.652585	-0.907292	-1.425799	-0.614071	-0.116158	-0.033226	0.023542	-0.190986	0.006377	-0.833496	0.365234	0.339600	0.096540	-0.009068	-0.014167	0.296724	-0.681018	-0.291117	-0.602844	-151.295671	-83.646145	20.498862
40124		9.674286	-0.987125	-1.327648	-0.596347	0.024685	-0.016126	0.050487	-0.184651	0.001833	-0.827393	0.362305	0.335449	0.096755	-0.009867	-0.013190	0.296607	-0.681497	-0.291570	-0.602141	-151.750624	-83.553569	20.986141
40125		9.649856	-0.869566	-1.147065	-0.381810	0.096923	-0.064025	0.061814	-0.187981	-0.007067	-0.835693	0.357178	0.343994	0.096509	-0.008696	-0.011383	0.296496	-0.681953	-0.292094	-0.601424	-152.233327	-83.461525	21.508162
40126		9.642141	-0.709822	-0.998730	-0.154984	0.118739	-0.094969	0.051477	-0.190433	-0.012365	-0.829590	0.369629	0.342041	0.096430	-0.007102	-0.009897	0.296330	-0.682427	-0.292606	-0.600720	-152.736236	-83.368859	22.044355
40127		9.628722	-0.685768	-0.788327	0.008530	0.276992	-0.131406	0.023328	-0.198510	-0.019128	-0.832520	0.368896	0.349365	0.096294	-0.006866	-0.007788	0.296036	-0.682953	-0.293070	-0.600040	-153.288286	-83.273540	22.614190
40128		9.596215	-0.767999	-0.652630	0.041457	0.448684	-0.174222	-0.009748	-0.210689	-0.023055	-0.835205	0.367188	0.353027	0.095968	-0.007691	-0.006425	0.295599	-0.683560	-0.293465	-0.599371	-153.885435	-83.172041	23.210306
40129		9.564294	-0.837223	-0.576861	0.045870	0.568076	-0.211407	-0.041206	-0.225294	-0.029246	-0.829834	0.365967	0.351318	0.095648	-0.008387	-0.005659	0.295014	-0.684246	-0.293809	-0.598708	-154.539501	-83.064058	23.845894
40130		9.592977	-0.797414	-0.612597	0.068105	0.536767	-0.182343	-0.075562	-0.245741	-0.032365	-0.834229	0.363770	0.357178	0.095936	-0.007992	-0.006005	0.294271	-0.685040	-0.294088	-0.598028	-155.245487	-82.945063	24.513796
40131		9.736372	-0.701197	-0.690239	0.119490	0.445078	-0.037585	-0.107610	-0.263227	-0.040357	-0.839600	0.370361	0.352783	0.097371	-0.007035	-0.006770	0.293369	-0.685918	-0.294327	-0.597346	-156.013114	-82.818057	25.225807
40132		9.799982	-0.498486	-0.747101	0.256123	0.297652	0.020523	-0.151164	-0.277779	-0.049399	-0.830322	0.362793	0.355469	0.098009	-0.005015	-0.007331	0.292268	-0.686891	-0.294485	-0.596690	-156.841640	-82.684013	25.974053
40133		9.598288	-0.531339	-0.792532	0.192366	0.300369	-0.173691	-0.196064	-0.295998	-0.055285	-0.826172	0.362305	0.358398	0.095993	-0.005348	-0.007778	0.290969	-0.687970	-0.294557	-0.596045	-157.722164	-82.540499	26.749228
40134		9.436402	-0.622369	-0.821566	0.100294	0.357090	-0.327417	-0.222756	-0.312417	-0.059663	-0.824219	0.361084	0.361572	0.094375	-0.006261	-0.008061	0.289538	-0.689131	-0.294586	-0.595386	-158.628881	-82.387406	27.535497
40135		9.546055	-0.638696	-0.849854	0.096916	0.382846	-0.215745	-0.243614	-0.318738	-0.063165	-0.818359	0.360596	0.378174	0.095472	-0.006427	-0.008339	0.288016	-0.690331	-0.294575	-0.594740	-159.537875	-82.230271	28.312451
40136		9.656077	-0.607565	-0.931075	0.095393	0.339762	-0.099232	-0.247853	-0.336796	-0.069435	-0.824951	0.353516	0.368164	0.096574	-0.006121	-0.009141	0.286431	-0.691581	-0.294594	-0.594044	-160.464132	-82.062760	29.104321
40137		9.515342	-0.544060	-0.939788	0.135746	0.314182	-0.241706	-0.262800	-0.348398	-0.068561	-0.823242	0.353271	0.376465	0.095168	-0.005485	-0.009225	0.284779	-0.692882	-0.294584	-0.593326	-161.375726	-81.887323	29.873425
40138		9.414951	-0.492630	-0.983436	0.149589	0.273766	-0.338845	-0.290089	-0.369196	-0.067835	-0.826172	0.357422	0.381104	0.094166	-0.004972	-0.009653	0.283002	-0.694283	-0.294516	-0.592571	-162.288497	-81.698522	30.627971
40139		9.523401	-0.483426	-1.044943	0.147110	0.265128	-0.224742	-0.316475	-0.393014	-0.068240	-0.825928	0.353760	0.386719	0.095253	-0.004883	-0.010255	0.281097	-0.695786	-0.294406	-0.591770	-163.207981	-81.495280	31.374696
40140		9.587717	-0.552614	-1.064878	0.109768	0.338884	-0.156776	-0.335991	-0.409892	-0.068883	-0.817383	0.349609	0.385498	0.095897	-0.005577	-0.010443	0.279094	-0.697362	-0.294259	-0.590935	-164.118327	-81.280933	32.101023
40141		9.571689	-0.598236	-1.017406	0.125525	0.442272	-0.179479	-0.359848	-0.429907	-0.071679	-0.813477	0.353271	0.396729	0.095736	-0.006035	-0.009957	0.276969	-0.699018	-0.294080	-0.590066	-165.032577	-81.054462	32.818149
40142		9.510854	-0.604178	-1.053018	0.110991	0.455884	-0.236160	-0.370095	-0.452051	-0.077889	-0.812988	0.350098	0.393311	0.095130	-0.006098	-0.010304	0.274755	-0.700742	-0.293918	-0.589137	-165.951932	-80.814666	33.534731
40143		9.753909	-0.453082	-1.066870	0.267362	0.408055	-0.002282	-0.389212	-0.467614	-0.087307	-0.811523	0.341064	0.404297	0.097562	-0.004594	-0.010432	0.272421	-0.702515	-0.293754	-0.588190	-166.885329	-80.565873	34.255165
40144		9.831545	-0.414565	-0.948597	0.408039	0.520163	0.051069	-0.418185	-0.484448	-0.089224	-0.816406	0.339355	0.396484	0.098336	-0.004209	-0.009239	0.269951	-0.704369	-0.293530	-0.587223	-167.809970	-80.305866	34.950216
40145		9.666471	-0.367043	-0.887658	0.484538	0.562215	-0.127016	-0.440340	-0.503127	-0.100082	-0.818604	0.339844	0.415771	0.096685	-0.003738	-0.008625	0.267342	-0.706283	-0.293302	-0.586231	-168.752564	-80.034980	35.651357
40146		9.577180	-0.159256	-0.841923	0.678300	0.491231	-0.233807	-0.474764	-0.532578	-0.104150	-0.811523	0.340576	0.428711	0.095793	-0.001662	-0.008160	0.264553	-0.708315	-0.293023	-0.585183	-169.699765	-79.745852	36.337656
40147		9.443877	-0.123616	-0.746195	0.775656	0.570157	-0.387619	-0.511464	-0.573146	-0.102102	-0.808105	0.341553	0.424072	0.094459	-0.001303	-0.007188	0.261576	-0.710507	-0.292679	-0.584035	-170.638294	-79.431838	36.994501
40148		9.430225	0.103295	-0.661550	1.023333	0.522572	-0.428825	-0.549174	-0.618553	-0.101425	-0.815674	0.333252	0.430664	0.094323	0.000967	-0.006327	0.258397	-0.712871	-0.292276	-0.582770	-171.569419	-79.090024	37.622339
40149		9.502916	0.301709	-0.562313	1.275623	0.515585	-0.388290	-0.594241	-0.663796	-0.094949	-0.809814	0.322510	0.442871	0.095049	0.002956	-0.005317	0.255005	-0.715420	-0.291773	-0.581390	-172.478552	-78.720328	38.202386
40150		9.548759	0.518337	-0.467824	1.536499	0.489553	-0.375236	-0.634269	-0.704234	-0.085108	-0.792236	0.323975	0.459961	0.095506	0.005129	-0.004358	0.251434	-0.718138	-0.291162	-0.579899	-173.348505	-78.325146	38.719601
40151		9.484411	0.774671	-0.497308	1.724492	0.334351	-0.447034	-0.681419	-0.737093	-0.082448	-0.802002	0.324951	0.454102	0.094865	0.007691	-0.004650	0.247648	-0.720996	-0.290441	-0.578342	-174.202704	-77.909687	39.194091
40152		9.407579	0.889687	-0.598035	1.762023	0.227504	-0.512426	-0.705315	-0.782476	-0.063343	-0.793701	0.319824	0.467041	0.094101	0.008847	-0.005643	0.243757	-0.724024	-0.289628	-0.576617	-174.987221	-77.465878	39.583681
40153		9.288549	0.942722	-0.787959	1.688794	0.099008	-0.597239	-0.726129	-0.833650	-0.049993	-0.788574	0.311035	0.481934	0.092920	0.009376	-0.007526	0.239749	-0.727222	-0.288763	-0.574704	-175.721086	-76.991240	39.910128
40154		9.317532	1.057008	-1.032224	1.647487	-0.086610	-0.524148	-0.735825	-0.882159	-0.025716	-0.782227	0.305908	0.485352	0.093221	0.010521	-0.009950	0.235697	-0.730584	-0.287828	-0.572581	-176.372666	-76.487033	40.146599
40155		9.421327	1.163299	-1.324802	1.582344	-0.283875	-0.363622	-0.742318	-0.921608	-0.006289	-0.776367	0.292725	0.494141	0.094273	0.011582	-0.012857	0.231613	-0.734069	-0.286843	-0.570280	-176.957396	-75.959103	40.311298
40156		9.488363	1.078051	-1.522612	1.449261	-0.278995	-0.255974	-0.756467	-0.969885	0.017485	-0.770020	0.303223	0.502930	0.094955	0.010732	-0.014806	0.227465	-0.737717	-0.285772	-0.567775	-177.475587	-75.402504	40.398807
40157		9.681561	0.901059	-1.533970	1.416498	-0.058109	-0.071689	-0.767189	-1.009921	0.047708	-0.763184	0.293701	0.516113	0.096889	0.008976	-0.014885	0.223299	-0.741503	-0.284597	-0.565080	-177.917731	-74.822151	40.402042
40158		10.030624	0.978240	-1.758756	1.443788	-0.132724	0.314535	-0.773341	-1.047997	0.075436	-0.772705	0.285889	0.524170	0.100393	0.009754	-0.017099	0.219124	-0.745413	-0.283330	-0.562200	-178.293294	-74.219479	40.332158
40159		10.231670	0.918964	-1.672843	1.579547	0.073709	0.474618	-0.775930	-1.080299	0.110185	-0.754639	0.284912	0.528809	0.102400	0.009182	-0.016211	0.214983	-0.749432	-0.281952	-0.559139	-178.593728	-73.597883	40.182713
40160		10.379383	0.893734	-1.591406	1.732424	0.242020	0.579717	-0.773183	-1.104670	0.148347	-0.760742	0.290039	0.540771	0.103873	0.008954	-0.015375	0.210914	-0.753538	-0.280450	-0.555917	-178.816935	-72.962056	39.953398
40161		10.634753	1.099836	-1.795813	1.864907	0.076668	0.866623	-0.739111	-1.156927	0.184365	-0.749512	0.279785	0.564941	0.106439	0.011031	-0.017383	0.206991	-0.757767	-0.278951	-0.552386	-178.958928	-72.296077	39.659038
40162		10.707455	1.030786	-1.619897	2.058721	0.324935	0.863968	-0.706180	-1.216334	0.193900	-0.738770	0.269043	0.565674	0.107161	0.010356	-0.015584	0.203125	-0.762102	-0.277552	-0.548548	-179.073712	-71.596228	39.354445
40163		10.482516	0.748931	-1.798384	1.793676	0.461682	0.687139	-0.624346	-1.281503	0.172187	-0.733887	0.275146	0.576660	0.104931	0.007525	-0.017335	0.199412	-0.766464	-0.276515	-0.544341	-179.187728	-70.859366	39.097630
40164		10.590985	0.601794	-1.799349	1.833923	0.677197	0.767731	-0.518124	-1.339990	0.174849	-0.717529	0.274902	0.590576	0.106022	0.006065	-0.017299	0.196020	-0.770844	-0.275797	-0.539734	-179.244872	-70.089191	38.843352
40165		10.665116	0.525265	-1.561218	2.094086	0.976596	0.728528	-0.377603	-1.397928	0.202260	-0.710449	0.280762	0.604492	0.106751	0.005332	-0.014876	0.193156	-0.775238	-0.275398	-0.534652	-179.190299	-69.285518	38.555055
40166		10.573964	0.623006	-1.600625	2.227414	0.938781	0.623506	-0.235669	-1.463849	0.216699	-0.697021	0.271973	0.612793	0.105846	0.006326	-0.015239	0.190777	-0.779649	-0.275369	-0.529078	-179.049497	-68.443914	38.259513
40167		10.650953	0.839462	-1.584668	2.529942	0.880545	0.650604	-0.111242	-1.523937	0.220366	-0.682861	0.264648	0.621338	0.106617	0.008504	-0.015039	0.188801	-0.784060	-0.275699	-0.523063	-178.851766	-67.567406	37.978125
40168		10.709260	1.045684	-1.552304	2.840102	0.837627	0.647765	-0.016039	-1.586315	0.235975	-0.682129	0.275146	0.633301	0.107199	0.010582	-0.014674	0.187138	-0.788518	-0.276253	-0.516627	-178.599712	-66.654745	37.694416
40169		10.860898	1.109438	-1.741307	2.941629	0.801403	0.813878	0.049576	-1.638857	0.269270	-0.667725	0.271973	0.645996	0.108732	0.011245	-0.016520	0.185737	-0.793043	-0.276881	-0.509825	-178.290131	-65.710760	37.387680
40170		10.952830	1.242096	-1.766555	3.193937	0.794756	0.854651	0.111308	-1.690245	0.282236	-0.652588	0.270752	0.653564	0.109655	0.012585	-0.016732	0.184528	-0.797603	-0.277638	-0.502689	-177.955044	-64.736676	37.088833
40171		10.908424	1.070754	-1.781482	3.223160	0.997833	0.766833	0.148134	-1.741315	0.298225	-0.641357	0.279297	0.667480	0.109218	0.010883	-0.016856	0.183423	-0.802219	-0.278455	-0.495241	-177.606042	-63.732016	36.796175
40172		10.915975	0.792925	-2.049353	3.034213	1.154558	0.838330	0.215175	-1.794598	0.311431	-0.641357	0.277588	0.681641	0.109325	0.008121	-0.019504	0.182528	-0.806858	-0.279406	-0.487438	-177.230696	-62.696043	36.513601
40173		10.871075	0.316543	-2.483217	2.597149	1.359493	0.950666	0.303177	-1.836084	0.326281	-0.618652	0.277344	0.683838	0.108927	0.003380	-0.023828	0.181953	-0.811469	-0.280530	-0.479285	-176.815597	-61.634730	36.241268
40174		10.866461	-0.624476	-3.232699	1.680442	1.757414	1.278035	0.427390	-1.841260	0.344020	-0.610840	0.293457	0.693359	0.108967	-0.005990	-0.031338	0.181898	-0.815930	-0.281853	-0.470882	-176.336950	-60.569284	35.973942
40175		10.975024	-1.723205	-4.014978	0.700870	2.285826	1.755400	0.573845	-1.803512	0.358930	-0.596191	0.293457	0.701172	0.110137	-0.016921	-0.039207	0.182515	-0.820115	-0.283405	-0.462365	-175.783310	-59.523318	35.715086
40176		11.083805	-1.894288	-4.677430	0.401166	2.152686	2.167240	0.752043	-1.732229	0.375665	-0.578125	0.296875	0.706787	0.111273	-0.018560	-0.045882	0.183984	-0.823919	-0.285206	-0.453833	-175.133593	-58.516472	35.459966
40177		10.951580	-1.830902	-5.438102	0.099082	1.697182	2.433465	0.862687	-1.655627	0.401734	-0.564453	0.311035	0.714844	0.109998	-0.017856	-0.053549	0.186062	-0.827410	-0.287057	-0.445390	-174.417756	-57.550020	35.199484
40178		10.363080	-1.836194	-6.105375	-0.379037	1.189402	2.290152	0.925817	-1.579528	0.434064	-0.558105	0.318848	0.718262	0.104148	-0.017856	-0.060316	0.188563	-0.830645	-0.288813	-0.437105	-173.657522	-56.623750	34.925639
40179		9.782708	-1.574352	-6.392514	-0.450389	0.678400	1.950725	0.925503	-1.499214	0.463319	-0.542236	0.318359	0.726074	0.098339	-0.015222	-0.063261	0.191229	-0.833675	-0.290352	-0.429084	-172.890718	-55.738885	34.641625
40180		9.362457	-1.231103	-6.505849	-0.301286	0.245330	1.647829	0.866503	-1.407192	0.495865	-0.531738	0.336914	0.732178	0.094109	-0.011798	-0.064449	0.193835	-0.836546	-0.291512	-0.421473	-172.145568	-54.902377	34.339049
40181		8.864603	-1.187905	-6.555721	-0.362103	0.043400	1.270379	0.757771	-1.298629	0.535787	-0.520752	0.329346	0.734375	0.089100	-0.011394	-0.065023	0.196217	-0.839294	-0.292157	-0.414402	-171.440625	-54.121544	34.007197
40182		8.234145	-1.558500	-6.514742	-0.727627	0.153326	0.775850	0.660611	-1.168410	0.556469	-0.500488	0.343018	0.734619	0.082763	-0.015141	-0.064715	0.198410	-0.841850	-0.292362	-0.407979	-170.779785	-53.410797	33.656807
40183		7.758605	-1.949587	-6.551595	-1.101129	0.276479	0.464953	0.560557	-1.017166	0.563745	-0.495605	0.354248	0.735596	0.077972	-0.019093	-0.065174	0.200412	-0.844166	-0.292175	-0.402308	-170.168915	-52.782128	33.295229
40184		7.385602	-1.988081	-6.406614	-1.115643	0.266866	0.098289	0.452340	-0.821095	0.539820	-0.488281	0.345215	0.744629	0.074171	-0.019536	-0.063807	0.202187	-0.846133	-0.291657	-0.397637	-169.626081	-52.264709	32.937607
40185		7.257591	-1.164912	-5.649522	-0.134185	0.039607	-0.543019	0.349168	-0.532704	0.441801	-0.486572	0.354980	0.746826	0.072751	-0.011390	-0.056322	0.203748	-0.847468	-0.291059	-0.394423	-169.184424	-51.917790	32.632096
40186		7.113582	0.052501	-4.271464	1.395705	-0.136327	-1.634391	0.257153	-0.165705	0.287274	-0.469238	0.363770	0.747559	0.071170	0.000682	-0.042655	0.205143	-0.847942	-0.290547	-0.393056	-168.860220	-51.793320	32.406520
40187		6.756362	-0.085337	-3.148514	1.748002	0.479411	-2.581956	0.096306	0.186627	0.143472	-0.472900	0.363281	0.748779	0.067535	-0.000790	-0.031549	0.206088	-0.847676	-0.289976	-0.393558	-168.681750	-51.881886	32.250415
40188		6.793680	-1.302607	-2.877212	1.105038	1.536857	-2.563821	-0.023809	0.516206	-0.018159	-0.481445	0.360352	0.745605	0.067861	-0.013036	-0.028946	0.206680	-0.846648	-0.289503	-0.395801	-168.639783	-52.174033	32.179164
40189		6.848525	-2.242363	-2.939203	0.443761	2.192049	-2.358357	-0.003224	0.846238	-0.153855	-0.484131	0.349609	0.742920	0.068343	-0.022477	-0.029681	0.207569	-0.844738	-0.289310	-0.399541	-168.635750	-52.666459	32.172440
40190		7.188720	-2.363540	-2.848100	0.524905	2.403591	-2.110597	0.040376	1.141070	-0.222021	-0.489014	0.350342	0.729248	0.071697	-0.023709	-0.028895	0.208921	-0.842075	-0.289167	-0.404531	-168.613062	-53.332651	32.171969
40191		7.629935	-2.292012	-2.703163	0.790579	2.519319	-1.824999	0.034124	1.408181	-0.253292	-0.499512	0.347412	0.721924	0.076077	-0.023012	-0.027572	0.210567	-0.838794	-0.288864	-0.410663	-168.576198	-54.151952	32.151184
40192		7.792946	-1.780989	-2.536837	1.197550	2.220310	-1.814440	-0.027107	1.651383	-0.306751	-0.522705	0.350586	0.709229	0.077689	-0.017933	-0.026008	0.212179	-0.834953	-0.288372	-0.417941	-168.576837	-55.114390	32.131786
40193		7.792294	-1.579360	-2.450003	1.258979	2.046944	-1.847784	-0.121731	1.875026	-0.359760	-0.522461	0.340332	0.709961	0.077660	-0.015949	-0.025219	0.213596	-0.830599	-0.287656	-0.426305	-168.638508	-56.207956	32.122673
40194		7.998583	-1.764120	-2.533068	1.045648	2.113973	-1.570055	-0.243074	2.081113	-0.427646	-0.546387	0.342773	0.696289	0.079679	-0.017843	-0.026139	0.214633	-0.825754	-0.286701	-0.435736	-168.795443	-57.425472	32.142573
40195		8.374993	-1.964807	-2.787886	0.769134	2.127506	-1.057576	-0.340682	2.271558	-0.478376	-0.564697	0.340332	0.683838	0.083379	-0.019896	-0.028794	0.215408	-0.820420	-0.285515	-0.446084	-169.028098	-58.755074	32.187336
40196		8.677579	-2.245505	-3.066332	0.359236	2.150907	-0.593940	-0.373851	2.434887	-0.510467	-0.573242	0.330566	0.675293	0.086336	-0.022734	-0.031674	0.216171	-0.814592	-0.284156	-0.457127	-169.292240	-60.180508	32.244113
40197		8.778135	-2.458978	-3.402958	-0.157939	2.020502	-0.295869	-0.331902	2.582444	-0.554566	-0.597656	0.322998	0.660400	0.087264	-0.024890	-0.035117	0.217183	-0.808181	-0.282878	-0.468674	-169.564426	-61.692954	32.338559
40198		9.002013	-2.621496	-3.695435	-0.591070	1.897274	0.067067	-0.260526	2.710410	-0.612335	-0.608398	0.313477	0.649902	0.089428	-0.026539	-0.038135	0.218481	-0.801163	-0.281793	-0.480621	-169.852612	-63.283795	32.493482
40199		9.292674	-2.606559	-3.826536	-0.806310	1.742705	0.390054	-0.158469	2.815031	-0.679537	-0.634277	0.308838	0.639648	0.092287	-0.026411	-0.039547	0.220136	-0.793522	-0.281068	-0.492811	-170.166692	-64.939365	32.742253
40200		9.641509	-2.493928	-4.019766	-1.004587	1.472218	0.777488	-0.025278	2.909422	-0.722332	-0.646729	0.297852	0.617188	0.095726	-0.025291	-0.041590	0.222289	-0.785275	-0.280655	-0.505138	-170.475621	-66.652324	33.062712
40201		9.910724	-2.386764	-4.224883	-1.266958	1.159544	1.087288	0.157435	2.979108	-0.743891	-0.663574	0.294922	0.594482	0.098374	-0.024200	-0.043737	0.225161	-0.776432	-0.280667	-0.517380	-170.740133	-68.405441	33.447133
40202		10.029860	-2.280429	-4.396292	-1.569484	0.816107	1.232049	0.392552	3.032391	-0.740658	-0.691162	0.298828	0.571289	0.099531	-0.023086	-0.045521	0.228962	-0.767008	-0.281125	-0.529380	-170.902729	-70.188391	33.858780
40203		10.044758	-2.020145	-4.450782	-1.720827	0.395765	1.217230	0.648989	3.063193	-0.734388	-0.703125	0.287354	0.551514	0.099675	-0.020421	-0.046104	0.233761	-0.757019	-0.282153	-0.540987	-170.949771	-71.987381	34.302128
40204		9.896900	-1.583980	-4.347029	-1.675416	-0.087417	0.982188	0.900172	3.070076	-0.743595	-0.718262	0.294189	0.522949	0.098226	-0.016006	-0.045054	0.239422	-0.746510	-0.283792	-0.552143	-170.915323	-73.791616	34.803316
40205		9.797018	-1.009011	-4.179200	-1.457625	-0.616114	0.768029	1.099778	3.044007	-0.771430	-0.737549	0.283691	0.512695	0.097279	-0.010231	-0.043332	0.245660	-0.735585	-0.286061	-0.562792	-170.889638	-75.583174	35.430553
40206		9.829225	-0.453824	-4.035092	-1.221505	-1.116588	0.692255	1.255385	3.006912	-0.795296	-0.754150	0.289551	0.481201	0.097652	-0.004668	-0.041851	0.252267	-0.724340	-0.288799	-0.572964	-170.928615	-77.356382	36.207680
40207		9.774576	0.061113	-3.820834	-0.963269	-1.536802	0.524006	1.346345	2.941335	-0.838587	-0.762207	0.288086	0.449707	0.097172	0.000467	-0.039637	0.258928	-0.712897	-0.291979	-0.582651	-171.202029	-79.095369	37.275448
40208		9.861178	0.363931	-3.535966	-0.771296	-1.723096	0.497845	1.377406	2.857476	-0.869218	-0.779297	0.281006	0.427490	0.098109	0.003462	-0.036740	0.265402	-0.701423	-0.295366	-0.591883	-171.857421	-80.788109	38.739839
40209		9.920799	0.453916	-3.382874	-0.819781	-1.846160	0.482214	1.373997	2.762671	-0.899311	-0.790039	0.288330	0.407227	0.098748	0.004333	-0.035165	0.271580	-0.689999	-0.298917	-0.600661	-173.167835	-82.424282	40.860599
40210		9.931010	0.505203	-3.281582	-0.930782	-1.973879	0.428416	1.359724	2.649656	-0.933861	-0.800049	0.276123	0.384277	0.098887	0.004819	-0.034095	0.277351	-0.678715	-0.302603	-0.608978	-175.659431	-83.987535	44.151328
40211		9.698227	0.577226	-3.110937	-0.988689	-2.066762	0.127753	1.334825	2.526206	-0.974223	-0.811523	0.277832	0.362793	0.096607	0.005514	-0.032294	0.282679	-0.667613	-0.306470	-0.616815	179.544384	-85.453649	49.736109
40212		9.434072	0.602828	-3.079849	-1.156451	-2.216019	-0.189910	1.297982	2.398862	-1.019555	-0.822998	0.275146	0.345459	0.093992	0.005753	-0.031889	0.287468	-0.656748	-0.310467	-0.624223	169.757595	-86.771827	60.287057
40213		9.194793	0.538364	-2.989180	-1.335602	-2.242963	-0.487960	1.265954	2.263046	-1.056613	-0.833496	0.274414	0.318115	0.091630	0.005092	-0.030897	0.291785	-0.646153	-0.314638	-0.631150	148.682609	-87.784716	82.111166
40214		8.885719	0.622734	-2.999029	-1.445373	-2.428555	-0.849000	1.238986	2.130618	-1.066595	-0.837646	0.266602	0.301514	0.088563	0.005944	-0.030897	0.295701	-0.635886	-0.318871	-0.637598	111.537620	-88.117406	119.985489
40215		8.541554	0.615580	-3.084517	-1.647591	-2.602408	-1.247550	1.235728	1.986269	-1.045985	-0.851318	0.257080	0.280273	0.085135	0.005904	-0.031655	0.299411	-0.626000	-0.323206	-0.643440	79.887174	-87.609270	152.365567
40216		8.268993	0.557685	-3.154004	-1.856929	-2.719395	-1.579247	1.242761	1.842467	-1.029707	-0.859131	0.251221	0.268799	0.082423	0.005351	-0.032266	0.302895	-0.616501	-0.327659	-0.648707	64.048645	-86.707729	168.932872
40217		8.195011	0.671327	-3.191816	-1.901138	-2.902728	-1.703764	1.256302	1.708288	-1.009217	-0.870117	0.245361	0.247070	0.081707	0.006504	-0.032575	0.306244	-0.607354	-0.332268	-0.653402	56.332284	-85.713172	177.387716
40218		8.387359	0.906637	-3.099760	-1.778066	-3.042536	-1.544782	1.271634	1.565221	-0.989184	-0.866943	0.240479	0.232910	0.083672	0.008852	-0.031596	0.309426	-0.598602	-0.337037	-0.657523	52.340929	-84.725665	-177.875760
40219		8.575079	1.155924	-2.966601	-1.615303	-3.145850	-1.376926	1.251155	1.426167	-0.960297	-0.868652	0.237061	0.225098	0.085591	0.011336	-0.030205	0.312371	-0.590317	-0.341831	-0.661136	50.185309	-83.781899	-174.988307
40220		8.716239	1.268605	-2.888855	-1.586869	-3.204946	-1.260681	1.205160	1.283691	-0.919904	-0.881592	0.222656	0.210449	0.087033	0.012462	-0.029372	0.315037	-0.582581	-0.346538	-0.664276	49.036170	-82.900751	-173.135882
40221		8.791967	1.263128	-2.743290	-1.605647	-3.131644	-1.208404	1.145273	1.142929	-0.876102	-0.880127	0.221924	0.200439	0.087816	0.012405	-0.027863	0.317401	-0.575429	-0.351110	-0.666978	48.497691	-82.088785	-171.930351
40222		8.914383	1.141394	-2.578577	-1.713732	-2.971141	-1.114825	1.089018	1.001317	-0.833170	-0.883789	0.220215	0.189697	0.089060	0.011185	-0.026170	0.319473	-0.568869	-0.355566	-0.669252	48.376324	-81.348081	-171.176782
40223		9.043470	1.021593	-2.398131	-1.811477	-2.792072	-1.009202	1.042564	0.860735	-0.786190	-0.884033	0.211426	0.171875	0.090370	0.009987	-0.024318	0.321298	-0.562899	-0.359936	-0.671087	48.554823	-80.681108	-170.752177
40224		9.001642	0.929110	-2.205981	-1.849852	-2.606225	-1.063723	1.002091	0.719065	-0.728547	-0.884521	0.203613	0.165283	0.089970	0.009075	-0.022338	0.322930	-0.557541	-0.364214	-0.672467	48.949424	-80.092769	-170.569608
40225		8.679448	0.735798	-1.957038	-1.888990	-2.303089	-1.396547	0.987692	0.580367	-0.677910	-0.896973	0.199707	0.165039	0.086762	0.007161	-0.019786	0.324424	-0.552739	-0.368510	-0.673372	49.548048	-79.578628	-170.602285
40226		8.596549	0.408756	-1.921171	-2.182584	-2.113549	-1.534543	1.013266	0.444107	-0.633932	-0.894775	0.199951	0.155029	0.085935	0.003913	-0.019382	0.325872	-0.548411	-0.372975	-0.673753	50.357672	-79.133970	-170.834850
40227		8.719881	0.409575	-1.939802	-2.255509	-2.141603	-1.428595	1.043537	0.326620	-0.570819	-0.888428	0.192139	0.152832	0.087178	0.003949	-0.019520	0.327383	-0.544525	-0.377547	-0.673625	51.291787	-78.759269	-171.176854
40228		8.870806	0.584461	-1.911651	-2.153547	-2.211828	-1.259490	1.032951	0.221638	-0.484537	-0.890625	0.190918	0.147217	0.088701	0.005729	-0.019185	0.328946	-0.541154	-0.382005	-0.673066	52.261378	-78.459639	-171.561643
40229		8.908482	0.803998	-1.774817	-1.929178	-2.198494	-1.175424	0.991408	0.118353	-0.384063	-0.899170	0.187256	0.144287	0.089090	0.007957	-0.017761	0.330528	-0.538374	-0.386210	-0.672121	53.233358	-78.240353	-171.973522
40230		8.998872	0.924388	-1.559260	-1.754417	-2.061464	-1.041264	0.906170	0.012492	-0.275426	-0.892822	0.181641	0.148193	0.090000	0.009190	-0.015556	0.332032	-0.536287	-0.390002	-0.670858	54.190346	-78.105879	-172.420209
40231		8.895292	0.967031	-1.480297	-1.661877	-1.995294	-1.123062	0.780893	-0.097942	-0.169270	-0.891113	0.183594	0.149658	0.088968	0.009653	-0.014722	0.333334	-0.534974	-0.393264	-0.669354	55.139118	-78.056005	-172.932047
40232		8.856952	0.894250	-1.345780	-1.648266	-1.823334	-1.151566	0.631328	-0.202199	-0.058491	-0.890869	0.185547	0.142090	0.088586	0.008959	-0.013340	0.334398	-0.534470	-0.395898	-0.667671	56.061934	-78.090687	-173.504874
40233		8.994780	0.721978	-1.333148	-1.803844	-1.714457	-1.037079	0.497858	-0.298056	0.042744	-0.891846	0.189941	0.143311	0.089966	0.007272	-0.013179	0.335250	-0.534704	-0.397972	-0.665820	56.979800	-78.201986	-174.150711
40234		8.978884	0.552196	-1.237467	-1.880211	-1.527373	-1.061207	0.392086	-0.385855	0.141252	-0.890869	0.185547	0.151367	0.089809	0.005609	-0.012190	0.335970	-0.535601	-0.399575	-0.663774	57.912556	-78.385972	-174.873177
40235		8.872555	0.416997	-1.034248	-1.853144	-1.256161	-1.155118	0.294552	-0.472531	0.223341	-0.883057	0.187744	0.157959	0.088745	0.004284	-0.010127	0.336524	-0.537107	-0.400776	-0.661548	58.904420	-78.633355	-175.712545
40236		8.709747	0.173486	-0.959480	-1.959954	-1.047303	-1.334960	0.204795	-0.553215	0.309011	-0.877197	0.196045	0.164307	0.087121	0.001879	-0.009352	0.336957	-0.539199	-0.401583	-0.659133	59.963817	-78.943725	-176.672218
40237		8.521867	-0.094151	-0.822449	-2.049702	-0.770313	-1.535460	0.137394	-0.636145	0.389206	-0.887695	0.193359	0.162598	0.085246	-0.000770	-0.007954	0.337300	-0.541830	-0.402085	-0.656488	61.143120	-79.313529	-177.792346
40238		8.411828	-0.323231	-0.836434	-2.181251	-0.644898	-1.664756	0.095057	-0.700054	0.459121	-0.887207	0.198242	0.164063	0.084154	-0.003035	-0.008071	0.337626	-0.544877	-0.402361	-0.653624	62.456980	-79.731552	-179.072364
40239		8.641238	-0.549278	-0.821629	-2.351605	-0.494314	-1.453690	0.092769	-0.761977	0.523988	-0.875488	0.200439	0.175537	0.086457	-0.005263	-0.007889	0.338025	-0.548247	-0.402549	-0.650476	63.966797	-80.192611	179.448900
40240		8.900903	-0.712158	-1.325112	-2.689962	-0.832911	-1.236041	0.092027	-0.788684	0.597349	-0.871094	0.212891	0.176270	0.089081	-0.006850	-0.012903	0.338600	-0.551843	-0.402569	-0.647115	65.602600	-80.691310	177.844285
40241		9.321059	-0.674831	-1.231199	-2.604140	-0.725576	-0.782480	0.071940	-0.764034	0.652153	-0.874756	0.212646	0.181641	0.093278	-0.006440	-0.011958	0.339337	-0.555488	-0.402321	-0.643756	67.244240	-81.204993	176.224257
40242		11.183476	1.413849	0.108669	-0.362244	-0.402507	1.447279	0.147645	-0.639103	0.593310	-0.877197	0.223877	0.191162	0.111788	0.014469	0.001455	0.340340	-0.558473	-0.402260	-0.640674	68.758995	-81.653756	174.778694
40243		12.969154	4.800442	2.002850	3.295219	-0.153717	3.765677	0.201133	-0.377984	0.379536	-0.865967	0.224121	0.191162	0.129562	0.048230	0.020322	0.341327	-0.560091	-0.402517	-0.638572	69.765219	-81.929744	173.879048
40244		14.070228	7.034817	3.661140	5.891975	0.379643	5.220755	0.045637	-0.043402	0.044911	-0.874756	0.220703	0.187012	0.140679	0.070371	0.036658	0.341483	-0.560233	-0.402642	-0.638285	69.916467	-81.958704	173.753444
40245		13.057722	5.303800	3.052521	4.227928	0.582354	3.961845	-0.142325	0.059025	-0.053446	-0.860107	0.224609	0.195557	0.130600	0.053025	0.030449	0.341004	-0.560169	-0.402267	-0.638834	69.706253	-81.914189	173.883951
40246		10.945530	2.248980	2.485023	1.570988	1.386487	1.441089	-0.228966	-0.039697	0.182151	-0.865967	0.224609	0.189697	0.109430	0.022618	0.024846	0.340836	-0.561042	-0.401125	-0.638876	69.491172	-82.016059	173.969417
40247		9.462784	0.918270	2.184790	0.499411	1.678482	-0.216131	-0.338848	-0.157598	0.430616	-0.875977	0.231201	0.195557	0.094590	0.009423	0.021907	0.340915	-0.562972	-0.399132	-0.638383	69.301894	-82.274696	173.965058
40248		9.693091	1.024572	1.876607	0.480797	1.349687	0.009443	-0.328231	-0.254835	0.554138	-0.869873	0.229980	0.200684	0.096878	0.010545	0.018872	0.341221	-0.565438	-0.396988	-0.637377	69.322168	-82.619419	173.755604
40249		10.784911	0.530509	1.347155	-0.260261	1.112779	1.008772	-0.084148	-0.359765	0.677658	-0.859375	0.239258	0.196289	0.107806	0.005676	0.013663	0.342397	-0.568058	-0.395446	-0.635372	69.754029	-83.051166	173.272309
40250		11.320933	0.439868	0.320136	-0.779820	0.253028	1.491586	0.243788	-0.465601	0.696738	-0.855957	0.246582	0.203613	0.113185	0.004789	0.003471	0.344351	-0.570482	-0.395067	-0.632373	70.911973	-83.512943	172.247690
40251		10.982822	0.397915	-0.531556	-1.066270	-0.475622	1.128028	0.458851	-0.565796	0.698765	-0.854736	0.245361	0.205322	0.109828	0.004375	-0.004995	0.346719	-0.572842	-0.395524	-0.628648	72.878161	-83.990073	170.534796
40252		11.005522	0.541015	-1.106120	-1.092068	-1.027533	1.159465	0.536372	-0.664714	0.763171	-0.847412	0.254883	0.206299	0.110069	0.005859	-0.010680	0.349306	-0.575492	-0.396202	-0.624354	75.677649	-84.510190	168.030729
40253		10.527713	0.728424	-1.182628	-0.798239	-1.157452	0.712700	0.534057	-0.741270	0.827625	-0.849609	0.268311	0.213867	0.105289	0.007751	-0.011416	0.351923	-0.578490	-0.396806	-0.619713	79.434561	-85.060562	164.566071
40254		9.827153	0.465700	-0.867130	-0.722954	-0.741986	0.009095	0.449148	-0.764405	0.834725	-0.844238	0.269043	0.214111	0.098283	0.005086	-0.008285	0.354259	-0.581704	-0.397153	-0.615134	84.190444	-85.592314	160.053280
40255		9.697952	-0.248097	-0.809064	-1.222845	-0.353090	-0.161501	0.364809	-0.731150	0.818083	-0.839600	0.280762	0.226318	0.097017	-0.002070	-0.007740	0.356350	-0.584910	-0.397216	-0.610831	89.832555	-86.078024	154.606428
40256		9.666822	-0.976760	-1.248714	-1.965213	-0.413016	-0.224817	0.376267	-0.658620	0.812281	-0.840820	0.288818	0.229980	0.096747	-0.009352	-0.012186	0.358591	-0.587845	-0.397189	-0.606705	96.280482	-86.518546	148.361825
40257		9.389212	-1.405861	-1.570862	-2.380488	-0.515270	-0.503103	0.460581	-0.568902	0.787133	-0.840820	0.299561	0.227051	0.093991	-0.013653	-0.015473	0.361171	-0.590288	-0.397319	-0.602705	103.490922	-86.902602	141.404434
40258		8.938781	-1.278469	-1.722855	-2.222791	-0.716336	-0.921683	0.534356	-0.489663	0.759283	-0.835205	0.303955	0.235107	0.089477	-0.012399	-0.017043	0.364032	-0.592290	-0.397600	-0.598822	111.582976	-87.228739	133.609085
40259		8.682617	-1.164218	-1.578453	-1.970079	-0.640468	-1.155734	0.501948	-0.437419	0.711623	-0.823242	0.308594	0.234619	0.086901	-0.011294	-0.015623	0.366748	-0.594081	-0.397819	-0.595234	120.611553	-87.480477	124.859387
40260		9.184423	-0.942464	-1.348005	-1.611629	-0.502403	-0.636153	0.395518	-0.391015	0.648086	-0.835449	0.309814	0.232422	0.091900	-0.009100	-0.013319	0.369045	-0.595794	-0.397817	-0.592095	130.170185	-87.649307	115.519688
40261		9.888593	-0.621328	-1.563112	-1.349832	-0.800856	0.094372	0.273839	-0.330702	0.589663	-0.822754	0.327393	0.243164	0.098929	-0.005900	-0.015476	0.370920	-0.597425	-0.397511	-0.589481	139.553543	-87.751122	106.286376
40262		10.087794	-0.781742	-1.879775	-1.561792	-1.014598	0.308543	0.148619	-0.265486	0.554056	-0.823486	0.337158	0.236816	0.100924	-0.007524	-0.018669	0.372441	-0.599021	-0.396817	-0.587365	148.514563	-87.810588	97.404586
40263		9.766802	-1.045468	-1.978766	-1.781856	-1.010242	-0.004371	0.047159	-0.216667	0.528861	-0.812744	0.337891	0.249756	0.097717	-0.010192	-0.019684	0.373678	-0.600604	-0.395806	-0.585643	157.034356	-87.835548	88.906251
40264		9.572335	-0.868240	-2.108206	-1.619037	-1.209655	-0.182360	-0.028606	-0.194653	0.518562	-0.815186	0.347168	0.245605	0.095766	-0.008437	-0.020988	0.374699	-0.602242	-0.394560	-0.584147	165.295918	-87.822782	80.623098
40265		9.619953	-0.513704	-2.083712	-1.233642	-1.332307	-0.124958	-0.029917	-0.186905	0.509181	-0.807861	0.338623	0.240723	0.096232	-0.004895	-0.020746	0.375700	-0.603835	-0.393320	-0.582694	173.136497	-87.769887	72.760131
40266		9.674746	-0.094127	-1.892454	-0.721428	-1.330324	-0.070998	0.002114	-0.168913	0.495421	-0.818115	0.346191	0.244873	0.096765	-0.000701	-0.018843	0.376791	-0.605286	-0.392180	-0.581250	-179.683653	-87.687279	65.576606
40267		9.851219	0.154811	-1.699908	-0.363617	-1.254222	0.099663	0.051070	-0.153747	0.465457	-0.810547	0.348145	0.247803	0.098521	0.001782	-0.016923	0.377970	-0.606536	-0.391241	-0.579814	-173.452275	-87.582244	59.369763
40268		9.917803	0.229971	-1.710415	-0.249098	-1.297016	0.167128	0.072738	-0.147356	0.469808	-0.811035	0.344482	0.243408	0.099185	0.002539	-0.017030	0.379238	-0.607734	-0.390338	-0.578338	-167.709526	-87.453686	53.664108
40269		9.704189	0.336782	-1.489633	-0.017310	-1.151706	-0.056829	0.068298	-0.167156	0.496954	-0.802734	0.352295	0.240479	0.097046	0.003614	-0.014814	0.380529	-0.609044	-0.389374	-0.576759	-162.326759	-87.287399	48.315404
40270		9.689460	0.586955	-1.000506	0.460911	-0.811810	-0.098807	0.019495	-0.180989	0.513755	-0.813477	0.364258	0.250000	0.096888	0.006119	-0.009917	0.381641	-0.610552	-0.388189	-0.575227	-157.509177	-87.088569	43.493987
40271		9.849565	0.454168	-0.533748	0.587433	-0.329050	0.038785	-0.071549	-0.200321	0.507861	-0.809326	0.362305	0.246338	0.098489	0.004790	-0.005241	0.382467	-0.612236	-0.386847	-0.573790	-153.528996	-86.864238	39.467769
40272		9.882333	-0.449950	-0.424672	-0.140206	0.140032	0.087000	-0.167589	-0.205265	0.480503	-0.808105	0.364990	0.249023	0.098838	-0.004266	-0.004142	0.382860	-0.614098	-0.385267	-0.572601	-150.405833	-86.631437	36.234182
40273		9.776924	-1.204053	-0.216505	-0.697405	0.637437	-0.004938	-0.178969	-0.216598	0.460680	-0.805420	0.374023	0.249268	0.097799	-0.011817	-0.002049	0.383185	-0.615934	-0.383786	-0.571404	-147.912810	-86.390893	33.634357
40274		9.597493	-1.782765	-0.007845	-1.097601	1.064194	-0.171489	-0.165504	-0.234623	0.470147	-0.801514	0.379395	0.254639	0.096016	-0.017602	0.000049	0.383523	-0.617825	-0.382332	-0.570109	-145.760547	-86.131639	31.379904
40275		9.617117	-2.017412	0.221676	-1.164074	1.376385	-0.150477	-0.105136	-0.250023	0.466638	-0.798584	0.380615	0.258545	0.096215	-0.019948	0.002348	0.384024	-0.619618	-0.381102	-0.568648	-143.941753	-85.862291	29.496833
40276		9.861323	-1.867520	0.340847	-0.911763	1.437488	0.084362	-0.044183	-0.257579	0.451535	-0.801270	0.383301	0.259521	0.098651	-0.018452	0.003540	0.384635	-0.621298	-0.380089	-0.567078	-142.445737	-85.590104	27.968570
40277		10.001820	-1.837881	0.184465	-0.889819	1.294818	0.236178	-0.001816	-0.262923	0.418200	-0.805664	0.387695	0.253906	0.100054	-0.018170	0.001976	0.385289	-0.622828	-0.379322	-0.565466	-141.302102	-85.325636	26.820844
40278		9.921313	-1.789611	-0.090694	-0.918007	1.029966	0.174286	0.017895	-0.268321	0.385837	-0.795410	0.381592	0.261230	0.099249	-0.017705	-0.000775	0.385884	-0.624286	-0.378706	-0.563864	-140.463531	-85.068081	25.987131
40279		9.690704	-1.652059	-0.446774	-0.912874	0.650074	-0.036055	-0.001400	-0.278593	0.373563	-0.789795	0.380371	0.268311	0.096944	-0.016340	-0.004333	0.386379	-0.625769	-0.378106	-0.562282	-139.814969	-84.810492	25.335779
40280		9.651389	-1.599444	-0.722054	-0.938581	0.388495	-0.055800	-0.022649	-0.297820	0.344206	-0.797607	0.393799	0.260742	0.096552	-0.015829	-0.007075	0.386688	-0.627291	-0.377573	-0.560729	-139.449093	-84.554222	24.955986
40281		9.859372	-1.306208	-0.910268	-0.690669	0.117840	0.149788	-0.043583	-0.293219	0.325489	-0.787109	0.394287	0.269287	0.098628	-0.012904	-0.008955	0.386884	-0.628799	-0.377030	-0.559269	-139.192311	-84.307441	24.673450
40282		9.972630	-1.562012	-1.101010	-0.950828	0.071053	0.296525	-0.072227	-0.289383	0.304353	-0.787842	0.402344	0.267090	0.099766	-0.015472	-0.010860	0.386921	-0.630324	-0.376448	-0.557917	-139.051878	-84.069271	24.488168
40283		9.893732	-1.965402	-1.334576	-1.382022	0.039975	0.267893	-0.063959	-0.284904	0.282583	-0.794922	0.399414	0.277588	0.098984	-0.019518	-0.013199	0.386946	-0.631761	-0.375963	-0.556599	-138.987041	-83.842068	24.386670
40284		9.864094	-2.224791	-1.726702	-1.745181	-0.192508	0.294176	-0.047907	-0.275589	0.272115	-0.781738	0.411621	0.271484	0.098695	-0.022118	-0.017126	0.386991	-0.633136	-0.375520	-0.555303	-138.931717	-83.621902	24.300759
40285		9.905578	-2.155298	-2.090197	-1.793461	-0.533956	0.367341	-0.048149	-0.260144	0.255397	-0.789551	0.412598	0.268066	0.099110	-0.021431	-0.020768	0.387034	-0.634418	-0.375114	-0.554082	-138.889740	-83.415609	24.231301
40286		9.771579	-1.613751	-2.076903	-1.280220	-0.740415	0.198017	-0.072726	-0.236119	0.236493	-0.789063	0.409912	0.269043	0.097759	-0.016029	-0.020648	0.386976	-0.635659	-0.374638	-0.553022	-138.860242	-83.225858	24.157404
40287		9.686821	-1.238691	-1.967979	-0.877452	-0.790186	0.079098	-0.120187	-0.203430	0.216217	-0.790771	0.412354	0.282227	0.096901	-0.012294	-0.019574	0.386786	-0.636847	-0.374046	-0.552189	-138.828079	-83.058795	24.056204
40288		9.676319	-1.544976	-1.918868	-1.111194	-0.604370	0.091861	-0.168209	-0.185196	0.185073	-0.787109	0.407471	0.272217	0.096795	-0.015376	-0.019086	0.386374	-0.638033	-0.373369	-0.551566	-138.881842	-82.910351	24.010879
40289		9.529127	-1.756825	-1.655779	-1.188520	-0.271545	-0.058410	-0.161306	-0.169380	0.175926	-0.791992	0.419922	0.283691	0.095321	-0.017498	-0.016463	0.386004	-0.639128	-0.372723	-0.550993	-138.912651	-82.773176	23.949336
40290		9.736444	-1.524631	-1.409892	-0.832714	-0.126371	0.107052	-0.156234	-0.140101	0.168844	-0.784912	0.423340	0.281006	0.097387	-0.015175	-0.014019	0.385668	-0.640134	-0.372042	-0.550521	-138.882223	-82.650286	23.826098
40291		9.789922	-1.514236	-1.256798	-0.734432	0.018643	0.145990	-0.125427	-0.123807	0.155780	-0.784424	0.408447	0.291016	0.097919	-0.015074	-0.012498	0.385441	-0.640994	-0.371471	-0.550064	-138.829979	-82.540364	23.701499
40292		9.615134	-1.132247	-0.944456	-0.262467	0.134759	-0.089637	-0.093625	-0.109090	0.162743	-0.792480	0.408203	0.284180	0.096166	-0.011249	-0.009387	0.385345	-0.641782	-0.370920	-0.549585	-138.700773	-82.433073	23.514476
40293		9.629080	-0.906295	-0.970764	-0.050902	0.019653	-0.092609	-0.091611	-0.106183	0.161126	-0.785645	0.417969	0.280273	0.096303	-0.008990	-0.009652	0.385272	-0.642537	-0.370389	-0.549111	-138.568775	-82.328644	23.328899
40294		9.445401	-0.886335	-0.913530	-0.013797	0.058046	-0.282098	-0.089883	-0.119559	0.159002	-0.789551	0.413574	0.282715	0.094466	-0.008792	-0.009075	0.385159	-0.643337	-0.369881	-0.548597	-138.486696	-82.218187	23.191821
40295		9.330780	-0.697173	-0.847263	0.187527	0.035743	-0.419558	-0.088887	-0.123358	0.165396	-0.788086	0.421631	0.284180	0.093319	-0.006898	-0.008412	0.385074	-0.644140	-0.369377	-0.548053	-138.395040	-82.104689	23.048444
40296		9.612674	-0.497370	-0.974327	0.367495	-0.144447	-0.146031	-0.082812	-0.122169	0.170709	-0.786621	0.420898	0.286621	0.096137	-0.004896	-0.009683	0.385011	-0.644953	-0.368855	-0.547492	-138.286455	-81.988605	22.888752
40297		9.476522	-0.595114	-1.071159	0.241080	-0.191450	-0.262232	-0.073686	-0.141738	0.184716	-0.793701	0.425049	0.290527	0.094778	-0.005868	-0.010642	0.384993	-0.645812	-0.368364	-0.546822	-138.184431	-81.859809	22.743619
40298		9.270129	-0.684228	-1.089411	0.148590	-0.174432	-0.456528	-0.052918	-0.161959	0.211706	-0.788818	0.417236	0.289063	0.092717	-0.006747	-0.010817	0.385064	-0.646750	-0.367867	-0.545998	-138.051239	-81.710989	22.576227
40299		9.490363	-0.564434	-1.086156	0.310875	-0.204741	-0.250957	-0.041346	-0.169944	0.220151	-0.787354	0.421143	0.284912	0.094919	-0.005542	-0.010780	0.385194	-0.647686	-0.367404	-0.545108	-137.910629	-81.556507	22.410713
40300		9.633784	-0.711176	-0.968156	0.274818	-0.020258	-0.108210	-0.021433	-0.176775	0.229612	-0.786865	0.436279	0.293213	0.096354	-0.007002	-0.009596	0.385388	-0.648633	-0.366963	-0.544141	-137.757611	-81.394416	22.241543
40301		9.614027	-0.764715	-0.943980	0.261989	0.030490	-0.125801	-0.015745	-0.189794	0.244143	-0.778076	0.434570	0.287598	0.096158	-0.007531	-0.009348	0.385629	-0.649616	-0.366527	-0.543090	-137.597513	-81.222143	22.071013
40302		9.574532	-1.016962	-1.059554	0.011540	0.041498	-0.126275	-0.015787	-0.208279	0.261060	-0.776367	0.439453	0.287354	0.095769	-0.010045	-0.010495	0.385868	-0.650692	-0.366059	-0.541947	-137.446035	-81.034413	21.906718
40303		9.633544	-0.974215	-1.005612	0.112675	0.083340	-0.078943	-0.012908	-0.221672	0.270363	-0.779785	0.437500	0.289795	0.096360	-0.009613	-0.009949	0.386128	-0.651800	-0.365606	-0.540734	-137.305271	-80.838395	21.757240
40304		9.829057	-0.813600	-1.082320	0.285708	-0.034884	0.105013	-0.028604	-0.220455	0.275432	-0.786133	0.439453	0.286621	0.098314	-0.008002	-0.010714	0.386342	-0.652955	-0.365079	-0.539543	-137.165546	-80.639883	21.597496
40305		9.762112	-0.861608	-1.271120	0.186149	-0.178862	0.066088	-0.048216	-0.218143	0.280725	-0.786377	0.438721	0.301025	0.097647	-0.008482	-0.012603	0.386519	-0.654137	-0.364488	-0.538383	-137.022717	-80.441191	21.425247
40306		9.509065	-1.064249	-1.446308	-0.074614	-0.254109	-0.139192	-0.072215	-0.226079	0.287427	-0.778320	0.444824	0.291992	0.095122	-0.010511	-0.014352	0.386608	-0.655409	-0.363813	-0.537227	-136.903873	-80.235559	21.261071
40307		9.500584	-1.094201	-1.529243	-0.103653	-0.305867	-0.133196	-0.102386	-0.243252	0.302233	-0.777588	0.445557	0.302490	0.095041	-0.010806	-0.015171	0.386618	-0.656798	-0.363051	-0.536038	-136.808937	-80.017827	21.105719
40308		9.698859	-1.055426	-1.554210	-0.012279	-0.321491	0.061204	-0.136787	-0.244950	0.302285	-0.770020	0.447510	0.304688	0.097023	-0.010418	-0.015416	0.386499	-0.658267	-0.362188	-0.534904	-136.744357	-79.798342	20.958941
40309		9.760742	-1.381344	-1.516990	-0.241260	-0.128814	0.157596	-0.158375	-0.245876	0.290983	-0.776855	0.453125	0.299805	0.097646	-0.013683	-0.015039	0.386286	-0.659746	-0.361316	-0.533826	-136.722145	-79.583876	20.844689
40310		9.600725	-1.633099	-1.526325	-0.461266	-0.023029	0.033996	-0.164176	-0.249151	0.288589	-0.773193	0.451904	0.302734	0.096050	-0.016205	-0.015130	0.386030	-0.661249	-0.360429	-0.532749	-136.719995	-79.367977	20.745278
40311		9.515517	-1.839728	-1.531169	-0.627146	0.072384	-0.021085	-0.160444	-0.250298	0.284499	-0.774414	0.447510	0.309326	0.095200	-0.018274	-0.015178	0.385782	-0.662726	-0.359578	-0.531668	-136.727180	-79.154209	20.659581
40312		9.486211	-2.050726	-1.518864	-0.780188	0.190031	-0.022094	-0.158075	-0.257193	0.270485	-0.773926	0.460205	0.307861	0.094909	-0.020391	-0.015050	0.385480	-0.664200	-0.358781	-0.530584	-136.780280	-78.942139	20.619877
40313		9.585411	-2.044586	-1.412541	-0.678570	0.304200	0.061653	-0.148425	-0.248029	0.254965	-0.767822	0.457764	0.316162	0.095897	-0.020334	-0.013991	0.385194	-0.665589	-0.358053	-0.529542	-136.840219	-78.740925	20.594848
40314		9.646171	-2.059886	-1.493196	-0.683548	0.258883	0.136535	-0.148484	-0.251247	0.244675	-0.770752	0.460205	0.304688	0.096505	-0.020492	-0.014795	0.384864	-0.666979	-0.357352	-0.528506	-136.928558	-78.541370	20.596721
40315		9.424012	-2.256600	-1.362380	-0.811076	0.464091	-0.071691	-0.138948	-0.255253	0.240679	-0.765625	0.460205	0.313232	0.094284	-0.022462	-0.013488	0.384557	-0.668338	-0.356708	-0.527446	-137.024157	-78.342730	20.613598
40316		9.606486	-1.824624	-1.267834	-0.324011	0.382978	0.034621	-0.147813	-0.249705	0.227344	-0.771973	0.465576	0.315186	0.096101	-0.018146	-0.012545	0.384186	-0.669685	-0.356064	-0.526443	-137.140474	-78.150627	20.644828
40317		9.623883	-1.744416	-1.339613	-0.251840	0.300274	0.051540	-0.157299	-0.247342	0.212596	-0.772461	0.465576	0.318115	0.096274	-0.017352	-0.013263	0.383755	-0.671005	-0.355447	-0.525492	-137.283454	-77.966231	20.699410
40318		9.197803	-1.949319	-1.294526	-0.468079	0.418503	-0.342688	-0.161035	-0.253217	0.203183	-0.768555	0.459717	0.321045	0.092014	-0.019410	-0.012813	0.383266	-0.672339	-0.354853	-0.524544	-137.455647	-77.781958	20.780035
40319		9.318165	-1.885532	-1.512077	-0.455761	0.223197	-0.199561	-0.166002	-0.262803	0.193652	-0.767334	0.462891	0.329834	0.093220	-0.018778	-0.014983	0.382726	-0.673678	-0.354305	-0.523590	-137.660961	-77.598284	20.893389
40320		9.443057	-1.939326	-1.617162	-0.496522	0.182857	-0.052182	-0.164468	-0.263658	0.197601	-0.760498	0.471191	0.318359	0.094471	-0.019313	-0.016031	0.382189	-0.675033	-0.353737	-0.522620	-137.856011	-77.411595	20.995236
40321		9.566046	-1.872935	-1.776513	-0.455816	0.039862	0.084972	-0.163216	-0.261011	0.186491	-0.757813	0.464355	0.323242	0.095701	-0.018655	-0.017625	0.381641	-0.676345	-0.353214	-0.521678	-138.061187	-77.231267	21.110247
40322		9.614931	-2.006528	-1.985244	-0.627682	-0.059726	0.188143	-0.160353	-0.264806	0.173890	-0.752930	0.467773	0.330811	0.096193	-0.019997	-0.019709	0.381054	-0.677647	-0.352739	-0.520737	-138.290850	-77.053004	21.250720
40323		9.514379	-1.916056	-1.900647	-0.506824	-0.014071	0.064052	-0.181181	-0.274212	0.178235	-0.754395	0.470703	0.340820	0.095187	-0.019093	-0.018859	0.380398	-0.679008	-0.352221	-0.519794	-138.533904	-76.869964	21.394210
40324		9.659046	-1.807121	-1.825771	-0.322017	0.035685	0.176868	-0.216684	-0.283018	0.175653	-0.758301	0.473877	0.337646	0.096632	-0.018006	-0.018101	0.379587	-0.680465	-0.351623	-0.518886	-138.811674	-76.682887	21.550666
40325		9.638575	-1.925199	-1.444354	-0.236232	0.448896	0.108867	-0.255610	-0.290695	0.153903	-0.750244	0.468750	0.341797	0.096421	-0.019196	-0.014279	0.378583	-0.681962	-0.351023	-0.518059	-139.155848	-76.501557	21.754488
40326		9.535554	-1.861252	-1.201826	-0.070542	0.649387	-0.044952	-0.291138	-0.305654	0.149140	-0.761963	0.481201	0.344971	0.095388	-0.018559	-0.011845	0.377408	-0.683566	-0.350363	-0.517250	-139.545279	-76.314128	21.982345
40327		9.387438	-1.809192	-0.986951	0.063235	0.828335	-0.237669	-0.340726	-0.333957	0.147122	-0.757080	0.477539	0.347168	0.093904	-0.018039	-0.009682	0.376015	-0.685317	-0.349643	-0.516432	-139.999735	-76.115749	22.249830
40328		9.441013	-1.384667	-0.746378	0.577502	0.872837	-0.298928	-0.377607	-0.355570	0.146464	-0.758057	0.473389	0.342041	0.094433	-0.013791	-0.007270	0.374447	-0.687198	-0.348860	-0.515601	-140.498241	-75.906511	22.539697
40329		9.726512	-1.246971	-0.824533	0.753992	0.796330	-0.033269	-0.417867	-0.372242	0.151331	-0.748047	0.468506	0.351563	0.097290	-0.012413	-0.008038	0.372728	-0.689191	-0.347994	-0.514772	-141.022845	-75.688547	22.834435
40330		9.698713	-1.204898	-1.035994	0.717732	0.622878	-0.030724	-0.447286	-0.405200	0.141135	-0.746582	0.473877	0.363037	0.097016	-0.012003	-0.010137	0.370816	-0.691308	-0.347137	-0.513892	-141.615300	-75.457783	23.180899
40331		9.691846	-1.332035	-0.772823	0.756960	0.950152	-0.074749	-0.465930	-0.457617	0.153962	-0.748047	0.477051	0.370605	0.096946	-0.013263	-0.007475	0.368782	-0.693600	-0.346290	-0.512837	-142.251481	-75.198943	23.563130
40332		10.300704	-1.555020	-0.541988	0.850130	1.364531	0.494173	-0.477090	-0.515615	0.155648	-0.744385	0.476807	0.379150	0.103033	-0.015482	-0.005117	0.366602	-0.696067	-0.345501	-0.511589	-142.948747	-74.911002	24.000887
40333		11.050537	-1.277848	-0.154887	1.485441	1.691654	1.082385	-0.460384	-0.568225	0.141980	-0.742920	0.479004	0.380127	0.110518	-0.012703	-0.001206	0.364357	-0.698594	-0.344905	-0.510149	-143.703176	-74.603155	24.509989
40334		10.963451	-0.475874	0.417405	2.460048	1.829057	0.732463	-0.493414	-0.634031	0.164148	-0.742920	0.471191	0.387451	0.109624	-0.004658	0.004533	0.361927	-0.701386	-0.344251	-0.508486	-144.493250	-74.254594	25.035774
40335		10.464720	1.026730	1.209004	4.035675	1.745352	-0.184977	-0.609241	-0.716724	0.228603	-0.743408	0.474609	0.392822	0.104591	0.010424	0.012433	0.359112	-0.704685	-0.343230	-0.506607	-145.309406	-73.845034	25.522127
40336		10.388212	2.032177	1.609701	5.115927	1.607451	-0.545616	-0.793304	-0.818282	0.304102	-0.732178	0.472656	0.398438	0.103784	0.020544	0.016441	0.355649	-0.708690	-0.341639	-0.504534	-146.186673	-73.360276	25.962073
40337		10.702816	2.291994	1.243518	5.311228	1.240314	-0.241816	-0.928666	-0.942623	0.334483	-0.728516	0.468994	0.415527	0.106930	0.023158	0.012832	0.351562	-0.713264	-0.339816	-0.502180	-147.182578	-72.805276	26.447430
40338		10.889599	2.047017	0.860633	5.049437	1.117214	0.024403	-1.007096	-1.069636	0.366475	-0.722900	0.466797	0.424805	0.108810	0.020715	0.009085	0.347037	-0.718318	-0.337879	-0.499422	-148.249023	-72.175858	26.960047
40339		11.054463	1.971705	0.711945	5.048010	1.113630	0.180897	-1.021266	-1.197092	0.430570	-0.712402	0.470947	0.440186	0.110457	0.019993	0.007679	0.342388	-0.723773	-0.335885	-0.496089	-149.288789	-71.462872	27.439115
40340		11.125392	1.803120	0.514005	4.932841	1.118714	0.272136	-1.018897	-1.327128	0.479055	-0.706055	0.472656	0.457520	0.111173	0.018326	0.005785	0.337622	-0.729582	-0.333913	-0.492163	-150.309603	-70.668451	27.900571
40341		10.938801	1.431651	0.367858	4.611678	1.255160	0.137048	-0.982653	-1.480203	0.463317	-0.691650	0.464844	0.460449	0.109324	0.014590	0.004417	0.332671	-0.735615	-0.332326	-0.487606	-151.390021	-69.799699	28.450915
40342		10.804640	1.588987	0.709494	4.985678	1.516324	-0.189290	-0.942471	-1.641905	0.471592	-0.677734	0.464600	0.482178	0.107946	0.016180	0.007906	0.327584	-0.741929	-0.331040	-0.482330	-152.483287	-68.843244	29.041794
40343		11.254753	1.730476	1.078506	5.556083	1.912872	0.000299	-0.873170	-1.783519	0.536724	-0.678223	0.465576	0.490967	0.112399	0.017656	0.011711	0.322650	-0.748499	-0.329884	-0.476259	-153.474053	-67.794252	29.570160
40344		11.524794	1.646521	1.701012	6.035183	2.615386	-0.057823	-0.755653	-1.909470	0.586644	-0.657471	0.458740	0.522461	0.115030	0.016870	0.018046	0.318026	-0.755184	-0.328982	-0.469391	-154.345358	-66.664672	30.045147
40345		11.392930	1.362714	1.899182	6.019143	3.025981	-0.332645	-0.545583	-2.029692	0.617268	-0.653564	0.466064	0.534424	0.113686	0.014032	0.020108	0.314038	-0.761775	-0.328616	-0.461618	-155.067503	-65.463029	30.493792
40346		11.481443	1.048361	1.852509	5.942296	3.319755	-0.324961	-0.285105	-2.171507	0.658926	-0.628662	0.472656	0.550293	0.114569	0.010889	0.019755	0.310858	-0.768261	-0.328865	-0.452758	-155.615361	-64.175645	30.917780
40347		11.739553	1.142553	1.670138	6.198646	3.321146	-0.197505	-0.030085	-2.309008	0.752026	-0.618408	0.465088	0.562256	0.117148	0.011869	0.018053	0.308606	-0.774704	-0.329511	-0.442739	-155.942235	-62.793183	31.264399
40348		12.218933	1.460536	1.418267	6.707000	3.204811	0.096086	0.151364	-2.429764	0.856472	-0.601318	0.472900	0.576660	0.121941	0.015116	0.015676	0.307035	-0.781189	-0.330279	-0.431728	-156.086192	-61.322779	31.524616
40349		12.739281	1.322687	1.160277	6.904888	3.383439	0.495064	0.256445	-2.533724	0.944903	-0.581543	0.483398	0.587402	0.127168	0.013812	0.013232	0.305846	-0.787742	-0.331040	-0.419921	-156.112534	-59.776991	31.724221
40350		12.969765	1.196355	0.578964	6.873630	3.251020	0.777585	0.334021	-2.637777	1.022694	-0.551514	0.485352	0.596191	0.129543	0.012615	0.007520	0.304888	-0.794374	-0.331742	-0.407382	-156.057115	-58.159110	31.881898
40351		12.756351	0.317856	-0.259065	5.975751	3.261104	0.982525	0.422586	-2.714845	1.059310	-0.529541	0.499023	0.614746	0.127564	0.003857	-0.000851	0.304171	-0.800920	-0.332537	-0.394242	-155.944055	-56.492032	32.035878
40352		12.597242	-1.208520	-1.828335	4.317909	3.128369	1.808475	0.536455	-2.712937	1.057225	-0.510498	0.499512	0.622803	0.126267	-0.011372	-0.016603	0.303836	-0.807113	-0.333477	-0.380848	-155.765319	-54.827302	32.190348
40353		12.259988	-2.168133	-3.862745	2.870777	2.261987	2.699682	0.750549	-2.688061	1.039898	-0.489502	0.502686	0.637207	0.123215	-0.020901	-0.037054	0.304313	-0.812725	-0.334796	-0.367129	-155.469718	-53.179387	32.357202
40354		11.434400	-2.970439	-5.907747	1.352093	1.124375	3.278029	0.914859	-2.571892	1.052901	-0.461914	0.522217	0.634766	0.115246	-0.028833	-0.057733	0.305602	-0.817722	-0.336099	-0.353520	-155.041276	-51.590210	32.476225
40355		10.427308	-4.037354	-9.040651	-0.819785	-0.755517	4.522855	0.922615	-2.314292	1.022493	-0.444580	0.528809	0.649414	0.105514	-0.039422	-0.089374	0.307250	-0.822035	-0.337094	-0.340916	-154.560497	-50.141882	32.538635
40356		10.338008	-4.346951	-10.092319	-1.130628	-1.263077	5.178675	0.858148	-2.048446	0.979970	-0.428955	0.531982	0.648682	0.104618	-0.042528	-0.100040	0.308951	-0.825791	-0.337677	-0.329534	-154.077398	-48.842524	32.548303
40357		9.813184	-2.600037	-8.890913	0.620502	-1.485749	3.585352	0.720698	-1.804159	0.996094	-0.406006	0.544434	0.656738	0.099056	-0.025190	-0.088110	0.310490	-0.829271	-0.337558	-0.319312	-153.606034	-47.664074	32.470736
40358		8.364739	-0.349026	-6.769262	2.408352	-1.691111	0.543506	0.458843	-1.375585	0.921913	-0.389893	0.552002	0.660400	0.084125	-0.002949	-0.067122	0.311510	-0.832273	-0.336616	-0.311406	-153.219255	-46.724604	32.299920
40359		8.443376	1.206619	-3.958607	4.621491	-0.477041	-1.637690	0.214794	-0.789258	0.628740	-0.385498	0.555176	0.660645	0.084550	0.012374	-0.039239	0.312037	-0.834202	-0.335599	-0.306779	-152.978108	-46.159383	32.137735
40360		7.732910	0.607802	-3.049127	4.081633	0.279931	-2.551396	-0.103043	-0.175014	0.338780	-0.374512	0.557617	0.659668	0.077345	0.006193	-0.030427	0.311811	-0.835191	-0.334324	-0.305708	-152.910186	-45.983564	31.959227
40361		6.748855	-2.367724	-3.636410	1.096946	1.215680	-1.958044	-0.313955	0.395320	0.064270	-0.385498	0.542969	0.662354	0.067424	-0.023713	-0.036460	0.311245	-0.835169	-0.332998	-0.307785	-152.953537	-46.169562	31.770427
40362		5.757827	-2.613255	-3.375631	0.373661	1.162934	-2.749814	-0.351033	0.961780	-0.178784	-0.392578	0.550537	0.661133	0.057392	-0.026243	-0.033987	0.311078	-0.833920	-0.331726	-0.312676	-152.992689	-46.708881	31.544315
40363		4.832307	-1.921070	-3.276098	0.316675	0.457892	-3.691911	-0.449981	1.465102	-0.378020	-0.389648	0.540527	0.656738	0.048045	-0.019376	-0.033070	0.311018	-0.831664	-0.330350	-0.320112	-153.052931	-47.556290	31.275486
40364		5.268164	-2.184963	-3.070639	0.342950	0.864713	-3.402557	-0.604110	1.903847	-0.686043	-0.409912	0.525879	0.648682	0.052311	-0.022123	-0.031139	0.310511	-0.828371	-0.329278	-0.330092	-153.246269	-48.708849	31.067664
40365		5.953346	-2.225152	-2.714868	0.690398	1.319665	-3.064085	-0.731920	2.289018	-1.023372	-0.424561	0.528564	0.647461	0.059103	-0.022655	-0.027744	0.309518	-0.823962	-0.328766	-0.342341	-153.597949	-50.145127	30.979259
40366		6.070802	-2.293814	-2.737338	0.528999	1.310809	-2.912839	-0.832993	2.597919	-1.270772	-0.447266	0.513916	0.638184	0.060199	-0.023438	-0.028061	0.308119	-0.818618	-0.328537	-0.356358	-154.078190	-51.803892	30.980031
40367		6.488313	-2.649798	-2.905137	0.216426	1.452201	-2.369629	-0.939274	2.848639	-1.466517	-0.466064	0.497559	0.627197	0.064265	-0.027110	-0.029843	0.306284	-0.812455	-0.328472	-0.371772	-154.690685	-53.639825	31.074061
40368		7.391027	-2.982301	-3.221027	0.049321	1.602108	-1.367552	-0.976483	3.036452	-1.642808	-0.498535	0.487549	0.620850	0.073162	-0.030586	-0.033177	0.304171	-0.805473	-0.328645	-0.388183	-155.426246	-55.615880	31.286798
40369		8.100575	-3.626827	-3.651145	-0.579531	1.770618	-0.398677	-0.888925	3.167327	-1.784080	-0.519775	0.461182	0.604980	0.080087	-0.037151	-0.037621	0.302264	-0.797594	-0.329269	-0.405046	-156.230575	-57.690893	31.640481
40370		8.512555	-4.670333	-4.132998	-1.749954	2.029910	0.393300	-0.649283	3.243742	-1.920928	-0.546387	0.443604	0.596436	0.083987	-0.047650	-0.042545	0.301036	-0.788694	-0.330669	-0.421898	-157.062639	-59.835070	32.175045
40371		9.139966	-5.695909	-4.462915	-2.810675	2.418218	1.238856	-0.296899	3.264945	-2.047483	-0.574463	0.438232	0.587646	0.090066	-0.057953	-0.046021	0.300870	-0.778711	-0.333179	-0.438268	-157.901736	-62.013113	32.940954
40372		9.701614	-6.295747	-4.858699	-3.661265	2.436222	1.934887	0.169855	3.247385	-2.121288	-0.604004	0.422119	0.559326	0.095535	-0.063934	-0.050200	0.302197	-0.767658	-0.336874	-0.453757	-158.684473	-64.192755	33.923566
40373		9.787067	-6.388330	-4.952337	-4.174055	2.216647	1.967217	0.689112	3.197747	-2.179512	-0.620117	0.406982	0.547852	0.096357	-0.064764	-0.051294	0.305205	-0.755532	-0.341944	-0.468077	-159.409574	-66.350986	35.156986
40374		9.791531	-5.737285	-5.004358	-4.088394	1.546526	1.793658	1.156181	3.109148	-2.203618	-0.644775	0.410645	0.520020	0.096480	-0.058145	-0.051886	0.309630	-0.742573	-0.348172	-0.481135	-160.126259	-68.460430	36.646571
40375		9.742996	-4.584660	-4.833722	-3.460359	0.755580	1.445532	1.505749	2.993150	-2.186193	-0.667236	0.395996	0.494385	0.096182	-0.046530	-0.050132	0.315088	-0.729077	-0.355244	-0.492917	-160.902856	-70.495600	38.397377
40376		9.822466	-3.185122	-4.672489	-2.543263	-0.119402	1.230926	1.710610	2.862028	-2.128271	-0.698975	0.393799	0.471191	0.097197	-0.032480	-0.048397	0.321058	-0.715406	-0.362651	-0.503588	-161.821968	-72.440325	40.396367
40377		9.833845	-1.633011	-4.437016	-1.419866	-0.975987	0.961318	1.778973	2.732598	-2.028545	-0.716309	0.379883	0.446533	0.097549	-0.016919	-0.045855	0.327187	-0.701849	-0.369968	-0.513303	-162.940221	-74.284908	42.627650
40378		9.786194	-0.407959	-4.140422	-0.502823	-1.560992	0.693581	1.678626	2.597016	-1.902279	-0.721924	0.378906	0.422852	0.097271	-0.004652	-0.042707	0.332902	-0.688803	-0.376653	-0.522359	-164.363929	-76.020514	45.091413
40379		9.784531	0.459278	-3.716293	0.210821	-1.798459	0.505913	1.391188	2.474940	-1.747937	-0.743896	0.377441	0.404297	0.097412	0.004004	-0.038341	0.337719	-0.676625	-0.382170	-0.531104	-166.187957	-77.646949	47.783617
40380		9.876945	0.872421	-3.457867	0.482086	-1.911756	0.501332	0.961102	2.363342	-1.552198	-0.753906	0.364746	0.389893	0.098417	0.008129	-0.035703	0.341280	-0.665685	-0.385950	-0.539846	-168.443676	-79.163951	50.644138
40381		9.895702	0.747929	-3.388023	0.191987	-1.937752	0.490987	0.462170	2.267873	-1.327118	-0.765869	0.353027	0.366455	0.098612	0.006904	-0.034983	0.343558	-0.656143	-0.387745	-0.548724	-171.104069	-80.577770	53.615969
40382		9.933489	0.233664	-3.516265	-0.525036	-1.954579	0.530983	-0.019154	2.173256	-1.105997	-0.774658	0.348877	0.355713	0.098956	0.001785	-0.036240	0.344624	-0.648005	-0.387589	-0.557762	-174.191073	-81.894588	56.728299
40383		9.924636	-0.267275	-3.540004	-1.178545	-1.889773	0.489559	-0.419362	2.099926	-0.891980	-0.778320	0.341309	0.349609	0.098854	-0.003190	-0.036433	0.344799	-0.641087	-0.385699	-0.566884	-177.700343	-83.130455	60.025736
40384		9.689242	-0.722466	-3.467280	-1.747421	-1.774734	0.198204	-0.703003	2.021288	-0.738065	-0.804688	0.335205	0.325684	0.096508	-0.007705	-0.035623	0.344305	-0.635090	-0.382594	-0.575966	178.045428	-84.290085	63.900478
40385		9.402314	-1.116674	-3.442518	-2.267907	-1.714909	-0.147624	-0.885702	1.941641	-0.647638	-0.804932	0.320313	0.312012	0.093646	-0.011625	-0.035285	0.343294	-0.629733	-0.378767	-0.584911	172.372077	-85.367101	69.087743
40386		9.172353	-1.203681	-3.483044	-2.531261	-1.833413	-0.435022	-0.992505	1.863265	-0.590871	-0.808105	0.310303	0.305908	0.091358	-0.012483	-0.035621	0.341923	-0.624816	-0.374534	-0.593648	164.160711	-86.344178	76.750367
40387		8.815121	-1.210274	-3.519478	-2.711159	-1.977927	-0.852077	-1.029739	1.776490	-0.555440	-0.815186	0.304932	0.294678	0.087800	-0.012531	-0.035912	0.340339	-0.620218	-0.370187	-0.602047	151.501165	-87.168264	88.839358
40388		8.448411	-1.341992	-3.572635	-2.993304	-2.057414	-1.283610	-1.018024	1.693642	-0.540754	-0.820068	0.299805	0.286621	0.084141	-0.013832	-0.036370	0.338645	-0.615805	-0.365928	-0.610083	131.731942	-87.741002	108.043915
40389		8.167437	-1.492699	-3.612901	-3.271842	-2.095125	-1.633954	-0.950980	1.613734	-0.548725	-0.821045	0.288330	0.270264	0.081338	-0.015324	-0.036714	0.336952	-0.611449	-0.362000	-0.617697	105.617573	-87.908111	133.631750
40390		7.957133	-1.539824	-3.680096	-3.465087	-2.193620	-1.912720	-0.825063	1.536876	-0.576577	-0.831299	0.277588	0.267822	0.079241	-0.015780	-0.037346	0.335389	-0.607010	-0.358640	-0.624844	81.908004	-87.625521	156.886000
40391		7.806819	-1.558559	-3.650481	-3.576926	-2.215244	-2.131662	-0.647283	1.478078	-0.617064	-0.836670	0.271729	0.253174	0.077747	-0.015945	-0.037029	0.334108	-0.602339	-0.356031	-0.631508	66.148517	-87.043038	172.291431
40392		7.748839	-1.598519	-3.567431	-3.675125	-2.176490	-2.257482	-0.424165	1.414385	-0.664594	-0.837646	0.266846	0.244629	0.077180	-0.016318	-0.036186	0.333211	-0.597368	-0.354348	-0.637620	56.810758	-86.315389	-178.598454
40393		7.604742	-1.560942	-3.525395	-3.716034	-2.212421	-2.464769	-0.209571	1.360206	-0.707695	-0.841064	0.262939	0.237793	0.075749	-0.015915	-0.035753	0.332701	-0.592099	-0.353549	-0.643220	51.240094	-85.525377	-173.133628
40394		7.588087	-1.502495	-3.497454	-3.749277	-2.271690	-2.542906	-0.001567	1.306913	-0.759424	-0.844238	0.259033	0.223877	0.075592	-0.015313	-0.035469	0.332526	-0.586529	-0.353638	-0.648344	47.915104	-84.705250	-169.797139
40395		7.796813	-1.341501	-3.497166	-3.727878	-2.413391	-2.389938	0.176393	1.262355	-0.799311	-0.851318	0.245361	0.213135	0.077691	-0.013695	-0.035475	0.332647	-0.580704	-0.354476	-0.653051	45.905491	-83.873898	-167.675444
40396		8.149467	-1.069178	-3.399215	-3.578247	-2.537384	-2.075239	0.328567	1.218653	-0.812676	-0.853271	0.241943	0.200195	0.081241	-0.010966	-0.034506	0.333069	-0.574712	-0.355901	-0.657347	44.659583	-83.049126	-166.231518
40397		8.426244	-0.837261	-3.292838	-3.453241	-2.633587	-1.832497	0.434046	1.173330	-0.804104	-0.857910	0.236328	0.197021	0.084033	-0.008639	-0.033440	0.333723	-0.568677	-0.357706	-0.661273	43.863525	-82.243627	-165.177581
40398		8.567192	-0.849290	-3.074865	-3.461244	-2.503100	-1.730240	0.484263	1.114325	-0.776948	-0.861572	0.226807	0.182373	0.085465	-0.008750	-0.031246	0.334487	-0.562772	-0.359677	-0.664860	43.346398	-81.471986	-164.374462
40399		8.707492	-0.789568	-2.914629	-3.436947	-2.457823	-1.622186	0.485404	1.056945	-0.736054	-0.864502	0.217529	0.175781	0.086890	-0.008144	-0.029625	0.335270	-0.557100	-0.361616	-0.668183	42.971975	-80.739377	-163.713441
40400		8.913325	-0.587845	-2.631430	-3.238106	-2.381345	-1.412670	0.460633	0.989394	-0.655583	-0.872803	0.220703	0.170166	0.088982	-0.006109	-0.026769	0.336116	-0.551818	-0.363344	-0.671196	42.614481	-80.066119	-163.082714
40401		8.869640	-0.387797	-2.203730	-2.924753	-2.164326	-1.419947	0.406101	0.916440	-0.566145	-0.870850	0.209717	0.163574	0.088583	-0.004084	-0.022452	0.336966	-0.547013	-0.364753	-0.673933	42.236663	-79.457363	-162.461793
40402		8.792961	-0.577540	-1.790638	-2.939359	-1.754906	-1.497884	0.329572	0.829307	-0.487287	-0.876221	0.217773	0.143799	0.087840	-0.005960	-0.018280	0.337704	-0.542760	-0.365824	-0.676417	41.868085	-78.915630	-161.893773
40403		8.853678	-0.941573	-1.513042	-3.187407	-1.378219	-1.475785	0.259744	0.730198	-0.398763	-0.873047	0.207764	0.144531	0.088462	-0.009572	-0.015466	0.338363	-0.539108	-0.366578	-0.678597	41.502093	-78.448972	-161.368199
40404		8.917337	-1.224893	-1.144281	-3.314786	-0.960518	-1.421149	0.216349	0.613077	-0.290036	-0.871826	0.205078	0.130127	0.089120	-0.012366	-0.011729	0.339054	-0.536121	-0.367083	-0.680343	41.132444	-78.073709	-160.863485
40405		9.053500	-1.486625	-0.814705	-3.447044	-0.588428	-1.291473	0.191824	0.484348	-0.183656	-0.873291	0.195801	0.126953	0.090501	-0.014941	-0.008381	0.339801	-0.533799	-0.367435	-0.681605	40.784669	-77.792950	-160.394908
40406		9.220433	-1.716368	-0.483947	-3.546684	-0.229040	-1.119876	0.193160	0.342054	-0.073765	-0.879883	0.194580	0.126709	0.092190	-0.017193	-0.005014	0.340664	-0.532163	-0.367737	-0.682290	40.477835	-77.615153	-159.967034
40407		9.233505	-1.905946	-0.450826	-3.710129	-0.130423	-1.134474	0.206974	0.190412	0.038630	-0.872803	0.192627	0.126221	0.092334	-0.019037	-0.004616	0.341666	-0.531222	-0.368045	-0.682356	40.220146	-77.544179	-159.581185
40408		9.132889	-1.912876	-0.452745	-3.695762	-0.138075	-1.233877	0.203998	0.040058	0.156989	-0.879395	0.197021	0.126709	0.091343	-0.019052	-0.004565	0.342789	-0.531021	-0.368284	-0.681821	39.978482	-77.583189	-159.213476
40409		9.234859	-1.621642	-0.090215	-3.279462	0.013828	-1.028305	0.181361	-0.093832	0.273951	-0.876953	0.199463	0.120850	0.092371	-0.016089	-0.000873	0.344000	-0.531524	-0.368364	-0.680774	39.710447	-77.722915	-158.832166
40410		9.907162	-1.418486	0.315538	-3.013765	0.210067	-0.266146	0.228433	-0.252553	0.416485	-0.879883	0.200195	0.127441	0.099097	-0.013982	0.003264	0.345531	-0.532752	-0.368496	-0.678966	39.435813	-77.985267	-158.416838
40411		11.046461	-1.397670	0.645734	-3.004826	0.401446	0.920633	0.413110	-0.412426	0.579858	-0.875488	0.208252	0.122314	0.110491	-0.013670	0.006657	0.347807	-0.534493	-0.369093	-0.676106	39.181723	-78.376502	-157.914871
40412		11.905945	1.489506	1.815350	-0.053752	-0.031553	2.322440	0.739438	-0.363789	0.514797	-0.868896	0.214111	0.131348	0.118987	0.015134	0.018426	0.350820	-0.535377	-0.370872	-0.672867	39.148045	-78.723314	-157.447740
40413		12.524978	4.607994	2.194971	2.775598	-1.192418	3.370645	1.043535	-0.234246	0.233613	-0.873291	0.220459	0.131836	0.125170	0.046110	0.022337	0.353930	-0.534750	-0.374193	-0.669892	39.677441	-78.909903	-157.377355
40414		12.576227	5.098714	1.257122	2.807327	-2.181218	3.344037	1.143315	-0.157986	0.045349	-0.867432	0.213623	0.128418	0.125741	0.050942	0.012962	0.356809	-0.533328	-0.378202	-0.667242	40.552081	-78.994679	-157.600547
40415		11.278283	3.811069	0.817494	1.739122	-1.822044	1.851254	0.977900	-0.195800	0.127639	-0.861084	0.221924	0.117920	0.112750	0.038142	0.008472	0.359438	-0.532461	-0.381498	-0.664641	41.230086	-79.125158	-157.719882
40416		9.799218	3.231329	0.803038	1.517224	-1.424210	0.325379	0.756041	-0.275041	0.311260	-0.869141	0.223389	0.117920	0.097930	0.032435	0.008288	0.361930	-0.532600	-0.383702	-0.661904	41.530798	-79.359955	-157.584456
40417		9.108231	4.319104	0.461266	2.509716	-2.123735	-0.272359	0.713826	-0.370755	0.456667	-0.869141	0.229248	0.130371	0.090974	0.043382	0.004936	0.364597	-0.533395	-0.385544	-0.658721	41.669027	-79.690269	-157.308552
40418		10.061965	4.343042	0.071070	2.286014	-2.502836	0.609370	0.740342	-0.496957	0.575203	-0.863525	0.232666	0.134521	0.100492	0.043716	0.001122	0.367475	-0.534778	-0.387379	-0.654913	41.801980	-80.120727	-157.012099
40419		12.143908	2.328672	0.010903	0.228281	-1.777827	2.421824	0.862530	-0.623155	0.646856	-0.860107	0.238525	0.136719	0.121362	0.023677	0.000589	0.370656	-0.536466	-0.389641	-0.650383	42.105157	-80.631741	-156.817803
40420		13.479665	0.862151	-0.974464	-1.565701	-2.082488	3.476556	0.907134	-0.759169	0.777534	-0.855225	0.244873	0.129395	0.134797	0.009188	-0.009192	0.374102	-0.538749	-0.391933	-0.645125	42.420636	-81.251797	-156.610251
40421		13.515325	-0.217578	-1.176558	-2.476292	-1.766994	3.409976	0.899657	-0.901892	0.851941	-0.856445	0.253662	0.141846	0.135212	-0.001549	-0.011164	0.377466	-0.541618	-0.394245	-0.639328	42.907387	-81.960242	-156.580671
40422		12.076044	-1.068843	-0.106439	-2.494833	-0.309081	2.047454	0.777038	-0.957569	0.879299	-0.850342	0.268066	0.147217	0.120809	-0.010155	-0.000526	0.380455	-0.544925	-0.396175	-0.633527	43.446184	-82.703636	-156.674363
40423		10.297116	-1.762272	0.194093	-2.676227	0.380036	0.280174	0.618875	-0.954950	0.933735	-0.841797	0.271729	0.147217	0.103041	-0.017149	0.002379	0.383169	-0.548596	-0.397427	-0.627914	43.754191	-83.466392	-156.626888
40424		9.552930	-2.542733	-0.141088	-3.329692	0.447806	-0.514553	0.546144	-0.918914	0.940647	-0.844238	0.279541	0.164551	0.095653	-0.024974	-0.001040	0.385758	-0.552284	-0.398343	-0.622492	43.883254	-84.218052	-156.441253
40425		8.852975	-2.365526	-0.583328	-3.166681	0.028912	-1.194018	0.569706	-0.864355	0.914083	-0.839844	0.286865	0.167236	0.088661	-0.023234	-0.005517	0.388417	-0.555671	-0.399280	-0.617201	43.897091	-84.935616	-156.126724
40426		8.394243	-1.671987	-0.351545	-2.307946	0.021476	-1.563167	0.530697	-0.790478	0.882619	-0.833984	0.301514	0.167969	0.084028	-0.016340	-0.003227	0.391004	-0.558825	-0.400022	-0.612219	43.625968	-85.611233	-155.548888
40427		8.661395	-1.702342	-0.142334	-2.188091	0.242609	-1.263381	0.378929	-0.720362	0.850874	-0.841064	0.305908	0.168213	0.086690	-0.016652	-0.001143	0.393192	-0.561970	-0.400237	-0.607783	42.891411	-86.243544	-154.594279
40428		9.272110	-1.557753	-0.459380	-2.117388	-0.098536	-0.641220	0.189452	-0.634987	0.822464	-0.832031	0.317139	0.166992	0.092798	-0.015192	-0.004314	0.394922	-0.565161	-0.399775	-0.603995	41.327216	-86.828436	-152.917823
40429		9.460949	-1.570594	-1.067661	-2.274941	-0.641056	-0.456980	0.038188	-0.552070	0.741847	-0.820313	0.326660	0.178223	0.094696	-0.015353	-0.010418	0.396136	-0.568217	-0.398911	-0.600896	39.071732	-87.342339	-150.636988
40430		9.555080	-1.681919	-1.501353	-2.461685	-0.984015	-0.359977	0.011063	-0.498332	0.670062	-0.828369	0.325928	0.176758	0.095643	-0.016498	-0.014776	0.397158	-0.571020	-0.398054	-0.598126	36.115151	-87.802307	-147.670763
40431		9.506019	-1.485860	-1.702598	-2.278461	-1.223670	-0.390278	0.104557	-0.453867	0.621089	-0.822998	0.323975	0.185059	0.095144	-0.014554	-0.016818	0.398381	-0.573389	-0.397523	-0.595393	32.021282	-88.215688	-143.513963
40432		9.489660	-1.261722	-1.696198	-1.997604	-1.283909	-0.384888	0.260364	-0.442416	0.575438	-0.828369	0.344238	0.183105	0.094970	-0.012322	-0.016768	0.399934	-0.575323	-0.397557	-0.592456	26.430954	-88.598477	-137.771594
40433		9.750277	-0.555509	-1.340671	-1.146420	-1.198596	-0.095561	0.418378	-0.439891	0.556001	-0.822998	0.346924	0.189209	0.097547	-0.005256	-0.013203	0.401880	-0.576878	-0.398105	-0.589250	17.482166	-88.951861	-128.580502
40434		10.075311	0.211488	-1.449942	-0.401599	-1.562918	0.239897	0.550584	-0.437376	0.547895	-0.813721	0.345459	0.182861	0.100778	0.002430	-0.014273	0.404184	-0.578142	-0.399052	-0.585785	0.731593	-89.254022	-111.511767
40435		10.203143	-0.322608	-1.617333	-0.885697	-1.512433	0.373162	0.649189	-0.446434	0.540957	-0.818848	0.361328	0.187012	0.102075	-0.002898	-0.015955	0.406724	-0.579198	-0.400319	-0.582108	-30.764821	-89.430019	-79.640892
40436		10.211634	-0.653134	-1.801457	-1.183677	-1.553374	0.391955	0.767846	-0.437948	0.515226	-0.816650	0.358398	0.175293	0.102172	-0.006200	-0.017815	0.409541	-0.579931	-0.401978	-0.578246	-67.541994	-89.372163	-42.421164
40437		10.238660	-0.077307	-1.418735	-0.438326	-1.372608	0.423147	0.855957	-0.430757	0.473641	-0.820313	0.366699	0.188965	0.102418	-0.000470	-0.013969	0.412495	-0.580355	-0.403988	-0.574308	-90.143872	-89.154256	-19.326497
40438		10.184098	0.074030	-0.699607	0.012014	-0.722222	0.370074	0.792252	-0.426967	0.486625	-0.814941	0.371338	0.187988	0.101853	0.001015	-0.006775	0.415300	-0.580919	-0.405757	-0.570456	-102.141526	-88.852499	-6.872344
40439		10.050085	0.065408	0.038791	0.306132	0.002762	0.233002	0.549525	-0.417994	0.527968	-0.817383	0.381836	0.181885	0.100498	0.000918	0.000600	0.417524	-0.582023	-0.406687	-0.567034	-108.481056	-88.501227	-0.215676
40440		9.824859	0.078742	0.147223	0.410569	0.124691	0.004198	0.193299	-0.422881	0.539321	-0.816650	0.385986	0.190186	0.098243	0.001051	0.001681	0.418730	-0.583908	-0.406577	-0.564280	-112.527456	-88.129292	3.943999
40441		9.747593	-0.745645	0.387683	-0.234464	0.639067	-0.052662	-0.131838	-0.427435	0.518564	-0.806641	0.380127	0.195068	0.097486	-0.007201	0.004090	0.418912	-0.586428	-0.405616	-0.562220	-115.551273	-87.761957	6.894702
40442		9.845193	-1.367561	0.198377	-0.818599	0.685962	0.071460	-0.337710	-0.425686	0.492489	-0.812988	0.392822	0.192383	0.098481	-0.013430	0.002216	0.418417	-0.589323	-0.404143	-0.560620	-117.982292	-87.402317	9.134947
40443		9.930391	-1.988352	-0.109574	-1.440531	0.627378	0.192765	-0.436392	-0.433213	0.469684	-0.808350	0.396484	0.197510	0.099352	-0.019652	-0.000838	0.417544	-0.592382	-0.402471	-0.559248	-120.086922	-87.050122	10.992252
40444		9.845989	-2.207763	-0.177513	-1.615096	0.669368	0.126742	-0.398896	-0.434151	0.442857	-0.810303	0.397217	0.210693	0.098512	-0.021863	-0.001518	0.416674	-0.595332	-0.400960	-0.557847	-121.918677	-86.706164	12.593953
40445		9.866546	-1.702196	-0.406579	-1.157675	0.319665	0.135618	-0.309597	-0.430298	0.423186	-0.803467	0.402100	0.215820	0.098710	-0.016819	-0.003827	0.416043	-0.598009	-0.399764	-0.556311	-123.423940	-86.372329	13.924794
40446		9.824575	-1.670292	-0.558545	-1.126911	0.196820	0.102711	-0.199662	-0.440712	0.422849	-0.799316	0.410889	0.215088	0.098293	-0.016501	-0.005352	0.415716	-0.600489	-0.398890	-0.554508	-124.705124	-86.031792	15.094847
40447		9.677879	-1.205044	-0.550562	-0.644245	0.074680	-0.066115	-0.095517	-0.432174	0.414290	-0.798096	0.412842	0.207275	0.096815	-0.011852	-0.005291	0.415689	-0.602697	-0.398310	-0.552547	-125.717611	-85.698280	16.055647
40448		9.730280	-0.604101	-0.621618	-0.048789	-0.165679	-0.045416	-0.076527	-0.432692	0.398163	-0.804932	0.410400	0.220459	0.097328	-0.005850	-0.006003	0.415647	-0.604858	-0.397809	-0.550575	-126.662061	-85.368933	16.955179
40449		9.640384	-0.616096	-0.641864	-0.024298	-0.154969	-0.132620	-0.111803	-0.433653	0.395365	-0.796143	0.425293	0.222900	0.096429	-0.005974	-0.006206	0.415508	-0.607055	-0.397237	-0.548671	-127.507110	-85.041477	17.739454
40450		9.530345	-0.529528	-0.717950	0.071187	-0.230811	-0.243741	-0.178497	-0.428833	0.398013	-0.799316	0.419434	0.231689	0.095329	-0.005112	-0.006971	0.415155	-0.609406	-0.396441	-0.546905	-128.266483	-84.711610	18.395246
40451		9.593166	-0.916950	-0.854510	-0.284548	-0.196884	-0.144191	-0.264063	-0.425441	0.392296	-0.790039	0.418945	0.229736	0.095967	-0.008992	-0.008329	0.414553	-0.611880	-0.395437	-0.545324	-128.984689	-84.386825	18.965273
40452		9.520894	-1.087469	-0.898092	-0.418591	-0.152764	-0.198230	-0.278021	-0.401099	0.383082	-0.793457	0.425781	0.225586	0.095247	-0.010705	-0.008775	0.413903	-0.614320	-0.394348	-0.543861	-129.579625	-84.072310	19.399112
40453		9.589701	-1.091406	-1.051702	-0.422326	-0.266440	-0.116810	-0.275334	-0.377428	0.387759	-0.791260	0.429688	0.236328	0.095938	-0.010742	-0.010321	0.413341	-0.616666	-0.393221	-0.542448	-130.000257	-83.766097	19.664020
40454		9.556278	-1.306197	-1.144151	-0.613006	-0.254294	-0.122640	-0.238478	-0.353958	0.375614	-0.791260	0.433350	0.236816	0.095607	-0.012896	-0.011257	0.412882	-0.618868	-0.392160	-0.541055	-130.325937	-83.471660	19.850882
40455		9.396948	-1.278019	-1.201460	-0.580497	-0.301370	-0.275839	-0.193685	-0.337949	0.368884	-0.787598	0.429443	0.253906	0.094013	-0.012618	-0.011843	0.412592	-0.620891	-0.391224	-0.539635	-130.559267	-83.188052	19.974618
40456		9.453908	-1.226666	-1.347016	-0.534436	-0.431989	-0.209400	-0.151562	-0.332546	0.364728	-0.788086	0.434570	0.250000	0.094583	-0.012104	-0.013304	0.412405	-0.622829	-0.390380	-0.538154	-130.756847	-82.906077	20.082282
40457		9.506976	-1.063057	-1.558590	-0.406773	-0.665434	-0.151765	-0.106313	-0.336047	0.379239	-0.789551	0.441406	0.241699	0.095116	-0.010458	-0.015421	0.412413	-0.624678	-0.389638	-0.536540	-130.878733	-82.618603	20.144291
40458		9.401180	-0.886413	-1.511192	-0.193790	-0.669749	-0.275115	-0.084345	-0.336332	0.402671	-0.787842	0.440430	0.250244	0.094055	-0.008681	-0.014950	0.412528	-0.626551	-0.388860	-0.534829	-130.924121	-82.318764	20.137899
40459		9.478070	-1.073946	-1.562922	-0.329931	-0.629220	-0.172931	-0.074176	-0.342774	0.409153	-0.794678	0.439697	0.260498	0.094829	-0.010551	-0.015463	0.412698	-0.628401	-0.388119	-0.533062	-130.957897	-82.015801	20.129640
40460		9.630531	-1.178844	-1.466071	-0.326027	-0.475490	-0.017099	-0.040966	-0.336463	0.400630	-0.774902	0.451904	0.258545	0.096353	-0.011598	-0.014496	0.412936	-0.630173	-0.387458	-0.531265	-130.982774	-81.716753	20.127341
40461		9.890470	-0.920449	-1.440196	0.005343	-0.514281	0.211187	-0.029182	-0.312617	0.402866	-0.787109	0.454590	0.256836	0.098945	-0.009007	-0.014246	0.413283	-0.631830	-0.386789	-0.529511	-130.918860	-81.427835	20.046375
40462		9.902776	-0.898866	-1.519977	0.047355	-0.580010	0.229444	-0.056414	-0.303155	0.409780	-0.789795	0.459961	0.258057	0.099069	-0.008790	-0.015047	0.413558	-0.633554	-0.385984	-0.527821	-130.838462	-81.137278	19.928944
40463		9.696674	-0.798469	-1.446034	0.184205	-0.543774	0.006896	-0.091568	-0.293472	0.428932	-0.783936	0.459229	0.262695	0.097005	-0.007783	-0.014314	0.413808	-0.635331	-0.385023	-0.526188	-130.707291	-80.844177	19.743562
40464		9.784457	-1.122578	-1.679687	-0.136021	-0.625106	0.157652	-0.133628	-0.292491	0.425851	-0.779053	0.457764	0.256104	0.097893	-0.011029	-0.016646	0.413897	-0.637208	-0.383939	-0.524640	-130.620037	-80.550580	19.574435
40465		9.769849	-1.575139	-1.653931	-0.498748	-0.423011	0.199235	-0.125841	-0.293039	0.434674	-0.785889	0.471680	0.259033	0.097757	-0.015549	-0.016386	0.414048	-0.639057	-0.382863	-0.523055	-130.512399	-80.255039	19.392694
40466		9.719138	-1.468177	-1.662600	-0.361598	-0.458482	0.139209	-0.117221	-0.283258	0.445256	-0.781006	0.474854	0.256348	0.097247	-0.014475	-0.016480	0.414255	-0.640901	-0.381737	-0.521455	-130.367283	-79.956323	19.174666
40467		9.588111	-1.561127	-1.661138	-0.418949	-0.417979	0.024890	-0.100544	-0.276875	0.448078	-0.772949	0.473633	0.261230	0.095939	-0.015405	-0.016471	0.414548	-0.642672	-0.380645	-0.519838	-130.197035	-79.660765	18.943708
40468		9.371269	-1.564638	-1.475680	-0.345342	-0.245499	-0.207133	-0.091447	-0.260724	0.437613	-0.765869	0.476807	0.262695	0.093766	-0.015448	-0.014627	0.414856	-0.644380	-0.379561	-0.518269	-130.020183	-79.373507	18.708360
40469		9.588599	-1.705483	-1.515754	-0.404597	-0.207476	0.033148	-0.087588	-0.251946	0.418780	-0.763672	0.481689	0.262207	0.095940	-0.016861	-0.015029	0.415157	-0.645995	-0.378540	-0.516762	-129.863187	-79.099751	18.498021
40470		9.712127	-1.921748	-1.422216	-0.501888	-0.022969	0.176738	-0.063577	-0.243542	0.406248	-0.767090	0.484619	0.262939	0.097177	-0.019025	-0.014098	0.415502	-0.647533	-0.377588	-0.515254	-129.710503	-78.832355	18.303161
40471		9.781478	-1.700358	-1.393049	-0.230398	-0.063793	0.209876	-0.073273	-0.237092	0.405007	-0.772949	0.490723	0.278076	0.097865	-0.016811	-0.013808	0.415836	-0.649047	-0.376614	-0.513790	-129.555115	-78.569896	18.102442
40472		9.632423	-1.745386	-1.221282	-0.193148	0.114195	0.049915	-0.113448	-0.265446	0.408550	-0.765869	0.498535	0.275391	0.096376	-0.017264	-0.012075	0.415979	-0.650742	-0.375567	-0.512294	-129.489355	-78.293303	17.966637
40473		9.439238	-1.639388	-0.897903	0.027075	0.375797	-0.197549	-0.164630	-0.287062	0.414056	-0.761963	0.505127	0.277588	0.094439	-0.016206	-0.008830	0.415940	-0.652583	-0.374429	-0.510815	-129.488442	-78.008539	17.869877
40474		9.645484	-1.680910	-0.849454	0.094625	0.466167	0.003417	-0.214839	-0.318870	0.413436	-0.768066	0.515625	0.278564	0.096503	-0.016619	-0.008323	0.415660	-0.654625	-0.373212	-0.509318	-129.587979	-77.710321	17.843554
40475		9.556597	-1.695151	-0.391029	0.275606	0.909057	-0.145609	-0.243404	-0.340543	0.408697	-0.760498	0.506104	0.273438	0.095607	-0.016761	-0.003727	0.415244	-0.656746	-0.371996	-0.507814	-129.748601	-77.408423	17.865777
40476		9.447355	-1.529272	-0.196693	0.523357	1.040325	-0.311453	-0.278818	-0.375078	0.414487	-0.756104	0.511719	0.289307	0.094508	-0.015099	-0.001769	0.414649	-0.659052	-0.370727	-0.506239	-129.985194	-77.089195	17.943005
40477		9.449515	-1.573926	0.002769	0.605924	1.266322	-0.336423	-0.314346	-0.416189	0.407596	-0.750977	0.515381	0.294189	0.094527	-0.015546	0.000249	0.413848	-0.661498	-0.369483	-0.504611	-130.318786	-76.759802	18.101130
40478		9.317203	-1.591728	0.243414	0.701036	1.514318	-0.505798	-0.328503	-0.469418	0.410919	-0.753418	0.513184	0.295410	0.093198	-0.015722	0.002679	0.412894	-0.664125	-0.368285	-0.502815	-130.742454	-76.406832	18.341142
40479		9.514632	-1.687261	0.153043	0.681074	1.516464	-0.292468	-0.351422	-0.519604	0.412637	-0.753418	0.516846	0.302734	0.095176	-0.016673	0.001807	0.411782	-0.666900	-0.367137	-0.500889	-131.244053	-76.035900	18.650841
40480		9.419905	-1.625480	0.231535	0.802300	1.595667	-0.419067	-0.368579	-0.582824	0.420178	-0.750000	0.516846	0.301270	0.094226	-0.016052	0.002620	0.410499	-0.669892	-0.366031	-0.498755	-131.831526	-75.635008	19.037171
40481		9.398019	-1.436335	0.155644	1.000890	1.492535	-0.475660	-0.420367	-0.643737	0.447068	-0.743652	0.518066	0.310791	0.094006	-0.014149	0.001889	0.409002	-0.673160	-0.364838	-0.496454	-132.478193	-75.200297	19.457047
40482		9.717402	-1.174889	0.016626	1.327123	1.336278	-0.207428	-0.506123	-0.701922	0.458587	-0.748779	0.530518	0.322998	0.097199	-0.011525	0.000537	0.407121	-0.676770	-0.363493	-0.494072	-133.217662	-74.734888	19.921098
40483		10.043728	-1.153242	0.141027	1.545102	1.523861	0.062334	-0.616520	-0.759529	0.472741	-0.737549	0.527588	0.326416	0.100458	-0.011290	0.001827	0.404794	-0.680739	-0.361946	-0.491661	-134.047173	-74.241169	20.415927
40484		10.827204	-1.168948	0.086778	1.789329	1.617318	0.807289	-0.721247	-0.810851	0.472184	-0.732422	0.534180	0.335449	0.108294	-0.011430	0.001348	0.401996	-0.685039	-0.360225	-0.489243	-134.969579	-73.723240	20.944386
40485		11.318925	-0.844439	0.293158	2.370451	1.787000	1.146487	-0.816551	-0.868452	0.470598	-0.729492	0.528320	0.341309	0.113194	-0.008165	0.003457	0.398757	-0.689627	-0.358389	-0.486791	-135.978906	-73.181889	21.509810
40486		11.495410	0.110140	0.437568	3.408178	1.600843	1.057840	-0.932208	-0.945112	0.504512	-0.725586	0.537109	0.362305	0.114928	0.001413	0.004913	0.395039	-0.694674	-0.356282	-0.484185	-137.056398	-72.590739	22.077505
40487		11.249102	1.178836	0.600479	4.435699	1.321386	0.525096	-1.097031	-1.038183	0.524639	-0.711426	0.534424	0.378174	0.112427	0.012118	0.006523	0.390616	-0.700255	-0.353879	-0.481488	-138.256603	-71.950914	22.678210
40488		10.861646	1.825224	1.216652	5.232513	1.592213	-0.175715	-1.273949	-1.154671	0.599998	-0.711426	0.525146	0.382813	0.108489	0.018657	0.012675	0.385513	-0.706558	-0.350977	-0.478510	-139.528667	-71.227065	23.248487
40489		10.905082	2.310111	1.544030	5.907142	1.713756	-0.388871	-1.427501	-1.296707	0.682525	-0.694824	0.529541	0.407227	0.108868	0.023586	0.015979	0.379786	-0.713561	-0.347668	-0.475100	-140.862669	-70.408063	23.795473
40490		10.984774	2.298950	1.985723	6.229079	2.162667	-0.516856	-1.496453	-1.441728	0.743512	-0.691162	0.531738	0.428711	0.109615	0.023549	0.020473	0.373657	-0.721076	-0.344204	-0.471119	-142.226207	-69.496984	24.333356
40491		11.216860	1.831800	2.016999	6.060577	2.506846	-0.314079	-1.451784	-1.597936	0.797414	-0.673828	0.530029	0.438721	0.111929	0.018915	0.020929	0.367506	-0.728866	-0.340909	-0.466341	-143.559178	-68.493075	24.870722
40492		11.379495	1.625380	2.212779	6.181874	2.876704	-0.297651	-1.297750	-1.776760	0.838887	-0.661865	0.533447	0.458252	0.113523	0.016878	0.023029	0.361652	-0.736771	-0.338095	-0.460508	-144.822079	-67.387087	25.430185
40493		11.530758	1.938117	2.859172	6.943963	3.376113	-0.578662	-1.102447	-1.982448	0.895243	-0.649170	0.525635	0.478516	0.114929	0.020058	0.029623	0.356254	-0.744777	-0.335856	-0.453421	-145.983220	-66.162522	26.006890
40494		12.051389	2.859639	3.429139	8.321059	3.561866	-0.689193	-0.898580	-2.187890	0.973741	-0.633545	0.531494	0.499268	0.119988	0.029339	0.035475	0.351387	-0.752908	-0.334091	-0.445016	-147.005547	-64.810228	26.563818
40495		12.642765	3.071032	3.590127	8.983224	3.808332	-0.488080	-0.665264	-2.375568	1.055878	-0.613525	0.530762	0.517578	0.125825	0.031498	0.037294	0.347214	-0.761048	-0.332817	-0.435294	-147.854529	-63.339016	27.084511
40496		13.016256	2.865992	3.516027	9.143598	4.070523	-0.335721	-0.393969	-2.541734	1.119996	-0.596924	0.536133	0.528320	0.129539	0.029458	0.036752	0.343863	-0.769048	-0.332106	-0.424299	-148.517505	-61.764424	27.576158
40497		13.505731	2.797632	3.054918	9.321528	4.005128	0.016751	-0.066723	-2.697407	1.185681	-0.576660	0.540527	0.548584	0.134460	0.028785	0.032356	0.341588	-0.776759	-0.332045	-0.411957	-148.961893	-60.092170	28.041428
40498		13.788099	2.934855	2.385522	9.518697	3.647953	0.211587	0.224738	-2.837812	1.272818	-0.553955	0.557129	0.562744	0.137333	0.030195	0.025840	0.340305	-0.784232	-0.332401	-0.398350	-149.193291	-58.324172	28.459648
40499		14.191404	2.057341	1.684634	8.992124	3.878880	0.795996	0.412114	-2.934034	1.357711	-0.531982	0.561279	0.576660	0.141502	0.021497	0.018968	0.339687	-0.791515	-0.332885	-0.383802	-149.263905	-56.483137	28.824352
40500		14.779492	0.470814	0.092904	7.722357	3.868504	2.189097	0.573269	-3.028149	1.453119	-0.508057	0.567871	0.585693	0.147719	0.005775	0.003182	0.339632	-0.798647	-0.333358	-0.368355	-149.193308	-54.568465	29.135885
40501		14.802202	-0.985479	-1.203018	6.473553	3.892643	3.010808	0.705086	-3.127615	1.507452	-0.480225	0.579102	0.602295	0.148255	-0.008701	-0.009745	0.339942	-0.805586	-0.333935	-0.352077	-149.037362	-52.588601	29.444807
40502		14.635570	-2.882711	-3.188657	4.625595	3.576187	4.275214	0.798388	-3.189569	1.512945	-0.441895	0.597168	0.602783	0.147052	-0.027595	-0.029657	0.340417	-0.812229	-0.334640	-0.335286	-148.838665	-50.578257	29.773297
40503		14.336766	-3.828508	-4.566973	3.717695	3.177481	4.922203	0.878324	-3.117746	1.493031	-0.418945	0.602051	0.616699	0.144337	-0.037015	-0.043589	0.341202	-0.818317	-0.335342	-0.318565	-148.571814	-48.608884	30.084467
40504		13.215805	-5.209492	-7.879135	1.496000	1.231677	6.314923	0.873247	-2.872093	1.409923	-0.393555	0.609131	0.618896	0.133635	-0.050817	-0.077103	0.342137	-0.823644	-0.335844	-0.302921	-148.267484	-46.786582	30.347566
40505		12.395863	-6.092785	-9.700255	0.298236	0.226545	7.060833	0.854402	-2.456153	1.271186	-0.376709	0.617432	0.624023	0.125522	-0.059723	-0.095724	0.343408	-0.827939	-0.336109	-0.289170	-147.912386	-45.208459	30.535240
40506		11.138729	-2.296784	-8.162684	3.151102	-0.948828	3.793827	0.793777	-1.919649	1.120527	-0.356445	0.627930	0.630859	0.112290	-0.022019	-0.080641	0.345045	-0.831167	-0.335916	-0.277966	-147.506494	-43.938428	30.602830
40507		9.075521	1.125339	-4.525207	5.494453	-0.690522	-1.242925	0.462471	-1.270302	0.914617	-0.341309	0.625977	0.629883	0.090987	0.011773	-0.044648	0.346081	-0.833631	-0.334979	-0.270327	-147.199379	-43.044419	30.542396
40508		8.191952	2.471155	-2.895497	6.389651	-0.470579	-3.444872	0.022649	-0.621108	0.584337	-0.333252	0.628662	0.633545	0.081936	0.024954	-0.028698	0.345900	-0.835395	-0.333668	-0.266710	-147.109463	-42.566693	30.426217
40509		7.859416	0.545202	-2.224596	4.922169	0.954133	-3.341338	-0.316184	-0.045299	0.230201	-0.326416	0.622314	0.628662	0.078593	0.005507	-0.022237	0.344799	-0.836372	-0.332403	-0.266653	-147.205738	-42.474901	30.301419
40510		7.588123	-1.061024	-2.080781	3.581241	1.817926	-2.963983	-0.439114	0.537765	-0.118737	-0.335693	0.620361	0.635986	0.075819	-0.010701	-0.020988	0.343671	-0.836203	-0.331405	-0.269862	-147.361872	-42.773897	30.156686
40511		7.038809	-1.843181	-2.595340	2.491257	1.622157	-2.682498	-0.537382	1.071921	-0.351504	-0.329102	0.620850	0.638184	0.070215	-0.018626	-0.026280	0.342708	-0.835069	-0.330342	-0.275836	-147.523316	-43.401449	29.943084
40512		7.449275	-2.342582	-2.830029	2.238342	1.815355	-2.022866	-0.628629	1.550529	-0.593158	-0.348145	0.606934	0.626465	0.074201	-0.023736	-0.028802	0.341784	-0.832991	-0.329296	-0.284384	-147.707587	-44.336724	29.684477
40513		7.924975	-2.456823	-2.948895	2.290388	1.881449	-1.521210	-0.684967	2.014278	-0.843081	-0.373047	0.601807	0.628418	0.078843	-0.025004	-0.030199	0.341014	-0.829843	-0.328410	-0.295326	-147.898436	-45.572220	29.399890
40514		7.918348	-2.838833	-2.992780	1.819644	1.958614	-1.294213	-0.710274	2.430277	-1.050564	-0.387451	0.589111	0.620361	0.078662	-0.028911	-0.030784	0.340444	-0.825657	-0.327561	-0.308370	-148.072849	-47.075150	29.073769
40515		7.838938	-2.826064	-3.008863	1.574155	1.796932	-1.281785	-0.733110	2.792527	-1.229988	-0.409180	0.582764	0.629150	0.077784	-0.028853	-0.031073	0.340040	-0.820471	-0.326755	-0.323157	-148.225326	-48.807588	28.714116
40516		7.843559	-2.670656	-3.150920	1.416361	1.471953	-1.187011	-0.841283	3.109213	-1.374808	-0.441650	0.566162	0.616211	0.077748	-0.027378	-0.032607	0.339356	-0.814506	-0.325706	-0.339608	-148.400677	-50.740334	28.306417
40517		7.918689	-2.855547	-3.653520	0.878356	1.064750	-0.741110	-0.869390	3.379578	-1.561536	-0.462891	0.552734	0.605957	0.078329	-0.029332	-0.037737	0.338592	-0.807539	-0.324835	-0.357377	-148.587819	-52.860237	27.911374
40518		7.891474	-3.624942	-4.280924	-0.267422	0.842285	-0.171674	-0.753047	3.583419	-1.753946	-0.487305	0.537842	0.597412	0.077810	-0.037099	-0.044071	0.338122	-0.799398	-0.324441	-0.375999	-148.739682	-55.139575	27.558924
40519		7.798197	-4.409685	-4.814271	-1.482394	0.671048	0.225850	-0.615536	3.728130	-1.944380	-0.520752	0.531006	0.573730	0.076634	-0.044997	-0.049442	0.337961	-0.790084	-0.324718	-0.395104	-148.868596	-57.545213	27.290739
40520		8.224291	-4.936471	-5.366465	-2.312950	0.452611	0.922005	-0.474512	3.821111	-2.133821	-0.555176	0.500977	0.558838	0.080666	-0.050361	-0.055097	0.337943	-0.779684	-0.325676	-0.414514	-149.015025	-60.054412	27.137129
40521		8.541925	-5.095469	-5.581554	-2.822430	0.241972	1.234314	-0.279463	3.877168	-2.252998	-0.584717	0.491699	0.537598	0.083735	-0.051984	-0.057378	0.338395	-0.768246	-0.327285	-0.433788	-149.120099	-62.624846	27.074995
40522		8.476578	-4.904328	-5.528937	-3.117238	-0.048650	0.991613	-0.059072	3.892941	-2.364293	-0.618408	0.484375	0.520996	0.083081	-0.050049	-0.056903	0.339269	-0.755836	-0.329571	-0.452760	-149.207024	-65.237338	27.127504
40523		8.526633	-4.714776	-5.488932	-3.367385	-0.329402	0.845241	0.081598	3.870783	-2.448455	-0.634521	0.460205	0.496826	0.083597	-0.048155	-0.056538	0.340304	-0.742693	-0.332394	-0.471291	-149.338508	-67.861942	27.322328
40524		8.575624	-4.335691	-5.470948	-3.467000	-0.730264	0.660915	0.148102	3.820435	-2.473697	-0.659180	0.451660	0.474121	0.084146	-0.044363	-0.056360	0.341231	-0.729138	-0.335346	-0.489350	-149.552509	-70.470083	27.635758
40525		8.370681	-3.744434	-5.451225	-3.445988	-1.275393	0.201523	0.168182	3.755544	-2.446760	-0.688721	0.436523	0.450684	0.082197	-0.038409	-0.056097	0.342047	-0.715367	-0.338222	-0.506814	-149.848792	-73.036549	28.049669
40526		8.098485	-3.168254	-5.419177	-3.408979	-1.790592	-0.318133	0.145662	3.679674	-2.402308	-0.714111	0.417725	0.428711	0.079581	-0.032604	-0.055688	0.342563	-0.701561	-0.340814	-0.523745	-150.287382	-75.552958	28.585859
40527		7.894991	-2.540617	-5.361087	-3.259333	-2.279729	-0.774347	0.061537	3.594503	-2.351231	-0.738281	0.390381	0.399658	0.077664	-0.026307	-0.055022	0.342645	-0.687865	-0.343023	-0.540159	-150.969974	-78.009768	29.323632
40528		7.697241	-1.811179	-5.283456	-2.979831	-2.781174	-1.221095	-0.078082	3.500755	-2.300600	-0.754639	0.376465	0.381104	0.075817	-0.019009	-0.054161	0.342020	-0.674458	-0.344626	-0.556203	-152.103119	-80.404438	30.421626
40529		7.552632	-1.696013	-5.092769	-3.124871	-2.834533	-1.563820	-0.263151	3.395532	-2.245808	-0.772461	0.365723	0.351563	0.074450	-0.017868	-0.052175	0.340642	-0.661446	-0.345624	-0.571836	-154.087792	-82.722966	32.275723
40530		7.776097	-1.369812	-4.874799	-3.022370	-2.933522	-1.544903	-0.455234	3.278705	-2.176530	-0.801514	0.336670	0.327637	0.076792	-0.014650	-0.049980	0.338488	-0.648938	-0.345900	-0.587077	-157.859339	-84.949999	35.806397
40531		8.224548	-1.233562	-4.691331	-3.089530	-2.943905	-1.271578	-0.626916	3.151925	-2.078354	-0.804443	0.322510	0.311279	0.081358	-0.013334	-0.048159	0.335716	-0.637024	-0.345440	-0.601802	-166.628515	-87.038938	44.235995
40532		8.874298	-1.717319	-4.676714	-3.780048	-2.760585	-0.776489	-0.689405	3.027263	-1.943248	-0.820313	0.308594	0.293213	0.087849	-0.018194	-0.048040	0.332819	-0.625592	-0.344447	-0.615810	158.688065	-88.768740	78.542591
40533		9.153827	-2.165449	-4.562523	-4.400212	-2.525237	-0.672183	-0.612651	2.893166	-1.810864	-0.834229	0.284180	0.263428	0.090664	-0.022620	-0.046873	0.330233	-0.614482	-0.343391	-0.628841	70.951476	-88.421830	165.945600
40534		8.853786	-2.618761	-4.497696	-5.017393	-2.328434	-1.159849	-0.428684	2.735168	-1.725724	-0.841064	0.268311	0.246338	0.087681	-0.027045	-0.046123	0.328114	-0.603530	-0.342814	-0.640759	49.881689	-86.756295	-173.214040
40535		8.484340	-2.692479	-4.209075	-5.147401	-2.139531	-1.696724	-0.181589	2.561653	-1.680724	-0.853516	0.250000	0.228760	0.084065	-0.027672	-0.043146	0.326505	-0.592660	-0.343094	-0.651487	44.036940	-85.045923	-167.458748
40536		8.153531	-2.085949	-3.886726	-4.655543	-2.287245	-2.129820	0.034202	2.356855	-1.633897	-0.859863	0.250244	0.210693	0.080896	-0.021515	-0.039827	0.325265	-0.582049	-0.344194	-0.661024	41.783467	-83.415963	-165.173996
40537		8.144528	-1.687906	-3.524948	-4.320682	-2.285195	-2.215812	0.134283	2.140687	-1.554520	-0.869141	0.230469	0.186279	0.080927	-0.017485	-0.036129	0.324144	-0.572021	-0.345681	-0.669498	40.806834	-81.904368	-164.111268
40538		8.284553	-1.588809	-3.296881	-4.310257	-2.227574	-2.165247	0.166123	1.915831	-1.414475	-0.874756	0.218262	0.181152	0.082410	-0.016444	-0.033773	0.323143	-0.562840	-0.347182	-0.676945	40.296296	-80.540620	-163.498034
40539		8.595322	-1.730294	-2.981607	-4.466379	-1.967549	-1.942455	0.186782	1.681983	-1.242637	-0.873291	0.209961	0.166016	0.085589	-0.017807	-0.030553	0.322334	-0.554649	-0.348605	-0.683330	39.994733	-79.342774	-163.082549
40540		8.796620	-1.949087	-2.614976	-4.629259	-1.612535	-1.813632	0.223298	1.435661	-1.071554	-0.879395	0.203125	0.142334	0.087669	-0.019931	-0.026802	0.321752	-0.547483	-0.350040	-0.688629	39.856012	-78.315422	-162.810339
40541		8.949575	-2.218210	-2.277416	-4.824316	-1.245060	-1.727138	0.250873	1.176850	-0.895698	-0.885742	0.185547	0.133789	0.089259	-0.022553	-0.023328	0.321375	-0.541435	-0.351483	-0.692839	39.843950	-77.466796	-162.650445
40542		8.935546	-2.230957	-1.900749	-4.732584	-0.965883	-1.744060	0.245169	0.899796	-0.687236	-0.886230	0.183838	0.126709	0.089191	-0.022593	-0.019437	0.321203	-0.536698	-0.352769	-0.695944	39.880404	-76.816445	-162.543334
40543		8.908470	-2.276455	-1.603713	-4.680276	-0.723361	-1.769906	0.189794	0.599567	-0.439539	-0.883789	0.188721	0.130127	0.088986	-0.022945	-0.016326	0.321207	-0.533519	-0.353673	-0.697925	39.895085	-76.389239	-162.446089
40544		8.965400	-2.314245	-1.575446	-4.749672	-0.704639	-1.740503	0.112234	0.294852	-0.163946	-0.882813	0.179932	0.122559	0.089612	-0.023207	-0.015900	0.321426	-0.532011	-0.354055	-0.698781	39.829203	-76.197353	-162.311674
40545		9.013409	-2.239384	-1.498402	-4.667458	-0.695373	-1.674330	0.022144	0.003638	0.114812	-0.887939	0.173584	0.126221	0.090147	-0.022340	-0.014988	0.321861	-0.532158	-0.353850	-0.698573	39.649291	-76.235698	-162.112811
40546		8.865737	-2.478326	-2.082857	-5.111057	-1.045824	-1.947264	-0.069029	-0.264477	0.385710	-0.885498	0.184082	0.120117	0.088732	-0.024619	-0.020703	0.322526	-0.533867	-0.353035	-0.697373	39.321994	-76.491445	-161.816318
40547		8.315227	-3.345219	-2.559351	-5.905782	-0.927956	-2.661188	-0.143323	-0.485088	0.633321	-0.884521	0.190918	0.124756	0.083319	-0.033207	-0.025368	0.323462	-0.536895	-0.351653	-0.695310	38.808394	-76.933873	-161.372422
40548		8.034485	-4.064876	-2.921970	-6.565224	-0.809102	-3.040953	-0.136512	-0.677249	0.838433	-0.880615	0.197998	0.134033	0.080613	-0.040331	-0.028919	0.324787	-0.540932	-0.350044	-0.692369	38.155432	-77.535196	-160.782723
40549		7.551987	-4.427429	-3.408848	-6.944835	-0.973268	-3.561637	-0.063157	-0.838139	1.004641	-0.878662	0.195313	0.143555	0.075883	-0.043904	-0.033757	0.326589	-0.545674	-0.348492	-0.688573	37.390984	-78.265433	-160.037383
40550		7.067296	-4.935476	-3.540412	-7.260688	-0.765563	-4.021753	0.051262	-0.946017	1.098056	-0.867432	0.216064	0.145996	0.071109	-0.048956	-0.035081	0.328825	-0.550745	-0.347234	-0.684093	36.560441	-79.075982	-159.160025
40551		8.437680	-4.789129	-2.765980	-6.880654	-0.290732	-2.440362	0.466777	-1.001744	1.073993	-0.864014	0.220459	0.160400	0.084770	-0.047373	-0.027347	0.332005	-0.555243	-0.347540	-0.678744	36.010867	-79.901000	-158.328534
40552		11.797341	-1.603305	-1.408384	-3.928227	-1.081292	1.462475	1.171605	-0.906958	0.891502	-0.866455	0.222900	0.166260	0.118106	-0.015426	-0.013640	0.336669	-0.557905	-0.350560	-0.672685	36.081893	-80.621248	-157.719156
40553		13.860411	2.312479	-0.593775	-0.383302	-2.538816	4.015430	1.919856	-0.638032	0.362616	-0.869873	0.225342	0.166016	0.138579	0.023429	-0.005272	0.342078	-0.557416	-0.357091	-0.666900	37.537518	-81.036539	-158.078840
40554		14.650435	3.754867	-0.481093	0.881538	-3.121832	4.967067	2.260689	-0.369302	-0.121104	-0.865479	0.239746	0.158936	0.146535	0.037509	-0.004116	0.347267	-0.554528	-0.365601	-0.661997	40.050853	-81.157429	-159.311350
40555		13.818224	2.438296	-0.901272	-0.292458	-2.693571	3.984392	2.207361	-0.234073	-0.179591	-0.867920	0.238770	0.152832	0.138214	0.024355	-0.008582	0.352314	-0.551098	-0.373819	-0.657590	42.412488	-81.188246	-160.420863
40556		11.097255	2.034875	-2.422551	-0.900571	-3.646223	1.098408	1.814907	-0.247952	0.073673	-0.866455	0.239746	0.153320	0.110995	0.020608	-0.023902	0.357054	-0.548830	-0.380031	-0.653356	43.911170	-81.319901	-160.884588
40557		9.821524	3.781397	-2.940981	0.682589	-4.800603	-0.019943	1.286698	-0.408788	0.366549	-0.853027	0.246338	0.153320	0.098205	0.038181	-0.028964	0.360967	-0.548541	-0.383979	-0.649126	44.767985	-81.631735	-161.004971
40558		12.964129	7.514497	-2.167555	4.044137	-5.852671	3.552301	0.728964	-0.685196	0.737793	-0.858887	0.249512	0.155518	0.129435	0.075700	-0.020957	0.364013	-0.550855	-0.385579	-0.644502	45.060019	-82.207316	-160.877472
40559		17.098011	6.173018	-3.280582	2.055250	-6.371564	7.403088	0.181445	-0.985649	1.197333	-0.845459	0.261475	0.164063	0.170765	0.062782	-0.031907	0.366431	-0.555982	-0.384679	-0.639246	44.507524	-83.088923	-160.215053
40560		17.587062	0.757171	-4.923641	-3.270968	-5.436877	7.329442	-0.086934	-1.164725	1.441072	-0.849854	0.272461	0.164307	0.176093	0.008819	-0.048215	0.368512	-0.562610	-0.382544	-0.633505	43.320471	-84.141520	-159.069988
40561		12.774416	-3.706033	-5.123525	-6.651972	-3.429809	2.318005	0.001352	-1.148180	1.260807	-0.844482	0.284180	0.182129	0.128266	-0.036252	-0.050500	0.370272	-0.568625	-0.381134	-0.627934	42.505956	-85.112865	-158.250592
40562		8.932347	-4.508710	-4.848470	-6.790575	-2.665373	-1.421948	0.228207	-1.104498	1.006765	-0.841064	0.298340	0.187744	0.089815	-0.044581	-0.048041	0.371940	-0.573573	-0.381055	-0.622472	42.752133	-85.968715	-158.365519
40563		7.636972	-3.180267	-3.721299	-4.916092	-2.160075	-2.501714	0.330481	-1.061486	0.858176	-0.839355	0.301758	0.195313	0.076701	-0.031413	-0.036859	0.373499	-0.577872	-0.381618	-0.617195	43.953239	-86.746141	-159.378758
40564		7.806351	-1.640372	-1.518640	-2.497131	-0.805025	-2.128188	0.330102	-0.996356	0.863527	-0.834717	0.310547	0.203125	0.078208	-0.016042	-0.014824	0.375183	-0.581967	-0.382027	-0.612052	45.197549	-87.499837	-160.434379
40565		8.488313	-2.704187	-0.348536	-2.891650	0.728179	-1.410741	0.328050	-0.909687	0.924143	-0.828369	0.313965	0.207764	0.085022	-0.026644	-0.003143	0.377192	-0.585877	-0.382071	-0.607038	45.458912	-88.240284	-160.507293
40566		9.278994	-4.568319	-0.845110	-4.711564	1.081732	-0.630456	0.391117	-0.818041	0.911890	-0.823486	0.326904	0.201904	0.093031	-0.045243	-0.008160	0.379511	-0.589355	-0.382154	-0.602154	44.259289	-88.941002	-159.082331
40567		9.577769	-4.375811	-1.437430	-4.691971	0.473885	-0.288640	0.521109	-0.743733	0.793058	-0.827148	0.340088	0.209961	0.096003	-0.043341	-0.014131	0.381979	-0.592099	-0.382823	-0.597459	41.683043	-89.560360	-156.206768
40568		9.681438	-2.691054	-1.011132	-2.891725	0.176854	-0.137961	0.569143	-0.702777	0.686630	-0.822998	0.343750	0.209473	0.096941	-0.026550	-0.009847	0.384289	-0.594454	-0.383806	-0.592992	-128.811683	-89.875263	14.604928
40569		9.872348	-1.401818	-0.464539	-1.405876	0.170297	0.068506	0.434672	-0.666797	0.648124	-0.822510	0.353027	0.220703	0.098783	-0.013688	-0.004346	0.386191	-0.596820	-0.384476	-0.588931	-134.715252	-89.345799	20.758160
40570		10.107155	-0.769075	-0.205380	-0.637256	0.181150	0.304066	0.223666	-0.618887	0.605205	-0.810791	0.350098	0.216553	0.101100	-0.007383	-0.001749	0.387373	-0.599406	-0.384499	-0.585504	-135.236250	-88.849636	21.398167
40571		9.872528	-0.732784	-0.222179	-0.538478	0.179490	0.073184	0.046331	-0.567905	0.566213	-0.811279	0.357666	0.217773	0.098751	-0.007048	-0.001943	0.388049	-0.602051	-0.384067	-0.582619	-135.324447	-88.392649	21.513478
40572		9.540042	-1.371391	-0.755637	-1.275895	-0.025765	-0.229625	-0.032737	-0.527873	0.541297	-0.814697	0.361084	0.229492	0.095457	-0.013457	-0.007302	0.388449	-0.604718	-0.383372	-0.580042	-135.293104	-87.958594	21.458160
40573		9.498979	-1.181113	-1.058105	-1.160217	-0.354494	-0.258994	-0.023640	-0.495323	0.512581	-0.800537	0.365479	0.231445	0.095045	-0.011569	-0.010344	0.388886	-0.607168	-0.382746	-0.577599	-135.194051	-87.552775	21.346013
40574		9.953814	-1.084645	-1.223858	-1.056026	-0.513712	0.205955	0.072180	-0.485610	0.505145	-0.809326	0.373535	0.234375	0.099594	-0.010591	-0.012001	0.389560	-0.609431	-0.382341	-0.575024	-135.057908	-87.151058	21.241896
40575		10.191720	-1.269113	-1.272729	-1.166423	-0.456841	0.460187	0.159364	-0.480021	0.508065	-0.810547	0.380127	0.234375	0.101979	-0.012422	-0.012493	0.390561	-0.611457	-0.382216	-0.572271	-134.840528	-86.753247	21.116184
40576		10.089342	-1.203749	-1.385665	-1.088328	-0.566466	0.368576	0.195597	-0.482857	0.522584	-0.803711	0.382324	0.237305	0.100957	-0.011760	-0.013625	0.391666	-0.613482	-0.382126	-0.569400	-134.597681	-86.344792	20.979714
40577		9.968836	-0.690338	-1.539852	-0.617952	-0.895016	0.239279	0.164572	-0.483735	0.530668	-0.808838	0.385986	0.237793	0.099743	-0.006626	-0.015163	0.392729	-0.615536	-0.381944	-0.566567	-134.341193	-85.936207	20.817688
40578		10.135377	-0.541572	-1.536387	-0.400649	-0.923890	0.403238	0.104807	-0.476962	0.503786	-0.804932	0.397705	0.235596	0.101403	-0.005152	-0.015125	0.393505	-0.617670	-0.381633	-0.563909	-134.282366	-85.537716	20.813637
40579		10.079663	-0.524726	-1.441642	-0.286531	-0.821635	0.345841	-0.010512	-0.460080	0.487479	-0.798340	0.400146	0.244141	0.100842	-0.005002	-0.014184	0.393942	-0.619903	-0.381035	-0.561554	-134.264060	-85.156275	20.789764
40580		9.836780	-0.558300	-1.308271	-0.221409	-0.669093	0.101366	-0.185908	-0.447770	0.496392	-0.798828	0.399170	0.252686	0.098410	-0.005351	-0.012857	0.393847	-0.622498	-0.379864	-0.559540	-134.270986	-84.772495	20.685062
40581		9.724158	-0.833080	-1.276583	-0.409580	-0.509348	0.008483	-0.315696	-0.444517	0.502871	-0.788818	0.411377	0.251465	0.097290	-0.008106	-0.012537	0.393399	-0.625302	-0.378322	-0.557770	-134.297903	-84.390967	20.530946
40582		9.921384	-1.053721	-1.161453	-0.485727	-0.281835	0.216142	-0.413397	-0.446990	0.509876	-0.800049	0.410645	0.255127	0.099266	-0.010308	-0.011371	0.392621	-0.628352	-0.376460	-0.556148	-134.388610	-84.001932	20.378928
40583		9.884610	-1.383445	-1.096451	-0.701647	-0.062937	0.203549	-0.395258	-0.429050	0.504912	-0.794434	0.418457	0.268311	0.098904	-0.013606	-0.010725	0.391948	-0.631255	-0.374648	-0.554556	-134.407342	-83.625798	20.170515
40584		9.937563	-1.587402	-0.888788	-0.736255	0.237792	0.260346	-0.338136	-0.403342	0.472136	-0.790771	0.423828	0.263428	0.099430	-0.015654	-0.008661	0.391374	-0.633946	-0.373017	-0.552989	-134.442962	-83.269722	20.006400
40585		9.958118	-1.348391	-0.604669	-0.342926	0.420762	0.239821	-0.303062	-0.397622	0.457454	-0.798584	0.421143	0.261230	0.099623	-0.013265	-0.005828	0.390910	-0.636477	-0.371539	-0.551403	-134.478311	-82.925632	19.867637
40586		9.715976	-0.974119	-0.461453	0.083745	0.405573	-0.045895	-0.298493	-0.392566	0.459351	-0.789795	0.420654	0.267578	0.097191	-0.009525	-0.004409	0.390443	-0.639018	-0.370033	-0.549805	-134.506752	-82.579229	19.719887
40587		9.444643	-1.243175	-0.379549	-0.102302	0.601746	-0.298594	-0.314789	-0.402902	0.457741	-0.795166	0.425049	0.278320	0.094482	-0.012221	-0.003586	0.389924	-0.641572	-0.368523	-0.548211	-134.573230	-82.232923	19.605535
40588		9.335579	-1.451344	-0.471533	-0.286084	0.624546	-0.378199	-0.317105	-0.419002	0.448718	-0.797119	0.429199	0.272217	0.093398	-0.014311	-0.004497	0.389310	-0.644188	-0.367042	-0.546571	-134.726594	-81.880255	19.572715
40589		9.242908	-1.478682	-0.456187	-0.261797	0.668901	-0.468722	-0.313948	-0.421530	0.445434	-0.786621	0.425293	0.278076	0.092471	-0.014588	-0.004344	0.388716	-0.646754	-0.365601	-0.544927	-134.877447	-81.531505	19.543922
40590		9.262857	-1.263325	-0.545075	-0.048608	0.520127	-0.462798	-0.306865	-0.417617	0.446438	-0.788818	0.441895	0.287598	0.092668	-0.012435	-0.005238	0.388127	-0.649324	-0.364146	-0.543263	-135.016125	-81.180400	19.502841
40591		9.455844	-1.035853	-0.694493	0.172994	0.318998	-0.281878	-0.292300	-0.413601	0.429576	-0.783447	0.441406	0.283447	0.094594	-0.010165	-0.006734	0.387565	-0.651782	-0.362792	-0.541623	-135.166091	-80.841307	19.485654
