// General information: 
//  MT Manager version: 2019.2.0 
//  XDA version: 2019.2.0 build 3853 rev 94535 built on 2019-09-09
// Device information: 
//  DeviceId: 00B4778E
//  ProductCode: MTW2-3A7G6
//  Firmware Version: 4.6.0
//  Hardware Version: 2.0.0
// Device settings: 
//  Filter Profile: human(46.1)
//  Option Flags: Orientation Smoother Disabled, AHS Disabled, ICC Disabled
// Coordinate system: ENU
PacketCounter	SampleTimeFine	Acc_X	Acc_Y	Acc_Z	FreeAcc_E	FreeAcc_N	FreeAcc_U	Gyr_X	Gyr_Y	Gyr_Z	Mag_X	Mag_Y	Mag_Z	VelInc_X	VelInc_Y	VelInc_Z	Quat_q0	Quat_q1	Quat_q2	Quat_q3	Roll	Pitch	Yaw
40054		4.935063	0.649091	8.276529	-0.018438	0.155212	-0.155945	0.011813	-0.029796	-0.013141	-0.535156	-0.008057	-0.459473	0.049339	0.006483	0.082773	0.111013	-0.259307	-0.073627	-0.956564	5.565623	-30.826149	-168.295912
40055		4.981538	0.657501	8.306625	-0.037908	0.148276	-0.105750	0.023309	-0.033370	-0.025493	-0.535400	-0.010498	-0.449219	0.049802	0.006559	0.083075	0.110901	-0.259484	-0.073793	-0.956516	5.589055	-30.848437	-168.316224
40056		5.030436	0.586392	8.311147	-0.091660	0.213712	-0.082825	0.029154	-0.034705	-0.028204	-0.535645	-0.010010	-0.464844	0.050291	0.005845	0.083121	0.110782	-0.259662	-0.073992	-0.956466	5.616979	-30.871212	-168.338492
40057		5.115803	0.691375	8.325434	-0.127665	0.105575	-0.018054	0.038428	-0.027887	-0.028684	-0.531250	-0.010986	-0.457520	0.051147	0.006890	0.083263	0.110676	-0.259803	-0.074232	-0.956422	5.650004	-30.890178	-168.360600
40058		5.125911	0.889030	8.369356	-0.063897	-0.072638	0.041353	0.042352	-0.017618	-0.025727	-0.526855	-0.016357	-0.454346	0.051253	0.008866	0.083700	0.110592	-0.259893	-0.074482	-0.956388	5.684098	-30.903330	-168.380134
40059		4.993632	1.025652	8.264866	0.032421	-0.197349	-0.104117	0.036308	-0.015933	-0.026745	-0.539063	-0.008545	-0.454590	0.049931	0.010235	0.082655	0.110497	-0.259979	-0.074702	-0.956358	5.714865	-30.915570	-168.400196
40060		4.988898	1.048446	8.249526	0.036223	-0.217243	-0.117611	0.024125	-0.022101	-0.024901	-0.534912	-0.015137	-0.456055	0.049881	0.010468	0.082502	0.110392	-0.260100	-0.074866	-0.956324	5.738406	-30.931307	-168.419501
40061		5.026807	0.937029	8.332707	0.018628	-0.096360	-0.036636	0.012902	-0.022737	-0.018405	-0.535400	-0.016602	-0.462646	0.050259	0.009360	0.083333	0.110303	-0.260235	-0.074968	-0.956290	5.753169	-30.947892	-168.434492
40062		5.039878	0.827604	8.261811	-0.051624	-0.005285	-0.099802	0.003149	-0.017002	-0.009731	-0.537109	-0.011719	-0.451172	0.050392	0.008272	0.082623	0.110246	-0.260349	-0.075009	-0.956262	5.759346	-30.961586	-168.443387
40063		5.002077	0.843390	8.255952	-0.016571	-0.014018	-0.122881	0.001899	-0.017030	-0.005321	-0.532959	-0.014404	-0.465820	0.050014	0.008432	0.082564	0.110208	-0.260467	-0.075037	-0.956232	5.763147	-30.975666	-168.449310
40064		4.942857	0.926744	8.266649	0.061299	-0.081466	-0.137060	-0.006353	-0.014198	-0.003720	-0.539307	-0.010254	-0.454346	0.049423	0.009269	0.082670	0.110167	-0.260576	-0.075024	-0.956209	5.761731	-30.988106	-168.454025
40065		4.933217	0.923508	8.225186	0.051034	-0.085320	-0.177684	-0.014216	-0.017504	0.005687	-0.534668	-0.007568	-0.451660	0.049325	0.009242	0.082256	0.110161	-0.260709	-0.074961	-0.956178	5.752548	-31.003088	-168.452655
40066		4.929910	0.900258	8.197743	0.037687	-0.069042	-0.204812	-0.023957	-0.019758	0.008311	-0.533203	-0.010742	-0.454590	0.049291	0.009014	0.081981	0.110153	-0.260859	-0.074851	-0.956147	5.737114	-31.019390	-168.449736
40067		4.936758	0.808814	8.244573	0.034812	0.025238	-0.169198	-0.030555	-0.016338	0.016165	-0.539307	-0.014648	-0.452637	0.049360	0.008105	0.082449	0.110175	-0.260999	-0.074696	-0.956118	5.714933	-31.034306	-168.441308
40068		5.016410	0.774760	8.253981	-0.033000	0.043339	-0.123010	-0.036622	-0.013366	0.018350	-0.538818	-0.010010	-0.452148	0.050158	0.007767	0.082542	0.110202	-0.261129	-0.074509	-0.956094	5.688571	-31.047533	-168.431270
40069		4.980373	0.815258	8.202707	-0.014520	-0.003191	-0.181854	-0.037587	-0.010916	0.019756	-0.538086	-0.009033	-0.450195	0.049798	0.008173	0.082028	0.110234	-0.261249	-0.074312	-0.956073	5.660932	-31.059556	-168.420085
40070		4.973559	0.800439	8.234400	0.005829	0.014701	-0.159601	-0.045651	-0.013874	0.025433	-0.540771	-0.013672	-0.459961	0.049729	0.008030	0.082346	0.110282	-0.261388	-0.074073	-0.956048	5.626967	-31.073463	-168.405346
40071		4.954600	0.822823	8.238120	0.032296	-0.007658	-0.164339	-0.054121	-0.009405	0.026510	-0.535645	-0.009766	-0.453369	0.049541	0.008257	0.082381	0.110326	-0.261512	-0.073788	-0.956031	5.587468	-31.084988	-168.389541
40072		4.941697	0.825785	8.255937	0.055695	-0.009883	-0.155587	-0.055097	-0.013661	0.025055	-0.536133	-0.007813	-0.449219	0.049410	0.008287	0.082560	0.110360	-0.261656	-0.073503	-0.956010	5.548195	-31.098736	-168.375015
40073		4.987486	0.825638	8.287162	0.036289	-0.016793	-0.105363	-0.058826	-0.021762	0.032226	-0.536133	-0.010254	-0.458496	0.049865	0.008289	0.082875	0.110420	-0.261844	-0.073195	-0.955975	5.504425	-31.117604	-168.356171
40074		5.077951	0.831108	8.349684	-0.003297	-0.030793	-0.004905	-0.059063	-0.026826	0.028829	-0.531982	-0.013672	-0.454590	0.050767	0.008343	0.083501	0.110462	-0.262054	-0.072894	-0.955935	5.461992	-31.139048	-168.339943
40075		5.183782	0.787832	8.381231	-0.082646	-0.006184	0.073184	-0.052499	-0.027688	0.027365	-0.533447	-0.010742	-0.448975	0.051825	0.007907	0.083817	0.110505	-0.262265	-0.072626	-0.955893	5.423688	-31.161005	-168.324684
40076		5.222174	0.775274	8.312416	-0.146834	-0.018744	0.033454	-0.045182	-0.022654	0.026831	-0.536133	-0.010498	-0.450684	0.052211	0.007779	0.083128	0.110557	-0.262446	-0.072392	-0.955855	5.389730	-31.179942	-168.309484
40077		5.158612	0.722884	8.317351	-0.100754	0.039976	0.000590	-0.034641	-0.010360	0.021604	-0.537598	-0.014404	-0.448486	0.051581	0.007249	0.083175	0.110602	-0.262562	-0.072207	-0.955832	5.363057	-31.191697	-168.296943
40078		5.121543	0.694106	8.299407	-0.082886	0.067424	-0.036148	-0.031001	-0.010552	0.021500	-0.537354	-0.010986	-0.458496	0.051210	0.006959	0.082996	0.110652	-0.262676	-0.072040	-0.955807	5.338655	-31.203434	-168.284516
40079		5.045290	0.681647	8.276624	-0.030745	0.085898	-0.096012	-0.018557	-0.009852	0.010576	-0.537109	-0.015381	-0.455078	0.050448	0.006827	0.082768	0.110666	-0.262777	-0.071946	-0.955785	5.324981	-31.214303	-168.279290
40080		5.047451	0.639380	8.263221	-0.047140	0.122295	-0.109635	-0.018579	-0.016550	0.007701	-0.535645	-0.004639	-0.455322	0.050467	0.006403	0.082636	0.110663	-0.262908	-0.071861	-0.955756	5.312650	-31.228723	-168.276431
40081		5.125822	0.647338	8.285056	-0.097726	0.104234	-0.049756	-0.012221	-0.010327	0.005378	-0.531006	-0.009766	-0.453125	0.051254	0.006480	0.082853	0.110661	-0.263005	-0.071804	-0.955734	5.304409	-31.239584	-168.274680
40082		5.107283	0.633763	8.276002	-0.088423	0.118067	-0.068127	-0.008284	-0.001321	0.005150	-0.541504	-0.007080	-0.441406	0.051072	0.006342	0.082760	0.110665	-0.263057	-0.071763	-0.955722	5.298367	-31.245180	-168.272574
40083		5.120981	0.624526	8.258246	-0.110314	0.120717	-0.076858	-0.001156	0.009524	0.000559	-0.535645	-0.008057	-0.450684	0.051214	0.006246	0.082580	0.110661	-0.263052	-0.071755	-0.955724	5.297490	-31.244468	-168.272809
40084		5.046782	0.786328	8.255999	-0.009286	-0.023182	-0.104484	0.000554	0.014239	0.003282	-0.542725	-0.004639	-0.446289	0.050474	0.007864	0.082556	0.110674	-0.263023	-0.071749	-0.955731	5.296659	-31.241087	-168.270986
40085		5.980606	0.901519	7.967566	-0.902214	-0.353174	0.143405	-0.006345	-0.007498	-0.000880	-0.538818	-0.016846	-0.443848	0.059803	0.009017	0.079678	0.110650	-0.263102	-0.071727	-0.955714	5.293851	-31.250011	-168.273227
40086		5.308881	0.799171	6.794184	-0.933276	-0.367454	-1.211652	-0.026847	-0.052059	0.015329	-0.544922	-0.019287	-0.443115	0.053071	0.008005	0.067955	0.110661	-0.263409	-0.071612	-0.955637	5.275271	-31.285090	-168.267457
40087		7.538899	0.895237	7.246705	-2.545743	-0.761570	0.340656	-0.068133	-0.103070	0.017948	-0.541748	-0.012451	-0.444336	0.075351	0.008984	0.072503	0.110611	-0.263986	-0.071323	-0.955505	5.233592	-31.349556	-168.263046
40088		6.385083	0.499151	7.123574	-1.729254	-0.206104	-0.392977	-0.056836	-0.073106	0.029352	-0.540283	-0.003174	-0.447266	0.063824	0.005021	0.071258	0.110641	-0.264416	-0.071057	-0.955402	5.193580	-31.397369	-168.249131
40089		6.752300	0.405558	7.742444	-1.750226	-0.063812	0.318261	-0.053306	-0.014482	0.028177	-0.548584	-0.001221	-0.441162	0.067517	0.004086	0.077428	0.110691	-0.264565	-0.070777	-0.955376	5.153964	-31.411854	-168.232362
40090		5.445223	0.541217	8.548317	-0.229587	0.184402	0.332774	-0.018442	0.052380	0.022877	-0.541016	-0.001953	-0.448730	0.054474	0.005426	0.085468	0.110786	-0.264371	-0.070634	-0.955429	5.134227	-31.387711	-168.215151
40091		4.578987	0.552396	8.772095	0.600431	0.364541	0.073085	-0.001327	0.103463	0.013420	-0.543213	-0.010010	-0.449219	0.045835	0.005528	0.087697	0.110876	-0.263923	-0.070555	-0.955549	5.125840	-31.334147	-168.201151
40092		4.286200	0.696441	8.583443	0.782264	0.238353	-0.228153	0.004745	0.054514	-0.002040	-0.547852	-0.009033	-0.446777	0.042885	0.006962	0.085823	0.110884	-0.263698	-0.070555	-0.955610	5.128007	-31.307506	-168.200479
40093		4.220087	0.671625	8.149853	0.617968	0.189099	-0.633217	-0.015775	0.000697	0.004834	-0.544189	-0.000732	-0.444824	0.042201	0.006724	0.081498	0.110877	-0.263745	-0.070476	-0.955603	5.117546	-31.312127	-168.198425
40094		5.062292	0.800672	8.309064	0.026602	-0.053160	-0.050265	-0.021919	-0.040105	0.013321	-0.543701	-0.005371	-0.446777	0.050606	0.008019	0.083100	0.110889	-0.263992	-0.070380	-0.955541	5.102043	-31.340267	-168.193153
40095		5.359130	0.878266	8.033349	-0.331736	-0.234645	-0.124487	-0.023656	-0.041018	0.020205	-0.546631	-0.002441	-0.447510	0.053574	0.008798	0.080343	0.110931	-0.264249	-0.070266	-0.955473	5.083003	-31.369468	-168.183267
40096		5.395109	0.652784	7.666960	-0.591280	-0.095400	-0.434154	-0.031464	-0.057427	0.010709	-0.547607	-0.013672	-0.447510	0.053929	0.006543	0.076684	0.110912	-0.264583	-0.070138	-0.955393	5.063459	-31.407359	-168.180746
40097		5.318412	0.298615	8.199934	-0.347874	0.363076	-0.047404	-0.001304	-0.058144	-0.011430	-0.550293	-0.008301	-0.444580	0.053160	0.002984	0.082015	0.110827	-0.264898	-0.070182	-0.955312	5.068776	-31.444740	-168.193051
40098		5.552558	0.080725	8.480976	-0.454964	0.590125	0.297166	0.027478	-0.037179	-0.021029	-0.549316	-0.003906	-0.446045	0.055510	0.000790	0.084820	0.110741	-0.265091	-0.070366	-0.955255	5.093455	-31.469465	-168.210563
40099		5.248701	0.145910	8.179948	-0.329826	0.528071	-0.112478	0.061245	-0.034280	-0.033679	-0.551514	-0.003906	-0.451904	0.052473	0.001425	0.081809	0.110640	-0.265250	-0.070725	-0.955196	5.141653	-31.492092	-168.236353
40100		5.308042	0.716049	8.413487	-0.120571	0.021288	0.160266	0.083073	-0.036696	-0.037541	-0.544922	-0.005615	-0.442871	0.053066	0.007116	0.084148	0.110550	-0.265404	-0.071197	-0.955129	5.203986	-31.515664	-168.264942
40101		5.615327	1.295815	8.636063	-0.121558	-0.539347	0.554904	0.066654	-0.024363	-0.031383	-0.554443	-0.005615	-0.441650	0.056145	0.012921	0.086372	0.110471	-0.265513	-0.071573	-0.955079	5.254199	-31.532707	-168.288623
40102		5.293182	1.377479	8.280240	-0.004709	-0.625624	0.091159	0.029195	-0.037935	-0.017955	-0.555176	-0.009521	-0.444580	0.052917	0.013758	0.082814	0.110402	-0.265710	-0.071761	-0.955018	5.278890	-31.557977	-168.304234
40103		5.886455	1.208354	8.255336	-0.550367	-0.566316	0.367559	0.014360	-0.034594	-0.001700	-0.555176	-0.012939	-0.447021	0.058850	0.012077	0.082564	0.110391	-0.265907	-0.071854	-0.954958	5.289120	-31.582421	-168.308744
40104		5.945621	0.860845	7.875478	-0.873035	-0.312012	0.049111	0.055047	0.033854	-0.016563	-0.547363	-0.006836	-0.449951	0.059470	0.008582	0.078747	0.110389	-0.265748	-0.072125	-0.954982	5.325817	-31.566799	-168.318983
40105		5.309311	0.692389	7.870829	-0.392484	-0.035005	-0.301491	0.082322	0.080080	-0.037300	-0.558350	0.004150	-0.445068	0.053126	0.006882	0.078690	0.110340	-0.265347	-0.072527	-0.955069	5.383717	-31.523920	-168.340174
40106		5.273837	0.538411	7.964135	-0.364472	0.144460	-0.253557	0.075389	0.087063	-0.043609	-0.555176	-0.010986	-0.447021	0.052774	0.005343	0.079620	0.110255	-0.264912	-0.072901	-0.955171	5.439728	-31.476470	-168.365092
40107		4.849242	0.456855	7.984629	-0.028726	0.306410	-0.464776	0.074128	0.074854	-0.041731	-0.549316	-0.014648	-0.445068	0.048523	0.004529	0.079830	0.110172	-0.264540	-0.073272	-0.955255	5.494543	-31.436318	-168.389394
40108		5.127664	0.622262	8.164967	-0.139126	0.140508	-0.153094	0.059953	0.057287	-0.036044	-0.558350	-0.002930	-0.452148	0.051301	0.006189	0.081637	0.110092	-0.264258	-0.073578	-0.955319	5.539982	-31.406228	-168.411055
40109		4.876081	0.758057	8.110619	0.072809	0.046528	-0.319243	0.048951	0.050829	-0.025458	-0.560059	-0.009521	-0.454346	0.048782	0.007555	0.081096	0.110044	-0.264020	-0.073821	-0.955371	5.575459	-31.380637	-168.426004
40110		5.418791	0.922076	8.262316	-0.270456	-0.170680	0.105836	0.040794	0.032876	-0.015567	-0.558350	-0.009277	-0.453125	0.054202	0.009200	0.082616	0.110027	-0.263873	-0.074023	-0.955398	5.603588	-31.365586	-168.435529
40111		5.267525	0.774613	8.122287	-0.252528	-0.027177	-0.104244	0.037192	0.038477	-0.015799	-0.557129	-0.002441	-0.447266	0.052691	0.007727	0.081214	0.110006	-0.263704	-0.074203	-0.955433	5.629367	-31.347570	-168.444800
40112		5.530972	0.624401	8.309058	-0.423814	0.113241	0.178785	0.045984	0.049881	-0.014161	-0.556396	-0.008545	-0.453125	0.055331	0.006221	0.083078	0.110009	-0.263473	-0.074418	-0.955480	5.659381	-31.322894	-168.452245
40113		5.222818	0.571382	8.236542	-0.221117	0.206358	-0.047779	0.058367	0.080560	-0.024108	-0.555176	-0.011230	-0.448975	0.052262	0.005683	0.082346	0.109992	-0.263088	-0.074688	-0.955567	5.698690	-31.280414	-168.464209
40114		5.498728	0.551333	8.209641	-0.478917	0.177870	0.070489	0.070821	0.083763	-0.028625	-0.548828	-0.020996	-0.445557	0.055022	0.005476	0.082075	0.109971	-0.262677	-0.075022	-0.955656	5.746733	-31.235587	-168.478990
40115		5.072343	0.612275	7.958144	-0.238050	0.146596	-0.359782	0.076276	0.097805	-0.029892	-0.561279	-0.007080	-0.458740	0.050763	0.006085	0.079559	0.109955	-0.262197	-0.075375	-0.955762	5.797647	-31.182931	-168.493642
40116		5.238627	0.724975	8.114294	-0.283029	0.046271	-0.131349	0.073266	0.083471	-0.024304	-0.557861	-0.010010	-0.462891	0.052421	0.007214	0.081124	0.109958	-0.261787	-0.075715	-0.955847	5.845536	-31.138500	-168.505458
40117		4.801688	0.789106	8.083209	0.076135	0.057679	-0.378281	0.068155	0.078546	-0.023183	-0.554932	-0.012207	-0.450684	0.048050	0.007858	0.080816	0.109957	-0.261407	-0.076031	-0.955926	5.890068	-31.097192	-168.516759
40118		5.122498	0.851525	8.317285	-0.071629	-0.005012	-0.007733	0.059556	0.061350	-0.020738	-0.555176	-0.013916	-0.449707	0.051251	0.008485	0.083160	0.109950	-0.261111	-0.076313	-0.955985	5.929603	-31.065563	-168.527636
40119		4.799173	0.810814	8.056406	0.057918	0.040409	-0.400453	0.050502	0.054156	-0.016518	-0.550049	-0.022949	-0.458252	0.048014	0.008084	0.080553	0.109949	-0.260859	-0.076549	-0.956036	5.962564	-31.038545	-168.536162
40120		5.156696	0.867939	8.017668	-0.250627	-0.080214	-0.244062	0.033790	0.027356	-0.011252	-0.550049	-0.013428	-0.459473	0.051578	0.008663	0.080171	0.109941	-0.260744	-0.076715	-0.956055	5.985271	-31.026842	-168.543049
40121		4.890275	0.840265	8.090273	-0.000280	0.009057	-0.321994	0.026521	0.008321	0.000459	-0.558350	-0.020996	-0.453369	0.048906	0.008392	0.080902	0.109971	-0.260731	-0.076839	-0.956045	6.000308	-31.026941	-168.543467
40122		5.275063	0.782448	8.225912	-0.273012	0.028585	-0.013259	0.014845	0.009704	0.002666	-0.559326	-0.012939	-0.458496	0.052755	0.007819	0.082257	0.109998	-0.260716	-0.076906	-0.956040	6.008023	-31.026128	-168.542326
40123		4.911035	0.738238	8.193561	0.006087	0.127829	-0.232430	0.017966	0.001981	0.002205	-0.556885	-0.013184	-0.457520	0.049111	0.007376	0.081936	0.110024	-0.260738	-0.076991	-0.956024	6.017785	-31.029958	-168.542019
40124		5.203690	0.646387	8.238725	-0.240828	0.177496	-0.051371	0.025001	0.004533	0.004682	-0.552734	-0.015137	-0.463379	0.052039	0.006455	0.082387	0.110072	-0.260743	-0.077106	-0.956008	6.030813	-31.032214	-168.539900
40125		5.598205	0.812010	8.372854	-0.467059	-0.019192	0.281144	0.044362	0.021460	-0.001775	-0.560547	-0.020752	-0.459229	0.055991	0.008101	0.083724	0.110120	-0.260657	-0.077311	-0.956010	6.056348	-31.024699	-168.540841
40126		5.579559	0.861985	8.273899	-0.491308	-0.081003	0.191510	0.054758	0.073541	-0.013776	-0.557129	-0.010742	-0.464111	0.055827	0.008593	0.082721	0.110145	-0.260308	-0.077555	-0.956082	6.090235	-30.986520	-168.546114
40127		5.642712	0.970412	8.384840	-0.473399	-0.169656	0.328049	0.065565	0.111483	-0.023996	-0.559814	-0.011475	-0.458252	0.056475	0.009670	0.083820	0.110150	-0.259771	-0.077841	-0.956204	6.132212	-30.926377	-168.555417
40128		5.224264	1.071286	8.185291	-0.204624	-0.233172	-0.048297	0.062366	0.137008	-0.025154	-0.560547	-0.013184	-0.459473	0.052300	0.010681	0.081820	0.110155	-0.259110	-0.078100	-0.956362	6.171960	-30.851339	-168.563634
40129		5.051387	1.151580	8.024860	-0.129153	-0.312563	-0.266661	0.034386	0.143675	-0.016111	-0.559082	-0.010986	-0.462402	0.050572	0.011498	0.080214	0.110170	-0.258439	-0.078209	-0.956533	6.192139	-30.773348	-168.565285
40130		4.871273	1.292665	7.993039	0.031263	-0.424843	-0.373011	0.013413	0.112160	-0.004734	-0.562500	-0.015625	-0.462891	0.048758	0.012920	0.079904	0.110199	-0.257932	-0.078222	-0.956665	6.197777	-30.713721	-168.561678
40131		4.892734	1.307935	8.047655	0.034779	-0.434126	-0.314024	-0.011945	0.087083	0.008282	-0.564941	-0.007568	-0.467529	0.048962	0.013086	0.080454	0.110248	-0.257566	-0.078109	-0.956767	6.185240	-30.669472	-168.551237
40132		4.851261	1.273041	8.106546	0.083468	-0.384968	-0.288178	-0.025856	0.062270	0.018579	-0.558838	-0.015625	-0.470459	0.048537	0.012745	0.081049	0.110319	-0.257328	-0.077932	-0.956838	6.162349	-30.639699	-168.535796
40133		4.913063	1.094834	8.351602	0.099875	-0.177634	-0.063607	-0.033496	0.041398	0.016434	-0.558105	-0.014160	-0.469482	0.049147	0.010966	0.083504	0.110362	-0.257196	-0.077731	-0.956885	6.136419	-30.621967	-168.523268
40134		5.350909	0.920837	8.529474	-0.232715	-0.052347	0.295488	-0.018303	0.074173	0.007781	-0.558350	-0.010498	-0.470947	0.053540	0.009218	0.085274	0.110395	-0.256893	-0.077596	-0.956973	6.121094	-30.584743	-168.514163
40135		5.143119	0.833679	8.211855	-0.237053	-0.001820	-0.090288	-0.017880	0.100785	0.009731	-0.552979	-0.017578	-0.460449	0.051472	0.008347	0.082092	0.110449	-0.256466	-0.077446	-0.957094	6.104256	-30.532764	-168.501890
40136		5.068882	0.860746	8.115661	-0.221738	-0.038959	-0.208121	-0.011535	0.109508	0.013817	-0.563965	-0.017578	-0.473145	0.050733	0.008616	0.081128	0.110534	-0.255992	-0.077317	-0.957221	6.089546	-30.475772	-168.486332
40137		5.119728	1.211330	8.229801	-0.131793	-0.366443	-0.052723	-0.015106	0.115058	0.013534	-0.561768	-0.017334	-0.468262	0.051244	0.012123	0.082268	0.110614	-0.255496	-0.077166	-0.957357	6.072560	-30.415892	-168.470592
40138		5.035840	1.271176	7.974117	-0.175590	-0.467301	-0.309377	-0.039933	0.111452	0.015636	-0.565186	-0.007324	-0.469482	0.050402	0.012732	0.079711	0.110672	-0.255029	-0.076898	-0.957496	6.040962	-30.357892	-168.453761
40139		4.797731	0.983646	7.865707	-0.104751	-0.177952	-0.549184	-0.056474	0.088496	0.020997	-0.568848	-0.010986	-0.466309	0.048011	0.009864	0.078633	0.110726	-0.254686	-0.076555	-0.957609	5.998802	-30.313586	-168.435038
40140		5.007291	0.753507	8.194110	-0.190810	0.067165	-0.182358	-0.054775	0.079819	0.018031	-0.560059	-0.013184	-0.472168	0.050105	0.007562	0.081919	0.110764	-0.254380	-0.076230	-0.957712	5.959084	-30.273736	-168.418920
40141		4.956747	0.840148	8.422473	-0.025506	0.031221	-0.003936	-0.051954	0.106165	0.024348	-0.557129	-0.010010	-0.470703	0.049611	0.008429	0.084196	0.110846	-0.253951	-0.075894	-0.957843	5.917862	-30.219538	-168.396866
40142		4.570530	0.951999	8.194449	0.214573	-0.063759	-0.384277	-0.063875	0.110428	0.029124	-0.561035	-0.006104	-0.477051	0.045749	0.009553	0.081916	0.110937	-0.253507	-0.075495	-0.957981	5.868272	-30.162875	-168.371437
40143		4.476797	1.107649	8.283574	0.369086	-0.188499	-0.340917	-0.072451	0.071066	0.040349	-0.557617	-0.011475	-0.477539	0.044795	0.011116	0.082816	0.111056	-0.253263	-0.075060	-0.958066	5.811297	-30.129581	-168.341332
40144		4.912174	0.893521	8.380429	-0.011434	-0.048694	-0.057847	-0.090483	0.064966	0.041529	-0.562012	-0.009521	-0.483887	0.049147	0.008983	0.083784	0.111156	-0.253056	-0.074542	-0.958149	5.743987	-30.099504	-168.310911
40145		5.079190	0.850864	8.271622	-0.217710	-0.069522	-0.071557	-0.094575	0.069669	0.043714	-0.565918	-0.007568	-0.474121	0.050819	0.008559	0.082694	0.111263	-0.252833	-0.073999	-0.958238	5.673358	-30.067135	-168.278792
40146		4.663531	0.744391	8.017758	-0.012656	0.045131	-0.507588	-0.102826	0.034689	0.038209	-0.561279	-0.001953	-0.467529	0.046648	0.007494	0.080166	0.111320	-0.252776	-0.073442	-0.958289	5.601134	-30.054070	-168.252628
40147		4.779199	0.501051	8.163298	-0.101011	0.278406	-0.344662	-0.099983	-0.018995	0.037797	-0.561279	0.005127	-0.476318	0.047783	0.005060	0.081635	0.111358	-0.252978	-0.072929	-0.958271	5.532271	-30.071866	-168.230201
40148		5.013054	0.252497	8.336883	-0.274562	0.502622	-0.098262	-0.086905	-0.032766	0.032507	-0.571533	0.000977	-0.477539	0.050116	0.002569	0.083376	0.111384	-0.253234	-0.072494	-0.958233	5.473205	-30.096907	-168.212109
40149		4.950247	0.196741	8.339631	-0.228562	0.561233	-0.131476	-0.071564	-0.024487	0.022749	-0.567871	-0.007568	-0.471680	0.049492	0.002003	0.083402	0.111384	-0.253441	-0.072140	-0.958205	5.425723	-30.116978	-168.199892
40150		4.900243	0.370046	8.138280	-0.232506	0.358357	-0.315402	-0.059194	-0.032055	0.019043	-0.558350	0.000244	-0.458252	0.048989	0.003729	0.081390	0.111380	-0.253673	-0.071854	-0.958166	5.386928	-30.140859	-168.190578
40151		4.949537	0.582409	8.200953	-0.185515	0.152996	-0.219204	-0.056554	-0.057707	0.005699	-0.570068	0.001953	-0.474854	0.049472	0.005849	0.082022	0.111306	-0.254024	-0.071611	-0.958099	5.354690	-30.178955	-168.191627
40152		5.165646	0.484439	8.281771	-0.346929	0.222662	-0.048653	-0.051517	-0.074989	-0.014106	-0.566895	0.005127	-0.470459	0.051626	0.004862	0.082836	0.111137	-0.254446	-0.071428	-0.958021	5.332606	-30.225551	-168.206807
40153		5.283976	0.479153	8.439718	-0.366138	0.237263	0.146654	-0.026810	-0.062430	-0.030650	-0.570557	0.000488	-0.465088	0.052814	0.004795	0.084413	0.110925	-0.254790	-0.071376	-0.957958	5.329628	-30.264411	-168.232120
40154		5.544115	0.474963	8.243138	-0.674385	0.158908	0.108607	-0.015635	-0.041453	-0.032140	-0.563477	0.000000	-0.465576	0.055425	0.004747	0.082442	0.110728	-0.255025	-0.071370	-0.957919	5.333083	-30.290919	-168.257145
40155		5.575227	0.394875	8.034879	-0.815549	0.192811	-0.060966	-0.000529	-0.024830	-0.039567	-0.562988	-0.009033	-0.468506	0.055743	0.003938	0.080356	0.110520	-0.255171	-0.071434	-0.957899	5.346987	-30.307861	-168.286046
40156		5.672319	0.548261	8.409631	-0.681135	0.103873	0.322546	0.019023	-0.003800	-0.049318	-0.564453	0.003418	-0.469238	0.056723	0.005461	0.084098	0.110298	-0.255200	-0.071595	-0.957905	5.374875	-30.311959	-168.320112
40157		5.701967	0.565542	8.329548	-0.742589	0.071193	0.269828	0.034224	0.048062	-0.056033	-0.561035	-0.000732	-0.464844	0.057041	0.005625	0.083283	0.110081	-0.254972	-0.071807	-0.957974	5.411887	-30.286429	-168.355363
40158		5.144754	0.759222	8.430038	-0.182431	0.006097	0.090702	0.050044	0.065142	-0.062193	-0.574463	-0.004150	-0.468506	0.051477	0.007555	0.084286	0.109862	-0.254649	-0.072094	-0.958064	5.459624	-30.250466	-168.393590
40159		4.830456	0.973867	8.585286	0.202006	-0.110839	0.083562	0.051277	0.074352	-0.057314	-0.563232	-0.004639	-0.474121	0.048339	0.009703	0.085837	0.109670	-0.254286	-0.072375	-0.958161	5.505919	-30.209834	-168.427951
40160		5.072855	0.893916	8.328349	-0.151966	-0.120942	-0.022048	0.039903	0.069560	-0.047404	-0.576660	0.001953	-0.473145	0.050760	0.008911	0.083268	0.109510	-0.253952	-0.072592	-0.958252	5.542706	-30.172117	-168.456044
40161		5.356180	0.789476	8.150449	-0.508839	-0.100199	-0.041669	0.032542	0.072450	-0.040884	-0.573486	-0.003418	-0.458740	0.053593	0.007871	0.081486	0.109373	-0.253614	-0.072763	-0.958344	5.572804	-30.133442	-168.479604
40162		5.253411	0.812056	8.132938	-0.431459	-0.104506	-0.106743	0.035761	0.065666	-0.034411	-0.569092	-0.010986	-0.467041	0.052562	0.008097	0.081314	0.109269	-0.253306	-0.072946	-0.958423	5.602979	-30.098644	-168.499313
40163		5.226421	0.884644	8.151931	-0.387847	-0.163088	-0.098007	0.032020	0.055067	-0.033690	-0.576416	-0.004150	-0.468750	0.052288	0.008825	0.081506	0.109159	-0.253054	-0.073115	-0.958489	5.630912	-30.070274	-168.519199
40164		5.195678	0.772713	8.428831	-0.265646	0.007814	0.115390	0.039479	0.064174	-0.037664	-0.569336	-0.001953	-0.464600	0.051985	0.007701	0.084273	0.109043	-0.252750	-0.073321	-0.958567	5.664293	-30.036125	-168.541094
40165		4.966456	0.721350	8.445779	-0.083603	0.104201	0.010721	0.049993	0.083376	-0.043626	-0.572998	0.005127	-0.461914	0.049701	0.007182	0.084439	0.108919	-0.252349	-0.073573	-0.958668	5.704821	-29.991039	-168.565615
40166		5.187266	0.523073	8.333507	-0.381379	0.241346	0.006934	0.073068	0.081364	-0.055263	-0.567871	-0.003174	-0.461914	0.051908	0.005186	0.083316	0.108767	-0.251937	-0.073953	-0.958764	5.762598	-29.946054	-168.597878
40167		5.406977	0.225237	8.170182	-0.727706	0.466871	-0.051004	0.096919	0.098498	-0.060233	-0.562256	-0.009766	-0.464844	0.054111	0.002196	0.081676	0.108628	-0.251432	-0.074443	-0.958874	5.834853	-29.891348	-168.632182
40168		5.328868	0.066234	8.100492	-0.744684	0.629878	-0.165518	0.127321	0.102734	-0.069083	-0.572021	-0.001953	-0.462402	0.053330	0.000592	0.080978	0.108486	-0.250883	-0.075088	-0.958984	5.927380	-29.833301	-168.671913
40169		5.055907	0.458692	8.378358	-0.299998	0.365313	-0.027700	0.162399	0.113185	-0.066371	-0.569336	-0.010498	-0.461182	0.050608	0.004502	0.083759	0.108405	-0.250270	-0.075892	-0.959090	6.038453	-29.769779	-168.708987
40170		4.674205	0.850223	8.360955	0.099091	0.062816	-0.196927	0.164229	0.116478	-0.066826	-0.564941	-0.012939	-0.462891	0.046794	0.008418	0.083589	0.108325	-0.249635	-0.076704	-0.959200	6.150692	-29.703910	-168.745975
40171		4.763045	1.006511	8.550627	0.134602	-0.051207	0.025611	0.158452	0.134127	-0.068980	-0.569092	-0.008545	-0.465088	0.047691	0.009981	0.085482	0.108234	-0.248922	-0.077480	-0.959333	6.259363	-29.628175	-168.782930
40172		4.450851	0.745080	8.063513	0.097014	0.167083	-0.574283	0.138657	0.128047	-0.054095	-0.579102	-0.010742	-0.458008	0.044562	0.007383	0.080612	0.108188	-0.248250	-0.078147	-0.959458	6.352174	-29.556401	-168.810410
40173		4.607371	0.810231	8.112275	-0.009655	0.097448	-0.448727	0.117247	0.084120	-0.028589	-0.570801	-0.014404	-0.465576	0.046109	0.008048	0.081108	0.108220	-0.247814	-0.078702	-0.959522	6.425776	-29.511609	-168.824266
40174		4.665356	1.196863	8.045135	-0.001806	-0.291289	-0.440528	0.090217	0.050689	-0.000642	-0.578125	-0.006104	-0.468018	0.046674	0.011932	0.080445	0.108340	-0.247560	-0.079112	-0.959540	6.476279	-29.487258	-168.822268
40175		4.836499	1.382213	7.964184	-0.142081	-0.510605	-0.407925	0.049012	0.010266	0.008299	-0.577881	-0.010010	-0.465820	0.048369	0.013805	0.079643	0.108435	-0.247530	-0.079334	-0.959519	6.501560	-29.486877	-168.817397
40176		5.155482	1.225082	8.249168	-0.323059	-0.352273	-0.019827	0.020806	0.007157	0.024601	-0.573486	-0.015381	-0.462158	0.051556	0.012249	0.082491	0.108572	-0.247533	-0.079404	-0.959497	6.505752	-29.488947	-168.802111
40177		4.741464	0.940744	8.248867	-0.040028	-0.008541	-0.251903	0.005202	0.016995	0.028935	-0.571533	-0.009033	-0.464844	0.047420	0.009412	0.082485	0.108715	-0.247502	-0.079386	-0.959490	6.499053	-29.486082	-168.783249
40178		4.685095	0.900564	8.221457	-0.013986	0.032338	-0.307307	-0.010492	0.005052	0.038468	-0.580322	-0.005615	-0.462158	0.046851	0.009019	0.082213	0.108880	-0.247537	-0.079290	-0.959471	6.480926	-29.490246	-168.759050
40179		4.368424	1.144069	8.132700	0.279530	-0.170369	-0.516147	-0.040234	-0.032816	0.054964	-0.576660	-0.014893	-0.459961	0.043668	0.011469	0.081332	0.109071	-0.247780	-0.079049	-0.959406	6.441621	-29.517405	-168.726851
40180		4.544900	1.489969	8.197938	0.253442	-0.528577	-0.339638	-0.123963	-0.080650	0.095111	-0.577148	-0.002441	-0.454834	0.045409	0.014972	0.081988	0.109333	-0.248311	-0.078385	-0.959293	6.343265	-29.573945	-168.671841
40181		4.860760	1.609224	8.419912	0.130476	-0.667092	0.018357	-0.189036	-0.118271	0.117509	-0.582275	-0.013428	-0.458008	0.048548	0.016200	0.084213	0.109606	-0.249070	-0.077400	-0.959146	6.201385	-29.653589	-168.604688
40182		5.404051	0.915312	8.524238	-0.440759	-0.087173	0.311655	-0.167742	-0.096976	0.086529	-0.569336	-0.006836	-0.458740	0.053995	0.009248	0.085261	0.109766	-0.249699	-0.076545	-0.959032	6.081006	-29.718693	-168.556096
40183		5.280641	0.481649	8.519923	-0.433103	0.338517	0.207495	-0.105165	-0.063035	0.059599	-0.575684	0.000977	-0.457764	0.052778	0.004877	0.085213	0.109887	-0.250123	-0.076003	-0.958951	6.003786	-29.763142	-168.522662
40184		5.444994	0.751843	8.201440	-0.644255	-0.022679	0.039280	-0.071248	-0.052026	0.049868	-0.575684	-0.010254	-0.453369	0.054427	0.007561	0.082026	0.110008	-0.250470	-0.075632	-0.958876	5.948915	-29.800323	-168.494788
40185		5.475192	0.941631	8.326418	-0.557398	-0.192614	0.179601	-0.068522	-0.039992	0.043589	-0.584229	-0.002197	-0.448242	0.054733	0.009457	0.083272	0.110107	-0.250758	-0.075274	-0.958817	5.897027	-29.830644	-168.470168
40186		5.166457	0.834140	8.317834	-0.319117	-0.044594	0.009258	-0.081853	-0.034474	0.055892	-0.570313	0.002197	-0.444580	0.051648	0.008390	0.083184	0.110251	-0.251028	-0.074835	-0.958765	5.833444	-29.858126	-168.437050
40187		5.002770	0.940093	8.494858	-0.065356	-0.091719	0.089908	-0.079646	-0.021057	0.062213	-0.575439	0.001709	-0.442627	0.050016	0.009450	0.084950	0.110432	-0.251238	-0.074389	-0.958723	5.768394	-29.878697	-168.398839
40188		5.310883	0.920961	8.277378	-0.427660	-0.178513	0.054119	-0.072283	-0.022738	0.058930	-0.576172	0.001709	-0.440186	0.053097	0.009255	0.082776	0.110606	-0.251447	-0.073986	-0.958680	5.708847	-29.899599	-168.362863
40189		5.364402	0.936223	8.205340	-0.497709	-0.224747	0.020049	-0.069259	-0.018050	0.057277	-0.574951	-0.006592	-0.440430	0.053634	0.009406	0.082055	0.110778	-0.251636	-0.073594	-0.958640	5.651215	-29.918111	-168.327639
40190		5.101465	0.824541	8.172360	-0.313375	-0.085369	-0.149004	-0.070203	-0.008988	0.061531	-0.570068	-0.002441	-0.443848	0.051008	0.008290	0.081723	0.110972	-0.251779	-0.073190	-0.958611	5.591512	-29.931256	-168.289000
40191		4.745685	0.776338	8.303114	0.041599	0.040818	-0.217765	-0.078778	-0.008666	0.066017	-0.570801	-0.002441	-0.444824	0.047451	0.007812	0.083030	0.111177	-0.251931	-0.072737	-0.958582	5.525215	-29.944847	-168.247371
40192		4.780577	0.794843	8.453316	0.090990	0.037431	-0.069251	-0.076263	-0.012730	0.060768	-0.581055	0.005615	-0.446533	0.047798	0.007995	0.084533	0.111359	-0.252095	-0.072306	-0.958551	5.462370	-29.960009	-168.209426
40193		5.276444	0.632182	8.430749	-0.376073	0.093599	0.145618	-0.070617	-0.015642	0.068068	-0.566406	0.001709	-0.432617	0.052756	0.006370	0.084309	0.111582	-0.252276	-0.071894	-0.958508	5.400250	-29.977607	-168.166836
40194		5.251188	0.504323	8.196698	-0.492547	0.168117	-0.079019	-0.054586	0.005478	0.058436	-0.576172	0.011475	-0.440430	0.052513	0.005081	0.081964	0.111786	-0.252340	-0.071559	-0.958492	5.349990	-29.982189	-168.129253
40195		4.784854	0.547224	8.363998	-0.006871	0.234975	-0.164088	-0.050256	0.024764	0.061344	-0.579346	0.015381	-0.437744	0.047857	0.005508	0.083633	0.112016	-0.252314	-0.071230	-0.958497	5.300475	-29.976319	-168.088568
40196		4.775478	0.923388	8.507268	0.162887	-0.106439	-0.015057	-0.058877	0.026350	0.069032	-0.567139	0.013916	-0.432373	0.047763	0.009275	0.085064	0.112274	-0.252284	-0.070851	-0.958503	5.243636	-29.969493	-168.042730
40197		5.058457	0.821754	8.315652	-0.191150	-0.105621	-0.047154	-0.078952	0.027663	0.079322	-0.577881	0.011230	-0.433105	0.050593	0.008270	0.083146	0.112555	-0.252266	-0.070360	-0.958511	5.171694	-29.962827	-167.990049
40198		5.179040	0.689285	8.106288	-0.423713	-0.051098	-0.177993	-0.088986	0.036189	0.090549	-0.566162	0.012939	-0.424072	0.051802	0.006952	0.081050	0.112881	-0.252213	-0.069803	-0.958527	5.090261	-29.951390	-167.929484
40199		5.208441	0.753119	8.199071	-0.388322	-0.112480	-0.078400	-0.091574	0.032647	0.085996	-0.576172	0.013184	-0.416992	0.052095	0.007591	0.081979	0.113180	-0.252181	-0.069240	-0.958541	5.008781	-29.942097	-167.872152
40200		5.074139	0.686007	8.220848	-0.280162	-0.031798	-0.131761	-0.097634	0.032310	0.098563	-0.565674	0.010742	-0.423828	0.050751	0.006925	0.082197	0.113531	-0.252154	-0.068634	-0.958550	4.919912	-29.933120	-167.806580
40201		4.601576	0.917135	8.526204	0.322785	-0.124071	-0.086835	-0.102378	0.032011	0.106738	-0.565674	0.013916	-0.431152	0.046024	0.009240	0.085250	0.113916	-0.252138	-0.067993	-0.958554	4.825479	-29.925054	-167.735666
40202		4.774672	0.829235	8.403423	0.099180	-0.108505	-0.113151	-0.118052	0.013277	0.113308	-0.572754	0.023193	-0.430420	0.047748	0.008369	0.084026	0.114306	-0.252219	-0.067282	-0.958537	4.720620	-29.927457	-167.661469
40203		5.127833	0.678933	8.254717	-0.302995	-0.071770	-0.076209	-0.122179	0.000166	0.116966	-0.568115	0.016357	-0.424561	0.051274	0.006870	0.082543	0.114704	-0.252369	-0.066552	-0.958501	4.612350	-29.937825	-167.585562
40204		4.999054	0.488749	8.235363	-0.246418	0.117438	-0.170277	-0.113007	0.000614	0.110033	-0.566895	0.026367	-0.431641	0.049988	0.004962	0.082351	0.115080	-0.252507	-0.065875	-0.958466	4.511762	-29.947075	-167.514168
40205		5.087135	0.445075	8.288710	-0.302106	0.139998	-0.082895	-0.093482	-0.009472	0.096106	-0.566162	0.018555	-0.416992	0.050865	0.004514	0.082887	0.115411	-0.252680	-0.065314	-0.958419	4.426994	-29.961797	-167.452454
40206		5.105013	0.367129	8.403139	-0.278515	0.222556	0.019991	-0.067523	-0.013376	0.079980	-0.566895	0.028564	-0.420898	0.051043	0.003720	0.084034	0.115696	-0.252848	-0.064902	-0.958369	4.362666	-29.977538	-167.401537
40207		5.483598	0.352426	8.038116	-0.768751	0.090232	-0.106697	-0.061848	-0.022166	0.067493	-0.561523	0.024658	-0.425781	0.054826	0.003568	0.080386	0.115925	-0.253054	-0.064536	-0.958311	4.305704	-29.998152	-167.359268
40208		5.630108	0.319639	8.032671	-0.898279	0.086546	-0.039781	-0.043370	-0.028543	0.058164	-0.562012	0.022461	-0.426270	0.056289	0.003230	0.080334	0.116131	-0.253274	-0.064276	-0.958246	4.262731	-30.021540	-167.323440
40209		5.041833	0.206151	8.277011	-0.311113	0.348058	-0.130045	-0.021105	-0.014039	0.036924	-0.561768	0.034668	-0.418457	0.050412	0.002080	0.082773	0.116268	-0.253408	-0.064139	-0.958203	4.238950	-30.036177	-167.300897
40210		4.503533	0.434498	8.801872	0.451144	0.323192	0.068383	-0.015010	-0.001294	0.023243	-0.556152	0.024902	-0.416992	0.045034	0.004357	0.088019	0.116351	-0.253469	-0.064043	-0.958183	4.223064	-30.042491	-167.286752
40211		4.903595	0.490613	8.559869	0.015433	0.146990	0.063317	-0.015642	-0.004220	0.015550	-0.559082	0.030518	-0.414063	0.049034	0.004917	0.085599	0.116396	-0.253546	-0.063954	-0.958163	4.209217	-30.050600	-167.277820
40212		5.386893	0.433889	8.171748	-0.588409	0.037870	-0.033286	-0.009615	-0.002627	0.006194	-0.557129	0.032959	-0.413818	0.053868	0.004344	0.081718	0.116404	-0.253605	-0.063906	-0.958150	4.202086	-30.056954	-167.274990
40213		5.271497	0.441196	8.140937	-0.502821	0.046947	-0.117165	0.002994	0.005955	0.001593	-0.557861	0.038574	-0.419922	0.052717	0.004411	0.081408	0.116409	-0.253618	-0.063918	-0.958145	4.203277	-30.058667	-167.274775
40214		5.031277	0.468835	8.269696	-0.232612	0.090082	-0.124592	0.009844	0.013378	-0.006783	-0.550781	0.038086	-0.416260	0.050318	0.004683	0.082694	0.116385	-0.253585	-0.063970	-0.958153	4.211197	-30.055330	-167.279736
40215		5.328088	0.629492	8.164712	-0.491904	-0.139603	-0.056364	0.006500	0.004923	-0.005395	-0.559082	0.031494	-0.418701	0.053283	0.006291	0.081646	0.116360	-0.253598	-0.064008	-0.958150	4.216729	-30.057346	-167.284184
40216		5.230156	0.468917	8.063548	-0.497962	0.016670	-0.202954	0.012808	0.006940	-0.004076	-0.555908	0.033447	-0.414551	0.052304	0.004683	0.080634	0.116350	-0.253595	-0.064075	-0.958147	4.225609	-30.057801	-167.287670
40217		4.948915	0.624812	8.298759	-0.110662	-0.036028	-0.130848	0.015597	0.019079	-0.010244	-0.559326	0.032959	-0.417236	0.049497	0.006239	0.082983	0.116318	-0.253534	-0.064155	-0.958162	4.237610	-30.051533	-167.294631
40218		4.588927	0.821981	8.449684	0.313054	-0.128798	-0.168182	0.016622	0.023265	-0.008742	-0.552246	0.033203	-0.418701	0.045899	0.008211	0.084492	0.116296	-0.253449	-0.064236	-0.958182	4.249815	-30.042461	-167.300397
40219		4.712323	0.985334	8.371449	0.212287	-0.323367	-0.163418	0.004994	0.020109	0.000567	-0.546143	0.034424	-0.411133	0.047132	0.009851	0.083710	0.116303	-0.253393	-0.064251	-0.958195	4.252143	-30.036059	-167.300169
40220		5.031087	0.995503	8.223775	-0.124270	-0.421831	-0.130747	-0.016607	0.011832	0.019047	-0.554199	0.030029	-0.416992	0.050315	0.009967	0.082234	0.116369	-0.253391	-0.064145	-0.958195	4.236409	-30.034698	-167.288153
40221		5.064647	0.933421	8.044706	-0.251924	-0.404013	-0.272639	-0.027208	0.008318	0.037095	-0.550537	0.033203	-0.412109	0.050648	0.009355	0.080444	0.116506	-0.253422	-0.063966	-0.958182	4.208519	-30.036574	-167.264398
40222		5.194036	0.943061	8.144618	-0.309969	-0.424464	-0.121149	-0.041315	0.001296	0.045559	-0.546387	0.040771	-0.412842	0.051939	0.009459	0.081444	0.116664	-0.253493	-0.063714	-0.958161	4.170122	-30.042333	-167.235393
40223		5.134186	0.830867	8.148714	-0.284097	-0.309614	-0.154780	-0.037323	0.008108	0.059106	-0.544434	0.035889	-0.421875	0.051343	0.008339	0.081484	0.116893	-0.253538	-0.063458	-0.958138	4.129173	-30.045223	-167.197120
40224		4.948100	0.587985	8.317608	-0.108018	-0.014320	-0.117320	-0.028012	0.006988	0.052690	-0.542725	0.037109	-0.420166	0.049482	0.005905	0.083174	0.117104	-0.253576	-0.063258	-0.958115	4.095897	-30.047989	-167.163125
40225		5.018827	0.619874	8.256533	-0.186570	-0.074065	-0.132661	-0.023397	0.003123	0.048024	-0.550293	0.038574	-0.412598	0.050188	0.006220	0.082564	0.117297	-0.253633	-0.063086	-0.958088	4.066705	-30.053241	-167.132400
40226		4.880588	0.404455	8.485072	-0.015664	0.198329	-0.017761	-0.008259	-0.003859	0.046202	-0.543945	0.049072	-0.418701	0.048803	0.004059	0.084851	0.117498	-0.253709	-0.062995	-0.958049	4.047138	-30.061915	-167.103190
40227		5.081173	0.439367	8.291304	-0.264630	0.088548	-0.082363	-0.010829	-0.014325	0.042438	-0.537598	0.039063	-0.420898	0.050805	0.004409	0.082916	0.117674	-0.253841	-0.062901	-0.957999	4.027385	-30.076894	-167.076957
40228		5.236529	0.381574	8.241673	-0.431192	0.103420	-0.050752	-0.001208	-0.011706	0.036251	-0.537842	0.045898	-0.425049	0.052360	0.003826	0.082420	0.117834	-0.253948	-0.062860	-0.957953	4.015317	-30.089637	-167.054670
40229		5.135388	0.459828	8.219024	-0.334060	0.042567	-0.116163	0.004820	-0.010109	0.026898	-0.545166	0.045166	-0.421143	0.051349	0.004603	0.082193	0.117957	-0.254045	-0.062858	-0.957912	4.009558	-30.101580	-167.038492
40230		4.806483	0.448319	8.325861	-0.007602	0.137248	-0.189573	0.020107	-0.008394	0.014336	-0.538330	0.040527	-0.416504	0.048061	0.004478	0.083261	0.118040	-0.254116	-0.062946	-0.957877	4.016877	-30.111549	-167.030523
40231		4.941230	0.233953	8.271841	-0.200182	0.312043	-0.181675	0.062038	-0.030747	-0.014382	-0.537598	0.042236	-0.418701	0.049400	0.002310	0.082727	0.118032	-0.254266	-0.063283	-0.957817	4.058064	-30.133630	-167.042584
40232		4.999640	0.120454	8.377072	-0.227489	0.439959	-0.068924	0.132418	-0.040781	-0.059505	-0.533447	0.044434	-0.425537	0.049980	0.001134	0.083782	0.117894	-0.254403	-0.064021	-0.957748	4.155015	-30.159089	-167.084967
40233		4.796015	-0.020182	8.487982	-0.039987	0.654529	-0.085512	0.211540	-0.041347	-0.116648	-0.537842	0.050781	-0.429199	0.047942	-0.000320	0.084889	0.117582	-0.254482	-0.065210	-0.957685	4.316135	-30.182866	-167.165225
40234		5.026486	0.138574	8.368482	-0.251458	0.463063	-0.063918	0.272036	-0.054306	-0.169965	-0.537842	0.041260	-0.422363	0.050243	0.001229	0.083700	0.117088	-0.254565	-0.066765	-0.957617	4.530274	-30.210968	-167.281491
40235		4.955080	0.155441	8.413004	-0.168396	0.503057	-0.062093	0.312309	-0.060723	-0.203877	-0.536621	0.036377	-0.423584	0.049527	0.001373	0.084147	0.116480	-0.254647	-0.068558	-0.957542	4.778852	-30.241246	-167.420676
40236		4.642733	0.324839	8.623797	0.235659	0.477320	-0.027655	0.328888	-0.080200	-0.236406	-0.531006	0.037354	-0.421387	0.046396	0.003052	0.086262	0.115730	-0.254797	-0.070485	-0.957453	5.048723	-30.280007	-167.582674
40237		4.811636	0.369545	8.477616	0.034910	0.416465	-0.066737	0.340692	-0.110083	-0.276934	-0.544922	0.030029	-0.425293	0.048075	0.003484	0.084809	0.114791	-0.255071	-0.072535	-0.957340	5.339804	-30.333523	-167.773537
40238		5.403193	1.000676	8.035489	-0.507520	-0.347362	-0.097411	0.248542	-0.153828	-0.226275	-0.546387	0.028320	-0.432617	0.053981	0.009846	0.080409	0.113960	-0.255621	-0.074106	-0.957173	5.563182	-30.413516	-167.934085
40239		4.985457	1.701281	8.380241	0.196524	-0.848216	0.047304	0.144027	-0.190783	-0.151241	-0.537842	0.027832	-0.428467	0.049787	0.016915	0.083862	0.113340	-0.256439	-0.075100	-0.956950	5.702945	-30.518857	-168.047842
40240		4.604483	1.260518	8.375750	0.418666	-0.336052	-0.186936	0.089588	-0.234053	-0.095194	-0.535156	0.034912	-0.433594	0.045953	0.012546	0.083817	0.112903	-0.257511	-0.075788	-0.956660	5.794736	-30.651387	-168.127764
40241		4.735297	1.056978	8.493818	0.334805	-0.122464	-0.037308	0.068521	-0.286583	-0.071904	-0.545410	0.025879	-0.432129	0.047235	0.010524	0.085010	0.112529	-0.258858	-0.076372	-0.956293	5.868521	-30.815607	-168.196142
40242		4.643041	1.076033	8.580061	0.486076	-0.089929	-0.010205	0.087416	-0.338520	-0.046609	-0.551514	0.032227	-0.430420	0.046288	0.010712	0.085884	0.112281	-0.260448	-0.077045	-0.955837	5.946930	-31.010349	-168.251672
40243		4.882566	1.039379	8.584479	0.311751	-0.077712	0.112517	0.069823	-0.402865	-0.033212	-0.545410	0.027588	-0.430420	0.048654	0.010356	0.085947	0.112048	-0.262364	-0.077651	-0.955291	6.013148	-31.242977	-168.303179
40244		4.940103	0.800287	8.601469	0.252469	0.165633	0.134119	0.075462	-0.494816	-0.052815	-0.559570	0.026123	-0.432129	0.049190	0.007957	0.086140	0.111694	-0.264702	-0.078362	-0.954629	6.093463	-31.526273	-168.374769
40245		5.790751	0.678700	8.105248	-0.680072	0.056681	0.148360	0.092255	-0.597899	-0.051836	-0.548340	0.029541	-0.420166	0.057667	0.006735	0.081228	0.111324	-0.267525	-0.079208	-0.953815	6.187473	-31.868732	-168.453869
40246		5.643520	0.596319	8.024759	-0.558601	0.173609	-0.001517	0.165529	-0.703856	-0.036622	-0.556885	0.027344	-0.423584	0.056153	0.005886	0.080450	0.111082	-0.270812	-0.080442	-0.952812	6.323428	-32.271881	-168.531687
40247		4.339809	0.704316	8.607181	0.907496	0.450325	-0.200890	0.226367	-0.824399	-0.056868	-0.572266	0.029297	-0.415039	0.043045	0.006933	0.086258	0.110776	-0.274631	-0.082057	-0.951616	6.507711	-32.742667	-168.634027
40248		4.525957	0.602743	8.646263	0.826477	0.569724	-0.086588	0.236473	-0.961639	-0.084395	-0.569580	0.026855	-0.410889	0.044846	0.005906	0.086686	0.110294	-0.279076	-0.083834	-0.950223	6.716195	-33.288962	-168.768366
40249		4.823776	1.052235	8.311347	0.617891	0.061903	-0.165517	0.206128	-1.099633	-0.069527	-0.575928	0.023926	-0.409180	0.047783	0.010420	0.083388	0.109779	-0.284196	-0.085518	-0.948614	6.910605	-33.914837	-168.906999
40250		4.975296	0.774265	8.375831	0.561911	0.369971	-0.063139	0.247651	-1.247314	-0.067580	-0.577881	0.027100	-0.398926	0.049232	0.007622	0.084076	0.109266	-0.289979	-0.087476	-0.946742	7.138854	-34.623936	-169.060718
40251		4.963369	0.684762	8.341443	0.650012	0.506828	-0.117194	0.265158	-1.410613	-0.069338	-0.587158	0.018066	-0.391602	0.049046	0.006720	0.083771	0.108693	-0.296516	-0.089603	-0.944582	7.390455	-35.425628	-169.235104
40252		5.356399	0.827857	8.071503	0.361826	0.309383	-0.102034	0.289348	-1.597146	-0.070718	-0.589844	0.017334	-0.383057	0.052920	0.008143	0.081151	0.108059	-0.303898	-0.091944	-0.942080	7.672752	-36.332049	-169.434245
40253		5.179596	0.989086	8.275674	0.808752	0.298713	-0.037852	0.317950	-1.761544	-0.053575	-0.604004	0.021240	-0.373535	0.051067	0.009745	0.083224	0.107466	-0.312029	-0.094474	-0.939236	7.981159	-37.332712	-169.645495
40254		4.922577	1.278454	8.446375	1.348953	0.173017	-0.047707	0.320359	-1.904974	-0.036604	-0.611816	0.014404	-0.364258	0.048421	0.012640	0.084948	0.106879	-0.320808	-0.097059	-0.936076	8.301885	-38.414729	-169.869248
40255		5.490726	1.164153	8.008555	0.807525	0.171212	-0.068179	0.341682	-2.048613	-0.008057	-0.617432	0.015381	-0.346680	0.054083	0.011502	0.080662	0.106380	-0.330234	-0.099763	-0.932564	8.642001	-39.579923	-170.099256
40256		5.810650	1.354473	7.711776	0.632659	-0.049489	-0.083190	0.376112	-2.189551	0.051833	-0.631348	0.012451	-0.330322	0.057254	0.013414	0.077773	0.106134	-0.340286	-0.102594	-0.928663	8.996202	-40.828667	-170.314421
40257		6.117030	1.559921	7.648980	0.632296	-0.218693	0.082059	0.388545	-2.354475	0.121876	-0.645508	0.017822	-0.321045	0.060255	0.015487	0.077233	0.106136	-0.351091	-0.105436	-0.924313	9.348879	-42.176442	-170.511260
40258		6.202700	1.795841	7.723631	0.912458	-0.351862	0.206853	0.340608	-2.508578	0.205469	-0.650391	0.010986	-0.296387	0.061033	0.017889	0.078037	0.106342	-0.362620	-0.107977	-0.919532	9.657756	-43.617947	-170.678605
40259		6.373936	1.735999	7.482590	0.869942	-0.303644	0.125864	0.274651	-2.681963	0.296237	-0.650391	0.013428	-0.281982	0.062702	0.017350	0.075695	0.106734	-0.374971	-0.110122	-0.914264	9.907947	-45.165939	-170.811821
40260		6.456964	2.345064	7.707570	1.404501	-0.758875	0.387434	0.168497	-2.861028	0.382454	-0.675293	0.012451	-0.264404	0.063413	0.023507	0.078008	0.107202	-0.388167	-0.111695	-0.908492	10.076841	-46.822817	-170.912676
40261		6.399674	1.925345	7.665706	1.593200	-0.300939	0.226674	0.085576	-3.050498	0.470691	-0.673828	0.023682	-0.235596	0.062772	0.019369	0.077629	0.107779	-0.402233	-0.112795	-0.902147	10.172959	-48.595623	-170.976805
40262		7.117301	1.827152	7.787222	1.504688	-0.183617	0.785770	0.096608	-3.224457	0.525985	-0.685303	0.029053	-0.211426	0.069857	0.018418	0.079014	0.108503	-0.417004	-0.113901	-0.895188	10.266393	-50.471726	-171.027117
40263		7.211405	2.367556	7.529380	1.764225	-0.715653	0.707078	0.125841	-3.374351	0.590647	-0.686279	0.030029	-0.179932	0.070760	0.023838	0.076510	0.109461	-0.432351	-0.115050	-0.887611	10.356375	-52.439204	-171.050403
40264		7.177251	2.759551	7.169651	1.999186	-1.129677	0.446290	0.039859	-3.620616	0.740473	-0.695313	0.045898	-0.158691	0.070356	0.027843	0.072984	0.110721	-0.448785	-0.115593	-0.879188	10.320042	-54.560587	-170.977061
40265		7.210426	2.754604	7.221229	2.408341	-1.058711	0.423955	-0.035137	-3.862654	0.862171	-0.694092	0.041992	-0.132568	0.070572	0.027865	0.073580	0.112168	-0.466230	-0.115624	-0.869873	10.165952	-56.831020	-170.815307
40266		8.020494	2.409863	7.213576	2.291182	-0.761180	0.972685	-0.222778	-4.134521	0.992860	-0.712158	0.052246	-0.099121	0.078570	0.024573	0.073744	0.113540	-0.484839	-0.114639	-0.859591	9.800517	-59.267154	-170.535385
40267		8.665674	1.140417	6.695002	1.635238	0.264823	1.070895	-0.289648	-4.419909	1.082977	-0.709473	0.060303	-0.057129	0.085086	0.011967	0.068825	0.114919	-0.504529	-0.113253	-0.848185	9.296599	-61.872116	-170.147804
40268		10.183862	1.440725	6.997182	1.813659	-0.008568	2.492951	-0.198055	-4.605741	1.158604	-0.713379	0.060547	-0.027588	0.100106	0.015061	0.072276	0.116682	-0.524720	-0.112111	-0.835754	8.704169	-64.586894	-169.611759
40269		13.276155	1.074591	9.039823	2.797889	0.788671	6.018641	-0.056703	-4.587949	1.194087	-0.708740	0.072510	0.009033	0.130574	0.011556	0.093407	0.118908	-0.544480	-0.111392	-0.822797	8.013966	-67.291845	-168.891962
40270		11.421385	-0.078757	6.713711	1.791238	1.348601	3.243693	0.108571	-4.535201	1.342278	-0.719482	0.093018	0.050049	0.112655	-0.000065	0.069703	0.122156	-0.563699	-0.110856	-0.809341	6.997638	-69.973181	-167.734350
40271		13.347578	1.267059	8.280512	3.636354	0.503736	5.510704	0.480798	-4.603913	1.359270	-0.715088	0.099609	0.081055	0.131433	0.013365	0.085878	0.126415	-0.582656	-0.111756	-0.795011	5.859499	-72.686500	-166.242854
40272		13.254424	2.156881	8.829858	5.158857	-0.045924	5.406948	0.674557	-4.378537	1.342936	-0.709961	0.110352	0.116943	0.130421	0.022145	0.091244	0.131227	-0.600259	-0.113269	-0.780794	4.358931	-75.258713	-164.280129
40273		13.759126	3.437229	9.263120	6.567180	-1.037314	5.765478	0.504656	-4.324862	1.494345	-0.707275	0.128418	0.147461	0.135284	0.035150	0.095661	0.136081	-0.617528	-0.113569	-0.766318	1.622554	-77.783467	-161.169881
40274		13.988375	2.965915	11.211018	8.836569	0.137432	6.061946	0.421678	-4.018097	1.546543	-0.697754	0.141602	0.184570	0.137360	0.030487	0.114951	0.140985	-0.633400	-0.113124	-0.752417	-2.784548	-80.083161	-156.434316
40275		13.477089	3.138829	9.865077	8.368776	-0.410220	4.971153	0.266733	-3.605712	1.635443	-0.688477	0.148682	0.211670	0.132701	0.032345	0.101098	0.145905	-0.647604	-0.111476	-0.739522	-10.022635	-82.040298	-148.954030
40276		10.614541	4.352281	7.712758	7.659361	-2.093383	1.502221	0.044290	-3.345749	1.671385	-0.687256	0.166260	0.236816	0.104467	0.044383	0.078894	0.150328	-0.660790	-0.108657	-0.727290	-21.503913	-83.637806	-137.358855
40277		10.298047	3.669538	7.563184	7.704561	-1.517527	0.912741	-0.201410	-3.115061	1.790706	-0.681396	0.179199	0.254883	0.101452	0.037686	0.077182	0.154448	-0.673161	-0.104342	-0.715621	-39.166583	-84.676334	-119.722199
40278		9.044509	4.059282	5.492297	6.326146	-2.589584	-0.773559	-0.657441	-3.066471	1.996646	-0.661865	0.187256	0.288818	0.089178	0.041671	0.056161	0.157743	-0.685594	-0.097628	-0.703951	-62.605126	-84.905203	-96.567566
40279		1.280168	1.959155	6.186710	6.488477	0.217653	-8.547654	-1.154607	-2.747425	2.035534	-0.647705	0.191406	0.317139	0.011749	0.020072	0.061918	0.159574	-0.697080	-0.088748	-0.693354	-82.886034	-84.250753	-76.862157
40280		10.141834	-0.717582	14.798327	13.991022	4.728052	0.397430	-0.628637	-1.752695	1.396738	-0.649170	0.212891	0.326904	0.100161	-0.006006	0.148885	0.161428	-0.704258	-0.083103	-0.686335	-92.915744	-83.485869	-67.137695
40281		18.141734	1.343635	17.600403	17.845507	2.847528	7.911024	0.197577	-0.454882	0.543325	-0.642334	0.214355	0.330566	0.180979	0.013754	0.176429	0.163790	-0.705903	-0.082245	-0.684185	-94.876078	-83.158152	-65.049942
40282		4.681755	3.703151	12.267111	12.999043	0.287055	-5.682846	0.608497	0.654039	-0.043105	-0.646729	0.221680	0.321289	0.047227	0.036648	0.122629	0.166049	-0.703170	-0.083952	-0.686245	-91.448774	-83.203883	-68.150730
40283		1.821431	4.959119	10.139339	11.291140	-1.263033	-8.536332	0.463610	1.373114	-0.490101	-0.664551	0.213379	0.319092	0.019031	0.049310	0.101379	0.166562	-0.697867	-0.086136	-0.691245	-84.397208	-83.457563	-74.982577
40284		2.975935	4.428331	9.243412	10.265995	-1.201320	-7.153842	0.060710	1.808027	-0.791078	-0.660889	0.216553	0.294678	0.030768	0.044135	0.092172	0.164802	-0.691221	-0.087605	-0.698125	-74.592555	-83.716774	-84.813842
40285		1.109501	3.052493	7.463566	8.057864	-0.368046	-8.723679	-0.295159	2.072595	-1.004705	-0.676758	0.208740	0.275635	0.012021	0.030576	0.074469	0.161164	-0.683762	-0.088347	-0.706181	-62.710668	-83.823426	-96.935631
40286		0.512682	1.252383	6.779013	6.777979	1.091982	-9.006199	-0.513305	2.271460	-1.190984	-0.685547	0.189453	0.257080	0.005971	0.012664	0.067693	0.156185	-0.675599	-0.088777	-0.715046	-49.674152	-83.668355	-110.345547
40287		1.338832	-0.316964	6.878108	6.278612	2.460599	-7.883089	-0.527359	2.497433	-1.367581	-0.701416	0.179443	0.252441	0.014225	-0.003084	0.068615	0.150599	-0.666422	-0.089564	-0.724693	-36.532220	-83.158450	-123.877704
40288		2.425743	-1.372052	7.029569	5.938563	3.357232	-6.550602	-0.395757	2.776732	-1.534775	-0.708008	0.161865	0.220215	0.025125	-0.013772	0.069978	0.144935	-0.655917	-0.091151	-0.735159	-24.533583	-82.233869	-136.202164
40289		3.324440	-1.808894	7.189484	5.753383	3.716356	-5.442807	-0.204329	3.115310	-1.651423	-0.720215	0.159424	0.205322	0.034209	-0.018296	0.071386	0.139585	-0.643776	-0.093555	-0.746536	-14.609629	-80.866684	-146.351770
40290		3.831580	-1.885357	7.154370	5.476864	3.725170	-4.758774	-0.056936	3.456107	-1.673116	-0.723877	0.145752	0.176025	0.039385	-0.019160	0.070875	0.134738	-0.630045	-0.096307	-0.758692	-7.186897	-79.104321	-153.921460
40291		3.784742	-1.763288	6.875500	5.081022	3.521697	-4.666765	0.001629	3.731549	-1.623646	-0.733887	0.111816	0.154297	0.038976	-0.017947	0.068035	0.130347	-0.614993	-0.098904	-0.771369	-1.979183	-77.047949	-159.241725
40292		3.602260	-1.869027	6.541742	4.581250	3.524268	-4.728454	-0.014706	3.903786	-1.512361	-0.744873	0.097412	0.116699	0.037148	-0.018964	0.064701	0.126361	-0.599097	-0.100940	-0.784173	1.510428	-74.818380	-162.847361
40293		3.819621	-2.347351	6.385389	4.025137	3.898825	-4.384620	-0.031562	3.994528	-1.359280	-0.748291	0.090332	0.076416	0.039301	-0.023728	0.063080	0.122919	-0.582652	-0.102350	-0.796826	3.788961	-72.498007	-165.239855
40294		4.535302	-2.829047	6.346552	3.397681	4.269913	-3.562282	0.003920	4.051617	-1.181465	-0.751709	0.072510	0.046143	0.046458	-0.028564	0.062531	0.120260	-0.565807	-0.103302	-0.809153	5.248929	-70.134864	-166.778549
40295		5.611981	-2.993473	6.514694	2.859751	4.366769	-2.353467	0.089675	4.121177	-0.987677	-0.749023	0.067139	0.012207	0.057297	-0.030245	0.063961	0.118613	-0.548459	-0.103966	-0.821167	6.156002	-67.731163	-167.695067
40296		6.618197	-2.862495	6.664182	2.321945	4.167390	-1.231623	0.179316	4.192758	-0.770546	-0.745117	0.058350	-0.022949	0.067448	-0.028942	0.065211	0.118084	-0.530647	-0.104311	-0.832820	6.654236	-65.299168	-168.126389
40297		7.640596	-2.690670	6.876896	1.747213	3.923319	-0.094200	0.271613	4.253884	-0.541906	-0.751465	0.051514	-0.055420	0.077771	-0.027208	0.067088	0.118733	-0.512385	-0.104351	-0.844082	6.856442	-62.844323	-168.177951
40298		8.677959	-2.593358	7.124831	1.076379	3.729730	1.036572	0.373383	4.294367	-0.340102	-0.738037	0.035156	-0.093262	0.088237	-0.026213	0.069315	0.120458	-0.493778	-0.104230	-0.854874	6.885669	-60.382730	-167.968245
40299		9.756070	-2.374135	7.190566	0.180372	3.329390	2.077667	0.504165	4.323312	-0.168340	-0.726074	0.030029	-0.135986	0.099063	-0.024002	0.069715	0.123201	-0.474806	-0.104178	-0.865175	6.840781	-57.913847	-167.579382
40300		10.611459	-1.992421	7.210922	-0.663566	2.756723	2.856315	0.667259	4.314533	-0.051791	-0.709717	0.036865	-0.163086	0.107631	-0.020187	0.069731	0.126769	-0.455627	-0.104511	-0.874877	6.822100	-55.460349	-167.099830
40301		11.379762	-1.618931	7.179597	-1.555126	2.166973	3.473529	0.824644	4.262515	-0.006485	-0.688232	0.028076	-0.202637	0.115292	-0.016482	0.069282	0.130811	-0.436365	-0.105411	-0.883947	6.895702	-53.037082	-166.608281
40302		12.524350	-1.052248	7.095128	-2.684469	1.313579	4.306238	0.991227	4.178062	-0.021985	-0.670166	0.023682	-0.226563	0.126687	-0.010879	0.068261	0.135039	-0.417176	-0.107089	-0.892334	7.109367	-50.664081	-166.158045
40303		13.673643	-0.257251	7.062245	-3.748978	0.250519	5.112426	1.143646	4.050892	-0.097091	-0.660400	0.015137	-0.248291	0.138128	-0.003033	0.067818	0.139124	-0.398202	-0.109640	-0.900032	7.484903	-48.356802	-165.790203
40304		15.225910	0.840405	7.132695	-4.939254	-1.131423	6.240264	1.208134	3.914268	-0.219019	-0.651367	0.004639	-0.269287	0.153625	0.007817	0.068377	0.142650	-0.379581	-0.112773	-0.907112	7.986357	-46.122140	-165.530597
40305		16.941515	2.182539	7.205173	-6.208378	-2.773794	7.433039	1.138179	3.788192	-0.350315	-0.643311	-0.006836	-0.274414	0.170778	0.021129	0.068947	0.145322	-0.361333	-0.115880	-0.913724	8.526157	-43.947413	-165.371832
40306		18.455940	3.301519	6.972659	-7.658099	-4.279873	8.163196	0.909345	3.698135	-0.462489	-0.629883	-0.012207	-0.301514	0.185884	0.032279	0.066445	0.146958	-0.343481	-0.118168	-0.920033	8.991837	-41.817402	-165.290742
40307		19.151781	3.966023	6.313055	-8.955718	-5.363628	7.889191	0.566891	3.636783	-0.555181	-0.628906	-0.025391	-0.306641	0.192734	0.038954	0.059744	0.147493	-0.325967	-0.119040	-0.926186	9.302607	-39.711861	-165.269308
40308		18.703521	3.631281	5.238255	-9.947757	-5.431743	6.372014	0.188569	3.540539	-0.664332	-0.625000	-0.031494	-0.323242	0.188043	0.035642	0.049093	0.146797	-0.309022	-0.118372	-0.932172	9.447679	-37.652857	-165.328856
40309		18.401237	2.754970	4.000158	-11.226816	-5.051980	4.699229	-0.108363	3.420114	-0.783483	-0.632324	-0.037109	-0.349609	0.184766	0.026847	0.036831	0.144972	-0.292671	-0.116554	-0.937946	9.476095	-35.648674	-165.480576
40310		17.900905	1.629020	2.660939	-12.372984	-4.382348	2.751111	-0.276935	3.274083	-0.908864	-0.627441	-0.049316	-0.370605	0.179484	0.015509	0.023652	0.142181	-0.276984	-0.114201	-0.943410	9.460083	-33.717134	-165.731635
40311		17.252194	0.775228	1.261973	-13.208487	-3.888413	0.685956	-0.329408	3.065168	-1.053857	-0.629639	-0.066650	-0.386963	0.172726	0.006860	0.009962	0.138476	-0.262146	-0.111917	-0.948461	9.469719	-31.888425	-166.097972
40312		16.257810	0.384796	0.131915	-13.352560	-3.614601	-1.262516	-0.363433	2.783222	-1.178881	-0.627441	-0.068359	-0.408203	0.162594	0.002889	-0.000949	0.133941	-0.248548	-0.109804	-0.953009	9.504955	-30.208704	-166.570401
40313		15.060361	0.413881	-0.471960	-12.847179	-3.501295	-2.749732	-0.431884	2.406267	-1.254793	-0.622559	-0.082275	-0.422363	0.150554	0.003181	-0.006539	0.128725	-0.236687	-0.107688	-0.956981	9.529888	-28.733397	-167.124343
40314		14.102361	0.563740	-0.685708	-12.261589	-3.422077	-3.680956	-0.574439	1.969945	-1.248520	-0.622314	-0.092529	-0.451172	0.140978	0.004735	-0.008260	0.123112	-0.226980	-0.105146	-0.960348	9.478735	-27.506544	-167.714556
40315		13.459596	0.373468	-0.579453	-11.858750	-2.994485	-4.152886	-0.733646	1.526906	-1.145326	-0.612549	-0.099121	-0.460205	0.134565	0.002940	-0.006834	0.117567	-0.219518	-0.101982	-0.963114	9.316170	-26.539952	-168.282350
40316		13.594133	0.101021	0.106545	-11.888070	-2.496313	-3.708531	-0.821000	1.152772	-0.975427	-0.617188	-0.105225	-0.468506	0.135947	0.000349	0.000280	0.112543	-0.213983	-0.098422	-0.965328	9.065522	-25.803160	-168.781056
40317		14.073777	-0.155116	0.893059	-12.160798	-2.073290	-2.978433	-0.815373	0.939291	-0.750538	-0.620117	-0.109375	-0.479980	0.140771	-0.002045	0.008277	0.108498	-0.209568	-0.094761	-0.967124	8.761626	-25.208903	-169.160767
40318		13.824974	-0.391601	1.485316	-11.845578	-1.622642	-2.703727	-0.719582	0.857094	-0.506046	-0.610107	-0.117188	-0.482910	0.138301	-0.004214	0.014275	0.105691	-0.205609	-0.091349	-0.968612	8.448921	-24.684471	-169.397370
40319		12.882270	-0.327441	1.745901	-10.951414	-1.454345	-2.952752	-0.562790	0.815865	-0.273909	-0.608154	-0.115479	-0.483643	0.128888	-0.003403	0.016943	0.104148	-0.201866	-0.088476	-0.969833	8.166660	-24.203673	-169.495146
40320		11.926372	-0.172106	1.904469	-10.049296	-1.420823	-3.263855	-0.393201	0.761580	-0.073233	-0.596191	-0.111816	-0.500732	0.119334	-0.001728	0.018594	0.103723	-0.198382	-0.086249	-0.970797	7.933034	-23.770257	-169.475144
40321		11.058518	-0.076395	2.006425	-9.249415	-1.370670	-3.576382	-0.265120	0.669579	0.054247	-0.593506	-0.118652	-0.503906	0.110652	-0.000708	0.019695	0.104002	-0.195333	-0.084564	-0.971534	7.745100	-23.399201	-169.385842
40322		10.996569	0.264314	2.205347	-9.073644	-1.678107	-3.432206	-0.205049	0.562039	0.127755	-0.584961	-0.109863	-0.501221	0.110025	0.002736	0.021742	0.104650	-0.192802	-0.083154	-0.972091	7.578343	-23.094332	-169.261525
40323		10.510192	1.404390	2.826609	-8.169194	-2.604696	-2.963918	-0.334813	0.487594	0.177526	-0.582764	-0.104980	-0.496582	0.105158	0.014184	0.027986	0.105383	-0.190724	-0.081103	-0.972595	7.328632	-22.835571	-169.114023
40324		9.617165	1.342471	2.612945	-7.469401	-2.474193	-3.551243	-0.555434	0.391903	0.226387	-0.583740	-0.095703	-0.503906	0.096207	0.013606	0.025903	0.106103	-0.189240	-0.077982	-0.973062	6.945074	-22.633415	-168.945543
40325		8.793239	0.761101	2.357731	-6.958294	-1.860798	-4.193204	-0.750994	0.248136	0.257407	-0.574463	-0.097656	-0.502197	0.087952	0.007812	0.023439	0.106731	-0.188576	-0.073956	-0.973436	6.447213	-22.514736	-168.770338
40326		8.257448	0.684231	2.076855	-6.589397	-1.783818	-4.678035	-0.777901	0.112872	0.265635	-0.581543	-0.076172	-0.500977	0.082577	0.007033	0.020695	0.107323	-0.188578	-0.069862	-0.973673	5.936233	-22.471410	-168.600252
40327		8.003008	0.646525	2.150790	-6.334045	-1.725150	-4.714094	-0.716495	-0.051172	0.273179	-0.578613	-0.075439	-0.496338	0.080016	0.006652	0.021505	0.107949	-0.189354	-0.066147	-0.973713	5.462605	-22.521695	-168.436161
40328		7.593457	0.858115	2.327972	-5.836426	-1.855569	-4.683428	-0.553193	-0.191157	0.248133	-0.571777	-0.068848	-0.504395	0.075902	0.008740	0.023328	0.108561	-0.190703	-0.063326	-0.973569	5.091191	-22.648401	-168.294899
40329		3.556149	2.479129	3.852155	-1.243046	-2.440288	-4.700823	-0.355511	-0.271601	0.173765	-0.565918	-0.066162	-0.489502	0.035488	0.024891	0.038526	0.108972	-0.192323	-0.061581	-0.973317	4.851774	-22.817843	-168.203288
40330		-9.017282	4.514686	13.865746	14.226575	-0.471451	-0.255809	-0.528638	-0.384516	-0.116716	-0.561035	-0.056396	-0.474121	-0.090413	0.045566	0.138364	0.107768	-0.194484	-0.059333	-0.973161	4.584967	-23.036487	-168.296435
40331		-5.445063	3.524891	18.214296	12.401223	0.413241	5.015397	-0.478382	-0.111791	-0.329674	-0.562256	-0.051025	-0.469971	-0.054494	0.035774	0.182027	0.105655	-0.195235	-0.057391	-0.973358	4.393459	-23.091162	-168.507824
40332		-10.377159	2.195256	9.680302	13.439257	1.208522	-4.899739	-0.181464	-0.817482	-0.653551	-0.562744	-0.052979	-0.458008	-0.104093	0.022380	0.096358	0.102053	-0.199159	-0.057580	-0.972936	4.466184	-23.533811	-168.954829
40333		-2.194915	-1.085989	5.760238	3.949878	2.323254	-5.549272	0.141657	-2.096304	-0.889560	-0.569580	-0.056152	-0.444336	-0.022599	-0.010801	0.057360	0.097248	-0.209059	-0.060226	-0.971190	4.818643	-24.694922	-169.619163
40334		10.751877	-6.631422	10.922878	-6.529029	6.519080	4.106545	0.154699	-2.570274	-0.825791	-0.581787	-0.065186	-0.426514	0.105828	-0.066839	0.110545	0.092609	-0.221236	-0.063087	-0.968761	5.192544	-26.125274	-170.284377
40335		15.166965	-9.267214	12.713046	-9.857318	8.941759	7.519371	0.531973	-2.102020	-0.683817	-0.590820	-0.067627	-0.410645	0.150005	-0.093527	0.128465	0.089207	-0.230986	-0.067393	-0.966512	5.751693	-27.292000	-170.850829
40336		15.634946	-4.963773	13.843835	-8.565824	5.077116	9.202626	0.430059	-1.662974	-0.086347	-0.590332	-0.071533	-0.403076	0.155170	-0.050004	0.139625	0.088714	-0.238832	-0.070313	-0.964440	6.076080	-28.239204	-171.018647
40337		14.475774	-0.207782	12.487924	-6.954200	0.464805	7.990663	0.336683	-1.030135	0.173448	-0.593262	-0.070313	-0.386719	0.144114	-0.002164	0.125619	0.089580	-0.243754	-0.072187	-0.962989	6.249797	-28.842134	-170.979586
40338		10.713816	4.268391	10.394226	-3.593251	-3.711530	4.828257	0.087779	-0.634376	-0.014619	-0.586670	-0.068115	-0.385498	0.106811	0.042630	0.104300	0.089378	-0.246801	-0.072914	-0.962177	6.327232	-29.207051	-171.035948
40339		6.756758	1.645372	8.324232	-1.616473	-0.967866	0.869253	0.081659	-0.501060	-0.254031	-0.579102	-0.063232	-0.384033	0.067380	0.016334	0.083418	0.088065	-0.249130	-0.073845	-0.961627	6.473473	-29.481751	-171.239944
40340		6.439936	-0.108910	8.801864	-1.443338	0.911698	0.959627	0.192705	-0.391919	-0.327874	-0.577148	-0.060059	-0.375488	0.064225	-0.001279	0.088143	0.086574	-0.250846	-0.075356	-0.961198	6.704920	-29.687809	-171.485513
40341		5.753544	-0.002325	8.604432	-0.895658	0.903538	0.459643	0.260245	-0.289014	-0.252799	-0.570801	-0.067871	-0.387939	0.057411	-0.000208	0.086127	0.085567	-0.252075	-0.077050	-0.960833	6.947706	-29.840687	-171.675259
40342		5.072072	2.558130	8.432761	0.149178	-1.497229	0.243024	0.237219	-0.261975	-0.204164	-0.560791	-0.066162	-0.379883	0.050636	0.025429	0.084424	0.084775	-0.253192	-0.078562	-0.960487	7.161499	-29.979821	-171.831848
40343		4.674015	3.589848	8.213875	0.612837	-2.465031	-0.027538	0.121752	-0.245423	-0.209077	-0.570068	-0.065186	-0.390625	0.046677	0.035800	0.082218	0.083819	-0.254285	-0.079516	-0.960203	7.310455	-30.109916	-171.991041
40344		5.423072	2.767135	8.054768	-0.253555	-1.766819	0.125122	0.011730	-0.239241	-0.153889	-0.556396	-0.069092	-0.374756	0.054156	0.027625	0.080614	0.082991	-0.255406	-0.079872	-0.959948	7.378717	-30.239124	-172.113887
40345		5.487965	2.012412	8.531462	-0.214309	-0.938619	0.484227	-0.041808	-0.184028	-0.034655	-0.562744	-0.058350	-0.382813	0.054805	0.020132	0.085361	0.082688	-0.256341	-0.079793	-0.959732	7.374490	-30.346835	-172.153877
40346		5.656708	2.090632	8.353029	-0.415763	-1.073389	0.425337	-0.091059	-0.038682	0.058318	-0.551025	-0.055176	-0.384521	0.056545	0.020961	0.083532	0.082827	-0.256626	-0.079301	-0.959684	7.305076	-30.377616	-172.120174
40347		5.052451	1.255935	7.592145	-0.424761	-0.348775	-0.623388	-0.116681	-0.011946	0.095739	-0.552490	-0.060791	-0.389648	0.050514	0.012628	0.075917	0.083122	-0.256818	-0.078625	-0.959663	7.207169	-30.397048	-172.059610
40348		5.459727	0.174076	8.217377	-0.685754	0.764872	0.001022	-0.091343	0.016022	0.080135	-0.546631	-0.055176	-0.395996	0.054603	0.001800	0.082169	0.083386	-0.256850	-0.078080	-0.959676	7.127944	-30.398203	-172.006875
40349		4.850661	-0.395088	8.222617	-0.276175	1.384603	-0.362659	-0.026752	0.023990	0.066676	-0.547607	-0.052734	-0.400879	0.048518	-0.003924	0.082221	0.083672	-0.256821	-0.077858	-0.959677	7.089707	-30.395030	-171.962448
40350		4.751412	-0.345782	8.591436	-0.004698	1.417357	-0.091610	0.036244	0.001293	0.040877	-0.535645	-0.049561	-0.408936	0.047515	-0.003464	0.085913	0.083906	-0.256854	-0.077982	-0.959638	7.097288	-30.401723	-171.936798
40351		5.492575	0.078223	8.085906	-0.795298	0.820792	-0.104434	0.072550	0.010259	0.001580	-0.535889	-0.047119	-0.406494	0.054930	0.000753	0.080857	0.084001	-0.256824	-0.078325	-0.959610	7.138172	-30.401745	-171.936379
40352		5.777538	0.570615	8.554594	-0.717278	0.405108	0.493040	0.104932	0.029248	-0.017733	-0.534912	-0.048340	-0.417236	0.057788	0.005656	0.085540	0.084053	-0.256671	-0.078842	-0.959604	7.203487	-30.388384	-171.947050
40353		4.611317	0.871866	8.347154	0.235224	0.222434	-0.242183	0.106648	0.051614	-0.057116	-0.536865	-0.059570	-0.412109	0.046137	0.008661	0.083464	0.083927	-0.256405	-0.079407	-0.959639	7.281680	-30.360689	-171.981824
40354		4.870800	0.860329	8.446976	0.054668	0.232853	-0.027032	0.097894	0.006271	-0.065142	-0.531738	-0.046631	-0.424316	0.048713	0.008546	0.084472	0.083733	-0.256347	-0.079961	-0.959626	7.359697	-30.356900	-172.025617
40355		5.412207	1.463116	8.135332	-0.439443	-0.470219	0.046425	0.067797	0.048801	-0.061210	-0.535156	-0.047852	-0.422363	0.054146	0.014587	0.081345	0.083536	-0.256109	-0.080345	-0.959674	7.417041	-30.330424	-172.063226
40356		5.134985	1.568301	8.266864	-0.123836	-0.506852	0.030912	0.052872	0.044663	-0.040648	-0.539063	-0.053955	-0.433838	0.051371	0.015651	0.082661	0.083418	-0.255895	-0.080635	-0.959717	7.459419	-30.306564	-172.087572
40357		4.951278	1.788032	8.427331	0.147944	-0.664649	0.100358	0.010796	0.089570	-0.000260	-0.531738	-0.046875	-0.434326	0.049551	0.017876	0.084252	0.083457	-0.255510	-0.080652	-0.959815	7.462064	-30.261437	-172.081517
40358		5.190760	2.174360	8.160051	-0.113116	-1.126930	0.034926	-0.054899	0.086774	0.070261	-0.532715	-0.043457	-0.433350	0.051935	0.021784	0.081572	0.083750	-0.255183	-0.080265	-0.959909	7.404103	-30.221873	-172.029296
40359		5.394053	2.396374	8.001405	-0.322182	-1.412299	0.024104	-0.122108	0.096990	0.123364	-0.543213	-0.041504	-0.440186	0.053965	0.024046	0.079973	0.084215	-0.254868	-0.079483	-0.960017	7.289490	-30.181585	-171.941456
40360		5.341930	1.894652	8.153996	-0.309699	-0.911124	0.071008	-0.205487	0.105996	0.190915	-0.531982	-0.034668	-0.449219	0.053444	0.019081	0.081492	0.084903	-0.254560	-0.078211	-0.960143	7.104772	-30.139570	-171.808547
40361		5.244778	1.768082	8.162157	-0.250095	-0.805741	0.012930	-0.246814	0.108587	0.240835	-0.543213	-0.038086	-0.452393	0.052471	0.017845	0.081571	0.085777	-0.254287	-0.076676	-0.960261	6.879816	-30.100431	-171.642931
40362		5.203441	1.208790	8.037498	-0.388820	-0.315953	-0.174886	-0.281976	0.106570	0.271060	-0.548340	-0.029053	-0.452148	0.052061	0.012272	0.080330	0.086752	-0.254038	-0.074935	-0.960377	6.625238	-30.062600	-171.457765
40363		5.123929	0.793874	8.459987	-0.204887	0.140229	0.106713	-0.264036	0.089087	0.270555	-0.538086	-0.028076	-0.457764	0.051266	0.008120	0.084566	0.087739	-0.253875	-0.073287	-0.960457	6.381810	-30.035287	-171.274596
40364		4.984561	0.281235	8.260869	-0.285565	0.586962	-0.182487	-0.215909	0.080078	0.247177	-0.543457	-0.025146	-0.463623	0.049875	0.002963	0.082586	0.088673	-0.253715	-0.071904	-0.960519	6.174310	-30.009721	-171.107535
40365		5.026901	0.575289	8.296014	-0.243408	0.274130	-0.102379	-0.158607	0.048552	0.204213	-0.541260	-0.016113	-0.462158	0.050283	0.005870	0.082943	0.089460	-0.253675	-0.070864	-0.960533	6.014795	-30.000344	-170.971168
40366		4.820011	0.473195	8.363151	-0.053401	0.393883	-0.156565	-0.110626	0.014620	0.154259	-0.547607	-0.015137	-0.465332	0.048203	0.004815	0.083625	0.090057	-0.253747	-0.070134	-0.960512	5.900589	-30.005746	-170.869947
40367		4.763026	0.633790	8.542396	0.117370	0.263894	-0.015891	-0.067107	0.004598	0.122696	-0.546143	-0.015381	-0.469971	0.047628	0.006396	0.085421	0.090553	-0.253848	-0.069656	-0.960473	5.821810	-30.016178	-170.790237
40368		5.055607	0.793664	8.136151	-0.287844	-0.016768	-0.205249	-0.073489	-0.016557	0.128915	-0.554199	-0.008057	-0.465820	0.050544	0.007999	0.081363	0.091065	-0.254045	-0.069150	-0.960410	5.738215	-30.037618	-170.707737
40369		5.015348	1.036910	8.119878	-0.204663	-0.262380	-0.218389	-0.075962	-0.010364	0.116824	-0.549316	-0.014404	-0.468506	0.050143	0.010429	0.081197	0.091516	-0.254220	-0.068643	-0.960357	5.656707	-30.056054	-170.632814
40370		4.910823	0.975674	8.016320	-0.172278	-0.219482	-0.365379	-0.106500	-0.010636	0.142045	-0.554932	-0.018799	-0.464355	0.049097	0.009834	0.080161	0.092051	-0.254407	-0.067960	-0.960305	5.549570	-30.074633	-170.541172
40371		4.782464	1.304478	8.292675	0.144306	-0.488216	-0.164740	-0.119436	-0.002524	0.162061	-0.560791	-0.006104	-0.458984	0.047813	0.013133	0.082920	0.092667	-0.254579	-0.067183	-0.960255	5.427873	-30.090852	-170.435839
40372		5.598986	1.211255	7.663734	-0.864868	-0.643598	-0.305514	-0.133844	-0.021858	0.177183	-0.568359	-0.003418	-0.467285	0.055971	0.012213	0.076635	0.093331	-0.254844	-0.066329	-0.960179	5.293679	-30.117377	-170.321596
40373		4.957113	0.980053	8.296183	-0.057407	-0.231885	-0.101712	-0.103512	-0.017087	0.168537	-0.563965	-0.007813	-0.454834	0.049556	0.009885	0.082961	0.093993	-0.255081	-0.065627	-0.960100	5.179279	-30.141862	-170.212754
40374		4.572304	0.876135	8.344354	0.278398	-0.081988	-0.261898	-0.118730	-0.021315	0.170882	-0.565918	0.009033	-0.459473	0.045707	0.008850	0.083443	0.094646	-0.255333	-0.064853	-0.960021	5.055636	-30.167336	-170.102450
40375		4.758786	1.156866	8.465518	0.246233	-0.378607	-0.043072	-0.112329	-0.035742	0.176769	-0.567871	0.001221	-0.457520	0.047562	0.011658	0.084657	0.095330	-0.255666	-0.064107	-0.959915	4.933816	-30.202482	-169.989074
40376		5.127716	0.534266	8.199748	-0.319537	0.108668	-0.132769	-0.146501	-0.050193	0.174813	-0.579346	0.010986	-0.453125	0.051252	0.005448	0.082006	0.095958	-0.256071	-0.063208	-0.959804	4.793553	-30.244210	-169.877590
40377		4.846967	0.625541	8.650392	0.165441	0.121271	0.120669	-0.125403	-0.047875	0.159180	-0.580566	0.002197	-0.450439	0.048444	0.006348	0.086512	0.096537	-0.256461	-0.062428	-0.959693	4.670164	-30.285008	-169.776235
40378		5.206561	0.374365	8.342996	-0.332264	0.241518	0.020178	-0.140130	-0.052919	0.145193	-0.573242	0.013672	-0.447021	0.052041	0.003840	0.083441	0.097029	-0.256867	-0.061599	-0.959589	4.543217	-30.326497	-169.684181
40379		5.663849	-0.024015	8.218846	-0.857614	0.521256	0.118171	-0.119102	-0.038584	0.132260	-0.580322	0.021240	-0.445801	0.056623	-0.000154	0.082199	0.097489	-0.257201	-0.060879	-0.959499	4.431920	-30.360413	-169.599877
40380		5.519677	-0.159671	8.282968	-0.726736	0.672994	0.092807	-0.081258	-0.029082	0.103194	-0.576660	0.022705	-0.432617	0.055186	-0.001535	0.082838	0.097862	-0.257450	-0.060374	-0.959426	4.351937	-30.386144	-169.534177
40381		5.348003	0.207700	8.369320	-0.452928	0.346661	0.105199	-0.062557	-0.026412	0.083194	-0.581543	0.020020	-0.439209	0.053468	0.002125	0.083700	0.098164	-0.257683	-0.059982	-0.959357	4.288990	-30.410803	-169.481592
40382		5.447390	0.272602	8.213419	-0.592589	0.233876	0.026152	-0.054227	-0.030328	0.078466	-0.581299	0.023682	-0.428467	0.054460	0.002770	0.082142	0.098453	-0.257918	-0.059639	-0.959285	4.232721	-30.436064	-169.432237
40383		4.850741	0.354961	8.377239	0.015975	0.268441	-0.129636	-0.046189	-0.028873	0.059091	-0.577637	0.025391	-0.419922	0.048494	0.003583	0.083779	0.098659	-0.258147	-0.059358	-0.959220	4.187210	-30.461049	-169.395660
40384		4.883903	0.613985	8.347599	0.036782	0.000942	-0.121943	-0.040059	-0.054839	0.058441	-0.593262	0.030518	-0.429443	0.048814	0.006171	0.083488	0.098863	-0.258486	-0.059121	-0.959122	4.146314	-30.499414	-169.360690
40385		4.917422	0.621670	8.395902	0.041660	-0.008006	-0.062976	-0.035938	-0.066904	0.046272	-0.584717	0.028809	-0.427979	0.049145	0.006243	0.083974	0.099010	-0.258889	-0.058924	-0.959011	4.111837	-30.545560	-169.334366
40386		4.954327	0.198887	8.438737	-0.053622	0.402222	-0.033499	-0.017608	-0.071261	0.036396	-0.584961	0.021973	-0.416992	0.049513	0.002005	0.084405	0.099132	-0.259289	-0.058832	-0.958896	4.091554	-30.592372	-169.314728
40387		4.878870	0.387209	8.348433	0.016514	0.215331	-0.137824	-0.008673	-0.075516	0.025985	-0.582031	0.028320	-0.420898	0.048757	0.003882	0.083503	0.099214	-0.259714	-0.058796	-0.958774	4.079687	-30.642597	-169.302213
40388		5.604201	0.572168	8.084648	-0.675363	-0.123523	0.017094	0.000976	-0.083873	0.024037	-0.580811	0.034668	-0.415283	0.056007	0.005728	0.080870	0.099298	-0.260162	-0.058815	-0.958643	4.074494	-30.696107	-169.291340
40389		5.329300	0.754051	8.200013	-0.337095	-0.236985	-0.012665	-0.003652	-0.086738	0.025763	-0.577881	0.029541	-0.417480	0.053256	0.007549	0.082023	0.099382	-0.260638	-0.058809	-0.958505	4.065808	-30.752749	-169.279471
40390		5.388410	0.587885	8.244784	-0.392051	-0.076710	0.046189	-0.000611	-0.093149	0.028405	-0.583008	0.026855	-0.404297	0.053845	0.005887	0.082473	0.099482	-0.261131	-0.058819	-0.958360	4.058409	-30.811734	-169.266102
40391		5.308743	0.777744	7.980799	-0.401346	-0.291703	-0.208802	-0.003843	-0.095093	0.032690	-0.582764	0.032471	-0.408691	0.053048	0.007788	0.079833	0.099597	-0.261650	-0.058807	-0.958208	4.047415	-30.873447	-169.249984
40392		5.769599	0.523784	7.858722	-0.895209	-0.138064	-0.091490	0.001252	-0.105507	0.039403	-0.575195	0.039795	-0.401611	0.057653	0.005249	0.078618	0.099748	-0.262205	-0.058818	-0.958039	4.037574	-30.939936	-169.229829
40393		4.674855	0.505499	8.393288	0.296038	0.144002	-0.197663	0.005275	-0.085784	0.038890	-0.574219	0.039795	-0.398193	0.046712	0.005062	0.083953	0.099907	-0.262676	-0.058838	-0.957893	4.029401	-30.996604	-169.209098
40394		5.161355	0.678615	8.168304	-0.175990	-0.138538	-0.129138	0.015841	-0.095346	0.038700	-0.575195	0.045898	-0.398682	0.051573	0.006790	0.081708	0.100076	-0.263175	-0.058914	-0.957733	4.027855	-31.057253	-169.188891
40395		5.058659	0.593027	8.177437	-0.093597	-0.035732	-0.179300	0.016393	-0.097848	0.046661	-0.571777	0.043457	-0.400391	0.050545	0.005935	0.081800	0.100284	-0.263700	-0.058982	-0.957563	4.023610	-31.121127	-169.163503
40396		4.896063	0.498459	8.375617	0.130051	0.117015	-0.099797	0.027144	-0.095845	0.052923	-0.569336	0.045898	-0.400391	0.048919	0.004986	0.083780	0.100536	-0.264200	-0.059094	-0.957392	4.023583	-31.182632	-169.133787
40397		4.697952	0.712662	8.372577	0.353561	-0.058103	-0.192382	0.016655	-0.099553	0.047176	-0.566406	0.049561	-0.392090	0.046936	0.007131	0.083750	0.100746	-0.264733	-0.059164	-0.957218	4.019278	-31.247501	-169.108092
40398		5.228340	0.678719	8.138996	-0.203510	-0.148640	-0.118569	0.010770	-0.112516	0.060754	-0.563477	0.047607	-0.395020	0.052236	0.006799	0.081420	0.101009	-0.265323	-0.059196	-0.957025	4.007470	-31.318843	-169.073867
40399		5.180817	0.738333	8.290433	-0.061371	-0.172614	-0.010458	0.014746	-0.138784	0.059465	-0.563232	0.049072	-0.395264	0.051748	0.007393	0.082941	0.101263	-0.266049	-0.059260	-0.956793	3.998659	-31.406621	-169.041719
40400		5.129784	0.467158	8.319078	-0.049569	0.106206	-0.028709	0.017109	-0.164363	0.055120	-0.564697	0.054688	-0.389648	0.051228	0.004679	0.083233	0.101493	-0.266881	-0.059355	-0.956531	3.993585	-31.507364	-169.013607
40401		5.213420	0.294994	8.209335	-0.194439	0.245203	-0.088388	0.033119	-0.200585	0.052934	-0.561523	0.052490	-0.387695	0.052051	0.002950	0.082146	0.101721	-0.267891	-0.059547	-0.956212	3.998967	-31.630205	-168.988651
40402		4.793180	0.220099	8.411906	0.262346	0.427076	-0.141497	0.060941	-0.236363	0.038666	-0.563232	0.066162	-0.397461	0.047832	0.002185	0.084176	0.101909	-0.269040	-0.059911	-0.955847	4.026476	-31.771447	-168.974947
40403		5.139065	0.145093	8.362206	-0.043444	0.446151	-0.006744	0.089555	-0.286266	0.016494	-0.557617	0.059570	-0.389648	0.051271	0.001418	0.083696	0.102013	-0.270418	-0.060465	-0.955412	4.079199	-31.941801	-168.978647
40404		5.288796	0.169410	8.138817	-0.246334	0.374578	-0.115300	0.107858	-0.341295	0.009210	-0.555908	0.061279	-0.400635	0.052749	0.001653	0.081479	0.102092	-0.272034	-0.061145	-0.954901	4.146883	-32.141820	-168.990130
40405		4.926863	0.500829	8.490354	0.341810	0.190608	0.008597	0.164328	-0.387089	0.010520	-0.555908	0.052979	-0.399658	0.049104	0.004941	0.085003	0.102238	-0.273853	-0.062115	-0.954303	4.247547	-32.369534	-169.003371
40406		5.208541	0.716326	8.207835	0.051512	-0.091336	-0.065924	0.147885	-0.446293	0.000082	-0.565918	0.054199	-0.392334	0.051902	0.007103	0.082200	0.102293	-0.275944	-0.063052	-0.953633	4.344874	-32.629119	-169.027197
40407		5.045523	0.322611	8.306973	0.191127	0.359166	-0.096648	0.154959	-0.531493	-0.046419	-0.562256	0.054932	-0.396973	0.050235	0.003150	0.083206	0.102109	-0.278435	-0.064129	-0.952856	4.465886	-32.936773	-169.087737
40408		5.439911	0.544123	8.188931	-0.092338	0.090351	0.032630	0.196086	-0.617248	-0.061874	-0.570801	0.052734	-0.393066	0.054148	0.005344	0.082062	0.101880	-0.281293	-0.065468	-0.951950	4.620005	-33.291100	-169.164573
40409		5.134699	0.619409	8.310746	0.299196	0.122305	-0.029417	0.211664	-0.710429	-0.063818	-0.575195	0.054688	-0.393799	0.051053	0.006090	0.083296	0.101632	-0.284595	-0.066929	-0.950893	4.787593	-33.699844	-169.249504
40410		5.816188	0.619052	7.897678	-0.406193	-0.020331	0.006608	0.248053	-0.835104	-0.057701	-0.579346	0.052734	-0.389648	0.057833	0.006076	0.079226	0.101422	-0.288455	-0.068618	-0.949631	4.979787	-34.178355	-169.339552
40411		5.003701	0.522171	8.410840	0.587624	0.339822	-0.035657	0.276450	-0.971927	-0.066289	-0.582764	0.052979	-0.395264	0.049629	0.005089	0.084357	0.101162	-0.292955	-0.070520	-0.948141	5.198188	-34.735730	-169.446589
40412		4.866000	0.743552	8.522200	0.906680	0.219595	-0.015379	0.328368	-1.155747	-0.065960	-0.587158	0.053467	-0.381592	0.048169	0.007279	0.085513	0.100912	-0.298277	-0.072761	-0.946337	5.456443	-35.396130	-169.568983
40413		5.008529	0.951281	8.467290	0.925525	0.046466	0.027278	0.362275	-1.362468	-0.053246	-0.597168	0.057373	-0.376709	0.049509	0.009346	0.085029	0.100693	-0.304565	-0.075242	-0.944161	5.741013	-36.176094	-169.701599
40414		4.659480	1.086241	8.651694	1.472854	0.069895	-0.036895	0.380628	-1.592175	-0.021619	-0.597656	0.046387	-0.371826	0.045905	0.010692	0.086905	0.100559	-0.311909	-0.077875	-0.941560	6.038486	-37.086821	-169.834989
40415		4.394317	1.261009	8.949522	2.051365	0.072559	0.024882	0.391561	-1.843711	-0.002450	-0.605225	0.049316	-0.372803	0.043116	0.012434	0.089920	0.100427	-0.320427	-0.080648	-0.938476	6.352067	-38.142839	-169.982050
40416		5.108556	0.465998	8.393712	1.164784	0.700869	-0.070140	0.413413	-2.116212	0.051615	-0.619629	0.048584	-0.356445	0.050192	0.004499	0.084481	0.100463	-0.330189	-0.083567	-0.934826	6.676492	-39.355418	-170.122245
40417		5.009962	0.374349	8.584374	1.541401	0.928324	-0.030626	0.437517	-2.408441	0.073022	-0.632813	0.050537	-0.335693	0.049060	0.003573	0.086447	0.100503	-0.341281	-0.086697	-0.930543	7.031102	-40.736376	-170.284569
40418		5.122895	0.122476	8.517959	1.592420	1.231456	-0.078412	0.421734	-2.737363	0.097919	-0.638672	0.045898	-0.314941	0.050056	0.001069	0.085872	0.100473	-0.353852	-0.089864	-0.925537	7.398749	-42.303936	-170.474936
40419		5.000501	0.106512	8.544783	1.965553	1.362476	-0.205300	0.384188	-3.124186	0.102936	-0.653076	0.044922	-0.295898	0.048662	0.000925	0.086217	0.100203	-0.368166	-0.093020	-0.919652	7.786638	-44.091871	-170.720748
40420		5.111013	-0.098747	8.623985	2.197040	1.665731	-0.174587	0.341971	-3.570343	0.136364	-0.665771	0.044678	-0.275391	0.049561	-0.001102	0.087132	0.099774	-0.384452	-0.096119	-0.912690	8.191449	-46.133058	-171.015779
40421		5.158699	1.224290	8.589532	2.836856	0.485405	-0.138315	0.312017	-4.090911	0.155352	-0.683105	0.041016	-0.247070	0.049806	0.012147	0.086945	0.099086	-0.403003	-0.099266	-0.904387	8.647506	-48.470455	-171.393697
40422		5.662906	2.501573	8.730044	3.354915	-0.642311	0.328919	0.219064	-4.620073	0.210315	-0.692139	0.048584	-0.207031	0.054566	0.024977	0.088604	0.098149	-0.423817	-0.102100	-0.894607	9.117150	-51.108941	-171.844439
40423		5.728063	4.695271	9.347082	4.835253	-2.477693	0.802292	0.056051	-5.133909	0.330381	-0.700928	0.041504	-0.175293	0.054779	0.047018	0.094912	0.097083	-0.446823	-0.104138	-0.883221	9.529119	-54.047840	-172.323185
40424		6.647915	4.293386	9.709987	5.040935	-1.961307	1.484078	-0.102781	-5.542184	0.462863	-0.716309	0.046875	-0.115479	0.063656	0.043134	0.098868	0.095964	-0.471448	-0.105304	-0.870309	9.872413	-57.227066	-172.810475
40425		6.521988	2.707121	8.142019	4.032145	-0.763794	0.151317	-0.132859	-6.036462	0.590691	-0.723145	0.050781	-0.072998	0.062644	0.027314	0.083319	0.094989	-0.497911	-0.106185	-0.855445	10.248516	-60.697023	-173.338495
40426		7.824794	2.183587	8.610680	4.300082	-0.109088	1.213980	-0.195747	-6.510085	0.686556	-0.725830	0.063721	-0.022705	0.075316	0.022184	0.088569	0.093921	-0.525975	-0.106678	-0.838540	10.700372	-64.440899	-173.973890
40427		10.205088	0.663897	7.703904	2.869839	1.110828	2.613042	-0.105296	-6.916396	0.706602	-0.739258	0.061768	0.030029	0.099282	0.007035	0.080501	0.092852	-0.555114	-0.107566	-0.819547	11.479790	-68.412841	-174.889925
40428		15.577487	-0.105715	8.981929	2.869322	2.212242	7.796513	0.136147	-7.014344	0.754208	-0.731689	0.074707	0.082031	0.152501	-0.000541	0.095206	0.092480	-0.583880	-0.109224	-0.799126	12.746090	-72.437617	-176.150509
40429		16.423860	0.190749	8.485433	3.445138	1.992250	8.237780	0.465431	-6.587287	0.855511	-0.716064	0.080078	0.141846	0.161316	0.002396	0.090205	0.093599	-0.610159	-0.111575	-0.778779	14.488379	-76.226445	-177.682446
40430		17.591456	-1.928662	9.970466	5.145540	4.671943	9.269928	0.698466	-6.482009	0.902687	-0.718750	0.084229	0.189941	0.172648	-0.018864	0.105270	0.095567	-0.635271	-0.114519	-0.757748	17.372676	-79.944881	179.780045
40431		15.286795	1.828323	10.016459	7.781594	1.360623	6.765803	1.192546	-6.074210	0.750972	-0.704834	0.082275	0.238770	0.149662	0.018233	0.104852	0.098667	-0.657865	-0.119502	-0.737020	23.636299	-83.364012	174.142509
40432		14.681064	3.065986	11.125196	10.227996	0.783286	5.787688	1.013876	-5.918317	0.896513	-0.700684	0.103027	0.281982	0.143293	0.030728	0.115683	0.101713	-0.679432	-0.123160	-0.716141	39.448243	-86.554564	158.858860
40433		12.618971	2.967181	9.841692	9.928233	0.634105	3.065695	0.686409	-5.767387	1.052123	-0.680176	0.104980	0.333252	0.123123	0.029979	0.102100	0.104208	-0.700111	-0.124927	-0.695255	112.516619	-88.275578	86.134149
40434		11.197425	2.869437	9.225969	9.982122	0.630850	1.079391	0.564892	-5.441950	0.999874	-0.655762	0.114014	0.367432	0.109263	0.028979	0.095339	0.106211	-0.719113	-0.126184	-0.675036	165.085773	-86.078203	33.841832
40435		12.050605	2.901262	10.498273	11.823941	1.151632	1.262395	0.356739	-5.044098	1.097187	-0.645996	0.127686	0.408691	0.117646	0.029472	0.108026	0.107970	-0.736421	-0.126086	-0.655842	176.872475	-83.304071	22.213259
40436		11.068821	3.112332	9.127999	10.985410	0.528664	-0.089729	0.209109	-4.033029	1.015456	-0.627686	0.124023	0.427979	0.108658	0.031581	0.093518	0.109494	-0.750038	-0.125190	-0.640142	-178.546085	-80.995623	17.710187
40437		4.423456	4.414908	6.870329	8.567409	-1.740816	-6.678814	-0.141726	-3.215668	1.023530	-0.614502	0.136230	0.460205	0.042896	0.044420	0.069369	0.110202	-0.760961	-0.122647	-0.627496	-175.807166	-79.122342	14.847389
40438		13.845410	3.036683	14.530860	17.133799	2.447588	0.793122	-0.317385	-2.402240	0.686318	-0.604736	0.135498	0.478516	0.136590	0.031070	0.146908	0.109656	-0.769058	-0.120362	-0.618093	-174.641223	-77.713314	13.471469
40439		28.368171	5.225636	23.965705	29.737345	4.043518	12.676291	-0.229793	-0.325820	0.050807	-0.609863	0.134521	0.473389	0.283278	0.052604	0.240058	0.108725	-0.770235	-0.119643	-0.616929	-174.724555	-77.521731	13.421958
40440		11.025911	6.471321	15.450958	18.603753	-0.756217	-2.362768	-0.412491	1.484976	-0.177662	-0.618164	0.128662	0.472900	0.111459	0.064932	0.153551	0.107464	-0.765775	-0.118251	-0.622943	-175.087062	-78.373657	13.550749
40441		3.498103	5.703954	10.908635	12.589055	-1.902300	-8.524928	-0.924519	2.398271	-0.315315	-0.621094	0.110840	0.459717	0.036374	0.057485	0.108391	0.104344	-0.758561	-0.115290	-0.632776	-176.002806	-79.755711	13.943917
40442		2.597321	2.219283	7.890891	8.499337	0.347236	-8.558924	-1.255515	2.893051	-0.420213	-0.644043	0.112305	0.433838	0.027157	0.022630	0.078381	0.099897	-0.749751	-0.111395	-0.644582	-177.622027	-81.419559	14.855704
40443		1.340967	0.165804	5.692256	5.617618	1.531350	-9.245480	-1.179118	3.092657	-0.531392	-0.654785	0.099854	0.418457	0.014292	0.001956	0.056695	0.095466	-0.739979	-0.108036	-0.656997	179.674624	-83.195428	16.901653
40444		0.197200	-1.332892	4.620518	4.054937	2.576736	-10.097080	-0.903564	3.169017	-0.663376	-0.670654	0.090332	0.406982	0.002661	-0.013128	0.046226	0.091633	-0.729564	-0.106001	-0.669405	174.608464	-84.986661	21.473568
40445		0.823237	-2.607787	4.478223	3.630001	3.759091	-9.339699	-0.466890	3.288505	-0.798695	-0.682129	0.080322	0.384277	0.008864	-0.026008	0.044701	0.088979	-0.718249	-0.105838	-0.681909	163.034305	-86.753522	32.808186
40446		1.830666	-2.655391	4.725930	3.871377	3.897561	-8.213837	-0.005220	3.463300	-0.900518	-0.687012	0.073486	0.351563	0.019001	-0.026637	0.046935	0.087699	-0.705880	-0.107503	-0.694612	127.575300	-88.153703	68.294358
40447		2.502524	-1.862950	5.035152	4.310076	3.249498	-7.374101	0.309834	3.679868	-0.950252	-0.700684	0.062744	0.313477	0.025856	-0.018829	0.049852	0.087449	-0.692331	-0.110306	-0.707717	64.094801	-87.767253	131.984718
40448		2.975517	-0.926480	5.319785	4.708603	2.460377	-6.684893	0.406537	3.894496	-0.924236	-0.718262	0.048584	0.292236	0.030740	-0.009513	0.052586	0.087706	-0.677752	-0.113225	-0.721207	38.597143	-85.915803	157.749717
40449		3.279333	-0.137963	5.473406	4.907919	1.770232	-6.137897	0.294728	4.076034	-0.846455	-0.724365	0.051270	0.259766	0.033893	-0.001602	0.054049	0.087935	-0.662303	-0.115350	-0.735062	28.923117	-83.696667	167.631199
40450		3.675763	0.067293	5.579544	4.851410	1.613488	-5.511434	0.082417	4.231750	-0.734735	-0.734375	0.034668	0.230469	0.037929	0.000512	0.055001	0.087918	-0.646169	-0.116205	-0.749155	23.681145	-81.337887	172.964426
40451		4.253304	-0.088258	5.631518	4.565616	1.767252	-4.729734	-0.140028	4.371796	-0.612455	-0.735840	0.024658	0.189209	0.043747	-0.000976	0.055368	0.087684	-0.629345	-0.115714	-0.763444	20.114640	-78.881902	176.502429
40452		4.746563	-0.592499	5.636283	4.095964	2.215430	-4.072084	-0.302102	4.511272	-0.509510	-0.742188	0.019775	0.146240	0.048706	-0.005964	0.055282	0.087366	-0.611832	-0.114162	-0.777815	17.422180	-76.344217	179.080948
40453		5.394613	-1.304227	5.612043	3.449715	2.834142	-3.304650	-0.345605	4.636436	-0.420084	-0.744629	0.014160	0.115723	0.055200	-0.013062	0.054873	0.087292	-0.593548	-0.112051	-0.792165	15.291729	-73.727132	-178.919393
40454		6.476628	-1.886881	5.782219	2.817141	3.362870	-2.087268	-0.230027	4.775111	-0.352704	-0.744385	0.004883	0.069580	0.066089	-0.018919	0.056276	0.087853	-0.574401	-0.110076	-0.806368	13.629996	-71.031500	-177.314837
40455		7.712360	-2.072806	5.899194	2.067372	3.470283	-0.743962	-0.028622	4.936547	-0.298257	-0.746094	-0.001465	0.045898	0.078517	-0.020836	0.057068	0.089253	-0.554172	-0.108618	-0.820445	12.350743	-68.236776	-175.968289
40456		8.754166	-1.697593	6.119593	1.493537	3.047733	0.454863	0.197644	5.087449	-0.247415	-0.737061	-0.010742	-0.004639	0.089039	-0.017144	0.058927	0.091509	-0.532935	-0.107814	-0.834255	11.391961	-65.359346	-174.802506
40457		9.725746	-0.883417	6.452103	1.037363	2.212323	1.632774	0.354503	5.207547	-0.186323	-0.730469	-0.010986	-0.058105	0.098884	-0.009037	0.061944	0.094448	-0.510771	-0.107371	-0.847741	10.646160	-62.409947	-173.746200
40458		10.601698	-0.099858	6.802425	0.519905	1.386937	2.695232	0.421812	5.279696	-0.110442	-0.717041	-0.017090	-0.091553	0.107762	-0.001197	0.065192	0.097848	-0.487991	-0.106915	-0.860732	10.026150	-59.427004	-172.760716
40459		11.649101	0.352512	7.148300	-0.280514	0.831998	3.829502	0.437470	5.305569	-0.048996	-0.714355	-0.027100	-0.120605	0.118333	0.003344	0.068367	0.101501	-0.464746	-0.106284	-0.873162	9.498769	-56.426056	-171.843074
40460		13.028672	0.657384	7.426625	-1.467845	0.331386	5.121038	0.448911	5.314566	-0.009396	-0.680908	-0.017822	-0.158691	0.132199	0.006406	0.070785	0.105281	-0.441184	-0.105536	-0.884949	9.065699	-53.424457	-171.000103
40461		14.346496	1.050667	7.611742	-2.785862	-0.320899	6.216635	0.483447	5.303907	0.002669	-0.677734	-0.026367	-0.192383	0.145416	0.010331	0.072303	0.109115	-0.417307	-0.104839	-0.896079	8.740699	-50.422094	-170.235903
40462		15.419405	1.718391	7.836042	-3.940937	-1.233029	7.069096	0.527940	5.281755	-0.036787	-0.666748	-0.027100	-0.216309	0.156195	0.016956	0.074298	0.112772	-0.393227	-0.104368	-0.906511	8.546525	-47.431539	-169.577497
40463		16.534519	2.527043	8.075468	-5.152280	-2.302263	7.881018	0.515686	5.229630	-0.131886	-0.650391	-0.034912	-0.240723	0.167399	0.024960	0.076460	0.115872	-0.369031	-0.103980	-0.916285	8.461531	-44.456822	-169.048612
40464		17.494360	3.619432	8.336191	-6.229957	-3.630968	8.533042	0.409449	5.179284	-0.251663	-0.643555	-0.046387	-0.271729	0.177070	0.035808	0.078868	0.118118	-0.344849	-0.103289	-0.925450	8.424034	-41.504794	-168.649862
40465		18.187778	4.403415	8.300713	-7.437232	-4.720380	8.664471	0.189269	5.103381	-0.398553	-0.652344	-0.040527	-0.299561	0.184004	0.043593	0.078371	0.119191	-0.320809	-0.101805	-0.934083	8.363891	-38.578927	-168.388320
40466		18.918822	4.523205	7.775354	-9.154903	-5.313383	8.262243	-0.063412	4.992429	-0.571466	-0.642334	-0.051025	-0.331787	0.191178	0.044711	0.072983	0.118914	-0.297178	-0.099423	-0.942157	8.260496	-35.705699	-168.277642
40467		19.498713	4.213587	6.625329	-11.166937	-5.608968	7.087035	-0.263004	4.836549	-0.742748	-0.638428	-0.064209	-0.362305	0.196667	0.041490	0.061456	0.117386	-0.274100	-0.096383	-0.949632	8.128015	-32.902812	-168.310408
40468		19.770819	3.409021	5.082242	-13.142538	-5.416901	5.226817	-0.352696	4.640816	-0.903308	-0.629883	-0.074463	-0.394531	0.198967	0.033278	0.046156	0.114808	-0.251800	-0.093201	-0.956415	8.011946	-30.202009	-168.475199
40469		19.224269	1.428255	3.248011	-14.687474	-3.933384	2.471610	-0.282515	4.362265	-1.101288	-0.623779	-0.085449	-0.435059	0.192965	0.013263	0.028257	0.111182	-0.230537	-0.090710	-0.962426	8.003254	-27.640341	-168.792319
40470		18.717818	1.118014	1.737252	-15.466843	-3.881302	0.201483	-0.093516	4.054018	-1.269823	-0.617920	-0.100098	-0.467773	0.187545	0.009997	0.013568	0.106768	-0.210493	-0.089454	-0.967621	8.146105	-25.242895	-169.233839
40471		18.464611	1.127856	0.117334	-16.251332	-4.137308	-2.004884	-0.005212	3.653446	-1.302109	-0.616699	-0.112061	-0.489746	0.184695	0.010076	-0.002201	0.102069	-0.192217	-0.088833	-0.971979	8.339886	-23.066316	-169.715214
40472		18.292923	1.287771	-1.320453	-16.845477	-4.474064	-3.963524	-0.021503	3.194346	-1.252909	-0.597412	-0.126221	-0.520752	0.182763	0.011731	-0.016126	0.097354	-0.176159	-0.088293	-0.975548	8.507485	-21.155169	-170.193702
40473		17.212154	1.751414	-2.613464	-16.354838	-4.915870	-6.006338	-0.177325	2.667301	-1.082266	-0.585449	-0.126709	-0.543213	0.171844	0.016559	-0.028443	0.093078	-0.162765	-0.087075	-0.978398	8.549480	-19.554762	-170.607250
40474		15.805614	1.640446	-3.744346	-15.515184	-4.727948	-7.957161	-0.393251	2.057254	-0.813762	-0.586426	-0.125732	-0.561523	0.157724	0.015686	-0.039098	0.089657	-0.152559	-0.084854	-0.980554	8.422957	-18.324645	-170.912277
40475		15.407300	0.788804	-4.605151	-15.603246	-3.935682	-9.304376	-0.524468	1.414012	-0.488277	-0.572998	-0.142822	-0.581299	0.153761	0.007390	-0.047159	0.087451	-0.145683	-0.082021	-0.982039	8.174322	-17.486358	-171.081613
40476		15.909887	-0.048104	-4.983626	-16.358567	-3.218505	-9.816341	-0.451051	0.836931	-0.198658	-0.563721	-0.140625	-0.577637	0.158888	-0.000752	-0.050500	0.086481	-0.141727	-0.079586	-0.982904	7.930210	-17.000131	-171.130629
40477		17.057483	-0.192306	-4.489696	-17.344369	-3.141093	-9.135826	-0.245231	0.368912	0.018398	-0.563477	-0.137451	-0.579834	0.170492	-0.001963	-0.045209	0.086535	-0.140068	-0.078211	-0.983248	7.777984	-16.796835	-171.090881
40478		17.710451	0.415526	-3.671707	-17.630201	-3.694439	-8.127075	-0.051368	0.051694	0.127738	-0.564697	-0.138672	-0.580566	0.177092	0.004259	-0.036764	0.087138	-0.139926	-0.077850	-0.983243	7.725640	-16.781880	-171.012276
40479		17.039180	1.303832	-2.891511	-16.612388	-4.339724	-7.448439	-0.007285	-0.215246	0.155162	-0.566406	-0.140137	-0.576172	0.170413	0.013169	-0.028732	0.087803	-0.141096	-0.077803	-0.983021	7.700056	-16.921633	-170.938958
40480		15.855542	2.309389	-2.139944	-15.086534	-5.018136	-6.892905	-0.114104	-0.487077	0.133513	-0.569580	-0.135498	-0.578857	0.158591	0.023188	-0.021026	0.088180	-0.143631	-0.077364	-0.982654	7.623003	-17.212938	-170.899882
40481		9.763321	6.746791	-0.930673	-8.135884	-8.197963	-6.930247	-0.773111	-0.936101	0.073183	-0.571045	-0.131592	-0.560059	0.097651	0.067468	-0.009111	0.087610	-0.148654	-0.073929	-0.982222	7.189109	-17.756724	-170.930305
40482		0.998713	2.641755	5.615108	1.184137	-1.787682	-3.904491	-1.161386	-1.467212	0.071344	-0.583496	-0.113281	-0.541260	0.009566	0.026747	0.056068	0.086543	-0.156427	-0.068815	-0.981481	6.543532	-18.600769	-170.994623
40483		1.491574	3.959390	14.966980	3.885690	-1.730958	5.147635	-1.203160	-1.372963	-0.153117	-0.583984	-0.108643	-0.533936	0.013920	0.040483	0.149526	0.084364	-0.163685	-0.063629	-0.980837	5.914203	-19.380026	-171.178676
40484		-1.584213	3.049153	15.414632	6.926918	-0.463980	4.372346	-0.903874	-1.388199	-0.524677	-0.586182	-0.099365	-0.518555	-0.016830	0.031231	0.153892	0.080598	-0.170740	-0.060211	-0.980166	5.532472	-20.146026	-171.581964
40485		-3.312031	1.142436	7.978962	5.927134	0.457453	-3.441177	-0.734099	-1.659221	-0.910304	-0.595215	-0.108398	-0.507568	-0.033727	0.011869	0.079468	0.074996	-0.178941	-0.058064	-0.979277	5.341669	-21.049509	-172.234407
40486		-0.458828	-3.862009	4.470153	1.376536	4.478136	-6.185376	-0.326929	-2.354518	-1.209566	-0.608887	-0.103516	-0.476563	-0.005348	-0.038516	0.044705	0.068083	-0.190264	-0.058426	-0.977625	5.479609	-22.331786	-173.114963
40487		6.165482	-5.472263	7.742656	-3.537373	5.852738	-0.805451	0.046740	-2.784708	-1.261737	-0.606201	-0.113281	-0.453125	0.060222	-0.055124	0.078259	0.061129	-0.203523	-0.060803	-0.975267	5.881327	-23.854232	-174.070227
40488		11.970860	-9.617653	10.258100	-8.067363	9.917410	3.512954	0.182715	-2.603280	-0.938312	-0.623291	-0.125244	-0.439453	0.117907	-0.096827	0.104035	0.055934	-0.215895	-0.063440	-0.972747	6.303130	-25.284901	-174.833306
40489		12.507950	-11.989813	10.699620	-8.314298	12.460933	3.981242	0.658810	-2.292756	-0.331200	-0.621338	-0.126221	-0.411865	0.123646	-0.120458	0.108023	0.054294	-0.226797	-0.067641	-0.970072	6.845891	-26.574733	-175.211678
40490		13.247521	-6.527021	12.708733	-7.049570	7.466585	6.744969	0.700980	-1.982459	0.362079	-0.632813	-0.115479	-0.387939	0.131327	-0.065480	0.128164	0.056163	-0.236371	-0.071166	-0.967424	7.213641	-27.731984	-175.137864
40491		16.041794	4.226149	15.865725	-6.253718	-2.739775	12.102961	0.426083	-1.369364	0.603788	-0.621338	-0.109375	-0.385254	0.159198	0.042404	0.159840	0.059089	-0.243142	-0.072894	-0.965441	7.327188	-28.560968	-174.862603
40492		11.984237	9.334847	11.923874	-3.513100	-8.097775	7.363520	-0.145807	-0.908633	0.171673	-0.617188	-0.099854	-0.374756	0.119219	0.093538	0.119713	0.059400	-0.247670	-0.072251	-0.964319	7.226705	-29.094375	-174.827899
40493		7.913366	4.331094	8.414120	-2.249117	-3.454331	1.814251	-0.230913	-0.802421	-0.180130	-0.612793	-0.104492	-0.367676	0.078834	0.043337	0.084408	0.057946	-0.251602	-0.071599	-0.963438	7.184523	-29.544793	-175.012970
40494		7.014145	0.545109	8.755035	-1.787944	0.403672	1.268187	-0.131248	-0.719516	-0.174625	-0.602051	-0.099609	-0.364258	0.069831	0.005448	0.087798	0.056673	-0.255081	-0.071396	-0.962613	7.196022	-29.945815	-175.188130
40495		6.832127	0.399126	8.727015	-1.596322	0.565572	1.147680	-0.097888	-0.535461	-0.067526	-0.594727	-0.096436	-0.359863	0.068089	0.004011	0.087451	0.056023	-0.257723	-0.071164	-0.961965	7.184800	-30.252735	-175.278450
40496		4.555344	2.546300	7.606257	0.178321	-1.569953	-0.724604	-0.149104	-0.488907	-0.007438	-0.588623	-0.093262	-0.366455	0.045368	0.025518	0.076155	0.055612	-0.260152	-0.070595	-0.961376	7.122816	-30.534682	-175.325201
40497		7.308488	3.177521	8.828551	-1.445559	-2.191080	1.787454	-0.219240	-0.449308	-0.009308	-0.587402	-0.091309	-0.363281	0.072888	0.031869	0.088415	0.055114	-0.262432	-0.069679	-0.960852	7.019529	-30.796940	-175.369779
40498		8.853776	1.194042	9.274696	-2.796217	-0.287834	2.754466	-0.193396	-0.113140	0.024689	-0.578857	-0.078369	-0.365723	0.088484	0.012041	0.092785	0.054931	-0.263076	-0.068751	-0.960753	6.905539	-30.867541	-175.363972
40499		4.637770	1.880231	7.761939	0.165049	-0.930922	-0.625849	-0.154468	0.002238	0.075060	-0.573975	-0.079102	-0.373535	0.046371	0.018880	0.077604	0.055080	-0.263198	-0.067911	-0.960771	6.791882	-30.878982	-175.315657
40500		5.305974	1.192317	8.618249	-0.076417	-0.180895	0.376062	-0.153578	0.041273	0.095448	-0.569824	-0.080078	-0.384766	0.053072	0.012015	0.086162	0.055342	-0.263113	-0.067038	-0.960841	6.670260	-30.866452	-175.250526
40501		4.823623	0.807607	8.415406	0.177466	0.182215	-0.082636	-0.128682	0.105212	0.113619	-0.564941	-0.071289	-0.384766	0.048276	0.008158	0.084123	0.055744	-0.262745	-0.066243	-0.960973	6.554254	-30.821671	-175.168725
40502		4.850385	0.321382	8.356684	0.049041	0.633423	-0.165925	-0.116223	0.112213	0.098969	-0.547852	-0.061035	-0.400146	0.048549	0.003286	0.083538	0.056095	-0.262310	-0.065525	-0.961121	6.450229	-30.768762	-175.096013
40503		5.378456	-0.299256	8.445220	-0.454929	1.206493	0.120916	-0.064800	0.106528	0.078433	-0.548584	-0.063232	-0.405029	0.053831	-0.002944	0.084424	0.056413	-0.261906	-0.065083	-0.961242	6.382917	-30.720742	-175.037679
40504		5.905339	-0.522493	8.290390	-1.024274	1.355422	0.236705	-0.002742	0.114518	0.050698	-0.549561	-0.066406	-0.413574	0.059102	-0.005209	0.082870	0.056682	-0.261412	-0.064973	-0.961368	6.360364	-30.663310	-174.996979
40505		6.088071	-0.122766	7.647007	-1.452410	0.845923	-0.182978	0.037652	0.118237	0.026705	-0.553711	-0.060791	-0.422119	0.060926	-0.001234	0.076434	0.056889	-0.260907	-0.065087	-0.961486	6.368816	-30.605343	-174.972085
40506		5.810756	-0.029627	8.060024	-1.008530	0.842977	0.036271	0.104818	0.116044	-0.026804	-0.551758	-0.062012	-0.423584	0.058154	-0.000346	0.080566	0.056926	-0.260349	-0.065595	-0.961600	6.433983	-30.542109	-174.982541
40507		5.240290	-0.006721	8.078202	-0.517684	0.877274	-0.237699	0.148019	0.098265	-0.063666	-0.552246	-0.066162	-0.431641	0.052443	-0.000144	0.080756	0.056836	-0.259879	-0.066362	-0.961680	6.536675	-30.489791	-175.018717
40508		4.813116	0.495045	8.377996	0.058232	0.476947	-0.149816	0.162909	0.091638	-0.066828	-0.554199	-0.066406	-0.440674	0.048171	0.004866	0.083762	0.056748	-0.259409	-0.067208	-0.961754	6.649322	-30.437786	-175.057207
40509		4.767546	1.495470	8.686026	0.385085	-0.443759	0.190700	0.090078	0.061892	-0.025121	-0.551758	-0.069336	-0.448242	0.047704	0.014910	0.086852	0.056756	-0.259143	-0.067657	-0.961793	6.707135	-30.408656	-175.070481
40510		5.220441	2.624746	8.296785	-0.036329	-1.647563	0.200462	0.009006	0.038575	0.032758	-0.559814	-0.066895	-0.446533	0.052216	0.026252	0.082959	0.056930	-0.259005	-0.067649	-0.961821	6.700328	-30.393442	-175.047242
40511		5.233068	2.484528	7.925710	-0.251100	-1.575285	-0.126090	-0.059926	0.059342	0.086882	-0.553711	-0.060059	-0.452637	0.052343	0.024892	0.079234	0.057281	-0.258832	-0.067232	-0.961876	6.634988	-30.373223	-174.986864
40512		4.746927	2.252844	8.062242	0.197346	-1.302212	-0.279921	-0.115915	0.080729	0.137786	-0.560791	-0.062500	-0.456299	0.047486	0.022608	0.080590	0.057812	-0.258562	-0.066475	-0.961969	6.520014	-30.340866	-174.891190
40513		4.699078	2.019529	8.144502	0.242216	-1.075563	-0.258777	-0.158873	0.093593	0.185422	-0.571533	-0.056396	-0.457031	0.047010	0.020304	0.081407	0.058520	-0.258285	-0.065446	-0.962071	6.364094	-30.307296	-174.763455
40514		4.526615	1.833559	8.368640	0.470005	-0.869192	-0.173711	-0.202325	0.096147	0.221029	-0.568848	-0.058838	-0.457275	0.045286	0.018470	0.083646	0.059345	-0.257993	-0.064161	-0.962186	6.171589	-30.270919	-174.612029
40515		4.474803	0.813030	8.503236	0.427675	0.129496	-0.179924	-0.262612	0.100202	0.251884	-0.572754	-0.051025	-0.447510	0.044780	0.008298	0.084999	0.060241	-0.257735	-0.062545	-0.962305	5.934292	-30.236846	-174.440403
40516		4.538440	0.487657	8.545146	0.342118	0.416216	-0.139819	-0.254884	0.099336	0.273663	-0.582031	-0.050049	-0.451416	0.045420	0.005048	0.085423	0.061252	-0.257458	-0.060938	-0.962419	5.694475	-30.200672	-174.254489
40517		5.158159	0.665802	8.480258	-0.197446	0.142573	0.132425	-0.245688	0.078802	0.258858	-0.579102	-0.046387	-0.452393	0.051606	0.006829	0.084774	0.062196	-0.257299	-0.059400	-0.962497	5.465620	-30.177952	-174.080092
40518		4.959822	0.564833	8.038650	-0.258615	0.163256	-0.355142	-0.211906	0.070630	0.228590	-0.576416	-0.047607	-0.446289	0.049620	0.005790	0.080363	0.063036	-0.257131	-0.058067	-0.962569	5.266631	-30.154484	-173.926129
40519		5.341943	0.723849	7.839841	-0.660064	-0.083130	-0.321599	-0.165013	0.051666	0.188591	-0.585938	-0.037842	-0.451416	0.053433	0.007354	0.078379	0.063737	-0.257055	-0.057016	-0.962605	5.108320	-30.142599	-173.799990
40520		5.085349	0.828331	8.113030	-0.289944	-0.143771	-0.207304	-0.116280	0.034768	0.163127	-0.587402	-0.049316	-0.443848	0.050861	0.008372	0.081117	0.064375	-0.257010	-0.056237	-0.962621	4.987024	-30.135559	-173.691515
40521		5.539418	0.719633	8.378366	-0.565288	-0.060903	0.241006	-0.123896	0.019330	0.165651	-0.588379	-0.040039	-0.445068	0.055396	0.007294	0.083774	0.065009	-0.257070	-0.055424	-0.962609	4.860853	-30.140543	-173.582447
40522		4.930977	1.022231	8.537626	0.083835	-0.298470	0.094603	-0.140517	0.035113	0.193362	-0.596191	-0.030029	-0.437256	0.049315	0.010330	0.085360	0.065761	-0.257039	-0.054490	-0.962620	4.715661	-30.134327	-173.454032
40523		5.154259	0.638916	8.164094	-0.346918	-0.016526	-0.142819	-0.154288	0.026756	0.190869	-0.585449	-0.040283	-0.432373	0.051547	0.006501	0.081629	0.066479	-0.257080	-0.053495	-0.962615	4.563514	-30.135797	-173.327907
40524		5.259319	0.630164	8.085490	-0.474447	-0.050707	-0.158414	-0.135342	0.020924	0.185272	-0.581299	-0.023926	-0.432617	0.052596	0.006405	0.080845	0.067195	-0.257113	-0.052601	-0.962606	4.424362	-30.136753	-173.205611
40525		5.379034	0.479971	8.105224	-0.587326	0.067918	-0.091091	-0.129164	0.003758	0.168752	-0.587158	-0.024658	-0.421143	0.053788	0.004897	0.081048	0.067833	-0.257249	-0.051764	-0.962570	4.294497	-30.149901	-173.095248
40526		5.135299	0.519596	8.273753	-0.284871	0.057473	-0.065289	-0.136748	-0.012088	0.174940	-0.591064	-0.022461	-0.416748	0.051343	0.005297	0.082737	0.068488	-0.257438	-0.050887	-0.962520	4.158720	-30.168790	-172.981361
40527		5.063938	0.348120	8.131464	-0.313695	0.194974	-0.234122	-0.150384	-0.021208	0.179861	-0.589355	-0.030273	-0.415039	0.050628	0.003588	0.081317	0.069145	-0.257705	-0.049941	-0.962452	4.013458	-30.196241	-172.864724
40528		4.644246	0.127527	8.410315	0.153827	0.474568	-0.217388	-0.143118	-0.022101	0.158469	-0.584717	-0.022949	-0.406250	0.046432	0.001372	0.084107	0.069710	-0.257939	-0.049058	-0.962394	3.879578	-30.219723	-172.762025
40529		4.364564	0.549244	8.571398	0.546801	0.094347	-0.194370	-0.099952	-0.037472	0.136841	-0.581787	-0.012695	-0.409912	0.043626	0.005565	0.085719	0.070221	-0.258255	-0.048416	-0.962304	3.777677	-30.254384	-172.674364
40530		4.930351	0.199114	8.374979	-0.082219	0.338772	-0.098433	-0.093299	-0.063897	0.114410	-0.591553	-0.018066	-0.411377	0.049276	0.002058	0.083765	0.070628	-0.258662	-0.047844	-0.962194	3.687764	-30.299787	-172.602467
40531		4.932583	0.213078	8.459156	-0.030418	0.324914	-0.023582	-0.071517	-0.075856	0.096931	-0.578369	-0.016113	-0.401367	0.049293	0.002185	0.084609	0.070975	-0.259143	-0.047403	-0.962060	3.616083	-30.354698	-172.542658
40532		5.542207	0.361205	7.976980	-0.754416	0.039915	-0.122074	-0.067051	-0.096445	0.095051	-0.575195	-0.004883	-0.395020	0.055382	0.003665	0.079795	0.071315	-0.259692	-0.046994	-0.961907	3.548154	-30.417857	-172.484727
40533		5.421497	0.560919	8.217409	-0.487541	-0.120477	0.035198	-0.054255	-0.105735	0.084736	-0.576660	-0.011230	-0.400879	0.054169	0.005654	0.082201	0.071618	-0.260308	-0.046663	-0.961734	3.490831	-30.489339	-172.433999
40534		5.428484	0.546740	8.110897	-0.534845	-0.126546	-0.052978	-0.029565	-0.127378	0.080093	-0.569580	-0.010986	-0.396484	0.054231	0.005501	0.081143	0.071927	-0.260989	-0.046465	-0.961537	3.449818	-30.569573	-172.387016
40535		4.822127	0.983702	8.445983	0.235283	-0.448803	-0.050597	-0.012412	-0.141260	0.081835	-0.570313	-0.005371	-0.394287	0.048158	0.009862	0.084493	0.072263	-0.261759	-0.046351	-0.961307	3.417942	-30.661251	-172.339428
40536		4.835731	0.828422	8.394686	0.189588	-0.306503	-0.096133	-0.017968	-0.161807	0.085032	-0.568604	0.010986	-0.391113	0.048286	0.008312	0.083985	0.072603	-0.262602	-0.046214	-0.961058	3.382358	-30.761296	-172.290318
40537		5.025355	0.552778	8.302178	-0.044058	-0.071718	-0.092667	-0.019798	-0.177155	0.102454	-0.565674	0.004883	-0.400879	0.050177	0.005562	0.083066	0.073019	-0.263552	-0.046051	-0.960775	3.339695	-30.874143	-172.230179
40538		5.042653	0.474007	8.321236	-0.042462	0.002628	-0.071325	-0.019728	-0.186813	0.105970	-0.563721	0.010498	-0.392090	0.050346	0.004775	0.083259	0.073452	-0.264520	-0.045888	-0.960483	3.296116	-30.989124	-172.167794
40539		4.964143	0.189780	8.302756	-0.011307	0.287796	-0.141519	0.015831	-0.195696	0.087241	-0.561279	0.014648	-0.389648	0.049559	0.001913	0.083076	0.073838	-0.265542	-0.045922	-0.960170	3.279095	-31.112022	-172.118207
40540		4.949593	0.064198	8.443615	0.072580	0.433109	-0.034941	0.037735	-0.229278	0.070156	-0.558594	0.021240	-0.404541	0.049399	0.000643	0.084493	0.074164	-0.266684	-0.046097	-0.959820	3.281318	-31.250085	-172.081142
40541		4.987236	-0.279701	8.541178	0.057578	0.786530	0.050399	0.087539	-0.268108	0.044075	-0.565918	0.012695	-0.410156	0.049758	-0.002823	0.085477	0.074422	-0.268016	-0.046560	-0.959407	3.321565	-31.412991	-172.063124
40542		4.656236	-0.089653	8.757327	0.507323	0.679657	0.069617	0.134018	-0.330088	0.004642	-0.566162	0.019531	-0.407715	0.046418	-0.000954	0.087649	0.074539	-0.269589	-0.047322	-0.958919	3.403875	-31.606559	-172.074090
40543		5.091382	0.126878	8.469114	0.064805	0.397979	0.061593	0.187592	-0.409131	-0.021407	-0.565430	0.029297	-0.401367	0.050741	0.001184	0.084796	0.074584	-0.271543	-0.048404	-0.958310	3.527702	-31.847875	-172.106270
40544		4.645255	0.486724	8.711182	0.666510	0.154176	0.047929	0.219918	-0.481839	-0.029603	-0.565918	0.023682	-0.402588	0.046243	0.004765	0.087229	0.074616	-0.273801	-0.049681	-0.957600	3.675482	-32.126945	-172.147770
40545		5.427393	0.540906	8.251223	-0.166463	-0.021127	0.076869	0.274145	-0.619458	-0.010656	-0.578857	0.017578	-0.402344	0.054018	0.005293	0.082687	0.074777	-0.276728	-0.051240	-0.956663	3.851167	-32.488748	-172.183687
40546		5.262520	1.683749	8.686560	0.461446	-1.026718	0.420481	0.350196	-0.774815	0.006996	-0.581299	0.021973	-0.409180	0.052287	0.016687	0.087098	0.075088	-0.280341	-0.053198	-0.955479	4.069348	-32.936503	-172.216513
40547		4.508065	-0.517668	8.569515	0.729657	1.252607	-0.224940	0.343839	-1.014363	-0.068980	-0.594482	0.027832	-0.407471	0.044643	-0.005340	0.085913	0.074961	-0.285103	-0.055319	-0.953959	4.320145	-33.521284	-172.315675
40548		4.979510	0.686298	8.780458	0.768688	0.104458	0.274911	0.444128	-1.263966	-0.068999	-0.597656	0.026367	-0.400635	0.049241	0.006650	0.088132	0.074905	-0.290979	-0.058011	-0.952027	4.639533	-34.244775	-172.432491
40549		4.291750	-0.007193	8.798624	1.349112	0.930151	-0.161384	0.488234	-1.517533	-0.071344	-0.608643	0.017090	-0.388672	0.042248	-0.000302	0.088308	0.074825	-0.298056	-0.061007	-0.949654	4.998150	-35.115730	-172.572109
40550		4.724192	0.182392	8.720805	1.141949	0.762518	0.011529	0.567428	-1.828166	-0.082109	-0.611328	0.027832	-0.388184	0.046443	0.001556	0.087640	0.074711	-0.306524	-0.064507	-0.946731	5.425629	-36.159167	-172.748132
40551		4.506103	0.681708	8.742693	1.604667	0.385496	-0.092774	0.580329	-2.172330	-0.082214	-0.629150	0.016602	-0.368164	0.044111	0.006544	0.087929	0.074498	-0.316610	-0.068189	-0.943164	5.885097	-37.400999	-172.961129
40552		4.268741	0.457772	8.965916	2.099459	0.758858	-0.126090	0.558379	-2.542952	-0.063405	-0.645508	0.008301	-0.351074	0.041544	0.004313	0.090205	0.074201	-0.328383	-0.071867	-0.938879	6.355999	-38.850388	-173.205954
40553		4.259661	0.770303	9.220464	2.576491	0.597803	0.023550	0.577190	-2.947545	-0.003285	-0.663330	-0.001221	-0.335449	0.041232	0.007435	0.092841	0.074057	-0.342031	-0.075668	-0.933705	6.849827	-40.535522	-173.462201
40554		3.906595	1.231377	9.258777	3.252625	0.285038	-0.229799	0.538242	-3.407011	0.096070	-0.675293	0.009277	-0.314941	0.037475	0.012082	0.093268	0.074117	-0.357759	-0.079270	-0.927486	7.323926	-42.484018	-173.712467
40555		4.030775	1.140908	9.212566	3.456140	0.450889	-0.312238	0.461087	-3.937348	0.227406	-0.692871	0.008789	-0.287842	0.038471	0.011240	0.092921	0.074413	-0.375927	-0.082445	-0.919970	7.747542	-44.745069	-173.944298
40556		4.504180	1.589289	8.880681	3.381763	0.002489	-0.313953	0.391800	-4.543412	0.363179	-0.708008	0.005615	-0.247803	0.042980	0.015797	0.089830	0.074918	-0.396767	-0.085237	-0.910878	8.132447	-47.356568	-174.167294
40557		5.395359	2.922333	8.704786	3.401457	-1.300400	0.194155	0.326606	-5.229401	0.463088	-0.713867	0.008057	-0.208252	0.051585	0.029201	0.088465	0.075412	-0.420577	-0.087736	-0.899850	8.516602	-50.366901	-174.429430
40558		5.428418	4.820416	9.378462	4.845263	-2.908052	0.612710	0.120819	-5.925416	0.593763	-0.737061	0.009521	-0.161621	0.051331	0.048302	0.095364	0.075695	-0.447297	-0.089230	-0.886698	8.812157	-53.778937	-174.716474
40559		5.831293	4.399538	10.823053	6.320126	-2.119379	1.412451	-0.210514	-6.635627	0.690255	-0.740967	0.012939	-0.107422	0.054529	0.044303	0.110035	0.075272	-0.476903	-0.089217	-0.871171	8.982392	-57.603273	-175.068892
40560		6.435030	1.058673	10.721948	5.961660	1.144369	1.167735	-0.266977	-7.264177	0.691960	-0.759033	0.023926	-0.051758	0.060364	0.010945	0.109446	0.074350	-0.508663	-0.089083	-0.853111	9.292787	-61.780021	-175.605573
40561		6.899194	0.687661	10.163733	6.009265	1.435513	0.823163	-0.223301	-7.928181	0.692236	-0.760498	0.029541	0.025635	0.064868	0.007221	0.104256	0.073135	-0.542509	-0.089250	-0.832088	9.922496	-66.331643	-176.447876
40562		11.443370	-0.271913	10.681765	5.468385	2.499916	4.638183	0.062537	-8.404338	0.659819	-0.759766	0.039307	0.098389	0.109821	-0.002386	0.111497	0.072226	-0.577286	-0.090718	-0.808266	11.284793	-71.139127	-177.870190
40563		19.415704	-0.090132	12.366630	5.996382	2.847042	12.222391	0.457732	-8.296435	0.746551	-0.752197	0.039551	0.163330	0.188810	-0.000485	0.131573	0.072729	-0.610519	-0.093333	-0.783113	13.602996	-75.879951	179.987378
40564		20.458683	-1.645626	10.311725	5.230261	4.152549	12.158217	0.731581	-8.025819	1.005910	-0.740967	0.049072	0.236084	0.200314	-0.015838	0.111156	0.075085	-0.641666	-0.095973	-0.757242	17.215707	-80.472388	176.727279
40565		19.993504	-0.416088	12.939581	9.772046	3.901432	11.550059	1.402835	-7.519167	0.873956	-0.723145	0.057373	0.292480	0.194903	-0.004244	0.136758	0.079223	-0.669583	-0.101233	-0.731529	26.900134	-84.671252	167.777853
40566		17.960201	3.946117	14.166990	13.702301	0.303228	8.915658	1.357122	-7.251263	1.051902	-0.700439	0.070801	0.342041	0.174097	0.039395	0.148317	0.083878	-0.695658	-0.105482	-0.705619	72.942217	-88.072222	122.449716
40567		15.085649	5.539988	14.478799	15.697745	-0.960865	5.031750	0.984891	-7.046222	1.336172	-0.682129	0.088623	0.397705	0.145255	0.055652	0.150246	0.088238	-0.720377	-0.107198	-0.679544	163.040890	-86.351455	32.853981
40568		13.842174	6.512244	14.391872	16.765943	-1.800183	2.703106	0.610397	-6.412503	1.418925	-0.654297	0.099121	0.443115	0.133246	0.065632	0.148447	0.091763	-0.742287	-0.106938	-0.655099	178.219102	-82.824405	17.966738
40569		14.792985	5.912046	19.121871	21.959152	0.182264	1.893457	0.229866	-5.348082	1.483430	-0.632568	0.106689	0.484619	0.142303	0.059967	0.195143	0.094571	-0.760224	-0.104605	-0.634172	-176.421840	-79.740244	12.680170
40570		8.542557	6.998080	12.993846	15.820742	-2.821547	-4.112402	-0.038773	-3.735556	1.419851	-0.604004	0.110840	0.508545	0.082479	0.070599	0.131484	0.096944	-0.772702	-0.100837	-0.619165	-173.365096	-77.530613	9.540034
40571		9.203845	3.163772	14.672261	16.688458	1.250462	-4.345225	-0.631808	-3.355111	1.236847	-0.588623	0.122314	0.529297	0.089361	0.032662	0.148135	0.096616	-0.783902	-0.095722	-0.605805	-171.832743	-75.530491	7.592249
40572		31.352356	2.672827	28.495139	35.143367	6.106915	13.202909	0.152246	-1.102611	0.249347	-0.585938	0.120605	0.540039	0.311913	0.026900	0.286694	0.097430	-0.787299	-0.095744	-0.601249	-171.560827	-74.880215	7.401019
40573		12.794508	5.295575	19.432352	22.714228	0.597685	-2.528680	0.494472	1.286948	-0.249635	-0.588867	0.122559	0.525146	0.129258	0.052316	0.193624	0.099231	-0.783052	-0.097594	-0.606184	-171.405720	-75.630415	7.533600
40574		1.532329	7.521744	13.813376	15.305240	-3.386151	-11.814239	0.105210	2.358891	-0.568537	-0.607910	0.121826	0.509033	0.017165	0.075098	0.137978	0.099055	-0.775539	-0.098969	-0.615574	-171.867491	-77.010467	8.070642
40575		-1.353714	4.371881	9.685083	10.010801	-1.591309	-13.275337	-0.405327	2.857488	-0.811780	-0.626465	0.114990	0.485596	-0.011974	0.043966	0.096940	0.096378	-0.766450	-0.099455	-0.627196	-173.267050	-78.695372	9.264556
40576		-1.219384	2.268568	7.577062	7.564606	-0.176136	-12.417594	-0.600711	2.941145	-1.000419	-0.638672	0.101807	0.467529	-0.010964	0.022970	0.075869	0.092381	-0.756949	-0.099982	-0.639139	-175.846771	-80.423056	11.537226
40577		-1.219917	0.421635	6.835539	6.442802	1.363860	-12.052473	-0.614755	3.024256	-1.219738	-0.658203	0.089600	0.445313	-0.011137	0.004497	0.068516	0.087645	-0.746843	-0.101236	-0.651379	179.590374	-82.180610	15.796232
40578		-0.029184	-1.261308	6.974761	6.343114	3.038415	-10.689230	-0.421741	3.226945	-1.413263	-0.674072	0.085938	0.413086	0.000745	-0.012469	0.069768	0.083078	-0.735713	-0.103716	-0.664130	171.517332	-83.960678	23.683894
40579		1.539752	-1.823418	7.553176	6.903050	3.792422	-8.972162	-0.157733	3.581769	-1.565092	-0.680176	0.068604	0.392334	0.016604	-0.018302	0.075256	0.079132	-0.722918	-0.107453	-0.677924	155.398252	-85.691106	39.775404
40580		2.282685	-1.566124	7.834170	7.223294	3.671371	-7.975574	0.008416	3.992674	-1.640063	-0.696777	0.048828	0.363770	0.024255	-0.015860	0.077866	0.075720	-0.708360	-0.111811	-0.692813	120.928231	-86.815459	74.317928
40581		2.320149	-1.065319	7.693203	7.120614	3.181463	-7.606106	0.011575	4.381464	-1.601419	-0.703857	0.044434	0.322510	0.024793	-0.010852	0.076400	0.072633	-0.692073	-0.115842	-0.708760	76.545985	-86.246162	118.779671
40582		2.210879	-0.812676	7.247882	6.644446	2.835598	-7.387581	-0.113775	4.668617	-1.474868	-0.728027	0.030518	0.288574	0.023732	-0.008257	0.071942	0.069685	-0.674538	-0.118817	-0.725276	51.748319	-84.274795	143.590605
40583		2.265722	-0.998363	6.792193	6.022169	2.903318	-7.063320	-0.295429	4.852122	-1.289952	-0.730713	0.016113	0.257568	0.024231	-0.010037	0.067362	0.066862	-0.656044	-0.120374	-0.742055	39.515850	-81.784857	155.739736
40584		2.735687	-1.552605	6.518972	5.402199	3.383255	-6.384541	-0.430274	4.958933	-1.078400	-0.737061	0.006104	0.209229	0.028878	-0.015540	0.064520	0.064403	-0.636959	-0.120624	-0.758673	32.344710	-79.120073	162.759212
40585		3.650481	-2.176982	6.681111	5.033625	4.056495	-5.241141	-0.478075	5.045972	-0.882360	-0.752441	-0.011230	0.159912	0.038079	-0.021777	0.065916	0.062546	-0.617203	-0.119959	-0.775086	27.451549	-76.355163	167.484294
40586		5.150677	-2.664140	6.989313	4.580810	4.647121	-3.497399	-0.420415	5.162474	-0.688946	-0.749756	-0.019531	0.125244	0.053197	-0.026678	0.068590	0.061643	-0.596738	-0.118806	-0.791195	23.788755	-73.520015	171.026525
40587		7.092534	-2.764455	7.482079	4.074681	4.902508	-1.253115	-0.273017	5.335131	-0.491162	-0.755615	-0.031250	0.086182	0.072820	-0.027721	0.072933	0.062025	-0.575180	-0.117505	-0.807164	20.849709	-70.579793	173.949868
40588		9.042472	-2.466430	8.074541	3.502794	4.754661	1.056265	-0.073097	5.565625	-0.278373	-0.759033	-0.036621	0.030273	0.092590	-0.024763	0.078198	0.063927	-0.552390	-0.116243	-0.822962	18.406644	-67.526080	176.519770
40589		10.558297	-1.778851	8.643334	2.908876	4.156249	2.976396	0.106020	5.813944	-0.061493	-0.746582	-0.044678	-0.017822	0.108030	-0.017866	0.083307	0.067312	-0.528130	-0.114940	-0.838651	16.315422	-64.330568	178.875018
40590		11.851871	-1.401038	9.110267	2.034245	3.765862	4.576153	0.248583	6.022404	0.123923	-0.739014	-0.037842	-0.066650	0.121198	-0.014046	0.087462	0.071907	-0.502663	-0.113581	-0.853967	14.550677	-61.027079	-178.979477
40591		13.584843	-1.121703	9.501833	0.652076	3.378050	6.440474	0.411705	6.213321	0.250059	-0.719971	-0.045410	-0.120117	0.138726	-0.011234	0.090715	0.077497	-0.475847	-0.112417	-0.868865	13.116168	-57.598924	-177.038766
40592		15.339577	-0.687032	9.679628	-1.104377	2.701110	8.099352	0.585734	6.396503	0.324050	-0.696045	-0.052002	-0.169922	0.156397	-0.006892	0.091806	0.083842	-0.447808	-0.111658	-0.883160	12.012038	-54.066193	-175.299681
40593		16.942759	0.284994	9.626040	-3.017506	1.368226	9.388535	0.727447	6.535093	0.353212	-0.672607	-0.045898	-0.207275	0.172446	0.002816	0.090668	0.090627	-0.418564	-0.111274	-0.896777	11.198804	-50.433508	-173.745636
40594		18.568126	2.001022	9.356385	-5.043319	-0.816885	10.437383	0.774701	6.611884	0.345860	-0.658691	-0.045166	-0.250244	0.188605	0.019988	0.087438	0.097416	-0.388568	-0.110970	-0.909511	10.610549	-46.755301	-172.370354
40595		19.552304	4.160826	9.221668	-6.489973	-3.401157	10.942958	0.623047	6.537305	0.285151	-0.637695	-0.051758	-0.277588	0.198340	0.041616	0.085893	0.103490	-0.358449	-0.109999	-0.921251	10.133954	-43.095096	-171.191403
40596		20.411103	5.801518	9.303358	-7.846290	-5.457787	11.289570	0.299147	6.384734	0.164550	-0.630371	-0.052490	-0.305420	0.206895	0.058052	0.086544	0.108232	-0.328834	-0.107727	-0.931960	9.671863	-39.512006	-170.232349
40597		21.347206	6.894196	9.127267	-9.577768	-7.106539	11.261623	-0.097165	6.249955	-0.021356	-0.613281	-0.065430	-0.335693	0.216191	0.068961	0.084511	0.111277	-0.299560	-0.103872	-0.941856	9.171632	-35.972825	-169.507169
