// General information: 
//  MT Manager version: 2019.2.0 
//  XDA version: 2019.2.0 build 3853 rev 94535 built on 2019-09-09
// Device information: 
//  DeviceId: 00B47796
//  ProductCode: MTW2-3A7G6
//  Firmware Version: 4.6.0
//  Hardware Version: 2.0.0
// Device settings: 
//  Filter Profile: human(46.1)
//  Option Flags: Orientation Smoother Disabled, AHS Disabled, ICC Disabled
// Coordinate system: ENU
PacketCounter	SampleTimeFine	Acc_X	Acc_Y	Acc_Z	FreeAcc_E	FreeAcc_N	FreeAcc_U	Gyr_X	Gyr_Y	Gyr_Z	Mag_X	Mag_Y	Mag_Z	VelInc_X	VelInc_Y	VelInc_Z	Quat_q0	Quat_q1	Quat_q2	Quat_q3	Roll	Pitch	Yaw
28917		5.853530	0.284596	7.740951	0.018724	-0.033855	-0.103638	0.003670	0.004123	0.001570	-0.878174	-0.019531	-0.522705	0.058537	0.002845	0.077408	0.003446	-0.318876	-0.014769	-0.947675	1.855621	-37.191631	179.792313
28918		5.863246	0.228797	7.722336	-0.000768	0.021363	-0.114027	0.003302	0.002751	0.004699	-0.868164	-0.026611	-0.525879	0.058633	0.002288	0.077223	0.003451	-0.318898	-0.014764	-0.947668	1.854705	-37.194343	179.793132
28919		5.878276	0.275196	7.719583	-0.013119	-0.025078	-0.105936	0.004632	0.000940	0.003284	-0.877686	-0.019775	-0.523926	0.058783	0.002751	0.077196	0.003454	-0.318929	-0.014769	-0.947657	1.855246	-37.198061	179.793310
28920		5.870670	0.252075	7.721026	-0.005903	-0.001982	-0.109981	0.001379	-0.000098	0.003166	-0.885498	-0.021729	-0.521484	0.058707	0.002521	0.077210	0.003444	-0.318963	-0.014756	-0.947646	1.854104	-37.202222	179.792376
28921		5.853495	0.207767	7.748114	0.024160	0.042846	-0.099942	-0.000128	0.000136	0.003084	-0.875732	-0.025879	-0.525146	0.058535	0.002079	0.077481	0.003439	-0.318998	-0.014739	-0.947635	1.852016	-37.206397	179.792392
28922		5.865192	0.226638	7.698153	-0.014238	0.022450	-0.132156	0.004215	-0.002144	0.001833	-0.878906	-0.018066	-0.519287	0.058651	0.002265	0.076982	0.003425	-0.319043	-0.014742	-0.947619	1.853119	-37.211857	179.790260
28923		5.842184	0.234277	7.695482	0.003442	0.014805	-0.147999	0.004456	-0.000636	0.001787	-0.878662	-0.021484	-0.518311	0.058422	0.002342	0.076955	0.003421	-0.319081	-0.014748	-0.947606	1.854233	-37.216450	179.789325
28924		5.847692	0.259949	7.718323	0.013918	-0.009890	-0.125825	0.005064	0.002243	-0.001387	-0.872803	-0.018555	-0.512451	0.058478	0.002597	0.077183	0.003397	-0.319106	-0.014760	-0.947598	1.857031	-37.219408	179.785483
28925		5.894052	0.245507	7.723380	-0.019306	0.005124	-0.094132	0.005241	-0.005395	0.002005	-0.874756	-0.024658	-0.527100	0.058938	0.002454	0.077235	0.003395	-0.319167	-0.014770	-0.947577	1.858567	-37.226730	179.784593
28926		5.865523	0.227713	7.697869	-0.011392	0.022088	-0.132151	0.001619	0.001410	0.003120	-0.881836	-0.022949	-0.525146	0.058656	0.002277	0.076978	0.003386	-0.319195	-0.014759	-0.947568	1.857503	-37.230143	179.783814
28927		5.857627	0.281590	7.692380	-0.006796	-0.031903	-0.139904	0.007165	-0.002546	0.003538	-0.886475	-0.026855	-0.517578	0.058575	0.002814	0.076925	0.003395	-0.319242	-0.014775	-0.947552	1.859434	-37.235862	179.784093
28928		5.863682	0.230346	7.721959	0.006338	0.020490	-0.114027	0.003077	-0.000538	-0.001378	-0.881348	-0.012939	-0.522461	0.058637	0.002302	0.077220	0.003363	-0.319281	-0.014778	-0.947539	1.861289	-37.240425	179.779497
28929		5.852164	0.256935	7.669472	-0.015127	-0.007462	-0.162073	0.004760	0.000803	0.000200	-0.884766	-0.013672	-0.520752	0.058522	0.002568	0.076695	0.003352	-0.319312	-0.014788	-0.947528	1.863249	-37.244164	179.777453
28930		5.871194	0.254200	7.720558	0.001228	-0.002895	-0.109979	0.004760	0.000803	0.000200	-0.882813	-0.024902	-0.520996	0.058712	0.002540	0.077205	0.003342	-0.319343	-0.014797	-0.947518	1.865001	-37.247956	179.775577
28931		5.851994	0.257755	7.669574	-0.013706	-0.007673	-0.162071	0.006571	0.002008	-0.001306	-0.875977	-0.015137	-0.528320	0.058521	0.002575	0.076695	0.003327	-0.319368	-0.014818	-0.947509	1.868637	-37.250977	179.772477
28932		5.903489	0.269079	7.697748	-0.037166	-0.017253	-0.108192	0.010433	0.005925	-0.004362	-0.881592	-0.019775	-0.526611	0.059037	0.002685	0.076976	0.003298	-0.319374	-0.014861	-0.947506	1.875770	-37.251620	179.766639
28933		5.893334	0.248941	7.723817	-0.013610	0.004387	-0.094122	0.006090	0.008206	-0.003112	-0.877686	-0.015625	-0.525635	0.058937	0.002486	0.077236	0.003274	-0.319370	-0.014883	-0.947508	1.879829	-37.251057	179.762385
28934		5.864106	0.231980	7.698821	-0.005724	0.021334	-0.132144	0.012004	0.005621	-0.005822	-0.872559	-0.019531	-0.524170	0.058643	0.002313	0.076987	0.003244	-0.319377	-0.014935	-0.947504	1.888427	-37.251815	179.755826
28935		5.853346	0.288780	7.718148	0.015151	-0.034098	-0.121791	0.005481	0.014541	-0.001835	-0.876221	-0.020752	-0.527344	0.058539	0.002885	0.077177	0.003226	-0.319343	-0.014952	-0.947516	1.891490	-37.247648	179.752641
28936		5.893024	0.249293	7.701283	-0.027831	0.005543	-0.112232	0.006635	0.011153	-0.004745	-0.875488	-0.025879	-0.520020	0.058935	0.002489	0.077010	0.003191	-0.319323	-0.014977	-0.947522	1.896538	-37.245190	179.746739
28937		5.858983	0.313156	7.718133	0.009989	-0.057453	-0.117744	0.005112	0.013171	0.001295	-0.884766	-0.022705	-0.525635	0.058595	0.003130	0.077178	0.003186	-0.319296	-0.014987	-0.947531	1.898045	-37.241866	179.745774
28938		5.873622	0.282838	7.722849	0.000294	-0.026798	-0.105931	0.004567	0.010224	0.002928	-0.881836	-0.023926	-0.526367	0.058740	0.002827	0.077226	0.003179	-0.319283	-0.014990	-0.947536	1.898702	-37.240246	179.744735
28939		5.844203	0.264863	7.698030	0.008187	-0.009842	-0.143956	-0.000258	0.009490	0.004269	-0.879639	-0.026367	-0.517578	0.058446	0.002650	0.076978	0.003180	-0.319273	-0.014970	-0.947539	1.895891	-37.239087	179.745821
28940		5.849101	0.289928	7.721323	0.018657	-0.034528	-0.121799	0.000944	0.007816	0.005939	-0.876221	-0.017090	-0.522949	0.058494	0.002901	0.077211	0.003181	-0.319272	-0.014951	-0.947540	1.893221	-37.238934	179.746765
28941		5.877420	0.230664	7.754200	0.014896	0.025397	-0.080060	0.001361	0.010901	0.007389	-0.879883	-0.016602	-0.526611	0.058778	0.002308	0.077539	0.003199	-0.319255	-0.014933	-0.947546	1.889959	-37.237026	179.750129
28942		5.857614	0.233477	7.703716	-0.000094	0.020618	-0.132141	0.001249	0.009255	0.004351	-0.877197	-0.027588	-0.517090	0.058580	0.002336	0.077034	0.003201	-0.319246	-0.014919	-0.947549	1.887883	-37.235910	179.751109
28943		5.851343	0.207775	7.681487	-0.009148	0.045140	-0.154297	-0.001893	0.009863	0.007270	-0.878906	-0.015869	-0.519775	0.058517	0.002081	0.076812	0.003214	-0.319235	-0.014886	-0.947553	1.882824	-37.234594	179.754363
28944		5.863653	0.256078	7.703472	-0.005219	-0.002727	-0.128089	0.003367	0.011898	0.001259	-0.877197	-0.033203	-0.510742	0.058641	0.002560	0.077031	0.003199	-0.319214	-0.014886	-0.947560	1.883418	-37.232056	179.752445
28945		5.862671	0.256123	7.704218	-0.004511	-0.002820	-0.128088	0.001971	0.013779	0.004215	-0.880371	-0.021240	-0.504639	0.058632	0.002562	0.077038	0.003204	-0.319184	-0.014876	-0.947571	1.881847	-37.228440	179.753593
28946		5.868838	0.356295	7.696660	-0.013039	-0.103116	-0.127752	0.005355	0.014679	0.001252	-0.888916	-0.024414	-0.509033	0.058694	0.003561	0.076962	0.003186	-0.319152	-0.014884	-0.947581	1.883703	-37.224566	179.750880
28947		6.729444	0.226522	7.240348	-0.976045	0.016405	0.026339	0.010324	-0.004937	-0.005494	-0.898193	-0.029785	-0.500488	0.067293	0.002260	0.072405	0.003157	-0.319210	-0.014930	-0.947561	1.891410	-37.231485	179.744602
28948		6.951953	0.846051	6.342461	-1.685971	-0.627231	-0.537110	0.018880	0.003780	-0.025526	-0.897217	-0.017334	-0.493896	0.069522	0.008446	0.063424	0.003040	-0.319225	-0.015046	-0.947555	1.912674	-37.232994	179.723273
28949		7.725578	1.285015	6.663276	-2.100124	-1.050125	0.198396	0.023878	-0.012335	-0.021567	-0.893066	-0.022705	-0.493408	0.077253	0.012834	0.066639	0.002955	-0.319316	-0.015182	-0.947522	1.935256	-37.243837	179.705249
28950		6.637972	0.690744	7.067422	-0.997721	-0.445934	-0.153808	0.006962	0.001592	-0.010552	-0.889648	-0.022949	-0.484863	0.066381	0.006901	0.070674	0.002889	-0.319344	-0.015218	-0.947512	1.943233	-37.247074	179.694532
28951		5.998726	0.694918	7.480728	-0.238512	-0.439365	-0.211698	0.007403	0.008180	0.001598	-0.896973	-0.026855	-0.486084	0.059990	0.006947	0.074805	0.002890	-0.319341	-0.015238	-0.947513	1.945993	-37.246615	179.693666
28952		5.917376	0.409198	7.844405	0.042198	-0.143563	0.020679	-0.008183	0.001868	0.015002	-0.900391	-0.018311	-0.475830	0.059174	0.004100	0.078443	0.002919	-0.319369	-0.015162	-0.947505	1.934215	-37.250084	179.701133
28953		5.724742	0.106175	7.781757	0.153490	0.154707	-0.153899	-0.009775	0.003958	0.022582	-0.912598	-0.015137	-0.472412	0.057249	0.001072	0.077816	0.002991	-0.319387	-0.015067	-0.947500	1.918058	-37.252446	179.715260
28954		5.808140	0.022274	7.722531	0.050669	0.235628	-0.152751	-0.000936	-0.002530	0.010885	-0.911133	-0.027588	-0.471924	0.058080	0.000226	0.077226	0.003015	-0.319435	-0.015032	-0.947484	1.912259	-37.258347	179.719919
28955		5.977435	0.070398	7.732291	-0.076388	0.188338	-0.041214	0.005675	-0.004094	-0.002659	-0.913818	-0.013916	-0.475342	0.059773	0.000701	0.077324	0.002991	-0.319489	-0.015051	-0.947466	1.916063	-37.264835	179.715694
28956		6.029951	0.248596	7.547968	-0.225580	0.005625	-0.151269	0.009428	-0.011039	-0.006850	-0.913574	-0.018066	-0.466309	0.060295	0.002480	0.075483	0.002945	-0.319576	-0.015093	-0.947436	1.924060	-37.275270	179.707181
28957		6.154725	0.419510	7.616114	-0.279152	-0.161412	-0.016880	0.010824	-0.012921	-0.009804	-0.922363	-0.013184	-0.460938	0.061543	0.004188	0.076165	0.002895	-0.319672	-0.015148	-0.947403	1.934061	-37.286673	179.697597
28958		6.056025	0.395165	7.510959	-0.262978	-0.139609	-0.160876	0.008272	-0.007649	-0.003942	-0.910400	-0.020752	-0.457764	0.060557	0.003947	0.075112	0.002862	-0.319743	-0.015180	-0.947378	1.940070	-37.295229	179.691438
28959		6.108221	0.483224	7.531286	-0.289129	-0.226221	-0.110658	0.007052	-0.013402	0.002411	-0.911865	-0.020508	-0.456787	0.061077	0.004830	0.075317	0.002864	-0.319842	-0.015198	-0.947345	1.942594	-37.307144	179.690630
28960		6.066773	0.448531	7.579326	-0.225698	-0.190470	-0.098477	-0.002071	-0.010137	0.009576	-0.900879	-0.026855	-0.462891	0.060664	0.004489	0.075796	0.002877	-0.319926	-0.015159	-0.947317	1.936842	-37.317396	179.693916
28961		5.997066	0.363436	7.506698	-0.213911	-0.108669	-0.200724	-0.000324	-0.008864	0.009613	-0.918213	-0.023438	-0.456787	0.059967	0.003637	0.075070	0.002902	-0.320004	-0.015130	-0.947291	1.931929	-37.326852	179.698406
28962		5.956750	0.357751	7.626294	-0.108026	-0.100491	-0.130257	-0.004620	-0.004865	0.015439	-0.919189	-0.031250	-0.455811	0.059565	0.003584	0.076264	0.002937	-0.320064	-0.015069	-0.947272	1.922097	-37.334204	179.705852
28963		5.876524	0.327883	7.572807	-0.076139	-0.074066	-0.222215	-0.006976	0.000199	0.016676	-0.922852	-0.021973	-0.446289	0.058765	0.003286	0.075728	0.002985	-0.320099	-0.014997	-0.947261	1.910151	-37.338604	179.715652
28964		5.975239	0.213671	7.517743	-0.189261	0.037678	-0.209127	-0.001171	0.005177	0.009030	-0.920654	-0.026611	-0.448486	0.059754	0.002140	0.075176	0.002995	-0.320111	-0.014962	-0.947257	1.904959	-37.340084	179.718560
28965		6.018179	0.232421	7.643233	-0.147223	0.022245	-0.082870	0.001716	0.014059	0.010376	-0.924805	-0.026611	-0.452148	0.060187	0.002327	0.076428	0.003028	-0.320080	-0.014942	-0.947268	1.900543	-37.336426	179.724155
28966		6.033590	0.307841	7.712559	-0.117188	-0.051712	-0.016456	0.003863	0.020204	0.017984	-0.922119	-0.019043	-0.444580	0.060343	0.003082	0.077120	0.003089	-0.320022	-0.014916	-0.947288	1.894106	-37.329476	179.733852
28967		5.790575	-0.022170	7.772607	0.105938	0.277863	-0.124744	-0.004693	0.024632	0.017393	-0.921387	-0.028564	-0.443848	0.057915	-0.000215	0.077719	0.003147	-0.319941	-0.014854	-0.947316	1.882804	-37.319894	179.744749
28968		5.989053	0.162868	7.675251	-0.108975	0.090034	-0.076940	0.006078	0.009988	0.003010	-0.924072	-0.024170	-0.435303	0.059894	0.001627	0.076750	0.003140	-0.319930	-0.014863	-0.947319	1.884309	-37.318510	179.743514
28969		6.024837	0.326582	7.590105	-0.186453	-0.075320	-0.118639	0.014718	0.003703	-0.004060	-0.922607	-0.026123	-0.441650	0.060250	0.003259	0.075900	0.003125	-0.319947	-0.014927	-0.947313	1.893797	-37.320508	179.738466
28970		6.147580	0.589605	7.478083	-0.346981	-0.339773	-0.126292	0.017549	-0.007559	-0.003485	-0.926758	-0.021240	-0.438721	0.061473	0.005888	0.074784	0.003105	-0.320018	-0.015001	-0.947288	1.904970	-37.329053	179.732037
28971		6.201511	0.554199	7.583923	-0.324987	-0.299838	-0.010328	0.013252	-0.003557	0.002339	-0.924316	-0.020508	-0.435547	0.062014	0.005538	0.075841	0.003117	-0.320070	-0.015048	-0.947269	1.910930	-37.335329	179.731421
28972		5.984159	0.645035	7.483476	-0.210987	-0.394510	-0.219539	0.004705	0.006166	0.018567	-0.932373	-0.024902	-0.433838	0.059843	0.006454	0.074833	0.003183	-0.320078	-0.015026	-0.947267	1.904911	-37.336447	179.741399
28973		6.158485	0.595131	7.626022	-0.263664	-0.341268	-0.001910	-0.005336	0.005126	0.030496	-0.933594	-0.030518	-0.436523	0.061586	0.005963	0.076258	0.003300	-0.320091	-0.014940	-0.947263	1.887795	-37.338284	179.761271
28974		5.945327	0.448276	7.498956	-0.173831	-0.201800	-0.236087	-0.011260	0.018718	0.037417	-0.929688	-0.021973	-0.437500	0.059459	0.004498	0.074984	0.003427	-0.320042	-0.014811	-0.947282	1.864259	-37.332570	179.784734
28975		6.100191	0.213698	7.510230	-0.295392	0.030025	-0.139353	-0.011398	0.029860	0.044721	-0.934814	-0.026611	-0.425781	0.061013	0.002155	0.075093	0.003603	-0.319939	-0.014673	-0.947318	1.837113	-37.320494	179.815424
28976		5.846910	0.121535	7.646827	-0.015334	0.122414	-0.186688	-0.004438	0.042440	0.038389	-0.940186	-0.022461	-0.425781	0.058485	0.001228	0.076456	0.003749	-0.319777	-0.014575	-0.947373	1.816741	-37.301204	179.840230
28977		5.839741	0.046992	7.704742	0.020968	0.196414	-0.146829	0.001981	0.041074	0.029475	-0.935059	-0.021240	-0.424072	0.058413	0.000478	0.077035	0.003875	-0.319619	-0.014525	-0.947427	1.803785	-37.282413	179.860177
28978		6.005071	-0.012804	7.652654	-0.145546	0.253970	-0.089597	0.013813	0.024883	0.019856	-0.936035	-0.022461	-0.429443	0.060060	-0.000127	0.076519	0.003961	-0.319539	-0.014543	-0.947453	1.802203	-37.272834	179.871253
28979		6.127067	0.172109	7.549160	-0.303325	0.066633	-0.093431	0.021921	0.013853	0.008304	-0.935303	-0.030762	-0.428223	0.061276	0.001715	0.075488	0.004017	-0.319508	-0.014621	-0.947462	1.810283	-37.269248	179.875339
28980		6.031938	0.205278	7.563223	-0.218709	0.034711	-0.139026	0.018957	0.005044	0.008497	-0.936768	-0.032227	-0.422852	0.060321	0.002048	0.075631	0.004054	-0.319521	-0.014682	-0.947457	1.816882	-37.270833	179.877571
28981		5.874483	0.347953	7.758122	0.027640	-0.101421	-0.075746	0.019182	-0.002660	0.010357	-0.937500	-0.030762	-0.433594	0.058744	0.003475	0.077582	0.004114	-0.319569	-0.014744	-0.947439	1.822725	-37.276742	179.882758
28982		5.908897	0.483411	7.624703	-0.076133	-0.240554	-0.157576	0.013809	-0.023035	0.021719	-0.934814	-0.021729	-0.423828	0.059080	0.004835	0.076254	0.004201	-0.319716	-0.014760	-0.947389	1.821016	-37.294650	179.893614
28983		6.018605	0.575913	7.623774	-0.159026	-0.333609	-0.089487	0.009428	-0.028165	0.030991	-0.932373	-0.029785	-0.428955	0.060174	0.005765	0.076246	0.004342	-0.319886	-0.014743	-0.947331	1.812616	-37.315540	179.913077
28984		6.038705	0.464330	7.608871	-0.182051	-0.224357	-0.091936	-0.004345	-0.035025	0.036766	-0.939453	-0.028320	-0.416748	0.060373	0.004656	0.076099	0.004473	-0.320091	-0.014650	-0.947263	1.794075	-37.340587	179.934792
28985		6.071164	0.370686	7.543561	-0.244410	-0.135298	-0.126423	-0.002860	-0.044474	0.038760	-0.937256	-0.029541	-0.417725	0.060694	0.003720	0.075449	0.004629	-0.320340	-0.014563	-0.947180	1.775430	-37.370946	179.959514
28986		6.116598	0.357620	7.594706	-0.244688	-0.123127	-0.058448	-0.003747	-0.041362	0.035500	-0.941895	-0.025391	-0.425537	0.061150	0.003588	0.075960	0.004752	-0.320574	-0.014474	-0.947101	1.757851	-37.399595	179.979956
28987		6.031331	0.336089	7.635557	-0.147439	-0.102705	-0.078245	-0.002844	-0.046264	0.032643	-0.940186	-0.029785	-0.417480	0.060295	0.003372	0.076369	0.004879	-0.320831	-0.014397	-0.947014	1.741872	-37.430860	-179.999730
28988		6.062038	0.168485	7.601049	-0.190457	0.061961	-0.090932	-0.001195	-0.048434	0.023521	-0.945557	-0.022705	-0.418457	0.060602	0.001692	0.076025	0.004950	-0.321098	-0.014339	-0.946924	1.731064	-37.463347	-179.987996
28989		6.079616	0.215767	7.619002	-0.186568	0.014079	-0.064740	0.001931	-0.060055	0.016391	-0.941650	-0.034668	-0.411621	0.060773	0.002162	0.076208	0.005007	-0.321419	-0.014312	-0.946816	1.725102	-37.502224	-179.979678
28990		6.068724	0.201123	7.713593	-0.113729	0.031184	0.003395	0.004590	-0.065479	0.007446	-0.948975	-0.030273	-0.411377	0.060662	0.002012	0.077156	0.005009	-0.321766	-0.014307	-0.946698	1.724879	-37.544199	-179.980016
28991		5.981900	0.231306	7.698955	-0.045563	0.000672	-0.060331	0.004573	-0.076480	0.003237	-0.948730	-0.027832	-0.412109	0.059790	0.002312	0.077012	0.005007	-0.322163	-0.014314	-0.946563	1.726427	-37.592255	-179.981548
28992		6.034944	0.325222	7.787015	-0.022590	-0.090384	0.044048	0.006251	-0.102843	0.009011	-0.943604	-0.037109	-0.403320	0.060309	0.003253	0.077901	0.005015	-0.322687	-0.014315	-0.946384	1.726960	-37.655657	-179.981624
28993		6.055534	0.266721	7.737081	-0.058276	-0.033558	0.015767	0.001847	-0.129967	0.009888	-0.948975	-0.036865	-0.406006	0.060505	0.002669	0.077410	0.005036	-0.323337	-0.014300	-0.946162	1.724721	-37.734460	-179.979511
28994		5.930704	0.111621	7.805296	0.095022	0.124238	-0.010450	0.026872	-0.175674	0.012892	-0.945801	-0.036865	-0.394531	0.059238	0.001110	0.078105	0.005088	-0.324205	-0.014393	-0.945864	1.736348	-37.839639	-179.978786
28995		5.997511	0.279616	7.830295	0.082259	-0.040906	0.054093	0.029896	-0.246199	0.003504	-0.955811	-0.033691	-0.392578	0.059879	0.002785	0.078377	0.005116	-0.325403	-0.014524	-0.945450	1.754618	-37.984896	-179.983907
28996		5.785010	0.888874	8.009911	0.400699	-0.642308	0.078819	0.022156	-0.320377	0.013959	-0.955322	-0.035645	-0.385498	0.057721	0.008884	0.080193	0.005175	-0.326954	-0.014602	-0.944913	1.764906	-38.172960	-179.983158
28997		6.003559	0.623028	8.075535	0.301663	-0.376510	0.257677	-0.040195	-0.411250	0.044502	-0.951660	-0.032227	-0.383789	0.059868	0.006260	0.080877	0.005270	-0.328935	-0.014339	-0.944229	1.726797	-38.413456	-179.962063
28998		5.864574	0.577893	8.138998	0.495480	-0.335715	0.217869	-0.051320	-0.493546	0.069252	-0.944336	-0.032471	-0.384521	0.058443	0.005820	0.081533	0.005457	-0.331307	-0.013985	-0.943404	1.671947	-38.701622	-179.924330
28999		5.711784	0.611606	8.165697	0.686754	-0.378108	0.140315	-0.083776	-0.581241	0.104354	-0.953613	-0.026855	-0.372803	0.056877	0.006180	0.081820	0.005751	-0.334091	-0.013421	-0.942428	1.582792	-39.040415	-179.861949
29000		5.972478	0.720753	7.958869	0.418812	-0.507127	0.142242	-0.094961	-0.652082	0.142798	-0.958252	-0.033203	-0.368164	0.059460	0.007288	0.079779	0.006201	-0.337210	-0.012743	-0.941323	1.469253	-39.420393	-179.771480
29001		6.113809	0.800100	7.889512	0.336384	-0.606217	0.176412	-0.128179	-0.706995	0.180001	-0.961426	-0.024902	-0.358154	0.060851	0.008107	0.079105	0.006768	-0.340586	-0.011846	-0.940114	1.318017	-39.832071	-179.652650
29002		6.370169	0.881301	7.722043	0.107813	-0.715063	0.210398	-0.156994	-0.736508	0.211828	-0.955322	-0.016113	-0.347656	0.063407	0.008941	0.077447	0.007433	-0.344099	-0.010762	-0.938842	1.133238	-40.260871	-179.508212
29003		6.516070	0.872325	7.627806	0.011985	-0.735558	0.230311	-0.179228	-0.754643	0.245056	-0.972168	-0.028076	-0.343506	0.064861	0.008871	0.076515	0.008214	-0.347693	-0.009516	-0.937524	0.916775	-40.699913	-179.336050
29004		6.461154	0.217952	7.703913	0.166476	-0.107877	0.242379	-0.169254	-0.756348	0.279942	-0.967773	-0.019775	-0.335938	0.064316	0.002335	0.077281	0.009177	-0.351291	-0.008257	-0.936185	0.685652	-41.139793	-179.134103
29005		6.352205	-0.051412	7.844348	0.411857	0.136350	0.271864	-0.159916	-0.746618	0.289552	-0.968506	-0.031982	-0.318848	0.063229	-0.000360	0.078680	0.010201	-0.354837	-0.007023	-0.934846	0.451189	-41.573433	-178.920963
29006		6.201862	-0.081731	7.868012	0.616354	0.140243	0.186075	-0.175748	-0.760182	0.270334	-0.965088	-0.016357	-0.316895	0.061720	-0.000664	0.078916	0.011106	-0.358441	-0.005750	-0.933469	0.213934	-42.014204	-178.718871
29007		6.399123	-0.773480	7.603933	0.353205	0.795840	0.117478	-0.162787	-0.767757	0.251191	-0.974609	-0.010010	-0.302734	0.063708	-0.007593	0.076290	0.011945	-0.362072	-0.004572	-0.932062	-0.009820	-42.458601	-178.527741
29008		6.343114	-0.466686	7.332601	0.294925	0.461614	-0.121486	-0.091307	-0.757882	0.259437	-0.972412	-0.010498	-0.292480	0.063159	-0.004551	0.073568	0.012951	-0.365648	-0.003713	-0.930656	-0.200297	-42.896885	-178.326716
29009		6.774695	-0.008698	7.167685	-0.047007	-0.028405	0.049806	-0.030207	-0.736496	0.280855	-0.971436	-0.001465	-0.280762	0.067482	0.000019	0.071926	0.014170	-0.369114	-0.003096	-0.929271	-0.370715	-43.322319	-178.105609
29010		7.077534	-0.056804	6.625111	-0.569043	-0.014429	-0.134755	0.030981	-0.706177	0.295453	-0.981201	-0.002930	-0.276855	0.070542	-0.000474	0.066500	0.015569	-0.372430	-0.002735	-0.927926	-0.517082	-43.729934	-177.870063
29011		7.291282	-0.538694	6.412601	-0.819040	0.443954	-0.132493	0.159306	-0.656217	0.319381	-0.982178	0.007568	-0.260254	0.072710	-0.005322	0.064361	0.017318	-0.375499	-0.002920	-0.926657	-0.606047	-44.108374	-177.613111
29012		5.697714	-1.132625	8.045891	1.494612	1.107827	-0.064774	0.257568	-0.520132	0.460380	-0.980957	0.008301	-0.259521	0.056794	-0.011299	0.080592	0.019908	-0.377926	-0.003284	-0.925616	-0.719190	-44.407677	-177.242267
29013		3.229739	-2.319263	10.604614	5.028491	2.433336	0.039275	0.290656	-0.314207	0.792704	-0.974121	0.015869	-0.266602	0.032223	-0.023219	0.106063	0.024100	-0.379395	-0.003153	-0.924916	-1.002013	-44.585140	-176.603987
29014		2.483404	-4.379469	12.335650	6.665198	4.568162	0.780810	0.299866	-0.116592	1.309419	-0.978027	0.027344	-0.260254	0.025049	-0.043816	0.123305	0.030702	-0.379944	-0.002060	-0.924497	-1.572114	-44.639336	-175.550407
29015		3.366065	-7.448833	13.533009	6.611528	7.594472	2.376109	0.282157	0.171989	2.076148	-0.976563	0.042725	-0.269775	0.034549	-0.074324	0.135196	0.040815	-0.379141	0.000616	-0.924438	-2.578635	-44.502075	-173.888736
29016		5.112833	-9.921871	13.637171	5.043089	9.856518	3.897253	0.527100	0.516469	2.766352	-0.973633	0.069336	-0.275391	0.052849	-0.098854	0.135976	0.054575	-0.376632	0.003540	-0.924747	-3.806521	-44.122349	-171.701912
29017		4.164279	-7.478950	12.792040	5.059252	7.423738	2.685038	1.008556	0.927976	3.061178	-0.963135	0.103027	-0.288086	0.043379	-0.074778	0.127345	0.070584	-0.371995	0.004903	-0.925534	-4.867747	-43.463788	-169.336525
29018		3.245347	-3.409477	11.760137	5.242262	3.450859	1.190148	1.210489	1.141139	3.141847	-0.950195	0.128174	-0.303467	0.033661	-0.034282	0.117204	0.087316	-0.366183	0.005559	-0.926420	-5.793661	-42.649280	-166.968134
29019		3.233849	-0.653555	11.089247	5.042339	0.695882	0.576957	1.042079	1.203149	3.035145	-0.937500	0.150391	-0.327637	0.033105	-0.006614	0.110661	0.103216	-0.360054	0.006821	-0.927179	-6.697895	-41.779096	-164.736862
29020		3.721972	0.348488	10.505283	4.360116	-0.446587	0.440314	0.791797	1.235223	2.721428	-0.917969	0.182373	-0.338135	0.037819	0.003581	0.104835	0.117166	-0.353814	0.008704	-0.927907	-7.529476	-40.887343	-162.796626
29021		4.011492	1.430255	9.881441	3.869858	-1.655580	0.089984	0.593402	1.261393	2.252441	-0.918457	0.201904	-0.352783	0.040575	0.014465	0.098602	0.128581	-0.347522	0.010681	-0.928752	-8.196078	-39.999232	-161.248067
29022		4.181707	2.997382	9.359194	3.693810	-3.305943	-0.352702	0.341139	1.266782	1.712491	-0.902344	0.213623	-0.367676	0.042151	0.030174	0.093377	0.137019	-0.341339	0.012901	-0.929810	-8.715841	-39.140609	-160.130524
29023		4.437791	3.486911	9.064584	3.368522	-3.929218	-0.472847	0.007871	1.235350	1.109470	-0.896484	0.229492	-0.381348	0.044742	0.035113	0.090372	0.142087	-0.335544	0.015610	-0.931116	-9.128412	-38.347222	-159.467318
29024		4.853757	3.109134	8.762837	2.689886	-3.774120	-0.403531	-0.287638	1.220159	0.450102	-0.888184	0.229980	-0.391846	0.049000	0.031327	0.087285	0.143570	-0.330055	0.018583	-0.932795	-9.405293	-37.619274	-159.290124
29025		5.256141	2.546304	8.380975	1.901984	-3.441811	-0.384737	-0.520335	1.230292	-0.179446	-0.876221	0.236572	-0.402344	0.053098	0.025633	0.083418	0.141739	-0.324737	0.021603	-0.934874	-9.539222	-36.945359	-159.564510
29026		5.314542	1.506632	7.835162	1.142054	-2.548027	-0.641761	-0.694048	1.228775	-0.691057	-0.876465	0.235596	-0.417480	0.053678	0.015152	0.077970	0.137215	-0.319580	0.024606	-0.937249	-9.560837	-36.320295	-160.199332
29027		5.303512	0.209622	7.454902	0.493267	-1.355108	-0.775758	-0.784529	1.181597	-0.997411	-0.866211	0.230713	-0.431641	0.053485	0.002122	0.074226	0.131119	-0.314729	0.027505	-0.939679	-9.520061	-35.751823	-161.036128
29028		5.601529	-1.151025	7.255259	-0.262204	-0.150683	-0.579666	-0.761729	1.112008	-1.089026	-0.859619	0.224854	-0.441650	0.056355	-0.011541	0.072284	0.124620	-0.310171	0.030108	-0.941996	-9.443949	-35.229690	-161.923169
29029		5.876135	-2.333450	7.166121	-0.861365	0.913883	-0.339055	-0.643664	1.052962	-0.994397	-0.864502	0.216064	-0.450928	0.059022	-0.023397	0.071426	0.118758	-0.305790	0.032260	-0.944112	-9.351875	-34.731968	-162.730545
29030		5.715127	-3.072207	6.931383	-1.089727	1.667283	-0.529502	-0.447202	0.992626	-0.788991	-0.850830	0.217041	-0.463623	0.057373	-0.030793	0.069098	0.114163	-0.301520	0.033764	-0.945998	-9.239701	-34.247246	-163.385430
29031		5.508876	-3.308339	6.832609	-1.091074	1.946567	-0.702392	-0.250561	0.902437	-0.514722	-0.842041	0.216309	-0.470215	0.055311	-0.033140	0.068118	0.111179	-0.297514	0.034696	-0.947587	-9.132429	-33.788352	-163.837371
29032		5.562955	-3.275453	6.883485	-1.160701	1.900105	-0.642112	-0.085488	0.803767	-0.226840	-0.843262	0.210693	-0.476318	0.055868	-0.032788	0.068625	0.109816	-0.293820	0.035221	-0.948878	-9.049294	-33.357680	-164.080399
29033		5.577063	-3.253065	6.956294	-1.190338	1.867632	-0.583886	0.073582	0.711293	0.065218	-0.836670	0.215332	-0.489502	0.056028	-0.032538	0.069352	0.110090	-0.290430	0.035366	-0.949884	-8.990899	-32.953773	-164.113755
29034		5.496118	-2.889150	7.109102	-1.036345	1.519677	-0.554717	0.232253	0.633541	0.320758	-0.830078	0.210449	-0.491943	0.055232	-0.028885	0.070883	0.111817	-0.287264	0.035089	-0.950655	-8.939705	-32.570134	-163.966818
29035		5.406499	-2.118873	7.119286	-0.872947	0.777569	-0.700218	0.353174	0.553501	0.512087	-0.824951	0.223389	-0.508545	0.054316	-0.021175	0.071005	0.114643	-0.284381	0.034463	-0.951208	-8.891477	-32.215811	-163.682867
29036		5.531299	-1.392419	7.279088	-0.798630	0.027082	-0.599631	0.405890	0.489459	0.632694	-0.815918	0.229248	-0.504883	0.055535	-0.013896	0.072627	0.118124	-0.281740	0.033724	-0.951595	-8.857611	-31.886381	-163.312855
29037		5.735947	-0.947057	7.372995	-0.871185	-0.470989	-0.475769	0.420140	0.445286	0.670020	-0.813477	0.233887	-0.522949	0.057555	-0.009433	0.073582	0.121810	-0.279295	0.032940	-0.951878	-8.828635	-31.579716	-162.914082
29038		5.846036	-0.439009	7.316112	-0.925315	-1.007278	-0.537808	0.404693	0.415636	0.638794	-0.814697	0.226563	-0.520020	0.058626	-0.004351	0.073031	0.125330	-0.276993	0.032169	-0.952120	-8.797110	-31.291905	-162.533959
29039		6.013175	-0.023808	7.173113	-1.082194	-1.468147	-0.631964	0.354734	0.388031	0.554490	-0.797852	0.241699	-0.527832	0.060271	-0.000198	0.071614	0.128381	-0.274871	0.031499	-0.952351	-8.764622	-31.028134	-162.207824
29040		6.139441	0.215968	6.991337	-1.259213	-1.748737	-0.758718	0.283561	0.378149	0.430266	-0.791504	0.234619	-0.535889	0.061522	0.002193	0.069800	0.130742	-0.272850	0.030993	-0.952627	-8.729797	-30.780146	-161.963419
29041		6.284396	0.239548	6.763646	-1.522916	-1.824482	-0.888013	0.210976	0.370923	0.281254	-0.780273	0.238037	-0.537109	0.062966	0.002413	0.067522	0.132294	-0.270939	0.030622	-0.952970	-8.685725	-30.550122	-161.816755
29042		6.466865	0.241650	6.570753	-1.803877	-1.886502	-0.967317	0.130681	0.369229	0.132441	-0.780273	0.235840	-0.544922	0.064788	0.002416	0.065590	0.133030	-0.269105	0.030432	-0.953394	-8.637693	-30.333262	-161.767725
29043		6.631230	0.139755	6.290192	-2.140734	-1.842116	-1.118838	0.039679	0.374769	0.002816	-0.781006	0.234375	-0.554932	0.066430	0.001386	0.062778	0.133023	-0.267329	0.030504	-0.953892	-8.598583	-30.125163	-161.804237
29044		6.718481	-0.024415	6.031023	-2.417919	-1.714387	-1.284717	-0.037650	0.377342	-0.094988	-0.777344	0.233398	-0.548828	0.067298	-0.000265	0.060183	0.132445	-0.265601	0.030816	-0.954445	-8.571837	-29.923305	-161.904763
29045		6.870769	-0.052517	5.766297	-2.718095	-1.733066	-1.441979	-0.110526	0.371543	-0.166444	-0.779053	0.236328	-0.554443	0.068814	-0.000551	0.057535	0.131430	-0.263965	0.031377	-0.955021	-8.564363	-29.731454	-162.051141
29046		7.089241	-0.122757	5.494035	-3.085151	-1.727271	-1.569198	-0.178104	0.362062	-0.206784	-0.773926	0.233398	-0.554688	0.070990	-0.001252	0.054813	0.130134	-0.262418	0.032201	-0.955597	-8.583564	-29.547890	-162.222590
29047		7.207888	-0.240407	5.259256	-3.359138	-1.647275	-1.708748	-0.213155	0.346684	-0.222601	-0.774658	0.238525	-0.561279	0.072167	-0.002428	0.052470	0.128718	-0.260974	0.033161	-0.956151	-8.619136	-29.375008	-162.402656
29048		7.429803	-0.217939	4.999871	-3.696137	-1.727684	-1.837614	-0.235951	0.310079	-0.233248	-0.771240	0.226318	-0.564209	0.074373	-0.002207	0.049886	0.127228	-0.259716	0.034192	-0.956657	-8.666613	-29.223468	-162.585714
29049		7.590241	-0.238181	4.757011	-3.979958	-1.747843	-1.976708	-0.235303	0.269876	-0.233264	-0.761230	0.233398	-0.570068	0.075964	-0.002414	0.047470	0.125743	-0.258652	0.035194	-0.957105	-8.716151	-29.095258	-162.764861
29050		7.674325	-0.290595	4.499713	-4.210364	-1.713892	-2.160074	-0.215786	0.212749	-0.232392	-0.761963	0.233154	-0.570801	0.076788	-0.002947	0.044919	0.124299	-0.257846	0.036068	-0.957478	-8.757801	-28.999174	-162.937626
29051		7.723004	-0.313736	4.226986	-4.407220	-1.695222	-2.375400	-0.183575	0.142010	-0.237859	-0.762207	0.233643	-0.573975	0.077256	-0.003190	0.042218	0.122881	-0.257361	0.036737	-0.957766	-8.783019	-28.943987	-163.106854
29052		7.856428	-0.388342	4.070509	-4.622150	-1.644494	-2.438770	-0.135413	0.056665	-0.252477	-0.767090	0.225830	-0.576904	0.078571	-0.003955	0.040685	0.121473	-0.257256	0.037103	-0.957960	-8.780212	-28.938310	-163.276670
29053		7.807857	-0.482878	3.873190	-4.703253	-1.523970	-2.618640	-0.101015	-0.029077	-0.259127	-0.763916	0.227051	-0.579102	0.078067	-0.004910	0.038746	0.120090	-0.257543	0.037244	-0.958052	-8.759771	-28.981860	-163.442561
29054		7.678204	-0.754743	3.770894	-4.698924	-1.209259	-2.727360	-0.052538	-0.138181	-0.266869	-0.777100	0.226318	-0.567139	0.076746	-0.007640	0.037764	0.118754	-0.258324	0.037077	-0.958014	-8.714024	-29.087837	-163.602655
29055		7.503005	-1.050595	3.677934	-4.648089	-0.857483	-2.842326	0.006359	-0.261105	-0.260307	-0.774170	0.233154	-0.561523	0.074968	-0.010605	0.036877	0.117547	-0.259657	0.036564	-0.957823	-8.642136	-29.262676	-163.746765
29056		7.415864	-1.287627	3.861841	-4.509813	-0.584654	-2.679212	0.062659	-0.386173	-0.249136	-0.779785	0.219238	-0.565430	0.074068	-0.012981	0.038757	0.116492	-0.261554	0.035720	-0.957467	-8.546759	-29.507437	-163.871579
29057		7.327495	-1.606687	4.095879	-4.352187	-0.230210	-2.460468	0.116019	-0.498514	-0.219301	-0.779297	0.224121	-0.558594	0.073155	-0.016171	0.041132	0.115665	-0.263949	0.034596	-0.956951	-8.434982	-29.812929	-163.967181
29058		7.089841	-1.797014	4.332825	-4.034104	0.036777	-2.329847	0.173242	-0.581361	-0.188097	-0.790039	0.222412	-0.561035	0.070755	-0.018074	0.043518	0.115079	-0.266703	0.033190	-0.956308	-8.303549	-30.162964	-164.035223
29059		7.003232	-1.964171	4.641727	-3.793478	0.246391	-2.066888	0.220580	-0.649540	-0.142261	-0.795166	0.218506	-0.556885	0.069867	-0.019743	0.046623	0.114783	-0.269742	0.031580	-0.955545	-8.162556	-30.547398	-164.068103
29060		6.880585	-2.162927	4.921128	-3.539150	0.496145	-1.846121	0.246832	-0.685809	-0.094655	-0.797119	0.211670	-0.548340	0.068626	-0.021723	0.049420	0.114756	-0.272932	0.029887	-0.954697	-8.023507	-30.948977	-164.067019
29061		6.572229	-2.359076	5.020977	-3.222998	0.786472	-1.877758	0.267393	-0.714379	-0.062175	-0.807861	0.217041	-0.547852	0.065535	-0.023678	0.050412	0.114913	-0.276233	0.028124	-0.953781	-7.884606	-31.363711	-164.043249
29062		6.279006	-2.215817	5.235747	-2.787198	0.743989	-1.848611	0.251654	-0.756676	-0.040600	-0.820557	0.210938	-0.534424	0.062587	-0.022237	0.052567	0.115157	-0.279744	0.026440	-0.952777	-7.763962	-31.801405	-164.001949
29063		6.155378	-2.236657	5.444385	-2.521884	0.819740	-1.719454	0.177637	-0.802935	-0.020828	-0.825928	0.210205	-0.534424	0.061332	-0.022421	0.054670	0.115394	-0.283504	0.025111	-0.951672	-7.694855	-32.263307	-163.944133
29064		6.335671	-2.418724	5.711725	-2.497601	0.979550	-1.361840	0.088869	-0.825131	-0.025202	-0.840576	0.212646	-0.525879	0.063117	-0.024221	0.057367	0.115485	-0.287423	0.024184	-0.950508	-7.676536	-32.738858	-163.887298
29065		1.383714	-10.742502	8.095909	1.167562	10.300813	-1.129983	0.158905	-0.781957	-0.083855	-0.846924	0.204590	-0.511230	0.013476	-0.107495	0.080927	0.115391	-0.291093	0.022865	-0.949435	-7.594545	-33.193726	-163.874345
29066		4.020649	-18.612523	28.701525	8.863344	18.238823	18.027643	2.523681	-0.448305	-0.836125	-0.851563	0.188232	-0.518555	0.038778	-0.189892	0.284723	0.115116	-0.291878	0.009417	-0.949456	-5.856809	-33.509976	-164.409333
29067		-3.040535	0.421273	14.495044	10.540238	1.150912	0.536068	2.669594	0.402984	-1.171841	-0.848145	0.155762	-0.532715	-0.030095	0.002454	0.145052	0.113399	-0.288489	-0.004726	-0.950733	-3.873933	-33.341235	-165.235854
29068		-0.627594	11.196317	8.595298	7.667716	-10.053828	-3.507897	2.018929	-0.933050	-1.427510	-0.860107	0.145996	-0.530029	-0.005885	0.111131	0.087050	0.109471	-0.291761	-0.016898	-0.950056	-2.194283	-33.922963	-166.184711
29069		18.658977	9.892720	14.206177	-5.011359	-11.821843	12.163584	1.087241	-0.734531	-0.786361	-0.871582	0.122559	-0.523926	0.186450	0.097417	0.143279	0.107237	-0.294617	-0.023603	-0.949286	-1.275577	-34.361565	-166.715243
29070		6.454848	7.299771	7.448477	0.536460	-7.506481	-0.127867	0.529916	-0.361093	-0.489674	-0.866211	0.114258	-0.516113	0.064592	0.072642	0.074794	0.105629	-0.296026	-0.027023	-0.948937	-0.782986	-34.578037	-167.053035
29071		11.018127	3.705721	8.942251	-3.043418	-4.597962	3.777421	0.279863	-0.457436	-0.295277	-0.874023	0.115234	-0.510986	0.110031	0.036769	0.089726	0.104560	-0.298044	-0.029021	-0.948364	-0.508406	-34.846287	-167.257154
29072		9.338158	4.893889	6.785360	-2.609561	-5.668398	1.061677	0.060967	-0.268364	0.027173	-0.885986	0.121094	-0.507813	0.093284	0.048931	0.067994	0.104718	-0.299328	-0.029402	-0.947931	-0.486025	-35.004558	-167.238902
29073		7.850069	4.536910	7.678503	-0.967510	-4.949969	0.945016	-0.162077	-0.184719	0.149389	-0.886963	0.110107	-0.500244	0.078396	0.045490	0.076821	0.105137	-0.300346	-0.028498	-0.947590	-0.640579	-35.113814	-167.135000
29074		4.763570	0.451224	8.154422	0.902805	-0.367614	-0.408460	-0.287660	-0.163444	0.223362	-0.876709	0.114990	-0.500488	0.047564	0.004683	0.081576	0.105716	-0.301343	-0.026879	-0.947256	-0.896966	-35.210493	-166.979433
29075		4.984624	-3.106742	8.232957	0.025204	3.046129	-0.169024	-0.242425	-0.201560	0.209790	-0.887695	0.117920	-0.497803	0.049796	-0.030915	0.082417	0.106297	-0.302491	-0.025513	-0.946863	-1.123215	-35.328120	-166.831632
29076		5.500267	-5.110721	7.843865	-1.018599	4.845278	-0.149131	-0.090512	-0.146587	0.088282	-0.884766	0.120850	-0.489258	0.054968	-0.051047	0.078502	0.106534	-0.303284	-0.025022	-0.946596	-1.212781	-35.415806	-166.770151
29077		5.416929	-4.855606	7.303721	-1.196757	4.551702	-0.641312	0.111416	-0.024818	-0.027512	-0.884033	0.126221	-0.486328	0.054154	-0.048604	0.073017	0.106550	-0.303375	-0.025596	-0.946549	-1.138857	-35.434629	-166.791016
29078		5.437868	-2.124588	7.737107	-0.375545	1.949127	-0.325489	0.229678	-0.019917	-0.148996	-0.886230	0.119385	-0.495605	0.054355	-0.021375	0.077352	0.106167	-0.303368	-0.026911	-0.946558	-0.947454	-35.452332	-166.897980
29079		6.130067	-0.708706	7.325583	-0.855825	0.420129	-0.281941	0.254828	0.004929	-0.207830	-0.888428	0.111572	-0.489258	0.061295	-0.007244	0.073245	0.105550	-0.303218	-0.028421	-0.946631	-0.717531	-35.455512	-167.046113
29080		6.099028	0.117726	7.610681	-0.497139	-0.316475	-0.076822	0.256007	0.022272	-0.205980	-0.897949	0.107666	-0.481201	0.061000	0.001017	0.076101	0.104941	-0.302988	-0.029924	-0.946726	-0.487537	-35.448733	-167.193798
29081		6.194029	1.150880	8.062057	-0.100000	-1.258420	0.340814	0.222208	0.009611	-0.178770	-0.884277	0.109863	-0.479492	0.061954	0.011364	0.080630	0.104413	-0.302836	-0.031233	-0.946791	-0.288147	-35.448181	-167.321530
29082		6.247940	1.485623	7.900596	-0.168193	-1.591068	0.242332	0.151834	0.022764	-0.126671	-0.885010	0.099609	-0.484131	0.062498	0.014757	0.079010	0.104019	-0.302669	-0.032123	-0.946858	-0.150197	-35.440163	-167.413558
29083		6.037333	1.169761	7.924550	-0.060700	-1.227134	0.142546	0.094262	0.022751	-0.078790	-0.895264	0.106201	-0.484619	0.060387	0.011636	0.079244	0.103773	-0.302536	-0.032668	-0.946909	-0.064906	-35.431466	-167.470975
29084		5.680072	0.574229	7.842164	0.044555	-0.583972	-0.130256	0.050246	0.020818	-0.048734	-0.895020	0.097168	-0.483398	0.056810	0.005709	0.078417	0.103594	-0.302445	-0.032960	-0.946947	-0.016915	-35.424313	-167.508219
29085		5.906851	0.275204	7.605627	-0.336509	-0.355899	-0.191238	0.045074	0.010676	-0.035514	-0.899902	0.096191	-0.482422	0.059073	0.002724	0.076054	0.103476	-0.302401	-0.033213	-0.946965	0.022530	-35.422445	-167.535179
29086		5.823999	0.582890	7.808700	-0.090541	-0.611710	-0.073482	0.030573	0.011789	-0.028820	-0.893555	0.097412	-0.476563	0.058245	0.005809	0.078084	0.103357	-0.302366	-0.033385	-0.946983	0.051175	-35.420444	-167.558758
29087		5.532623	0.455839	7.932372	0.182976	-0.418869	-0.141530	0.006095	0.010941	-0.002127	-0.894287	0.097900	-0.471191	0.055331	0.004555	0.079321	0.103338	-0.302347	-0.033403	-0.946991	0.054680	-35.418424	-167.562242
29088		5.265185	0.181444	8.114791	0.439562	-0.081254	-0.148056	-0.008549	0.010077	-0.000021	-0.894287	0.095459	-0.463867	0.052656	0.001818	0.081145	0.103296	-0.302344	-0.033348	-0.946998	0.049188	-35.417413	-167.565532
29089		5.460285	-0.263110	7.954792	0.098138	0.297837	-0.165702	-0.005928	0.001440	-0.000597	-0.905273	0.088379	-0.459229	0.054603	-0.002629	0.079548	0.103265	-0.302377	-0.033312	-0.946992	0.045184	-35.420837	-167.567945
29090		5.786971	-0.432069	7.849663	-0.257156	0.393290	-0.062194	0.016848	-0.000986	-0.016022	-0.899902	0.090576	-0.465576	0.057869	-0.004332	0.078497	0.103180	-0.302411	-0.033406	-0.946987	0.060808	-35.426152	-167.582978
29091		5.886836	-0.456674	7.840752	-0.346407	0.402509	-0.011730	0.038041	-0.011465	-0.037157	-0.904053	0.088623	-0.464844	0.058863	-0.004593	0.078410	0.103040	-0.302476	-0.033640	-0.946974	0.096909	-35.436940	-167.611115
29092		5.996365	-0.194948	7.695831	-0.458232	0.116096	-0.066060	0.054850	-0.018721	-0.052590	-0.902588	0.087402	-0.466553	0.059956	-0.001986	0.076963	0.102836	-0.302569	-0.033978	-0.946954	0.149238	-35.452365	-167.651980
29093		6.010989	0.062342	7.717357	-0.401195	-0.127369	-0.039444	0.054012	-0.021510	-0.050803	-0.898682	0.092773	-0.454102	0.060102	0.000587	0.077180	0.102654	-0.302671	-0.034314	-0.946929	0.200101	-35.468846	-167.689770
29094		6.157656	0.348041	7.846000	-0.381580	-0.408000	0.151524	0.053078	-0.034531	-0.040141	-0.902100	0.079834	-0.459229	0.061564	0.003447	0.078472	0.102504	-0.302841	-0.034633	-0.946879	0.246393	-35.493312	-167.721898
29095		5.960829	-0.164047	7.784370	-0.366521	0.125493	-0.014487	0.045718	-0.051890	-0.042243	-0.911133	0.083008	-0.449707	0.059588	-0.001671	0.077859	0.102344	-0.303092	-0.034931	-0.946805	0.289122	-35.527173	-167.753819
29096		5.967667	-0.103655	7.769474	-0.362347	0.071702	-0.022280	0.064383	-0.068418	-0.050309	-0.905273	0.087646	-0.443848	0.059650	-0.001077	0.077715	0.102154	-0.303416	-0.035336	-0.946707	0.346252	-35.570999	-167.793828
29097		6.146345	-0.246781	7.766075	-0.531552	0.190323	0.078299	0.072737	-0.069896	-0.060593	-0.910645	0.080811	-0.443115	0.061436	-0.002515	0.077681	0.101945	-0.303735	-0.035799	-0.946610	0.412139	-35.615056	-167.838877
29098		6.243045	-0.039453	7.552007	-0.679705	-0.045070	-0.037927	0.080033	-0.075978	-0.072102	-0.915039	0.077393	-0.442139	0.062402	-0.000447	0.075544	0.101674	-0.304082	-0.036315	-0.946508	0.487333	-35.663055	-167.894349
29099		5.897837	-0.154202	7.840771	-0.260423	0.175120	-0.005167	0.074628	-0.071083	-0.068215	-0.908936	0.083984	-0.438232	0.058950	-0.001591	0.078428	0.101432	-0.304405	-0.036800	-0.946412	0.557614	-35.707660	-167.944969
29100		5.588167	0.033970	8.041862	0.145771	0.081043	-0.021238	0.065200	-0.070084	-0.065850	-0.913574	0.078857	-0.431152	0.055854	0.000295	0.080438	0.101168	-0.304733	-0.037232	-0.946318	0.621902	-35.752228	-167.996345
29101		5.802801	0.147043	7.834581	-0.112527	-0.083594	-0.063066	0.052315	-0.073631	-0.053811	-0.909668	0.066650	-0.424072	0.058000	0.001434	0.078368	0.100959	-0.305081	-0.037590	-0.946213	0.673632	-35.798296	-168.036992
29102		5.655833	0.293769	7.834461	0.041461	-0.194444	-0.147596	0.039177	-0.066288	-0.044429	-0.919922	0.070313	-0.418701	0.056533	0.002910	0.078364	0.100776	-0.305407	-0.037870	-0.946117	0.714072	-35.840723	-168.070990
29103		5.865130	0.115914	7.740962	-0.210457	-0.061772	-0.102509	0.031625	-0.057903	-0.042641	-0.920410	0.071533	-0.416504	0.058629	0.001134	0.077427	0.100592	-0.305693	-0.038105	-0.946034	0.749361	-35.877814	-168.103725
29104		5.899932	0.147522	7.659068	-0.272587	-0.103187	-0.147941	0.034879	-0.063229	-0.040285	-0.915283	0.067383	-0.409912	0.058975	0.001450	0.076610	0.100422	-0.306008	-0.038356	-0.945941	0.785705	-35.918486	-168.134865
29105		6.020946	0.258255	7.492440	-0.434484	-0.247773	-0.210345	0.031762	-0.062178	-0.037449	-0.905273	0.070313	-0.405029	0.060187	0.002559	0.074944	0.100262	-0.306315	-0.038586	-0.945849	0.819029	-35.958035	-168.164057
29106		5.578294	0.265820	7.896928	0.154153	-0.121894	-0.142586	0.025253	-0.049191	-0.034452	-0.916748	0.063965	-0.406982	0.055764	0.002639	0.078983	0.100108	-0.306569	-0.038776	-0.945775	0.847437	-35.990695	-168.191011
29107		5.251074	0.389220	8.036148	0.523973	-0.165211	-0.220863	0.020488	-0.051380	-0.020343	-0.915283	0.070313	-0.403564	0.052490	0.003879	0.080375	0.100013	-0.306834	-0.038921	-0.945693	0.867184	-36.024182	-168.208047
29108		5.723689	0.366807	7.732365	-0.023656	-0.258714	-0.188908	0.020703	-0.055826	-0.016721	-0.920166	0.069092	-0.385254	0.057216	0.003655	0.077340	0.099935	-0.307125	-0.039066	-0.945601	0.885702	-36.060770	-168.222567
29109		5.792883	0.400866	7.627950	-0.125806	-0.313990	-0.232009	0.021605	-0.050873	-0.012387	-0.919189	0.066650	-0.387207	0.057910	0.003997	0.076295	0.099880	-0.307388	-0.039204	-0.945515	0.902806	-36.094028	-168.233999
29110		5.843832	0.248254	7.689143	-0.158433	-0.161427	-0.154336	0.025988	-0.051757	-0.010387	-0.919678	0.063232	-0.377686	0.058419	0.002470	0.076907	0.099840	-0.307658	-0.039361	-0.945425	0.921726	-36.128338	-168.244025
29111		5.617127	0.284895	7.807087	0.101607	-0.140017	-0.192190	0.029398	-0.057421	-0.011154	-0.914551	0.058350	-0.378174	0.056149	0.002834	0.078087	0.099801	-0.307949	-0.039538	-0.945327	0.942857	-36.165353	-168.254696
29112		5.765368	0.244198	7.676210	-0.093540	-0.138168	-0.210841	0.028198	-0.064023	-0.016916	-0.923096	0.049805	-0.375244	0.057629	0.002426	0.076781	0.099732	-0.308275	-0.039722	-0.945221	0.965906	-36.206621	-168.269543
29113		5.651534	0.216381	7.768327	0.050073	-0.075109	-0.204076	0.029743	-0.077081	-0.017085	-0.915771	0.068359	-0.364990	0.056486	0.002147	0.077705	0.099662	-0.308657	-0.039919	-0.945095	0.989906	-36.254834	-168.284713
29114		5.874373	0.228456	7.681131	-0.165400	-0.130344	-0.142327	0.026232	-0.092385	-0.020563	-0.918701	0.064697	-0.362793	0.058708	0.002268	0.076839	0.099567	-0.309117	-0.040114	-0.944947	1.013631	-36.312303	-168.302567
29115		6.123304	0.277601	7.561576	-0.410869	-0.230234	-0.090161	0.026225	-0.104916	-0.019304	-0.923584	0.062744	-0.354004	0.061194	0.002760	0.075648	0.099475	-0.309632	-0.040311	-0.944779	1.036828	-36.376429	-168.319741
29116		5.859687	0.266854	7.759656	-0.081063	-0.144256	-0.086845	0.025350	-0.101257	-0.016553	-0.916260	0.057861	-0.341553	0.058558	0.002654	0.077627	0.099395	-0.310135	-0.040500	-0.944615	1.058510	-36.439019	-168.334942
29117		5.780916	0.408296	8.116109	0.227620	-0.215824	0.155187	0.018475	-0.112476	-0.003252	-0.921143	0.058838	-0.347412	0.057764	0.004075	0.081194	0.099366	-0.310692	-0.040640	-0.944428	1.070608	-36.507638	-168.340864
29118		6.073966	0.278972	7.761106	-0.222939	-0.182632	0.042392	0.009373	-0.145098	0.012045	-0.922852	0.052002	-0.345459	0.060683	0.002790	0.077655	0.099388	-0.311416	-0.040730	-0.944184	1.071413	-36.595641	-168.336319
29119		6.182713	0.240472	8.144955	-0.077284	-0.106232	0.415058	0.006876	-0.178332	0.021566	-0.913574	0.063477	-0.334717	0.061754	0.002409	0.081505	0.099443	-0.312295	-0.040810	-0.943884	1.066838	-36.702250	-168.325418
29120		6.429514	-0.029004	8.111421	-0.325716	0.115962	0.532120	0.001813	-0.243222	0.024633	-0.919189	0.063721	-0.325684	0.064196	-0.000283	0.081192	0.099493	-0.313487	-0.040894	-0.943480	1.058674	-36.846602	-168.313144
29121		6.012971	-1.372592	7.581300	-0.566444	1.428708	-0.161067	0.019887	-0.335529	-0.015339	-0.912354	0.060791	-0.313721	0.060001	-0.013738	0.075912	0.099362	-0.315092	-0.041170	-0.942947	1.078646	-37.042868	-168.330754
29122		6.190549	-1.330908	7.889419	-0.480421	1.415885	0.192385	0.056272	-0.402090	-0.069264	-0.919434	0.049072	-0.307373	0.061742	-0.013353	0.079015	0.099021	-0.316986	-0.041737	-0.942323	1.143744	-37.277200	-168.388271
29123		5.181657	-0.487783	8.275179	0.753033	0.825763	-0.100995	0.040861	-0.446968	-0.097084	-0.910889	0.062256	-0.300537	0.051629	-0.004920	0.082866	0.098515	-0.319086	-0.042296	-0.941642	1.213014	-37.536313	-168.467066
29124		5.475390	0.493424	8.323262	0.808034	-0.154661	0.128288	0.026507	-0.531760	-0.095285	-0.919434	0.057129	-0.298828	0.054535	0.004897	0.083378	0.097975	-0.321596	-0.042828	-0.940820	1.274868	-37.844477	-168.546541
29125		5.098277	3.897289	9.379125	2.505925	-3.263424	0.780677	-0.266605	-0.633850	-0.152482	-0.916504	0.056641	-0.294189	0.050715	0.039059	0.093900	0.096673	-0.324710	-0.042121	-0.939917	1.195880	-38.209893	-168.669541
29126		4.159499	-4.304554	8.328644	0.956880	4.748279	-0.771976	-0.329217	-0.813091	-0.169995	-0.919678	0.058105	-0.282471	0.041219	-0.042943	0.083525	0.095147	-0.328691	-0.041236	-0.938727	1.091444	-38.678425	-168.807933
29127		5.672618	3.687535	8.997481	1.949172	-3.200908	0.802638	-0.044031	-1.005876	0.050498	-0.923584	0.057861	-0.268555	0.056263	0.036909	0.090250	0.095082	-0.333475	-0.041416	-0.937037	1.050901	-39.259410	-168.786772
29128		5.003798	0.182572	8.371929	1.460550	0.248462	-0.170879	-0.241198	-1.161449	0.069731	-0.917969	0.055908	-0.248047	0.049550	0.001944	0.084006	0.094744	-0.339079	-0.040714	-0.935089	0.888510	-39.930103	-168.751754
29129		5.457398	1.487840	8.581112	1.643640	-1.065387	0.276621	-0.158027	-1.326733	0.172662	-0.926270	0.062012	-0.225098	0.053990	0.014993	0.086159	0.094990	-0.345420	-0.040302	-0.932758	0.722525	-40.695809	-168.638252
29130		5.632861	1.278007	8.446961	1.528451	-0.904858	0.264848	-0.274802	-1.451242	0.204574	-0.922852	0.066895	-0.217041	0.055701	0.012954	0.084858	0.095154	-0.352389	-0.039349	-0.930172	0.469944	-41.533096	-168.496408
29131		6.036253	0.174960	8.237944	1.029141	0.080703	0.349141	-0.304067	-1.576425	0.219797	-0.928711	0.073730	-0.206543	0.059709	0.001941	0.082849	0.095307	-0.359932	-0.038288	-0.927308	0.186513	-42.441270	-168.336162
29132		6.131720	-0.175907	8.679419	1.352000	0.466478	0.718839	-0.349247	-1.641535	0.184923	-0.927734	0.075684	-0.182373	0.060604	-0.001551	0.087296	0.095197	-0.367770	-0.037111	-0.924286	-0.111826	-43.386456	-168.194597
29133		6.095725	-1.131826	8.820568	1.457576	1.426279	0.774087	-0.313556	-1.647373	0.089887	-0.929443	0.075439	-0.171875	0.060233	-0.011152	0.088721	0.094706	-0.375572	-0.036272	-0.921228	-0.345058	-44.334375	-168.120178
29134		6.493275	-0.415293	8.378107	1.197817	0.613312	0.709399	-0.256322	-1.632237	0.004899	-0.932373	0.082275	-0.137207	0.064246	-0.004044	0.084312	0.093927	-0.383237	-0.035848	-0.918162	-0.501826	-45.274077	-168.108772
29135		6.912202	0.761453	7.914784	0.990117	-0.651300	0.656096	-0.333209	-1.560927	-0.090410	-0.930908	0.077881	-0.125000	0.068505	0.007716	0.079671	0.092570	-0.390566	-0.035217	-0.915232	-0.649220	-46.173164	-168.172363
29136		7.279647	-0.033596	7.215606	0.248578	-0.011369	0.434041	-0.491117	-1.492331	-0.123743	-0.934570	0.077393	-0.108154	0.072255	-0.000203	0.072697	0.090758	-0.397625	-0.033895	-0.912419	-0.867765	-47.033586	-168.261417
29137		7.666616	-0.740484	6.837051	-0.267729	0.583108	0.466279	-0.497602	-1.353896	-0.168613	-0.942627	0.084229	-0.100342	0.076195	-0.007298	0.068906	0.088746	-0.404023	-0.032567	-0.909851	-1.062276	-47.815106	-168.387171
29138		5.646526	-1.163761	6.973510	1.209534	1.295138	-0.939918	-0.410506	-1.183435	-0.209066	-0.929199	0.086182	-0.090332	0.056039	-0.011553	0.070091	0.086750	-0.409583	-0.031640	-0.907587	-1.178643	-48.499900	-168.549199
29139		3.254219	-0.127464	10.747571	5.836397	1.077444	-0.278996	-0.232683	-0.852573	-0.232980	-0.934082	0.064941	-0.071777	0.032082	-0.001187	0.107615	0.085059	-0.413546	-0.031424	-0.905956	-1.171469	-48.995308	-168.738736
29140		-0.264845	1.902885	13.494685	10.573931	-0.129889	-1.211971	-0.200980	-0.519759	-0.309160	-0.941162	0.077637	-0.071533	-0.002970	0.019169	0.134920	0.083140	-0.415971	-0.031368	-0.905026	-1.088680	-49.300940	-169.002932
29141		-2.026637	2.254073	16.493204	14.032486	0.079773	-0.631374	-0.331816	-0.116495	-0.415603	-0.938477	0.075928	-0.069824	-0.020315	0.022856	0.164882	0.080529	-0.416604	-0.030773	-0.904991	-1.003247	-49.376303	-169.368823
29142		-2.144655	1.568490	18.765553	15.680448	0.965985	0.788956	-0.431883	0.388489	-0.578584	-0.937500	0.070557	-0.068848	-0.021036	0.016151	0.187662	0.077049	-0.414959	-0.029861	-0.906080	-0.861469	-49.163111	-169.884896
29143		-0.173694	0.818034	19.112271	14.473043	1.413202	2.617445	-0.470075	0.998758	-0.787243	-0.943848	0.078613	-0.088379	-0.000749	0.008634	0.191108	0.072634	-0.410523	-0.028972	-0.908491	-0.605926	-48.600951	-170.584269
29144		-1.818598	0.212461	16.733125	13.569073	1.795421	-0.014702	-0.607827	1.436895	-0.951564	-0.935791	0.053955	-0.112305	-0.016971	0.002716	0.167448	0.067248	-0.404090	-0.027635	-0.911825	-0.336903	-47.785609	-171.414842
29145		-0.586289	-0.012262	15.119931	11.406441	1.575365	0.003683	-0.869104	1.590593	-1.047336	-0.941162	0.041504	-0.131836	-0.004658	0.000561	0.151238	0.060912	-0.396999	-0.025245	-0.915448	-0.179612	-46.881218	-172.308678
29146		1.444048	-1.342641	13.956985	8.876219	2.438848	0.861783	-1.122790	1.704859	-1.099120	-0.942871	0.038574	-0.136719	0.015559	-0.012727	0.139513	0.053842	-0.389396	-0.021759	-0.919238	-0.158765	-45.909247	-173.228455
29147		2.265886	-2.732080	12.352515	6.870388	3.468946	0.480172	-1.228694	1.778628	-1.088027	-0.942139	0.029541	-0.154785	0.023611	-0.026689	0.123483	0.046619	-0.381440	-0.017742	-0.923047	-0.227430	-44.896512	-174.123497
29148		2.967339	-3.583994	10.965559	5.201974	4.042132	0.111590	-1.225087	1.751675	-0.991528	-0.935059	0.022217	-0.188965	0.030458	-0.035318	0.109609	0.039838	-0.373550	-0.013560	-0.926655	-0.368333	-43.898554	-174.928207
29149		3.838027	-4.223930	9.985256	3.742217	4.465033	0.103689	-1.168347	1.683034	-0.789026	-0.924561	0.026367	-0.202148	0.039055	-0.041809	0.099771	0.034091	-0.365943	-0.009275	-0.929966	-0.602727	-42.942370	-175.564026
29150		4.469235	-4.510523	9.236723	2.650233	4.594235	0.061691	-1.070749	1.620113	-0.517632	-0.939697	0.020508	-0.231445	0.045324	-0.044728	0.092242	0.029779	-0.358572	-0.004955	-0.933014	-0.933987	-42.020752	-175.985121
29151		4.877328	-4.516279	8.577319	1.800530	4.477990	-0.093663	-0.935169	1.535237	-0.197133	-0.937012	0.023926	-0.261230	0.049387	-0.044811	0.085606	0.027200	-0.351565	-0.000707	-0.935768	-1.354657	-41.147842	-176.161635
29152		5.302246	-4.216668	8.033322	1.026006	4.068656	-0.178379	-0.791004	1.451899	0.130959	-0.931396	0.024170	-0.274170	0.053632	-0.041815	0.080111	0.026407	-0.344888	0.003435	-0.938266	-1.853484	-40.316716	-176.095291
29153		5.734895	-3.742716	7.742195	0.410497	3.489294	-0.091943	-0.646576	1.364825	0.451600	-0.927979	0.038330	-0.291992	0.057960	-0.037047	0.077148	0.027367	-0.338588	0.007438	-0.940507	-2.416732	-39.529939	-175.798032
29154		6.203591	-3.174638	7.613494	-0.132688	2.807829	0.118300	-0.509818	1.290052	0.728590	-0.923584	0.056885	-0.315430	0.062640	-0.031325	0.075812	0.029862	-0.332574	0.011260	-0.942537	-3.021145	-38.774339	-175.307267
29155		6.525628	-2.421238	7.503878	-0.543157	1.939756	0.221978	-0.418035	1.220874	0.943753	-0.917969	0.061523	-0.339844	0.065826	-0.023746	0.074688	0.033526	-0.326855	0.014992	-0.944361	-3.657314	-38.048851	-174.672104
29156		6.764353	-1.825885	7.285982	-0.956687	1.225890	0.175087	-0.370196	1.156054	1.084244	-0.908203	0.064941	-0.362549	0.068160	-0.017756	0.072500	0.037934	-0.321388	0.018721	-0.946002	-4.314317	-37.347445	-173.948658
29157		7.077156	-1.475437	7.119984	-1.399255	0.741766	0.209636	-0.341670	1.085352	1.160263	-0.906006	0.092529	-0.385986	0.071240	-0.014221	0.070839	0.042752	-0.316236	0.022418	-0.947452	-4.972724	-36.678164	-173.183498
29158		7.365678	-1.273860	6.989764	-1.801841	0.402293	0.253208	-0.285777	1.033598	1.168736	-0.899902	0.104492	-0.403809	0.074089	-0.012207	0.069533	0.047701	-0.311281	0.025855	-0.948768	-5.588752	-36.029442	-172.424717
29159		7.606848	-0.910052	6.873443	-2.138156	-0.092846	0.254805	-0.214425	0.989636	1.126394	-0.883789	0.114746	-0.413330	0.076457	-0.008597	0.068366	0.052564	-0.306520	0.028871	-0.949973	-6.132756	-35.403870	-171.706757
29160		8.013778	-0.372488	6.673649	-2.634887	-0.773863	0.254776	-0.172915	0.989038	1.043798	-0.881592	0.118896	-0.427246	0.080484	-0.003248	0.066342	0.057074	-0.301731	0.031572	-0.951159	-6.606659	-34.777072	-171.061161
29161		8.112500	-0.076938	6.037148	-3.146656	-1.158323	-0.272188	-0.152224	1.000497	0.923332	-0.878906	0.140137	-0.442139	0.081428	-0.000348	0.059965	0.061059	-0.296900	0.033984	-0.952348	-7.009026	-34.149567	-170.507801
29162		7.821537	0.113009	5.179945	-3.461959	-1.362533	-1.200004	-0.133870	0.983910	0.774417	-0.861572	0.142334	-0.460693	0.078464	0.001468	0.051413	0.064344	-0.292142	0.036089	-0.953525	-7.335190	-33.537695	-170.066066
29163		7.815801	0.128772	4.465170	-3.929610	-1.418670	-1.838616	-0.124044	0.923570	0.607491	-0.848633	0.155029	-0.471924	0.078359	0.001553	0.044289	0.066874	-0.287702	0.037875	-0.954631	-7.588826	-32.972231	-169.736807
29164		8.181824	0.103327	4.078664	-4.514132	-1.484133	-2.001943	-0.116248	0.862102	0.430340	-0.846191	0.157227	-0.484619	0.081991	0.001233	0.040433	0.068569	-0.283566	0.039353	-0.955688	-7.771521	-32.452750	-169.527454
29165		8.474508	-0.064628	3.837707	-4.968368	-1.389899	-2.071084	-0.125708	0.808241	0.262131	-0.844727	0.163574	-0.495850	0.084900	-0.000511	0.038035	0.069466	-0.279730	0.040612	-0.956701	-7.898880	-31.977942	-169.427426
29166		8.849546	-0.179021	3.608091	-5.476158	-1.349391	-2.095485	-0.168754	0.756730	0.110891	-0.836426	0.167236	-0.507324	0.088632	-0.001711	0.035747	0.069582	-0.276170	0.041853	-0.957673	-7.998987	-31.542908	-169.426117
29167		9.002899	-0.711273	3.235744	-5.915614	-0.846596	-2.308251	-0.225223	0.696518	0.032213	-0.833496	0.167236	-0.512939	0.090142	-0.007062	0.032052	0.069262	-0.272942	0.043228	-0.958560	-8.106501	-31.149618	-169.471363
29168		8.954739	-1.314059	2.721415	-6.258398	-0.229786	-2.734580	-0.220981	0.615019	0.006599	-0.831543	0.168945	-0.526855	0.089631	-0.013108	0.026953	0.068837	-0.270097	0.044524	-0.959337	-8.206987	-30.803628	-169.527129
29169		9.033938	-1.455823	2.272114	-6.612764	-0.087654	-3.092759	-0.175983	0.526482	0.044946	-0.816162	0.170898	-0.533203	0.090402	-0.014518	0.022496	0.068681	-0.267658	0.045620	-0.959980	-8.298677	-30.505843	-169.548995
29170		9.091415	-1.703657	1.939591	-6.890493	0.154290	-3.346200	-0.124030	0.428109	0.128150	-0.816406	0.180176	-0.539795	0.090966	-0.016966	0.019212	0.069011	-0.265646	0.046548	-0.960470	-8.393167	-30.256081	-169.507721
29171		9.220479	-1.786488	1.828843	-7.089125	0.204577	-3.389621	-0.050212	0.312932	0.216750	-0.808350	0.184570	-0.538574	0.092253	-0.017760	0.018149	0.069896	-0.264147	0.047196	-0.960788	-8.479472	-30.064946	-169.397201
29172		9.347969	-1.649034	1.648086	-7.291975	0.034599	-3.516194	0.001706	0.201543	0.295108	-0.806396	0.179443	-0.542480	0.093520	-0.016353	0.016386	0.071252	-0.263141	0.047662	-0.960941	-8.566987	-29.929500	-169.224939
29173		9.000351	-1.417621	1.301861	-7.156023	-0.148441	-4.026496	0.013300	0.060725	0.367481	-0.808594	0.180420	-0.545898	0.090033	-0.014012	0.012990	0.073004	-0.262794	0.048114	-0.960882	-8.677517	-29.867980	-168.991940
29174		8.747931	-1.189654	1.034918	-7.050144	-0.351547	-4.410429	0.002929	-0.118824	0.416872	-0.802002	0.183594	-0.546631	0.087498	-0.011714	0.010401	0.075020	-0.263297	0.048619	-0.960564	-8.819313	-29.903013	-168.709091
29175		8.640815	-1.396301	1.053336	-6.962640	-0.169856	-4.407554	0.007653	-0.308614	0.460180	-0.806641	0.197754	-0.555176	0.086424	-0.013765	0.010666	0.077298	-0.264702	0.049082	-0.959973	-8.982393	-30.041361	-168.377898
29176		8.792557	-1.817606	1.270641	-7.010620	0.164453	-4.063674	0.096946	-0.479264	0.482820	-0.814697	0.196777	-0.542480	0.087938	-0.017970	0.012908	0.079844	-0.266881	0.049084	-0.959161	-9.112596	-30.273348	-168.013091
29177		8.806543	-1.850034	1.427609	-6.917122	0.144006	-3.884092	0.229959	-0.614033	0.478609	-0.819580	0.196289	-0.545898	0.088065	-0.018306	0.014525	0.082580	-0.269652	0.048385	-0.958190	-9.174153	-30.581573	-167.635348
29178		9.675679	-15.075574	-3.574314	-12.065791	13.150373	-5.920544	1.697527	-0.920671	0.134863	-0.830811	0.193848	-0.543213	0.097025	-0.150382	-0.036574	0.085714	-0.273356	0.040066	-0.957248	-8.296908	-31.095755	-167.454357
29179		5.860144	2.154761	0.354742	-4.363035	-3.193694	-6.670802	2.939349	-1.982457	-0.709392	-0.842773	0.175537	-0.535645	0.058636	0.021279	0.004443	0.086703	-0.281719	0.024182	-0.955266	-6.455263	-32.278784	-167.757924
29180		13.462974	-1.967611	20.203433	-0.377506	0.065384	14.540395	3.607171	-1.377386	-1.559963	-0.860840	0.141113	-0.525879	0.133058	-0.024368	0.202543	0.084462	-0.286902	0.004171	-0.954220	-3.864261	-33.149840	-168.732797
29181		8.541024	21.314680	17.773457	6.173929	-21.412085	8.802074	2.406381	-0.918789	-1.456544	-0.868652	0.118408	-0.524658	0.086124	0.210359	0.180671	0.080957	-0.290305	-0.009778	-0.953453	-1.953869	-33.722272	-169.701197
29182		15.567839	17.406224	13.086667	-2.650348	-18.476788	9.374823	1.136067	-1.139671	-0.880189	-0.868164	0.100342	-0.513184	0.155687	0.172627	0.132737	0.078331	-0.295262	-0.016921	-0.952049	-0.974754	-34.392539	-170.291356
29183		14.547847	9.527019	11.848234	-3.670726	-10.435833	8.087083	0.358528	-0.417180	-0.541246	-0.884033	0.093506	-0.516602	0.145487	0.094664	0.118956	0.076229	-0.297096	-0.019580	-0.951598	-0.559218	-34.639967	-170.665703
29184		7.314461	2.510209	7.313853	-1.409970	-2.838822	0.348405	0.104693	-0.462753	-0.143248	-0.881348	0.089355	-0.505127	0.072993	0.025011	0.073321	0.075636	-0.299284	-0.020460	-0.950942	-0.444496	-34.910586	-170.764952
29185		10.023025	3.323499	7.107308	-3.548978	-4.002779	1.737328	-0.021285	-0.364071	0.038055	-0.898682	0.090576	-0.495850	0.100094	0.033262	0.071252	0.075729	-0.301062	-0.020429	-0.950373	-0.474034	-35.123265	-170.738228
29186		6.320458	1.118944	6.846419	-1.018017	-1.365824	-0.583832	-0.149695	-0.247254	0.110888	-0.892090	0.088379	-0.488037	0.063114	0.011276	0.068534	0.075982	-0.302346	-0.019638	-0.949962	-0.606019	-35.269206	-170.661301
29187		5.980115	-2.635589	8.170465	-0.547712	2.483477	0.336050	-0.147306	-0.228505	0.116169	-0.895264	0.096436	-0.494873	0.059723	-0.026261	0.081792	0.076269	-0.303535	-0.018840	-0.949576	-0.739588	-35.403608	-170.579759
29188		6.138665	-5.148170	8.569940	-0.817653	4.966735	0.784184	-0.047803	-0.135115	0.048212	-0.895020	0.090332	-0.479492	0.061341	-0.051446	0.085753	0.076389	-0.304240	-0.018584	-0.949346	-0.787863	-35.485559	-170.547076
29189		5.721095	-4.870914	7.623693	-0.975548	4.674509	-0.232777	0.098163	0.000967	-0.064897	-0.895020	0.082031	-0.486572	0.057195	-0.048765	0.076213	0.076211	-0.304228	-0.019139	-0.949353	-0.705996	-35.489760	-170.594672
29190		5.761627	-2.014874	7.927159	-0.391851	1.888606	0.004414	0.170421	0.063968	-0.117212	-0.893066	0.090088	-0.481201	0.057630	-0.020250	0.079236	0.075894	-0.303890	-0.020092	-0.949467	-0.560849	-35.458770	-170.680501
29191		5.525323	0.598717	8.011428	0.245287	-0.636780	-0.086180	0.145265	0.092033	-0.114815	-0.895020	0.079102	-0.480225	0.055293	0.005897	0.080093	0.075559	-0.303423	-0.020912	-0.949625	-0.431364	-35.410875	-170.763744
29192		5.715791	0.960362	7.580284	-0.108342	-1.041635	-0.328147	0.105501	0.077702	-0.091693	-0.897217	0.078613	-0.484619	0.057192	0.009537	0.075786	0.075265	-0.303046	-0.021513	-0.949756	-0.334049	-35.371612	-170.831358
29193		6.025924	1.509792	7.427481	-0.366104	-1.627641	-0.274582	0.081242	0.034263	-0.051116	-0.902588	0.078613	-0.469971	0.060276	0.015052	0.074271	0.075130	-0.302883	-0.021954	-0.949808	-0.267514	-35.356393	-170.869360
29194		5.633535	1.692745	7.999409	0.302513	-1.701896	-0.034923	0.034052	0.027507	-0.011868	-0.894287	0.080811	-0.485352	0.056347	0.016910	0.079989	0.075100	-0.302780	-0.022113	-0.949840	-0.243703	-35.345582	-170.880909
29195		4.745630	1.077087	8.349740	1.120276	-0.948827	-0.260515	-0.022625	0.023551	0.035856	-0.902832	0.081055	-0.471924	0.047464	0.010789	0.083491	0.075219	-0.302717	-0.021933	-0.949854	-0.272061	-35.336254	-170.857765
29196		4.754340	0.480492	8.004979	0.824116	-0.395365	-0.534820	-0.038944	-0.013959	0.053008	-0.897461	0.072266	-0.467285	0.047537	0.004833	0.080052	0.075383	-0.302845	-0.021664	-0.949807	-0.316477	-35.348993	-170.823438
29197		5.202096	-0.216208	7.978148	0.343233	0.227629	-0.294821	-0.029088	-0.037770	0.038192	-0.902344	0.076172	-0.471436	0.052006	-0.002141	0.079792	0.075497	-0.303076	-0.021473	-0.949728	-0.349635	-35.374766	-170.798412
29198		4.974638	-0.348758	7.995534	0.520670	0.387231	-0.411827	-0.007886	-0.044991	0.027804	-0.906250	0.069824	-0.458008	0.049729	-0.003478	0.079967	0.075581	-0.303337	-0.021400	-0.949640	-0.366059	-35.405330	-170.782131
29199		5.538963	-0.401652	7.819541	-0.036529	0.351186	-0.228221	0.023678	-0.066633	0.003524	-0.904297	0.068604	-0.461914	0.055364	-0.004025	0.078213	0.075607	-0.303681	-0.021523	-0.949525	-0.354972	-35.447754	-170.781318
29200		5.538515	-0.443850	7.873077	-0.005433	0.401905	-0.184815	0.050244	-0.068020	-0.017891	-0.911865	0.071777	-0.459229	0.055358	-0.004463	0.078748	0.075556	-0.304025	-0.021804	-0.949413	-0.319484	-35.491666	-170.797503
29201		5.496153	-0.712986	8.136736	0.143472	0.702945	0.006060	0.061913	-0.055877	-0.030440	-0.913818	0.071533	-0.456787	0.054938	-0.007163	0.081380	0.075480	-0.304299	-0.022156	-0.949323	-0.272549	-35.528029	-170.820693
29202		5.595314	-0.559514	8.145062	0.097206	0.547518	0.069286	0.074623	-0.045422	-0.041215	-0.912109	0.072754	-0.450439	0.055933	-0.005637	0.081461	0.075359	-0.304524	-0.022579	-0.949251	-0.213469	-35.559022	-170.853371
29203		6.355197	-0.181397	7.717513	-0.695094	0.047565	0.162081	0.083224	-0.059106	-0.050548	-0.917236	0.066650	-0.455566	0.063529	-0.001862	0.077193	0.075220	-0.304803	-0.023064	-0.949160	-0.145999	-35.597233	-170.890829
29204		6.275092	0.049635	7.839409	-0.519044	-0.149010	0.214473	0.080423	-0.062826	-0.045755	-0.921387	0.055908	-0.438232	0.062726	0.000450	0.078414	0.075084	-0.305107	-0.023528	-0.949062	-0.081657	-35.638153	-170.926867
29205		6.149693	0.089789	8.013884	-0.305465	-0.147120	0.283557	0.071070	-0.074478	-0.040883	-0.914551	0.061035	-0.438965	0.061467	0.000857	0.080162	0.074970	-0.305465	-0.023946	-0.948945	-0.025003	-35.685099	-170.957642
29206		6.225061	-0.122188	7.831130	-0.496580	0.045237	0.179522	0.071088	-0.092911	-0.034769	-0.919678	0.059814	-0.440918	0.062214	-0.001261	0.078340	0.074862	-0.305917	-0.024359	-0.948798	0.029671	-35.743220	-170.986770
29207		6.102981	-0.252688	7.735130	-0.465575	0.190143	0.030561	0.071285	-0.101362	-0.041973	-0.922852	0.051758	-0.438232	0.060990	-0.002567	0.077381	0.074740	-0.306402	-0.024790	-0.948640	0.087050	-35.805520	-171.018491
29208		5.715659	-0.441804	7.869227	-0.098189	0.448836	-0.087587	0.082847	-0.103419	-0.055073	-0.912598	0.063965	-0.429932	0.057115	-0.004466	0.078720	0.074552	-0.306897	-0.025293	-0.948481	0.157032	-35.869607	-171.062256
29209		5.742551	-0.261402	7.760038	-0.145169	0.268897	-0.160226	0.092928	-0.111290	-0.066270	-0.924805	0.057129	-0.417969	0.057381	-0.002669	0.077631	0.074346	-0.307417	-0.025868	-0.948313	0.237102	-35.937485	-171.111425
29210		5.927256	-0.174648	7.735080	-0.284144	0.170980	-0.071828	0.097387	-0.110212	-0.080147	-0.917725	0.051758	-0.417480	0.059229	-0.001808	0.077383	0.074082	-0.307934	-0.026486	-0.948149	0.325791	-36.005260	-171.170582
29211		5.719178	-0.104552	7.993848	0.052407	0.165913	0.015397	0.092570	-0.102517	-0.076353	-0.921875	0.047363	-0.417969	0.057150	-0.001104	0.079967	0.073829	-0.308412	-0.027071	-0.947997	0.410124	-36.067956	-171.227188
29212		5.549505	-0.032535	7.782820	0.085254	0.107552	-0.254889	0.081109	-0.094440	-0.066803	-0.928223	0.041260	-0.409180	0.055458	-0.000375	0.077854	0.073605	-0.308862	-0.027585	-0.947853	0.484156	-36.126616	-171.277130
29213		5.540107	0.057283	7.911421	0.188937	0.043654	-0.156134	0.078438	-0.077961	-0.065122	-0.931396	0.045166	-0.406250	0.055370	0.000524	0.079136	0.073387	-0.309229	-0.028076	-0.947736	0.555859	-36.175180	-171.325898
29214		6.007460	0.152523	7.567050	-0.362764	-0.130360	-0.157405	0.075290	-0.079072	-0.068398	-0.928955	0.045898	-0.399414	0.060045	0.001476	0.075695	0.073149	-0.309608	-0.028560	-0.947616	0.627376	-36.224917	-171.377108
29215		5.653357	0.170821	7.746623	0.033400	-0.077074	-0.221404	0.077023	-0.069570	-0.062709	-0.927979	0.037354	-0.397461	0.056507	0.001661	0.077487	0.072941	-0.309936	-0.029038	-0.947510	0.697403	-36.268591	-171.424302
29216		5.186432	0.273024	8.148586	0.662355	-0.071519	-0.172706	0.071494	-0.076989	-0.053075	-0.925537	0.038574	-0.388428	0.051834	0.002687	0.081507	0.072770	-0.310308	-0.029479	-0.947388	0.760481	-36.317152	-171.464810
29217		5.154254	0.253036	7.995249	0.602843	-0.054060	-0.315950	0.068891	-0.093108	-0.045672	-0.925781	0.042236	-0.390869	0.051506	0.002491	0.079977	0.072626	-0.310753	-0.029901	-0.947240	0.818977	-36.374361	-171.500296
29218		5.449431	0.398781	7.819863	0.297002	-0.241825	-0.280695	0.070385	-0.105552	-0.039825	-0.920898	0.038330	-0.375244	0.054454	0.003949	0.078229	0.072512	-0.311262	-0.030326	-0.947068	0.876181	-36.439306	-171.531860
29219		5.572720	0.542861	7.825444	0.234001	-0.389494	-0.201183	0.061810	-0.100049	-0.034586	-0.924561	0.038818	-0.379395	0.055689	0.005395	0.078284	0.072409	-0.311744	-0.030700	-0.946906	0.926149	-36.500536	-171.559722
29220		5.753929	0.389525	7.667880	-0.017061	-0.267725	-0.221867	0.056924	-0.100416	-0.033322	-0.924072	0.034668	-0.373535	0.057501	0.003864	0.076709	0.072305	-0.312234	-0.031050	-0.946741	0.973030	-36.562545	-171.586787
29221		5.802465	0.263080	7.841414	0.035018	-0.123384	-0.055171	0.046266	-0.083527	-0.029163	-0.926514	0.026367	-0.372314	0.057992	0.002604	0.078439	0.072206	-0.312644	-0.031335	-0.946603	1.011808	-36.614328	-171.610740
29222		5.613246	0.188097	7.956405	0.249075	-0.009038	-0.076869	0.035757	-0.081116	-0.028532	-0.927002	0.031250	-0.354980	0.056100	0.001859	0.079587	0.072094	-0.313051	-0.031570	-0.946469	1.044508	-36.665299	-171.634285
29223		5.721151	-0.031009	7.879842	0.091556	0.192261	-0.077232	0.034821	-0.071538	-0.029376	-0.930176	0.033691	-0.342285	0.057183	-0.000332	0.078819	0.071978	-0.313409	-0.031797	-0.946352	1.076823	-36.710188	-171.658339
29224		6.256920	0.256022	7.626331	-0.430991	-0.174462	0.044255	0.036156	-0.067652	-0.035883	-0.933105	0.029297	-0.356201	0.062544	0.002535	0.076285	0.071835	-0.313751	-0.032041	-0.946242	1.112872	-36.753336	-171.687055
29225		5.987700	0.193948	7.757347	-0.144084	-0.062114	-0.012587	0.037124	-0.057056	-0.038254	-0.927734	0.031250	-0.352295	0.059855	0.001914	0.077591	0.071683	-0.314037	-0.032288	-0.946150	1.150270	-36.789805	-171.717349
29226		5.853150	0.263389	7.927278	0.079405	-0.091270	0.044079	0.035537	-0.062569	-0.033186	-0.918701	0.024170	-0.341797	0.058507	0.002610	0.079292	0.071552	-0.314355	-0.032523	-0.946046	1.184858	-36.830052	-171.744160
29227		5.559460	0.268341	8.068279	0.402434	-0.042372	-0.019170	0.028681	-0.067727	-0.019083	-0.924805	0.033447	-0.339844	0.055568	0.002667	0.080702	0.071475	-0.314698	-0.032703	-0.945932	1.209367	-36.872835	-171.760974
29228		6.098266	0.477629	8.051414	0.007621	-0.308354	0.294097	0.021950	-0.109598	-0.011342	-0.930908	0.032227	-0.331787	0.060939	0.004764	0.080548	0.071418	-0.315247	-0.032857	-0.945748	1.227290	-36.940258	-171.772933
29229		5.837767	0.166463	8.001840	0.149112	0.026943	0.092549	0.010643	-0.148133	0.005256	-0.925781	0.034424	-0.316895	0.058318	0.001662	0.080062	0.071415	-0.315981	-0.032942	-0.945500	1.231775	-37.029392	-171.773590
29230		6.152892	0.162100	7.821142	-0.189037	-0.020199	0.138113	0.017723	-0.218077	-0.004085	-0.923340	0.023438	-0.314209	0.061444	0.001613	0.078279	0.071368	-0.317045	-0.033102	-0.945142	1.245222	-37.159037	-171.782083
29231		6.154037	-0.005112	8.085704	-0.033174	0.178888	0.346921	0.016847	-0.285372	-0.003134	-0.921631	0.029053	-0.312500	0.061425	-0.000059	0.080945	0.071313	-0.318422	-0.033279	-0.944677	1.258252	-37.326679	-171.790981
29232		5.600176	-0.636024	8.184169	0.396234	0.882259	0.077289	0.008173	-0.371005	-0.016792	-0.926025	0.034912	-0.305176	0.055849	-0.006368	0.081945	0.071165	-0.320209	-0.033469	-0.944077	1.273388	-37.543761	-171.811196
29233		5.706023	-1.029015	8.118121	0.253323	1.260748	0.080119	0.014228	-0.456312	-0.062402	-0.916748	0.023682	-0.292725	0.056872	-0.010314	0.081310	0.070796	-0.322382	-0.033789	-0.943354	1.313020	-37.808549	-171.865985
29234		5.918030	0.564631	8.124769	0.387386	-0.324484	0.242071	0.003925	-0.516529	-0.059205	-0.923584	0.028320	-0.283691	0.058972	0.005627	0.081400	0.070416	-0.324846	-0.034078	-0.942526	1.346563	-38.108387	-171.919906
29235		5.698899	2.779195	8.722000	1.319644	-2.416176	0.613002	-0.143857	-0.603224	-0.060202	-0.923340	0.030762	-0.273438	0.056734	0.027838	0.087371	0.069775	-0.327763	-0.033701	-0.941577	1.297000	-38.457334	-171.976186
29236		4.426937	-2.375599	8.592334	1.506389	2.798642	-0.380441	-0.230448	-0.792842	-0.041942	-0.925049	0.029053	-0.267090	0.043923	-0.023666	0.086125	0.069045	-0.331606	-0.032954	-0.940311	1.191680	-38.915703	-172.021841
29237		5.454975	2.888219	8.716323	1.681676	-2.503197	0.433187	-0.093554	-0.982378	0.092221	-0.921387	0.031006	-0.257080	0.054107	0.028948	0.087416	0.069141	-0.336304	-0.032690	-0.938643	1.103572	-39.483727	-171.970423
29238		5.258746	0.170576	8.177129	1.188865	0.142202	-0.163115	-0.210701	-1.138877	0.159541	-0.929199	0.033936	-0.238037	0.052119	0.001834	0.082067	0.069328	-0.341781	-0.031819	-0.936679	0.915875	-40.142447	-171.868669
29239		5.649695	1.308841	8.060007	1.112562	-1.045634	-0.001302	-0.165710	-1.280330	0.231804	-0.925537	0.047607	-0.235107	0.055964	0.013220	0.080949	0.069904	-0.347900	-0.031081	-0.934405	0.715813	-40.882067	-171.709948
29240		5.762345	0.417592	8.067736	1.033161	-0.185224	0.054630	-0.212320	-1.391294	0.259191	-0.931396	0.043213	-0.204590	0.057055	0.004336	0.081071	0.070508	-0.354544	-0.030117	-0.931891	0.470727	-41.685372	-171.525605
29241		5.786907	0.133438	8.326536	1.289503	0.110189	0.245162	-0.203417	-1.495230	0.274104	-0.942383	0.042725	-0.192871	0.057242	0.001498	0.083693	0.071176	-0.361649	-0.029201	-0.929135	0.216315	-42.547244	-171.323039
29242		6.103767	-0.403173	8.373244	1.168776	0.600854	0.473241	-0.237065	-1.590607	0.243841	-0.932617	0.059570	-0.171143	0.060374	-0.003858	0.084219	0.071625	-0.369184	-0.028217	-0.926162	-0.048810	-43.463429	-171.136124
29243		6.389730	-1.270188	8.736436	1.251210	1.458127	0.914520	-0.220998	-1.640676	0.160460	-0.940186	0.054443	-0.155273	0.063188	-0.012554	0.087899	0.071706	-0.376906	-0.027476	-0.923063	-0.266970	-44.407466	-171.007099
29244		6.238613	-1.040625	8.794564	1.612345	1.258478	0.825049	-0.146834	-1.659591	0.063425	-0.927734	0.057373	-0.141357	0.061657	-0.010322	0.088467	0.071471	-0.384651	-0.027266	-0.919887	-0.392942	-45.362710	-170.950415
29245		6.531782	-0.399443	8.468063	1.455182	0.572354	0.774285	-0.142156	-1.676672	-0.043357	-0.927002	0.061768	-0.128906	0.064604	-0.003948	0.085227	0.070746	-0.392429	-0.027286	-0.916651	-0.456509	-46.327793	-170.978138
29246		7.627291	0.251295	7.726318	0.454979	-0.248269	1.034585	-0.211880	-1.672715	-0.132146	-0.933594	0.049805	-0.114258	0.075625	0.002545	0.077895	0.069473	-0.400175	-0.027159	-0.913398	-0.505953	-47.291328	-171.079389
29247		8.018868	-0.519225	7.554325	0.133061	0.472055	1.205318	-0.332036	-1.608410	-0.160503	-0.942871	0.054688	-0.091064	0.079574	-0.005130	0.076193	0.067834	-0.407635	-0.026513	-0.910236	-0.605046	-48.217994	-171.205231
29248		7.074901	-0.607750	7.355061	0.761344	0.650411	0.361587	-0.292172	-1.487838	-0.217230	-0.935059	0.058350	-0.065674	0.070193	-0.006046	0.074083	0.066029	-0.414501	-0.026124	-0.907274	-0.641599	-49.076296	-171.382035
29249		7.093460	1.017397	7.170175	0.988765	-0.964513	0.229924	-0.336523	-1.454237	-0.241213	-0.944336	0.057129	-0.059570	0.070423	0.010210	0.072198	0.064025	-0.421200	-0.025569	-0.904344	-0.684079	-49.915325	-171.582388
29250		7.175554	1.111934	6.909721	0.888204	-1.085303	0.112080	-0.512418	-1.355278	-0.252372	-0.938477	0.052002	-0.050781	0.071299	0.011207	0.069553	0.061608	-0.427485	-0.024211	-0.901596	-0.815617	-50.698170	-171.795417
29251		5.056375	-0.942539	7.909117	2.836567	1.231533	-0.899471	-0.549361	-1.199600	-0.259420	-0.937012	0.059082	-0.045410	0.050076	-0.009273	0.079418	0.059097	-0.433055	-0.022650	-0.899143	-0.959807	-51.391987	-172.017343
29252		2.553566	-0.470014	11.884531	7.625444	1.329549	-0.428246	-0.278282	-0.788367	-0.278582	-0.932373	0.052246	-0.031494	0.025060	-0.004570	0.118951	0.057131	-0.436680	-0.022229	-0.897526	-0.926932	-51.850694	-172.265043
29253		2.522082	0.531424	14.359040	9.766088	0.548981	1.010763	-0.147412	-0.483227	-0.310678	-0.943604	0.056641	-0.020752	0.024882	0.005381	0.143647	0.055340	-0.438889	-0.022377	-0.896557	-0.788958	-52.134473	-172.549893
29254		2.569333	0.027036	15.724503	10.767253	1.161312	1.874047	-0.076071	0.140190	-0.377338	-0.937988	0.042969	-0.017822	0.025804	0.000282	0.157227	0.053475	-0.438271	-0.022819	-0.896961	-0.553391	-52.060806	-172.906039
29255		0.285016	-0.238267	14.954898	11.490380	1.523027	-0.355532	-0.029138	0.640428	-0.438771	-0.941650	0.044922	-0.033936	0.003324	-0.002368	0.149539	0.051495	-0.435387	-0.023471	-0.898463	-0.246412	-51.699892	-173.320009
29256		0.514932	-0.084284	14.481220	10.924349	1.297337	-0.381253	-0.077908	0.944987	-0.485286	-0.945068	0.036133	-0.041748	0.005831	-0.000800	0.144786	0.049234	-0.431128	-0.023927	-0.900629	0.059013	-51.162607	-173.770149
29257		1.342208	-0.664724	14.207657	10.028993	1.771657	0.206233	-0.144802	1.279862	-0.543520	-0.935791	0.044922	-0.070068	0.014313	-0.006583	0.141992	0.046605	-0.425359	-0.024123	-0.903502	0.354606	-50.432421	-174.261243
29258		1.281897	-1.209578	13.165834	9.082094	2.202946	-0.373150	-0.172452	1.546394	-0.609385	-0.943604	0.025879	-0.088867	0.013800	-0.012023	0.131565	0.043649	-0.418352	-0.024271	-0.906911	0.662519	-49.546637	-174.794755
29259		1.596176	-1.087230	12.337827	8.123068	1.965153	-0.533552	-0.243118	1.682617	-0.650565	-0.936768	0.029541	-0.095947	0.016964	-0.010777	0.123252	0.040372	-0.410713	-0.024153	-0.910550	0.937370	-48.581677	-175.345614
29260		2.215393	-1.162584	11.526584	6.954044	1.906063	-0.478523	-0.396207	1.741544	-0.665351	-0.943604	0.023438	-0.123291	0.023118	-0.011474	0.115090	0.036717	-0.402789	-0.023354	-0.914258	1.114935	-47.580151	-175.891989
29261		2.788360	-1.690542	10.731106	5.791628	2.298618	-0.487449	-0.564087	1.743694	-0.660734	-0.947021	0.017578	-0.143555	0.028763	-0.016697	0.107110	0.032741	-0.394860	-0.021776	-0.917899	1.177095	-46.577926	-176.420954
29262		3.290975	-2.223496	9.981494	4.725072	2.704410	-0.551899	-0.689506	1.697427	-0.651651	-0.937012	0.011963	-0.154297	0.033684	-0.022000	0.099607	0.028552	-0.387116	-0.019609	-0.921380	1.148999	-45.600738	-176.933190
29263		3.865757	-2.790773	9.417322	3.756588	3.160246	-0.468306	-0.763778	1.623220	-0.614586	-0.940430	0.016846	-0.181396	0.039335	-0.027669	0.093962	0.024379	-0.379704	-0.017038	-0.924630	1.046909	-44.668339	-177.409410
29264		4.579128	-3.190217	8.989168	2.807804	3.460143	-0.216173	-0.803081	1.545393	-0.530448	-0.932861	0.007568	-0.206055	0.046401	-0.031664	0.089662	0.020513	-0.372618	-0.014132	-0.927651	0.867548	-43.780544	-177.815100
29265		5.107048	-3.504106	8.591595	2.023956	3.688078	-0.092789	-0.815087	1.469195	-0.379026	-0.941162	0.003906	-0.225586	0.051634	-0.034789	0.085680	0.017319	-0.365881	-0.010896	-0.930437	0.595026	-42.940284	-178.101298
29266		5.547916	-3.792827	8.322377	1.396031	3.899318	0.049961	-0.786728	1.394060	-0.173771	-0.933350	0.004395	-0.237793	0.056025	-0.037650	0.082983	0.015127	-0.359463	-0.007419	-0.933007	0.229440	-42.143391	-178.230721
29267		5.910884	-3.767782	8.348692	1.032908	3.803238	0.351085	-0.718366	1.327435	0.054529	-0.929688	0.000977	-0.261719	0.059672	-0.037362	0.083227	0.014119	-0.353352	-0.003859	-0.935376	-0.210727	-41.387083	-178.190845
29268		6.221669	-3.521711	8.414002	0.730707	3.480062	0.640085	-0.636389	1.275842	0.280888	-0.936768	0.007813	-0.283691	0.062801	-0.034862	0.083852	0.014313	-0.347447	-0.000281	-0.937590	-0.711458	-40.657329	-177.987243
29269		6.422676	-3.047837	8.297559	0.388685	2.921767	0.708706	-0.542562	1.262752	0.501815	-0.929443	0.020752	-0.308594	0.064825	-0.030092	0.082650	0.015705	-0.341592	0.003236	-0.939711	-1.256248	-39.933271	-177.628657
29270		6.319552	-2.474003	7.995371	0.159141	2.265730	0.425596	-0.468522	1.241279	0.719924	-0.922852	0.034668	-0.333252	0.063778	-0.024324	0.079616	0.018247	-0.335797	0.006781	-0.941733	-1.851011	-39.213669	-177.120483
29271		6.366635	-1.876491	7.755686	-0.139255	1.576360	0.271930	-0.401880	1.214867	0.913732	-0.919678	0.049316	-0.335938	0.064220	-0.018317	0.077205	0.021814	-0.330107	0.010329	-0.943635	-2.482413	-38.502607	-176.484328
29272		6.615962	-1.280895	7.538984	-0.573398	0.872482	0.244937	-0.347919	1.184460	1.072014	-0.908936	0.055908	-0.364746	0.066672	-0.012322	0.075018	0.026217	-0.324511	0.013886	-0.945416	-3.139137	-37.797194	-175.748146
29273		6.577587	-0.915609	7.144976	-0.888193	0.410054	-0.107295	-0.300722	1.155531	1.197873	-0.897705	0.075684	-0.382324	0.066240	-0.008653	0.071081	0.031292	-0.319029	0.017413	-0.947068	-3.806391	-37.099092	-174.937468
29274		6.594140	-0.566568	6.657370	-1.286719	-0.037822	-0.514009	-0.241307	1.089543	1.264945	-0.890625	0.078613	-0.398193	0.066337	-0.005167	0.066219	0.036783	-0.313808	0.020760	-0.948547	-4.452832	-36.426837	-174.092751
29275		6.761575	-0.242669	6.333613	-1.689943	-0.471863	-0.712559	-0.181005	1.024495	1.260447	-0.886230	0.100586	-0.418945	0.067952	-0.001942	0.062991	0.042351	-0.308877	0.023795	-0.949861	-5.047128	-35.786415	-173.263676
29276		6.978580	-0.090826	6.001907	-2.135074	-0.734472	-0.888989	-0.105725	0.971603	1.184749	-0.881104	0.117188	-0.429932	0.070080	-0.000462	0.059679	0.047662	-0.304157	0.026351	-0.951064	-5.554278	-35.172085	-172.500390
29277		7.066046	0.110799	5.674216	-2.457928	-1.022645	-1.149560	-0.016448	0.919964	1.029902	-0.874756	0.117188	-0.444580	0.070913	0.001477	0.056416	0.052395	-0.299680	0.028225	-0.952182	-5.937415	-34.592939	-171.850449
29278		7.030988	0.447659	5.366441	-2.646343	-1.415127	-1.480374	0.029299	0.861399	0.835340	-0.862793	0.130371	-0.456299	0.070521	0.004763	0.053362	0.056264	-0.295471	0.029580	-0.953234	-6.211473	-34.054300	-171.340146
29279		7.288928	0.494220	5.413725	-2.888233	-1.548761	-1.330940	0.018602	0.782476	0.626464	-0.855957	0.136475	-0.474365	0.073084	0.005166	0.053852	0.059144	-0.291677	0.030647	-0.954195	-6.408011	-33.573642	-170.971435
29280		7.733055	0.265278	5.632867	-3.212307	-1.427716	-0.910893	-0.025137	0.714467	0.416993	-0.847412	0.138428	-0.487549	0.077525	0.002821	0.056052	0.060962	-0.288234	0.031603	-0.955095	-6.549869	-33.142832	-170.744783
29281		8.187864	-0.122854	5.644510	-3.678703	-1.137231	-0.642620	-0.077421	0.668042	0.243587	-0.839844	0.152344	-0.498535	0.082068	-0.001107	0.056172	0.061890	-0.285064	0.032538	-0.955955	-6.656832	-32.750970	-170.633365
29282		8.347243	-0.620920	5.317620	-4.097579	-0.681781	-0.808036	-0.130758	0.648195	0.138620	-0.840088	0.141846	-0.505615	0.083648	-0.006117	0.052909	0.062240	-0.282007	0.033576	-0.956802	-6.756063	-32.375869	-170.592939
29283		8.251941	-1.112306	4.768568	-4.418908	-0.185128	-1.297426	-0.157408	0.617842	0.077038	-0.831055	0.157959	-0.509521	0.082670	-0.011054	0.047439	0.062265	-0.279123	0.034640	-0.957608	-6.848756	-32.023547	-170.592005
29284		8.065964	-1.553806	4.390707	-4.557244	0.274336	-1.694286	-0.154545	0.554132	0.067407	-0.824219	0.144043	-0.524170	0.080786	-0.015477	0.043695	0.062257	-0.276532	0.035662	-0.958323	-6.939130	-31.706894	-170.593301
29285		7.935643	-2.055344	4.267247	-4.603153	0.778955	-1.836955	-0.109194	0.486713	0.096655	-0.818115	0.155518	-0.526611	0.079470	-0.020492	0.042490	0.062465	-0.274253	0.036481	-0.958933	-7.015988	-31.427781	-170.569831
29286		7.818224	-2.097845	4.160687	-4.600318	0.825442	-2.002920	-0.041122	0.433042	0.181794	-0.819824	0.156982	-0.535645	0.078291	-0.020899	0.041442	0.063181	-0.272184	0.037078	-0.959453	-7.085626	-31.172106	-170.486083
29287		7.828729	-1.993117	4.091642	-4.667951	0.701434	-2.084744	0.005346	0.399022	0.305706	-0.804688	0.159424	-0.534668	0.078399	-0.019812	0.040760	0.064564	-0.270248	0.037605	-0.959887	-7.171476	-30.927932	-170.317594
29288		7.614421	-1.826465	3.819703	-4.642197	0.547609	-2.460446	0.027808	0.347251	0.447916	-0.797852	0.166260	-0.552002	0.076251	-0.018099	0.038062	0.066668	-0.268517	0.038204	-0.960205	-7.294321	-30.701749	-170.051544
29289		7.673975	-1.594739	3.642999	-4.785015	0.276448	-2.620226	0.031831	0.277850	0.585316	-0.795410	0.166504	-0.544922	0.076837	-0.015728	0.036321	0.069451	-0.267097	0.038940	-0.960375	-7.462087	-30.505227	-169.690126
29290		8.014399	-1.553223	3.556578	-5.133939	0.136253	-2.538338	0.042611	0.212786	0.682546	-0.790771	0.168945	-0.550537	0.080234	-0.015266	0.035477	0.072727	-0.265957	0.039736	-0.960416	-7.657835	-30.336588	-169.260183
29291		8.061898	-1.332502	3.467178	-5.209794	-0.141743	-2.627373	0.063157	0.170145	0.727062	-0.789063	0.182373	-0.547607	0.080696	-0.013043	0.034599	0.076252	-0.265008	0.040471	-0.960374	-7.856213	-30.188196	-168.798728
29292		7.813773	-1.137623	3.261430	-5.091194	-0.341134	-2.960735	0.054290	0.106164	0.728879	-0.799316	0.181152	-0.557617	0.078196	-0.011100	0.032570	0.079786	-0.264362	0.041232	-0.960233	-8.062262	-30.073984	-168.331248
29293		7.897181	-1.208676	3.087442	-5.264328	-0.334647	-3.064852	0.047551	0.009591	0.704232	-0.795410	0.182373	-0.562012	0.079015	-0.011816	0.030868	0.083210	-0.264187	0.041948	-0.959959	-8.267008	-30.015677	-167.871906
29294		8.164701	-1.218340	3.014539	-5.526492	-0.424659	-2.992757	0.040555	-0.085675	0.654091	-0.784424	0.193848	-0.560791	0.081673	-0.011922	0.030178	0.086402	-0.264478	0.042597	-0.959569	-8.464072	-30.013776	-167.436770
29295		8.478187	-1.313385	3.024024	-5.790248	-0.442328	-2.810795	0.012799	-0.173844	0.604658	-0.785156	0.202881	-0.563477	0.084795	-0.012879	0.030313	0.089340	-0.265214	0.043270	-0.959066	-8.664866	-30.065121	-167.025023
29296		8.633970	-1.558445	2.728828	-6.095051	-0.272786	-2.942725	-0.035919	-0.246501	0.578174	-0.787109	0.209717	-0.557129	0.086351	-0.015330	0.027397	0.092102	-0.266322	0.044113	-0.958459	-8.889904	-30.158397	-166.622428
29297		8.408497	-2.338159	2.290850	-6.233595	0.502785	-3.308299	-0.008088	-0.346821	0.536781	-0.787354	0.213623	-0.558105	0.084107	-0.023155	0.023055	0.094723	-0.267906	0.044716	-0.957734	-9.091146	-30.311059	-166.235970
29298		8.948104	-2.538174	2.277623	-6.701481	0.543832	-2.994141	0.074755	-0.470803	0.482667	-0.787354	0.216797	-0.557617	0.089488	-0.025174	0.022977	0.097226	-0.270054	0.044795	-0.956876	-9.236071	-30.537780	-165.870035
29299		9.032069	-9.950674	2.017179	-8.096807	7.735843	-2.114546	0.206173	-0.562553	0.428643	-0.802002	0.219727	-0.557129	0.090477	-0.099334	0.020324	0.099664	-0.272586	0.044123	-0.955938	-9.293996	-30.820809	-165.528927
29300		3.916596	-9.870960	-5.675445	-7.985705	8.872410	-11.388579	3.718663	-1.207358	-0.463157	-0.811523	0.191406	-0.550781	0.039288	-0.097726	-0.058341	0.102752	-0.276593	0.025125	-0.955148	-7.066306	-31.547910	-165.721430
29301		9.580519	0.213203	12.486574	-1.144298	-1.844057	5.776107	3.556468	-1.464574	-0.640812	-0.819092	0.178711	-0.548828	0.094889	-0.000402	0.125571	0.104757	-0.281826	0.006507	-0.953708	-4.856200	-32.424995	-166.050583
29302		8.081324	20.151371	23.070584	9.902840	-19.852235	12.800589	3.062257	-1.376894	-1.326452	-0.842529	0.144775	-0.548096	0.080527	0.197410	0.234305	0.102760	-0.286826	-0.010670	-0.952396	-2.647679	-33.266629	-166.892539
29303		13.950680	27.585168	13.755669	1.759840	-28.352868	8.565404	1.546725	-1.314538	-1.202842	-0.858887	0.137207	-0.541260	0.140241	0.273930	0.140600	0.099154	-0.292243	-0.020426	-0.950971	-1.321227	-34.047527	-167.690440
29304		18.545900	12.295333	14.058230	-4.764116	-13.836795	12.064203	0.442336	-0.735229	-0.908925	-0.858398	0.114258	-0.530518	0.185495	0.121798	0.141534	0.095386	-0.295461	-0.024214	-0.950273	-0.719214	-34.482626	-168.312739
29305		8.318341	1.207101	7.815677	-2.103867	-1.753233	1.333447	0.138054	-0.465202	-0.222837	-0.859863	0.111084	-0.521729	0.083015	0.011924	0.078358	0.094455	-0.297614	-0.025412	-0.949662	-0.554946	-34.754838	-168.466187
29306		10.296171	5.217707	7.037666	-3.296074	-6.069519	1.808878	0.020474	-0.543963	0.053870	-0.871582	0.123779	-0.514648	0.102756	0.052198	0.070662	0.094654	-0.300234	-0.025679	-0.948810	-0.567510	-35.071002	-168.426696
29307		7.412611	2.451260	6.509262	-1.771105	-2.942209	-0.245429	-0.198856	-0.323916	0.131927	-0.864746	0.110352	-0.522461	0.074004	0.024626	0.065188	0.094919	-0.301917	-0.024682	-0.948276	-0.737084	-35.259988	-168.333580
29308		8.173777	-3.793940	8.356869	-2.513475	3.232969	1.774897	-0.140319	-0.258722	0.139581	-0.877686	0.114258	-0.513184	0.081656	-0.037824	0.083701	0.095320	-0.303269	-0.023925	-0.947824	-0.876128	-35.412020	-168.234694
29309		5.442712	-5.666396	7.705347	-1.053918	5.443843	-0.307038	-0.018862	-0.034188	0.102642	-0.868896	0.115234	-0.516846	0.054443	-0.056629	0.077068	0.095755	-0.303489	-0.023688	-0.947715	-0.929881	-35.434954	-168.164065
29310		5.310128	-4.980965	8.506934	-0.358029	4.876989	0.260157	0.088975	0.024728	-0.023078	-0.871582	0.113770	-0.509277	0.053106	-0.049854	0.085041	0.095763	-0.303368	-0.024126	-0.947742	-0.869968	-35.425977	-168.182544
29311		5.378905	-2.497606	7.951623	-0.250111	2.384642	-0.187208	0.153766	0.081547	-0.095213	-0.873291	0.115479	-0.505615	0.053810	-0.025063	0.079475	0.095536	-0.302933	-0.024951	-0.947883	-0.743524	-35.384299	-168.252193
29312		5.892429	0.253243	7.871018	-0.178135	-0.391732	0.013429	0.134372	0.118265	-0.093584	-0.876465	0.118896	-0.505859	0.058972	0.002452	0.078677	0.095290	-0.302339	-0.025666	-0.948078	-0.628707	-35.322143	-168.320885
29313		5.871085	0.907706	7.795095	-0.088222	-1.027406	-0.066216	0.078423	0.101746	-0.062099	-0.878662	0.107422	-0.511230	0.058753	0.009028	0.077925	0.095108	-0.301847	-0.026075	-0.948242	-0.559050	-35.268485	-168.367151
29314		5.886718	1.350785	7.587785	-0.140230	-1.481214	-0.229426	0.040235	0.070307	-0.023103	-0.875488	0.110596	-0.501465	0.058895	0.013486	0.075860	0.095048	-0.301534	-0.026260	-0.948342	-0.527122	-35.233292	-168.385809
29315		5.789543	1.563803	7.737021	0.058727	-1.657398	-0.165129	0.001348	0.048466	0.014988	-0.879639	0.111328	-0.504883	0.057913	0.015642	0.077356	0.095108	-0.301342	-0.026212	-0.948399	-0.533121	-35.209710	-168.377551
29316		5.241374	0.944145	8.224065	0.649421	-0.911328	-0.078912	-0.041187	0.034833	0.045714	-0.886719	0.104492	-0.495850	0.052426	0.009470	0.082230	0.095247	-0.301245	-0.025924	-0.948424	-0.575725	-35.194477	-168.347863
29317		5.049988	0.127493	8.316845	0.694792	-0.076480	-0.107021	-0.064082	0.011698	0.059951	-0.885742	0.111084	-0.499756	0.050504	0.001317	0.083165	0.095416	-0.301264	-0.025515	-0.948412	-0.637510	-35.191678	-168.307852
29318		5.662105	-0.322789	7.956415	-0.084845	0.218075	-0.044709	-0.050005	-0.022398	0.054575	-0.889648	0.101318	-0.495117	0.056613	-0.003193	0.079571	0.095573	-0.301443	-0.025199	-0.948347	-0.688912	-35.209119	-168.271917
29319		5.700860	-0.175944	7.777458	-0.183642	0.043595	-0.169867	-0.029599	-0.039559	0.043552	-0.888916	0.113525	-0.494873	0.056994	-0.001736	0.077786	0.095710	-0.301687	-0.025004	-0.948261	-0.724583	-35.235744	-168.242954
29320		5.447961	-0.570247	7.998324	0.071439	0.492577	-0.131215	-0.013220	-0.035162	0.031932	-0.886719	0.106934	-0.495850	0.054466	-0.005688	0.079993	0.095812	-0.301906	-0.024902	-0.948184	-0.745848	-35.260632	-168.222891
29321		5.430964	-0.676918	7.965019	0.049589	0.596130	-0.167104	0.011471	-0.040413	0.005997	-0.892578	0.116943	-0.489502	0.054294	-0.006772	0.079661	0.095833	-0.302129	-0.024958	-0.948109	-0.742817	-35.288011	-168.220235
29322		5.630528	-0.807153	7.788064	-0.231486	0.674681	-0.195021	0.031956	-0.047124	-0.012258	-0.889893	0.098389	-0.489014	0.056286	-0.008087	0.077893	0.095794	-0.302378	-0.025143	-0.948029	-0.720411	-35.320063	-168.230861
29323		5.668111	-0.769600	7.958810	-0.152657	0.655213	-0.034660	0.057927	-0.050317	-0.028753	-0.894775	0.102295	-0.474121	0.056660	-0.007727	0.079600	0.095719	-0.302622	-0.025477	-0.947950	-0.676684	-35.353360	-168.252550
29324		5.802504	-0.300676	7.952805	-0.165902	0.180728	0.033448	0.070158	-0.068645	-0.040386	-0.899902	0.106689	-0.476074	0.057997	-0.003046	0.079547	0.095596	-0.302951	-0.025894	-0.947846	-0.620930	-35.397931	-168.283543
29325		6.002831	-0.307320	7.800191	-0.408153	0.147879	0.025144	0.085819	-0.073648	-0.052855	-0.892334	0.104980	-0.464600	0.059999	-0.003123	0.078023	0.095446	-0.303288	-0.026408	-0.947739	-0.551414	-35.444702	-168.322113
29326		5.871309	-0.058567	7.956303	-0.159549	-0.045777	0.074218	0.092258	-0.069585	-0.060554	-0.895508	0.096191	-0.475098	0.058685	-0.000640	0.079583	0.095263	-0.303608	-0.026961	-0.947639	-0.474685	-35.489857	-168.367192
29327		5.561720	-0.034800	8.011588	0.129148	-0.000858	-0.060621	0.084075	-0.072798	-0.048282	-0.901611	0.101807	-0.471191	0.055588	-0.000395	0.080136	0.095132	-0.303943	-0.027459	-0.947531	-0.407875	-35.536042	-168.402736
29328		5.820486	-0.034766	7.738797	-0.227062	-0.063144	-0.132156	0.075394	-0.066730	-0.040029	-0.905273	0.104980	-0.465332	0.058179	-0.000388	0.077407	0.095018	-0.304260	-0.027900	-0.947428	-0.349008	-35.579404	-168.433812
29329		6.107624	0.137457	7.608972	-0.490460	-0.283809	-0.071162	0.074734	-0.069846	-0.041381	-0.904053	0.095215	-0.462402	0.061050	0.001333	0.076112	0.094907	-0.304586	-0.028341	-0.947321	-0.290235	-35.623814	-168.464665
29330		5.839153	0.065961	7.764386	-0.196076	-0.143487	-0.100494	0.071879	-0.067166	-0.037093	-0.898926	0.086914	-0.457520	0.058366	0.000621	0.077664	0.094801	-0.304907	-0.028761	-0.947215	-0.234470	-35.667381	-168.493814
29331		5.300890	-0.019426	7.966633	0.336657	0.059022	-0.249727	0.074316	-0.062754	-0.034096	-0.914795	0.090332	-0.449463	0.052984	-0.000233	0.079683	0.094724	-0.305201	-0.029186	-0.947116	-0.178805	-35.707662	-168.519687
29332		5.289697	-0.081294	8.000953	0.358505	0.134365	-0.228525	0.075864	-0.069545	-0.034932	-0.902344	0.091309	-0.453369	0.052869	-0.000853	0.080028	0.094630	-0.305531	-0.029622	-0.947005	-0.121448	-35.752554	-168.548121
29333		5.421967	-0.221621	7.842632	0.140464	0.241623	-0.279818	0.074856	-0.067866	-0.036736	-0.912354	0.073242	-0.448242	0.054193	-0.002256	0.078444	0.094540	-0.305848	-0.030056	-0.946898	-0.064281	-35.795725	-168.575979
29334		5.520333	-0.043105	7.814059	0.086539	0.057356	-0.245835	0.085608	-0.066851	-0.048579	-0.917480	0.080566	-0.444092	0.055177	-0.000478	0.078159	0.094394	-0.306160	-0.030557	-0.946796	0.004450	-35.839024	-168.614484
29335		5.408647	0.253008	7.987223	0.338064	-0.184346	-0.170856	0.092872	-0.062014	-0.045224	-0.916992	0.079590	-0.435547	0.054062	0.002481	0.079890	0.094293	-0.306439	-0.031086	-0.946698	0.075576	-35.878787	-168.648493
29336		5.236626	0.247892	7.991235	0.481009	-0.141035	-0.268461	0.080816	-0.065124	-0.042763	-0.910156	0.069580	-0.435547	0.052341	0.002435	0.079930	0.094165	-0.306745	-0.031554	-0.946597	0.139318	-35.921027	-168.683322
29337		5.272395	0.142962	8.090828	0.494294	-0.022617	-0.167210	0.074425	-0.065020	-0.041706	-0.922852	0.072998	-0.428467	0.052698	0.001389	0.080926	0.094051	-0.307047	-0.031992	-0.946495	0.198542	-35.962455	-168.714994
29338		5.214662	0.125077	8.060375	0.524632	0.009561	-0.226100	0.071466	-0.068444	-0.035290	-0.924316	0.074463	-0.427246	0.052119	0.001213	0.080622	0.093940	-0.307374	-0.032405	-0.946386	0.254008	-36.006547	-168.745138
29339		5.461959	0.084650	7.868093	0.216042	-0.003874	-0.236657	0.067052	-0.082240	-0.042286	-0.915771	0.069336	-0.424561	0.054587	0.000809	0.078704	0.093809	-0.307761	-0.032817	-0.946259	0.309406	-36.057790	-168.777418
29340		5.859103	0.138950	7.721716	-0.165178	-0.127454	-0.120951	0.073788	-0.089268	-0.048979	-0.916992	0.064453	-0.424316	0.058557	0.001347	0.077244	0.093634	-0.308183	-0.033272	-0.946123	0.372088	-36.113705	-168.817472
29341		5.715736	0.041687	7.772709	-0.033903	0.006755	-0.164622	0.069866	-0.089205	-0.058785	-0.930908	0.072266	-0.418457	0.057123	0.000373	0.077753	0.093428	-0.308599	-0.033726	-0.945992	0.436179	-36.168816	-168.861673
29342		5.385292	-0.189626	8.108905	0.383725	0.336419	-0.089970	0.069397	-0.086386	-0.063816	-0.924072	0.060547	-0.408447	0.053817	-0.001942	0.081112	0.093175	-0.309007	-0.034181	-0.945867	0.502758	-36.222947	-168.912647
29343		5.571831	-0.112260	8.083581	0.244967	0.239321	-0.000201	0.067318	-0.108146	-0.065087	-0.932129	0.068115	-0.414551	0.055674	-0.001168	0.080866	0.092932	-0.309512	-0.034642	-0.945709	0.568314	-36.288793	-168.961673
29344		6.003334	0.094059	7.753496	-0.236260	-0.058601	-0.009306	0.066786	-0.132574	-0.073877	-0.928223	0.055664	-0.391113	0.059982	0.000893	0.077575	0.092643	-0.310136	-0.035127	-0.945515	0.637676	-36.369157	-169.017281
29345		6.167917	0.254512	8.155447	-0.088418	-0.179390	0.413713	0.062483	-0.158737	-0.060631	-0.929932	0.066162	-0.397217	0.061615	0.002501	0.081604	0.092406	-0.310883	-0.035581	-0.945276	0.699111	-36.463926	-169.063846
29346		6.135652	0.193937	8.077702	-0.101171	-0.112793	0.331774	0.055481	-0.234876	-0.047557	-0.927002	0.062256	-0.392822	0.061262	0.001902	0.080850	0.092205	-0.312000	-0.036019	-0.944911	0.751752	-36.603000	-169.101972
29347		6.254803	-0.091745	7.959630	-0.293775	0.146912	0.305550	0.048605	-0.309375	-0.050362	-0.928955	0.048340	-0.382324	0.062425	-0.000953	0.079693	0.091967	-0.313466	-0.036461	-0.944432	0.802138	-36.784079	-169.143050
29348		5.811960	-0.767799	8.543967	0.297535	0.964332	0.499886	0.045851	-0.373835	-0.053709	-0.927246	0.048584	-0.368652	0.057958	-0.007713	0.085546	0.091697	-0.315241	-0.036926	-0.943849	0.853254	-37.002661	-169.187511
29349		6.043045	-1.805637	7.739825	-0.518846	1.862249	-0.017473	0.063634	-0.485820	-0.104537	-0.927979	0.051025	-0.364502	0.060233	-0.018113	0.077539	0.091194	-0.317520	-0.037605	-0.943107	0.937645	-37.284270	-169.270218
29350		6.021859	-0.999423	8.055266	-0.107773	1.139057	0.229204	0.060939	-0.552374	-0.178506	-0.935303	0.050537	-0.353516	0.059987	-0.010072	0.080715	0.090325	-0.320103	-0.038421	-0.942284	1.054480	-37.603776	-169.408080
29351		5.414662	0.957872	8.361657	0.983726	-0.627589	0.126704	0.037150	-0.599770	-0.157680	-0.939453	0.055176	-0.353271	0.053903	0.009521	0.083780	0.089505	-0.322917	-0.039110	-0.941374	1.150210	-37.949836	-169.532883
29352		5.152393	3.841080	9.171857	2.292168	-3.302157	0.640322	-0.277913	-0.700050	-0.196815	-0.936279	0.047852	-0.334229	0.051240	0.038488	0.091845	0.087972	-0.326336	-0.038425	-0.940367	1.085124	-38.353481	-169.688370
29353		4.393221	-3.272541	8.646366	1.279816	3.721502	-0.363805	-0.134482	-0.886414	-0.092626	-0.947998	0.055176	-0.319580	0.043533	-0.032687	0.086679	0.087125	-0.330577	-0.038325	-0.938967	1.057379	-38.864497	-169.770606
29354		4.919971	4.115063	9.154020	2.683464	-3.531750	0.446975	-0.120058	-1.059815	0.068619	-0.938721	0.050537	-0.312012	0.048700	0.041222	0.091774	0.087024	-0.335654	-0.038102	-0.937183	0.964778	-39.477080	-169.735919
29355		5.141717	0.436708	8.344139	1.432341	-0.053228	-0.107177	-0.201862	-1.231882	0.138234	-0.942139	0.051514	-0.295166	0.050899	0.004487	0.083751	0.087076	-0.341569	-0.037451	-0.935064	0.791484	-40.188253	-169.649080
29356		6.029764	1.945402	7.904868	0.904619	-1.714499	0.130654	-0.180492	-1.402025	0.218389	-0.957031	0.052979	-0.282959	0.059720	0.019591	0.079451	0.087504	-0.348274	-0.036837	-0.932572	0.588786	-40.997702	-169.499309
29357		5.944842	0.728258	8.064739	0.990556	-0.490373	0.171691	-0.245284	-1.518517	0.266520	-0.953857	0.063721	-0.260254	0.058824	0.007461	0.081087	0.088016	-0.355536	-0.035884	-0.929817	0.318992	-41.873169	-169.307035
29358		5.627737	0.108008	8.639737	1.644243	0.230472	0.364203	-0.241784	-1.603338	0.305142	-0.949219	0.061279	-0.241943	0.055581	0.001270	0.086843	0.088694	-0.363178	-0.034917	-0.926831	0.023435	-42.797019	-169.076540
29359		6.074174	-0.442407	8.721630	1.449777	0.713377	0.701326	-0.282400	-1.717500	0.262588	-0.957764	0.068359	-0.220703	0.059995	-0.004221	0.087740	0.089074	-0.371329	-0.033884	-0.923597	-0.282693	-43.784987	-168.869004
29360		6.329303	-1.233848	8.738033	1.319323	1.456189	0.867737	-0.272041	-1.760616	0.141624	-0.966553	0.069580	-0.197266	0.062529	-0.012175	0.087950	0.088900	-0.379628	-0.033142	-0.920261	-0.524841	-44.797790	-168.748037
29361		6.547898	-0.972602	8.560776	1.286593	1.156120	0.869668	-0.232391	-1.782316	0.023337	-0.970215	0.065186	-0.176025	0.064714	-0.009619	0.086198	0.088246	-0.387956	-0.032812	-0.916857	-0.682801	-45.823052	-168.715969
29362		7.006659	-0.113378	8.322503	1.158402	0.236097	1.002554	-0.280727	-1.765317	-0.089521	-0.967529	0.067139	-0.156738	0.069328	-0.001048	0.083841	0.086977	-0.396180	-0.032470	-0.913467	-0.803805	-46.839676	-168.773600
29363		7.341891	-0.037370	7.839640	0.790068	0.068244	0.898659	-0.488141	-1.719039	-0.160372	-0.968506	0.074707	-0.145752	0.072741	-0.000240	0.079024	0.084974	-0.404236	-0.031298	-0.910161	-1.000957	-47.830213	-168.888575
29364		7.344867	-0.592037	7.578513	0.678417	0.586207	0.719407	-0.595624	-1.599580	-0.236229	-0.968018	0.066162	-0.135742	0.072832	-0.005780	0.076387	0.082421	-0.411753	-0.029738	-0.907073	-1.210270	-48.753709	-169.067805
29365		6.716270	0.319462	6.948305	0.936879	-0.306900	-0.194186	-0.633377	-1.515188	-0.308223	-0.964111	0.062500	-0.108154	0.066639	0.003313	0.069979	0.079469	-0.418860	-0.028116	-0.904129	-1.391760	-49.629920	-169.310132
29366		6.472098	0.349617	7.085088	1.341469	-0.293288	-0.308918	-0.725701	-1.422044	-0.355113	-0.973145	0.062256	-0.095703	0.064221	0.003640	0.071296	0.076120	-0.425549	-0.026138	-0.901349	-1.590055	-50.454250	-169.596300
29367		3.820478	-1.432198	10.584657	5.519227	2.141228	-0.136234	-0.653138	-1.108617	-0.355994	-0.968018	0.062500	-0.078125	0.037592	-0.014043	0.106102	0.072958	-0.430772	-0.024366	-0.899177	-1.737259	-51.099392	-169.891933
29368		0.378896	-0.539375	14.087355	10.583557	1.974176	-0.703464	-0.378370	-0.699736	-0.396782	-0.964355	0.053467	-0.073975	0.003286	-0.005134	0.140896	0.070252	-0.434039	-0.023769	-0.897836	-1.685203	-51.511332	-170.238783
29369		-1.242826	0.323921	16.794219	13.860236	1.525016	-0.364775	-0.322280	-0.294385	-0.368094	-0.975586	0.052490	-0.075928	-0.012669	0.003533	0.167918	0.067844	-0.435462	-0.023218	-0.897347	-1.610098	-51.690293	-170.572796
29370		1.932746	-0.954890	18.833829	13.327725	2.617850	3.411479	-0.312119	0.309844	-0.354214	-0.969482	0.049316	-0.079102	0.019603	-0.009290	0.188323	0.065589	-0.434166	-0.022477	-0.898161	-1.526631	-51.522321	-170.909861
29371		-1.046569	-1.593712	17.377651	13.884767	3.343305	0.269536	-0.234877	0.956014	-0.384287	-0.974609	0.052002	-0.095459	-0.009665	-0.015714	0.173843	0.063439	-0.429935	-0.021936	-0.900361	-1.369786	-50.984593	-171.286085
29372		-0.946632	-0.684071	16.202237	12.939730	2.259619	-0.256001	-0.265082	1.303741	-0.408435	-0.968750	0.048584	-0.106445	-0.008424	-0.006608	0.162088	0.061151	-0.424122	-0.021199	-0.903289	-1.216125	-50.246469	-171.683905
29373		0.377108	-0.725267	15.403583	11.356448	2.030909	0.426448	-0.418214	1.590988	-0.435562	-0.976807	0.043945	-0.129883	0.004981	-0.006941	0.154014	0.058442	-0.417037	-0.019740	-0.906794	-1.138568	-49.344499	-172.101818
29374		1.215704	-1.421923	14.247696	9.698961	2.461805	0.500431	-0.508634	1.852567	-0.490104	-0.969482	0.040283	-0.152100	0.013442	-0.013889	0.142392	0.055319	-0.408741	-0.017905	-0.910796	-1.085668	-48.291625	-172.561944
29375		1.752746	-1.553220	12.846730	8.114439	2.351308	0.144461	-0.522402	2.005623	-0.522688	-0.964600	0.041016	-0.177246	0.018775	-0.015245	0.128323	0.052026	-0.399717	-0.016030	-0.915021	-1.032606	-47.152492	-173.040902
29376		2.372153	-1.392721	11.606190	6.627618	1.974451	-0.094571	-0.574466	2.062523	-0.528920	-0.966064	0.043701	-0.204834	0.024881	-0.013659	0.115849	0.048600	-0.390385	-0.013912	-0.919263	-1.019744	-45.978940	-173.514701
29377		2.943938	-1.617184	10.503369	5.242946	2.009435	-0.322033	-0.644675	2.038897	-0.513740	-0.954346	0.041992	-0.238281	0.030467	-0.015911	0.104778	0.045099	-0.381146	-0.011447	-0.923343	-1.069522	-44.820572	-173.966370
29378		3.800192	-1.856839	9.965440	4.066515	2.084473	0.001296	-0.713054	1.971983	-0.510719	-0.953369	0.038086	-0.265869	0.038935	-0.018312	0.099339	0.041472	-0.372170	-0.008672	-0.927197	-1.172062	-43.698996	-174.407885
29379		4.722330	-2.118227	9.536452	2.915441	2.193171	0.405841	-0.774863	1.899488	-0.502304	-0.951660	0.050293	-0.290039	0.048074	-0.020934	0.094992	0.037762	-0.363518	-0.005611	-0.930805	-1.324548	-42.621478	-174.836933
29380		5.338670	-2.434672	8.940852	1.872281	2.382415	0.443232	-0.818085	1.829631	-0.463740	-0.943848	0.035645	-0.312988	0.054146	-0.024107	0.089014	0.034147	-0.355143	-0.002288	-0.934185	-1.530545	-41.582345	-175.232126
29381		5.814638	-2.776828	8.333366	0.937656	2.618249	0.347488	-0.823778	1.737177	-0.380577	-0.939453	0.050537	-0.338623	0.058815	-0.027538	0.082938	0.030905	-0.347184	0.001191	-0.937287	-1.788032	-40.598042	-175.561553
29382		6.244885	-3.020991	7.795729	0.104519	2.771039	0.247477	-0.777573	1.622689	-0.235011	-0.937012	0.051514	-0.358154	0.063044	-0.029982	0.077564	0.028424	-0.339705	0.004692	-0.940091	-2.094681	-39.675592	-175.780611
29383		6.695091	-3.239490	7.608534	-0.508274	2.906963	0.409726	-0.686268	1.521714	-0.053041	-0.927002	0.063232	-0.377441	0.067519	-0.032153	0.075684	0.026953	-0.332675	0.008054	-0.942622	-2.435757	-38.809909	-175.866194
29384		6.946243	-3.268487	7.373584	-0.987004	2.865566	0.391019	-0.544576	1.431814	0.133884	-0.916260	0.055908	-0.406006	0.070010	-0.032438	0.073324	0.026583	-0.326003	0.011055	-0.944930	-2.780004	-37.989140	-175.820070
29385		7.057247	-2.921582	7.029298	-1.403833	2.458310	0.174087	-0.395949	1.352009	0.319665	-0.905762	0.069092	-0.424805	0.071092	-0.028964	0.069871	0.027353	-0.319677	0.013637	-0.947033	-3.117968	-37.210427	-175.641280
29386		7.186945	-2.579887	6.642337	-1.854744	2.054650	-0.077938	-0.285873	1.271053	0.499009	-0.890625	0.075928	-0.447021	0.072354	-0.025524	0.066001	0.029137	-0.313675	0.015982	-0.948949	-3.465573	-36.469248	-175.340594
29387		7.405360	-2.194741	6.265290	-2.358616	1.597788	-0.284175	-0.190741	1.193504	0.660629	-0.885498	0.087646	-0.458008	0.074498	-0.021642	0.062230	0.031858	-0.308016	0.018108	-0.950675	-3.819827	-35.767095	-174.928429
29388		7.518777	-1.684071	5.841560	-2.786719	1.018226	-0.610085	-0.121694	1.120041	0.791111	-0.868164	0.097656	-0.475098	0.075579	-0.016507	0.058003	0.035304	-0.302652	0.020101	-0.952235	-4.181039	-35.097669	-174.430791
29389		7.637740	-1.226012	5.542121	-3.132686	0.483796	-0.840275	-0.087940	1.030807	0.878836	-0.858643	0.106201	-0.489258	0.076715	-0.011899	0.055032	0.039232	-0.297700	0.022042	-0.953598	-4.550082	-34.474800	-173.875784
29390		7.998456	-0.768288	5.374699	-3.585182	-0.078728	-0.835382	-0.075233	0.939970	0.905388	-0.855713	0.114746	-0.500732	0.080270	-0.007300	0.053373	0.043314	-0.293148	0.023950	-0.954785	-4.915971	-33.897746	-173.306040
29391		8.192640	-0.528194	5.217773	-3.896039	-0.413364	-0.909184	-0.093857	0.867566	0.883204	-0.845703	0.113770	-0.521240	0.082174	-0.004895	0.051824	0.047271	-0.288952	0.025891	-0.955825	-5.276826	-33.362053	-172.755209
29392		8.397752	-0.422489	5.019004	-4.238962	-0.613501	-1.006724	-0.107991	0.797834	0.799736	-0.830322	0.123779	-0.521729	0.084193	-0.003862	0.049857	0.050812	-0.285079	0.027768	-0.956753	-5.609726	-32.866163	-172.264117
29393		8.475353	-0.298422	4.717886	-4.521118	-0.809616	-1.263867	-0.128664	0.740337	0.699230	-0.815918	0.134521	-0.525635	0.084937	-0.002657	0.046866	0.053853	-0.281506	0.029579	-0.957590	-5.912708	-32.408296	-171.842749
29394		8.519222	-0.309460	4.415517	-4.778414	-0.859714	-1.530375	-0.152584	0.683690	0.602619	-0.812988	0.143799	-0.542236	0.085351	-0.002804	0.043866	0.056404	-0.278205	0.031358	-0.958351	-6.192164	-31.985166	-171.487220
29395		8.491689	-0.545053	4.059637	-5.016581	-0.667958	-1.858206	-0.157755	0.614806	0.510807	-0.798096	0.146240	-0.543701	0.085055	-0.005202	0.040339	0.058518	-0.275259	0.033009	-0.959020	-6.440160	-31.607250	-171.191909
29396		8.469623	-0.582231	3.758365	-5.203880	-0.666587	-2.152808	-0.148975	0.541208	0.440679	-0.795898	0.148682	-0.563477	0.084810	-0.005608	0.037358	0.060321	-0.272658	0.034504	-0.959598	-6.659176	-31.273391	-170.940336
29397		8.490076	-0.747278	3.592860	-5.360157	-0.542382	-2.294529	-0.140799	0.472743	0.401751	-0.792725	0.155273	-0.560059	0.085000	-0.007277	0.035733	0.061958	-0.270399	0.035880	-0.960082	-6.859974	-30.981728	-170.711846
29398		8.510703	-1.018220	3.428864	-5.521454	-0.310314	-2.420600	-0.108957	0.411299	0.392105	-0.784424	0.163330	-0.563232	0.085197	-0.009997	0.034119	0.063603	-0.268415	0.037077	-0.960486	-7.040521	-30.723840	-170.486330
29399		8.560366	-1.116240	3.404052	-5.613323	-0.258013	-2.427753	-0.063697	0.353062	0.423458	-0.774658	0.163086	-0.566162	0.085687	-0.010970	0.033893	0.065469	-0.266697	0.038074	-0.960800	-7.205983	-30.497443	-170.237004
29400		8.593550	-1.261212	3.349219	-5.708398	-0.157972	-2.461086	-0.017556	0.292968	0.469229	-0.769287	0.151367	-0.561035	0.086014	-0.012407	0.033367	0.067630	-0.265235	0.038895	-0.961022	-7.362028	-30.300286	-169.953228
29401		8.548935	-1.245604	3.059876	-5.836317	-0.198882	-2.748957	0.028305	0.221833	0.532583	-0.771729	0.165039	-0.572998	0.085556	-0.012233	0.030502	0.070166	-0.264092	0.039551	-0.961128	-7.513863	-30.139175	-169.623329
29402		8.436734	-1.145720	2.892772	-5.828139	-0.320409	-2.972424	0.078276	0.143167	0.596651	-0.772705	0.175781	-0.577393	0.084422	-0.011217	0.028863	0.073090	-0.263289	0.040029	-0.961111	-7.660960	-30.016406	-169.245536
29403		8.286519	-1.029300	2.807594	-5.736126	-0.457008	-3.142138	0.125064	0.039660	0.644881	-0.761475	0.178467	-0.580566	0.082903	-0.010043	0.028053	0.076329	-0.262959	0.040301	-0.960938	-7.800188	-29.948616	-168.827565
29404		8.223193	-0.687630	2.889541	-5.594913	-0.836531	-3.146345	0.158035	-0.074833	0.675902	-0.759277	0.184570	-0.576416	0.082244	-0.006621	0.028921	0.079785	-0.263154	0.040417	-0.960599	-7.936098	-29.941957	-168.378812
29405		8.236337	-0.278196	3.071476	-5.446115	-1.299426	-3.030381	0.139660	-0.177537	0.694519	-0.750488	0.190430	-0.574463	0.082345	-0.002517	0.030786	0.083323	-0.263847	0.040599	-0.960101	-8.092876	-29.991638	-167.908764
29406		8.246628	-0.110991	3.086254	-5.402178	-1.518859	-3.026422	0.093772	-0.266534	0.705153	-0.759766	0.184326	-0.570068	0.082428	-0.000834	0.030972	0.086873	-0.264978	0.040983	-0.959458	-8.285111	-30.089336	-167.422189
29407		7.973670	-0.134365	2.872846	-5.257138	-1.489637	-3.332417	0.089703	-0.344827	0.693766	-0.759521	0.200928	-0.572754	0.079691	-0.001080	0.028865	0.090373	-0.266487	0.041331	-0.958702	-8.480402	-30.231288	-166.935194
29408		7.629394	-0.251709	2.697941	-5.043837	-1.348980	-3.624830	0.156701	-0.449665	0.649790	-0.754883	0.201416	-0.572510	0.076241	-0.002291	0.027149	0.093774	-0.268472	0.041256	-0.957824	-8.630538	-30.434990	-166.464933
29409		7.743854	0.095933	2.845852	-4.969949	-1.755390	-3.464989	0.250095	-0.540433	0.573621	-0.759521	0.203369	-0.572754	0.077358	0.001146	0.028669	0.096951	-0.270860	0.040585	-0.956864	-8.708133	-30.696005	-166.034511
29410		7.527948	0.487081	3.013922	-4.592518	-2.126026	-3.458202	0.277542	-0.619906	0.470670	-0.773926	0.204590	-0.563232	0.075174	0.005006	0.030379	0.099690	-0.273633	0.039606	-0.955834	-8.742618	-31.010671	-165.661756
29411		7.563258	0.537776	3.207348	-4.459931	-2.205078	-3.253307	0.252349	-0.714039	0.340016	-0.767822	0.214355	-0.561523	0.075508	0.005466	0.032350	0.101784	-0.276887	0.038519	-0.954720	-8.753757	-31.389844	-165.365026
29412		8.074806	0.504257	3.514561	-4.666540	-2.296652	-2.688272	0.193498	-0.779740	0.207012	-0.778564	0.219727	-0.563477	0.080605	0.005092	0.035465	0.103177	-0.280509	0.037496	-0.953553	-8.758909	-31.818027	-165.147926
29413		8.511969	0.384497	3.657123	-4.907656	-2.278029	-2.282679	0.101577	-0.803932	0.087451	-0.789551	0.221924	-0.555176	0.084970	0.003863	0.036915	0.103869	-0.284309	0.036729	-0.952382	-8.777066	-32.270073	-165.007801
29414		2.249844	-17.396344	3.427770	-3.085229	16.510092	-3.703130	2.391694	-1.072269	-0.710052	-0.797852	0.209473	-0.558350	0.021703	-0.174436	0.032311	0.104067	-0.288319	0.023781	-0.951565	-7.205684	-32.939862	-165.384521
29415		13.588713	-8.492421	16.773062	-3.286662	6.168275	12.304522	3.992833	-1.324712	-2.015884	-0.817139	0.164063	-0.563721	0.133892	-0.089618	0.166864	0.100344	-0.292742	0.001193	-0.950911	-4.211659	-33.814365	-166.671732
29416		5.131611	17.597018	19.450371	10.024910	-16.773956	8.418125	3.159986	-0.685530	-2.187958	-0.824951	0.133789	-0.556885	0.052541	0.172296	0.197424	0.094544	-0.294415	-0.017362	-0.950831	-1.570846	-34.274662	-168.158760
29417		11.696928	16.010908	12.732704	0.748436	-16.386053	7.104837	1.600127	-1.332151	-1.123413	-0.838623	0.128906	-0.549316	0.117005	0.158422	0.129378	0.091417	-0.299910	-0.027243	-0.949186	-0.218146	-35.052163	-168.928628
29418		17.275875	15.719227	13.688480	-3.148717	-16.572654	11.361573	0.624885	-0.616785	-0.802178	-0.837646	0.107178	-0.548828	0.172962	0.156069	0.137907	0.088453	-0.302477	-0.031684	-0.948515	0.463718	-35.409204	-169.492724
29419		7.767664	2.644988	7.020314	-1.726039	-2.931152	0.436519	0.164322	-0.436689	-0.384267	-0.846924	0.103760	-0.544434	0.077574	0.026243	0.070394	0.086789	-0.304449	-0.033229	-0.947984	0.716132	-35.661361	-169.768483
29420		12.878032	3.338470	7.112671	-5.592426	-4.303170	3.520969	0.131155	-0.358614	-0.047575	-0.846680	0.100586	-0.539551	0.128660	0.033307	0.071379	0.086693	-0.306124	-0.034073	-0.947424	0.812133	-35.871235	-169.806363
29421		8.405907	5.047693	6.352185	-2.112594	-5.426436	0.315462	-0.119031	-0.140073	0.143163	-0.865234	0.106445	-0.537598	0.083978	0.050575	0.063551	0.087145	-0.306899	-0.033342	-0.947157	0.684497	-35.956783	-169.708459
29422		6.147987	0.262280	7.868818	-0.313398	-0.245099	0.168617	-0.234715	-0.043730	0.251007	-0.844727	0.099609	-0.534424	0.061459	0.002792	0.078698	0.087956	-0.307292	-0.031861	-0.947006	0.445265	-35.988230	-169.532010
29423		6.164497	-2.360550	8.341768	-0.532905	2.351581	0.548022	-0.204917	-0.021524	0.243796	-0.851807	0.101807	-0.532959	0.061665	-0.023445	0.083448	0.088772	-0.307558	-0.030516	-0.946888	0.225624	-36.005620	-169.361487
29424		5.318854	-3.834450	7.961808	-0.352083	3.857142	-0.253291	-0.140475	0.039564	0.164850	-0.865967	0.108887	-0.528564	0.053236	-0.038245	0.079634	0.089329	-0.307501	-0.029576	-0.946884	0.075927	-35.988214	-169.245985
29425		5.394266	-3.761480	7.903894	-0.435764	3.753636	-0.250329	-0.034730	0.084828	0.057575	-0.862305	0.108154	-0.531494	0.053987	-0.037586	0.079023	0.089541	-0.307159	-0.029276	-0.946984	0.031230	-35.943890	-169.207183
29426		5.293217	-1.786450	7.685200	-0.119444	1.802747	-0.484897	0.049217	0.107478	-0.025819	-0.868896	0.111084	-0.526611	0.052971	-0.017890	0.076819	0.089496	-0.306667	-0.029495	-0.947141	0.069358	-35.887301	-169.226622
29427		5.561125	-0.045016	7.763680	0.029143	0.064964	-0.262934	0.069460	0.099191	-0.045474	-0.864258	0.112549	-0.528076	0.055650	-0.000490	0.077609	0.089382	-0.306196	-0.029840	-0.947293	0.127089	-35.834671	-169.260663
29428		5.561925	0.095077	7.540647	-0.082182	-0.090318	-0.443030	0.086163	0.071606	-0.060548	-0.855713	0.107666	-0.526611	0.055647	0.000901	0.075387	0.089226	-0.305851	-0.030303	-0.947405	0.200594	-35.798533	-169.304395
29429		5.783301	0.777554	7.430329	-0.200948	-0.797483	-0.400749	0.094682	0.055476	-0.058349	-0.874756	0.110107	-0.521729	0.057856	0.007723	0.074291	0.089083	-0.305573	-0.030807	-0.947492	0.278020	-35.770851	-169.347467
29430		5.369543	1.152042	8.058131	0.552788	-1.024814	-0.130909	0.065602	0.067845	-0.035092	-0.866943	0.108154	-0.520020	0.053725	0.011485	0.080567	0.089014	-0.305259	-0.031136	-0.947588	0.329163	-35.736869	-169.373178
29431		5.108270	0.758029	8.415092	0.885588	-0.555293	0.005163	0.013563	0.061467	-0.001132	-0.871338	0.103027	-0.522705	0.051109	0.007574	0.084136	0.089019	-0.304998	-0.031166	-0.947671	0.336430	-35.705888	-169.375755
29432		5.122811	0.462371	8.180954	0.680717	-0.294578	-0.177604	-0.007188	0.034917	0.016814	-0.875488	0.102295	-0.522461	0.051242	0.004631	0.081800	0.089079	-0.304881	-0.031085	-0.947706	0.324613	-35.690916	-169.365141
29433		5.492929	0.196214	7.934373	0.192514	-0.119191	-0.163140	-0.018443	0.024134	0.024693	-0.871826	0.104248	-0.522705	0.054939	0.001976	0.079337	0.089151	-0.304815	-0.030940	-0.947725	0.303005	-35.681407	-169.349657
29434		5.884485	0.089377	7.705948	-0.270810	-0.101323	-0.120774	-0.009070	0.002386	0.019556	-0.875977	0.108643	-0.516113	0.058846	0.000903	0.077059	0.089215	-0.304852	-0.030860	-0.947710	0.289107	-35.685067	-169.337430
29435		5.799375	0.002260	7.763810	-0.185487	0.002223	-0.123771	-0.001528	0.004621	0.012114	-0.880371	0.106934	-0.509521	0.057996	0.000027	0.077637	0.089251	-0.304869	-0.030823	-0.947702	0.282410	-35.686695	-169.330894
29436		5.585703	-0.218246	7.959622	0.056121	0.272909	-0.090256	0.010188	0.004163	0.003701	-0.879150	0.098877	-0.506836	0.055859	-0.002185	0.079595	0.089269	-0.304888	-0.030859	-0.947693	0.286049	-35.689294	-169.329735
29437		5.553649	-0.398123	7.944033	0.039041	0.453552	-0.122386	0.018544	0.005056	0.001200	-0.884033	0.105957	-0.508057	0.055539	-0.003988	0.079439	0.089284	-0.304892	-0.030933	-0.947688	0.295344	-35.690642	-169.330896
29438		6.059987	-0.092762	7.869090	-0.350047	0.071004	0.113392	0.026171	-0.005432	-0.006680	-0.877197	0.098145	-0.503906	0.060598	-0.000940	0.078692	0.089274	-0.304947	-0.031064	-0.947667	0.312481	-35.698715	-169.337460
29439		5.983584	-0.020761	7.869223	-0.274629	0.014451	0.069253	0.029137	-0.006130	-0.006352	-0.877930	0.098633	-0.503662	0.059833	-0.000221	0.078694	0.089267	-0.304998	-0.031205	-0.947646	0.330980	-35.706447	-169.343995
29440		6.222971	0.169650	7.733184	-0.506099	-0.220781	0.099497	0.033770	-0.020063	-0.007854	-0.880859	0.099121	-0.501709	0.062222	0.001681	0.077338	0.089259	-0.305120	-0.031380	-0.947602	0.353023	-35.722911	-169.351640
29441		5.944857	-0.034316	7.765020	-0.301581	0.028993	-0.037911	0.040008	-0.036647	-0.016886	-0.883545	0.102783	-0.496582	0.059434	-0.000364	0.077661	0.089214	-0.305309	-0.031603	-0.947538	0.382184	-35.748085	-169.365758
29442		6.010440	-0.226793	7.787602	-0.373110	0.216636	0.017747	0.053590	-0.050672	-0.030237	-0.888916	0.094727	-0.497803	0.060084	-0.002298	0.077891	0.089126	-0.305563	-0.031919	-0.947454	0.424915	-35.782002	-169.389294
29443		5.680822	-0.315930	7.812674	-0.107766	0.363754	-0.155281	0.060947	-0.062808	-0.039557	-0.890869	0.096680	-0.486084	0.056783	-0.003194	0.078144	0.089002	-0.305863	-0.032287	-0.947356	0.475573	-35.822046	-169.419630
29444		5.884168	-0.216011	7.638257	-0.345500	0.224261	-0.177160	0.072134	-0.068705	-0.057010	-0.888672	0.084961	-0.489258	0.058815	-0.002204	0.076402	0.088809	-0.306190	-0.032740	-0.947253	0.540204	-35.866140	-169.462656
29445		5.778121	-0.022973	7.907691	-0.064401	0.091833	-0.019517	0.072511	-0.067217	-0.057096	-0.893066	0.093262	-0.486328	0.057755	-0.000275	0.079096	0.088619	-0.306503	-0.033191	-0.947154	0.604894	-35.908556	-169.505565
29446		5.430215	0.090349	8.088278	0.343598	0.062458	-0.076483	0.061729	-0.068248	-0.045277	-0.887695	0.090820	-0.481934	0.054275	0.000866	0.080902	0.088464	-0.306834	-0.033576	-0.947048	0.658879	-35.952402	-169.540747
29447		5.469067	-0.045831	7.993906	0.238792	0.187477	-0.131615	0.052916	-0.070460	-0.041088	-0.890625	0.086670	-0.477051	0.054662	-0.000491	0.079958	0.088319	-0.307173	-0.033912	-0.946940	0.705841	-35.996719	-169.572498
29448		5.533466	0.190020	7.871742	0.168015	-0.060934	-0.190436	0.044186	-0.070689	-0.032327	-0.902588	0.084229	-0.477295	0.055307	0.001874	0.078737	0.088198	-0.307525	-0.034194	-0.946826	0.744500	-36.041995	-169.598625
29449		5.570961	0.110360	7.789290	0.082457	0.008305	-0.235947	0.042056	-0.077597	-0.027117	-0.903320	0.082764	-0.468994	0.055680	0.001080	0.077915	0.088101	-0.307906	-0.034461	-0.946702	0.779557	-36.090473	-169.620654
29450		5.685299	0.296956	7.708146	-0.012919	-0.195055	-0.232076	0.042155	-0.077761	-0.028664	-0.899658	0.078125	-0.466797	0.056823	0.002945	0.077104	0.087989	-0.308293	-0.034731	-0.946577	0.815727	-36.139808	-169.644788
29451		5.678328	0.338858	7.719011	0.013963	-0.227819	-0.226799	0.041508	-0.078736	-0.023873	-0.901367	0.077148	-0.474365	0.056753	0.003366	0.077213	0.087906	-0.308679	-0.034989	-0.946449	0.849209	-36.188943	-169.664629
29452		5.090440	0.254374	8.165340	0.729911	-0.000306	-0.214912	0.038432	-0.069444	-0.017087	-0.899414	0.086914	-0.460693	0.050876	0.002524	0.081672	0.087844	-0.309031	-0.035220	-0.946331	0.878477	-36.233597	-169.680803
29453		5.306108	0.200740	7.972995	0.444238	0.002774	-0.243655	0.031860	-0.075315	-0.012348	-0.906738	0.081543	-0.463135	0.053031	0.001991	0.079750	0.087801	-0.309407	-0.035414	-0.946205	0.901643	-36.280858	-169.692503
29454		5.615885	0.354650	7.820954	0.147243	-0.206634	-0.181131	0.037171	-0.086098	-0.012453	-0.906982	0.073975	-0.454834	0.056125	0.003528	0.078234	0.087758	-0.309838	-0.035639	-0.946060	0.928360	-36.335050	-169.705316
29455		5.736513	0.305586	7.690220	-0.025296	-0.186830	-0.215558	0.035783	-0.083761	-0.008036	-0.917480	0.072266	-0.453613	0.057333	0.003040	0.076927	0.087740	-0.310253	-0.035849	-0.945917	0.952069	-36.387182	-169.714113
29456		5.709904	0.340116	7.775416	0.059517	-0.201996	-0.162225	0.030109	-0.074454	-0.007806	-0.915527	0.073975	-0.450928	0.057070	0.003387	0.077776	0.087704	-0.310634	-0.036027	-0.945789	0.972878	-36.434756	-169.724318
29457		5.753075	0.262106	7.919372	0.101328	-0.110292	-0.021846	0.023703	-0.065954	-0.001237	-0.914551	0.070557	-0.452148	0.057505	0.002611	0.079213	0.087703	-0.310971	-0.036161	-0.945673	0.986704	-36.476748	-169.728111
29458		5.484896	0.156481	7.906998	0.293546	0.033249	-0.192816	0.015746	-0.071648	0.001803	-0.908447	0.072510	-0.443604	0.054821	0.001559	0.079090	0.087690	-0.311346	-0.036255	-0.945547	0.995239	-36.522803	-169.731536
29459		5.686077	0.126614	7.831775	0.092712	0.027272	-0.134110	0.018726	-0.080769	-0.003399	-0.921875	0.072021	-0.439453	0.056829	0.001258	0.078341	0.087668	-0.311755	-0.036376	-0.945410	1.007261	-36.573260	-169.737080
