// General information: 
//  MT Manager version: 2019.2.0 
//  XDA version: 2019.2.0 build 3853 rev 94535 built on 2019-09-09
// Device information: 
//  DeviceId: 00B47783
//  ProductCode: MTW2-3A7G6
//  Firmware Version: 4.6.0
//  Hardware Version: 2.0.0
// Device settings: 
//  Filter Profile: human(46.1)
//  Option Flags: Orientation Smoother Disabled, AHS Disabled, ICC Disabled
// Coordinate system: ENU
PacketCounter	SampleTimeFine	Acc_X	Acc_Y	Acc_Z	FreeAcc_E	FreeAcc_N	FreeAcc_U	Gyr_X	Gyr_Y	Gyr_Z	Mag_X	Mag_Y	Mag_Z	VelInc_X	VelInc_Y	VelInc_Z	Quat_q0	Quat_q1	Quat_q2	Quat_q3	Roll	Pitch	Yaw
28917		9.179030	2.355910	-2.737138	-0.072565	0.049343	0.050838	-0.056783	-0.001296	-0.011086	-0.835205	-0.145508	0.549316	0.091792	0.023546	-0.027377	-0.044861	-0.783848	-0.145068	-0.602101	137.874098	-68.574737	50.396718
28918		9.124565	2.351349	-2.736871	-0.086608	0.039826	-0.001066	0.014395	0.004348	-0.011647	-0.823730	-0.153564	0.547607	0.091246	0.023510	-0.027369	-0.044820	-0.783827	-0.145172	-0.602106	137.866759	-68.572524	50.416080
28919		9.106019	2.514111	-2.746614	-0.072006	-0.121407	0.024198	0.030237	0.007915	-0.008899	-0.832764	-0.147217	0.548096	0.091060	0.025141	-0.027466	-0.044715	-0.783803	-0.145303	-0.602113	137.867854	-68.572676	50.434562
28920		9.095858	2.604298	-2.759803	-0.071717	-0.211378	0.040418	-0.009444	0.006096	-0.006689	-0.839844	-0.147461	0.550781	0.090959	0.026039	-0.027602	-0.044757	-0.783777	-0.145309	-0.602142	137.850224	-68.572949	50.449124
28921		9.147694	2.535571	-2.729406	-0.043746	-0.127625	0.063592	-0.027775	0.008807	0.002762	-0.828125	-0.151855	0.547119	0.091475	0.025353	-0.027302	-0.044844	-0.783747	-0.145221	-0.602197	137.829825	-68.577961	50.454989
28922		9.116643	2.425938	-2.730069	-0.072202	-0.031743	0.007976	-0.019027	0.011055	0.000744	-0.833008	-0.145508	0.553711	0.091165	0.024257	-0.027308	-0.044896	-0.783708	-0.145171	-0.602255	137.809878	-68.583257	50.466449
28923		9.151552	2.312329	-2.672728	-0.030258	0.092321	-0.002907	-0.002232	0.012173	0.001318	-0.831543	-0.147461	0.553223	0.091514	0.023124	-0.026733	-0.044884	-0.783672	-0.145166	-0.602304	137.799238	-68.589140	50.477552
28924		9.155533	2.278119	-2.636937	-0.002145	0.129506	-0.017266	-0.001786	0.011677	-0.000075	-0.828369	-0.146973	0.559570	0.091554	0.022781	-0.026375	-0.044869	-0.783635	-0.145174	-0.602351	137.788066	-68.594333	50.490633
28925		9.176590	2.288114	-2.628200	0.011988	0.126399	0.002432	0.031430	0.014981	-0.004591	-0.827881	-0.150635	0.545898	0.091764	0.022883	-0.026285	-0.044741	-0.783594	-0.145294	-0.602386	137.787548	-68.599133	50.511579
28926		9.124926	2.453977	-2.629984	0.026667	-0.047274	-0.004520	0.052162	0.018736	-0.007465	-0.835938	-0.148438	0.547363	0.091248	0.024543	-0.026302	-0.044534	-0.783543	-0.145493	-0.602419	137.792266	-68.604401	50.540311
28927		9.126018	2.440904	-2.538640	0.111210	-0.025409	-0.031384	0.015586	0.019084	-0.005328	-0.837158	-0.151367	0.554443	0.091258	0.024409	-0.025393	-0.044467	-0.783485	-0.145569	-0.602481	137.777827	-68.610657	50.566456
28928		9.173925	2.321553	-2.660143	-0.016003	0.088888	0.016795	0.002276	0.011399	-0.002315	-0.835938	-0.143311	0.544678	0.091738	0.023215	-0.026606	-0.044445	-0.783449	-0.145596	-0.602524	137.766447	-68.614904	50.581820
28929		9.106220	2.333801	-2.571018	0.054588	0.067238	-0.067304	0.030674	0.022762	-0.006241	-0.835205	-0.141357	0.549316	0.091060	0.023339	-0.025717	-0.044319	-0.783382	-0.145721	-0.602589	137.756026	-68.622365	50.612932
28930		9.054872	2.402984	-2.599460	0.026682	-0.016702	-0.090484	0.032335	0.013996	-0.007375	-0.838135	-0.150391	0.551025	0.090548	0.024031	-0.025997	-0.044187	-0.783339	-0.145865	-0.602620	137.754064	-68.625910	50.637688
28931		9.140927	2.422225	-2.623335	0.026690	-0.013570	0.000809	0.026064	0.011113	-0.007870	-0.830811	-0.139648	0.542236	0.091409	0.024222	-0.026235	-0.044093	-0.783306	-0.145981	-0.602642	137.750688	-68.627801	50.658398
28932		9.124423	2.567408	-2.615416	0.055359	-0.156180	0.018875	0.032903	0.018262	-0.005536	-0.837402	-0.144775	0.543457	0.091243	0.025676	-0.026158	-0.043952	-0.783252	-0.146117	-0.602689	137.746695	-68.633807	50.685215
28933		9.049677	2.551007	-2.622917	0.027236	-0.162627	-0.052729	-0.009133	0.006482	-0.001642	-0.832031	-0.140381	0.545410	0.090496	0.025508	-0.026233	-0.043980	-0.783229	-0.146101	-0.602721	137.734455	-68.636132	50.693786
28934		9.076346	2.413769	-2.588504	0.040871	-0.020077	-0.070787	-0.048828	0.004647	0.000538	-0.826904	-0.144531	0.545410	0.090763	0.024132	-0.025893	-0.044149	-0.783202	-0.145966	-0.602776	137.703637	-68.638762	50.699435
28935		9.165341	2.412577	-2.667211	-0.015556	-0.001621	0.033011	-0.024731	0.004756	0.000051	-0.831299	-0.147217	0.543213	0.091653	0.024122	-0.026677	-0.044235	-0.783183	-0.145897	-0.602812	137.685989	-68.641006	50.704217
28936		9.164350	2.417625	-2.592939	0.054930	0.001608	0.013326	-0.032023	0.005776	0.001121	-0.827148	-0.152344	0.550293	0.091643	0.024173	-0.025936	-0.044339	-0.783157	-0.145807	-0.602859	137.664255	-68.644223	50.709848
28937		9.128713	2.250250	-2.582172	0.026266	0.153284	-0.063818	-0.060977	-0.000156	-0.002461	-0.839355	-0.149170	0.540771	0.091287	0.022494	-0.025829	-0.044578	-0.783142	-0.145636	-0.602902	137.627964	-68.643416	50.712350
28938		9.109619	2.224320	-2.572102	0.026201	0.174885	-0.090692	-0.004162	-0.002454	-0.008674	-0.836182	-0.149414	0.541992	0.091097	0.022239	-0.025720	-0.044612	-0.783141	-0.145664	-0.602894	137.619478	-68.639333	50.720386
28939		9.164605	2.408100	-2.500885	0.139506	0.023356	-0.013537	0.029124	-0.000594	-0.012559	-0.832275	-0.151123	0.549561	0.091648	0.024079	-0.025005	-0.044528	-0.783140	-0.145805	-0.602867	137.624318	-68.634441	50.734154
28940		9.176987	2.394785	-2.516716	0.125363	0.038748	-0.001025	-0.015121	-0.007868	-0.009392	-0.831055	-0.144043	0.549805	0.091772	0.023942	-0.025165	-0.044610	-0.783152	-0.145802	-0.602846	137.614161	-68.627810	50.737381
28941		9.094288	2.447938	-2.594981	0.041110	-0.042279	-0.043914	-0.002182	-0.008806	-0.012418	-0.834473	-0.145020	0.543945	0.090946	0.024473	-0.025946	-0.044655	-0.783170	-0.145846	-0.602810	137.609331	-68.619497	50.742272
28942		9.054518	2.600994	-2.613342	0.041688	-0.200500	-0.038380	0.009530	-0.003498	-0.008032	-0.826172	-0.153320	0.544922	0.090547	0.026008	-0.026131	-0.044628	-0.783174	-0.145918	-0.602789	137.610822	-68.615291	50.748962
28943		9.121105	2.594006	-2.628626	0.041628	-0.175701	0.026037	-0.041303	-0.016079	-0.002749	-0.825439	-0.145508	0.550049	0.091214	0.025933	-0.026284	-0.044802	-0.783212	-0.145805	-0.602755	137.601203	-68.607635	50.734925
28944		9.139347	2.432901	-2.618956	0.026997	-0.014621	0.000807	-0.056777	-0.013049	0.002177	-0.817383	-0.163818	0.548828	0.091395	0.024323	-0.026191	-0.045017	-0.783239	-0.145629	-0.602745	137.585037	-68.603171	50.718898
28945		9.139115	2.433682	-2.619042	0.027031	-0.014694	0.000807	-0.018056	-0.008763	0.002175	-0.816406	-0.154785	0.549805	0.091392	0.024335	-0.026189	-0.045080	-0.783263	-0.145568	-0.602724	137.586838	-68.600515	50.706901
28946		9.132437	2.489348	-2.598127	0.055458	-0.067330	0.002653	-0.015846	-0.005601	0.004905	-0.816406	-0.156006	0.542236	0.091324	0.024894	-0.025981	-0.045130	-0.783282	-0.145498	-0.602713	137.589463	-68.599997	50.694309
28947		9.109779	2.496681	-2.623255	0.027358	-0.083019	-0.009866	-0.049298	-0.010760	0.004949	-0.827637	-0.164551	0.550293	0.091099	0.024963	-0.026234	-0.045308	-0.783307	-0.145332	-0.602708	137.578325	-68.597567	50.676982
28948		8.899801	2.443195	-3.138320	-0.522118	-0.144013	-0.079684	0.001829	-0.034677	-0.006012	-0.820313	-0.153809	0.555664	0.089004	0.024430	-0.031368	-0.045343	-0.783408	-0.145352	-0.602568	137.607718	-68.580656	50.646679
28949		8.449652	3.102896	-3.268598	-0.632045	-0.913664	-0.300903	0.136338	-0.020462	-0.030822	-0.809814	-0.160400	0.552490	0.084505	0.031038	-0.032656	-0.044909	-0.783478	-0.145883	-0.602382	137.673868	-68.560303	50.660581
28950		8.126986	3.326173	-3.710109	-1.081764	-1.262735	-0.425914	0.047271	-0.105932	-0.038649	-0.802246	-0.160400	0.555664	0.081296	0.033255	-0.037050	-0.044912	-0.783781	-0.146155	-0.601922	137.764312	-68.500502	50.593143
28951		8.428367	3.143088	-3.522558	-0.857242	-0.976567	-0.240006	-0.157697	-0.103110	-0.029084	-0.804688	-0.163330	0.552002	0.084306	0.031391	-0.035207	-0.045685	-0.784034	-0.145775	-0.601626	137.744533	-68.445774	50.518325
28952		8.673178	2.607820	-3.402793	-0.774823	-0.374752	-0.176145	-0.173136	-0.104217	-0.034464	-0.800293	-0.161377	0.559326	0.086754	0.026034	-0.034005	-0.046538	-0.784283	-0.145367	-0.601334	137.710967	-68.388441	50.448495
28953		9.217370	2.422540	-2.933843	-0.226505	0.011969	0.156495	-0.086013	-0.068629	-0.022407	-0.805664	-0.160156	0.561279	0.092186	0.024202	-0.029317	-0.046985	-0.784453	-0.145185	-0.601122	137.705617	-68.350924	50.402284
28954		9.507790	2.361733	-2.793171	-0.029744	0.170956	0.372966	-0.024532	-0.056527	-0.016195	-0.798096	-0.172852	0.556396	0.095088	0.023606	-0.027908	-0.047162	-0.784605	-0.145166	-0.600914	137.730190	-68.320936	50.361868
28955		9.415610	2.382566	-2.734262	0.012721	0.133736	0.276340	-0.022590	-0.047543	-0.015883	-0.802246	-0.163818	0.558838	0.094164	0.023815	-0.027323	-0.047325	-0.784731	-0.145153	-0.600740	137.747522	-68.294865	50.330335
28956		9.178113	2.521361	-2.747941	-0.028788	-0.065102	0.093933	0.021903	-0.037822	-0.021757	-0.798096	-0.166504	0.562988	0.091789	0.025207	-0.027459	-0.047325	-0.784834	-0.145298	-0.600570	137.774505	-68.270654	50.315649
28957		8.991651	2.506785	-2.850890	-0.169521	-0.112350	-0.054615	-0.009826	-0.053795	-0.015132	-0.803467	-0.164795	0.570313	0.089926	0.025060	-0.028486	-0.047441	-0.784982	-0.145319	-0.600362	137.805849	-68.242208	50.276892
28958		9.013715	2.493877	-2.976473	-0.282294	-0.103493	-0.002719	-0.003268	-0.046443	-0.024918	-0.791504	-0.167480	0.568848	0.090147	0.024927	-0.029744	-0.047555	-0.785103	-0.145399	-0.600176	137.823271	-68.213116	50.257051
28959		8.948607	2.658435	-2.949581	-0.239332	-0.273969	-0.029409	0.046119	-0.040591	-0.021133	-0.783447	-0.169922	0.568115	0.089495	0.026582	-0.029472	-0.047459	-0.785220	-0.145614	-0.599978	137.867431	-68.187957	50.238999
28960		8.997265	2.699481	-2.988430	-0.253296	-0.301936	0.036849	0.027307	-0.035977	-0.010835	-0.770508	-0.179932	0.559570	0.089979	0.026994	-0.029864	-0.047405	-0.785327	-0.145732	-0.599813	137.907122	-68.168698	50.213730
28961		8.960307	2.721204	-3.001854	-0.267235	-0.333096	0.011813	0.023363	-0.034536	-0.022712	-0.783936	-0.175537	0.562256	0.089611	0.027205	-0.030000	-0.047399	-0.785420	-0.145887	-0.599655	137.930652	-68.145499	50.203852
28962		8.915581	2.621447	-2.755511	-0.056174	-0.223963	-0.122532	-0.021304	-0.041951	-0.010927	-0.783936	-0.181396	0.566406	0.089163	0.026207	-0.027539	-0.047543	-0.785534	-0.145854	-0.599502	137.947978	-68.123630	50.172206
28963		9.206265	2.197868	-2.594647	0.096989	0.282050	-0.003041	-0.090782	-0.055000	-0.011925	-0.784668	-0.177002	0.573730	0.092071	0.021961	-0.025931	-0.047968	-0.785668	-0.145619	-0.599349	137.937029	-68.095865	50.129000
28964		9.513226	1.731592	-2.342129	0.334507	0.844185	0.094930	-0.080897	-0.047197	-0.034701	-0.781982	-0.178223	0.568359	0.095141	0.017290	-0.023406	-0.048421	-0.785766	-0.145500	-0.599214	137.900035	-68.062641	50.119078
28965		9.961248	1.931056	-1.963389	0.842023	0.824660	0.454798	0.043057	-0.053924	-0.040580	-0.781006	-0.184814	0.566162	0.099622	0.019295	-0.019603	-0.048405	-0.785908	-0.145779	-0.598960	137.934417	-68.024337	50.109658
28966		10.227139	2.444920	-2.292060	0.688651	0.384129	0.920613	0.162918	-0.081895	-0.076640	-0.774902	-0.173340	0.567139	0.102290	0.024429	-0.022859	-0.048051	-0.786138	-0.146546	-0.598500	138.025754	-67.960278	50.111923
28967		9.797974	2.232513	-2.570475	0.293807	0.441135	0.546407	0.067791	-0.090463	-0.060455	-0.769043	-0.182373	0.570801	0.097998	0.022304	-0.025653	-0.048024	-0.786381	-0.146969	-0.598080	138.087649	-67.898782	50.088099
28968		9.461797	1.337293	-2.882166	-0.230477	1.173517	0.096428	-0.055560	-0.120564	-0.073696	-0.771973	-0.181396	0.581787	0.094640	0.013330	-0.028768	-0.048549	-0.786674	-0.147061	-0.597628	138.092978	-67.819381	50.048094
28969		8.496996	1.647998	-2.951051	-0.467845	0.598232	-0.699687	0.245702	-0.034052	-0.101844	-0.766357	-0.180908	0.575439	0.084983	0.016473	-0.029476	-0.047904	-0.786760	-0.148191	-0.597288	138.160374	-67.766111	50.128407
28970		8.693738	3.049253	-3.224014	-0.420572	-0.703387	-0.086351	0.452470	-0.057237	-0.144818	-0.770752	-0.176514	0.576416	0.086969	0.030502	-0.032146	-0.046597	-0.786931	-0.150094	-0.596690	138.322858	-67.686603	50.232861
28971		8.342962	3.866485	-3.493322	-0.600297	-1.606472	-0.126775	0.160349	-0.034209	-0.127581	-0.761475	-0.177246	0.579102	0.083460	0.038640	-0.034888	-0.046364	-0.786975	-0.151070	-0.596405	138.314777	-67.623563	50.341985
28972		7.969577	3.291906	-3.574813	-0.869757	-1.167674	-0.592593	-0.205690	-0.077238	-0.082121	-0.768066	-0.181152	0.576904	0.079723	0.032850	-0.035751	-0.047475	-0.787096	-0.150759	-0.596236	138.184276	-67.559405	50.355678
28973		8.415242	2.847267	-3.946466	-1.195958	-0.638475	-0.186690	-0.174851	-0.087472	-0.081978	-0.766602	-0.190186	0.576172	0.084181	0.028404	-0.039453	-0.048465	-0.787253	-0.150543	-0.596003	138.081547	-67.490943	50.359489
28974		8.682459	2.810605	-3.756885	-0.956873	-0.491728	-0.002420	-0.103595	-0.026544	-0.091504	-0.761963	-0.180176	0.573975	0.086842	0.028047	-0.037572	-0.049165	-0.787240	-0.150584	-0.595954	137.953785	-67.444718	50.433364
28975		9.012425	2.896131	-3.589039	-0.703289	-0.447203	0.276810	-0.088285	-0.009102	-0.075747	-0.768066	-0.189453	0.584717	0.090137	0.028911	-0.035899	-0.049737	-0.787188	-0.150621	-0.595965	137.835300	-67.411958	50.507953
28976		9.338387	3.008574	-3.529548	-0.548222	-0.443310	0.590083	0.018048	-0.002149	-0.067996	-0.770264	-0.185303	0.578857	0.093394	0.030057	-0.035292	-0.049869	-0.787150	-0.150938	-0.595925	137.779329	-67.385012	50.579707
28977		9.441298	3.325887	-3.304019	-0.251228	-0.687106	0.703060	0.123242	0.037582	-0.063458	-0.760742	-0.185059	0.578613	0.094417	0.033249	-0.033037	-0.049537	-0.787020	-0.151568	-0.595963	137.751739	-67.376725	50.687148
28978		9.055661	3.169769	-3.130208	-0.209098	-0.634648	0.257274	0.058722	0.056883	-0.031590	-0.768555	-0.185547	0.577148	0.090553	0.031693	-0.031319	-0.049355	-0.786843	-0.151879	-0.596133	137.701652	-67.388782	50.777827
28979		8.614704	3.003849	-3.265171	-0.476907	-0.623691	-0.154471	0.158654	0.065979	-0.033164	-0.769287	-0.192627	0.575439	0.086141	0.030050	-0.032656	-0.048772	-0.786660	-0.152502	-0.596264	137.698832	-67.404163	50.880402
28980		8.495150	2.423369	-2.990412	-0.352116	-0.080915	-0.493228	0.045578	0.062084	-0.030330	-0.767090	-0.191406	0.580322	0.084946	0.024228	-0.029925	-0.048634	-0.786465	-0.152769	-0.596464	137.637505	-67.418853	50.974956
28981		8.915394	1.576657	-2.949257	-0.369826	0.855445	-0.336420	-0.039380	0.025625	-0.068640	-0.766113	-0.189941	0.571533	0.089156	0.015730	-0.029507	-0.048967	-0.786326	-0.152931	-0.596578	137.522497	-67.403371	51.076137
28982		9.125816	1.420238	-2.585630	-0.004288	1.111105	-0.286486	0.167197	0.047438	-0.112424	-0.764404	-0.181641	0.578613	0.091260	0.014173	-0.025866	-0.048608	-0.786141	-0.153879	-0.596607	137.461206	-67.379978	51.246033
28983		9.079222	1.862060	-2.360536	0.279212	0.709065	-0.279013	0.279343	0.038754	-0.154929	-0.763428	-0.190918	0.579102	0.090802	0.018583	-0.023597	-0.047934	-0.785974	-0.155334	-0.596506	137.429633	-67.336510	51.454715
28984		8.726951	2.406112	-2.719000	-0.042397	0.056560	-0.360862	0.274926	0.013506	-0.173341	-0.767578	-0.188232	0.584961	0.087289	0.024023	-0.027163	-0.047359	-0.785865	-0.156834	-0.596302	137.400855	-67.275120	51.656491
28985		8.540396	2.779477	-2.823867	-0.111225	-0.356197	-0.405306	0.253089	0.017890	-0.170669	-0.761475	-0.192871	0.579590	0.085425	0.027758	-0.028211	-0.046852	-0.785737	-0.158267	-0.596132	137.358894	-67.216657	51.860297
28986		8.604712	2.836237	-3.165246	-0.406944	-0.419292	-0.233404	0.127850	0.020072	-0.172022	-0.768555	-0.187256	0.574707	0.086068	0.028309	-0.031643	-0.046847	-0.785573	-0.159323	-0.596067	137.242460	-67.158377	52.065697
28987		8.639926	2.562729	-3.340388	-0.619352	-0.159745	-0.222850	0.075908	0.039846	-0.144067	-0.766846	-0.192139	0.585693	0.086411	0.025578	-0.033411	-0.046938	-0.785357	-0.160129	-0.596129	137.106692	-67.119220	52.261295
28988		8.863345	2.691009	-3.492133	-0.689534	-0.221879	0.060038	0.118716	0.085108	-0.127295	-0.762939	-0.185547	0.573975	0.088636	0.026874	-0.034943	-0.046783	-0.785031	-0.160998	-0.596336	136.970650	-67.105298	52.482574
28989		8.889305	2.825475	-3.504172	-0.674944	-0.336585	0.122776	0.098541	0.107327	-0.110873	-0.758545	-0.196777	0.585205	0.088890	0.028223	-0.035076	-0.046632	-0.784645	-0.161756	-0.596651	136.818907	-67.106995	52.709637
28990		8.797384	2.641923	-3.358102	-0.605083	-0.169053	-0.052777	-0.039475	0.133506	-0.081017	-0.766357	-0.189697	0.577881	0.087962	0.026377	-0.033645	-0.046921	-0.784174	-0.161981	-0.597186	136.593041	-67.130918	52.929873
28991		8.833385	2.577500	-3.011815	-0.295411	-0.050153	-0.135218	-0.112005	0.140495	-0.058564	-0.768311	-0.192871	0.576172	0.088320	0.025732	-0.030195	-0.047414	-0.783681	-0.161913	-0.597813	136.340706	-67.166376	53.135117
28992		8.963053	2.852949	-3.097082	-0.308557	-0.276451	0.081548	-0.033483	0.156403	-0.040649	-0.757813	-0.199219	0.574707	0.089612	0.028506	-0.031046	-0.047539	-0.783174	-0.162005	-0.598442	136.135269	-67.215063	53.336957
28993		9.150654	2.732414	-2.921225	-0.140135	-0.080464	0.172700	-0.172723	0.166532	-0.041008	-0.762939	-0.198975	0.570557	0.091488	0.027280	-0.029312	-0.048195	-0.782601	-0.161692	-0.599223	135.839122	-67.267570	53.551846
28994		9.247155	2.338561	-3.197502	-0.479842	0.293365	0.231536	-0.240388	0.150708	-0.021870	-0.759766	-0.200684	0.580811	0.092450	0.023337	-0.032073	-0.049081	-0.782076	-0.161087	-0.599999	135.536906	-67.320663	53.729550
28995		9.327930	2.134717	-3.391150	-0.706111	0.490878	0.303023	-0.067118	0.181408	-0.020225	-0.766846	-0.196777	0.575439	0.093251	0.021326	-0.034003	-0.049250	-0.781499	-0.161013	-0.600757	135.304928	-67.386774	53.940294
28996		9.381990	1.874546	-3.123351	-0.509877	0.786098	0.207942	-0.114965	0.210141	-0.051922	-0.768799	-0.198730	0.571533	0.093792	0.018703	-0.031343	-0.049688	-0.780800	-0.160916	-0.601655	134.985298	-67.451206	54.214556
28997		9.255462	1.732373	-3.160220	-0.622989	0.878490	0.061106	0.038279	0.218195	-0.063282	-0.766113	-0.197266	0.573242	0.092526	0.017301	-0.031700	-0.049545	-0.780102	-0.161336	-0.602459	134.732904	-67.513899	54.512577
28998		9.091311	2.298219	-3.258038	-0.662851	0.279881	0.088364	0.267973	0.243623	-0.081276	-0.762207	-0.196533	0.564941	0.090883	0.022989	-0.032660	-0.048549	-0.779370	-0.162514	-0.603170	134.568184	-67.578944	54.856529
28999		8.807819	3.182277	-2.970220	-0.292816	-0.611781	-0.011324	0.246725	0.242518	-0.071293	-0.769775	-0.196777	0.567383	0.088053	0.031828	-0.029770	-0.047597	-0.778640	-0.163599	-0.603896	134.400500	-67.647380	55.191819
29000		8.832093	3.609768	-2.619538	0.117411	-0.966759	0.033623	0.074857	0.202001	-0.035059	-0.771484	-0.199707	0.566162	0.088301	0.036092	-0.026271	-0.047247	-0.778021	-0.164004	-0.604610	134.208696	-67.713911	55.445094
29001		8.998030	3.917442	-2.467775	0.343891	-1.189051	0.230653	0.043596	0.185651	0.000915	-0.775146	-0.196289	0.567871	0.089957	0.039180	-0.024753	-0.046915	-0.777471	-0.164179	-0.605296	134.049048	-67.788563	55.645625
29002		8.838064	4.104843	-2.218286	0.570243	-1.389857	0.067849	-0.004140	0.178362	0.040612	-0.769775	-0.189697	0.568359	0.088352	0.041066	-0.022263	-0.046662	-0.776966	-0.164045	-0.606000	133.907024	-67.876316	55.795952
29003		8.746770	3.642875	-2.219268	0.441842	-0.990580	-0.141846	-0.137104	0.143727	0.074613	-0.781006	-0.206787	0.562744	0.087438	0.036446	-0.022281	-0.046843	-0.776559	-0.163377	-0.606687	133.756122	-67.964398	55.875076
29004		8.874388	2.988342	-2.362507	0.185670	-0.359129	-0.163702	-0.152733	0.138459	0.072361	-0.778564	-0.199463	0.557617	0.088717	0.029897	-0.023709	-0.047105	-0.776165	-0.162659	-0.607364	133.598560	-68.049199	55.950119
29005		9.009630	2.573357	-2.484177	0.000844	0.052481	-0.119186	-0.096352	0.133968	0.059001	-0.773438	-0.213135	0.563965	0.090072	0.025748	-0.024915	-0.047183	-0.775783	-0.162173	-0.607975	133.464003	-68.126788	56.036699
29006		9.199155	2.599854	-2.531142	-0.013259	0.074208	0.075926	-0.020615	0.138506	0.038794	-0.770996	-0.205566	0.554443	0.091969	0.026014	-0.025378	-0.047036	-0.775392	-0.161985	-0.608536	133.347515	-68.197487	56.148628
29007		9.309211	2.566652	-2.593754	-0.069799	0.126689	0.185099	-0.049022	0.122034	0.027189	-0.777344	-0.204590	0.560791	0.093073	0.025673	-0.026001	-0.047037	-0.775031	-0.161763	-0.609055	133.219846	-68.256979	56.256908
29008		9.222350	2.502663	-2.563683	-0.083984	0.160636	0.079464	-0.074386	0.118808	0.021313	-0.770752	-0.203613	0.558105	0.092206	0.025027	-0.025701	-0.047167	-0.774672	-0.161474	-0.609578	133.074575	-68.312462	56.366563
29009		9.111804	2.474308	-2.668388	-0.224826	0.138252	-0.004640	-0.068690	0.104671	0.009766	-0.766846	-0.199951	0.558105	0.091103	0.024738	-0.026740	-0.047311	-0.774344	-0.161255	-0.610040	132.935530	-68.357672	56.474876
29010		8.962384	2.805706	-2.867290	-0.392396	-0.246923	-0.004389	0.068296	0.110891	-0.014217	-0.776855	-0.203369	0.556641	0.089610	0.028060	-0.028713	-0.047004	-0.774014	-0.161537	-0.610409	132.844349	-68.394971	56.614233
29011		8.630231	3.062239	-2.882751	-0.433298	-0.594566	-0.240478	0.054388	0.111489	-0.032258	-0.776367	-0.196777	0.560547	0.086291	0.030616	-0.028867	-0.046794	-0.773660	-0.161858	-0.610788	132.726427	-68.425010	56.775613
29012		8.596903	2.951817	-2.639397	-0.236421	-0.469869	-0.362306	-0.010852	0.097487	-0.031324	-0.776123	-0.199219	0.558105	0.085961	0.029503	-0.026437	-0.046855	-0.773338	-0.161962	-0.611164	132.586608	-68.449675	56.918604
29013		8.753244	2.850145	-2.510676	-0.110145	-0.308159	-0.276493	0.006531	0.097125	-0.043473	-0.774170	-0.200928	0.548828	0.087526	0.028483	-0.025148	-0.046876	-0.773007	-0.162176	-0.611524	132.444898	-68.469136	57.076024
29014		8.820649	3.101127	-2.272235	0.172559	-0.493077	-0.204826	0.067566	0.109386	-0.034481	-0.773926	-0.203857	0.551758	0.088199	0.031004	-0.022760	-0.046634	-0.772664	-0.162535	-0.611881	132.333536	-68.496804	57.236707
29015		8.919897	3.002736	-1.793029	0.622924	-0.308450	-0.256917	-0.127860	0.103121	-0.012129	-0.780029	-0.206787	0.549561	0.089192	0.030010	-0.017995	-0.047074	-0.772308	-0.162219	-0.612380	132.138381	-68.531589	57.368753
29016		9.037614	2.827766	-1.828090	0.565821	-0.110242	-0.185418	-0.152460	0.083839	-0.011277	-0.784424	-0.210449	0.549805	0.090370	0.028259	-0.018340	-0.047632	-0.772009	-0.161808	-0.612822	131.950314	-68.558960	57.476148
29017		8.952616	3.011545	-1.702838	0.693433	-0.292764	-0.244416	-0.125076	0.069199	-0.007707	-0.781738	-0.205811	0.551758	0.089521	0.030101	-0.017078	-0.048075	-0.771761	-0.161475	-0.613188	131.797021	-68.582351	57.564886
29018		9.063603	2.921978	-1.625089	0.763454	-0.162275	-0.183639	-0.250366	0.009487	-0.005581	-0.778809	-0.210449	0.551025	0.090636	0.029197	-0.016292	-0.049054	-0.771670	-0.160724	-0.613422	131.638828	-68.583585	57.579914
29019		9.111845	2.812898	-1.870375	0.509423	-0.070276	-0.108464	-0.224033	-0.020327	-0.013385	-0.773926	-0.217285	0.541260	0.091122	0.028102	-0.018726	-0.049968	-0.771666	-0.160087	-0.613520	131.520796	-68.570335	57.569864
29020		8.944847	3.260476	-1.828881	0.595867	-0.535094	-0.151196	-0.111059	-0.014314	-0.019400	-0.768311	-0.208984	0.551270	0.089453	0.032586	-0.018301	-0.050472	-0.771670	-0.159809	-0.613546	131.455027	-68.556579	57.571138
29021		9.043932	2.815518	-1.556592	0.791307	-0.047633	-0.246372	-0.355825	-0.060165	-0.011210	-0.775146	-0.215088	0.546875	0.090446	0.028122	-0.015589	-0.051919	-0.771755	-0.158749	-0.613594	131.307254	-68.529187	57.511906
29022		9.371772	2.475600	-1.894641	0.465678	0.341869	0.047061	-0.261888	-0.075283	-0.010726	-0.770508	-0.219482	0.545898	0.093726	0.024726	-0.018944	-0.053026	-0.771912	-0.157959	-0.613506	131.230191	-68.496129	57.432516
29023		9.356044	2.894185	-1.967962	0.467325	-0.061204	0.165418	-0.100606	-0.049923	-0.022655	-0.774902	-0.217529	0.549316	0.093569	0.028921	-0.019671	-0.053516	-0.772020	-0.157728	-0.613386	131.206518	-68.467732	57.397047
29024		9.118497	2.594302	-2.143548	0.198728	0.136003	-0.095991	-0.338230	-0.113830	-0.015568	-0.769531	-0.226318	0.546631	0.091199	0.025900	-0.021427	-0.054964	-0.772268	-0.156712	-0.613206	131.123042	-68.418106	57.277371
29025		9.197127	1.920368	-2.525436	-0.268883	0.766608	-0.117700	-0.285160	-0.125546	-0.036953	-0.769531	-0.224121	0.552002	0.091991	0.019151	-0.025224	-0.056269	-0.772545	-0.155949	-0.612933	131.062453	-68.355084	57.167848
29026		9.185270	2.092654	-2.368913	-0.085033	0.627773	-0.119453	-0.125257	-0.108807	-0.069913	-0.770996	-0.222412	0.551025	0.091873	0.020880	-0.023652	-0.057057	-0.772792	-0.155794	-0.612589	131.043663	-68.283955	57.109567
29027		9.189932	2.141061	-2.165897	0.126468	0.616118	-0.151709	-0.156303	-0.121896	-0.085677	-0.770264	-0.227539	0.547852	0.091922	0.021354	-0.021620	-0.058011	-0.773054	-0.155616	-0.612214	131.006482	-68.201293	57.054224
29028		9.243820	2.247231	-2.363649	-0.028144	0.525617	-0.024531	-0.080194	-0.117346	-0.101766	-0.766357	-0.228516	0.550537	0.092463	0.022416	-0.023591	-0.058728	-0.773314	-0.155720	-0.611791	130.992624	-68.113219	57.018577
29029		9.097890	2.596695	-2.327513	0.043766	0.166137	-0.070911	-0.015827	-0.096358	-0.110576	-0.774414	-0.235107	0.550537	0.091004	0.025915	-0.023233	-0.059195	-0.773518	-0.156075	-0.611398	130.984938	-68.029399	57.018136
29030		9.005628	2.675969	-2.709600	-0.322160	0.037558	-0.040335	-0.042616	-0.117646	-0.118408	-0.763184	-0.228760	0.548584	0.090088	0.026701	-0.027049	-0.059819	-0.773775	-0.156357	-0.610938	130.977265	-67.934020	56.998834
29031		8.986460	2.926108	-3.138642	-0.687508	-0.233626	0.119199	0.078799	-0.108455	-0.133736	-0.757813	-0.231689	0.554932	0.089901	0.029213	-0.031326	-0.060000	-0.774026	-0.157087	-0.610416	131.015217	-67.835638	57.007652
29032		8.801591	3.079677	-3.121572	-0.672663	-0.422790	-0.011392	0.049652	-0.091831	-0.131501	-0.758545	-0.234863	0.552979	0.088050	0.030747	-0.031168	-0.060286	-0.774221	-0.157710	-0.609980	131.020743	-67.744296	57.031194
29033		8.816815	2.780073	-2.994433	-0.589294	-0.109429	-0.113595	-0.005145	-0.110267	-0.132984	-0.757324	-0.235107	0.552979	0.088203	0.027741	-0.029896	-0.060791	-0.774450	-0.158179	-0.609516	131.013188	-67.645559	57.037225
29034		8.931341	2.462722	-2.724739	-0.351096	0.266625	-0.165736	0.049242	-0.099233	-0.137335	-0.753906	-0.240479	0.557373	0.089344	0.024573	-0.027197	-0.061104	-0.774663	-0.158820	-0.609049	131.021165	-67.548893	57.057749
29035		9.080805	2.436166	-2.133724	0.254478	0.411534	-0.183848	0.114959	-0.100437	-0.155965	-0.751465	-0.230957	0.548096	0.090838	0.024303	-0.021278	-0.061205	-0.774880	-0.159747	-0.608520	131.051277	-67.443922	57.097503
29036		9.079410	2.645015	-1.846359	0.579331	0.257711	-0.198180	0.185956	-0.113909	-0.173427	-0.749268	-0.230469	0.559326	0.090827	0.026389	-0.018387	-0.061109	-0.775148	-0.160938	-0.607874	131.120135	-67.326161	57.136969
29037		8.945963	2.981659	-1.556795	0.904764	-0.057389	-0.298370	0.218858	-0.138573	-0.176697	-0.757080	-0.230713	0.550049	0.089497	0.029755	-0.015473	-0.060902	-0.775493	-0.162250	-0.607105	131.230174	-67.197901	57.154675
29038		8.994470	2.986684	-1.557504	0.932906	-0.029415	-0.253642	0.119838	-0.175952	-0.179690	-0.759521	-0.241699	0.564941	0.089985	0.029795	-0.015478	-0.061130	-0.775920	-0.163247	-0.606268	131.318421	-67.054068	57.132364
29039		9.019270	2.815415	-1.698410	0.791319	0.143618	-0.246523	0.117912	-0.210168	-0.187319	-0.749512	-0.230713	0.567871	0.090237	0.028080	-0.016873	-0.061404	-0.776440	-0.164271	-0.605298	131.432756	-66.894151	57.082595
29040		9.028081	2.576636	-1.560367	0.903100	0.404398	-0.346914	0.059286	-0.230177	-0.185673	-0.746582	-0.233154	0.562988	0.090323	0.025687	-0.015492	-0.061930	-0.777005	-0.165089	-0.604296	131.533780	-66.727149	57.008346
29041		9.008358	2.683817	-1.908171	0.607627	0.282317	-0.244747	0.116239	-0.270253	-0.208801	-0.741699	-0.240967	0.572021	0.090137	0.026755	-0.018944	-0.062325	-0.777684	-0.166172	-0.603084	131.685547	-66.535091	56.916628
29042		8.816770	3.119057	-2.150798	0.440363	-0.192771	-0.228393	0.159471	-0.284076	-0.211926	-0.739258	-0.241211	0.567871	0.088231	0.031114	-0.021358	-0.062585	-0.778417	-0.167376	-0.601777	131.870621	-66.336169	56.813054
29043		8.773461	3.188407	-2.330649	0.299749	-0.267781	-0.199685	0.012505	-0.328831	-0.209510	-0.739014	-0.246582	0.568359	0.087806	0.031794	-0.023160	-0.063434	-0.779233	-0.168130	-0.600420	132.014881	-66.121167	56.664313
29044		8.854017	3.050722	-2.529200	0.130046	-0.107215	-0.113778	-0.028510	-0.342770	-0.200041	-0.730957	-0.246094	0.576416	0.088614	0.030415	-0.025145	-0.064441	-0.780088	-0.168702	-0.599041	132.154329	-65.904542	56.492289
29045		8.932593	3.168662	-2.718276	0.017672	-0.185169	0.045606	0.024826	-0.332491	-0.199815	-0.735107	-0.245605	0.574463	0.089403	0.031601	-0.027030	-0.065215	-0.780922	-0.169452	-0.597657	132.312257	-65.691942	56.335804
29046		8.837693	3.437341	-3.074065	-0.263044	-0.480805	0.140680	0.097210	-0.328216	-0.202337	-0.727051	-0.249023	0.580322	0.088462	0.034299	-0.030579	-0.065725	-0.781765	-0.170413	-0.596224	132.502464	-65.479583	56.186561
29047		8.747326	3.431107	-3.111824	-0.291181	-0.487220	0.069083	0.008134	-0.319497	-0.177078	-0.727783	-0.244873	0.579834	0.087553	0.034235	-0.030977	-0.066485	-0.782568	-0.171028	-0.594908	132.652571	-65.281231	56.027640
29048		8.887160	3.032756	-2.920415	-0.123778	-0.024644	0.020522	-0.088655	-0.342183	-0.170590	-0.725342	-0.258301	0.581787	0.088947	0.030239	-0.029065	-0.067638	-0.783413	-0.171305	-0.593585	132.770753	-65.076478	55.839985
29049		8.992882	2.833877	-2.700493	0.100765	0.242780	-0.008288	-0.016660	-0.328000	-0.179114	-0.718262	-0.249756	0.584961	0.089998	0.028256	-0.026860	-0.068508	-0.784227	-0.171850	-0.592252	132.908004	-64.873658	55.679052
29050		9.080601	2.866019	-2.389696	0.453003	0.296780	-0.010207	0.038327	-0.337729	-0.196627	-0.715088	-0.253418	0.585205	0.090874	0.028575	-0.023738	-0.069238	-0.785074	-0.172605	-0.590824	133.068165	-64.659358	55.524619
29051		9.218860	2.986152	-2.112584	0.805499	0.285678	0.068451	0.013735	-0.393725	-0.222577	-0.714355	-0.249512	0.588867	0.092263	0.029760	-0.020942	-0.070173	-0.786048	-0.173386	-0.589187	133.239546	-64.412244	55.344592
29052		9.242958	3.000791	-1.922722	1.030915	0.326757	0.034349	0.013947	-0.427522	-0.235209	-0.709717	-0.259521	0.585938	0.092506	0.029900	-0.019027	-0.071188	-0.787110	-0.174189	-0.587408	133.426273	-64.146194	55.144754
29053		9.018420	2.723950	-1.968705	0.917337	0.527707	-0.246736	0.014310	-0.461428	-0.222074	-0.702148	-0.260742	0.586914	0.090259	0.027141	-0.019477	-0.072177	-0.788275	-0.174944	-0.585498	133.648893	-63.872055	54.907288
29054		8.890421	2.492630	-2.200377	0.663063	0.703267	-0.370232	0.106168	-0.486091	-0.250266	-0.705322	-0.257080	0.602295	0.088988	0.024827	-0.021774	-0.072960	-0.789530	-0.176000	-0.583390	133.916994	-63.575991	54.667233
29055		8.746097	2.646294	-2.537956	0.381909	0.506845	-0.350378	0.182739	-0.506446	-0.268948	-0.691895	-0.253174	0.605225	0.087560	0.026368	-0.025134	-0.073460	-0.790834	-0.177413	-0.581128	134.225251	-63.263658	54.440709
29056		8.462132	3.274485	-2.969583	0.074404	-0.188838	-0.267698	0.317959	-0.534537	-0.295390	-0.690674	-0.264160	0.607422	0.084748	0.032667	-0.029417	-0.073541	-0.792241	-0.179295	-0.578619	134.605946	-62.928538	54.216609
29057		8.448624	3.399974	-2.991587	0.131185	-0.281715	-0.231887	0.203194	-0.576265	-0.284987	-0.681885	-0.258057	0.616211	0.084620	0.033909	-0.029638	-0.074069	-0.793723	-0.180802	-0.576045	134.955225	-62.580273	53.955788
29058		8.757069	2.713217	-2.678409	0.424276	0.531628	-0.285952	-0.082894	-0.623966	-0.296638	-0.681641	-0.258545	0.612793	0.087694	0.026991	-0.026522	-0.075824	-0.795221	-0.181493	-0.573528	135.161404	-62.207263	53.667732
29059		8.761849	2.764478	-3.064260	0.128509	0.490225	-0.140832	0.219079	-0.617918	-0.326426	-0.674072	-0.263184	0.620361	0.087758	0.027535	-0.030341	-0.076441	-0.796775	-0.183187	-0.570744	135.506073	-61.824197	53.420672
29060		8.294825	4.196541	-3.439047	0.007136	-1.007807	0.047629	0.612061	-0.574475	-0.340583	-0.665039	-0.262207	0.626465	0.083118	0.041928	-0.034024	-0.075506	-0.798333	-0.186056	-0.567756	136.023930	-61.452357	53.229131
29061		7.795975	4.654416	-3.464562	0.009209	-1.593977	-0.226097	0.339136	-0.610460	-0.301800	-0.660889	-0.252441	0.625244	0.078135	0.046485	-0.034328	-0.075568	-0.799908	-0.187995	-0.564885	136.432922	-61.080375	52.985413
29062		7.839097	4.071809	-4.046864	-0.584687	-1.062825	-0.172338	0.044807	-0.659546	-0.255239	-0.657471	-0.261230	0.635742	0.078576	0.040627	-0.040201	-0.076736	-0.801547	-0.188878	-0.562103	136.735080	-60.705467	52.667397
29063		7.557359	4.413795	-4.266956	-0.738212	-1.475858	-0.216924	0.309638	-0.599373	-0.239739	-0.648682	-0.259033	0.633545	0.075754	0.044113	-0.042374	-0.076726	-0.803119	-0.190481	-0.559312	137.150914	-60.360970	52.394665
29064		7.375775	5.135867	-3.804881	-0.143862	-2.143525	-0.292153	0.214058	-0.586002	-0.185899	-0.647217	-0.255859	0.635986	0.073916	0.051331	-0.037777	-0.076951	-0.804663	-0.191586	-0.556678	137.534834	-60.041936	52.091949
29065		7.525453	5.211569	-4.021159	-0.228251	-2.146947	-0.050471	-0.136245	-0.669985	-0.119043	-0.640137	-0.263672	0.649658	0.075420	0.052044	-0.039995	-0.078464	-0.806357	-0.191431	-0.554063	137.816433	-59.712401	51.677257
29066		7.503568	4.524822	-4.004723	-0.329335	-1.496275	-0.301228	-0.308225	-0.663981	-0.058996	-0.633789	-0.263184	0.649414	0.075182	0.045165	-0.039867	-0.080512	-0.808018	-0.190539	-0.551651	138.031689	-59.407389	51.221147
29067		8.190807	3.822126	-3.268017	0.456560	-0.492064	-0.224826	-0.437586	-0.730553	-0.048069	-0.625977	-0.272461	0.645752	0.082036	0.038130	-0.032464	-0.083099	-0.809805	-0.189234	-0.549092	138.217106	-59.077540	50.714755
29068		10.171731	3.516367	-3.381693	0.989013	0.598498	1.409073	-0.331544	-0.824424	-0.057389	-0.621094	-0.260986	0.651611	0.101866	0.035079	-0.033455	-0.085371	-0.811868	-0.188216	-0.546037	138.507327	-58.702749	50.155086
29069		11.446848	3.161236	-3.296579	1.493766	1.468603	2.332369	-0.222163	-0.785908	-0.062394	-0.620117	-0.274902	0.657227	0.114607	0.031540	-0.032551	-0.087174	-0.813854	-0.187530	-0.543024	138.823022	-58.341234	49.636803
29070		11.653372	2.063996	-3.077195	1.616590	2.600586	2.025943	-0.284740	-0.781009	-0.111043	-0.601563	-0.276367	0.661133	0.116664	0.020532	-0.030346	-0.089372	-0.815743	-0.186852	-0.540057	139.056508	-57.962076	49.168312
29071		11.733123	0.138089	-2.722349	1.652006	4.451516	1.257564	-0.350308	-0.797165	-0.177752	-0.597656	-0.273682	0.664551	0.117440	0.001229	-0.026758	-0.092017	-0.817566	-0.186277	-0.537048	139.208560	-57.550241	48.752378
29072		12.094300	-1.447088	-2.409182	1.829141	6.107717	0.841853	-0.165542	-0.857156	-0.333490	-0.596436	-0.274658	0.665771	0.121020	-0.014692	-0.023561	-0.094379	-0.819472	-0.186803	-0.533539	139.387839	-57.053527	48.427754
29073		12.381868	-1.162306	-1.901038	2.548246	6.045121	0.922168	0.291460	-0.950212	-0.518549	-0.586426	-0.286377	0.677246	0.123877	-0.011917	-0.018439	-0.095446	-0.821648	-0.189257	-0.529119	139.749529	-56.446635	48.196110
29074		12.558784	0.068111	-1.406363	3.425693	5.090164	1.235315	0.326485	-1.102263	-0.608340	-0.569336	-0.283447	0.677002	0.125664	0.000321	-0.013370	-0.096747	-0.824127	-0.192092	-0.523981	140.145271	-55.739275	47.945760
29075		12.868711	0.333307	-1.440725	3.693722	5.063217	1.523446	0.032384	-1.255088	-0.677022	-0.568848	-0.284668	0.684570	0.128784	0.002899	-0.013599	-0.099582	-0.826760	-0.194358	-0.518436	140.398184	-54.938491	47.662024
29076		13.103572	-0.102419	-1.312127	3.945197	5.659313	1.405148	-0.052036	-1.377703	-0.739555	-0.553467	-0.287598	0.697510	0.131117	-0.001512	-0.012218	-0.103042	-0.829561	-0.196589	-0.512409	140.614787	-54.060346	47.360386
29077		13.882680	-1.478068	-1.516766	3.925028	7.339724	1.498004	-0.192700	-1.500000	-0.848952	-0.540039	-0.284424	0.706543	0.138871	-0.015384	-0.014112	-0.107478	-0.832440	-0.198840	-0.505919	140.733634	-53.087472	47.076676
29078		14.451388	-1.411721	-1.764692	4.121753	7.653328	1.950877	0.221687	-1.581927	-1.022132	-0.522705	-0.288818	0.700195	0.144573	-0.014837	-0.016520	-0.110714	-0.835513	-0.202774	-0.498542	141.015184	-52.015376	46.880010
29079		14.953457	-1.151835	-1.760819	4.572424	7.794454	2.285467	0.379225	-1.654538	-1.135341	-0.510498	-0.294189	0.716064	0.149605	-0.012336	-0.016394	-0.113623	-0.838653	-0.207539	-0.490590	141.343280	-50.869207	46.739556
29080		15.519503	-1.435168	-2.471160	4.316437	8.466208	2.785106	0.526582	-1.708897	-1.313570	-0.500000	-0.295410	0.725098	0.155300	-0.015309	-0.023424	-0.116394	-0.841729	-0.213352	-0.482105	141.670658	-49.635293	46.707146
29081		15.202039	-0.285516	-3.098538	4.108704	7.482517	3.145184	1.132616	-1.695551	-1.456942	-0.468994	-0.287842	0.735840	0.152251	-0.003793	-0.029715	-0.116931	-0.844856	-0.221213	-0.472874	142.253005	-48.355992	46.796706
29082		14.469580	0.525911	-4.178710	3.266224	6.592415	3.339153	1.262626	-1.667666	-1.506520	-0.453125	-0.291992	0.739746	0.145073	0.004426	-0.040549	-0.116983	-0.847801	-0.229565	-0.463517	142.862884	-47.073667	46.951166
29083		13.762532	0.944410	-5.101164	2.478891	6.043738	3.364662	1.287094	-1.591105	-1.505426	-0.448730	-0.276123	0.752930	0.138093	0.008729	-0.049857	-0.116825	-0.850446	-0.237982	-0.454376	143.450332	-45.827104	47.159497
29084		12.925159	1.243403	-5.777177	1.804091	5.513825	3.161082	1.335615	-1.514132	-1.511939	-0.432373	-0.280273	0.760254	0.129775	0.011835	-0.056710	-0.116362	-0.852800	-0.246536	-0.445434	144.030046	-44.616453	47.421855
29085		11.661988	2.192070	-6.178359	1.357759	4.184996	2.821258	1.520759	-1.393549	-1.522624	-0.425049	-0.271973	0.772705	0.117211	0.021495	-0.060804	-0.114968	-0.854843	-0.255587	-0.436694	144.666992	-43.459380	47.760457
29086		9.862419	3.478378	-6.953109	0.490780	2.234287	2.535366	1.835268	-1.295415	-1.540940	-0.403564	-0.259521	0.780762	0.099338	0.034652	-0.068571	-0.112122	-0.856679	-0.265405	-0.427891	145.442411	-42.346616	48.167074
29087		8.479169	4.950789	-7.336712	0.258160	0.326423	2.437029	1.924073	-1.148428	-1.520540	-0.389893	-0.246094	0.793701	0.085586	0.049559	-0.072401	-0.108639	-0.858119	-0.275369	-0.419525	146.231420	-41.313137	48.638485
29088		7.132157	5.825176	-7.657207	-0.103321	-1.092225	2.113142	1.608008	-0.966894	-1.281283	-0.375488	-0.238770	0.802734	0.072063	0.058403	-0.075756	-0.105740	-0.859202	-0.283689	-0.412445	146.888062	-40.447673	49.043957
29089		5.844834	6.778374	-8.055083	-0.478458	-2.569624	1.941384	1.137758	-0.747393	-1.038267	-0.377441	-0.231689	0.812500	0.059100	0.067934	-0.079945	-0.104041	-0.859842	-0.290092	-0.407055	147.316212	-39.765207	49.392774
29090		4.178863	7.020202	-8.912379	-1.714799	-3.737188	1.556918	0.762969	-0.573578	-0.840552	-0.371338	-0.226563	0.808105	0.042339	0.070364	-0.088735	-0.103290	-0.860171	-0.294948	-0.403042	147.565828	-39.230362	49.688701
29091		0.920386	7.499118	-10.024559	-3.863164	-6.089194	0.462141	0.687651	-0.329380	-0.763388	-0.370605	-0.223633	0.813477	0.009656	0.075299	-0.099971	-0.102347	-0.860053	-0.299444	-0.400210	147.743149	-38.837103	50.034289
29092		-3.210524	10.870214	-10.040653	-4.295708	-11.278243	-0.667977	1.467623	-0.091697	-1.072419	-0.368652	-0.214355	0.813232	-0.031473	0.109605	-0.099619	-0.098303	-0.859347	-0.306928	-0.397057	148.190929	-38.467843	50.664818
29093		-1.696302	9.536078	-4.354681	0.218782	-8.898680	-4.021057	-0.047521	0.052750	-0.419444	-0.367676	-0.211670	0.821777	-0.016774	0.095386	-0.043565	-0.099251	-0.858574	-0.308663	-0.397148	147.990294	-38.366662	50.945446
29094		1.691794	2.350668	-2.731533	-0.177679	-1.008926	-5.965769	-2.827506	0.072643	0.434504	-0.369141	-0.242432	0.803955	0.016857	0.023154	-0.027650	-0.110394	-0.857611	-0.301184	-0.402001	146.519684	-38.537296	50.706298
29095		3.298056	-0.744745	-3.568307	-1.402404	2.415747	-5.767722	-1.863499	0.637722	0.293400	-0.383789	-0.255127	0.799805	0.032878	-0.007732	-0.035717	-0.116821	-0.855701	-0.296520	-0.407683	145.400698	-38.934366	50.789794
29096		2.624886	2.112634	-4.847788	-1.546398	-0.360225	-4.126554	2.014492	1.207877	-0.021147	-0.385254	-0.232666	0.805908	0.025959	0.021611	-0.048419	-0.106436	-0.854326	-0.301398	-0.409827	146.230494	-39.501026	51.304066
29097		1.043202	8.311808	-4.390578	0.816308	-6.339083	-2.841777	3.320421	1.708097	-0.094131	-0.407959	-0.211426	0.808105	0.010104	0.083828	-0.042605	-0.089845	-0.852303	-0.309462	-0.411996	147.649943	-40.292000	52.058682
29098		-0.263330	10.070860	-3.824123	1.585237	-8.562503	-3.465720	1.220929	1.615931	0.171856	-0.427002	-0.197510	0.804199	-0.003026	0.100937	-0.037602	-0.081779	-0.849749	-0.311943	-0.417051	147.997903	-41.128935	52.597481
29099		0.356429	7.169255	-3.931204	0.419557	-5.965284	-4.225461	-1.100801	1.628783	0.742731	-0.437744	-0.198486	0.801514	0.002976	0.071486	-0.039732	-0.082354	-0.847014	-0.307143	-0.425967	147.243445	-42.145146	52.785157
29100		0.728714	4.451140	-4.199336	-0.984839	-3.654226	-4.949290	-1.504176	1.939211	1.065428	-0.461914	-0.208984	0.791016	0.006641	0.044230	-0.042393	-0.083465	-0.843827	-0.300191	-0.436892	146.291398	-43.409788	52.918109
29101		1.051244	4.273498	-4.333520	-1.154760	-3.400708	-4.788058	-0.649975	2.271744	1.196444	-0.476563	-0.221436	0.784180	0.009763	0.042653	-0.043588	-0.080168	-0.840316	-0.294648	-0.447911	145.765914	-44.872484	53.139255
29102		1.656403	5.034071	-4.083140	-0.490797	-3.739520	-4.287305	-0.398276	2.490783	1.425492	-0.507813	-0.216553	0.768555	0.015694	0.050373	-0.041131	-0.074968	-0.836593	-0.288726	-0.459489	145.402335	-46.512048	53.328245
29103		2.212209	4.978954	-4.191821	-0.519537	-3.516546	-3.929239	-1.079363	2.624344	1.719814	-0.533447	-0.209229	0.749756	0.021139	0.049746	-0.042468	-0.071725	-0.832527	-0.279999	-0.472604	144.727000	-48.309199	53.406777
29104		2.111057	3.738521	-4.560137	-1.537693	-2.698581	-4.374251	-1.507677	2.787039	1.961254	-0.557373	-0.214111	0.735596	0.020104	0.037239	-0.046167	-0.069449	-0.828004	-0.269219	-0.486938	143.840665	-50.262253	53.436326
29105		2.127581	3.315336	-4.773577	-2.045991	-2.467947	-4.518926	-1.102005	2.918862	1.994023	-0.579102	-0.209473	0.719971	0.020244	0.033094	-0.048219	-0.065207	-0.823057	-0.259251	-0.501112	143.114034	-52.286352	53.559531
29106		2.762247	3.592650	-5.243894	-2.270669	-2.599266	-3.802821	-0.198332	2.908647	1.965162	-0.619629	-0.204102	0.702393	0.026501	0.036138	-0.052866	-0.057317	-0.818127	-0.251570	-0.513903	142.861273	-54.295378	53.732886
29107		4.329255	4.346675	-5.632804	-1.959019	-2.763042	-2.204468	-0.157430	2.943187	2.013143	-0.644531	-0.186523	0.684082	0.042017	0.043849	-0.056987	-0.049070	-0.812922	-0.243737	-0.526633	142.623532	-56.336059	53.913449
29108		5.745283	4.708710	-6.037446	-1.944301	-2.732497	-0.847575	-0.938980	2.978316	2.175695	-0.674805	-0.188965	0.675293	0.056029	0.047415	-0.061438	-0.043516	-0.807354	-0.233106	-0.540322	141.997189	-58.448974	54.018407
29109		6.389582	4.407193	-6.069146	-2.142519	-2.420296	-0.505459	-1.258558	2.950083	2.300897	-0.695068	-0.177979	0.645508	0.062479	0.044409	-0.061899	-0.038925	-0.801635	-0.221018	-0.554091	141.250157	-60.592696	54.049519
29110		6.731462	3.990378	-5.728912	-2.129749	-2.076112	-0.582339	-0.892765	2.866546	2.305694	-0.721436	-0.171875	0.629150	0.066019	0.040411	-0.058421	-0.032940	-0.795925	-0.209819	-0.566917	140.725368	-62.700765	54.064458
29111		7.628651	4.748562	-5.775576	-1.943617	-2.692873	0.339250	-0.280278	2.714522	2.133366	-0.742188	-0.164063	0.607666	0.074981	0.048208	-0.058847	-0.025148	-0.790303	-0.200954	-0.578278	140.479783	-64.678659	54.160329
29112		8.229549	7.143596	-6.215149	-1.722758	-5.048985	1.541238	0.293828	2.608727	1.848227	-0.770996	-0.157227	0.593262	0.080811	0.072280	-0.063106	-0.016019	-0.784553	-0.194799	-0.588449	140.347995	-66.505597	54.489621
29113		8.274401	9.264379	-6.002133	-1.108168	-7.232858	1.881979	0.143575	2.463362	1.681409	-0.784180	-0.125244	0.583740	0.081214	0.093374	-0.060961	-0.008100	-0.778868	-0.188805	-0.598040	140.039477	-68.206820	54.914050
29114		8.482762	8.281012	-5.864386	-1.435369	-6.477447	1.628231	-0.593968	2.121522	1.699359	-0.799561	-0.119629	0.560303	0.083491	0.083347	-0.059781	-0.003329	-0.774029	-0.180476	-0.606874	139.593956	-69.763775	55.026377
29115		8.242853	5.500856	-6.408622	-2.980395	-4.269185	0.777788	-0.701391	1.912231	1.631104	-0.822266	-0.111084	0.549805	0.081359	0.055448	-0.065061	0.000639	-0.769621	-0.172056	-0.614882	139.182763	-71.204040	55.037276
29116		7.621997	4.132328	-5.948832	-3.196374	-3.221560	-0.327992	-0.163993	1.844249	1.375718	-0.820068	-0.104980	0.538818	0.075380	0.041795	-0.060220	0.005823	-0.765084	-0.166241	-0.622074	138.787416	-72.518565	55.354338
29117		9.499569	3.936720	-3.299162	-0.549770	-2.142423	0.757508	-0.188682	1.482253	0.812874	-0.838135	-0.098877	0.519043	0.094587	0.039721	-0.033731	0.008869	-0.761127	-0.162499	-0.627854	137.974786	-73.463021	56.092074
29118		10.198912	7.295676	-6.782555	-2.944538	-5.984500	2.787436	1.009929	0.511590	-0.438949	-0.841553	-0.102295	0.514648	0.101976	0.073075	-0.067718	0.011747	-0.759106	-0.167313	-0.628988	137.260100	-73.509827	57.440647
29119		10.032795	4.256328	-4.733507	-1.858067	-2.684129	1.611935	-0.780350	0.229390	-0.064908	-0.833496	-0.094482	0.520752	0.100287	0.042345	-0.047616	0.008780	-0.758370	-0.165094	-0.630509	136.417951	-73.580468	57.853570
29120		17.162957	-5.278519	-5.289480	-3.615273	8.060314	6.690235	-5.630838	-1.147412	0.859778	-0.840332	-0.120117	0.521240	0.172153	-0.053488	-0.050409	-0.010812	-0.762624	-0.144066	-0.630502	135.930394	-73.446977	54.997172
29121		20.349518	-14.786987	-8.463238	-7.709648	17.538021	8.554448	-1.911547	-0.206191	1.093208	-0.830811	-0.128418	0.521729	0.204388	-0.147553	-0.083011	-0.014795	-0.763911	-0.133856	-0.631113	136.654630	-73.794631	53.101758
29122		12.751718	-1.910665	-4.358869	-2.446104	3.967005	2.975341	2.098928	0.076773	0.577818	-0.835205	-0.124512	0.524414	0.127554	-0.018279	-0.043832	-0.004904	-0.764167	-0.138267	-0.630005	138.603699	-74.050146	52.324639
29123		6.328725	6.963762	-5.962167	-3.198826	-6.346950	-1.235017	1.628662	0.174087	-0.177187	-0.824219	-0.100098	0.524414	0.063298	0.070064	-0.059107	0.000889	-0.763510	-0.144078	-0.629518	139.040809	-74.058587	52.841543
29124		0.263135	9.352575	-4.955186	-2.639338	-9.812172	-6.837983	0.189285	0.088880	-0.292236	-0.834473	-0.106201	0.518066	0.002746	0.093569	-0.049465	0.000752	-0.763020	-0.145784	-0.629719	138.592751	-73.986457	53.419686
29125		4.279351	3.008522	-4.321926	-2.805635	-2.688691	-4.250174	-2.535050	-0.768670	0.417165	-0.829834	-0.119385	0.517334	0.042898	0.029625	-0.043432	-0.008159	-0.765685	-0.136205	-0.628576	138.770901	-73.813684	51.723506
29126		12.169238	-6.445156	-5.082146	-3.858136	8.194347	1.737364	-5.318791	-1.078491	0.719421	-0.829590	-0.141602	0.510986	0.122192	-0.065322	-0.048434	-0.026993	-0.769063	-0.116639	-0.627861	138.183075	-73.623928	49.160641
29127		15.037439	-11.209285	-6.739832	-5.370943	13.421420	3.906477	-1.282826	0.360168	0.174501	-0.831787	-0.149902	0.510986	0.150352	-0.112392	-0.066949	-0.031160	-0.767843	-0.111991	-0.630003	137.226804	-73.844062	49.392142
29128		10.633254	4.075643	-0.583090	1.972671	-1.761252	1.278822	4.160255	0.170009	-0.289411	-0.821045	-0.133301	0.520508	0.106387	0.040713	-0.005074	-0.016001	-0.767630	-0.126203	-0.628141	138.962130	-73.805587	50.066657
29129		8.309452	7.890439	-0.596652	2.340002	-5.920283	-0.266204	1.906538	0.334850	-0.304116	-0.827148	-0.120361	0.528320	0.083205	0.078831	-0.005354	-0.009419	-0.766502	-0.133383	-0.628168	139.168752	-73.836569	50.989936
29130		6.907898	4.730410	-0.123757	1.961513	-3.086963	-2.280511	-2.134539	-0.256828	-0.098109	-0.820801	-0.134766	0.517334	0.069104	0.047254	-0.001653	-0.018083	-0.767101	-0.127029	-0.628564	138.135649	-73.688682	50.791301
29131		8.818153	0.397615	-2.000882	-0.295412	1.294305	-0.859547	-2.095107	-0.380668	-0.026228	-0.824219	-0.145752	0.512695	0.088220	0.003756	-0.019881	-0.026434	-0.768048	-0.120508	-0.628396	137.396841	-73.517304	50.311141
29132		11.548725	-0.595406	-3.445362	-1.342087	2.712396	1.868056	0.573904	-0.071858	-0.080609	-0.821045	-0.141846	0.520020	0.115497	-0.005902	-0.034429	-0.024531	-0.768300	-0.122606	-0.627758	137.705326	-73.455474	50.331664
29133		11.532196	1.926319	-1.854135	0.597712	0.443778	2.001959	1.118039	0.233833	-0.145421	-0.821533	-0.142578	0.515137	0.115314	0.019283	-0.018568	-0.020541	-0.767602	-0.126704	-0.627943	137.835606	-73.498888	50.864963
29134		9.494049	2.838804	-1.134372	1.080498	-0.787625	0.071376	-0.066283	-0.023688	-0.208967	-0.818604	-0.137695	0.527588	0.094971	0.028285	-0.011342	-0.021471	-0.767539	-0.127290	-0.627869	137.531400	-73.407988	51.141939
29135		9.360464	3.134790	-2.242939	0.039212	-1.219595	0.236538	-0.061137	-0.222090	-0.235697	-0.813477	-0.144775	0.528809	0.093666	0.031231	-0.022335	-0.022579	-0.768079	-0.127983	-0.627029	137.452297	-73.223143	51.188962
29136		8.571295	2.736701	-1.367911	0.685721	-0.881835	-0.780525	-0.167260	-0.070348	-0.120092	-0.816650	-0.147461	0.527100	0.085734	0.027304	-0.013672	-0.023648	-0.768206	-0.127906	-0.626849	137.280202	-73.146612	51.267769
29137		8.284807	1.252460	-0.795538	0.947586	0.573599	-1.469271	-0.609390	-0.281738	-0.122325	-0.823242	-0.148193	0.520752	0.082867	0.012450	-0.007877	-0.026544	-0.768934	-0.126436	-0.626139	137.123525	-72.980758	51.067578
29138		9.040434	-0.253504	-0.815995	0.843007	2.219437	-1.047821	-0.501106	-0.297678	-0.184652	-0.811035	-0.155029	0.523438	0.090414	-0.002639	-0.008019	-0.029242	-0.769682	-0.125531	-0.625281	136.963223	-72.783579	50.934132
29139		9.610727	0.152310	-1.287633	0.576751	1.929703	-0.326340	0.323980	-0.220396	-0.278550	-0.811035	-0.170410	0.535645	0.096123	0.001410	-0.012768	-0.028996	-0.770241	-0.127588	-0.624186	137.051809	-72.582594	51.036795
29140		9.847826	3.068864	-1.676731	0.743027	-0.851320	0.576345	1.008009	-0.150712	-0.346849	-0.813721	-0.156250	0.531006	0.098544	0.030602	-0.016539	-0.026300	-0.770629	-0.132037	-0.622901	137.354027	-72.383972	51.324244
29141		9.562025	5.028530	-2.003035	0.750700	-2.823429	0.779531	0.546483	-0.153900	-0.272431	-0.803711	-0.150635	0.531738	0.095704	0.050209	-0.019819	-0.025136	-0.770996	-0.134772	-0.621908	137.495109	-72.213642	51.505840
29142		9.061669	4.293477	-2.308897	0.254823	-2.248350	0.225176	-0.424064	-0.305834	-0.175880	-0.800537	-0.157471	0.542480	0.090690	0.042806	-0.023041	-0.027529	-0.771775	-0.134086	-0.620988	137.390128	-72.016173	51.359966
29143		8.935485	1.721914	-2.296954	-0.191941	0.230674	-0.432192	-0.908921	-0.366658	-0.133098	-0.803223	-0.150391	0.533447	0.089408	0.017056	-0.022883	-0.031687	-0.772690	-0.131729	-0.620156	137.135566	-71.810332	51.080935
29144		9.163219	0.028494	-2.112868	-0.226802	1.973180	-0.621138	-0.633308	-0.354983	-0.172489	-0.796387	-0.168701	0.529785	0.091670	0.000139	-0.020967	-0.034906	-0.773574	-0.130370	-0.619167	136.973731	-71.593875	50.868525
29145		9.482959	0.323006	-1.642745	0.365852	1.848127	-0.369176	-0.032098	-0.323334	-0.231687	-0.798340	-0.177734	0.536133	0.094860	0.003118	-0.016275	-0.035951	-0.774417	-0.131114	-0.617896	137.043764	-71.368059	50.776294
29146		9.557959	1.862833	-1.469061	0.822615	0.429608	-0.008532	0.181221	-0.325821	-0.269033	-0.795166	-0.175537	0.548828	0.095628	0.018513	-0.014518	-0.036300	-0.775281	-0.132649	-0.616463	137.189827	-71.126139	50.730625
29147		9.107488	3.097748	-1.930094	0.517523	-0.892446	-0.055476	0.139321	-0.359435	-0.267075	-0.791260	-0.176514	0.555176	0.091151	0.030869	-0.019116	-0.036814	-0.776235	-0.134052	-0.614926	137.350209	-70.871239	50.646451
29148		8.899546	3.560253	-2.273874	0.251647	-1.398850	-0.064478	-0.046968	-0.387626	-0.216309	-0.775391	-0.181885	0.544922	0.089078	0.035501	-0.022574	-0.037928	-0.777274	-0.134667	-0.613409	137.492916	-70.623608	50.465536
29149		8.933094	3.051561	-2.665473	-0.172998	-0.913737	-0.047855	-0.307313	-0.403646	-0.194060	-0.767334	-0.175293	0.556396	0.089414	0.030388	-0.026521	-0.039981	-0.778320	-0.134406	-0.612008	137.527622	-70.378174	50.242956
29150		8.937825	2.340448	-2.532225	-0.133557	-0.184840	-0.235503	-0.334664	-0.364699	-0.186693	-0.781982	-0.183838	0.552246	0.089446	0.023279	-0.025198	-0.042107	-0.779245	-0.134026	-0.610772	137.509935	-70.151567	50.056706
29151		9.083911	2.012728	-2.333596	0.062305	0.215803	-0.222921	-0.192330	-0.345865	-0.190005	-0.776367	-0.187256	0.552734	0.090898	0.020019	-0.023198	-0.043661	-0.780131	-0.134109	-0.609511	137.548238	-69.932097	49.899748
29152		8.986770	2.413502	-2.666084	-0.189729	-0.200660	-0.137014	-0.028680	-0.332131	-0.200993	-0.772949	-0.192871	0.562256	0.089936	0.024041	-0.026515	-0.044614	-0.781004	-0.134725	-0.608187	137.650206	-69.713668	49.772482
29153		8.833289	2.970934	-2.761193	-0.201663	-0.761995	-0.124745	-0.041756	-0.308619	-0.176439	-0.767334	-0.192871	0.564941	0.088402	0.029626	-0.027482	-0.045514	-0.781813	-0.135222	-0.606969	137.746494	-69.515056	49.645270
29154		8.704547	2.995451	-3.152998	-0.581954	-0.831609	-0.135243	-0.285546	-0.314073	-0.154207	-0.763916	-0.183838	0.560791	0.087118	0.029842	-0.031436	-0.047319	-0.782598	-0.134877	-0.605895	137.731583	-69.322173	49.484971
29155		8.645529	2.377984	-3.088294	-0.612559	-0.220878	-0.351533	-0.462414	-0.301846	-0.141496	-0.761230	-0.194824	0.557861	0.086519	0.023647	-0.030807	-0.049752	-0.783305	-0.133961	-0.604990	137.616812	-69.139929	49.325397
29156		8.962351	1.734371	-2.774803	-0.319306	0.539861	-0.292299	-0.576723	-0.315942	-0.149467	-0.756592	-0.214111	0.561035	0.089680	0.017197	-0.027656	-0.052680	-0.784016	-0.132716	-0.604095	137.441238	-68.948310	49.158590
29157		9.449535	1.499895	-2.659436	-0.109080	0.937273	0.072934	-0.415492	-0.315847	-0.158310	-0.758789	-0.207275	0.561035	0.094549	0.014869	-0.026476	-0.054989	-0.784752	-0.132002	-0.603088	137.348422	-68.753919	49.003896
29158		9.400197	1.860871	-2.251764	0.343144	0.635156	0.004426	-0.214500	-0.283052	-0.189800	-0.756592	-0.209961	0.562744	0.094051	0.018495	-0.022404	-0.056599	-0.785424	-0.132011	-0.602062	137.302789	-68.560665	48.919315
29159		9.332985	2.191194	-1.907830	0.724753	0.351299	-0.071180	-0.236539	-0.307907	-0.220079	-0.742920	-0.217041	0.569580	0.093383	0.021787	-0.018960	-0.058385	-0.786137	-0.132079	-0.600945	137.236997	-68.345723	48.845381
29160		9.675081	2.396478	-2.034453	0.739515	0.270528	0.329753	-0.152056	-0.346397	-0.234410	-0.744385	-0.226563	0.568604	0.096814	0.023836	-0.020195	-0.059925	-0.786980	-0.132432	-0.599611	137.240940	-68.108543	48.745770
29161		9.624931	2.275710	-1.856850	0.908058	0.413785	0.200809	-0.156034	-0.321926	-0.244920	-0.748779	-0.221191	0.570801	0.096307	0.022625	-0.018431	-0.061478	-0.787735	-0.132834	-0.598372	137.207761	-67.878060	48.686173
29162		9.449520	2.184425	-2.063695	0.682295	0.468812	0.068533	-0.048410	-0.360724	-0.256833	-0.736572	-0.230713	0.572266	0.094560	0.021718	-0.020472	-0.062686	-0.788630	-0.133578	-0.596900	137.259512	-67.626141	48.598548
29163		9.539158	2.689766	-2.532259	0.360081	0.011582	0.410459	0.166110	-0.372293	-0.272190	-0.729492	-0.227783	0.579834	0.095475	0.026789	-0.025123	-0.063084	-0.789610	-0.135034	-0.595234	137.427857	-67.363802	48.520393
29164		9.238632	2.573711	-2.857032	-0.006626	0.044396	0.194149	0.055177	-0.354401	-0.265053	-0.734619	-0.231934	0.581787	0.092471	0.025622	-0.028399	-0.063939	-0.790513	-0.136069	-0.593705	137.520897	-67.111468	48.444938
29165		8.932653	1.904472	-2.977604	-0.262686	0.617238	-0.229614	-0.066727	-0.346773	-0.275280	-0.731201	-0.233887	0.583496	0.089404	0.018912	-0.029627	-0.065248	-0.791332	-0.136852	-0.592290	137.525802	-66.858626	48.399122
29166		8.734772	1.121818	-2.443729	0.115054	1.369165	-0.777283	-0.159047	-0.360313	-0.281769	-0.727051	-0.238037	0.583496	0.087407	0.011076	-0.024289	-0.067002	-0.792165	-0.137314	-0.590872	137.483237	-66.597315	48.337419
29167		8.805107	0.924224	-2.083595	0.480572	1.630855	-0.877664	-0.016763	-0.410583	-0.315380	-0.720947	-0.243408	0.584473	0.088108	0.009102	-0.020656	-0.068274	-0.793154	-0.138379	-0.589150	137.533639	-66.301999	48.273016
29168		8.910012	2.276221	-2.200571	0.626253	0.400001	-0.386153	0.387108	-0.455440	-0.369040	-0.722656	-0.240723	0.584717	0.089192	0.022640	-0.021759	-0.068185	-0.794380	-0.140763	-0.586939	137.800461	-65.966701	48.214931
29169		8.896369	3.749986	-2.041603	1.039803	-0.963159	-0.047102	0.425539	-0.495419	-0.390632	-0.710693	-0.239502	0.591553	0.089087	0.037369	-0.020116	-0.067981	-0.795699	-0.143397	-0.584534	138.098612	-65.606223	48.156418
29170		8.980658	3.698593	-2.130619	1.025339	-0.854947	0.040674	-0.041592	-0.568857	-0.357815	-0.709961	-0.238281	0.593506	0.089933	0.036821	-0.021058	-0.069644	-0.797099	-0.144440	-0.582168	138.217253	-65.226657	47.990894
29171		8.899101	2.370388	-2.427498	0.570081	0.405702	-0.314500	-0.220944	-0.584651	-0.350231	-0.694824	-0.241455	0.606445	0.089103	0.023521	-0.024041	-0.071958	-0.798466	-0.144992	-0.579871	138.249573	-64.843350	47.816673
29172		8.569879	1.474642	-2.538311	0.285383	1.186443	-0.836552	0.068897	-0.569244	-0.388040	-0.687256	-0.248047	0.608154	0.085799	0.014589	-0.025134	-0.073229	-0.799859	-0.146523	-0.577402	138.396799	-64.451719	47.695665
29173		8.710221	1.567323	-2.308521	0.609631	1.193547	-0.765195	0.325915	-0.610248	-0.423458	-0.684570	-0.252441	0.611084	0.087205	0.015526	-0.022794	-0.073587	-0.801424	-0.148936	-0.574563	138.687566	-64.029253	47.581232
29174		8.943149	2.410438	-2.434806	0.753261	0.505206	-0.278790	0.528097	-0.659813	-0.489806	-0.672119	-0.250000	0.616943	0.089570	0.023949	-0.023989	-0.073410	-0.803153	-0.152106	-0.571331	139.066826	-63.559953	47.486909
29175		8.797722	3.335884	-2.262850	1.094234	-0.362059	-0.204389	0.602347	-0.662567	-0.514686	-0.671631	-0.243652	0.616455	0.088137	0.033200	-0.022237	-0.072957	-0.804865	-0.155652	-0.568015	139.461394	-63.080070	47.432654
29176		8.798351	3.213437	-1.690681	1.685482	-0.165139	-0.446430	0.341227	-0.730877	-0.507769	-0.669189	-0.248291	0.632813	0.088126	0.031939	-0.016530	-0.073636	-0.806676	-0.158330	-0.564609	139.754889	-62.572671	47.313653
29177		9.232433	1.859084	-1.259960	2.061690	1.333576	-0.633810	0.061276	-0.829220	-0.540394	-0.660400	-0.252686	0.634521	0.092425	0.018345	-0.012211	-0.075562	-0.808602	-0.160379	-0.561010	139.923993	-62.010093	47.163397
29178		9.623569	0.481443	-0.642076	2.593223	2.854104	-0.959128	0.125417	-0.879084	-0.606508	-0.653076	-0.249512	0.632080	0.096277	0.004526	-0.005995	-0.077501	-0.810631	-0.162782	-0.557111	140.103453	-61.400982	47.032322
29179		9.895503	0.215228	0.704695	3.958858	3.338578	-1.348407	0.277696	-0.975547	-0.688643	-0.637451	-0.252441	0.636963	0.098926	0.001801	0.007532	-0.079078	-0.812881	-0.165969	-0.552653	140.361813	-60.719161	46.920018
29180		10.541403	1.318957	1.439309	5.145290	2.659095	-0.791297	0.458186	-1.209847	-0.792044	-0.629150	-0.257813	0.655518	0.105375	0.012738	0.015060	-0.080414	-0.815729	-0.169957	-0.547024	140.782193	-59.895537	46.736490
29181		12.146258	2.364749	1.578705	6.148139	2.378622	0.777628	0.269462	-1.448459	-0.833340	-0.615723	-0.253906	0.666992	0.121441	0.023119	0.016698	-0.082814	-0.819062	-0.173507	-0.540532	141.193958	-58.950331	46.438685
29182		14.152150	2.650098	1.989472	7.458757	2.997841	2.296748	-0.067551	-1.675691	-0.862015	-0.593750	-0.262939	0.675537	0.141461	0.025898	0.021071	-0.086879	-0.822782	-0.176136	-0.533346	141.503699	-57.892220	46.027558
29183		16.323381	1.838782	0.232387	6.723283	4.631609	4.442984	-0.202687	-1.883619	-0.873895	-0.590332	-0.266113	0.676025	0.163281	0.017678	0.003843	-0.091690	-0.826903	-0.178366	-0.525366	141.819940	-56.735313	45.515004
29184		16.160721	2.380895	-2.371193	4.681747	4.132246	5.466587	0.301774	-1.834300	-0.913688	-0.565186	-0.269531	0.694092	0.161922	0.023104	-0.022193	-0.094481	-0.831004	-0.182066	-0.517066	142.340549	-55.584880	45.094112
29185		14.503059	2.087865	-3.822726	2.919773	3.855298	4.537046	0.259577	-1.784210	-0.966993	-0.559814	-0.269531	0.699463	0.145463	0.020225	-0.036904	-0.097514	-0.834816	-0.185906	-0.508932	142.750210	-54.436624	44.776816
29186		13.400698	0.268600	-5.225855	1.069093	5.193488	3.560346	-0.088246	-1.772445	-1.021129	-0.532715	-0.276855	0.710938	0.134474	0.001978	-0.051069	-0.102130	-0.838294	-0.189049	-0.501092	142.901868	-53.274455	44.524074
29187		12.888516	-1.046615	-5.878296	0.205781	6.326392	2.903128	0.202450	-1.714199	-1.096391	-0.523193	-0.269287	0.713867	0.129323	-0.011116	-0.057687	-0.105636	-0.841613	-0.193269	-0.493129	143.135769	-52.112184	44.377069
29188		12.768602	-1.080310	-5.969651	0.261942	6.453594	2.761827	0.684231	-1.653397	-1.199677	-0.505859	-0.275635	0.734375	0.128107	-0.011369	-0.058677	-0.107312	-0.844847	-0.199098	-0.484848	143.546240	-50.942508	44.351299
29189		13.401261	-0.883573	-5.345812	1.318577	6.710301	2.922291	0.809029	-1.648817	-1.300539	-0.490234	-0.279541	0.742432	0.134387	-0.009495	-0.052389	-0.108673	-0.847931	-0.205659	-0.476349	143.959757	-49.740246	44.417550
29190		14.562768	-1.495953	-4.477639	2.626688	7.959707	2.997376	0.663012	-1.650921	-1.405456	-0.465820	-0.272461	0.748047	0.145882	-0.015838	-0.043624	-0.110907	-0.850729	-0.212260	-0.467874	144.227692	-48.502599	44.562984
29191		15.008686	-1.814262	-3.590977	3.667661	8.641560	2.569220	0.898316	-1.613531	-1.492222	-0.455078	-0.277344	0.753906	0.150230	-0.019105	-0.034783	-0.112273	-0.853359	-0.219801	-0.459196	144.569861	-47.253392	44.796908
29192		14.606973	-0.847561	-3.569263	3.909278	7.783071	2.473732	1.309032	-1.594957	-1.537930	-0.436768	-0.268799	0.759033	0.146279	-0.009371	-0.034586	-0.111951	-0.855995	-0.228450	-0.450056	145.115583	-46.000102	45.078969
29193		13.715591	1.290119	-4.704612	3.337387	5.641564	3.185113	1.671225	-1.580134	-1.559595	-0.426758	-0.258789	0.780518	0.137618	0.012216	-0.045856	-0.110094	-0.858622	-0.237982	-0.440467	145.848060	-44.747985	45.396595
29194		12.281694	3.265532	-5.592030	2.737154	3.354371	3.379112	1.764693	-1.512493	-1.536763	-0.407471	-0.246094	0.778564	0.123482	0.032194	-0.054703	-0.107679	-0.861013	-0.247603	-0.430992	146.617563	-43.539631	45.744512
29195		10.937992	4.149875	-5.936900	2.303219	2.041941	2.939862	1.367215	-1.437585	-1.446941	-0.402344	-0.239014	0.802246	0.110100	0.041105	-0.058297	-0.106675	-0.862992	-0.255988	-0.422298	147.174158	-42.397066	46.078646
29196		9.504123	4.212627	-6.562012	1.303606	1.348078	2.336932	1.035374	-1.369502	-1.357729	-0.380127	-0.241943	0.803955	0.095771	0.041814	-0.064749	-0.106808	-0.864646	-0.263280	-0.414321	147.560817	-41.318309	46.389240
29197		8.105118	4.652533	-6.700144	0.812344	0.336478	1.652670	1.073696	-1.147781	-1.310799	-0.369141	-0.232422	0.803467	0.081737	0.046348	-0.066285	-0.106379	-0.865828	-0.270546	-0.407223	147.931423	-40.361545	46.764729
29198		6.682369	5.027880	-6.934441	0.194142	-0.685006	1.027556	1.129068	-0.889546	-1.132339	-0.363281	-0.229980	0.815918	0.067415	0.050288	-0.068762	-0.104983	-0.866672	-0.277256	-0.401232	148.343178	-39.587768	47.131812
29199		5.152150	4.773679	-7.781024	-1.214116	-1.323908	0.514412	0.858562	-0.671478	-0.775123	-0.358154	-0.224854	0.816650	0.051967	0.047869	-0.077431	-0.103738	-0.867377	-0.281980	-0.396715	148.690579	-39.027929	47.361474
29200		2.604244	5.356484	-9.737255	-3.661692	-3.333443	0.471620	0.948001	-0.447516	-0.687612	-0.361816	-0.212402	0.821045	0.026445	0.053935	-0.097059	-0.101607	-0.867770	-0.286598	-0.393081	149.070212	-38.606354	47.623444
29201		-0.703472	8.575048	-11.188255	-4.932048	-8.006597	0.711782	2.076722	-0.133018	-0.998681	-0.360352	-0.197021	0.832031	-0.006529	0.086939	-0.110988	-0.094735	-0.867599	-0.294928	-0.388993	149.900752	-38.250349	48.203149
29202		-2.410557	11.887507	-8.225881	-1.936506	-11.569313	-1.027251	1.477198	0.079742	-1.111288	-0.357666	-0.182373	0.835938	-0.023475	0.119610	-0.081368	-0.090363	-0.866472	-0.302629	-0.386621	150.297247	-37.973736	48.931291
29203		0.966756	6.263761	-5.159333	-0.447238	-4.804197	-3.216774	-1.718851	-0.116478	-0.060309	-0.358643	-0.202393	0.819092	0.009717	0.062188	-0.052123	-0.098091	-0.865798	-0.299506	-0.388674	149.316356	-37.898865	48.926459
29204		4.203064	0.665515	-3.730923	-0.295934	1.770530	-4.445657	-3.324858	0.276967	0.385542	-0.367920	-0.236572	0.819824	0.041967	0.006114	-0.037472	-0.111295	-0.864085	-0.291465	-0.394991	147.494437	-38.150910	48.792683
29205		4.768574	-1.399695	-5.055393	-1.921699	3.759656	-4.118206	-1.125497	0.967208	0.331864	-0.370361	-0.240234	0.811768	0.047464	-0.014203	-0.050704	-0.114081	-0.862009	-0.288340	-0.400982	146.738565	-38.719716	48.972805
29206		4.558198	3.128777	-4.941021	-0.134338	-0.091713	-2.399748	2.294577	1.605282	0.274769	-0.387207	-0.221924	0.813477	0.045142	0.031917	-0.049410	-0.101311	-0.860414	-0.292629	-0.404713	147.756885	-39.579469	49.441844
29207		2.059775	8.039923	-4.935786	0.768304	-5.686457	-2.046551	2.951613	2.090204	0.135214	-0.412598	-0.200928	0.815430	0.020034	0.081132	-0.048375	-0.085257	-0.857737	-0.299033	-0.409387	148.975605	-40.639931	50.176701
29208		-0.616993	9.386675	-4.586534	0.421352	-8.426763	-3.621011	0.864577	1.987950	0.236222	-0.422119	-0.177734	0.814209	-0.006734	0.094056	-0.045394	-0.078084	-0.854342	-0.300607	-0.416700	149.060619	-41.687131	50.799787
29209		-0.103731	7.239405	-4.725994	-0.457800	-6.481359	-4.108743	-0.981396	1.938286	0.656723	-0.451172	-0.187744	0.811279	-0.001735	0.072156	-0.047600	-0.077982	-0.850853	-0.296496	-0.426682	148.266595	-42.831566	51.145757
29210		1.090857	4.033621	-4.612961	-1.368692	-3.230619	-4.671983	-1.376270	2.203026	0.969623	-0.457764	-0.198486	0.792969	0.010203	0.040068	-0.046521	-0.078488	-0.846973	-0.290260	-0.438435	147.285888	-44.196526	51.425010
29211		1.809937	2.412306	-4.710069	-1.950886	-1.566994	-4.811076	-1.069114	2.553351	1.101074	-0.488037	-0.206055	0.777832	0.017363	0.023967	-0.047454	-0.076880	-0.842461	-0.284226	-0.451181	146.402557	-45.766527	51.809340
29212		2.433855	2.024228	-4.806399	-2.050772	-1.000207	-4.529333	-0.519690	2.838845	1.240738	-0.522217	-0.210205	0.768555	0.023527	0.020264	-0.048454	-0.072223	-0.837518	-0.278875	-0.464302	145.769045	-47.513782	52.270804
29213		2.887158	2.086318	-4.764434	-1.937925	-0.919684	-4.264397	-0.253963	3.061117	1.381794	-0.558105	-0.200195	0.757080	0.027993	0.020998	-0.048104	-0.065792	-0.832129	-0.273568	-0.477906	145.239892	-49.407879	52.784554
29214		2.951304	2.296663	-4.404319	-1.669683	-1.142161	-4.400957	-0.246301	3.275755	1.562294	-0.582520	-0.189453	0.740967	0.028606	0.023138	-0.044545	-0.058588	-0.826221	-0.267506	-0.492308	144.682200	-51.459272	53.324833
29215		2.758417	2.089922	-4.178070	-1.768614	-1.163709	-4.817992	-0.251113	3.459649	1.770410	-0.614258	-0.189941	0.721436	0.026670	0.021085	-0.042274	-0.050622	-0.819843	-0.260540	-0.507359	144.109274	-53.661712	53.866294
29216		3.002307	2.818480	-4.091245	-1.470694	-1.808315	-4.496807	0.110745	3.569486	1.818669	-0.641357	-0.173096	0.706299	0.029029	0.028475	-0.041421	-0.040890	-0.813021	-0.254212	-0.522207	143.657781	-55.928755	54.496468
29217		3.964862	3.702537	-4.180838	-1.045483	-2.338721	-3.461337	0.511819	3.583545	1.869371	-0.668701	-0.153320	0.675781	0.038543	0.037497	-0.042410	-0.029358	-0.805977	-0.248633	-0.536396	143.397426	-58.216754	55.157090
29218		5.203613	4.739555	-4.545712	-0.774667	-3.018835	-2.035688	0.267055	3.613530	1.995594	-0.698242	-0.145264	0.665771	0.050728	0.047968	-0.046318	-0.018428	-0.798634	-0.241781	-0.550805	143.002187	-60.560156	55.794113
29219		6.013695	6.077623	-4.910346	-0.601328	-4.225934	-0.925642	-0.142541	3.705434	2.150430	-0.735596	-0.131836	0.634277	0.058555	0.061376	-0.050242	-0.008584	-0.790833	-0.233091	-0.565843	142.348618	-62.995740	56.444105
29220		6.009523	7.064258	-5.517323	-1.062839	-5.551519	-0.620752	-0.607835	3.735805	2.321004	-0.762451	-0.120361	0.609131	0.058224	0.071155	-0.056488	-0.000063	-0.782748	-0.222294	-0.581284	141.431071	-65.501164	57.075811
29221		5.958539	7.530435	-5.918465	-1.582115	-6.386970	-0.651765	-0.951047	3.621004	2.466731	-0.795898	-0.113281	0.579590	0.057564	0.075737	-0.060599	0.007416	-0.774769	-0.209826	-0.596365	140.395872	-68.002841	57.610256
29222		6.608040	7.117496	-6.081359	-2.061783	-6.137451	-0.359269	-1.159179	3.414197	2.577134	-0.819092	-0.097168	0.561279	0.064104	0.071651	-0.062334	0.014190	-0.767145	-0.196207	-0.610566	139.386328	-70.450550	57.979310
29223		7.709316	6.593614	-6.129473	-2.400581	-5.652472	0.323639	-1.081817	3.222972	2.604142	-0.841797	-0.084473	0.541260	0.075224	0.066587	-0.062876	0.021156	-0.759761	-0.182647	-0.623663	138.503342	-72.823219	58.257444
29224		8.744443	6.541435	-6.376419	-2.794414	-5.725754	1.109768	-0.703962	3.044487	2.506883	-0.866211	-0.069092	0.502197	0.085631	0.066267	-0.065309	0.029072	-0.752479	-0.170568	-0.635481	137.771169	-75.080936	58.599118
29225		9.456162	6.861263	-6.626006	-3.116588	-6.266877	1.649986	-0.254279	2.845109	2.294635	-0.885742	-0.051514	0.478516	0.092811	0.069599	-0.067677	0.037835	-0.745306	-0.160690	-0.645961	137.081429	-77.171073	59.160401
29226		9.580999	6.999729	-6.399032	-3.087621	-6.629347	1.511693	-0.100092	2.622608	1.972880	-0.895752	-0.041748	0.467529	0.094263	0.070900	-0.065269	0.045933	-0.738339	-0.152497	-0.655355	136.012108	-79.039259	60.194229
29227		9.142938	5.668496	-4.701223	-2.105376	-5.239645	0.479580	-0.425966	2.320102	1.625483	-0.913818	-0.019043	0.446045	0.090411	0.057321	-0.048187	0.051459	-0.731998	-0.144557	-0.663803	134.216824	-80.638703	61.770978
29228		10.966383	2.965048	-5.456982	-3.632895	-2.764814	1.934047	-1.236221	1.323832	1.031126	-0.925049	-0.016602	0.434570	0.109145	0.029873	-0.055478	0.051304	-0.728628	-0.136331	-0.669241	132.577334	-81.588706	62.712826
29229		9.706318	6.458271	-9.819075	-7.060245	-7.467630	1.444460	0.488463	0.383355	-0.133074	-0.923340	-0.010254	0.439453	0.096918	0.064758	-0.098219	0.052907	-0.727125	-0.138356	-0.670335	131.401505	-81.679200	64.185155
29230		10.249955	3.298725	0.456197	1.931089	-1.759545	0.643128	-2.037066	0.595501	0.781603	-0.917480	-0.026367	0.429443	0.102382	0.033430	0.003918	0.048523	-0.726162	-0.128523	-0.673658	130.485498	-82.240433	63.931216
29231		17.921147	-17.412303	-1.845421	-4.417882	18.562782	6.420070	-7.874394	0.058090	1.758993	-0.925049	-0.038330	0.417969	0.180733	-0.173086	-0.011677	0.025869	-0.728415	-0.095508	-0.677953	130.861016	-83.027238	59.004356
29232		18.009243	-18.499194	-10.382456	-12.421943	18.109947	7.276984	1.577197	0.109961	0.738456	-0.932129	-0.024170	0.420898	0.180714	-0.183499	-0.105375	0.034161	-0.728164	-0.098145	-0.677478	133.762029	-83.382158	56.992211
29233		12.358179	0.064319	-3.560996	-2.724185	0.411548	2.749840	2.046003	0.579269	0.429272	-0.930908	-0.023682	0.424805	0.123476	0.001275	-0.035957	0.043354	-0.726020	-0.103413	-0.678470	134.334922	-83.789907	57.596340
29234		5.383898	1.056635	-4.271087	-3.641854	-1.377736	-4.052178	-1.091488	-0.223512	-0.202787	-0.930420	-0.021973	0.422607	0.053897	0.010279	-0.042707	0.038581	-0.726900	-0.100489	-0.678255	133.811781	-83.617028	57.492619
29235		3.858447	-2.292598	-4.126658	-4.243983	1.841198	-5.841411	-1.171052	-0.510522	-0.278597	-0.925049	-0.029541	0.424561	0.038657	-0.023221	-0.041033	0.033130	-0.728701	-0.097631	-0.677027	134.014413	-83.299368	56.614272
29236		9.874525	-5.270823	-0.687205	-0.951544	6.019801	-0.399154	-2.051363	-0.472658	-0.052218	-0.923096	-0.041992	0.419678	0.098746	-0.052799	-0.006097	0.025241	-0.730578	-0.090945	-0.676275	134.294099	-83.088860	55.148103
29237		13.062351	-4.237009	-3.283327	-3.017634	4.940333	3.065366	0.456396	-0.501435	-0.269790	-0.916260	-0.042480	0.426758	0.130648	-0.042472	-0.032603	0.025775	-0.732088	-0.093541	-0.674265	135.322501	-82.776926	54.376303
29238		14.252366	6.479998	-3.099283	-0.761206	-5.406077	5.184490	3.288498	-0.251854	-0.421695	-0.925781	-0.032227	0.438232	0.142699	0.064995	-0.029746	0.036263	-0.732218	-0.106184	-0.671763	136.640378	-82.504972	54.946375
29239		10.561145	12.065815	-1.203344	2.182052	-10.848258	1.854364	2.215036	0.580697	-0.242244	-0.920166	-0.014404	0.426270	0.105725	0.120656	-0.011004	0.043872	-0.729688	-0.114403	-0.672712	135.370764	-82.648167	57.507538
29240		6.301591	11.384555	0.279822	3.219548	-10.319195	-2.563968	-0.994155	0.116638	0.089749	-0.927979	-0.023926	0.432129	0.062966	0.113886	0.002195	0.040608	-0.729560	-0.110702	-0.673676	134.718478	-82.731330	57.590261
29241		6.661137	5.227295	-0.644734	0.892590	-4.520869	-2.680035	-2.953131	-0.425385	0.368430	-0.932129	-0.041992	0.426025	0.066530	0.052294	-0.007078	0.030844	-0.731713	-0.099489	-0.673607	135.544954	-82.707723	55.052271
29242		9.824442	-5.400040	-1.321313	-1.487213	6.092842	-0.427183	-3.545542	-0.195706	0.360678	-0.917236	-0.045166	0.423096	0.098354	-0.054045	-0.012159	0.018977	-0.732984	-0.086241	-0.674490	135.286324	-82.772264	53.264258
29243		12.195568	-11.438541	-2.053989	-2.840824	12.207488	1.443324	-0.365962	0.216323	-0.169677	-0.924805	-0.054932	0.424316	0.121836	-0.114526	-0.020462	0.017164	-0.732214	-0.085612	-0.675455	133.842299	-82.790187	54.509436
29244		11.383119	-3.335926	1.601635	1.886682	4.717087	1.025100	1.790343	-0.192022	-0.592227	-0.912109	-0.049072	0.428223	0.113716	-0.033838	0.015824	0.021630	-0.732425	-0.093836	-0.674003	133.669858	-82.468551	55.716888
29245		10.104599	1.294311	0.955963	1.912425	0.017583	0.238865	1.268033	-0.187447	-0.669618	-0.907959	-0.049072	0.426025	0.101079	0.012543	0.009735	0.023936	-0.732586	-0.100584	-0.672776	133.028877	-82.116026	57.097836
29246		8.741531	3.426618	0.012551	1.297448	-2.317515	-0.807044	0.982680	-0.126789	-0.514157	-0.912109	-0.060059	0.427246	0.087503	0.034040	0.000349	0.025736	-0.732628	-0.105782	-0.671866	132.551214	-81.850140	58.148025
29247		9.254033	5.198950	-1.116694	0.612440	-4.143504	0.004090	0.666385	-0.273440	-0.345953	-0.917969	-0.056641	0.435303	0.092645	0.051866	-0.010867	0.026877	-0.733271	-0.109327	-0.670551	132.802480	-81.598428	58.280920
29248		9.280549	6.737982	-1.420519	0.673038	-5.665977	0.236707	0.388189	-0.295945	-0.188959	-0.906738	-0.048828	0.444824	0.092890	0.067319	-0.013937	0.027497	-0.734109	-0.111355	-0.669275	133.359631	-81.403055	57.941337
29249		9.484989	5.645127	-0.834749	1.064611	-4.446480	0.268220	-0.690379	-0.357142	-0.082116	-0.909912	-0.055908	0.440186	0.094888	0.056383	-0.008373	0.024496	-0.735347	-0.109399	-0.668354	133.724316	-81.228196	57.173255
29250		9.330290	1.343113	-0.286381	0.756633	-0.161368	-0.413659	-1.873903	-0.395119	-0.015319	-0.903809	-0.067871	0.438477	0.093310	0.013398	-0.002805	0.017331	-0.736857	-0.103233	-0.667895	133.662825	-81.064903	56.148039
29251		9.834605	-5.021102	-0.022714	0.006582	6.186950	-0.666549	-1.799315	-0.293153	-0.032992	-0.904053	-0.071289	0.434570	0.098338	-0.050226	0.000369	0.010447	-0.737944	-0.097372	-0.667719	133.320449	-80.935802	55.451879
29252		10.257601	-6.954313	-0.538955	-0.702849	8.088620	-0.434446	0.200250	-0.336653	-0.302905	-0.898438	-0.079102	0.440918	0.102479	-0.069693	-0.005287	0.010004	-0.738910	-0.099172	-0.666390	133.563583	-80.676694	55.321011
29253		9.943640	-1.403171	-0.352064	0.354764	2.677350	-0.134133	1.423623	-0.477372	-0.614116	-0.900879	-0.070801	0.454834	0.099401	-0.014313	-0.003385	0.012988	-0.740100	-0.106209	-0.663929	134.104672	-80.233666	55.600434
29254		9.257711	2.063931	0.268388	1.533219	-0.639852	-0.470513	1.203138	-0.353781	-0.681523	-0.892822	-0.080322	0.457520	0.092642	0.020306	0.002971	0.014983	-0.740819	-0.112740	-0.662007	134.078228	-79.811834	56.326324
29255		9.035906	2.813214	0.581912	1.999925	-1.277163	-0.632870	0.484451	-0.390815	-0.606599	-0.890625	-0.083252	0.455322	0.090432	0.027843	0.006063	0.014557	-0.741727	-0.116623	-0.660325	133.918907	-79.406484	56.771479
29256		9.452900	2.371054	-0.457475	0.984561	-0.902158	-0.148073	0.280745	-0.516005	-0.534836	-0.894043	-0.090576	0.468018	0.094603	0.023464	-0.004298	0.013523	-0.743095	-0.119564	-0.658279	134.079388	-78.980313	56.770713
29257		9.794442	2.457806	-0.893158	0.660923	-0.950059	0.258544	0.439915	-0.498229	-0.510965	-0.883301	-0.080322	0.461670	0.098029	0.024347	-0.008634	0.013185	-0.744393	-0.122947	-0.656193	134.335210	-78.571627	56.767855
29258		9.775944	2.551610	-0.873893	0.745613	-0.983906	0.253048	0.241731	-0.509222	-0.466543	-0.887695	-0.096191	0.462402	0.097840	0.025298	-0.008459	0.012234	-0.745758	-0.125504	-0.654174	134.576555	-78.176136	56.661889
29259		9.562718	2.377024	-1.047207	0.561786	-0.829153	0.045761	-0.085083	-0.534373	-0.433747	-0.871582	-0.091553	0.479492	0.095706	0.023558	-0.010226	0.010170	-0.747234	-0.126880	-0.652257	134.731650	-77.784375	56.454464
29260		9.290022	2.133885	-0.686689	0.870765	-0.527110	-0.310417	-0.181857	-0.535005	-0.390896	-0.873535	-0.093018	0.473633	0.092960	0.021151	-0.006638	0.007869	-0.748739	-0.127768	-0.650387	134.898792	-77.409066	56.175602
29261		9.348700	1.896567	-0.279344	1.264473	-0.169483	-0.355135	-0.265424	-0.544011	-0.364451	-0.873535	-0.101807	0.479492	0.093529	0.018792	-0.002564	0.005350	-0.750280	-0.128294	-0.648530	135.069258	-77.041241	55.845863
29262		9.232479	1.544760	-0.654285	0.854844	0.127254	-0.468930	-0.262815	-0.558083	-0.359211	-0.864502	-0.109619	0.492188	0.092370	0.015273	-0.006305	0.002836	-0.751864	-0.128800	-0.646609	135.259497	-76.669057	55.495147
29263		9.049148	1.823530	-0.624761	0.954067	-0.129699	-0.610767	-0.069592	-0.510962	-0.356988	-0.864746	-0.099854	0.492920	0.090539	0.018072	-0.006023	0.001099	-0.753283	-0.129928	-0.644734	135.471213	-76.317234	55.237394
29264		9.097623	2.517581	-0.488323	1.265918	-0.727439	-0.473979	-0.067563	-0.451405	-0.346733	-0.854492	-0.111084	0.497314	0.091030	0.025016	-0.004686	-0.000572	-0.754513	-0.131013	-0.643075	135.592648	-75.993186	55.071629
29265		9.274761	3.292257	-0.758390	1.211835	-1.447388	-0.123950	-0.171291	-0.419759	-0.307693	-0.859863	-0.117920	0.498535	0.092814	0.032773	-0.007417	-0.002475	-0.755657	-0.131626	-0.641600	135.662945	-75.698196	54.898911
29266		9.229775	3.958944	-1.199748	0.931907	-2.136621	0.029449	-0.328510	-0.404375	-0.275951	-0.845215	-0.118896	0.504395	0.092376	0.039442	-0.011876	-0.004875	-0.756767	-0.131604	-0.640281	135.664358	-75.421648	54.702121
29267		9.013883	4.054589	-1.534389	0.608050	-2.292401	-0.095734	-0.669331	-0.425041	-0.221599	-0.839600	-0.135986	0.502197	0.090216	0.040395	-0.015288	-0.008389	-0.757959	-0.130293	-0.639102	135.585131	-75.158994	54.388537
29268		8.913947	2.983730	-2.048591	-0.099500	-1.320387	-0.283556	-1.169384	-0.512391	-0.149961	-0.847900	-0.133545	0.500977	0.089214	0.029651	-0.020431	-0.013643	-0.759436	-0.127094	-0.637901	135.454498	-74.888900	53.828876
29269		9.291557	1.504499	-2.529440	-0.751601	0.168987	-0.096678	-1.332220	-0.586492	-0.138629	-0.837891	-0.143555	0.506592	0.093000	0.014813	-0.025121	-0.019509	-0.761108	-0.123332	-0.636493	135.349966	-74.594065	53.147030
29270		9.691408	0.398347	-2.695532	-0.994103	1.358802	0.112683	-1.103570	-0.552565	-0.180652	-0.836426	-0.147461	0.501709	0.096992	0.003748	-0.026709	-0.024632	-0.762634	-0.120446	-0.635039	135.253035	-74.295810	52.590278
29271		9.866523	-0.196291	-2.622408	-0.939471	2.034755	0.149270	-0.791773	-0.522588	-0.235756	-0.832764	-0.151611	0.519043	0.098731	-0.002182	-0.025958	-0.028706	-0.764045	-0.118769	-0.633487	135.205329	-73.988320	52.169274
29272		9.734725	-0.287716	-2.605988	-0.911665	2.146702	-0.004580	-0.517853	-0.521398	-0.291894	-0.828125	-0.160156	0.510986	0.097410	-0.003086	-0.025798	-0.031925	-0.765445	-0.118164	-0.631753	135.224874	-73.658118	51.839084
29273		9.380146	0.421060	-2.602838	-0.825416	1.427765	-0.209612	-0.165876	-0.510445	-0.358627	-0.812744	-0.158691	0.516357	0.093875	0.004021	-0.025792	-0.033987	-0.766815	-0.118935	-0.629837	135.332640	-73.305937	51.628554
29274		9.250558	1.214789	-2.359254	-0.456962	0.697062	-0.225217	-0.000126	-0.507515	-0.390858	-0.813721	-0.172852	0.519287	0.092589	0.011967	-0.023358	-0.035526	-0.768179	-0.120341	-0.627819	135.480053	-72.941313	51.473485
29275		9.460305	1.564710	-2.189566	-0.160092	0.468040	0.010491	-0.112925	-0.532513	-0.396341	-0.810303	-0.168213	0.519775	0.094692	0.015447	-0.021652	-0.037516	-0.769587	-0.121417	-0.625768	135.582977	-72.564710	51.298978
29276		9.746590	1.749474	-2.551345	-0.384902	0.370898	0.399066	-0.025138	-0.548912	-0.417989	-0.812988	-0.168701	0.531006	0.097572	0.017288	-0.025248	-0.039262	-0.771044	-0.122837	-0.623586	135.721629	-72.172051	51.137233
29277		9.715625	2.207726	-2.413475	-0.144188	-0.019266	0.437716	0.149039	-0.476222	-0.415099	-0.811279	-0.178223	0.534668	0.097259	0.021893	-0.023887	-0.040266	-0.772300	-0.124812	-0.621574	135.868937	-71.810841	51.073142
29278		9.563446	2.581360	-2.774039	-0.425008	-0.407568	0.457228	0.087824	-0.453896	-0.362888	-0.798096	-0.178711	0.536865	0.095744	0.025652	-0.027512	-0.041344	-0.773501	-0.126389	-0.619688	136.014356	-71.479050	50.972032
29279		9.148712	3.598162	-3.013716	-0.549135	-1.474445	0.348630	0.200369	-0.412251	-0.360196	-0.793701	-0.182373	0.533447	0.091614	0.035847	-0.029912	-0.041938	-0.774588	-0.128321	-0.617890	136.175010	-71.165964	50.924651
29280		8.534302	2.859223	-2.798366	-0.537470	-0.859463	-0.441851	-0.153911	-0.405312	-0.304682	-0.789307	-0.189453	0.535156	0.085443	0.028441	-0.027832	-0.043742	-0.775613	-0.128933	-0.616350	136.188361	-70.877156	50.816160
29281		8.980178	1.312339	-2.066924	0.064055	0.853706	-0.544202	-0.886742	-0.475001	-0.309757	-0.787354	-0.186279	0.532715	0.089871	0.012893	-0.020513	-0.048434	-0.776672	-0.127300	-0.615003	135.856560	-70.558285	50.630441
29282		9.286247	0.951060	-2.014814	0.161741	1.331258	-0.357547	-0.201845	-0.476006	-0.358088	-0.789551	-0.199951	0.540283	0.092927	0.009324	-0.019936	-0.050628	-0.777858	-0.127948	-0.613190	135.861060	-70.219309	50.501860
29283		9.455095	2.366028	-1.680696	0.757490	0.079610	0.048409	0.375045	-0.422164	-0.379866	-0.782715	-0.189209	0.552246	0.094631	0.023512	-0.016563	-0.050596	-0.779000	-0.130472	-0.611209	136.108917	-69.894337	50.467810
29284		8.979905	3.667791	-1.779113	0.789132	-1.265811	-0.064288	0.122531	-0.483040	-0.394403	-0.774414	-0.205566	0.547119	0.089914	0.036511	-0.017552	-0.051645	-0.780249	-0.132254	-0.609141	136.256808	-69.537842	50.384018
29285		8.927071	3.475464	-2.413116	0.182718	-1.103215	0.002800	-0.229849	-0.569562	-0.340319	-0.768799	-0.204590	0.555176	0.089398	0.034575	-0.023916	-0.053947	-0.781695	-0.132737	-0.606979	136.350410	-69.167403	50.144288
29286		9.090707	2.415190	-2.632830	-0.102062	-0.012440	-0.045651	-0.413317	-0.552499	-0.321667	-0.766357	-0.208740	0.553223	0.091018	0.023951	-0.026127	-0.056914	-0.783044	-0.132583	-0.605000	136.335540	-68.810739	49.905187
29287		9.036768	1.593720	-3.014241	-0.555336	0.780249	-0.201692	-0.274837	-0.541528	-0.352347	-0.752197	-0.212891	0.563232	0.090477	0.015737	-0.029919	-0.059407	-0.784365	-0.132980	-0.602958	136.353304	-68.447104	49.718049
29288		8.791756	1.752977	-3.080773	-0.611360	0.597434	-0.371920	0.100746	-0.510143	-0.374254	-0.748535	-0.209717	0.557373	0.088028	0.017381	-0.030575	-0.060487	-0.785684	-0.134591	-0.600773	136.526757	-68.087138	49.592195
29289		8.912008	2.330280	-2.993688	-0.370214	0.123293	-0.134688	0.178047	-0.521477	-0.387348	-0.745361	-0.220459	0.571045	0.089243	0.023157	-0.029684	-0.061294	-0.787039	-0.136493	-0.598484	136.737859	-67.717746	49.475499
29290		9.020077	2.779952	-3.332009	-0.552058	-0.258899	0.178310	0.208778	-0.525823	-0.395037	-0.743408	-0.220947	0.574951	0.090343	0.027656	-0.033054	-0.062021	-0.788405	-0.138503	-0.596144	136.956766	-67.342765	49.366781
29291		9.038821	3.067151	-3.083069	-0.213144	-0.472076	0.204516	0.282234	-0.503633	-0.400246	-0.735107	-0.217773	0.583496	0.090527	0.030534	-0.030560	-0.062442	-0.789712	-0.140768	-0.593835	137.187548	-66.975499	49.292876
29292		9.114139	2.717641	-2.588176	0.278959	-0.042670	0.039813	0.066935	-0.525204	-0.384641	-0.742432	-0.228027	0.576904	0.091261	0.027010	-0.025633	-0.063698	-0.791021	-0.142312	-0.591587	137.325069	-66.604506	49.183568
29293		8.969959	1.944317	-2.540876	0.220295	0.695500	-0.317217	0.040933	-0.570729	-0.396279	-0.734863	-0.232178	0.581543	0.089810	0.019270	-0.025149	-0.065106	-0.792436	-0.143822	-0.589171	137.473781	-66.210323	49.047936
29294		8.667913	2.054804	-2.323594	0.417717	0.553812	-0.632685	0.391641	-0.578640	-0.444619	-0.721191	-0.224365	0.591309	0.086791	0.020400	-0.022945	-0.065289	-0.793945	-0.146539	-0.586443	137.777618	-65.793285	48.959505
29295		8.744458	2.310013	-1.424889	1.390471	0.438611	-0.773564	0.353080	-0.628251	-0.474925	-0.715332	-0.224365	0.595703	0.087543	0.022917	-0.013933	-0.065731	-0.795547	-0.149256	-0.583529	138.067445	-65.343964	48.864430
29296		9.342818	1.479859	-0.632633	2.233564	1.516608	-0.724842	0.007008	-0.754648	-0.497363	-0.708008	-0.222412	0.604248	0.093488	0.014566	-0.005973	-0.067725	-0.797376	-0.150997	-0.580349	138.235862	-64.831401	48.681846
29297		9.580966	0.870769	-0.163616	2.710767	2.255910	-0.860495	0.143568	-0.819069	-0.577760	-0.696045	-0.230225	0.608154	0.095840	0.008432	-0.001238	-0.069439	-0.799355	-0.153442	-0.576772	138.454905	-64.260953	48.531425
29298		9.475491	1.301097	0.793917	3.726165	1.942596	-1.184300	0.419800	-0.893570	-0.657055	-0.682373	-0.232910	0.609131	0.094760	0.012682	0.008389	-0.070347	-0.801562	-0.156956	-0.572637	138.809979	-63.627692	48.402658
29299		9.428197	0.844293	1.482048	4.358581	2.471892	-1.646206	0.075096	-1.078719	-0.739309	-0.682861	-0.240479	0.614502	0.094231	0.008089	0.015332	-0.073000	-0.804080	-0.159755	-0.567982	139.026488	-62.883663	48.209479
29300		9.743059	-0.328133	1.574517	4.425673	3.758923	-1.825453	-0.048648	-1.296858	-0.867204	-0.669922	-0.250000	0.629395	0.097310	-0.003700	0.016377	-0.076700	-0.807031	-0.162614	-0.562472	139.210826	-61.996573	47.968562
29301		10.445934	-0.472070	2.251949	5.354931	4.266387	-1.594939	0.185742	-1.430948	-1.001646	-0.649902	-0.240479	0.639160	0.104269	-0.005265	0.023261	-0.079920	-0.810282	-0.166627	-0.556140	139.499918	-61.000868	47.761808
29302		11.787507	0.211173	1.939596	5.751467	4.206521	-0.222433	0.339239	-1.633723	-1.118872	-0.648438	-0.255127	0.646973	0.117721	0.001419	0.020361	-0.083021	-0.813990	-0.171429	-0.548763	139.899876	-59.872465	47.523784
29303		13.064625	3.085848	2.176795	7.111852	2.176732	1.572439	0.661104	-1.735963	-1.217682	-0.631836	-0.244873	0.655029	0.130635	0.029988	0.023002	-0.085146	-0.817934	-0.177470	-0.540591	140.449978	-58.661962	47.325624
29304		15.791663	3.601642	0.340888	6.733169	2.841250	4.645649	0.309260	-2.061200	-1.255510	-0.604004	-0.260498	0.672852	0.158092	0.035017	0.005092	-0.089102	-0.822463	-0.182538	-0.531314	140.933585	-57.292884	46.962826
29305		17.857195	1.975795	-1.282594	5.981897	5.298972	6.328886	-0.334290	-2.099769	-1.219890	-0.578369	-0.266846	0.685059	0.178810	0.018648	-0.010981	-0.095619	-0.826718	-0.185720	-0.522400	141.067651	-55.918250	46.574011
29306		17.402215	-0.304470	-2.517644	4.523983	7.385919	5.492055	-0.132308	-2.061405	-1.249814	-0.568604	-0.256592	0.696045	0.174246	-0.004149	-0.023379	-0.101346	-0.830820	-0.189523	-0.513369	141.255310	-54.549806	46.251045
29307		16.881801	-1.838983	-4.003759	2.955357	8.756151	4.985565	0.107944	-2.065031	-1.367660	-0.543457	-0.277832	0.699707	0.169089	-0.019525	-0.038303	-0.106349	-0.834816	-0.194424	-0.503955	141.491240	-53.136511	46.036650
29308		16.476182	-1.765927	-4.509675	2.631052	8.742982	4.731876	0.683359	-2.079816	-1.560923	-0.535156	-0.275391	0.715088	0.165076	-0.018797	-0.043444	-0.109445	-0.838829	-0.201519	-0.493738	141.930355	-51.648017	45.974777
29309		16.932618	-2.993890	-4.601259	2.725543	10.290674	4.452890	0.530596	-2.089118	-1.668395	-0.503906	-0.278076	0.716309	0.169538	-0.031234	-0.044324	-0.113425	-0.842519	-0.208667	-0.483482	142.212998	-50.116490	46.003577
29310		18.048195	-4.092248	-5.124268	2.750275	12.038473	4.892285	0.746110	-2.067998	-1.819362	-0.480469	-0.279297	0.733887	0.180619	-0.042378	-0.049532	-0.116829	-0.845960	-0.216916	-0.472916	142.522222	-48.542889	46.157274
29311		17.837342	-2.560466	-5.307254	3.119954	10.854392	5.198236	1.649603	-1.996328	-1.925594	-0.461182	-0.272705	0.749512	0.178638	-0.026895	-0.051509	-0.116547	-0.849447	-0.227770	-0.461496	143.259554	-46.965279	46.439367
29312		16.285866	-0.436298	-6.038588	2.603981	8.468315	5.133215	2.037315	-1.885115	-1.903612	-0.441406	-0.257080	0.757568	0.163371	-0.005311	-0.058898	-0.114403	-0.852695	-0.239416	-0.450005	144.177842	-45.451212	46.785301
29313		13.494753	1.879844	-7.153938	1.314600	5.210135	4.607387	2.478008	-1.706717	-1.799113	-0.429688	-0.251221	0.769531	0.135717	0.018455	-0.070153	-0.109903	-0.855668	-0.251650	-0.438663	145.323679	-44.057938	47.175846
29314		11.050507	4.297023	-8.495636	0.166667	1.932432	4.643475	3.056628	-1.510686	-1.805384	-0.413330	-0.229492	0.792969	0.111529	0.043250	-0.083457	-0.102651	-0.858230	-0.265190	-0.427292	146.722670	-42.764368	47.689605
29315		9.124493	6.972381	-9.504613	-0.205305	-1.346564	5.031086	3.112102	-1.198649	-1.864250	-0.396973	-0.207764	0.799561	0.092462	0.070328	-0.093403	-0.094842	-0.859760	-0.279177	-0.416986	148.027146	-41.610302	48.403820
29316		7.044592	9.438180	-8.717515	0.745457	-4.419277	4.137354	2.244340	-0.826706	-1.752596	-0.394043	-0.200439	0.814209	0.071632	0.094726	-0.085819	-0.089977	-0.860007	-0.290956	-0.409434	148.783960	-40.683026	49.209000
29317		5.276989	9.451020	-7.661408	0.928858	-5.250254	2.329568	0.737616	-0.610361	-1.287311	-0.382324	-0.189941	0.809570	0.053611	0.094448	-0.076103	-0.090317	-0.859689	-0.297720	-0.405142	148.825615	-40.002035	49.798983
29318		4.641997	6.213983	-7.988667	-0.981553	-2.927702	0.885189	-0.706734	-0.474717	-0.578127	-0.382324	-0.207275	0.810303	0.046789	0.061722	-0.079995	-0.095217	-0.859459	-0.298546	-0.403899	148.304552	-39.599366	49.981357
29319		2.050086	4.139444	-9.685801	-4.493027	-2.822725	-0.485505	-1.116399	-0.024472	-0.106165	-0.384766	-0.208740	0.809326	0.020535	0.040842	-0.097085	-0.100256	-0.858806	-0.296733	-0.405401	147.629477	-39.555409	50.038470
29320		-4.342927	6.590040	-11.344276	-7.793153	-8.737741	-2.471454	1.914612	0.548789	-0.796920	-0.387695	-0.200439	0.815430	-0.043473	0.067155	-0.112685	-0.092816	-0.857422	-0.304285	-0.404505	148.269941	-39.581625	50.756161
29321		-5.035096	12.081912	-5.369619	-0.934105	-13.132571	-4.634614	1.991143	0.446528	-0.858689	-0.388916	-0.176758	0.820801	-0.049948	0.121560	-0.052377	-0.085323	-0.856084	-0.312184	-0.402965	148.954768	-39.543977	51.473643
29322		0.323513	5.948862	-4.255880	-0.291859	-4.933485	-4.410800	-1.701386	-0.019733	0.032557	-0.389893	-0.206787	0.806396	0.003230	0.059124	-0.043062	-0.092561	-0.855420	-0.308585	-0.405542	147.998729	-39.545511	51.443966
29323		3.279263	1.294606	-2.673271	0.115907	0.721603	-5.449064	-2.479070	0.677971	0.159415	-0.398193	-0.221436	0.813477	0.032691	0.012639	-0.027002	-0.101779	-0.853074	-0.303167	-0.412305	146.468466	-39.921770	51.617328
29324		3.615653	-0.832843	-2.999651	-0.960515	2.595530	-5.926193	-0.660541	1.360129	0.466627	-0.416504	-0.218750	0.799561	0.035971	-0.008344	-0.030214	-0.101565	-0.850617	-0.300484	-0.419338	145.911153	-40.719358	51.893198
29325		3.858351	2.066353	-4.618580	-0.909628	0.219516	-3.518973	1.466585	1.791874	0.541327	-0.427734	-0.203125	0.809570	0.038112	0.021107	-0.046375	-0.091485	-0.848359	-0.302147	-0.424999	146.477760	-41.745205	52.309909
29326		1.420818	7.210946	-5.254221	-0.246125	-5.556873	-2.693768	2.364409	2.209671	0.450115	-0.450684	-0.191406	0.799072	0.013470	0.072756	-0.051836	-0.077141	-0.845313	-0.306224	-0.430955	147.400848	-42.948396	52.950978
29327		-1.542725	8.809851	-4.252027	0.026811	-8.569392	-4.849351	1.127287	2.295189	0.491464	-0.474854	-0.173828	0.798828	-0.016127	0.088297	-0.041841	-0.067789	-0.841484	-0.307437	-0.439081	147.601463	-44.209006	53.598305
29328		-0.909299	6.841314	-3.926250	-0.387503	-6.650106	-5.491904	-1.130379	2.215172	1.043302	-0.497314	-0.174561	0.783203	-0.009886	0.068140	-0.039542	-0.066836	-0.837765	-0.301282	-0.450458	146.769500	-45.600822	53.859372
29329		0.162845	4.414721	-4.459985	-1.605592	-4.213079	-5.445071	-1.964055	2.432606	1.397473	-0.516113	-0.187012	0.767090	0.000776	0.043714	-0.045043	-0.068234	-0.833613	-0.291776	-0.464005	145.528153	-47.204528	54.020796
29330		0.539006	3.628366	-4.607544	-2.072754	-3.435966	-5.502306	-1.413045	2.763504	1.572980	-0.533447	-0.198975	0.750488	0.004467	0.035994	-0.046396	-0.066425	-0.828887	-0.282837	-0.478056	144.530462	-49.019638	54.273738
29331		0.699943	2.903701	-4.542948	-2.384697	-2.809920	-5.815898	-0.851349	2.931273	1.725795	-0.579834	-0.195068	0.742920	0.006082	0.028898	-0.045646	-0.061665	-0.823911	-0.274583	-0.491906	143.827870	-50.960360	54.555341
29332		1.515278	2.943514	-4.650640	-2.286093	-2.534822	-5.237349	-0.789082	2.989373	1.862513	-0.598633	-0.189697	0.721924	0.014180	0.029386	-0.046839	-0.056217	-0.818738	-0.265841	-0.505802	143.170131	-52.972784	54.816213
29333		1.790655	2.793323	-4.213166	-2.004896	-2.298244	-5.401936	-0.885842	3.177965	2.060836	-0.632568	-0.194336	0.701416	0.016945	0.027923	-0.042530	-0.050389	-0.813037	-0.256011	-0.520471	142.442758	-55.137251	55.088805
29334		2.130588	2.232144	-3.795544	-1.865741	-1.686723	-5.617609	-0.814619	3.352222	2.259453	-0.668213	-0.184570	0.678955	0.020412	0.022400	-0.038394	-0.043516	-0.806827	-0.245493	-0.535602	141.738212	-57.448733	55.374427
29335		3.027114	2.416013	-4.124858	-1.949387	-1.648272	-4.763552	-0.238357	3.344209	2.246440	-0.696045	-0.170898	0.667725	0.029302	0.024443	-0.041773	-0.034341	-0.800414	-0.236473	-0.549763	141.300079	-59.749806	55.728770
29336		3.716623	3.430253	-5.217406	-2.523393	-2.665927	-3.542158	0.228369	3.312684	2.226992	-0.715088	-0.161133	0.638428	0.035910	0.034767	-0.052736	-0.023380	-0.793819	-0.228707	-0.563025	141.080305	-62.029106	56.129949
29337		4.087647	5.444375	-6.286045	-2.869078	-4.786707	-2.416163	0.150969	3.398336	2.251128	-0.755127	-0.140381	0.622559	0.039185	0.054939	-0.063495	-0.012545	-0.786680	-0.220551	-0.576485	140.718528	-64.353819	56.633197
29338		4.419136	7.093502	-6.390982	-2.540203	-6.427123	-1.880818	-0.522930	3.409245	2.432681	-0.784668	-0.121826	0.595459	0.042226	0.071288	-0.064827	-0.003829	-0.779328	-0.209637	-0.590496	140.040347	-66.747640	57.048563
29339		5.221918	6.848427	-6.481551	-2.793873	-6.199228	-1.450502	-1.237493	3.143973	2.602762	-0.801025	-0.117676	0.571289	0.050294	0.068741	-0.066041	0.002337	-0.772573	-0.195859	-0.603958	139.258881	-69.086191	57.127647
29340		6.779437	6.145863	-6.790571	-3.287994	-5.399520	-0.333186	-1.286217	2.873758	2.638467	-0.821533	-0.109619	0.544189	0.065991	0.061895	-0.069260	0.008149	-0.766330	-0.181708	-0.616160	138.687046	-71.320728	56.951968
29341		8.771183	6.533022	-7.282519	-3.581203	-5.624008	1.508747	-0.709509	2.740614	2.437656	-0.850098	-0.083740	0.524170	0.085898	0.066123	-0.074244	0.015436	-0.759997	-0.170043	-0.627098	138.298348	-73.422451	56.934234
29342		9.332498	7.737951	-7.667735	-3.788427	-7.030144	2.102479	-0.101005	2.644362	2.073695	-0.856934	-0.075928	0.505371	0.091491	0.078295	-0.077935	0.023796	-0.753369	-0.161619	-0.636983	137.775730	-75.343265	57.416408
29343		8.597527	8.504780	-7.444394	-3.687774	-8.147665	1.217685	0.013839	2.444485	1.727130	-0.880859	-0.054932	0.479980	0.084318	0.085786	-0.075475	0.031329	-0.746893	-0.154853	-0.645902	136.882649	-77.044044	58.345112
29344		10.075257	8.574669	-3.417132	0.130296	-7.183906	1.809530	-0.509060	2.232104	1.522597	-0.890625	-0.058105	0.478516	0.099705	0.086419	-0.035507	0.036064	-0.740873	-0.147161	-0.654331	135.399166	-78.570079	59.563915
29345		16.240047	4.774124	-4.835951	-1.847129	-3.032416	7.429851	-1.635260	0.926495	0.845368	-0.898438	-0.042725	0.461914	0.161970	0.048025	-0.049502	0.033459	-0.738719	-0.138509	-0.658779	134.285416	-79.288049	59.745047
29346		20.120394	-0.735025	-4.752761	-2.929926	2.844459	10.467425	-2.215604	0.522912	0.291777	-0.899902	-0.056396	0.455322	0.201090	-0.007587	-0.047970	0.026586	-0.737522	-0.130039	-0.662151	132.460011	-79.614351	60.309743
29347		18.773760	-14.334262	-1.649793	-2.968669	16.381687	7.023503	-3.524762	0.702205	1.294156	-0.905762	-0.070313	0.448486	0.188607	-0.142393	-0.014644	0.018332	-0.736372	-0.113485	-0.666739	131.563621	-80.434778	59.170323
29348		14.043125	-13.066095	-12.652488	-13.646330	12.416507	3.884843	0.537018	-0.681859	0.468848	-0.897705	-0.064697	0.455811	0.141168	-0.129991	-0.126394	0.021477	-0.738855	-0.113610	-0.663872	134.641404	-80.363308	56.360197
29349		11.516632	-1.112900	-4.532211	-3.571386	1.823054	1.948838	1.925120	-0.103028	-0.096984	-0.896973	-0.049316	0.452881	0.115184	-0.010748	-0.045367	0.028215	-0.738900	-0.120368	-0.662377	135.758449	-80.282481	56.346939
29350		7.556523	-1.956649	0.291224	0.578541	3.017433	-2.631136	-1.153092	0.045533	0.001017	-0.900635	-0.055908	0.460205	0.075566	-0.019549	0.003008	0.023978	-0.738904	-0.116534	-0.663224	134.994029	-80.300857	56.451338
29351		7.382580	-4.752034	-6.233474	-6.317733	4.512242	-2.351769	-0.751993	-0.740090	-0.248214	-0.900879	-0.054199	0.453857	0.073996	-0.047845	-0.061882	0.019952	-0.741292	-0.115049	-0.660948	135.692587	-79.899460	55.305830
29352		6.936477	0.317180	-4.790543	-3.909265	-0.203744	-2.340037	1.989141	0.013980	-0.604564	-0.896240	-0.056152	0.466553	0.069372	0.003438	-0.047877	0.025330	-0.740663	-0.123852	-0.659876	135.431496	-79.662176	56.728682
29353		5.241074	6.409632	1.576679	3.473262	-5.071288	-4.045894	1.596708	0.415269	-0.307543	-0.904541	-0.046631	0.467285	0.052542	0.063888	0.016168	0.030492	-0.738874	-0.130207	-0.660441	134.739068	-79.706474	58.363339
29354		9.715302	8.075334	1.220699	3.988713	-6.039826	0.613183	-0.374228	-0.687600	-0.048744	-0.886475	-0.049805	0.461670	0.097130	0.080753	0.012390	0.028496	-0.741169	-0.129252	-0.658142	135.921530	-79.406054	56.942325
29355		14.215914	6.431403	-1.669495	1.297703	-4.365499	5.203993	-1.424097	-0.862734	0.151695	-0.881348	-0.059814	0.464844	0.142182	0.064304	-0.016540	0.023166	-0.744282	-0.124126	-0.655820	137.230518	-79.106949	54.780468
29356		12.732213	4.282253	-2.815041	-0.456166	-2.720553	3.632068	-1.520895	-0.044799	0.006829	-0.896484	-0.069336	0.459717	0.127327	0.042611	-0.028446	0.017495	-0.744591	-0.119115	-0.656574	136.465713	-79.090198	54.671391
29357		7.164157	3.978757	-1.278151	0.313022	-2.996356	-2.085269	-0.294345	0.509584	0.076108	-0.892578	-0.063965	0.465088	0.071593	0.039796	-0.013023	0.016959	-0.742986	-0.117824	-0.658637	135.397187	-79.330530	55.588441
29358		5.635543	1.628716	0.283930	1.178575	-0.680361	-4.099485	-0.612888	0.214311	0.248448	-0.887695	-0.070557	0.462646	0.056338	0.016366	0.002729	0.015620	-0.742477	-0.114864	-0.659765	135.124950	-79.517136	55.507679
29359		9.604318	-4.011665	-0.690318	-0.383325	5.240907	-0.801738	-2.464181	-0.432755	0.062478	-0.892334	-0.080322	0.458252	0.096070	-0.040166	-0.006201	0.006437	-0.744074	-0.106533	-0.659517	134.791453	-79.367478	54.411711
29360		12.616932	-8.611333	-3.102905	-3.084229	9.883155	1.839762	-0.915999	-0.140353	-0.344870	-0.897217	-0.085449	0.464844	0.126042	-0.086471	-0.030545	0.001809	-0.744377	-0.104797	-0.659482	133.842093	-79.169165	54.843098
29361		11.554151	-3.261229	-0.787710	-0.069777	4.872210	1.187801	1.904402	-0.089840	-0.549869	-0.891113	-0.090088	0.469971	0.115455	-0.032853	-0.008137	0.007044	-0.744331	-0.113123	-0.658122	133.997665	-78.906734	55.797035
29362		10.798706	2.161303	-1.554085	0.057499	-0.615669	1.292076	1.940416	-0.130816	-0.537122	-0.888672	-0.078857	0.471436	0.108055	0.021472	-0.015261	0.012418	-0.744356	-0.121502	-0.656519	134.302287	-78.633168	56.619145
29363		10.278297	7.028999	-2.542021	0.084899	-5.561719	1.614070	1.594321	-0.109932	-0.479199	-0.888672	-0.071289	0.469238	0.102965	0.070243	-0.024804	0.016719	-0.744300	-0.128526	-0.655148	134.493211	-78.393138	57.357448
29364		8.084062	9.144569	-1.282530	1.610341	-7.702708	-0.394893	0.653310	0.011379	-0.239383	-0.886719	-0.077148	0.463379	0.080949	0.091390	-0.012531	0.018368	-0.744054	-0.131553	-0.654783	134.380858	-78.299169	57.853849
29365		7.967339	6.447321	0.058592	2.306952	-4.847089	-1.081519	-1.357304	-0.398807	0.027509	-0.882324	-0.086426	0.477051	0.079664	0.064487	0.000307	0.013153	-0.745483	-0.127044	-0.654173	134.440369	-78.150736	56.999645
29366		9.422581	1.886015	-0.564552	0.900753	-0.300533	-0.233590	-2.340140	-0.615506	0.039785	-0.886475	-0.096680	0.474121	0.094239	0.018813	-0.005576	0.004160	-0.747624	-0.119272	-0.653310	134.363805	-77.919402	55.706505
29367		9.690188	-2.609243	-0.522366	0.183881	4.135302	-0.655948	-1.564737	-0.239263	-0.010138	-0.877930	-0.101807	0.475342	0.096907	-0.026137	-0.004903	-0.001857	-0.748409	-0.114204	-0.653329	133.907442	-77.819984	55.257270
29368		9.668553	-3.537679	0.635309	1.195629	5.223864	-0.998984	-0.077375	-0.170374	-0.182770	-0.868652	-0.109619	0.475586	0.096648	-0.035463	0.006449	-0.002849	-0.748863	-0.114632	-0.652729	133.852995	-77.676080	55.266837
29369		9.732236	-1.563362	-0.156301	0.778511	3.225090	-0.529504	0.512654	-0.371280	-0.364067	-0.880127	-0.109375	0.476807	0.097296	-0.015807	-0.001423	-0.002323	-0.749868	-0.117666	-0.651036	134.184229	-77.378468	55.229410
29370		9.434761	0.854651	-1.462802	-0.088275	0.661292	-0.250280	0.824988	-0.332593	-0.432815	-0.870605	-0.109131	0.484863	0.094390	0.008402	-0.014436	-0.000843	-0.750700	-0.121965	-0.649287	134.494011	-77.067302	55.395435
29371		9.818713	4.282101	-1.771166	0.330269	-2.604396	0.722404	0.946422	-0.230786	-0.436953	-0.877441	-0.102295	0.483643	0.098301	0.042689	-0.017396	0.001158	-0.751175	-0.126679	-0.647832	134.686001	-76.796395	55.756004
29372		9.830111	6.247849	-1.595620	0.927480	-4.435796	1.035166	0.193075	-0.281981	-0.331363	-0.867920	-0.107422	0.489258	0.098427	0.062331	-0.015757	0.000624	-0.751879	-0.128548	-0.646648	134.718076	-76.547191	55.835935
29373		9.153422	4.694786	-0.993611	1.133787	-2.929674	0.033370	-1.177249	-0.479754	-0.181587	-0.871338	-0.114990	0.486816	0.091601	0.046806	-0.009992	-0.004690	-0.753301	-0.125427	-0.645588	134.551681	-76.280241	55.314176
29374		8.909377	0.558213	-0.814881	0.530118	1.085889	-0.930557	-1.912694	-0.596585	-0.088516	-0.858643	-0.128174	0.487061	0.089120	0.005466	-0.007936	-0.012562	-0.755092	-0.119564	-0.644502	134.301231	-76.004024	54.442596
29375		9.285580	-2.734997	-1.018357	-0.098903	4.364975	-1.113502	-1.413160	-0.492689	-0.157739	-0.854248	-0.134766	0.493408	0.092859	-0.027493	-0.009761	-0.018692	-0.756475	-0.115576	-0.643459	134.046972	-75.742704	53.870844
29376		9.367290	-1.921776	-1.324571	-0.209185	3.589144	-0.853450	0.089690	-0.405977	-0.321402	-0.855225	-0.131348	0.499756	0.093669	-0.019362	-0.013064	-0.019630	-0.757604	-0.117038	-0.641836	134.248791	-75.447917	53.714585
29377		9.330324	2.028080	-1.864107	-0.099413	-0.290880	-0.089100	0.986978	-0.368006	-0.419036	-0.848877	-0.130371	0.500977	0.093380	0.020176	-0.018370	-0.017443	-0.758624	-0.121759	-0.639813	134.747381	-75.129098	53.784754
29378		9.222468	4.349574	-1.989898	0.188891	-2.547939	0.257289	0.489322	-0.315272	-0.374783	-0.847412	-0.138428	0.500977	0.092337	0.043371	-0.019647	-0.016984	-0.759445	-0.124715	-0.638279	134.941092	-74.848946	53.873816
29379		9.045085	3.561932	-1.975587	0.073775	-1.781881	-0.054452	-0.706246	-0.456144	-0.262435	-0.846436	-0.132568	0.503418	0.090542	0.035431	-0.019675	-0.020780	-0.760670	-0.123422	-0.636959	134.826730	-74.558191	53.573864
29380		9.459110	1.456276	-2.459137	-0.650445	0.333847	0.041652	-0.995199	-0.524785	-0.239554	-0.840576	-0.152100	0.505615	0.094673	0.014328	-0.024415	-0.025657	-0.762080	-0.121105	-0.635538	134.675463	-74.248425	53.138237
29381		9.651829	0.690769	-2.435538	-0.680767	1.167700	0.073647	-0.336689	-0.417150	-0.281617	-0.840820	-0.143555	0.506836	0.096578	0.006731	-0.024165	-0.028080	-0.763188	-0.121059	-0.634113	134.682155	-73.965850	52.931703
29382		9.225157	1.127219	-1.898426	-0.130427	0.748319	-0.357478	0.012993	-0.379946	-0.324365	-0.839111	-0.147217	0.513184	0.092306	0.011124	-0.018808	-0.029295	-0.764199	-0.122282	-0.632605	134.772216	-73.680020	52.845013
29383		9.232173	1.424724	-1.979142	-0.129634	0.490762	-0.277387	-0.078578	-0.439203	-0.356317	-0.838867	-0.149414	0.522217	0.092390	0.014075	-0.019594	-0.030983	-0.765356	-0.123334	-0.630919	134.845503	-73.358048	52.722637
29384		9.316147	1.362747	-1.628859	0.250597	0.649951	-0.282977	-0.130675	-0.413849	-0.385623	-0.829102	-0.162354	0.515625	0.093221	0.013437	-0.016105	-0.032959	-0.766403	-0.124332	-0.629350	134.812283	-73.033669	52.678752
29385		9.315272	1.682451	-1.204554	0.744504	0.427999	-0.309101	0.023767	-0.417989	-0.387165	-0.826904	-0.159668	0.518066	0.093210	0.016646	-0.011849	-0.034338	-0.767478	-0.125825	-0.627667	134.870511	-72.707715	52.633075
29386		9.477302	2.584889	-1.411983	0.747230	-0.385004	0.076080	0.252969	-0.437939	-0.408858	-0.815430	-0.160889	0.518555	0.094856	0.025673	-0.013880	-0.034931	-0.768638	-0.128109	-0.625751	135.054043	-72.364115	52.591976
29387		9.241029	3.022689	-1.638660	0.593311	-0.844202	-0.006900	0.098226	-0.444189	-0.420336	-0.817383	-0.165283	0.526123	0.092510	0.030041	-0.016166	-0.036146	-0.769772	-0.129958	-0.623904	135.139715	-72.014056	52.562113
29388		8.859895	2.718147	-1.949400	0.211746	-0.630558	-0.365811	-0.145612	-0.493190	-0.419158	-0.805908	-0.168945	0.528809	0.088703	0.026982	-0.019295	-0.038339	-0.771010	-0.131025	-0.622018	135.145236	-71.643834	52.467948
29389		8.906353	1.938332	-2.266694	-0.170932	0.146726	-0.422953	-0.244916	-0.502313	-0.394363	-0.808838	-0.175293	0.529297	0.089158	0.019180	-0.022467	-0.040831	-0.772262	-0.131690	-0.620162	135.133844	-71.280659	52.332971
29390		9.289030	1.231723	-2.564078	-0.454505	0.942409	-0.154391	-0.281614	-0.496301	-0.373241	-0.805664	-0.177979	0.537109	0.092976	0.012108	-0.025427	-0.043408	-0.773496	-0.132154	-0.618348	135.116210	-70.927721	52.180430
29391		9.568076	1.517128	-2.895796	-0.636687	0.755078	0.250094	0.013467	-0.465511	-0.393416	-0.804688	-0.191162	0.532227	0.095777	0.014985	-0.028734	-0.044872	-0.774675	-0.133619	-0.616450	135.205925	-70.579864	52.094595
29392		9.355034	2.564981	-2.588569	-0.182968	-0.235799	0.222608	0.198628	-0.400390	-0.381513	-0.793701	-0.192139	0.541260	0.093651	0.025497	-0.025673	-0.045552	-0.775699	-0.135615	-0.614675	135.337386	-70.262498	52.075101
29393		9.267254	2.990268	-2.224452	0.254876	-0.591158	0.155120	-0.088440	-0.451153	-0.361065	-0.785889	-0.193115	0.551025	0.092776	0.029725	-0.022048	-0.047303	-0.776817	-0.136645	-0.612900	135.382950	-69.933423	51.973773
29394		9.052103	2.770752	-2.194688	0.239963	-0.392210	-0.105854	-0.263910	-0.492025	-0.345805	-0.785400	-0.189209	0.544434	0.090622	0.027522	-0.021760	-0.049732	-0.778026	-0.137057	-0.611080	135.386472	-69.592961	51.807755
29395		9.125674	2.737872	-2.171363	0.310299	-0.296073	-0.050286	-0.108548	-0.487416	-0.332470	-0.779297	-0.197021	0.555908	0.091355	0.027215	-0.021506	-0.051496	-0.779257	-0.137900	-0.609172	135.485916	-69.260534	51.636133
29396		9.357938	2.633324	-1.957042	0.591880	-0.072280	0.085777	-0.118480	-0.491967	-0.328536	-0.780273	-0.201416	0.542480	0.093670	0.026168	-0.019356	-0.053303	-0.780498	-0.138689	-0.607246	135.583589	-68.926958	51.458183
29397		9.546305	2.403124	-1.978386	0.619443	0.240671	0.206246	-0.149285	-0.501082	-0.345555	-0.779785	-0.202148	0.554932	0.095554	0.023852	-0.019562	-0.055275	-0.781736	-0.139454	-0.605299	135.651737	-68.583502	51.294326
29398		9.457538	2.585207	-2.251126	0.408603	0.060275	0.238431	0.098296	-0.491394	-0.349365	-0.769287	-0.201904	0.557861	0.094675	0.025698	-0.022266	-0.056296	-0.783006	-0.140978	-0.603207	135.842511	-68.241637	51.149063
29399		9.312895	3.004455	-2.552682	0.198414	-0.368331	0.291648	0.211871	-0.487338	-0.346408	-0.760498	-0.207275	0.562012	0.093243	0.029910	-0.025268	-0.056846	-0.784287	-0.142839	-0.601048	136.092675	-67.903147	51.011286
29400		8.997769	2.739229	-2.584872	0.098801	-0.172554	-0.060509	-0.011885	-0.499230	-0.335065	-0.756592	-0.222900	0.573975	0.090088	0.027240	-0.025626	-0.058262	-0.785544	-0.143971	-0.598997	136.231817	-67.563315	50.852833
29401		8.932394	2.105439	-2.393556	0.209506	0.466908	-0.342340	-0.123819	-0.517931	-0.342292	-0.761230	-0.216553	0.569092	0.089421	0.020887	-0.023717	-0.060139	-0.786809	-0.144797	-0.596949	136.314214	-67.213518	50.687764
29402		9.156932	2.265336	-2.730989	0.012923	0.394529	-0.000282	0.221003	-0.512943	-0.358137	-0.758789	-0.212646	0.570068	0.091679	0.022519	-0.027050	-0.060719	-0.788147	-0.146704	-0.594656	136.567893	-66.858516	50.548476
29403		9.007328	2.882399	-2.789927	0.070990	-0.206994	0.045083	0.393791	-0.497249	-0.367419	-0.747314	-0.213623	0.578613	0.090195	0.028713	-0.027619	-0.060616	-0.789470	-0.149175	-0.592292	136.892082	-66.506984	50.442194
29404		8.606349	2.859472	-2.689085	0.112919	-0.265007	-0.357862	0.116898	-0.508544	-0.359863	-0.739258	-0.215820	0.579346	0.086183	0.028455	-0.026655	-0.061605	-0.790742	-0.150783	-0.590082	137.068961	-66.152786	50.321507
29405		8.454833	2.109762	-2.700843	-0.016249	0.435943	-0.700101	-0.065581	-0.559772	-0.354629	-0.728271	-0.218994	0.582275	0.084661	0.020939	-0.026778	-0.063324	-0.792102	-0.151822	-0.587805	137.187899	-65.779702	50.151189
29406		8.701600	1.835126	-2.653291	0.095775	0.817428	-0.568891	0.098010	-0.581473	-0.376637	-0.732666	-0.231445	0.588867	0.087127	0.018200	-0.026271	-0.064491	-0.793554	-0.153412	-0.585301	137.392791	-65.387985	49.986926
29407		8.987422	2.397060	-2.577255	0.393412	0.423648	-0.177999	0.287560	-0.588710	-0.410088	-0.727051	-0.221436	0.592285	0.089998	0.023823	-0.025473	-0.064993	-0.795050	-0.155693	-0.582607	137.676320	-64.980734	49.857133
29408		8.900959	3.198026	-2.476209	0.663399	-0.310645	-0.063380	0.315168	-0.592618	-0.417582	-0.717285	-0.222900	0.598633	0.089149	0.031833	-0.024448	-0.065425	-0.796551	-0.158072	-0.579862	137.964705	-64.567932	49.736884
29409		8.741650	3.183127	-2.416756	0.733646	-0.300915	-0.233533	0.130328	-0.649690	-0.407538	-0.713623	-0.228760	0.602051	0.087559	0.031669	-0.023863	-0.066593	-0.798149	-0.159863	-0.577033	138.196577	-64.135159	49.563568
29410		8.754093	2.848483	-2.437407	0.718536	0.062011	-0.316987	0.038901	-0.704174	-0.404226	-0.713379	-0.232422	0.613037	0.087683	0.028312	-0.024060	-0.068173	-0.799867	-0.161347	-0.574049	138.413914	-63.679334	49.345367
29411		8.957048	2.347534	-2.217610	0.956543	0.664171	-0.362778	0.089354	-0.728303	-0.419145	-0.693359	-0.227051	0.615723	0.089699	0.023297	-0.021839	-0.069598	-0.801643	-0.163033	-0.570915	138.658973	-63.207820	49.129713
29412		8.977390	1.966550	-1.876111	1.279335	1.102642	-0.586230	0.132057	-0.769981	-0.471954	-0.688721	-0.230225	0.613525	0.089891	0.019466	-0.018402	-0.071050	-0.803497	-0.165026	-0.567548	138.905768	-62.697328	48.936501
29413		9.011095	1.909066	-1.575618	1.631214	1.243236	-0.695688	0.281900	-0.848997	-0.541709	-0.685791	-0.230713	0.624756	0.090228	0.018868	-0.015347	-0.072146	-0.805549	-0.167702	-0.563704	139.229566	-62.126689	48.754488
29414		9.130552	1.926517	-1.099790	2.194667	1.362686	-0.778667	0.326204	-0.951886	-0.602036	-0.676758	-0.228271	0.630371	0.091414	0.019008	-0.010532	-0.073332	-0.807834	-0.170695	-0.559366	139.590026	-61.487759	48.556674
29415		9.451518	1.242282	0.251388	3.502476	2.278505	-1.240786	0.087035	-1.072641	-0.683108	-0.670654	-0.240967	0.634033	0.094542	0.012099	0.003026	-0.075797	-0.810267	-0.173304	-0.554697	139.820420	-60.766087	48.351621
29416		10.355121	0.785916	0.810317	4.318357	3.148076	-0.871651	0.244391	-1.280844	-0.788074	-0.653076	-0.239258	0.647705	0.103526	0.007441	0.008775	-0.078104	-0.813207	-0.176678	-0.548979	140.181570	-59.913509	48.096302
29417		12.254198	2.273862	1.264309	5.802564	2.612113	0.977920	0.653675	-1.460771	-0.864475	-0.637939	-0.227051	0.656982	0.122542	0.022166	0.013611	-0.079099	-0.816675	-0.181412	-0.542102	140.811587	-58.952849	47.800715
29418		14.617682	3.487211	0.503568	6.370654	2.478423	3.579683	0.544420	-1.703845	-0.878748	-0.615967	-0.240723	0.664063	0.146278	0.034213	0.006375	-0.080802	-0.820673	-0.185787	-0.534276	141.482005	-57.876903	47.379111
29419		16.650040	2.310944	-0.794367	5.903037	4.421098	5.313266	-0.141636	-1.777883	-0.832020	-0.604492	-0.242188	0.677002	0.166657	0.022411	-0.006479	-0.085245	-0.824553	-0.188098	-0.526750	141.804775	-56.782482	46.900434
29420		16.533469	-0.261997	-1.894119	4.542638	6.827735	4.670044	-0.339401	-1.729713	-0.887286	-0.587402	-0.253906	0.686523	0.165476	-0.003384	-0.017505	-0.090608	-0.828090	-0.190105	-0.519536	141.927459	-55.689464	46.517646
29421		16.188854	-2.803104	-2.484431	3.548261	9.146323	3.598281	-0.292894	-1.712960	-1.034188	-0.588623	-0.258301	0.690918	0.161945	-0.028903	-0.023416	-0.096123	-0.831382	-0.192844	-0.512227	141.959323	-54.551597	46.275415
29422		16.493490	-4.094105	-2.834061	3.290445	10.618668	3.349185	0.027433	-1.791060	-1.262927	-0.549316	-0.264893	0.704102	0.164917	-0.041979	-0.026869	-0.100967	-0.834715	-0.197278	-0.504121	142.059455	-53.298309	46.169650
29423		16.272031	-3.998204	-2.879945	3.388493	10.638081	3.009040	0.388389	-1.893992	-1.448641	-0.528320	-0.273193	0.705811	0.162689	-0.041106	-0.027338	-0.104850	-0.838196	-0.203335	-0.495065	142.295908	-51.932339	46.153349
29424		16.428806	-3.743236	-3.100564	3.529725	10.693703	3.098682	0.526008	-2.008765	-1.628766	-0.524658	-0.266602	0.714844	0.164277	-0.038691	-0.029456	-0.108714	-0.841718	-0.210369	-0.485219	142.550761	-50.452333	46.210851
29425		16.561196	-2.752470	-3.405769	3.785485	10.107497	3.489300	0.911100	-2.095994	-1.753434	-0.501221	-0.270264	0.727783	0.165709	-0.028827	-0.032451	-0.111319	-0.845367	-0.218800	-0.474436	142.987518	-48.888527	46.323987
29426		16.611087	-1.345221	-3.937176	3.958213	9.132568	4.121200	1.230445	-2.107621	-1.793610	-0.486572	-0.265869	0.744385	0.166386	-0.014708	-0.037707	-0.112663	-0.848995	-0.228078	-0.463136	143.579949	-47.307964	46.473664
29427		16.007119	-0.100014	-4.561732	3.749964	7.984347	4.301916	1.466871	-2.030493	-1.754442	-0.460938	-0.259277	0.759277	0.160508	-0.002080	-0.044002	-0.112793	-0.852424	-0.237754	-0.451801	144.286807	-45.775972	46.659087
29428		14.048665	1.868761	-5.222774	3.121431	5.493098	3.906161	1.874546	-1.877721	-1.663073	-0.432617	-0.251221	0.766602	0.141119	0.017996	-0.050734	-0.110775	-0.855645	-0.247960	-0.440586	145.204472	-44.349674	46.878253
29429		12.058900	4.033113	-5.633251	2.803555	2.773718	3.523463	2.249830	-1.732100	-1.683101	-0.428223	-0.236572	0.783203	0.121405	0.039934	-0.054833	-0.106982	-0.858504	-0.259126	-0.429394	146.267225	-42.986774	47.207459
29430		10.323185	5.583618	-6.480916	2.117775	0.656915	3.409291	2.216769	-1.544436	-1.727066	-0.400879	-0.223389	0.793945	0.104206	0.055647	-0.063389	-0.103142	-0.860657	-0.270425	-0.418929	147.227055	-41.707152	47.669259
29431		8.597615	6.999057	-7.079642	1.629287	-1.368642	3.167691	2.090839	-1.317040	-1.606154	-0.390625	-0.216064	0.800537	0.086999	0.070026	-0.069494	-0.099271	-0.862229	-0.281010	-0.409560	148.099440	-40.577533	48.165606
29432		6.888825	7.904264	-6.855721	1.575319	-2.955026	2.258539	1.584640	-1.031245	-1.378777	-0.382324	-0.206055	0.802490	0.069784	0.079102	-0.067572	-0.096686	-0.863131	-0.289654	-0.402191	148.702718	-39.663370	48.639476
29433		5.516593	7.725601	-6.838285	1.011632	-3.503333	1.303992	0.782444	-0.832276	-1.061917	-0.370117	-0.197754	0.811523	0.055859	0.077227	-0.067849	-0.096639	-0.863619	-0.295402	-0.396939	148.928124	-38.940561	48.992901
29434		4.503141	6.649842	-7.564881	-0.413862	-3.189981	0.740888	-0.106556	-0.653888	-0.667194	-0.364746	-0.195557	0.817627	0.045500	0.066307	-0.075536	-0.099371	-0.863869	-0.297740	-0.393963	148.761523	-38.425113	49.162733
29435		2.179935	6.129185	-9.513545	-3.230755	-4.194938	0.424045	-0.084642	-0.457529	-0.616464	-0.366211	-0.200684	0.822998	0.022206	0.061184	-0.095111	-0.101623	-0.863805	-0.300008	-0.391802	148.583801	-38.017736	49.373146
29436		-1.363611	7.368814	-10.383299	-5.042767	-7.354040	-0.622617	1.269355	-0.161644	-0.863785	-0.357178	-0.199219	0.823730	-0.013232	0.074403	-0.103373	-0.098056	-0.863444	-0.306123	-0.388764	149.020475	-37.684887	49.847714
29437		-1.736492	8.746973	-7.645551	-2.462289	-8.525584	-2.116600	0.835902	0.074482	-0.697857	-0.358643	-0.187012	0.825439	-0.017087	0.087848	-0.076082	-0.095680	-0.862629	-0.310795	-0.387457	149.219314	-37.516487	50.308346
29438		1.688253	6.718177	-6.644182	-0.906592	-4.737482	-1.514322	-0.901091	-0.080245	-0.367222	-0.349365	-0.202881	0.822266	0.017032	0.066850	-0.066737	-0.100387	-0.861772	-0.310582	-0.388344	148.584143	-37.370738	50.504793
29439		3.534746	3.140214	-5.339973	-0.735426	-0.641489	-2.747475	-1.666571	0.439634	-0.018088	-0.359131	-0.216309	0.819824	0.035232	0.030952	-0.053736	-0.106909	-0.860022	-0.307635	-0.392801	147.521388	-37.579184	50.683681
29440		2.960804	1.189288	-5.817534	-2.332581	0.543786	-3.625010	-0.794532	0.849399	0.021548	-0.368896	-0.219238	0.816650	0.029359	0.011664	-0.058347	-0.108961	-0.857947	-0.306423	-0.397692	146.870567	-37.997095	51.003727
29441		2.766676	2.713885	-6.058606	-1.975647	-0.839867	-2.948509	1.201288	1.132823	0.052177	-0.380127	-0.206543	0.819824	0.027316	0.027510	-0.060577	-0.101957	-0.856401	-0.309197	-0.400725	147.301395	-38.558411	51.420890
29442		1.538456	4.823222	-5.360894	-1.081932	-3.314303	-3.315565	1.793848	1.498110	0.087829	-0.389404	-0.193848	0.812256	0.014963	0.048718	-0.053287	-0.091767	-0.854391	-0.313146	-0.404394	147.993198	-39.312397	51.955703
29443		-0.385425	6.010195	-5.275172	-1.345217	-5.520626	-4.172640	1.062218	1.623592	0.130394	-0.404053	-0.186523	0.818115	-0.004320	0.060378	-0.052398	-0.084411	-0.851760	-0.315469	-0.409706	148.247301	-40.141981	52.511869
29444		-0.930079	6.138721	-5.350941	-1.584100	-6.044561	-4.508510	0.379853	1.692506	0.275670	-0.424072	-0.185547	0.810791	-0.009837	0.061475	-0.053311	-0.079548	-0.848856	-0.315764	-0.416424	148.142532	-41.051049	53.007213
29445		-0.645650	5.060381	-5.013010	-1.742361	-5.048403	-5.055471	-0.226389	1.870529	0.580692	-0.441162	-0.181152	0.807617	-0.007072	0.050527	-0.050123	-0.076335	-0.845747	-0.313559	-0.424929	147.759372	-42.136195	53.390423
29446		0.080143	3.987195	-4.428893	-1.548968	-3.744797	-5.442904	-0.670252	2.057691	0.844844	-0.457520	-0.182861	0.797852	0.000177	0.039725	-0.044426	-0.074136	-0.842387	-0.309319	-0.434983	147.166694	-43.391903	53.697691
29447		0.543842	3.066823	-4.158894	-1.650496	-2.755315	-5.728543	-0.774418	2.209767	1.026053	-0.478027	-0.187744	0.790771	0.004821	0.030533	-0.041763	-0.071734	-0.838812	-0.304109	-0.445831	146.530140	-44.773603	53.976214
29448		0.980507	2.715565	-4.127400	-1.693949	-2.278196	-5.652172	-0.714685	2.368028	1.206582	-0.508057	-0.188965	0.774902	0.009151	0.027064	-0.041482	-0.068429	-0.835032	-0.298270	-0.457246	145.938177	-46.286980	54.231791
29449		1.206294	2.770727	-4.205752	-1.735948	-2.284945	-5.501768	-0.441005	2.538612	1.381181	-0.531982	-0.187256	0.767822	0.011336	0.027694	-0.042266	-0.063312	-0.831049	-0.292334	-0.468925	145.508645	-47.934773	54.474434
29450		1.124821	3.448928	-4.233763	-1.593067	-2.985694	-5.382067	-0.186590	2.720686	1.502781	-0.552002	-0.181152	0.753418	0.010411	0.034530	-0.042515	-0.056573	-0.826705	-0.286473	-0.480927	145.198667	-49.707801	54.744301
29451		1.501191	4.639816	-4.206517	-1.026016	-3.885005	-4.780100	-0.073061	2.838257	1.601609	-0.581787	-0.176514	0.731445	0.014041	0.046498	-0.042286	-0.048944	-0.822045	-0.280445	-0.493151	144.939893	-51.566674	55.026058
29452		2.104678	5.338442	-4.202466	-0.643594	-4.294900	-4.180255	-0.583306	2.910241	1.791986	-0.605469	-0.164307	0.726563	0.019952	0.053443	-0.042476	-0.042831	-0.817114	-0.272308	-0.506299	144.441374	-53.521689	55.232899
29453		2.839915	5.198815	-4.630795	-0.995656	-4.046328	-3.554402	-1.345816	2.944289	2.021676	-0.635742	-0.165283	0.700928	0.027185	0.051952	-0.047064	-0.039187	-0.811977	-0.261225	-0.520499	143.595745	-55.567520	55.325461
29454		3.492841	4.674902	-5.531368	-1.996685	-3.625827	-2.920049	-1.660557	2.961760	2.284222	-0.659668	-0.165283	0.677979	0.033567	0.046673	-0.056205	-0.036105	-0.806755	-0.248155	-0.535034	142.688544	-57.711000	55.272448
