// General information: 
//  MT Manager version: 2019.2.0 
//  XDA version: 2019.2.0 build 3853 rev 94535 built on 2019-09-09
// Device information: 
//  DeviceId: 00B47795
//  ProductCode: MTW2-3A7G6
//  Firmware Version: 4.6.0
//  Hardware Version: 2.0.0
// Device settings: 
//  Filter Profile: human(46.1)
//  Option Flags: Orientation Smoother Disabled, AHS Disabled, ICC Disabled
// Coordinate system: ENU
PacketCounter	SampleTimeFine	Acc_X	Acc_Y	Acc_Z	FreeAcc_E	FreeAcc_N	FreeAcc_U	Gyr_X	Gyr_Y	Gyr_Z	Mag_X	Mag_Y	Mag_Z	VelInc_X	VelInc_Y	VelInc_Z	Quat_q0	Quat_q1	Quat_q2	Quat_q3	Roll	Pitch	Yaw
14107		9.608946	-1.089154	-1.376889	-0.048248	-0.004248	-0.044802	-0.008343	0.001398	0.004247	-0.791748	0.426758	0.302246	0.096090	-0.010890	-0.013769	0.354719	-0.675245	-0.336301	-0.552376	-142.100006	-79.919859	20.849799
14108		9.621221	-1.062416	-1.347020	-0.008348	0.008404	-0.039718	-0.003587	-0.003306	0.004991	-0.789551	0.424805	0.298584	0.096213	-0.010622	-0.013468	0.354697	-0.675268	-0.336304	-0.552361	-142.114781	-79.917110	20.862880
14109		9.617407	-1.112546	-1.380278	-0.068070	0.006599	-0.033487	-0.003497	-0.001926	0.003815	-0.791992	0.425049	0.305664	0.096174	-0.011124	-0.013802	0.354674	-0.675284	-0.336308	-0.552353	-142.129626	-79.915461	20.876115
14110		9.622912	-1.059239	-1.371509	-0.017602	-0.012932	-0.035009	-0.003408	-0.000545	0.002640	-0.791260	0.435547	0.303467	0.096229	-0.010591	-0.013715	0.354650	-0.675296	-0.336314	-0.552351	-142.145257	-79.914824	20.890041
14111		9.579190	-1.071958	-1.401613	-0.051072	-0.034163	-0.072527	-0.004343	0.001812	-0.001055	-0.794189	0.441406	0.302002	0.095792	-0.010720	-0.014017	0.354617	-0.675295	-0.336326	-0.552366	-142.165582	-79.916577	20.908351
14112		9.600142	-1.067587	-1.374459	-0.030337	-0.011698	-0.056123	0.003842	-0.000300	0.002541	-0.796875	0.429688	0.315918	0.096002	-0.010674	-0.013745	0.354624	-0.675292	-0.336352	-0.552349	-142.173626	-79.915680	20.919494
14113		9.622894	-1.059715	-1.371273	-0.018373	-0.011513	-0.035009	-0.006025	0.003586	0.005757	-0.791748	0.431641	0.304688	0.096229	-0.010595	-0.013714	0.354608	-0.675301	-0.336333	-0.552360	-142.174079	-79.915841	20.916641
14114		9.593319	-1.041901	-1.395246	-0.020273	-0.042867	-0.062723	-0.003909	0.000966	0.004126	-0.789307	0.431641	0.302734	0.095933	-0.010417	-0.013953	0.354584	-0.675316	-0.336326	-0.552362	-142.183519	-79.914949	20.923215
14115		9.626527	-1.052619	-1.419082	-0.036237	-0.055144	-0.025580	-0.007662	0.002647	0.000410	-0.790039	0.428223	0.305908	0.096265	-0.010527	-0.014192	0.354546	-0.675321	-0.336322	-0.552382	-142.200375	-79.916564	20.936069
14116		9.624708	-1.056573	-1.394880	-0.027800	-0.032317	-0.030294	-0.005523	0.002074	0.004271	-0.793945	0.431152	0.306152	0.096247	-0.010564	-0.013950	0.354524	-0.675333	-0.336310	-0.552389	-142.206940	-79.916253	20.939521
14117		9.593361	-1.042335	-1.394634	-0.021083	-0.041397	-0.062719	-0.005255	0.006216	0.000744	-0.790527	0.422119	0.308838	0.095933	-0.010423	-0.013949	0.354501	-0.675325	-0.336306	-0.552416	-142.214525	-79.919365	20.944360
14118		9.624769	-1.057046	-1.394101	-0.028350	-0.031291	-0.030292	-0.004910	0.003988	0.007100	-0.794678	0.424072	0.297363	0.096248	-0.010567	-0.013943	0.354488	-0.675337	-0.336282	-0.552425	-142.211303	-79.918984	20.937662
14119		9.575580	-1.081417	-1.351790	-0.035792	0.014447	-0.081960	-0.007571	0.004028	-0.000766	-0.790039	0.425049	0.304932	0.095755	-0.010815	-0.013519	0.354449	-0.675336	-0.336280	-0.552452	-142.228385	-79.921634	20.950799
14120		9.600216	-1.069507	-1.372445	-0.032522	-0.007682	-0.056126	-0.003206	0.004260	0.005781	-0.797363	0.424805	0.302979	0.096002	-0.010693	-0.013726	0.354442	-0.675338	-0.336268	-0.552461	-142.226315	-79.922175	20.947078
14121		9.633394	-1.080617	-1.396193	-0.048492	-0.019947	-0.018984	0.003251	-0.000171	0.005204	-0.787354	0.420410	0.310547	0.096334	-0.010803	-0.013962	0.354449	-0.675340	-0.336284	-0.552445	-142.230280	-79.920829	20.953190
14122		9.622977	-1.062124	-1.368822	-0.020857	-0.006937	-0.035010	0.004813	0.007136	0.000669	-0.793457	0.434082	0.308838	0.096229	-0.010621	-0.013692	0.354455	-0.675314	-0.336303	-0.552460	-142.232465	-79.924286	20.957545
14123		9.607705	-1.013181	-1.386160	0.008697	-0.048516	-0.052895	0.004313	0.008647	0.002156	-0.793213	0.421875	0.309814	0.096077	-0.010130	-0.013866	0.354472	-0.675285	-0.336316	-0.552478	-142.226175	-79.928003	20.953859
14124		9.583206	-1.025487	-1.364208	0.004879	-0.025357	-0.078734	-0.003347	0.011294	0.002566	-0.796875	0.433350	0.311279	0.095831	-0.010254	-0.013647	0.354464	-0.675267	-0.336297	-0.552516	-142.219148	-79.932422	20.944049
14125		9.600499	-1.070955	-1.369330	-0.033926	-0.005129	-0.056130	-0.006957	0.005942	0.002064	-0.795166	0.427002	0.302490	0.096005	-0.010709	-0.013696	0.354438	-0.675265	-0.336284	-0.552544	-142.224896	-79.934946	20.946030
14126		9.614693	-1.040458	-1.362888	-0.002675	-0.014777	-0.046311	-0.008228	0.004822	0.008565	-0.786621	0.433105	0.305908	0.096147	-0.010401	-0.013631	0.354422	-0.675281	-0.336245	-0.552557	-142.217298	-79.934441	20.933326
14127		9.600540	-1.071764	-1.368415	-0.034467	-0.004131	-0.056131	-0.008570	0.007050	0.002209	-0.802734	0.430908	0.306152	0.096005	-0.010717	-0.013687	0.354392	-0.675279	-0.336225	-0.552591	-142.221409	-79.937416	20.932707
14128		9.602446	-1.068103	-1.391890	-0.043375	-0.025963	-0.051406	-0.005842	0.006344	0.003408	-0.795410	0.421143	0.303223	0.096024	-0.010680	-0.013922	0.354374	-0.675278	-0.336208	-0.552614	-142.221875	-79.939345	20.929779
14129		9.600656	-1.072203	-1.367255	-0.034991	-0.003149	-0.056132	-0.003024	0.007020	0.003432	-0.785156	0.430664	0.304932	0.096006	-0.010721	-0.013676	0.354367	-0.675269	-0.336199	-0.552636	-142.219744	-79.941877	20.926048
14130		9.654842	-1.078704	-1.363550	-0.030033	0.006670	-0.002595	-0.005932	0.004963	0.004583	-0.789551	0.429443	0.304932	0.096548	-0.010785	-0.013638	0.354348	-0.675274	-0.336180	-0.552653	-142.220875	-79.942903	20.923604
14131		9.607465	-1.099444	-1.345129	-0.046135	0.030050	-0.049568	0.004134	0.005883	0.004511	-0.792236	0.425537	0.305176	0.096075	-0.010992	-0.013454	0.354366	-0.675256	-0.336190	-0.552657	-142.214137	-79.944541	20.919359
14132		9.600772	-1.073312	-1.365566	-0.035797	-0.001640	-0.056135	0.003111	0.006861	0.001992	-0.787842	0.422363	0.307617	0.096007	-0.010732	-0.013659	0.354374	-0.675236	-0.336201	-0.552670	-142.212748	-79.947260	20.919575
14133		9.594099	-1.047126	-1.385940	-0.025495	-0.033352	-0.062699	0.004225	0.007264	0.003336	-0.791748	0.429199	0.311035	0.095941	-0.010469	-0.013863	0.354391	-0.675212	-0.336212	-0.552681	-142.206221	-79.949936	20.915597
14134		9.592281	-1.051422	-1.361295	-0.017062	-0.010474	-0.067429	-0.000387	0.004934	0.005807	-0.791016	0.426025	0.307617	0.095923	-0.010511	-0.013615	0.354390	-0.675213	-0.336201	-0.552688	-142.202059	-79.950281	20.910224
14135		9.623698	-1.066211	-1.360549	-0.024373	-0.000388	-0.035015	-0.002932	0.008400	0.002257	-0.785645	0.428223	0.304199	0.096237	-0.010661	-0.013609	0.354382	-0.675197	-0.336194	-0.552716	-142.200134	-79.953850	20.906755
14136		9.585658	-1.025649	-1.381053	-0.006993	-0.041669	-0.073985	-0.003614	0.007149	0.006095	-0.784180	0.427734	0.311523	0.095856	-0.010254	-0.013814	0.354378	-0.675196	-0.336171	-0.552734	-142.191618	-79.955150	20.895615
14137		9.623805	-1.066982	-1.359189	-0.024898	0.000621	-0.035017	-0.003022	0.007019	0.003433	-0.785400	0.427246	0.311523	0.096238	-0.010668	-0.013595	0.354371	-0.675187	-0.336162	-0.552756	-142.189474	-79.957680	20.891872
14138		9.594344	-1.048994	-1.382833	-0.026731	-0.030746	-0.062693	-0.014792	0.005827	0.004823	-0.785889	0.438965	0.308105	0.095943	-0.010489	-0.013830	0.354318	-0.675212	-0.336110	-0.552791	-142.193958	-79.958473	20.886567
14139		9.599237	-1.079635	-1.337255	-0.028939	0.024269	-0.060878	-0.007543	0.006070	0.004728	-0.784912	0.434326	0.310547	0.095992	-0.010795	-0.013375	0.354298	-0.675215	-0.336086	-0.552815	-142.192975	-79.960118	20.881372
14140		9.657150	-1.078552	-1.381522	-0.041204	-0.010548	0.002129	-0.001908	0.007420	0.004778	-0.788086	0.431396	0.309814	0.096571	-0.010783	-0.013819	0.354298	-0.675210	-0.336069	-0.552830	-142.184360	-79.961477	20.871089
14141		9.625834	-1.064486	-1.381028	-0.034465	-0.019665	-0.030281	-0.001408	0.005910	0.003290	-0.784424	0.435303	0.310547	0.096258	-0.010643	-0.013813	0.354294	-0.675201	-0.336067	-0.552846	-142.183853	-79.963555	20.869947
14142		9.632607	-1.091325	-1.359293	-0.045219	0.013059	-0.023736	0.004227	0.007261	0.003340	-0.788818	0.433350	0.309082	0.096326	-0.010911	-0.013597	0.354309	-0.675184	-0.336071	-0.552854	-142.176772	-79.965459	20.864525
14143		9.617390	-1.042481	-1.376574	-0.015649	-0.028533	-0.041564	0.002706	0.009749	0.002309	-0.788330	0.424805	0.302979	0.096173	-0.010424	-0.013771	0.354322	-0.675155	-0.336077	-0.552878	-142.168788	-79.969618	20.858183
14144		9.624206	-1.069152	-1.354636	-0.026470	0.004180	-0.035022	0.000389	0.007564	0.000796	-0.782715	0.435059	0.312500	0.096242	-0.010691	-0.013550	0.354319	-0.675136	-0.336083	-0.552899	-142.170264	-79.972940	20.859641
14145		9.601469	-1.077656	-1.357220	-0.038993	0.004934	-0.056148	-0.006021	0.003581	0.005758	-0.787354	0.431152	0.303467	0.096015	-0.010774	-0.013574	0.354302	-0.675145	-0.336064	-0.552911	-142.170707	-79.973096	20.856779
14146		9.582451	-1.078547	-1.408066	-0.068737	-0.038946	-0.067790	-0.007042	0.004559	0.003240	-0.792725	0.433105	0.315674	0.095824	-0.010784	-0.014082	0.354275	-0.675154	-0.336044	-0.552929	-142.175331	-79.973887	20.856959
14147		9.613840	-1.093129	-1.407633	-0.076057	-0.028841	-0.035384	-0.006542	0.003049	0.001752	-0.780518	0.433105	0.306641	0.096138	-0.010931	-0.014077	0.354245	-0.675159	-0.336038	-0.552946	-142.187386	-79.975209	20.865587
14148		9.519620	-1.091898	-1.490118	-0.131901	-0.104119	-0.116934	-0.039991	-0.017741	0.006695	-0.785889	0.441406	0.309570	0.095198	-0.010919	-0.014891	0.354076	-0.675296	-0.335953	-0.552939	-142.246980	-79.964628	20.902030
14149		9.443638	-1.422266	-1.601152	-0.478595	-0.027628	-0.141130	-0.069395	-0.023595	0.018456	-0.779297	0.436768	0.313721	0.094440	-0.014219	-0.015995	0.353835	-0.675513	-0.335764	-0.552942	-142.305040	-79.948017	20.920806
14150		9.422690	-1.385711	-1.749051	-0.523689	-0.170697	-0.145058	-0.026260	-0.038122	0.021466	-0.784180	0.436279	0.316406	0.094232	-0.013849	-0.017471	0.353723	-0.675707	-0.335702	-0.552815	-142.357339	-79.922742	20.958104
14151		9.677389	-1.327947	-1.672619	-0.391351	-0.118526	0.089118	0.030455	-0.017045	0.022741	-0.780518	0.429688	0.314209	0.096777	-0.013266	-0.016720	0.353842	-0.675737	-0.335763	-0.552665	-142.334179	-79.907598	20.952495
14152		9.706523	-1.100686	-1.534052	-0.122253	-0.118906	0.074291	0.055995	0.010010	0.010667	-0.783691	0.433838	0.316162	0.097065	-0.010997	-0.015348	0.354053	-0.675635	-0.335879	-0.552583	-142.274107	-79.908079	20.922908
14153		9.652665	-1.011874	-1.373116	0.025826	-0.033893	-0.010572	0.042060	0.017810	0.003821	-0.777832	0.440430	0.308594	0.096526	-0.010114	-0.013742	0.354218	-0.675517	-0.335974	-0.552565	-142.223900	-79.915359	20.896580
14154		9.532339	-0.985049	-1.326267	0.051903	-0.017370	-0.138402	0.040022	0.019764	-0.001212	-0.783203	0.436279	0.308105	0.095322	-0.009848	-0.013274	0.354362	-0.675394	-0.336071	-0.552563	-142.182778	-79.924489	20.877529
14155		9.604631	-0.911036	-1.282719	0.147745	-0.015343	-0.081180	0.032312	0.000119	-0.001841	-0.776611	0.438232	0.311768	0.096046	-0.009109	-0.012829	0.354448	-0.675332	-0.336190	-0.552512	-142.187473	-79.925746	20.901291
14156		9.552296	-0.859477	-1.229381	0.210486	0.000398	-0.145623	-0.003640	-0.013102	0.010556	-0.781494	0.434326	0.319336	0.095524	-0.008590	-0.012287	0.354424	-0.675395	-0.336187	-0.552452	-142.206355	-79.916054	20.918072
14157		9.590894	-1.023998	-1.279158	0.054412	0.048007	-0.083104	-0.046219	-0.024654	0.025886	-0.778564	0.445313	0.311035	0.095912	-0.010231	-0.012777	0.354280	-0.675587	-0.336039	-0.552400	-142.234317	-79.896358	20.919768
14158		9.617604	-1.132368	-1.396591	-0.089039	0.008909	-0.028874	-0.043028	-0.036682	0.031173	-0.774170	0.447510	0.320313	0.096180	-0.011312	-0.013946	0.354138	-0.675821	-0.335898	-0.552290	-142.270227	-79.868769	20.930636
14159		9.668774	-1.228616	-1.535442	-0.229033	-0.052782	0.051238	-0.019421	-0.034978	0.021717	-0.777588	0.441406	0.316650	0.096692	-0.012277	-0.015336	0.354056	-0.675987	-0.335856	-0.552166	-142.313476	-79.845853	20.963460
14160		9.589439	-1.235863	-1.519899	-0.237994	-0.039094	-0.028178	0.005937	-0.010694	0.011971	-0.772461	0.444336	0.314941	0.095896	-0.012352	-0.015194	0.354070	-0.676029	-0.335870	-0.552097	-142.319062	-79.836949	20.972187
14161		9.540929	-1.177229	-1.513680	-0.192694	-0.068021	-0.083111	0.042293	0.012134	0.005838	-0.778320	0.438965	0.316895	0.095409	-0.011766	-0.015145	0.354232	-0.675929	-0.335970	-0.552055	-142.274936	-79.840953	20.952167
14162		9.602094	-0.963342	-1.374088	0.069266	-0.058800	-0.065477	0.057521	0.005432	0.006198	-0.775391	0.434814	0.324219	0.096021	-0.009626	-0.013746	0.354432	-0.675823	-0.336119	-0.551965	-142.234358	-79.841559	20.944198
14163		9.616439	-0.891799	-1.286759	0.177258	-0.021498	-0.071277	-0.005529	-0.005686	0.015343	-0.780518	0.440430	0.318604	0.096165	-0.008911	-0.012865	0.354428	-0.675873	-0.336085	-0.551927	-142.228480	-79.834152	20.935198
14164		9.576085	-1.061874	-1.318319	0.012470	0.039308	-0.088221	-0.059836	-0.021099	0.019928	-0.772705	0.443604	0.322754	0.095763	-0.010613	-0.013170	0.354224	-0.676072	-0.335909	-0.551921	-142.272516	-79.817930	20.944532
14165		9.569268	-1.201041	-1.492544	-0.192148	-0.034076	-0.055485	-0.030968	-0.031357	0.026283	-0.769287	0.438232	0.320068	0.095697	-0.012000	-0.014909	0.354121	-0.676256	-0.335814	-0.551819	-142.303660	-79.795055	20.958339
14166		9.715747	-1.173061	-1.504103	-0.147002	-0.047442	0.087327	0.018918	-0.025971	0.020702	-0.777100	0.445313	0.319580	0.097161	-0.011719	-0.015030	0.354177	-0.676331	-0.335862	-0.551663	-142.309889	-79.776349	20.975199
14167		9.617995	-1.097144	-1.376196	-0.032020	0.015685	-0.035050	0.024768	-0.001598	0.013930	-0.783203	0.442383	0.317139	0.096181	-0.010963	-0.013763	0.354278	-0.676313	-0.335910	-0.551590	-142.282271	-79.771293	20.961746
14168		9.528617	-1.085618	-1.331792	-0.013054	0.041765	-0.130494	0.008000	-0.012670	0.017021	-0.781738	0.442139	0.309570	0.095288	-0.010848	-0.013312	0.354311	-0.676364	-0.335918	-0.551503	-142.278141	-79.759916	20.961968
14169		9.506921	-1.133591	-1.441462	-0.111012	-0.026778	-0.131192	-0.005682	-0.018922	0.016603	-0.779053	0.441406	0.311279	0.095072	-0.011328	-0.014405	0.354287	-0.676452	-0.335903	-0.551418	-142.294888	-79.746070	20.975869
14170		9.569967	-1.080371	-1.479796	-0.072665	-0.081516	-0.069519	-0.003435	-0.028588	0.018190	-0.774414	0.439453	0.315674	0.095703	-0.010795	-0.014784	0.354259	-0.676568	-0.335905	-0.551293	-142.325086	-79.727078	21.004618
14171		9.570284	-0.998475	-1.518646	-0.020244	-0.155575	-0.072617	-0.015651	-0.026220	0.026590	-0.777588	0.440430	0.312988	0.095706	-0.009973	-0.015173	0.354217	-0.676711	-0.335842	-0.551183	-142.336555	-79.706423	21.007352
14172		9.609533	-1.037867	-1.523633	-0.046827	-0.135522	-0.028967	-0.033192	-0.011233	0.025847	-0.776611	0.450684	0.319580	0.096098	-0.010369	-0.015229	0.354138	-0.676845	-0.335705	-0.551153	-142.331172	-79.692606	20.982398
14173		9.617556	-1.062484	-1.528212	-0.066389	-0.125143	-0.017708	-0.029469	-0.014972	0.024070	-0.783691	0.439941	0.314453	0.096178	-0.010616	-0.015273	0.354061	-0.676977	-0.335592	-0.551109	-142.335188	-79.677935	20.969508
14174		9.644839	-1.086466	-1.481439	-0.056360	-0.070337	0.005147	-0.032823	-0.005707	0.021150	-0.777100	0.445068	0.319824	0.096450	-0.010857	-0.014810	0.353979	-0.677087	-0.335462	-0.551106	-142.330719	-79.668262	20.945743
14175		9.574205	-1.116330	-1.467527	-0.084633	-0.046839	-0.063027	-0.025257	-0.009760	0.021909	-0.772949	0.439453	0.314697	0.095744	-0.011155	-0.014669	0.353920	-0.677194	-0.335359	-0.551075	-142.327725	-79.656711	20.928180
14176		9.551751	-1.206369	-1.459716	-0.158483	0.006119	-0.076318	-0.016892	-0.009136	0.023146	-0.782227	0.437256	0.317139	0.095520	-0.012054	-0.014592	0.353891	-0.677288	-0.335272	-0.551030	-142.315849	-79.644784	20.906081
14177		9.570519	-1.208199	-1.409759	-0.129214	0.051014	-0.064729	0.003457	-0.013003	0.025004	-0.789063	0.445557	0.317383	0.095708	-0.012070	-0.014092	0.353932	-0.677358	-0.335243	-0.550935	-142.295009	-79.630676	20.887100
14178		9.608990	-1.167759	-1.426419	-0.094425	0.018855	-0.028938	-0.006998	-0.021475	0.024306	-0.776367	0.445068	0.318604	0.096093	-0.011666	-0.014253	0.353919	-0.677471	-0.335201	-0.550830	-142.298293	-79.612756	20.886207
14179		9.609164	-1.249977	-1.416334	-0.156096	0.071567	-0.021110	-0.007221	-0.015813	0.022268	-0.776123	0.441895	0.327881	0.096094	-0.012490	-0.014155	0.353912	-0.677563	-0.335157	-0.550748	-142.295773	-79.598333	20.879629
14180		9.583370	-1.183873	-1.408626	-0.098508	0.042394	-0.054856	0.007443	-0.012590	0.019689	-0.781738	0.439453	0.315918	0.095836	-0.011829	-0.014081	0.353949	-0.677620	-0.335153	-0.550658	-142.285235	-79.586029	20.872848
14181		9.636484	-1.112152	-1.418237	-0.032260	0.000108	-0.009164	0.025188	-0.004543	0.013594	-0.776611	0.442627	0.311279	0.096366	-0.011113	-0.014182	0.354046	-0.677609	-0.335208	-0.550575	-142.264079	-79.579754	20.866202
14182		9.602530	-1.022692	-1.406501	0.044604	-0.038965	-0.054141	0.011772	-0.006627	0.009660	-0.779541	0.442871	0.322021	0.096026	-0.010221	-0.014062	0.354083	-0.677623	-0.335242	-0.550514	-142.264368	-79.573703	20.873345
14183		9.531991	-1.052027	-1.392096	0.016346	-0.015500	-0.122330	-0.018849	-0.005770	0.016943	-0.776611	0.441895	0.316162	0.095321	-0.010514	-0.013917	0.354038	-0.677699	-0.335167	-0.550495	-142.262555	-79.565697	20.860711
14184		9.524981	-1.026891	-1.414560	0.026709	-0.047210	-0.128793	-0.023535	-0.019952	0.019505	-0.778076	0.448975	0.320313	0.095252	-0.010261	-0.014135	0.353958	-0.677829	-0.335092	-0.550432	-142.284239	-79.550134	20.868814
14185		9.630818	-1.045639	-1.387422	0.045382	-0.005486	-0.026531	-0.040951	-0.032288	0.026480	-0.773438	0.437256	0.315674	0.096312	-0.010446	-0.013857	0.353820	-0.678033	-0.334971	-0.550343	-142.321999	-79.526766	20.883543
14186		9.605381	-1.181488	-1.439363	-0.096581	0.022832	-0.028968	-0.063233	-0.032855	0.029514	-0.776611	0.444336	0.324463	0.096058	-0.011805	-0.014374	0.353612	-0.678285	-0.334776	-0.550284	-142.366135	-79.501849	20.891434
14187		9.593524	-1.328545	-1.566596	-0.283866	-0.005926	-0.005836	-0.042071	-0.032075	0.031843	-0.770020	0.442871	0.311035	0.095940	-0.013273	-0.015648	0.353485	-0.678500	-0.334633	-0.550188	-142.390781	-79.476699	20.892176
14188		9.619287	-1.193288	-1.545106	-0.151072	-0.055546	0.001387	0.017975	-0.023073	0.023663	-0.780273	0.448730	0.321533	0.096196	-0.011920	-0.015441	0.353553	-0.678572	-0.334665	-0.550036	-142.384108	-79.458263	20.895772
14189		9.604763	-0.982640	-1.413642	0.093488	-0.055500	-0.055453	0.028870	-0.007673	0.018463	-0.774658	0.451416	0.321045	0.096049	-0.009815	-0.014134	0.353671	-0.678571	-0.334718	-0.549929	-142.354885	-79.448866	20.883063
14190		9.520417	-1.001626	-1.324202	0.110566	0.025009	-0.149237	-0.026887	-0.010053	0.023303	-0.777588	0.440186	0.324219	0.095206	-0.010007	-0.013236	0.353608	-0.678686	-0.334605	-0.549897	-142.350372	-79.436453	20.862727
14191		9.446957	-1.077184	-1.368721	0.014212	0.023812	-0.206546	-0.058679	-0.031925	0.028257	-0.781494	0.446533	0.320801	0.094473	-0.010763	-0.013669	0.353415	-0.678923	-0.334428	-0.549835	-142.392980	-79.412626	20.872061
14192		9.561254	-1.077068	-1.463722	-0.010439	-0.045994	-0.080375	-0.060867	-0.051023	0.035565	-0.778564	0.448486	0.322754	0.095618	-0.010758	-0.014610	0.353201	-0.679231	-0.334251	-0.549700	-142.454781	-79.377347	20.899193
14193		9.636224	-1.119925	-1.544445	-0.070162	-0.083176	0.009965	-0.067666	-0.043695	0.036513	-0.772949	0.445068	0.322998	0.096368	-0.011187	-0.015420	0.352980	-0.679530	-0.334042	-0.549599	-142.504135	-79.345286	20.910153
14194		9.630721	-1.172068	-1.582448	-0.129856	-0.084979	0.016076	-0.055264	-0.040651	0.037921	-0.776611	0.445801	0.322266	0.096313	-0.011707	-0.015802	0.352809	-0.679804	-0.333854	-0.549485	-142.537295	-79.313884	20.911525
14195		9.549598	-1.141595	-1.660875	-0.154192	-0.170620	-0.055450	-0.015132	-0.028639	0.033044	-0.772949	0.436768	0.322998	0.095500	-0.011401	-0.016594	0.352783	-0.679963	-0.333775	-0.549354	-142.536893	-79.289877	20.902484
14196		9.610164	-1.056033	-1.570223	-0.021758	-0.133681	-0.018928	0.009481	-0.026541	0.024785	-0.781006	0.446777	0.321777	0.096105	-0.010548	-0.015690	0.352819	-0.680061	-0.333784	-0.549203	-142.538562	-79.269479	20.909484
14197		9.481580	-1.087470	-1.512324	-0.037783	-0.075130	-0.150234	-0.018316	-0.027039	0.026675	-0.770752	0.446045	0.320557	0.094819	-0.010863	-0.015109	0.352766	-0.680211	-0.333715	-0.549093	-142.552335	-79.248420	20.913012
14198		9.506134	-1.238284	-1.513379	-0.157285	0.007289	-0.108799	-0.034876	-0.034723	0.034184	-0.779541	0.444092	0.319092	0.095066	-0.012369	-0.015115	0.352665	-0.680425	-0.333586	-0.548971	-142.571749	-79.221019	20.912422
14199		9.674621	-1.325787	-1.593507	-0.238267	-0.000771	0.078647	-0.009480	-0.037809	0.031969	-0.778076	0.448975	0.317383	0.096751	-0.013243	-0.015916	0.352639	-0.680597	-0.333542	-0.548801	-142.587409	-79.193215	20.923025
14200		9.786475	-1.292876	-1.558052	-0.168834	0.021056	0.179569	0.028699	-0.030874	0.025222	-0.775879	0.442871	0.318359	0.097869	-0.012914	-0.015567	0.352737	-0.680673	-0.333613	-0.548601	-142.584631	-79.170699	20.937105
14201		9.667637	-1.263175	-1.538042	-0.151408	0.014956	0.056519	0.051706	-0.017194	0.018209	-0.777832	0.444092	0.324951	0.096679	-0.012619	-0.015375	0.352916	-0.680658	-0.333747	-0.548423	-142.560414	-79.157067	20.942803
14202		9.447553	-1.245827	-1.500993	-0.154797	0.022064	-0.167125	0.064116	-0.004910	0.007313	-0.778076	0.449463	0.322510	0.094476	-0.012450	-0.015012	0.353127	-0.680571	-0.333928	-0.548285	-142.532778	-79.152589	20.951988
14203		9.410945	-1.121661	-1.557403	-0.084632	-0.093911	-0.208858	0.057219	-0.010050	0.001636	-0.779541	0.448242	0.322754	0.094110	-0.011211	-0.015573	0.353291	-0.680499	-0.334121	-0.548152	-142.531778	-79.147982	20.984541
14204		9.560658	-0.968243	-1.522703	0.089897	-0.134577	-0.084578	0.033820	-0.020828	0.008985	-0.778809	0.453125	0.315430	0.095609	-0.009676	-0.015219	0.353377	-0.680511	-0.334242	-0.548006	-142.546366	-79.135665	21.019115
14205		9.630819	-1.021788	-1.528795	0.056148	-0.104768	-0.008616	-0.032918	-0.031477	0.015988	-0.775879	0.447021	0.323242	0.096311	-0.010213	-0.015271	0.353238	-0.680681	-0.334177	-0.547925	-142.601766	-79.116306	21.056513
14206		9.624324	-1.237106	-1.518004	-0.117690	0.020165	0.008113	-0.056383	-0.032545	0.032326	-0.780762	0.447021	0.322998	0.096248	-0.012360	-0.015161	0.353063	-0.680924	-0.333993	-0.547849	-142.633748	-79.090538	21.056362
14207		9.609752	-1.467483	-1.609461	-0.357721	0.065916	0.034083	-0.030565	-0.029322	0.017503	-0.771240	0.447266	0.324219	0.096101	-0.014669	-0.016078	0.352940	-0.681086	-0.333925	-0.547768	-142.680040	-79.071624	21.085863
14208		9.684818	-1.551451	-1.570613	-0.393404	0.150288	0.111635	0.032210	-0.020346	0.002417	-0.773193	0.453613	0.322998	0.096850	-0.015511	-0.015699	0.353003	-0.681089	-0.334063	-0.547639	-142.709820	-79.061787	21.134919
14209		9.712290	-1.495306	-1.534134	-0.322050	0.152909	0.126678	0.140690	0.001745	-0.003036	-0.778076	0.453369	0.318848	0.097123	-0.014944	-0.015353	0.353459	-0.680829	-0.334479	-0.547414	-142.650485	-79.064162	21.156778
14210		9.599746	-1.132196	-1.430414	0.015898	0.039389	-0.041236	0.177795	0.015992	-0.022183	-0.773926	0.447510	0.318359	0.095995	-0.011320	-0.014322	0.354012	-0.680434	-0.335037	-0.547208	-142.589254	-79.079424	21.198374
14211		9.628448	-0.914561	-1.218058	0.310882	0.106008	-0.070039	0.114458	-0.004602	-0.018870	-0.777344	0.455078	0.327148	0.096284	-0.009148	-0.012184	0.354324	-0.680210	-0.335446	-0.547033	-142.593779	-79.084427	21.269962
14212		9.423588	-0.901650	-1.280669	0.253609	0.033646	-0.263256	0.014155	-0.027404	-0.011078	-0.779297	0.446777	0.325684	0.094237	-0.009021	-0.012794	0.354277	-0.680242	-0.335593	-0.546933	-142.678500	-79.076067	21.364472
14213		9.405729	-1.058195	-1.335224	0.092316	0.071792	-0.254619	-0.040513	-0.048312	0.013147	-0.776855	0.449951	0.322998	0.094061	-0.010578	-0.013327	0.354076	-0.680466	-0.335546	-0.546813	-142.774700	-79.050000	21.439001
14214		9.562251	-1.087482	-1.483379	0.023892	-0.022881	-0.075205	-0.058442	-0.060522	0.022911	-0.776855	0.458740	0.319092	0.095628	-0.010868	-0.014802	0.353819	-0.680774	-0.335437	-0.546663	-142.879652	-79.014712	21.511639
14215		9.765745	-1.021179	-1.440126	0.142028	-0.001707	0.110335	-0.033710	-0.056487	0.020140	-0.762695	0.444580	0.326904	0.097663	-0.010204	-0.014372	0.353646	-0.681021	-0.335400	-0.546490	-142.969136	-78.982443	21.583314
14216		9.689707	-1.061073	-1.357808	0.139851	0.088596	0.027664	-0.091308	-0.042712	0.010972	-0.771484	0.442871	0.325439	0.096901	-0.010612	-0.013553	0.353275	-0.681317	-0.335211	-0.546476	-143.088273	-78.959360	21.651420
14217		9.559894	-1.211159	-1.372264	-0.014313	0.152275	-0.080360	-0.132427	-0.064206	0.012426	-0.780029	0.451904	0.322266	0.095604	-0.012115	-0.013684	0.352732	-0.681746	-0.334944	-0.546457	-143.264894	-78.926140	21.754262
14218		9.568507	-1.267334	-1.512951	-0.127962	0.071108	-0.043857	-0.120114	-0.074511	0.015111	-0.776611	0.451904	0.334229	0.095692	-0.012675	-0.015086	0.352221	-0.682187	-0.334718	-0.546375	-143.445321	-78.886986	21.867994
14219		9.585424	-1.271210	-1.446458	-0.090064	0.138357	-0.037141	-0.087254	-0.074063	0.017047	-0.770752	0.452881	0.325684	0.095861	-0.012710	-0.014424	0.351828	-0.682569	-0.334576	-0.546237	-143.600579	-78.847533	21.975468
14220		9.595738	-1.248616	-1.400741	-0.041493	0.173403	-0.036824	-0.116029	-0.073571	0.016569	-0.773438	0.454590	0.327881	0.095964	-0.012486	-0.013965	0.351335	-0.683003	-0.334354	-0.546149	-143.771598	-78.808154	22.081967
14221		9.610604	-1.330994	-1.521775	-0.165809	0.124445	0.006074	-0.150147	-0.080759	0.011500	-0.778564	0.454834	0.325684	0.096113	-0.013316	-0.015169	0.350700	-0.683504	-0.334070	-0.546103	-143.985247	-78.767347	22.212262
14222		9.721694	-1.251144	-1.610603	-0.120455	0.024925	0.119865	-0.139624	-0.083477	0.004391	-0.774658	0.441162	0.335693	0.097224	-0.012521	-0.016057	0.350078	-0.683984	-0.333844	-0.546040	-144.212600	-78.727341	22.362793
14223		9.603680	-1.132567	-1.632019	-0.050192	-0.055829	-0.005994	-0.141541	-0.069033	0.006059	-0.773193	0.446533	0.330078	0.096043	-0.011334	-0.016279	0.349478	-0.684428	-0.333581	-0.546028	-144.411919	-78.693619	22.483539
14224		9.433755	-1.162662	-1.656206	-0.116472	-0.064044	-0.165259	-0.180572	-0.065822	-0.001642	-0.767334	0.443848	0.332031	0.094343	-0.011642	-0.016521	0.348726	-0.684921	-0.333230	-0.546105	-144.645303	-78.663642	22.615893
14225		9.473488	-1.192772	-1.692980	-0.151817	-0.066224	-0.116893	-0.200020	-0.070670	-0.001428	-0.763916	0.444092	0.341797	0.094741	-0.011945	-0.016884	0.347901	-0.685458	-0.332836	-0.546198	-144.896256	-78.631439	22.755154
14226		9.639658	-1.161051	-1.662387	-0.077366	-0.034670	0.037561	-0.198308	-0.073339	-0.000282	-0.772217	0.448242	0.341553	0.096403	-0.011627	-0.016577	0.347079	-0.686004	-0.332444	-0.546275	-145.146798	-78.597231	22.894611
14227		9.799028	-1.102680	-1.652537	0.007673	-0.035338	0.185633	-0.213529	-0.072381	0.004464	-0.772461	0.437500	0.345703	0.097996	-0.011042	-0.016478	0.346220	-0.686578	-0.331994	-0.546372	-145.392293	-78.562062	23.020441
14228		9.851990	-1.106549	-1.659472	0.012507	-0.025235	0.239139	-0.225331	-0.058948	0.006508	-0.771973	0.445557	0.342773	0.098525	-0.011081	-0.016553	0.345346	-0.687141	-0.331479	-0.546531	-145.617257	-78.532218	23.117909
14229		9.864555	-1.027685	-1.777192	0.019701	-0.156270	0.261993	-0.212638	-0.051502	-0.010192	-0.776367	0.442139	0.337646	0.098650	-0.010301	-0.017736	0.344484	-0.687630	-0.331045	-0.546722	-145.861193	-78.511461	23.242696
14230		9.881436	-0.982542	-1.825345	0.033621	-0.210445	0.281599	-0.233794	-0.037407	-0.026285	-0.764404	0.454590	0.348877	0.098816	-0.009860	-0.018223	0.343528	-0.688091	-0.330583	-0.547023	-146.131927	-78.502218	23.382326
14231		9.779604	-0.988798	-1.814915	0.012559	-0.196891	0.180979	-0.267138	-0.038170	-0.022266	-0.773926	0.436523	0.351807	0.097798	-0.009923	-0.018117	0.342466	-0.688615	-0.330018	-0.547370	-146.413293	-78.491424	23.513455
14232		9.603418	-1.037381	-1.717260	-0.010364	-0.093606	-0.002392	-0.284327	-0.037085	-0.006612	-0.771729	0.439453	0.347168	0.096037	-0.010401	-0.017140	0.341388	-0.689193	-0.329347	-0.547720	-146.665661	-78.475803	23.604527
14233		9.632724	-1.101764	-1.561492	0.023577	0.082732	0.007400	-0.311014	-0.040488	0.002326	-0.774170	0.436279	0.347168	0.096331	-0.011041	-0.015578	0.340238	-0.689837	-0.328580	-0.548087	-146.917123	-78.455944	23.679492
14234		9.714924	-1.157671	-1.650718	-0.055483	0.055647	0.108938	-0.323046	-0.036838	-0.001721	-0.776855	0.435303	0.350098	0.097152	-0.011604	-0.016471	0.339039	-0.690484	-0.327785	-0.548491	-147.178886	-78.438818	23.757705
14235		9.721294	-1.179317	-1.637929	-0.066397	0.088373	0.115300	-0.290858	-0.035862	-0.011905	-0.774414	0.437500	0.352051	0.097215	-0.011823	-0.016345	0.337925	-0.691054	-0.327112	-0.548862	-147.444228	-78.425459	23.858635
14236		9.549188	-1.134301	-1.620365	-0.053862	0.072480	-0.061223	-0.266500	-0.013080	-0.024584	-0.776855	0.442139	0.358887	0.095492	-0.011376	-0.016182	0.336896	-0.691500	-0.326510	-0.549291	-147.691011	-78.426703	23.954641
14237		9.491683	-0.969090	-1.595351	0.080995	0.003585	-0.139542	-0.259085	-0.012077	-0.032515	-0.775391	0.434082	0.357910	0.094916	-0.009727	-0.015935	0.335873	-0.691914	-0.325955	-0.549725	-147.950902	-78.430987	24.068590
14238		9.430236	-0.846886	-1.628807	0.147789	-0.089941	-0.206978	-0.269988	-0.017993	-0.029833	-0.780518	0.434326	0.349365	0.094303	-0.008505	-0.016268	0.334808	-0.692369	-0.325367	-0.550150	-148.219487	-78.431221	24.184701
14239		9.462480	-0.849554	-1.659150	0.131751	-0.101995	-0.169799	-0.322297	-0.037014	-0.017483	-0.778809	0.434570	0.361572	0.094627	-0.008531	-0.016560	0.333566	-0.692980	-0.324626	-0.550573	-148.516534	-78.418604	24.299609
14240		9.535591	-0.992996	-1.843978	-0.074868	-0.156036	-0.051343	-0.334813	-0.047244	-0.003148	-0.780518	0.426758	0.354004	0.095360	-0.009962	-0.018401	0.332302	-0.693662	-0.323817	-0.550955	-148.800851	-78.396390	24.394139
14241		9.456801	-1.101032	-1.955517	-0.239228	-0.182068	-0.097904	-0.273025	-0.049074	0.001935	-0.771729	0.436768	0.355713	0.094573	-0.011036	-0.019517	0.331262	-0.694252	-0.323163	-0.551221	-149.039662	-78.371891	24.478432
14242		9.353377	-1.115477	-1.921878	-0.251544	-0.146270	-0.203375	-0.201118	-0.038208	-0.002722	-0.772461	0.436768	0.362549	0.093537	-0.011175	-0.019190	0.330478	-0.694686	-0.322705	-0.551414	-149.232137	-78.353840	24.557583
14243		9.236068	-1.241550	-1.886834	-0.356811	-0.048232	-0.311272	-0.186690	-0.022821	-0.005345	-0.783691	0.424805	0.359375	0.092362	-0.012436	-0.018846	0.329760	-0.695047	-0.322271	-0.551643	-149.400576	-78.344288	24.620541
14244		9.313840	-1.258086	-2.041778	-0.442537	-0.152135	-0.206425	-0.135246	-0.027252	-0.005808	-0.776855	0.424805	0.360107	0.093141	-0.012597	-0.020397	0.329212	-0.695336	-0.321986	-0.551773	-149.546629	-78.332417	24.690682
14245		9.535873	-1.149591	-2.035137	-0.310347	-0.185305	-0.001186	-0.052298	-0.028018	-0.011523	-0.777344	0.421143	0.367188	0.095361	-0.011507	-0.020335	0.328935	-0.695479	-0.321951	-0.551777	-149.659788	-78.322025	24.775824
14246		9.626899	-1.035872	-2.032423	-0.200411	-0.237549	0.075910	-0.022107	-0.008100	-0.011858	-0.770996	0.426025	0.358398	0.096269	-0.010367	-0.020319	0.328793	-0.695520	-0.321967	-0.551801	-149.728603	-78.321320	24.833033
14247		9.620904	-0.894680	-1.951466	-0.043147	-0.252203	0.041500	-0.003081	0.004616	-0.008553	-0.774414	0.431396	0.353760	0.096208	-0.008951	-0.019517	0.328748	-0.695498	-0.322004	-0.551834	-149.760713	-78.326179	24.864210
14248		9.560967	-0.746903	-1.870508	0.109114	-0.276483	-0.046398	0.010409	0.015452	-0.011852	-0.773926	0.434570	0.357910	0.095608	-0.007474	-0.018713	0.328760	-0.695418	-0.322074	-0.551887	-149.777662	-78.337117	24.888031
14249		9.406702	-0.641146	-1.753808	0.229949	-0.255606	-0.228600	-0.015459	0.006096	-0.003721	-0.776123	0.420166	0.361572	0.094066	-0.006415	-0.017540	0.328688	-0.695420	-0.322058	-0.551937	-149.803262	-78.341310	24.905317
14250		9.314777	-0.837899	-1.728489	0.066806	-0.127844	-0.303008	-0.108122	-0.006276	0.002227	-0.776367	0.431641	0.361816	0.093148	-0.008387	-0.017277	0.328290	-0.695618	-0.321785	-0.552082	-149.884909	-78.337412	24.925642
14251		9.418965	-0.999138	-1.913181	-0.146989	-0.172086	-0.152241	-0.133176	-0.035884	0.018387	-0.769775	0.422852	0.359375	0.094194	-0.009995	-0.019108	0.327802	-0.695964	-0.321436	-0.552139	-149.983253	-78.314434	24.948338
14252		9.621561	-1.131854	-1.938201	-0.228618	-0.093039	0.064115	-0.119585	-0.048560	0.021392	-0.772217	0.429443	0.371094	0.096222	-0.011320	-0.019352	0.327349	-0.696329	-0.321135	-0.552124	-150.083829	-78.284037	24.981301
14253		9.676501	-1.214152	-1.958742	-0.293935	-0.052995	0.129963	-0.081596	-0.023546	0.021319	-0.776611	0.421387	0.369141	0.096769	-0.012139	-0.019571	0.327068	-0.696561	-0.320898	-0.552136	-150.128196	-78.266336	24.979057
14254		9.697742	-1.105859	-1.808774	-0.117784	0.009099	0.113381	-0.029947	0.007206	0.005246	-0.778320	0.424561	0.369141	0.096977	-0.011059	-0.018090	0.326970	-0.696600	-0.320807	-0.552198	-150.139303	-78.268193	24.972677
14255		9.556512	-1.062442	-1.628814	-0.009582	0.116696	-0.061019	-0.004416	0.034338	-0.004560	-0.769775	0.433838	0.374512	0.095562	-0.010627	-0.016304	0.326979	-0.696504	-0.320778	-0.552330	-150.121774	-78.286637	24.952382
14256		9.429853	-1.013826	-1.571437	0.036082	0.122680	-0.200038	-0.014490	0.027059	-0.006295	-0.775879	0.424316	0.364746	0.094296	-0.010142	-0.015726	0.326935	-0.696444	-0.320737	-0.552455	-150.124191	-78.301627	24.946230
14257		9.358296	-0.966394	-1.538310	0.078079	0.115983	-0.280717	-0.039949	0.002388	-0.005492	-0.777344	0.423828	0.362305	0.093583	-0.009670	-0.015382	0.326767	-0.696493	-0.320666	-0.552534	-150.173254	-78.304460	24.973150
14258		9.405667	-1.025376	-1.551737	0.032104	0.146125	-0.226057	-0.067626	-0.037047	0.008132	-0.778564	0.429443	0.367432	0.094060	-0.010255	-0.015496	0.326476	-0.696719	-0.320535	-0.552497	-150.259672	-78.283573	25.021971
14259		9.467663	-0.994010	-1.721320	-0.023705	0.000137	-0.138646	-0.067321	-0.043878	0.017883	-0.771729	0.418701	0.369873	0.094681	-0.009937	-0.017189	0.326203	-0.696978	-0.320382	-0.552421	-150.331613	-78.256731	25.056243
14260		9.639350	-0.946318	-1.780989	0.016008	-0.057212	0.035205	-0.036332	-0.040197	0.015337	-0.782471	0.432861	0.372559	0.096398	-0.009459	-0.017789	0.326035	-0.697174	-0.320316	-0.552311	-150.386744	-78.232167	25.091222
14261		9.558599	-0.878310	-1.747554	0.077324	-0.073832	-0.056624	-0.041093	-0.026452	0.017434	-0.776123	0.430908	0.371338	0.095589	-0.008778	-0.017461	0.325880	-0.697341	-0.320208	-0.552254	-150.420700	-78.214120	25.102048
14262		9.335494	-0.984334	-1.760956	-0.055238	-0.039867	-0.261944	-0.070929	-0.016807	0.013743	-0.771729	0.440674	0.379883	0.093357	-0.009843	-0.017598	0.325625	-0.697526	-0.320015	-0.552283	-150.467296	-78.201626	25.108230
14263		9.302389	-1.081161	-1.863832	-0.195212	-0.066250	-0.266236	-0.059041	-0.041746	0.017767	-0.775635	0.422852	0.371094	0.093029	-0.010809	-0.018616	0.325384	-0.697764	-0.319881	-0.552201	-150.531199	-78.175855	25.139147
14264		9.396645	-1.034792	-1.928376	-0.172692	-0.133135	-0.167024	-0.039706	-0.058298	0.029136	-0.770264	0.429688	0.370850	0.093974	-0.010338	-0.019254	0.325213	-0.698038	-0.319787	-0.552011	-150.578938	-78.138298	25.164625
14265		9.510092	-0.998416	-1.919162	-0.112090	-0.133227	-0.061198	-0.038808	-0.051765	0.035301	-0.774414	0.428955	0.372070	0.095108	-0.009971	-0.019165	0.325075	-0.698299	-0.319665	-0.551833	-150.602670	-78.102583	25.166347
14266		9.529460	-1.004449	-1.873595	-0.082815	-0.088209	-0.049735	-0.061982	-0.039891	0.039571	-0.773193	0.427002	0.376465	0.095300	-0.010031	-0.018714	0.324886	-0.698574	-0.319443	-0.551725	-150.613653	-78.071329	25.141404
14267		9.504271	-1.020351	-1.856713	-0.086574	-0.065284	-0.075752	-0.064688	-0.028691	0.039913	-0.776611	0.418701	0.375488	0.095047	-0.010191	-0.018550	0.324706	-0.698821	-0.319196	-0.551661	-150.610580	-78.045836	25.100570
14268		9.453104	-1.079796	-1.925878	-0.179226	-0.089182	-0.107222	-0.068612	-0.020751	0.041227	-0.778809	0.431152	0.381348	0.094535	-0.010785	-0.019245	0.324527	-0.699057	-0.318918	-0.551628	-150.596426	-78.023677	25.045707
14269		9.416665	-1.108580	-1.987547	-0.240428	-0.123147	-0.128685	-0.085906	-0.033174	0.036610	-0.771973	0.424561	0.370117	0.094172	-0.011077	-0.019855	0.324257	-0.699345	-0.318630	-0.551588	-150.619385	-77.996874	25.019050
14270		9.427211	-1.116080	-2.067597	-0.285908	-0.179623	-0.102956	-0.073901	-0.031344	0.038843	-0.773193	0.426025	0.371582	0.094278	-0.011150	-0.020657	0.324037	-0.699614	-0.318364	-0.551530	-150.627858	-77.970085	24.984435
14271		9.631713	-0.974904	-2.026421	-0.106538	-0.209995	0.075248	-0.029787	-0.023579	0.045280	-0.775879	0.430420	0.375732	0.096322	-0.009730	-0.020251	0.324002	-0.699798	-0.318186	-0.551419	-150.585845	-77.945634	24.924217
14272		9.712267	-0.837292	-1.814294	0.142732	-0.113521	0.101322	-0.016957	-0.001082	0.038215	-0.780273	0.424805	0.367676	0.097124	-0.008356	-0.018142	0.324029	-0.699890	-0.318030	-0.551377	-150.523502	-77.934119	24.850700
14273		9.524399	-0.900354	-1.611298	0.173846	0.068648	-0.112885	-0.059403	0.011825	0.047843	-0.776367	0.425293	0.368896	0.095245	-0.008986	-0.016116	0.323954	-0.700028	-0.317704	-0.551433	-150.446126	-77.926570	24.736962
14274		9.402236	-0.994524	-1.639123	0.062009	0.089654	-0.217586	-0.062770	-0.002708	0.044769	-0.774658	0.428223	0.379639	0.094025	-0.009929	-0.016387	0.323836	-0.700208	-0.317403	-0.551447	-150.397214	-77.912414	24.650515
14275		9.459014	-0.969630	-1.555991	0.143537	0.146829	-0.179823	-0.022982	-0.027965	0.041637	-0.771484	0.431641	0.379150	0.094594	-0.009678	-0.015546	0.323808	-0.700388	-0.317263	-0.551316	-150.366300	-77.886761	24.605622
14276		9.546653	-0.879066	-1.481905	0.279422	0.161671	-0.117164	-0.058577	-0.029905	0.046210	-0.771240	0.427490	0.369385	0.095471	-0.008773	-0.014802	0.323664	-0.700640	-0.317010	-0.551226	-150.347932	-77.858532	24.552463
14277		9.552495	-0.928715	-1.623414	0.165793	0.080530	-0.080567	-0.119001	-0.056606	0.048973	-0.776855	0.422852	0.373291	0.095532	-0.009273	-0.016202	0.323275	-0.701065	-0.316626	-0.551135	-150.392979	-77.816534	24.528988
14278		9.560010	-1.127700	-1.803849	-0.088045	0.059162	-0.019418	-0.158847	-0.071702	0.054801	-0.771729	0.430908	0.372314	0.095610	-0.011265	-0.017995	0.322738	-0.701606	-0.316136	-0.551043	-150.467082	-77.765156	24.511946
14279		9.543851	-1.172441	-1.999921	-0.231139	-0.066489	0.005741	-0.152035	-0.080145	0.061355	-0.773926	0.426025	0.372803	0.095450	-0.011710	-0.019952	0.322229	-0.702167	-0.315655	-0.550900	-150.532960	-77.707938	24.490410
14280		9.525547	-1.211083	-1.993068	-0.254173	-0.033643	-0.009150	-0.118192	-0.069932	0.054034	-0.775635	0.426758	0.384521	0.095266	-0.012097	-0.019890	0.321836	-0.702635	-0.315278	-0.550750	-150.582718	-77.657651	24.472450
14281		9.437453	-1.278229	-1.969185	-0.305078	0.021785	-0.092424	-0.098533	-0.040876	0.051494	-0.768066	0.429932	0.373535	0.094382	-0.012768	-0.019666	0.321549	-0.702987	-0.314915	-0.550677	-150.589751	-77.622813	24.422047
14282		9.535347	-1.198650	-1.948740	-0.205828	0.001971	-0.008871	-0.054273	-0.035252	0.042765	-0.774414	0.422852	0.372803	0.095359	-0.011971	-0.019467	0.321403	-0.703239	-0.314695	-0.550565	-150.584149	-77.592967	24.384673
14283		9.536061	-1.097914	-1.825934	-0.050535	0.041872	-0.041730	-0.039095	-0.032665	0.042156	-0.766602	0.429199	0.377197	0.095366	-0.010963	-0.018242	0.321312	-0.703457	-0.314516	-0.550442	-150.568070	-77.564853	24.345464
14284		9.418778	-1.063717	-1.826053	-0.041412	0.012981	-0.159840	-0.053540	-0.044004	0.044223	-0.768311	0.426270	0.377686	0.094194	-0.010621	-0.018237	0.321160	-0.703733	-0.314308	-0.550296	-150.570106	-77.530270	24.316504
14285		9.473749	-0.981871	-1.883658	0.007524	-0.073561	-0.103996	-0.059887	-0.066583	0.046892	-0.770020	0.429688	0.376465	0.094746	-0.009802	-0.018802	0.320956	-0.704085	-0.314109	-0.550079	-150.598559	-77.483897	24.310694
14286		9.580384	-0.919603	-1.894826	0.078795	-0.105725	-0.004406	-0.071317	-0.072509	0.052220	-0.769287	0.427734	0.382080	0.095813	-0.009178	-0.018910	0.320718	-0.704481	-0.313870	-0.549847	-150.628903	-77.432818	24.300294
14287		9.663975	-0.865044	-1.909003	0.137864	-0.137802	0.074021	-0.076335	-0.066406	0.053449	-0.771729	0.427246	0.387207	0.096648	-0.008632	-0.019055	0.320474	-0.704869	-0.313603	-0.549645	-150.651741	-77.384692	24.279073
14288		9.642390	-0.847892	-1.810355	0.210914	-0.067904	0.032255	-0.069870	-0.057012	0.058381	-0.759521	0.428955	0.388428	0.096432	-0.008457	-0.018073	0.320280	-0.705230	-0.313319	-0.549457	-150.648272	-77.339591	24.234557
14289		9.506746	-0.861826	-1.748703	0.214485	-0.019904	-0.110496	-0.100983	-0.044788	0.054206	-0.767822	0.434814	0.395020	0.095074	-0.008601	-0.017461	0.319985	-0.705599	-0.312946	-0.549368	-150.656673	-77.302050	24.184054
14290		9.453329	-1.000906	-1.816994	0.060408	0.008311	-0.134620	-0.143209	-0.066843	0.055431	-0.769287	0.421875	0.387939	0.094542	-0.009996	-0.018131	0.319508	-0.706100	-0.312486	-0.549263	-150.714068	-77.252769	24.158672
14291		9.393887	-1.179807	-1.948695	-0.161832	0.011828	-0.147900	-0.147138	-0.085895	0.058501	-0.770020	0.422607	0.385986	0.093951	-0.011785	-0.019438	0.318997	-0.706661	-0.312036	-0.549094	-150.790293	-77.193496	24.150579
14292		9.507363	-1.220609	-1.963662	-0.171391	0.041814	-0.029811	-0.109460	-0.095261	0.055982	-0.766846	0.432373	0.389160	0.095086	-0.012190	-0.019585	0.318597	-0.707185	-0.311713	-0.548836	-150.861960	-77.130032	24.159741
14293		9.667963	-1.241566	-1.996292	-0.165320	0.049320	0.135498	-0.071248	-0.083206	0.060403	-0.770020	0.432617	0.386963	0.096692	-0.012394	-0.019918	0.318363	-0.707620	-0.311460	-0.548554	-150.886797	-77.071578	24.143534
14294		9.655788	-1.160981	-1.932037	-0.058757	0.054651	0.102374	-0.036137	-0.063373	0.054021	-0.771973	0.425537	0.390137	0.096567	-0.011587	-0.019288	0.318268	-0.707935	-0.311296	-0.548295	-150.881165	-77.024565	24.116925
14295		9.524630	-1.144853	-1.988888	-0.098411	-0.008909	-0.015995	-0.034072	-0.064450	0.051066	-0.769287	0.426514	0.384277	0.095256	-0.011428	-0.019856	0.318170	-0.708245	-0.311148	-0.548037	-150.882386	-76.978102	24.098335
14296		9.422470	-1.155777	-2.001179	-0.127908	-0.018009	-0.111822	-0.027794	-0.067337	0.048890	-0.770752	0.427246	0.392578	0.094234	-0.011538	-0.019978	0.318083	-0.708549	-0.311030	-0.547760	-150.888320	-76.930623	24.088382
14297		9.590862	-0.975489	-1.978733	0.069234	-0.090145	0.027977	0.018977	-0.069947	0.037083	-0.764893	0.429688	0.390625	0.095917	-0.009735	-0.019755	0.318126	-0.708768	-0.311086	-0.547421	-150.895930	-76.885306	24.107551
14298		9.531253	-0.846751	-1.852231	0.238923	-0.069920	-0.069457	-0.008035	-0.069484	0.048547	-0.764160	0.418701	0.393066	0.095321	-0.008445	-0.018489	0.318104	-0.709046	-0.311026	-0.547106	-150.893852	-76.836778	24.100879
14299		9.420562	-0.990742	-1.875040	0.097107	-0.006943	-0.156869	-0.097275	-0.084567	0.061098	-0.762939	0.429443	0.396240	0.094217	-0.009888	-0.018706	0.317777	-0.709526	-0.310702	-0.546858	-150.933924	-76.777451	24.084984
14300		9.398319	-1.201532	-2.040944	-0.160244	-0.005947	-0.121877	-0.134590	-0.111143	0.069633	-0.769287	0.432861	0.393311	0.093999	-0.011996	-0.020349	0.317298	-0.710153	-0.310286	-0.546559	-151.008734	-76.702181	24.082514
14301		9.605290	-1.202572	-2.094845	-0.138540	-0.020818	0.090671	-0.086353	-0.107308	0.061270	-0.760254	0.435791	0.399414	0.096068	-0.012005	-0.020892	0.316975	-0.710678	-0.310027	-0.546212	-151.068430	-76.631414	24.093208
14302		9.724629	-1.130862	-2.029893	-0.009864	0.004033	0.185693	-0.041275	-0.078671	0.055222	-0.771240	0.432617	0.393799	0.097257	-0.011286	-0.020258	0.316841	-0.711044	-0.309867	-0.545904	-151.081243	-76.576384	24.082422
14303		9.548962	-1.193377	-1.931727	-0.032599	0.106605	0.001892	-0.078507	-0.044332	0.041455	-0.763916	0.427246	0.395020	0.095496	-0.011922	-0.019291	0.316588	-0.711352	-0.309599	-0.545800	-151.104680	-76.542690	24.060464
14304		9.356491	-1.286879	-2.044415	-0.206755	0.060682	-0.151777	-0.095551	-0.068546	0.043424	-0.763184	0.430908	0.393066	0.093575	-0.012858	-0.020406	0.316244	-0.711757	-0.309318	-0.545631	-151.161622	-76.496115	24.063120
14305		9.409342	-1.216934	-2.056899	-0.140517	0.018818	-0.105609	-0.041327	-0.089627	0.047024	-0.768066	0.438477	0.397217	0.094105	-0.012151	-0.020524	0.316069	-0.712139	-0.309203	-0.545299	-151.204046	-76.438152	24.082593
14306		9.522341	-0.973468	-1.945907	0.147764	-0.025979	-0.046079	0.000811	-0.090192	0.043678	-0.766357	0.427979	0.399658	0.095234	-0.009714	-0.019416	0.316037	-0.712450	-0.309218	-0.544903	-151.229367	-76.380595	24.109739
14307		9.453367	-0.990820	-1.783134	0.222411	0.110902	-0.144923	-0.044531	-0.084361	0.054847	-0.758057	0.430908	0.401855	0.094544	-0.009886	-0.017789	0.315880	-0.712834	-0.309059	-0.544582	-151.251060	-76.323116	24.105999
14308		9.382620	-1.078211	-1.867285	0.098340	0.096871	-0.186484	-0.109621	-0.096332	0.055701	-0.763428	0.431885	0.403320	0.093838	-0.010766	-0.018622	0.315474	-0.713356	-0.308738	-0.544316	-151.321722	-76.259129	24.114231
14309		9.374621	-1.319514	-2.093900	-0.215003	0.073075	-0.119521	-0.108406	-0.118702	0.055224	-0.761230	0.437500	0.398438	0.093762	-0.013181	-0.020876	0.315037	-0.713935	-0.308457	-0.543970	-151.417194	-76.184278	24.148772
14310		9.419912	-1.358025	-2.215462	-0.295614	0.014121	-0.045413	-0.055181	-0.123714	0.054318	-0.761719	0.439697	0.396729	0.094216	-0.013561	-0.022093	0.314781	-0.714441	-0.308333	-0.543523	-151.488721	-76.106886	24.190355
14311		9.563493	-1.341526	-2.217456	-0.242292	0.024216	0.092761	-0.018577	-0.109507	0.041266	-0.755615	0.429688	0.405273	0.095650	-0.013398	-0.022121	0.314640	-0.714831	-0.308331	-0.543093	-151.549781	-76.040459	24.242491
14312		9.609052	-1.243751	-2.249566	-0.165322	-0.049839	0.132739	-0.008878	-0.096345	0.041024	-0.757324	0.431396	0.406006	0.096104	-0.012419	-0.022449	0.314556	-0.715169	-0.308338	-0.542693	-151.590618	-75.980464	24.279890
14313		9.591520	-1.202537	-2.246637	-0.126884	-0.069195	0.110509	0.001229	-0.084603	0.039182	-0.755615	0.428467	0.402344	0.095927	-0.012006	-0.022426	0.314519	-0.715456	-0.308358	-0.542324	-151.616564	-75.927138	24.307556
14314		9.474022	-1.098752	-2.203380	-0.038862	-0.105811	-0.024606	0.008707	-0.081206	0.033674	-0.757568	0.442871	0.408691	0.094751	-0.010971	-0.021996	0.314499	-0.715715	-0.308413	-0.541963	-151.645432	-75.876767	24.342719
14315		9.407553	-1.102850	-2.086314	0.018501	-0.013565	-0.113692	0.002951	-0.079797	0.034383	-0.761475	0.434814	0.415527	0.094086	-0.011012	-0.020826	0.314462	-0.715979	-0.308448	-0.541616	-151.674398	-75.827163	24.374528
14316		9.379627	-1.076546	-1.935346	0.128186	0.090958	-0.176443	-0.020221	-0.089134	0.039104	-0.760010	0.433105	0.409668	0.093807	-0.010749	-0.019311	0.314341	-0.716313	-0.308417	-0.541262	-151.716885	-75.771224	24.406651
14317		9.446480	-1.064844	-1.914057	0.173035	0.113615	-0.117811	-0.031732	-0.108980	0.038692	-0.756348	0.440186	0.408691	0.094477	-0.010633	-0.019087	0.314147	-0.716716	-0.308388	-0.540857	-151.787729	-75.705710	24.461182
14318		9.512619	-1.183021	-2.005837	0.051693	0.129101	-0.020166	-0.083381	-0.126173	0.046170	-0.763184	0.433838	0.415039	0.095142	-0.011817	-0.019993	0.313762	-0.717259	-0.308220	-0.540456	-151.890800	-75.629207	24.518644
14319		9.533044	-1.357377	-2.242422	-0.207340	0.063021	0.071789	-0.103588	-0.136506	0.042525	-0.756836	0.439209	0.418213	0.095349	-0.013565	-0.022352	0.313277	-0.717855	-0.308026	-0.540057	-152.022646	-75.548694	24.593686
14320		9.576905	-1.333408	-2.298335	-0.200520	0.018861	0.123954	-0.039832	-0.126358	0.050610	-0.751221	0.429932	0.412354	0.095787	-0.013314	-0.022920	0.313059	-0.718337	-0.307958	-0.539581	-152.090642	-75.470831	24.640500
14321		9.506009	-1.153946	-2.185161	-0.000791	-0.003154	0.009263	0.000405	-0.100394	0.039947	-0.746094	0.433838	0.411377	0.095073	-0.011520	-0.021804	0.312996	-0.718668	-0.307997	-0.539154	-152.129061	-75.409246	24.680627
14322		9.400874	-1.139474	-1.988902	0.109066	0.136155	-0.137972	-0.036851	-0.088044	0.040967	-0.751709	0.431885	0.413818	0.094020	-0.011379	-0.019846	0.312822	-0.719026	-0.307913	-0.538826	-152.173787	-75.353379	24.705307
14323		9.383051	-1.164980	-2.030140	0.068721	0.124336	-0.143142	-0.081662	-0.097603	0.035585	-0.749023	0.440918	0.417236	0.093842	-0.011641	-0.020251	0.312456	-0.719471	-0.307741	-0.538543	-152.264057	-75.294354	24.750447
14324		9.501952	-1.296848	-2.100147	-0.039047	0.171994	0.003035	-0.077748	-0.120827	0.036116	-0.756104	0.432861	0.413574	0.095035	-0.012959	-0.020939	0.312072	-0.719973	-0.307616	-0.538166	-152.373802	-75.223112	24.818220
14325		9.468878	-1.319555	-2.271006	-0.154069	0.058652	0.012340	-0.052414	-0.134984	0.042728	-0.758301	0.439941	0.410889	0.094707	-0.013181	-0.022643	0.311773	-0.720483	-0.307555	-0.537691	-152.469858	-75.143168	24.886710
14326		9.465948	-1.309639	-2.331205	-0.171541	0.014561	0.022159	-0.011523	-0.132956	0.035277	-0.747803	0.436035	0.418945	0.094677	-0.013081	-0.023248	0.311607	-0.720911	-0.307631	-0.537170	-152.553647	-75.066028	24.967272
14327		9.497984	-1.092777	-2.333100	0.014241	-0.109175	0.027896	0.030692	-0.124249	0.040760	-0.751465	0.439697	0.424561	0.094997	-0.010905	-0.023274	0.311619	-0.721258	-0.307784	-0.536609	-152.593732	-74.992016	25.027161
14328		9.543602	-0.953610	-2.228496	0.204583	-0.101511	0.031282	0.033512	-0.116063	0.034932	-0.748535	0.437988	0.419678	0.095451	-0.009516	-0.022231	0.311638	-0.721572	-0.307954	-0.536079	-152.634589	-74.923398	25.089656
14329		9.454649	-1.007657	-2.254085	0.136461	-0.090929	-0.042337	-0.028371	-0.114935	0.043637	-0.755127	0.430176	0.424072	0.094562	-0.010059	-0.022485	0.311458	-0.721990	-0.307923	-0.535637	-152.693021	-74.853346	25.133538
14330		9.340711	-1.135840	-2.326545	-0.022563	-0.072761	-0.120112	-0.050882	-0.128931	0.039840	-0.753174	0.433594	0.430908	0.093424	-0.011346	-0.023202	0.311166	-0.722476	-0.307869	-0.535184	-152.784494	-74.776919	25.198362
14331		9.343139	-1.216509	-2.436852	-0.138200	-0.099375	-0.082148	-0.026639	-0.143494	0.045088	-0.743896	0.426270	0.414795	0.093452	-0.012147	-0.024300	0.310952	-0.722969	-0.307882	-0.534633	-152.865436	-74.691899	25.266636
14332		9.440948	-1.160418	-2.356941	-0.013105	-0.051975	-0.013180	0.021042	-0.137974	0.044066	-0.753174	0.432129	0.429199	0.094428	-0.011581	-0.023505	0.310916	-0.723374	-0.308017	-0.534030	-152.915105	-74.609723	25.330796
14333		9.408104	-1.100719	-2.250484	0.098588	-0.002026	-0.077239	0.008394	-0.124813	0.045801	-0.746094	0.435059	0.424316	0.094098	-0.010985	-0.022447	0.310859	-0.723763	-0.308092	-0.533491	-152.955687	-74.534013	25.378078
14334		9.363137	-1.228427	-2.245993	0.001888	0.082931	-0.106249	-0.027989	-0.130432	0.045927	-0.747559	0.440674	0.427490	0.093649	-0.012266	-0.022397	0.310662	-0.724225	-0.308078	-0.532986	-153.021703	-74.455153	25.430141
14335		9.402821	-1.335079	-2.413182	-0.157573	0.031573	-0.015081	-0.009462	-0.133032	0.043836	-0.749023	0.436523	0.427734	0.094047	-0.013331	-0.024069	0.310522	-0.724661	-0.308125	-0.532448	-153.082731	-74.375730	25.488063
14336		9.438787	-1.270885	-2.533407	-0.157313	-0.089395	0.040801	0.038254	-0.136705	0.040073	-0.739502	0.442871	0.424316	0.094408	-0.012685	-0.025272	0.310541	-0.725027	-0.308319	-0.531827	-153.125939	-74.295141	25.556131
14337		9.453196	-1.171836	-2.517028	-0.055886	-0.128692	0.038802	0.051764	-0.130053	0.037002	-0.745361	0.441406	0.427490	0.094550	-0.011694	-0.025112	0.310609	-0.725348	-0.308549	-0.531215	-153.160506	-74.218985	25.623053
14338		9.428266	-1.102335	-2.533655	-0.006657	-0.180299	0.010458	0.029157	-0.124197	0.037396	-0.742920	0.444580	0.431152	0.094300	-0.011002	-0.025280	0.310608	-0.725689	-0.308710	-0.530656	-153.201115	-74.145444	25.683295
14339		9.450229	-1.025274	-2.522862	0.075429	-0.209650	0.019566	0.040764	-0.124176	0.033595	-0.747070	0.443848	0.423584	0.094520	-0.010232	-0.025172	0.310637	-0.726006	-0.308913	-0.530087	-153.241781	-74.073149	25.750055
14340		9.386205	-1.030160	-2.407713	0.132844	-0.117486	-0.069603	0.021983	-0.123263	0.039734	-0.742432	0.450439	0.425781	0.093879	-0.010280	-0.024020	0.310617	-0.726359	-0.309045	-0.529538	-153.280611	-73.999486	25.804282
14341		9.308160	-1.209845	-2.441945	-0.035492	-0.034960	-0.113916	-0.040162	-0.129735	0.047931	-0.739746	0.437744	0.428955	0.093100	-0.012081	-0.024357	0.310381	-0.726838	-0.308991	-0.529052	-153.346061	-73.920627	25.848634
14342		9.315531	-1.313732	-2.558621	-0.170435	-0.051636	-0.064877	-0.025376	-0.148710	0.046717	-0.742676	0.437500	0.422607	0.093177	-0.013119	-0.025515	0.310168	-0.727341	-0.309012	-0.528472	-153.421209	-73.832105	25.912484
14343		9.378925	-1.371856	-2.587669	-0.204432	-0.021344	0.010754	0.017726	-0.147661	0.042526	-0.737061	0.438232	0.434814	0.093811	-0.013696	-0.025809	0.310100	-0.727768	-0.309157	-0.527839	-153.477690	-73.745413	25.982075
14344		9.470692	-1.274663	-2.573751	-0.085914	-0.050711	0.083423	0.045415	-0.138682	0.034149	-0.745361	0.442871	0.438477	0.094727	-0.012725	-0.025675	0.310125	-0.728115	-0.309394	-0.527206	-153.524499	-73.665241	26.058497
14345		9.490909	-1.291670	-2.513245	-0.048112	0.016681	0.089816	0.054619	-0.123967	0.035192	-0.739014	0.441162	0.438232	0.094927	-0.012893	-0.025077	0.310208	-0.728411	-0.309626	-0.526613	-153.550911	-73.592545	26.118837
14346		9.457261	-1.286646	-2.496161	-0.032447	0.029578	0.052611	0.042769	-0.122779	0.031221	-0.745605	0.442627	0.435059	0.094590	-0.012846	-0.024906	0.310239	-0.728716	-0.309840	-0.526046	-153.589593	-73.521184	26.185028
14347		9.336467	-1.318274	-2.538600	-0.101960	0.007826	-0.048391	0.046689	-0.123292	0.033528	-0.746826	0.449951	0.432617	0.093383	-0.013161	-0.025332	0.310289	-0.729018	-0.310057	-0.525469	-153.622027	-73.449238	26.246955
14348		9.288994	-1.268142	-2.508839	-0.047598	0.000814	-0.107761	0.067910	-0.125239	0.031123	-0.739014	0.452881	0.433105	0.092908	-0.012658	-0.025035	0.310410	-0.729288	-0.310343	-0.524853	-153.647533	-73.376685	26.314933
14349		9.312198	-1.204202	-2.450925	0.051751	0.016073	-0.108502	0.079531	-0.126785	0.028426	-0.748291	0.443848	0.443115	0.093139	-0.012019	-0.024455	0.310561	-0.729540	-0.310669	-0.524220	-153.672100	-73.304226	26.388335
14350		9.302490	-1.198560	-2.408847	0.088180	0.051241	-0.129455	0.046972	-0.131220	0.030028	-0.736084	0.436035	0.441895	0.093042	-0.011966	-0.024030	0.310592	-0.729857	-0.310913	-0.523616	-153.715717	-73.228814	26.462620
14351		9.309505	-1.315722	-2.476647	-0.029556	0.079149	-0.090309	0.017855	-0.133121	0.034313	-0.736572	0.449463	0.438965	0.093114	-0.013139	-0.024706	0.310523	-0.730230	-0.311066	-0.523047	-153.769909	-73.151577	26.530114
14352		9.308793	-1.403863	-2.562647	-0.136531	0.074836	-0.057312	0.022274	-0.145863	0.033677	-0.743408	0.442139	0.443359	0.093109	-0.014020	-0.025560	0.310450	-0.730629	-0.311253	-0.522422	-153.832657	-73.067666	26.609374
14353		9.287485	-1.430732	-2.607151	-0.176864	0.062975	-0.062490	0.045483	-0.151960	0.030513	-0.737793	0.445313	0.437012	0.092897	-0.014287	-0.026004	0.310442	-0.731001	-0.311520	-0.521746	-153.891805	-72.981658	26.698660
14354		9.266454	-1.464189	-2.628119	-0.208532	0.073424	-0.072608	0.059832	-0.154335	0.028769	-0.739502	0.441650	0.443604	0.092687	-0.014621	-0.026214	0.310480	-0.731354	-0.311837	-0.521038	-153.946791	-72.894607	26.792542
14355		9.300970	-1.420236	-2.679831	-0.182402	0.019385	-0.031433	0.088832	-0.155771	0.029635	-0.742432	0.444336	0.437256	0.093033	-0.014177	-0.026732	0.310622	-0.731667	-0.312226	-0.520281	-153.984250	-72.806810	26.885206
14356		9.374625	-1.274976	-2.578380	0.020048	0.027157	-0.006768	0.104192	-0.142495	0.026989	-0.738281	0.449951	0.448486	0.093766	-0.012724	-0.025724	0.310835	-0.731917	-0.312646	-0.519550	-154.005858	-72.726271	26.970865
14357		9.347713	-1.127178	-2.499142	0.184679	0.002664	-0.072983	0.078502	-0.143506	0.025707	-0.735596	0.444092	0.448730	0.093496	-0.011250	-0.024929	0.310948	-0.732206	-0.313003	-0.518859	-154.044664	-72.645749	27.058823
14358		9.272641	-1.250833	-2.441094	0.112435	0.122172	-0.144295	0.012154	-0.150822	0.036284	-0.737793	0.450928	0.445801	0.092747	-0.012490	-0.024342	0.310834	-0.732635	-0.313161	-0.518226	-154.109183	-72.558498	27.134042
14359		9.152068	-1.359729	-2.581389	-0.072467	0.073193	-0.207369	-0.016166	-0.161818	0.032751	-0.735352	0.451660	0.447998	0.091544	-0.013584	-0.025739	0.310590	-0.733129	-0.313275	-0.517605	-154.203747	-72.466714	27.223673
14360		9.258610	-1.379118	-2.705078	-0.116709	0.014367	-0.069616	0.034879	-0.171252	0.030132	-0.729736	0.450195	0.456299	0.092611	-0.013773	-0.026974	0.310513	-0.733564	-0.313547	-0.516870	-154.279624	-72.370418	27.324839
14361		9.307830	-1.226762	-2.655480	0.056327	-0.022454	-0.056227	0.065795	-0.172298	0.026667	-0.733887	0.446777	0.454834	0.093103	-0.012246	-0.026479	0.310536	-0.733947	-0.313911	-0.516090	-154.343492	-72.274661	27.431635
14362		9.154114	-1.235096	-2.717357	-0.014493	-0.076552	-0.184541	-0.010955	-0.154608	0.030707	-0.727295	0.450928	0.452637	0.091564	-0.012338	-0.027102	0.310315	-0.734411	-0.314034	-0.515487	-154.430129	-72.186711	27.516210
14363		9.321684	-1.020614	-2.857471	0.130823	-0.281736	-0.014520	0.042922	-0.166625	0.008313	-0.730957	0.448975	0.451172	0.093241	-0.010196	-0.028499	0.310216	-0.734786	-0.314397	-0.514792	-154.530243	-72.098323	27.647425
14364		9.239406	-1.219059	-2.719658	0.042230	-0.053203	-0.104720	-0.026328	-0.165241	0.034188	-0.725830	0.451660	0.451660	0.092419	-0.012178	-0.027119	0.309932	-0.735304	-0.314486	-0.514168	-154.626357	-72.003964	27.733085
14365		9.040184	-1.481630	-3.050821	-0.390512	-0.166494	-0.166579	-0.088689	-0.190051	0.053610	-0.729492	0.460205	0.453125	0.090435	-0.014806	-0.030416	0.309428	-0.736013	-0.314379	-0.513522	-154.745091	-71.892202	27.804719
14366		9.070476	-1.601902	-3.177373	-0.532697	-0.173243	-0.085328	0.002003	-0.201304	0.043279	-0.724365	0.446533	0.447021	0.090740	-0.015999	-0.031683	0.309216	-0.736593	-0.314564	-0.512705	-154.835204	-71.776829	27.901548
14367		9.263782	-1.435575	-3.030723	-0.252428	-0.120739	0.035433	0.077563	-0.180904	0.034184	-0.723633	0.453857	0.454834	0.092668	-0.014328	-0.030229	0.309288	-0.736988	-0.314941	-0.511861	-154.880550	-71.674474	27.996300
14368		9.229392	-1.351851	-2.919481	-0.121329	-0.080765	-0.039699	0.052720	-0.148988	0.025890	-0.731934	0.456543	0.454346	0.092317	-0.013499	-0.029130	0.309300	-0.737327	-0.315238	-0.511182	-154.928825	-71.590440	28.079734
14369		9.109616	-1.400427	-2.888274	-0.164917	-0.035791	-0.155569	0.003827	-0.128182	0.023222	-0.728027	0.454102	0.457520	0.091116	-0.013993	-0.028825	0.309154	-0.737684	-0.315385	-0.510665	-154.993698	-71.518057	28.150630
14370		9.131366	-1.394479	-2.999658	-0.206816	-0.114520	-0.103493	0.045553	-0.130920	0.022097	-0.728027	0.445801	0.463623	0.091335	-0.013928	-0.029940	0.309158	-0.737980	-0.315650	-0.510070	-155.037713	-71.444262	28.225366
14371		9.145690	-1.296437	-2.884008	-0.051512	-0.074512	-0.136238	0.079206	-0.134340	0.020495	-0.733887	0.456055	0.458496	0.091478	-0.012944	-0.028784	0.309274	-0.738231	-0.316009	-0.509414	-155.067117	-71.369304	28.304468
14372		9.048227	-1.247800	-2.801670	0.015250	-0.046969	-0.258928	0.036233	-0.135202	0.025645	-0.724854	0.455078	0.458740	0.090503	-0.012461	-0.027958	0.309244	-0.738559	-0.316241	-0.508812	-155.113319	-71.292381	28.375631
14373		8.961780	-1.316346	-2.852713	-0.080789	-0.049009	-0.316621	0.000774	-0.149645	0.028408	-0.729492	0.450684	0.462158	0.089641	-0.013151	-0.028460	0.309066	-0.738982	-0.316394	-0.508212	-155.185353	-71.207518	28.452368
14374		8.934596	-1.416988	-2.916732	-0.191268	-0.031099	-0.309813	0.007201	-0.171448	0.033514	-0.721191	0.444336	0.463623	0.089373	-0.014154	-0.029091	0.308892	-0.739458	-0.316580	-0.507509	-155.260430	-71.109789	28.536676
14375		9.105311	-1.413650	-2.964668	-0.153994	-0.032819	-0.134385	0.028634	-0.176723	0.033166	-0.719727	0.449951	0.459473	0.091082	-0.014117	-0.029568	0.308785	-0.739912	-0.316828	-0.506756	-155.326772	-71.009630	28.624358
14376		9.253503	-1.431513	-2.865738	-0.057734	0.089305	-0.020973	0.028266	-0.172294	0.032450	-0.723633	0.453857	0.469482	0.092562	-0.014296	-0.028580	0.308684	-0.740356	-0.317071	-0.506018	-155.390474	-70.911644	28.709316
14377		9.270146	-1.507419	-2.976685	-0.161264	0.062681	0.038131	0.021894	-0.161661	0.029038	-0.718506	0.455566	0.460205	0.092728	-0.015057	-0.029694	0.308565	-0.740775	-0.317293	-0.505337	-155.454975	-70.820253	28.791065
14378		9.361317	-1.581206	-3.015160	-0.202544	0.103065	0.145927	-0.008811	-0.152930	0.024339	-0.712891	0.462646	0.469971	0.093638	-0.015802	-0.030079	0.308337	-0.741212	-0.317443	-0.504740	-155.537225	-70.734211	28.873465
14379		9.419970	-1.626807	-3.094132	-0.253864	0.088872	0.231396	0.039025	-0.143129	0.027671	-0.715576	0.458496	0.465088	0.094224	-0.016249	-0.030877	0.308308	-0.741555	-0.317684	-0.504102	-155.580043	-70.652747	28.942725
14380		9.210936	-1.534646	-3.093811	-0.231285	0.007153	0.021671	0.067702	-0.122840	0.030390	-0.712158	0.457520	0.469482	0.092131	-0.015322	-0.030887	0.308426	-0.741807	-0.317959	-0.503485	-155.588052	-70.580895	28.993080
14381		8.959714	-1.381334	-3.072993	-0.162770	-0.104467	-0.242398	0.091371	-0.118127	0.022517	-0.712891	0.459473	0.459717	0.089617	-0.013789	-0.030683	0.308618	-0.741998	-0.318312	-0.502864	-155.591073	-70.513684	29.052005
14382		8.933144	-1.307163	-3.010300	-0.068245	-0.099165	-0.296535	0.079849	-0.121388	0.019620	-0.713623	0.451416	0.468750	0.089351	-0.013051	-0.030054	0.308756	-0.742209	-0.318655	-0.502250	-155.606644	-70.445174	29.117884
14383		9.055974	-1.313165	-2.978905	-0.010019	-0.043943	-0.189440	0.073144	-0.137529	0.013422	-0.718262	0.453613	0.472900	0.090581	-0.013115	-0.029732	0.308826	-0.742461	-0.319026	-0.501599	-155.645784	-70.369974	29.204113
14384		9.160165	-1.433284	-3.028049	-0.090053	0.016355	-0.059554	0.049357	-0.148794	0.019485	-0.714111	0.461426	0.472168	0.091626	-0.014316	-0.030216	0.308805	-0.742788	-0.319333	-0.500932	-155.696598	-70.287169	29.288496
14385		9.199694	-1.594497	-3.185700	-0.279668	0.007208	0.048711	0.052902	-0.157402	0.023722	-0.714844	0.462891	0.468750	0.092024	-0.015926	-0.031789	0.308793	-0.743136	-0.319645	-0.500223	-155.744317	-70.199116	29.371606
14386		9.285467	-1.653928	-3.193644	-0.292990	0.059970	0.140466	0.104788	-0.154552	0.024303	-0.713867	0.455566	0.463867	0.092881	-0.016511	-0.031873	0.308982	-0.743397	-0.320083	-0.499437	-155.758821	-70.112110	29.451655
14387		9.360216	-1.491518	-3.167381	-0.116441	0.001030	0.180160	0.175638	-0.137207	0.022544	-0.712158	0.461426	0.464600	0.093626	-0.014877	-0.031623	0.309455	-0.743503	-0.320674	-0.498608	-155.723991	-70.034873	29.521847
14388		9.310818	-1.335648	-2.955626	0.117971	0.068111	0.045936	0.170765	-0.115109	0.015957	-0.718750	0.462402	0.466797	0.093126	-0.013324	-0.029514	0.309932	-0.743548	-0.321247	-0.497874	-155.686727	-69.970519	29.587271
14389		9.185169	-1.265248	-2.885751	0.183359	0.063274	-0.104025	0.132053	-0.106787	0.008215	-0.706787	0.456787	0.469482	0.091868	-0.012630	-0.028817	0.310256	-0.743620	-0.321735	-0.497249	-155.677450	-69.912571	29.658142
14390		9.235499	-1.371387	-2.848650	0.143641	0.170495	-0.053577	0.073304	-0.121071	0.010395	-0.708984	0.466064	0.468262	0.092373	-0.013699	-0.028436	0.310345	-0.743822	-0.322095	-0.496659	-155.707490	-69.846388	29.735629
14391		9.265027	-1.498599	-3.044656	-0.043843	0.106812	0.053574	0.034768	-0.139321	0.021910	-0.712402	0.467041	0.471191	0.092673	-0.014971	-0.030385	0.310288	-0.744147	-0.322340	-0.496047	-155.754720	-69.768201	29.807377
14392		9.272861	-1.552257	-3.247445	-0.181774	-0.008994	0.132573	0.037897	-0.149601	0.032925	-0.715088	0.460205	0.473633	0.092755	-0.015501	-0.032408	0.310257	-0.744510	-0.322572	-0.495371	-155.790352	-69.681750	29.869448
14393		9.255501	-1.424330	-3.377320	-0.144063	-0.182008	0.139468	0.095281	-0.140774	0.026384	-0.714355	0.470947	0.477051	0.092581	-0.014215	-0.033715	0.310434	-0.744751	-0.322953	-0.494650	-155.796703	-69.601726	29.934652
14394		9.200223	-1.242210	-3.262081	0.055931	-0.204114	0.025176	0.115863	-0.122812	0.017271	-0.716797	0.471436	0.473145	0.092023	-0.012395	-0.032571	0.310696	-0.744901	-0.323393	-0.493972	-155.792284	-69.532951	30.001518
14395		9.133028	-1.105577	-3.180946	0.196420	-0.228702	-0.083246	0.095518	-0.102993	0.015008	-0.710449	0.466553	0.468994	0.091347	-0.011034	-0.031768	0.310905	-0.745029	-0.323758	-0.493407	-155.790218	-69.475343	30.057939
14396		9.047610	-1.180584	-3.201280	0.109061	-0.208557	-0.145950	0.026586	-0.115053	0.018895	-0.711182	0.474365	0.468506	0.090496	-0.011793	-0.031962	0.310852	-0.745299	-0.323961	-0.492899	-155.829309	-69.410255	30.116995
14397		8.997129	-1.390849	-3.360974	-0.148385	-0.208014	-0.111470	-0.013065	-0.141527	0.025879	-0.712158	0.468506	0.477295	0.089997	-0.013899	-0.033545	0.310622	-0.745708	-0.324077	-0.492349	-155.897771	-69.329927	30.182349
14398		9.042324	-1.489124	-3.452421	-0.250530	-0.202339	-0.025114	0.000659	-0.152275	0.028656	-0.709717	0.467285	0.479492	0.090452	-0.014878	-0.034455	0.310436	-0.746125	-0.324238	-0.491729	-155.960431	-69.243028	30.250802
14399		9.079871	-1.468542	-3.513390	-0.243747	-0.246328	0.027256	0.080143	-0.147164	0.026860	-0.707764	0.461182	0.475098	0.090827	-0.014659	-0.035073	0.310546	-0.746403	-0.324588	-0.491005	-155.976670	-69.159479	30.317493
14400		9.101225	-1.375608	-3.376364	-0.079805	-0.183936	-0.010432	0.096213	-0.119195	0.020452	-0.706787	0.466309	0.475342	0.091034	-0.013731	-0.033716	0.310747	-0.746578	-0.324961	-0.490365	-155.974981	-69.091772	30.375401
14401		9.120681	-1.367986	-3.308896	-0.022732	-0.126442	-0.015214	0.058437	-0.103853	0.018704	-0.706543	0.470703	0.479736	0.091225	-0.013662	-0.033046	0.310826	-0.746770	-0.325220	-0.489851	-155.987911	-69.032786	30.425295
14402		9.116953	-1.371713	-3.317615	-0.022907	-0.125945	-0.015208	0.048247	-0.103398	0.024271	-0.708008	0.468018	0.482910	0.091188	-0.013698	-0.033132	0.310885	-0.746985	-0.325437	-0.489341	-155.998453	-68.972445	30.467046
14403		9.191168	-1.281545	-3.209661	0.137214	-0.075772	0.005524	0.070088	-0.108880	0.020923	-0.703125	0.477539	0.473877	0.091930	-0.012795	-0.032051	0.311004	-0.747174	-0.325724	-0.488785	-156.004387	-68.910305	30.516637
14404		9.167457	-1.200377	-3.069970	0.276937	-0.013504	-0.074566	0.056890	-0.101191	0.033008	-0.700684	0.468262	0.480957	0.091692	-0.011980	-0.030657	0.311120	-0.747384	-0.325926	-0.488256	-155.996519	-68.849082	30.544108
14405		9.114689	-1.206335	-3.025131	0.289080	0.021484	-0.137969	0.007102	-0.117531	0.045240	-0.702881	0.469238	0.477783	0.091167	-0.012042	-0.030198	0.311049	-0.747732	-0.325982	-0.487731	-156.010590	-68.776747	30.563765
14406		9.203753	-1.374338	-3.110270	0.149481	0.079389	-0.002336	-0.053123	-0.133511	0.050748	-0.697998	0.467529	0.481445	0.092062	-0.013728	-0.031038	0.310743	-0.748220	-0.325898	-0.487233	-156.061010	-68.694479	30.585998
14407		9.310121	-1.535014	-3.399584	-0.085634	-0.021132	0.216470	-0.058831	-0.149556	0.048898	-0.709229	0.464844	0.483398	0.093130	-0.015337	-0.033922	0.310382	-0.748753	-0.325829	-0.486690	-156.126533	-68.604509	30.620359
14408		9.390390	-1.587867	-3.534346	-0.161430	-0.069805	0.344153	0.009174	-0.139705	0.044599	-0.700928	0.475830	0.479248	0.093932	-0.015856	-0.035279	0.310283	-0.749149	-0.325929	-0.486077	-156.152603	-68.520419	30.654721
14409		9.341708	-1.422454	-3.449110	0.010574	-0.104269	0.245953	0.113436	-0.112274	0.038088	-0.694336	0.469971	0.477051	0.093439	-0.014187	-0.034447	0.310601	-0.749306	-0.326261	-0.485409	-156.111448	-68.452481	30.680547
14410		9.415746	-1.122789	-3.162675	0.431734	-0.041822	0.173868	0.161456	-0.080635	0.021842	-0.699219	0.478027	0.487305	0.094171	-0.011192	-0.031598	0.311115	-0.749283	-0.326726	-0.484802	-156.045557	-68.404626	30.710287
14411		9.343479	-1.038576	-2.989428	0.575174	0.032633	0.035359	0.097036	-0.086472	0.027604	-0.696289	0.468018	0.479736	0.093449	-0.010358	-0.029859	0.311388	-0.749384	-0.327017	-0.484273	-156.012668	-68.352654	30.734917
14412		9.226215	-1.190222	-3.047708	0.396865	0.060075	-0.031733	-0.003388	-0.117630	0.044493	-0.702148	0.473389	0.488525	0.092283	-0.011882	-0.030423	0.311278	-0.749744	-0.327054	-0.483762	-156.033146	-68.280162	30.755704
14413		9.311719	-1.371322	-3.288111	0.166835	0.004088	0.155885	-0.003787	-0.157884	0.053743	-0.696289	0.472656	0.485107	0.093147	-0.013689	-0.032807	0.311119	-0.750217	-0.327114	-0.483089	-156.065130	-68.184713	30.788010
14414		9.485745	-1.298664	-3.327326	0.274243	-0.026955	0.319490	0.069303	-0.170919	0.061856	-0.697266	0.473633	0.483643	0.094890	-0.012946	-0.033197	0.311235	-0.750621	-0.327343	-0.482232	-156.051932	-68.080290	30.817344
14415		9.463217	-1.134832	-3.222775	0.466962	-0.039025	0.237536	0.105672	-0.145515	0.063035	-0.702393	0.478516	0.485352	0.094659	-0.011301	-0.032165	0.311529	-0.750908	-0.327612	-0.481411	-156.001793	-67.989159	30.828768
14416		9.253935	-1.003450	-2.978065	0.644662	0.039817	-0.061077	0.090835	-0.115831	0.057936	-0.689453	0.472900	0.488281	0.092559	-0.009994	-0.029732	0.311807	-0.751136	-0.327824	-0.480730	-155.949677	-67.914535	30.829726
14417		9.144341	-0.972076	-2.842257	0.716544	0.111658	-0.214958	0.024986	-0.120235	0.061444	-0.695313	0.477051	0.489258	0.091463	-0.009689	-0.028369	0.311836	-0.751485	-0.327865	-0.480139	-155.933541	-67.837008	30.827964
14418		9.150331	-1.109782	-2.836922	0.624518	0.206388	-0.191063	-0.040431	-0.156692	0.066603	-0.698242	0.478760	0.490234	0.091529	-0.011073	-0.028295	0.311573	-0.752030	-0.327790	-0.479506	-155.969051	-67.738952	30.842039
14419		9.155399	-1.356276	-2.912450	0.406236	0.306119	-0.123290	-0.096147	-0.197145	0.079848	-0.689209	0.479736	0.495605	0.091588	-0.013540	-0.029028	0.311064	-0.752781	-0.327591	-0.478794	-156.042305	-67.616880	30.861879
14420		9.258956	-1.710284	-3.079026	0.090774	0.421210	0.084182	-0.110712	-0.223815	0.089778	-0.688965	0.481689	0.495117	0.092632	-0.017078	-0.030677	0.310482	-0.753632	-0.327365	-0.477987	-156.125699	-67.478297	30.884314
14421		9.392404	-1.800278	-3.237843	0.000335	0.392642	0.276300	-0.044722	-0.223047	0.094280	-0.685791	0.472412	0.494873	0.093969	-0.017966	-0.032270	0.310157	-0.754386	-0.327274	-0.477070	-156.164779	-67.339288	30.899093
14422		9.419246	-1.738800	-3.194557	0.099664	0.408104	0.275637	0.041415	-0.202453	0.084812	-0.688721	0.479248	0.500000	0.094232	-0.017341	-0.031854	0.310171	-0.754941	-0.327395	-0.476100	-156.154705	-67.213052	30.914695
14423		9.247677	-1.572475	-3.049866	0.267172	0.397859	0.039428	0.066485	-0.183230	0.082735	-0.692627	0.479980	0.493652	0.092511	-0.015676	-0.030419	0.310303	-0.755406	-0.327550	-0.475168	-156.122392	-67.097584	30.921172
14424		9.015842	-1.354958	-2.859325	0.477275	0.379880	-0.277231	0.044413	-0.184364	0.087469	-0.688721	0.478516	0.499756	0.090191	-0.013504	-0.028513	0.310363	-0.755915	-0.327640	-0.474257	-156.097480	-66.980262	30.922686
14425		9.014035	-1.162179	-2.752994	0.701506	0.357961	-0.348958	0.033934	-0.206790	0.090342	-0.677979	0.489014	0.493896	0.090174	-0.011576	-0.027439	0.310351	-0.756498	-0.327725	-0.473276	-156.087453	-66.850690	30.933125
14426		9.042668	-1.101145	-2.710816	0.800843	0.373422	-0.349599	-0.044431	-0.251830	0.107370	-0.681152	0.483398	0.500977	0.090467	-0.010969	-0.026992	0.310012	-0.757334	-0.327634	-0.472222	-156.125555	-66.693400	30.947947
14427		9.130549	-1.326629	-2.901677	0.577161	0.394288	-0.166033	-0.156766	-0.289707	0.124815	-0.675537	0.484619	0.506836	0.091356	-0.013232	-0.028874	0.309222	-0.758462	-0.327265	-0.471185	-156.226801	-66.512383	30.960602
14428		9.280157	-1.533213	-3.202684	0.336038	0.336241	0.112188	-0.178300	-0.322132	0.136030	-0.678711	0.479492	0.514648	0.092863	-0.015297	-0.031864	0.308326	-0.759714	-0.326855	-0.470037	-156.343002	-66.311592	30.976794
14429		9.408885	-1.517295	-3.296792	0.371804	0.302717	0.260453	-0.096382	-0.309727	0.146826	-0.677246	0.481445	0.513672	0.094151	-0.015120	-0.032815	0.307783	-0.760827	-0.326573	-0.468788	-156.392285	-66.114996	30.970508
14430		9.281705	-1.398432	-3.050132	0.575017	0.413989	0.031441	-0.035610	-0.274961	0.153968	-0.668945	0.477295	0.513428	0.092870	-0.013918	-0.030371	0.307545	-0.761774	-0.326354	-0.467557	-156.380293	-65.934867	30.935629
14431		9.011210	-1.321381	-2.867333	0.660500	0.467623	-0.298774	-0.077643	-0.266883	0.153313	-0.677979	0.479004	0.514160	0.090160	-0.013156	-0.028548	0.307156	-0.762764	-0.326024	-0.466428	-156.389283	-65.759274	30.896934
14432		8.904986	-1.442136	-2.858077	0.558806	0.541973	-0.381832	-0.142846	-0.305832	0.154663	-0.662842	0.481201	0.514404	0.089105	-0.014373	-0.028434	0.306459	-0.763944	-0.325598	-0.465250	-156.453854	-65.562856	30.878653
14433		9.005197	-1.514765	-2.946345	0.520793	0.560363	-0.247977	-0.162783	-0.358006	0.171618	-0.665771	0.484619	0.524414	0.090117	-0.015094	-0.029290	0.305637	-0.765302	-0.325137	-0.463881	-156.536062	-65.335234	30.866702
14434		9.111566	-1.514249	-3.021113	0.553065	0.549055	-0.125932	-0.156557	-0.374143	0.191080	-0.663086	0.479248	0.516846	0.091186	-0.015079	-0.030029	0.304859	-0.766714	-0.324642	-0.462404	-156.599833	-65.094584	30.838921
14435		9.090342	-1.487621	-3.021239	0.600206	0.551947	-0.152968	-0.138612	-0.382248	0.200829	-0.651611	0.485596	0.523926	0.090976	-0.014806	-0.030028	0.304156	-0.768131	-0.324158	-0.460853	-156.646239	-64.847583	30.802694
14436		9.095829	-1.566135	-3.001778	0.586946	0.639198	-0.146028	-0.128647	-0.400797	0.211255	-0.657715	0.483154	0.526123	0.091035	-0.015584	-0.029825	0.303486	-0.769586	-0.323689	-0.459194	-156.684002	-64.588430	30.763919
14437		9.068677	-1.622634	-2.998121	0.572396	0.694094	-0.166289	-0.096287	-0.410055	0.211478	-0.650879	0.480225	0.532959	0.090765	-0.016145	-0.029787	0.302921	-0.771011	-0.323300	-0.457446	-156.707718	-64.324402	30.729268
14438		9.093290	-1.423171	-2.860085	0.845305	0.707003	-0.237780	-0.029482	-0.428383	0.206374	-0.655273	0.484619	0.538574	0.091008	-0.014142	-0.028404	0.302573	-0.772363	-0.323114	-0.455524	-156.707477	-64.051887	30.711009
14439		9.159160	-1.260345	-2.662689	1.136662	0.796876	-0.292110	-0.013165	-0.456881	0.203975	-0.649414	0.485596	0.536377	0.091665	-0.012512	-0.026417	0.302233	-0.773748	-0.323012	-0.453467	-156.713906	-63.764919	30.709978
14440		9.141116	-1.227579	-2.616718	1.220353	0.834431	-0.340180	-0.071652	-0.498970	0.214425	-0.642090	0.487793	0.540039	0.091489	-0.012187	-0.025935	0.301622	-0.775327	-0.322801	-0.451322	-156.761632	-63.453497	30.718208
14441		9.265843	-1.195644	-2.650681	1.320638	0.848015	-0.228950	-0.077104	-0.545801	0.222265	-0.635254	0.488525	0.544189	0.092744	-0.011864	-0.026249	0.300927	-0.777028	-0.322613	-0.448989	-156.824652	-63.115576	30.739514
14442		9.343081	-1.055554	-2.653351	1.505817	0.811782	-0.193913	-0.064917	-0.590140	0.230074	-0.641602	0.491211	0.549316	0.093521	-0.010457	-0.026254	0.300226	-0.778813	-0.322488	-0.446448	-156.890902	-62.752552	30.773036
14443		9.445595	-0.970963	-2.550750	1.714500	0.896997	-0.172984	-0.073255	-0.617278	0.250080	-0.626465	0.500488	0.556152	0.094546	-0.009601	-0.025212	0.299487	-0.780697	-0.322301	-0.443780	-156.952356	-62.370687	30.795198
14444		9.360231	-0.981830	-2.518506	1.742531	0.944120	-0.273682	-0.059134	-0.645272	0.260322	-0.623779	0.493408	0.562744	0.093696	-0.009704	-0.024880	0.298782	-0.782627	-0.322148	-0.440959	-157.005936	-61.971831	30.818562
14445		9.206639	-0.872255	-2.417096	1.871375	0.953639	-0.487801	-0.012196	-0.688310	0.260643	-0.622070	0.489014	0.559326	0.092160	-0.008604	-0.023853	0.298183	-0.784575	-0.322153	-0.437889	-157.049632	-61.550116	30.860444
14446		9.005932	-0.826043	-2.222798	1.978842	1.061890	-0.774651	0.001937	-0.753938	0.256775	-0.612305	0.493408	0.566162	0.090153	-0.008145	-0.021888	0.297524	-0.786625	-0.322300	-0.434538	-157.114360	-61.094787	30.936164
14447		8.839826	-0.803027	-2.019084	2.087611	1.202489	-1.034335	-0.011621	-0.822995	0.261821	-0.599365	0.498535	0.568115	0.088491	-0.007916	-0.019826	0.296703	-0.788843	-0.322492	-0.430922	-157.207188	-60.601646	31.035046
14448		8.763446	-0.786019	-1.917995	2.180176	1.296584	-1.172108	-0.024094	-0.911114	0.256616	-0.597656	0.496094	0.580078	0.087731	-0.007750	-0.018779	0.295678	-0.791241	-0.322805	-0.426977	-157.342412	-60.063122	31.175711
14449		8.993712	-0.773522	-1.815991	2.404710	1.479076	-1.048445	-0.026540	-1.005622	0.272401	-0.587158	0.499023	0.578613	0.090037	-0.007615	-0.017706	0.294512	-0.793853	-0.323178	-0.422629	-157.495608	-59.470825	31.335641
14450		9.127448	-0.817131	-1.770456	2.524901	1.636325	-0.977592	-0.043314	-1.089737	0.288386	-0.580811	0.500977	0.590088	0.091381	-0.008043	-0.017205	0.293173	-0.796668	-0.323571	-0.417938	-157.668675	-58.830436	31.509092
14451		9.171741	-0.609197	-1.930073	2.706025	1.468790	-0.939348	-0.032273	-1.171261	0.304630	-0.580078	0.493652	0.591309	0.091837	-0.005955	-0.018762	0.291766	-0.799638	-0.324026	-0.412866	-157.843355	-58.142844	31.692518
14452		9.154240	-0.224265	-1.955170	3.063260	1.278431	-1.057464	-0.006356	-1.253833	0.320996	-0.565674	0.503174	0.604980	0.091666	-0.002096	-0.018977	0.290354	-0.802732	-0.324582	-0.407385	-158.010208	-57.408139	31.886172
14453		9.166075	0.506357	-1.767301	3.798109	1.040854	-1.334108	-0.052258	-1.338072	0.342752	-0.548340	0.498047	0.613525	0.091767	0.005216	-0.017061	0.288650	-0.806067	-0.325061	-0.401587	-158.204869	-56.623144	32.082762
14454		9.418913	1.363237	-1.246305	4.892779	1.036999	-1.620528	-0.201571	-1.396235	0.381319	-0.539063	0.488525	0.617676	0.094247	0.013800	-0.011819	0.286312	-0.809756	-0.325153	-0.395723	-158.463460	-55.798775	32.255218
14455		9.894636	2.386520	-0.716385	6.221252	0.997142	-1.786944	-0.359030	-1.456712	0.436322	-0.527100	0.502686	0.630615	0.098943	0.024069	-0.006486	0.283331	-0.813833	-0.324778	-0.389768	-158.777348	-54.930012	32.386918
14456		10.233406	3.233210	-0.458963	7.228884	0.823118	-1.910107	-0.598564	-1.558625	0.491475	-0.518066	0.496826	0.634521	0.102286	0.032571	-0.003890	0.279294	-0.818481	-0.323835	-0.383685	-159.206036	-53.995288	32.491978
14457		10.309885	3.452603	-0.916322	7.321835	0.453077	-1.735721	-0.943400	-1.704972	0.564577	-0.500488	0.491943	0.658691	0.103075	0.034776	-0.008448	0.273728	-0.823938	-0.322105	-0.377423	-159.803657	-52.966509	32.563234
14458		10.307993	3.333933	-2.191621	6.765877	-0.279888	-1.076806	-1.278276	-1.856606	0.630899	-0.486572	0.485352	0.666748	0.103173	0.033528	-0.021173	0.266627	-0.830145	-0.319642	-0.370943	-160.567886	-51.843248	32.603296
14459		10.391993	3.336901	-3.493922	6.340785	-1.041801	-0.323611	-1.358155	-2.002227	0.694760	-0.471436	0.482178	0.673096	0.104148	0.033497	-0.034125	0.259045	-0.836710	-0.316909	-0.363842	-161.347593	-50.628401	32.605478
14460		10.548016	3.539975	-4.019143	6.456459	-1.358714	0.006213	-1.372142	-2.098685	0.754213	-0.448486	0.466553	0.695313	0.105762	0.035526	-0.039326	0.251318	-0.843417	-0.313983	-0.356232	-162.098658	-49.351772	32.560376
14461		10.690023	3.355002	-4.225766	6.439329	-1.198227	0.211584	-1.531147	-2.144710	0.818684	-0.420410	0.460938	0.703369	0.107209	0.033669	-0.041367	0.242916	-0.850363	-0.310495	-0.348523	-162.891135	-48.038115	32.447691
14462		10.643539	3.043226	-4.783401	6.080316	-1.228612	0.528699	-1.696204	-2.138681	0.936463	-0.407227	0.446777	0.723877	0.106798	0.030531	-0.046952	0.233973	-0.857509	-0.306154	-0.340889	-163.692377	-46.710120	32.215262
14463		10.388920	2.450036	-4.866467	5.624158	-0.830380	0.448450	-1.925792	-2.170158	1.047753	-0.375000	0.433838	0.732178	0.104282	0.024583	-0.047771	0.224140	-0.864959	-0.300908	-0.333260	-164.553147	-45.349179	31.878351
14464		10.226864	1.135753	-5.479661	4.519207	-0.162620	0.932139	-2.385887	-2.239857	1.211964	-0.355469	0.421143	0.756836	0.102806	0.011334	-0.053783	0.212424	-0.873048	-0.294187	-0.325757	-165.588173	-43.930608	31.405618
14465		10.282440	-0.863439	-7.244846	2.636561	0.541971	2.504312	-2.660567	-2.260396	1.371208	-0.329590	0.414795	0.764404	0.103694	-0.008878	-0.071163	0.199670	-0.881415	-0.286243	-0.318282	-166.690507	-42.484157	30.789350
14466		10.562661	-3.295926	-9.305324	0.579877	1.657862	4.537375	-2.287579	-2.140073	1.455579	-0.305176	0.394043	0.777344	0.106853	-0.033237	-0.091535	0.188802	-0.889047	-0.278315	-0.310627	-167.522540	-41.103212	30.071472
14467		10.550761	-5.757456	-10.341807	-1.116305	3.284698	5.658991	-1.255554	-1.769781	1.465581	-0.289063	0.367188	0.792969	0.106836	-0.057439	-0.102116	0.183008	-0.894941	-0.271524	-0.303089	-167.729284	-39.931846	29.282705
14468		8.258816	-6.601760	-10.156880	-2.784659	3.326381	4.191874	-0.185226	-1.454353	1.286022	-0.263916	0.389893	0.789551	0.083746	-0.065575	-0.100902	0.182133	-0.899012	-0.266833	-0.295645	-167.394171	-38.959789	28.587763
14469		6.145565	-5.328572	-10.439879	-3.359767	1.465534	2.903933	0.139066	-1.461030	0.963391	-0.253418	0.376221	0.786621	0.062472	-0.052914	-0.103982	0.182215	-0.902292	-0.264055	-0.287995	-167.036172	-38.020352	28.140898
14470		4.936118	-4.106564	-11.051304	-3.552070	-0.163665	2.463822	-0.300696	-1.497546	0.726527	-0.240967	0.380859	0.802979	0.050336	-0.041050	-0.110077	0.179911	-0.905643	-0.261728	-0.280966	-167.047214	-37.091215	27.876343
14471		4.668083	-3.985446	-11.529299	-3.717128	-0.447436	2.700442	-0.834278	-1.349212	0.647486	-0.230957	0.371826	0.802979	0.047586	-0.040181	-0.114807	0.175262	-0.909099	-0.258855	-0.275347	-167.385453	-36.254322	27.642631
14472		4.911554	-3.397992	-10.208314	-2.565085	-0.065880	1.732580	-1.070009	-0.924808	0.706270	-0.201416	0.372314	0.803467	0.049707	-0.034350	-0.101671	0.170157	-0.912190	-0.254999	-0.271903	-167.797008	-35.650113	27.299038
14473		5.940387	-3.001212	-7.797654	-0.558181	1.178248	0.355825	-1.020584	-0.230120	0.881508	-0.200928	0.354980	0.816406	0.059626	-0.030147	-0.077754	0.166395	-0.914471	-0.249808	-0.271389	-168.050899	-35.414549	26.730051
14474		6.825890	-2.326106	-6.786654	0.895324	1.410627	-0.052017	-0.670270	0.376912	1.037388	-0.203857	0.355713	0.800049	0.068251	-0.023135	-0.067917	0.165194	-0.915789	-0.243859	-0.273083	-167.991349	-35.502612	25.964744
14475		7.001892	-0.702151	-6.340835	2.077083	0.278225	-0.575070	-0.376187	0.667775	0.990592	-0.197266	0.351318	0.809814	0.069841	-0.006795	-0.063629	0.165626	-0.916375	-0.238280	-0.275766	-167.753727	-35.756482	25.187172
14476		6.846971	0.987343	-5.707376	3.089619	-0.975922	-1.450203	-0.300981	0.867124	0.729813	-0.200195	0.348877	0.801758	0.068185	0.010036	-0.057385	0.166274	-0.916278	-0.233822	-0.279491	-167.555271	-36.152676	24.555047
14477		6.283231	1.325263	-4.848886	3.155267	-1.130778	-2.497513	-0.862869	1.113925	0.408341	-0.199951	0.342773	0.803223	0.062534	0.013170	-0.048895	0.164180	-0.915889	-0.229840	-0.285247	-167.782505	-36.725268	24.105583
14478		5.357455	0.189998	-5.023389	1.708310	-0.565916	-2.689989	-1.876139	1.324000	0.153885	-0.211426	0.320557	0.805908	0.053239	0.001467	-0.050602	0.157306	-0.915653	-0.225378	-0.293323	-168.677878	-37.450195	23.806793
14479		4.540095	-0.835551	-6.442607	-0.212855	-0.506870	-1.906188	-2.258416	1.523757	-0.045091	-0.223145	0.304932	0.806396	0.044907	-0.009095	-0.064670	0.148594	-0.915057	-0.221080	-0.302843	-169.867545	-38.311734	23.637185
14480		4.084187	-1.317712	-7.310704	-1.382482	-0.519731	-1.465318	-1.870116	1.778610	-0.185747	-0.230713	0.284180	0.807129	0.040178	-0.013900	-0.073339	0.141696	-0.913469	-0.217775	-0.313163	-170.889289	-39.334386	23.556294
14481		4.137459	-1.657421	-7.427573	-1.764333	-0.209950	-1.334835	-1.402738	2.076271	-0.272869	-0.256348	0.271729	0.808838	0.040578	-0.017152	-0.074581	0.137102	-0.910841	-0.215363	-0.324332	-171.673941	-40.532788	23.526854
14482		4.728124	-2.037164	-7.417531	-1.741452	0.320904	-0.959155	-1.283272	2.350708	-0.279015	-0.265381	0.257568	0.805664	0.046377	-0.020914	-0.074591	0.133308	-0.907523	-0.212936	-0.336583	-172.387435	-41.888782	23.491991
14483		5.473581	-2.714387	-7.782020	-1.995873	0.997392	-0.174023	-1.275946	2.569774	-0.306629	-0.281250	0.245361	0.803223	0.053689	-0.027725	-0.078339	0.129714	-0.903628	-0.210471	-0.349762	-173.110639	-43.370306	23.480605
14484		6.161703	-3.434969	-8.349849	-2.477770	1.597107	0.712901	-0.893062	2.734465	-0.473286	-0.310303	0.238281	0.796143	0.060387	-0.034868	-0.084175	0.127697	-0.898830	-0.209262	-0.363328	-173.712799	-44.957649	23.608116
14485		6.995513	-4.367450	-8.873950	-3.000659	2.390562	1.677730	-0.208110	2.895202	-0.700086	-0.330566	0.232666	0.781738	0.068508	-0.044009	-0.089693	0.128494	-0.892871	-0.210184	-0.376953	-174.063663	-46.648461	23.931403
14486		6.040212	-4.864064	-8.869882	-4.166982	2.429276	0.936284	0.564284	3.143632	-0.885490	-0.355957	0.236328	0.774170	0.058781	-0.048651	-0.089769	0.132611	-0.885530	-0.213164	-0.390912	-174.092788	-48.492138	24.406922
14487		3.891265	-4.208501	-8.419420	-5.166681	1.249592	-1.125220	1.386077	3.256134	-1.116188	-0.382080	0.243896	0.759766	0.037299	-0.041708	-0.085100	0.140002	-0.876905	-0.218645	-0.404515	-173.815798	-50.413455	25.087782
14488		3.355070	-3.445195	-8.011238	-5.081016	0.381651	-1.981162	1.835703	3.159739	-1.250936	-0.413086	0.244385	0.742188	0.032063	-0.033915	-0.080940	0.148929	-0.867698	-0.225600	-0.417162	-173.406842	-52.292065	25.909062
14489		3.768165	-2.947660	-8.020480	-4.819178	-0.188793	-1.816122	2.104744	3.097338	-1.268028	-0.428711	0.251709	0.720215	0.036246	-0.028859	-0.081079	0.158867	-0.858071	-0.233166	-0.429079	-172.886454	-54.139476	26.765288
14490		4.507853	-2.343307	-7.829810	-4.185307	-0.679897	-1.498376	2.430750	3.108419	-1.327259	-0.455078	0.260254	0.698486	0.043699	-0.022767	-0.079264	0.170015	-0.847740	-0.241565	-0.440543	-172.248199	-56.003478	27.683458
14491		5.355834	-1.584032	-7.387063	-3.245432	-1.135569	-1.214416	2.550658	3.169554	-1.423951	-0.476807	0.271240	0.680176	0.052267	-0.015265	-0.074903	0.181465	-0.836674	-0.250493	-0.451996	-171.642190	-57.914726	28.704140
14492		6.175107	-0.831854	-7.174846	-2.489355	-1.677645	-0.797073	2.445712	3.253425	-1.576861	-0.512695	0.286133	0.662109	0.060509	-0.007913	-0.072838	0.192150	-0.824925	-0.259628	-0.463864	-171.267991	-59.892059	29.903704
14493		6.934774	-0.330723	-7.001214	-1.960959	-2.021918	-0.364168	2.318285	3.294413	-1.761752	-0.536377	0.291992	0.635986	0.068154	-0.003091	-0.071178	0.201841	-0.812571	-0.269068	-0.476016	-171.221566	-61.910224	31.370868
14494		7.124848	-0.215220	-6.873716	-1.962656	-2.207360	-0.361550	2.202690	3.306056	-1.925113	-0.564697	0.293213	0.619385	0.070079	-0.002065	-0.069925	0.210582	-0.799694	-0.278741	-0.488312	-171.544615	-63.947970	33.148936
14495		6.563482	-0.296082	-6.646810	-2.305442	-2.342076	-1.064070	1.964551	3.301111	-2.047435	-0.591797	0.295898	0.582031	0.064495	-0.002965	-0.067568	0.217973	-0.786523	-0.288206	-0.500806	-172.345389	-65.984191	35.275032
14496		6.493153	-0.501250	-6.541082	-2.627702	-2.319458	-1.274231	1.720326	3.220646	-2.168993	-0.611816	0.289307	0.566650	0.063811	-0.005140	-0.066488	0.223873	-0.773283	-0.297480	-0.513244	-173.744903	-67.966090	37.864515
14497		7.356253	-0.160289	-6.377070	-2.272992	-2.422431	-0.660412	1.628477	3.141074	-2.293871	-0.632568	0.293945	0.545410	0.072528	-0.001913	-0.064930	0.228889	-0.759816	-0.306970	-0.525414	-175.790250	-69.877492	41.056260
14498		8.636742	0.612336	-5.719843	-1.238418	-2.379696	0.211242	1.538095	3.118709	-2.416421	-0.645508	0.283447	0.515381	0.085531	0.005533	-0.058493	0.233091	-0.745987	-0.316564	-0.537550	-178.642219	-71.729430	45.006803
14499		9.539311	1.345172	-4.803585	-0.225493	-2.168552	0.728591	1.165099	3.104988	-2.457742	-0.674805	0.270020	0.499756	0.094791	0.012570	-0.049436	0.235679	-0.732234	-0.325199	-0.550031	177.459216	-73.493649	49.791058
14500		9.791718	1.269618	-4.345926	-0.282528	-1.832861	0.813994	0.591603	3.001036	-2.357200	-0.694824	0.255371	0.480469	0.097392	0.011678	-0.044888	0.236168	-0.719318	-0.331871	-0.562733	172.463960	-75.088007	55.329475
14501		10.069802	0.810452	-4.271647	-0.889333	-1.500697	1.015539	0.159261	2.836855	-2.127644	-0.708496	0.243408	0.457031	0.100158	0.007072	-0.044134	0.235406	-0.707503	-0.336592	-0.575090	166.649642	-76.465277	61.421220
14502		10.518369	0.095369	-4.552586	-1.904623	-1.232741	1.421771	-0.028926	2.702002	-1.783998	-0.724365	0.225342	0.438965	0.104559	0.000012	-0.046941	0.234658	-0.696677	-0.339606	-0.586724	160.440731	-77.659905	67.772001
14503		10.806212	-0.585001	-4.881366	-2.932769	-1.082821	1.639839	-0.021042	2.615853	-1.423723	-0.742676	0.216309	0.415039	0.107366	-0.006621	-0.050220	0.234805	-0.686532	-0.341419	-0.597472	154.042941	-78.725474	74.295383
14504		10.744176	-1.121968	-5.094703	-3.773228	-1.039149	1.471185	0.150170	2.570865	-1.147172	-0.748291	0.219482	0.401123	0.106708	-0.011794	-0.052331	0.236226	-0.676654	-0.342765	-0.607330	147.323971	-79.686726	81.220374
14505		10.623861	-1.236063	-4.906607	-4.000666	-1.011639	1.206916	0.451922	2.572421	-0.998278	-0.767090	0.201904	0.379395	0.105533	-0.012776	-0.050455	0.239089	-0.666531	-0.344465	-0.616374	139.913165	-80.532908	89.005457
14506		10.620189	-0.766898	-4.904418	-3.885093	-1.496826	1.145736	0.753388	2.584899	-0.938928	-0.776855	0.207031	0.361084	0.105519	-0.007977	-0.050441	0.243101	-0.655985	-0.346802	-0.624752	131.491825	-81.215794	97.969430
14507		10.951587	0.255963	-4.095973	-2.818849	-1.683856	1.411862	0.893828	2.612963	-0.910950	-0.790039	0.197754	0.334961	0.108979	0.002250	-0.042375	0.247671	-0.645087	-0.349391	-0.632810	121.925080	-81.690742	108.161026
14508		11.360960	1.457136	-2.717628	-1.266029	-1.523606	1.791116	0.741534	2.638143	-0.828890	-0.797119	0.192627	0.310791	0.113298	0.014206	-0.028619	0.251990	-0.634313	-0.351120	-0.640986	111.459054	-81.942856	119.161443
14509		10.915236	2.554313	-1.643300	0.063190	-1.613290	1.401335	0.372775	2.533377	-0.652021	-0.806396	0.192627	0.290039	0.109016	0.025220	-0.017767	0.255488	-0.624524	-0.351181	-0.649129	101.049769	-81.987352	129.889219
14510		9.785110	2.687991	-0.992160	0.477922	-1.469142	0.265343	-0.193216	2.277679	-0.511135	-0.806641	0.192139	0.279053	0.097798	0.026620	-0.011061	0.257173	-0.616443	-0.349230	-0.657190	91.584509	-81.835886	139.335659
14511		9.162698	2.215222	-0.969397	0.023955	-1.346860	-0.432711	-0.737796	1.954204	-0.464858	-0.803467	0.188232	0.270264	0.091577	0.021901	-0.010670	0.256748	-0.610123	-0.345726	-0.665059	83.597450	-81.519088	146.980409
14512		9.138404	1.837504	-1.161264	-0.536466	-1.368878	-0.535234	-1.054250	1.642945	-0.431545	-0.822754	0.176025	0.250488	0.091323	0.018114	-0.012459	0.254903	-0.605236	-0.341433	-0.672412	77.197377	-81.114885	152.843753
14513		9.303203	1.537203	-1.129374	-0.904339	-1.232473	-0.439898	-1.212267	1.407980	-0.369709	-0.817383	0.164063	0.241211	0.092977	0.015129	-0.012041	0.252362	-0.601389	-0.336687	-0.679181	72.009767	-80.693694	157.394089
14514		9.565144	1.249059	-1.011365	-1.205706	-1.018118	-0.242780	-1.361459	1.191668	-0.290774	-0.824219	0.164551	0.241699	0.095607	0.012280	-0.010767	0.249254	-0.598546	-0.331442	-0.685392	67.757530	-80.299829	160.914832
14515		9.799633	0.768162	-0.755398	-1.531989	-0.563751	-0.090151	-1.424935	0.965123	-0.157041	-0.828857	0.160400	0.223145	0.097964	0.007548	-0.008081	0.246020	-0.596732	-0.325834	-0.690809	64.259006	-79.990621	163.637255
14516		9.508607	-0.074526	-0.514054	-2.002853	0.111019	-0.503587	-1.406196	0.659740	0.044566	-0.822998	0.146729	0.226563	0.095069	-0.000762	-0.005449	0.243024	-0.596238	-0.320045	-0.694990	61.512856	-79.839000	165.608484
14517		8.769866	-1.364771	-0.723665	-2.965691	0.772131	-1.451747	-1.474410	0.276295	0.230926	-0.825439	0.145264	0.222656	0.087704	-0.013600	-0.007257	0.239844	-0.597423	-0.313908	-0.697870	59.550226	-79.874507	166.744277
14518		7.944402	-2.931910	-1.711344	-4.593230	1.112098	-2.580564	-1.329481	-0.094176	0.348900	-0.830322	0.152344	0.231934	0.079503	-0.029293	-0.016881	0.236915	-0.599881	-0.308354	-0.699237	58.485736	-80.071899	167.052027
14519		7.491284	-3.866223	-2.987588	-6.020620	0.864020	-3.255400	-0.575121	-0.385687	0.367250	-0.825439	0.152100	0.237793	0.075041	-0.038610	-0.029620	0.235856	-0.602474	-0.305716	-0.698524	58.630457	-80.364986	166.570981
14520		7.479086	-3.429308	-3.383784	-5.950276	0.287501	-3.205253	0.473847	-0.584062	0.299992	-0.824463	0.157715	0.234131	0.074941	-0.034101	-0.033700	0.237415	-0.604411	-0.307175	-0.695676	60.121224	-80.681767	165.335091
14521		7.862280	-2.177905	-3.046931	-4.850770	-0.340181	-2.587976	1.158484	-0.697451	0.222132	-0.825928	0.157471	0.239746	0.078753	-0.021516	-0.030320	0.240590	-0.605790	-0.311374	-0.691506	62.598196	-80.983189	163.498624
14522		8.338102	-1.134921	-2.785340	-3.941695	-0.856425	-1.919702	1.394046	-0.769413	0.154746	-0.819336	0.169189	0.247803	0.083496	-0.011092	-0.027610	0.244121	-0.606999	-0.316661	-0.686792	65.707839	-81.253534	161.159900
14523		8.580693	-0.410395	-2.817238	-3.402886	-1.351652	-1.546716	1.438381	-0.874842	0.144786	-0.820313	0.170166	0.249023	0.085932	-0.003841	-0.027825	0.247568	-0.608456	-0.322238	-0.681656	69.399214	-81.519524	158.260165
14524		8.540263	0.105196	-2.871906	-2.969522	-1.716018	-1.480145	1.426530	-1.006116	0.171365	-0.805176	0.173096	0.260010	0.085545	0.001328	-0.028280	0.250840	-0.610376	-0.327832	-0.676053	73.753954	-81.793026	154.685190
14525		8.403658	0.602699	-2.790847	-2.430169	-1.954425	-1.503246	1.353097	-1.135708	0.215281	-0.801514	0.181152	0.262451	0.084186	0.006304	-0.027389	0.253805	-0.612847	-0.333180	-0.670069	78.797980	-82.064892	150.373976
14526		8.233858	0.869476	-2.748679	-2.073469	-2.057664	-1.592411	1.165612	-1.279694	0.281407	-0.808594	0.184082	0.272949	0.082499	0.008969	-0.026908	0.256157	-0.616104	-0.337855	-0.663817	84.610540	-82.328123	145.181523
14527		8.148529	0.711933	-2.969023	-2.209330	-2.073094	-1.655488	0.914750	-1.445591	0.379758	-0.799561	0.179932	0.281250	0.081683	0.007408	-0.029067	0.257762	-0.620349	-0.341581	-0.657304	91.338412	-82.572269	138.923834
14528		8.146038	0.222427	-3.325630	-2.685978	-1.972640	-1.666560	0.691073	-1.616153	0.507258	-0.798096	0.194336	0.301758	0.081719	0.002545	-0.032588	0.258781	-0.625614	-0.344368	-0.650423	99.133552	-82.774733	131.464235
14529		8.126847	-0.417978	-3.712289	-3.287501	-1.800877	-1.691841	0.558536	-1.764329	0.625521	-0.792236	0.190430	0.311768	0.081604	-0.003823	-0.036415	0.259491	-0.631676	-0.346516	-0.643099	107.947223	-82.883495	122.904072
14530		8.026994	-1.051873	-4.313329	-4.005533	-1.808357	-1.761200	0.527885	-1.881216	0.736475	-0.780029	0.213379	0.320313	0.080709	-0.010110	-0.042403	0.260233	-0.638286	-0.348331	-0.635245	117.517903	-82.852723	113.564244
14531		7.936514	-1.466093	-4.905758	-4.540943	-1.951026	-1.764453	0.632884	-1.929571	0.791795	-0.774658	0.217285	0.333496	0.079891	-0.014192	-0.048334	0.261371	-0.644931	-0.350325	-0.626914	127.135603	-82.640777	104.235048
14532		7.824876	-1.400040	-5.352742	-4.602370	-2.292493	-1.725678	0.875532	-1.897848	0.792532	-0.764893	0.226807	0.347412	0.078806	-0.013457	-0.052841	0.263319	-0.651089	-0.352994	-0.618176	136.053434	-82.253892	95.745903
14533		7.709752	-0.606680	-4.816303	-3.478024	-2.320500	-1.718215	0.987534	-1.861835	0.766979	-0.763672	0.229736	0.363770	0.077563	-0.005534	-0.047471	0.265581	-0.656855	-0.356001	-0.609321	143.878131	-81.715527	88.415892
14534		10.789152	0.212710	1.072461	0.945363	2.296604	0.743385	0.588627	-1.365745	0.829679	-0.752441	0.235596	0.367676	0.107805	0.002541	0.011468	0.267582	-0.661692	-0.356892	-0.602654	149.752077	-81.316806	82.818488
14535		23.413502	2.153916	4.953459	5.185549	6.015876	12.865167	1.588258	0.556124	0.935605	-0.751465	0.255615	0.359619	0.234169	0.022244	0.049058	0.276616	-0.659529	-0.357844	-0.600377	152.791991	-81.851100	80.665619
14536		20.024951	16.007452	4.398206	15.961164	-3.042464	10.498914	2.771085	1.171660	0.037448	-0.756836	0.259766	0.345459	0.200481	0.159493	0.045021	0.287913	-0.652176	-0.364400	-0.599154	152.263413	-82.453410	82.802219
14537		14.442806	10.698253	7.796210	13.392695	1.987925	4.347124	-1.912955	0.949497	-0.696106	-0.764893	0.260254	0.337891	0.145166	0.107213	0.076249	0.281282	-0.650775	-0.359571	-0.606697	146.384815	-82.715122	87.625230
14538		11.530566	-2.101456	-2.280610	-2.968938	0.894683	1.717954	-2.561075	-0.171987	0.264049	-0.761719	0.252197	0.351318	0.115353	-0.021151	-0.022437	0.273397	-0.655320	-0.351179	-0.610314	146.320350	-82.713521	86.211248
14539		6.600502	-3.797106	-2.708484	-4.583821	1.020244	-3.234859	-0.993109	-0.360271	0.530455	-0.754883	0.248047	0.359863	0.066154	-0.037929	-0.026777	0.271104	-0.658696	-0.346919	-0.610139	148.608408	-82.699968	83.331073
14540		5.731851	-1.194629	-2.532596	-2.396627	-0.538067	-3.925266	1.045076	-0.159506	0.429082	-0.760010	0.257324	0.350830	0.057364	-0.011691	-0.025342	0.275554	-0.658502	-0.348927	-0.607202	151.221333	-82.740832	81.300896
14541		6.001265	3.024201	-1.786395	1.459907	-2.476310	-3.481144	1.583004	0.003347	0.121323	-0.757324	0.263184	0.345215	0.059994	0.030419	-0.017625	0.281112	-0.656501	-0.353340	-0.604262	152.589117	-82.772412	80.836590
14542		7.802125	5.953284	-1.420460	4.073584	-3.677592	-1.553547	-0.338481	-0.074191	-0.529042	-0.753662	0.254150	0.352783	0.078184	0.059302	-0.014276	0.278251	-0.656265	-0.354180	-0.605350	150.468188	-82.587206	82.779765
14543		12.052377	5.205362	-2.203532	2.995311	-3.296067	2.732193	-2.506455	-0.539224	-0.322867	-0.752686	0.247314	0.371338	0.120667	0.051580	-0.022359	0.268051	-0.660757	-0.348396	-0.608415	148.988848	-82.224219	82.823578
14544		13.408964	0.144523	-4.368781	-2.338743	-1.627388	3.999914	-3.185632	-0.879416	0.687030	-0.751221	0.237305	0.371582	0.134276	0.001216	-0.043118	0.258027	-0.668806	-0.337590	-0.610045	151.421214	-81.978931	78.525658
14545		10.965640	-5.103199	-6.809214	-7.909610	-0.338684	1.587897	-1.805242	-0.610507	1.450374	-0.743896	0.240967	0.385742	0.110232	-0.050844	-0.067297	0.255345	-0.675397	-0.328019	-0.609132	156.783861	-82.024512	72.066145
14546		9.709844	-6.813968	-6.388529	-8.863570	0.959426	0.288777	0.042983	-0.161561	1.080799	-0.736328	0.248535	0.380859	0.097516	-0.067600	-0.063821	0.258493	-0.677600	-0.324726	-0.607118	161.196638	-82.156913	67.636312
14547		9.795618	-4.713446	-4.885941	-6.218594	0.624878	0.335222	1.295864	0.037983	0.611075	-0.750000	0.257568	0.379395	0.098090	-0.046517	-0.049181	0.264774	-0.676784	-0.326555	-0.604334	164.321659	-82.279051	65.231820
14548		8.405851	-1.741494	-3.679625	-3.220038	-0.660271	-1.070514	1.507516	0.303891	0.096261	-0.741943	0.270020	0.376465	0.084011	-0.017096	-0.037054	0.270636	-0.674013	-0.330396	-0.602746	165.227485	-82.458362	65.189733
14549		7.539734	-0.065527	-3.878979	-2.102049	-2.044871	-1.856684	1.249892	0.606223	-0.416419	-0.742188	0.273682	0.368652	0.075278	-0.000569	-0.039022	0.274568	-0.669788	-0.334759	-0.603268	163.436423	-82.726046	67.718211
14550		8.170964	0.838478	-3.171531	-0.956540	-2.034646	-1.299684	1.053879	0.819759	-0.540319	-0.752930	0.275146	0.359375	0.081601	0.008332	-0.032006	0.277813	-0.664952	-0.338637	-0.604965	160.496142	-83.073661	71.290069
14551		8.907612	1.803187	-1.770797	0.640734	-1.491860	-0.696978	0.441990	0.828429	-0.376856	-0.757080	0.270020	0.349609	0.089036	0.017904	-0.018037	0.279522	-0.661185	-0.340094	-0.607484	157.589851	-83.437234	74.471782
14552		9.636604	2.374697	-1.103889	1.468130	-1.277984	-0.018153	-0.176178	0.607535	-0.113159	-0.762207	0.266357	0.348145	0.096345	0.023683	-0.011352	0.279589	-0.659406	-0.339091	-0.609943	155.720831	-83.727185	76.248260
14553		9.960089	2.506321	-1.029960	1.600075	-1.308335	0.300359	-0.273781	0.276138	0.274235	-0.761719	0.272217	0.348633	0.099552	0.025185	-0.010471	0.279970	-0.659410	-0.336987	-0.610930	156.277465	-83.932928	75.530793
14554		9.901939	2.271834	-0.071851	2.027781	-0.467612	0.131347	-0.137712	0.059801	0.686446	-0.764893	0.282227	0.340576	0.098940	0.023058	-0.000764	0.281672	-0.660588	-0.334225	-0.610391	159.540482	-84.108655	72.167762
14555		8.663562	1.597359	1.253187	2.328651	0.808178	-1.262656	-0.182365	0.091948	0.874783	-0.755859	0.291992	0.347900	0.086570	0.016364	0.012477	0.283870	-0.662019	-0.330669	-0.609759	163.946510	-84.313374	67.634344
14556		7.841270	0.992663	2.000428	2.334770	1.639325	-2.175034	-0.250024	0.069706	0.710326	-0.752686	0.291260	0.349365	0.078384	0.010230	0.019964	0.285286	-0.663345	-0.327466	-0.609386	167.693307	-84.448249	63.723317
14557		8.198792	1.009439	2.222078	2.539775	1.797723	-1.844353	-0.260827	-0.067264	0.461173	-0.755127	0.297607	0.344727	0.081957	0.010312	0.022235	0.285695	-0.664675	-0.325259	-0.608927	170.263930	-84.458765	60.990649
14558		8.611360	0.980845	2.322264	2.633014	1.906930	-1.449600	-0.400267	-0.122283	0.310576	-0.751953	0.292969	0.345459	0.086084	0.009989	0.023255	0.285074	-0.666135	-0.323193	-0.608723	171.924865	-84.413765	59.089136
14559		9.104263	0.555722	1.623445	1.924179	1.663105	-0.904068	-0.639966	-0.257137	0.260255	-0.749756	0.305420	0.348877	0.091014	0.005728	0.016333	0.283298	-0.668245	-0.320765	-0.608523	173.217480	-84.284934	57.421935
14560		10.488964	0.076139	0.082929	0.700004	0.905349	0.614254	-0.835647	-0.466530	0.262326	-0.749023	0.295410	0.359863	0.104886	0.000903	0.001070	0.280519	-0.671272	-0.318016	-0.607921	174.453669	-84.032242	55.696131
14561		11.746857	-0.622717	-2.053790	-1.068152	-0.137318	2.079923	-0.935699	-0.582364	0.328249	-0.744141	0.291992	0.364502	0.117538	-0.006129	-0.020167	0.277426	-0.674866	-0.314904	-0.606981	175.898497	-83.713646	53.704001
14562		11.875035	-1.406371	-3.883462	-2.774282	-0.956419	2.412848	-0.796919	-0.512758	0.397433	-0.746338	0.303467	0.368408	0.118877	-0.013981	-0.038474	0.275097	-0.678156	-0.311864	-0.605943	177.582704	-83.430295	51.547489
14563		11.110924	-1.781383	-4.716607	-3.599998	-1.377262	1.763810	-0.345636	-0.267767	0.419998	-0.741455	0.293701	0.368652	0.111209	-0.017662	-0.046987	0.274759	-0.680095	-0.309782	-0.604990	179.458785	-83.281406	49.459540
14564		10.012242	-1.425932	-4.608171	-3.302556	-1.635566	0.672130	0.176521	-0.055258	0.374530	-0.741455	0.300537	0.378906	0.100162	-0.014031	-0.046066	0.276374	-0.680610	-0.309131	-0.604008	-178.650342	-83.245413	47.655540
14565		9.352314	-0.980226	-3.743406	-2.424545	-1.370457	-0.082171	0.464811	0.106996	0.299959	-0.729004	0.297119	0.367432	0.093518	-0.009575	-0.037507	0.279006	-0.680106	-0.309388	-0.603234	-176.933916	-83.298540	46.195564
14566		9.198291	-0.825686	-2.657981	-1.598596	-0.708273	-0.362933	0.452299	0.227872	0.267560	-0.745605	0.312744	0.365723	0.091963	-0.008074	-0.026703	0.281666	-0.679213	-0.309533	-0.602928	-175.312697	-83.415641	44.821861
14567		9.690468	-0.657094	-1.674122	-0.788819	-0.076137	0.011337	0.426002	0.274247	0.233618	-0.742188	0.305176	0.361084	0.096889	-0.006422	-0.016888	0.284222	-0.678145	-0.309659	-0.602866	-173.798165	-83.558032	43.543347
14568		10.536349	-0.333913	-0.520450	0.270985	0.617905	0.720198	0.422865	0.212442	0.231406	-0.742188	0.309814	0.359375	0.105362	-0.003206	-0.005323	0.286647	-0.677274	-0.309859	-0.602596	-172.277979	-83.660147	42.255367
14569		10.448481	-0.056763	0.652629	1.232460	1.295852	0.502430	0.305110	0.136944	0.262077	-0.752197	0.311035	0.364014	0.104490	-0.000441	0.006454	0.288662	-0.676828	-0.309716	-0.602207	-170.684465	-83.714335	40.828202
14570		9.560421	0.140760	1.481500	1.852298	1.716067	-0.472433	0.104147	0.031029	0.294073	-0.742188	0.321533	0.364014	0.095604	0.001540	0.014801	0.289912	-0.677054	-0.309000	-0.601721	-169.123012	-83.699848	39.314914
14571		8.785188	0.250101	1.996952	2.222353	1.970846	-1.303474	-0.126376	-0.122743	0.329516	-0.747070	0.316162	0.365479	0.087835	0.002658	0.020022	0.290266	-0.678114	-0.307705	-0.601020	-167.690545	-83.592009	37.800927
14572		8.563914	0.113570	2.071966	2.184735	2.092468	-1.536523	-0.366041	-0.324314	0.372199	-0.738770	0.332764	0.372314	0.085603	0.001333	0.020856	0.289607	-0.680203	-0.305822	-0.599937	-166.476329	-83.361031	36.365301
14573		8.837733	-0.124414	1.587715	1.772798	1.897098	-1.216193	-0.557297	-0.499993	0.387551	-0.736084	0.325928	0.369385	0.088339	-0.001028	0.016101	0.288088	-0.683097	-0.303577	-0.598519	-165.596618	-83.028560	35.157967
14574		9.303120	-0.502945	0.826760	1.106366	1.612035	-0.666026	-0.635042	-0.594283	0.367310	-0.748779	0.325928	0.382568	0.093015	-0.004832	0.008560	0.286080	-0.686352	-0.301286	-0.596914	-165.054785	-82.643918	34.243116
14575		9.774310	-0.924145	0.060704	0.409407	1.369215	-0.099189	-0.613912	-0.612924	0.322883	-0.731934	0.328125	0.388916	0.097755	-0.009081	0.000935	0.283992	-0.689538	-0.299242	-0.595264	-164.773302	-82.255890	33.604538
14576		10.312390	-1.265478	-0.474695	-0.068933	1.266615	0.510231	-0.548241	-0.606543	0.273727	-0.737061	0.323975	0.385742	0.103155	-0.012526	-0.004400	0.281973	-0.692537	-0.297537	-0.593595	-164.683852	-81.877481	33.194883
14577		10.684362	-1.733997	-1.160638	-0.759276	1.134430	0.987567	-0.470824	-0.593521	0.249616	-0.730225	0.324219	0.394531	0.106899	-0.017233	-0.011249	0.280180	-0.695329	-0.296132	-0.591881	-164.647395	-81.510920	32.885605
14578		10.667991	-2.191671	-1.935501	-1.550000	0.903552	1.102271	-0.256705	-0.540714	0.222940	-0.725830	0.326660	0.394775	0.106756	-0.021822	-0.019038	0.279114	-0.697626	-0.295366	-0.590061	-164.548693	-81.176513	32.635114
14579		10.299751	-2.283879	-2.310238	-1.859929	0.686330	0.803694	0.135873	-0.468010	0.188098	-0.726074	0.328613	0.400879	0.103073	-0.022726	-0.022877	0.279432	-0.699093	-0.295786	-0.587960	-164.290274	-80.888501	32.452498
14580		9.632049	-2.185493	-2.205918	-1.762538	0.654346	0.131354	0.495512	-0.432840	0.164640	-0.727783	0.330811	0.395020	0.096386	-0.021721	-0.021905	0.280976	-0.699924	-0.297283	-0.585476	-163.887494	-80.622344	32.330280
14581		9.026126	-2.070488	-1.894781	-1.518367	0.759247	-0.513974	0.694086	-0.409142	0.151886	-0.728027	0.333984	0.403809	0.090316	-0.020571	-0.018835	0.283221	-0.700366	-0.299378	-0.582791	-163.405008	-80.372181	32.244484
14582		9.107049	-1.496711	-1.699788	-0.914774	0.533997	-0.488220	0.878059	-0.398085	0.123944	-0.725586	0.344482	0.406006	0.091113	-0.014836	-0.016882	0.286028	-0.700471	-0.302075	-0.579895	-162.910361	-80.131521	32.251310
14583		9.645217	-0.647009	-1.361534	0.059295	0.287563	-0.054806	0.974300	-0.414865	0.118311	-0.722656	0.341797	0.401855	0.096484	-0.006347	-0.013446	0.289134	-0.700450	-0.305098	-0.576790	-162.405815	-79.883756	32.306012
14584		9.620195	0.069910	-0.976578	0.885669	0.127985	-0.184303	0.838586	-0.421897	0.124052	-0.727783	0.343018	0.398438	0.096222	0.000799	-0.009560	0.291752	-0.700647	-0.307700	-0.573842	-161.978428	-79.630129	32.358060
14585		9.231254	0.300633	-0.811500	1.146858	0.089246	-0.612603	0.540004	-0.437370	0.135155	-0.723633	0.348389	0.402832	0.092328	0.003090	-0.007905	0.293339	-0.701317	-0.309435	-0.571276	-161.711220	-79.367263	32.401158
14586		8.966696	0.389026	-0.917686	1.148841	-0.049705	-0.864358	0.236833	-0.521452	0.156356	-0.724854	0.353271	0.410889	0.089687	0.003971	-0.008938	0.293779	-0.702709	-0.310339	-0.568844	-161.639764	-79.053803	32.464750
14587		9.104017	0.226928	-1.211216	0.909884	-0.126836	-0.671714	-0.037235	-0.619868	0.176149	-0.715820	0.365967	0.416992	0.091075	0.002347	-0.011830	0.293167	-0.704796	-0.310547	-0.566459	-161.757785	-78.684306	32.563478
14588		9.408675	-0.286373	-1.843510	0.224698	-0.214421	-0.225880	-0.254609	-0.656949	0.191321	-0.713135	0.365234	0.423340	0.094149	-0.002797	-0.018122	0.291760	-0.707333	-0.310124	-0.564251	-161.983746	-78.290823	32.643367
14589		9.757630	-0.810486	-2.640617	-0.558255	-0.405380	0.304856	-0.314181	-0.674884	0.188521	-0.711914	0.356689	0.416016	0.097672	-0.008054	-0.026064	0.290114	-0.709982	-0.309577	-0.562069	-162.254979	-77.889021	32.736782
14590		9.860290	-1.532716	-3.339771	-1.471925	-0.413677	0.598386	-0.256489	-0.658289	0.180245	-0.711426	0.357178	0.421143	0.098726	-0.015281	-0.033053	0.288662	-0.712488	-0.309182	-0.559859	-162.489582	-77.496611	32.824930
14591		9.830978	-2.005845	-3.937088	-2.155951	-0.520088	0.734977	-0.108452	-0.592265	0.166074	-0.701660	0.356689	0.437744	0.098442	-0.019998	-0.039069	0.287806	-0.714555	-0.309164	-0.557671	-162.615173	-77.143689	32.890157
14592		9.868695	-1.939980	-4.269884	-2.254066	-0.776005	0.850488	0.224346	-0.516860	0.120251	-0.701904	0.357422	0.438965	0.098809	-0.019293	-0.042465	0.288114	-0.715867	-0.310115	-0.555296	-162.599538	-76.838726	33.004362
14593		9.763785	-1.445607	-3.992321	-1.676188	-0.880231	0.664682	0.568608	-0.421519	0.104157	-0.709229	0.360352	0.435791	0.097729	-0.014292	-0.039758	0.289765	-0.716374	-0.311950	-0.552749	-162.354688	-76.589797	33.087717
14594		9.273650	-0.794678	-3.459973	-0.901994	-0.949902	0.030455	0.692577	-0.298710	0.089701	-0.701904	0.365967	0.439453	0.092792	-0.007786	-0.034488	0.291997	-0.716342	-0.313985	-0.550459	-161.986192	-76.409290	33.114993
14595		8.991208	-0.302129	-2.844205	-0.168431	-0.826557	-0.415297	0.616833	-0.259509	0.071411	-0.704834	0.372803	0.433105	0.089950	-0.002902	-0.028334	0.293976	-0.716263	-0.315828	-0.548450	-161.677168	-76.254639	33.160872
14596		9.033798	-0.107811	-2.343698	0.322546	-0.552876	-0.501175	0.441088	-0.278924	0.089099	-0.700928	0.372070	0.430420	0.090371	-0.000986	-0.023313	0.295331	-0.716529	-0.317140	-0.546615	-161.446520	-76.085055	33.181938
14597		9.216844	0.040648	-2.242852	0.565595	-0.532387	-0.358650	0.263547	-0.317414	0.110352	-0.703369	0.374023	0.439453	0.092204	0.000487	-0.022282	0.296055	-0.717180	-0.317957	-0.544893	-161.301464	-75.891930	33.188257
14598		9.293003	0.064643	-2.212043	0.650248	-0.495968	-0.294899	0.064689	-0.380011	0.127412	-0.700439	0.377686	0.437012	0.092971	0.000713	-0.021944	0.296002	-0.718331	-0.318251	-0.543231	-161.280325	-75.660488	33.203116
14599		9.200944	-0.376668	-2.349432	0.239228	-0.316050	-0.317331	-0.186332	-0.429114	0.153351	-0.707275	0.374512	0.440918	0.092062	-0.003718	-0.023293	0.295048	-0.720013	-0.317852	-0.541755	-161.382325	-75.398845	33.198390
14600		9.323176	-0.829534	-2.825559	-0.334723	-0.353248	-0.047622	-0.302917	-0.454142	0.171756	-0.694092	0.382324	0.448730	0.093303	-0.008258	-0.028031	0.293673	-0.721970	-0.317097	-0.540339	-161.528523	-75.119064	33.168682
14601		9.802736	-1.040113	-3.057218	-0.496201	-0.298859	0.491987	-0.219877	-0.452424	0.153799	-0.696533	0.381348	0.449463	0.098104	-0.010359	-0.030339	0.292559	-0.723755	-0.316635	-0.538823	-161.660248	-74.844675	33.174821
14602		9.958018	-1.203408	-3.019177	-0.529358	-0.115201	0.648293	-0.121216	-0.388870	0.150681	-0.702393	0.377686	0.461182	0.099648	-0.011977	-0.029991	0.291884	-0.725227	-0.316346	-0.537379	-161.698154	-74.604178	33.140776
14603		9.714025	-1.309527	-3.004962	-0.624261	-0.051122	0.420324	0.001915	-0.316208	0.129508	-0.695313	0.380859	0.448975	0.097196	-0.013032	-0.029896	0.291721	-0.726276	-0.316366	-0.536036	-161.660308	-74.408252	33.102833
14604		9.510357	-1.461095	-2.970382	-0.737267	0.055675	0.230127	0.136056	-0.282889	0.110518	-0.692871	0.383057	0.459961	0.095154	-0.014538	-0.029579	0.292037	-0.727019	-0.316756	-0.534624	-161.562315	-74.232634	33.080640
14605		9.440450	-1.298773	-2.941168	-0.581950	-0.023854	0.143218	0.267413	-0.285869	0.094699	-0.687012	0.383545	0.447754	0.094453	-0.012904	-0.029294	0.292791	-0.727540	-0.317568	-0.533019	-161.422639	-74.059491	33.094906
14606		9.631718	-0.788999	-2.712217	0.021603	-0.129312	0.223814	0.371543	-0.302174	0.073491	-0.693604	0.383789	0.452148	0.096361	-0.007804	-0.026991	0.293833	-0.727926	-0.318748	-0.531212	-161.275022	-73.880154	33.161640
14607		9.647944	-0.296857	-2.441560	0.596732	-0.212666	0.123647	0.305315	-0.330574	0.071059	-0.699951	0.380615	0.461182	0.096521	-0.002897	-0.024261	0.294588	-0.728465	-0.319809	-0.529413	-161.188446	-73.687136	33.253850
14608		9.456643	-0.326578	-2.348425	0.613565	-0.133052	-0.083578	0.091292	-0.361870	0.090110	-0.693604	0.388184	0.461914	0.094610	-0.003212	-0.023315	0.294555	-0.729441	-0.320270	-0.527808	-161.208342	-73.472416	33.327840
14609		9.391947	-0.695009	-2.587111	0.203252	-0.073835	-0.048572	-0.081803	-0.397837	0.113666	-0.692627	0.381348	0.456299	0.093975	-0.006907	-0.025681	0.293901	-0.730790	-0.320249	-0.526316	-161.304973	-73.235047	33.379969
14610		9.720513	-0.859767	-2.807928	0.059485	-0.060763	0.341358	-0.104125	-0.429880	0.131669	-0.685303	0.391846	0.467529	0.097271	-0.008548	-0.027866	0.293153	-0.732292	-0.320141	-0.524709	-161.399459	-72.975740	33.415224
14611		9.833769	-1.013463	-2.945549	-0.077293	-0.023695	0.502335	-0.076811	-0.404310	0.123038	-0.684326	0.394531	0.463867	0.098403	-0.010085	-0.029253	0.292530	-0.733659	-0.320105	-0.523166	-161.476579	-72.733100	33.450067
14612		9.687522	-1.167571	-2.996087	-0.230775	0.036885	0.391876	-0.094042	-0.362389	0.094626	-0.696289	0.391846	0.471191	0.096935	-0.011644	-0.029780	0.291829	-0.734903	-0.320058	-0.521839	-161.586708	-72.517164	33.508083
14613		9.502518	-1.386970	-2.858230	-0.340052	0.274777	0.197296	-0.115732	-0.347926	0.073964	-0.693604	0.385010	0.475098	0.095080	-0.013851	-0.028409	0.291022	-0.736095	-0.320016	-0.520634	-161.734411	-72.313997	33.593660
14614		9.491942	-1.574288	-2.819114	-0.438028	0.446108	0.193898	-0.100678	-0.356492	0.095889	-0.684082	0.386230	0.477295	0.094977	-0.015711	-0.028014	0.290306	-0.737330	-0.319936	-0.519334	-161.838570	-72.100964	33.641461
14615		9.424425	-1.384316	-2.947160	-0.353481	0.242957	0.149128	-0.010799	-0.374181	0.096322	-0.684326	0.393555	0.474365	0.094306	-0.013799	-0.029294	0.289901	-0.738469	-0.320119	-0.517827	-161.898778	-71.879422	33.698458
14616		9.375863	-1.293631	-2.823854	-0.194065	0.294840	0.057963	0.056423	-0.375296	0.086718	-0.684570	0.392578	0.482178	0.093817	-0.012888	-0.028066	0.289709	-0.739504	-0.320506	-0.516215	-161.935441	-71.657748	33.770193
14617		9.361259	-1.125410	-2.831210	-0.042663	0.203696	0.029673	0.039275	-0.359230	0.080640	-0.681885	0.394043	0.477539	0.093668	-0.011211	-0.028146	0.289470	-0.740501	-0.320853	-0.514703	-161.982198	-71.447105	33.843397
14618		9.411644	-0.832419	-2.831685	0.226276	0.051729	0.048165	0.082172	-0.380170	0.068864	-0.685059	0.402100	0.485596	0.094173	-0.008280	-0.028141	0.289319	-0.741477	-0.321377	-0.513053	-162.032616	-71.225915	33.945554
14619		9.406315	-0.540811	-2.626387	0.597752	0.047061	-0.050028	0.077428	-0.365063	0.073246	-0.681152	0.395752	0.483154	0.094113	-0.005364	-0.026094	0.289190	-0.742416	-0.321856	-0.511465	-162.069606	-71.013362	34.031727
14620		9.181709	-0.426617	-2.663098	0.632510	-0.069393	-0.264238	-0.046577	-0.372678	0.077443	-0.688477	0.403564	0.486572	0.091868	-0.004237	-0.026459	0.288594	-0.743566	-0.322007	-0.510034	-162.172763	-70.794715	34.112094
14621		9.057508	-0.738514	-2.679492	0.375831	0.117480	-0.346519	-0.170923	-0.412073	0.100041	-0.676758	0.390137	0.485840	0.090634	-0.007363	-0.026602	0.287532	-0.745021	-0.321817	-0.508628	-162.329625	-70.551733	34.174737
14622		9.063850	-1.057088	-2.889851	0.041804	0.190378	-0.242740	-0.196900	-0.451039	0.120350	-0.674561	0.385986	0.489990	0.090710	-0.010545	-0.028684	0.286358	-0.746649	-0.321535	-0.507079	-162.486039	-70.282759	34.220603
14623		9.205464	-1.240285	-3.150966	-0.175513	0.168832	-0.007181	-0.155024	-0.474685	0.123434	-0.674316	0.399170	0.500732	0.092137	-0.012370	-0.031281	0.285312	-0.748269	-0.321384	-0.505374	-162.622894	-70.001428	34.271867
14624		9.174480	-1.539192	-3.460946	-0.555787	0.152343	0.096199	-0.144132	-0.471215	0.127313	-0.677002	0.397217	0.507568	0.091836	-0.015358	-0.034382	0.284315	-0.749874	-0.321234	-0.503650	-162.743317	-69.720136	34.311524
14625		9.032382	-1.640137	-3.905336	-0.892604	-0.113162	0.122900	-0.054110	-0.445343	0.120495	-0.677246	0.396484	0.500244	0.090420	-0.016357	-0.038848	0.283683	-0.751262	-0.321302	-0.501891	-162.808950	-69.455296	34.348669
14626		8.968722	-1.320689	-4.019240	-0.695079	-0.387862	0.071784	0.154170	-0.408986	0.092483	-0.668213	0.409912	0.512695	0.089775	-0.013134	-0.040019	0.283816	-0.752223	-0.321940	-0.499964	-162.778426	-69.213931	34.409984
14627		8.914730	-0.766507	-3.955977	-0.213499	-0.682682	-0.055745	0.270387	-0.378196	0.072107	-0.672852	0.404541	0.506104	0.089225	-0.007580	-0.039401	0.284387	-0.752897	-0.322905	-0.497999	-162.697165	-68.994066	34.489024
14628		8.913310	-0.466547	-3.715985	0.186189	-0.675028	-0.169925	0.188949	-0.344384	0.072695	-0.662598	0.403809	0.509277	0.089199	-0.004598	-0.037011	0.284704	-0.753607	-0.323612	-0.496282	-162.646125	-68.791454	34.550094
14629		8.994325	-0.450170	-3.670405	0.279226	-0.616316	-0.111425	0.072504	-0.349697	0.098949	-0.664551	0.401367	0.511719	0.090009	-0.004444	-0.036548	0.284640	-0.754529	-0.323941	-0.494701	-162.627539	-68.582634	34.574931
14630		9.176220	-0.439817	-3.766770	0.319441	-0.637320	0.090679	0.055140	-0.368655	0.116615	-0.666016	0.405029	0.516602	0.091834	-0.004334	-0.037500	0.284518	-0.755556	-0.324181	-0.493043	-162.602236	-68.359228	34.581248
14631		9.172396	-0.488577	-3.762084	0.316908	-0.582274	0.091111	0.025865	-0.392790	0.126179	-0.659424	0.412354	0.511230	0.091801	-0.004823	-0.037441	0.284274	-0.756688	-0.324351	-0.491333	-162.591419	-68.122187	34.585755
14632		8.915004	-0.711110	-3.679975	0.146074	-0.412428	-0.151755	-0.060045	-0.388914	0.147855	-0.667969	0.413818	0.512451	0.089227	-0.007056	-0.036624	0.283759	-0.757972	-0.324217	-0.489737	-162.598459	-67.882372	34.556048
14633		8.854615	-0.839944	-3.795829	-0.004543	-0.407492	-0.150812	-0.072774	-0.383797	0.137399	-0.661621	0.416504	0.518555	0.088625	-0.008352	-0.037785	0.283181	-0.759234	-0.324087	-0.488200	-162.625133	-67.648327	34.540017
14634		9.089932	-0.913541	-3.672853	0.113746	-0.195463	0.031092	0.007403	-0.386608	0.130034	-0.658691	0.414551	0.526123	0.090976	-0.009075	-0.036553	0.282883	-0.760380	-0.324182	-0.486523	-162.616389	-67.412867	34.535417
14635		9.197210	-0.985933	-3.585969	0.174059	-0.039884	0.106380	0.009978	-0.377152	0.138042	-0.655518	0.416992	0.528809	0.092046	-0.009794	-0.035687	0.282629	-0.761504	-0.324239	-0.484873	-162.592499	-67.182344	34.515916
14636		8.970786	-1.153305	-3.641137	-0.024031	-0.002940	-0.062699	-0.039440	-0.386228	0.137868	-0.643799	0.415771	0.533203	0.089786	-0.011478	-0.036236	0.282168	-0.762723	-0.324186	-0.483259	-162.600797	-66.945712	34.500280
14637		8.884189	-1.263114	-3.594420	-0.077038	0.105133	-0.146923	0.000969	-0.404299	0.131245	-0.652100	0.416992	0.526855	0.088923	-0.012573	-0.035765	0.281816	-0.763907	-0.324282	-0.481525	-162.602052	-66.701510	34.502447
14638		9.114922	-1.160475	-3.627500	0.094133	0.089794	0.065075	0.116394	-0.408362	0.124005	-0.658447	0.421631	0.528564	0.091230	-0.011527	-0.036096	0.281879	-0.764930	-0.324686	-0.479589	-162.547835	-66.455158	34.515971
14639		9.168236	-0.842948	-3.497405	0.464051	0.019110	0.025153	0.158248	-0.410038	0.120070	-0.652832	0.421631	0.532471	0.091759	-0.008347	-0.034793	0.282089	-0.765881	-0.325208	-0.477589	-162.475987	-66.209746	34.536721
14640		9.060960	-0.945145	-3.340438	0.472279	0.195901	-0.122937	0.081941	-0.389744	0.131983	-0.648682	0.419189	0.538086	0.090681	-0.009378	-0.033232	0.282068	-0.766912	-0.325472	-0.475763	-162.425198	-65.972258	34.532919
14641		8.944803	-0.979952	-3.470445	0.370337	0.115847	-0.176138	0.045048	-0.408101	0.129301	-0.649902	0.422852	0.539795	0.089525	-0.009734	-0.034524	0.281868	-0.768026	-0.325683	-0.473938	-162.406706	-65.726319	34.541140
14642		9.074559	-0.986731	-3.577923	0.386466	0.094208	-0.016546	0.085756	-0.432970	0.115008	-0.650146	0.421875	0.532227	0.090828	-0.009800	-0.035587	0.281747	-0.769120	-0.326077	-0.471960	-162.391330	-65.468151	34.578307
14643		9.083486	-1.096664	-3.622852	0.317002	0.157026	0.021545	0.052496	-0.430649	0.112371	-0.637207	0.422363	0.553467	0.090919	-0.010906	-0.036036	0.281495	-0.770242	-0.326400	-0.470055	-162.397249	-65.212834	34.618118
