// General information: 
//  MT Manager version: 2019.2.0 
//  XDA version: 2019.2.0 build 3853 rev 94535 built on 2019-09-09
// Device information: 
//  DeviceId: 00B4778F
//  ProductCode: MTW2-3A7G6
//  Firmware Version: 4.6.0
//  Hardware Version: 2.0.0
// Device settings: 
//  Filter Profile: human(46.1)
//  Option Flags: Orientation Smoother Disabled, AHS Disabled, ICC Disabled
// Coordinate system: ENU
PacketCounter	SampleTimeFine	Acc_X	Acc_Y	Acc_Z	FreeAcc_E	FreeAcc_N	FreeAcc_U	Gyr_X	Gyr_Y	Gyr_Z	Mag_X	Mag_Y	Mag_Z	VelInc_X	VelInc_Y	VelInc_Z	Quat_q0	Quat_q1	Quat_q2	Quat_q3	Roll	Pitch	Yaw
29833		9.628356	0.648648	-0.469944	-0.204563	-0.374751	-0.160509	-0.024513	0.036697	-0.072944	-1.051514	-0.302002	-0.321045	0.096285	0.006451	-0.004718	0.343627	0.642494	-0.350106	0.588684	157.465522	-85.607268	-36.265480
29834		9.564416	0.615941	-0.533659	-0.207858	-0.293999	-0.220368	-0.024152	0.021987	-0.087795	-1.050049	-0.299805	-0.325195	0.095646	0.006117	-0.005348	0.344002	0.642556	-0.349850	0.588548	156.773389	-85.597146	-35.584714
29835		9.628279	0.567772	-0.513314	-0.145092	-0.282904	-0.159267	-0.023505	0.018396	-0.099149	-1.051270	-0.314209	-0.322998	0.096285	0.005629	-0.005143	0.344397	0.642654	-0.349557	0.588385	156.020636	-85.581725	-34.841826
29836		9.864054	0.562306	-0.477145	-0.099232	-0.315077	0.073378	-0.048992	0.012157	-0.091733	-1.056152	-0.308105	-0.328857	0.098643	0.005577	-0.004779	0.344853	0.642705	-0.349384	0.588164	155.324934	-85.564277	-34.172868
29837		10.190862	0.218798	-0.445610	0.238013	-0.171515	0.386040	-0.121578	0.037311	-0.075206	-1.051270	-0.304688	-0.321777	0.101909	0.002147	-0.004476	0.345526	0.642536	-0.349424	0.587931	154.626602	-85.563067	-33.540898
29838		10.251434	0.063260	-0.575342	0.311768	0.026793	0.450304	-0.077328	0.089919	-0.064873	-1.045166	-0.303223	-0.330566	0.102512	0.000597	-0.005800	0.346132	0.642260	-0.349290	0.587955	153.849501	-85.591170	-32.807196
29839		10.044111	0.342554	-0.481894	0.108823	-0.177657	0.246652	-0.007284	0.087541	-0.061835	-1.046875	-0.306396	-0.324219	0.100440	0.003394	-0.004863	0.346486	0.642117	-0.348950	0.588105	153.133470	-85.617869	-32.091832
29840		9.836982	0.571559	-0.413721	-0.064830	-0.336025	0.043627	-0.016880	0.077849	-0.044923	-1.045166	-0.302979	-0.323975	0.098369	0.005693	-0.004176	0.346819	0.641946	-0.348724	0.588230	152.547479	-85.643684	-31.515255
29841		9.659944	0.586346	-0.432229	-0.098563	-0.312072	-0.130847	-0.030267	0.080682	-0.037278	-1.045654	-0.304688	-0.319824	0.096599	0.005845	-0.004362	0.347162	0.641739	-0.348542	0.588360	151.990238	-85.672275	-30.972395
29842		9.593108	0.530921	-0.405736	-0.042143	-0.295159	-0.200959	-0.037719	0.073906	-0.038587	-1.047119	-0.307129	-0.331543	0.095931	0.005290	-0.004094	0.347522	0.641541	-0.348390	0.588454	151.436185	-85.696835	-30.437258
29843		9.633322	0.588276	-0.309146	-0.038910	-0.401151	-0.164885	-0.057381	0.064109	-0.038932	-1.045654	-0.311523	-0.331787	0.096333	0.005863	-0.003124	0.347928	0.641339	-0.348311	0.588481	150.900010	-85.715856	-29.931137
29844		9.746570	0.602979	-0.246318	-0.011389	-0.458817	-0.055165	-0.073861	0.067328	-0.045767	-1.050293	-0.312256	-0.322266	0.097466	0.006007	-0.002498	0.348427	0.641102	-0.348266	0.588471	150.288350	-85.734418	-29.361298
29845		9.818914	0.613495	-0.247318	-0.015999	-0.456713	0.017865	-0.097884	0.089524	-0.045392	-1.052490	-0.313965	-0.327393	0.098189	0.006111	-0.002520	0.349025	0.640765	-0.348241	0.588497	149.577251	-85.763365	-28.703069
29846		9.856418	0.792984	-0.217138	-0.152801	-0.564139	0.060677	-0.084746	0.122131	-0.054267	-1.042480	-0.309814	-0.326904	0.098565	0.007902	-0.002235	0.349659	0.640375	-0.348083	0.588640	148.670645	-85.805098	-27.840010
29847		9.891304	0.857140	-0.147832	-0.171203	-0.643357	0.094442	-0.104616	0.129326	-0.066895	-1.049805	-0.312012	-0.337891	0.098915	0.008538	-0.001547	0.350412	0.639946	-0.347940	0.588743	147.623349	-85.845381	-26.848622
29848		9.967899	0.865420	-0.108458	-0.154138	-0.667987	0.169785	-0.155405	0.138586	-0.072167	-1.047363	-0.305908	-0.334961	0.099681	0.008617	-0.001160	0.351364	0.639406	-0.347915	0.588777	146.447596	-85.887225	-25.758519
29849		9.981992	0.810136	-0.016506	-0.059376	-0.702430	0.177298	-0.195017	0.132180	-0.084000	-1.043457	-0.308350	-0.342773	0.099823	0.008059	-0.000239	0.352460	0.638839	-0.347977	0.588701	145.181377	-85.920383	-24.599674
29850		9.938707	0.698113	-0.030623	0.027224	-0.614418	0.131553	-0.245568	0.141331	-0.091957	-1.042480	-0.312012	-0.348877	0.099390	0.006935	-0.000385	0.353770	0.638159	-0.348158	0.588546	143.767095	-85.953465	-23.324040
29851		9.962979	0.609600	-0.014480	0.113237	-0.565778	0.152242	-0.273745	0.148692	-0.088538	-1.042236	-0.310303	-0.347900	0.099632	0.006052	-0.000227	0.355158	0.637409	-0.348406	0.588375	142.304706	-85.988568	-22.013855
29852		10.030155	0.604886	0.079825	0.168351	-0.627423	0.214986	-0.286954	0.159777	-0.087336	-1.039307	-0.308105	-0.349365	0.100305	0.006006	0.000709	0.356624	0.636586	-0.348694	0.588209	140.754517	-86.026926	-20.626887
29853		10.067512	0.499732	0.199763	0.319376	-0.659131	0.242557	-0.340128	0.180197	-0.077124	-1.036133	-0.305664	-0.349121	0.100679	0.004962	0.001898	0.358243	0.635602	-0.349116	0.588040	139.106123	-86.075016	-19.168508
29854		10.126015	0.466006	0.277925	0.386538	-0.689512	0.296996	-0.355737	0.212506	-0.067487	-1.038330	-0.307861	-0.355713	0.101265	0.004631	0.002663	0.359952	0.634466	-0.349566	0.587955	137.280587	-86.137789	-17.544121
29855		10.009823	0.520708	0.342922	0.356477	-0.746395	0.182363	-0.343530	0.253098	-0.059836	-1.041260	-0.302246	-0.350830	0.100104	0.005183	0.003294	0.361655	0.633225	-0.349919	0.588038	135.213733	-86.216356	-15.668521
29856		9.831806	0.571586	0.295021	0.267233	-0.700080	0.011597	-0.376415	0.281960	-0.040970	-1.045166	-0.306396	-0.369141	0.098323	0.005701	0.002801	0.363465	0.631797	-0.350382	0.588182	132.968920	-86.309684	-13.635331
29857		9.669184	0.492547	0.118748	0.227937	-0.478669	-0.144767	-0.442247	0.275268	-0.024234	-1.042480	-0.306152	-0.365723	0.096694	0.004916	0.001044	0.365410	0.630243	-0.351093	0.588220	130.729712	-86.402104	-11.644086
29858		9.715783	0.508645	0.055035	0.174701	-0.406414	-0.093508	-0.461909	0.246360	-0.026732	-1.037109	-0.301758	-0.369385	0.097159	0.005075	0.000419	0.367390	0.628726	-0.351921	0.588115	128.559015	-86.478201	-9.736272
29859		9.850827	0.636193	0.158156	0.110861	-0.535725	0.044757	-0.499944	0.232189	-0.032956	-1.032471	-0.300049	-0.376709	0.098511	0.006349	0.001451	0.369462	0.627199	-0.352849	0.587892	126.360355	-86.541679	-7.819103
29860		9.884163	0.681517	0.064641	0.018673	-0.451442	0.084844	-0.556247	0.226413	-0.029657	-1.026123	-0.294189	-0.385742	0.098843	0.006802	0.000516	0.371701	0.625564	-0.353972	0.587547	124.110306	-86.600478	-5.885357
29861		10.025827	0.615216	-0.043693	0.024463	-0.301508	0.227534	-0.586596	0.223528	-0.020031	-1.041504	-0.300781	-0.384033	0.100258	0.006141	-0.000567	0.373985	0.623869	-0.355205	0.587157	121.855111	-86.658163	-3.961528
29862		10.254403	0.693588	-0.133549	-0.083533	-0.235569	0.462971	-0.602685	0.218166	-0.008485	-1.032227	-0.295898	-0.389648	0.102543	0.006927	-0.001468	0.376290	0.622119	-0.356542	0.586729	119.612883	-86.715758	-2.063336
29863		10.450847	0.513348	-0.126671	0.078158	-0.133753	0.650376	-0.646301	0.252571	0.017374	-1.025879	-0.284912	-0.395264	0.104506	0.005138	-0.001415	0.378693	0.620146	-0.358004	0.586381	117.095652	-86.790895	0.088446
29864		10.413107	0.092724	-0.354383	0.331089	0.288579	0.597595	-0.649330	0.313735	0.026754	-1.022949	-0.282227	-0.403320	0.104125	0.000929	-0.003710	0.381199	0.617953	-0.359396	0.586222	113.914251	-86.880081	2.900800
29865		10.207987	-0.163275	-0.442699	0.493051	0.511970	0.381445	-0.590779	0.342847	0.029910	-1.026611	-0.290283	-0.407715	0.102072	-0.001631	-0.004597	0.383546	0.615784	-0.360554	0.586262	110.329495	-86.967700	6.153148
29866		10.060577	-0.335623	-0.540539	0.581712	0.703668	0.226557	-0.534197	0.308495	0.030038	-1.022949	-0.281250	-0.409424	0.100598	-0.003356	-0.005552	0.385667	0.613806	-0.361619	0.586288	106.938884	-87.038453	9.240939
29867		10.052815	-0.440091	-0.554109	0.657167	0.785343	0.212836	-0.481150	0.258768	0.033846	-1.021484	-0.279297	-0.408691	0.100522	-0.004397	-0.005661	0.387507	0.612076	-0.362623	0.586265	104.001672	-87.094573	11.907365
29868		10.013362	-0.635582	-0.802522	0.711329	1.114110	0.165697	-0.436584	0.255039	0.052660	-1.014893	-0.271973	-0.419189	0.100125	-0.006347	-0.008139	0.389150	0.610400	-0.363559	0.586344	101.061128	-87.153744	14.602051
29869		9.881677	-0.758278	-0.867311	0.775901	1.243156	0.027396	-0.368301	0.254599	0.060150	-1.020996	-0.270264	-0.423584	0.098808	-0.007569	-0.008785	0.390555	0.608846	-0.364316	0.586556	98.075590	-87.210003	17.381329
29870		9.837367	-0.787854	-0.831578	0.803774	1.239093	-0.019598	-0.295892	0.202752	0.082391	-1.022949	-0.275879	-0.424072	0.098368	-0.007850	-0.008404	0.391586	0.607535	-0.365032	0.586782	95.654188	-87.268969	19.636078
29871		10.040211	-0.826510	-0.771583	0.861078	1.213051	0.180877	-0.236621	0.106999	0.117269	-1.018799	-0.270996	-0.425781	0.100403	-0.008215	-0.007760	0.392151	0.606563	-0.365862	0.586893	94.382584	-87.339402	20.774769
29872		10.397996	-0.801676	-0.603656	0.910480	1.060598	0.539681	-0.206165	0.132020	0.149818	-1.023438	-0.271484	-0.422852	0.103982	-0.007945	-0.006097	0.392575	0.605514	-0.366652	0.587201	92.759100	-87.427989	22.283020
29873		10.315751	-0.964737	-0.685934	0.998519	1.212891	0.451216	-0.169304	0.258539	0.169126	-1.021484	-0.259766	-0.428955	0.103157	-0.009566	-0.006985	0.393060	0.604131	-0.367143	0.587993	89.382977	-87.525934	25.566720
29874		9.835795	-1.243012	-0.899466	1.115933	1.532892	-0.040184	-0.084158	0.316381	0.169899	-1.017822	-0.264648	-0.430176	0.098354	-0.012350	-0.009145	0.393391	0.602740	-0.367270	0.589119	84.994543	-87.612812	29.912291
29875		9.459533	-1.224008	-0.818280	1.094344	1.460923	-0.414890	-0.025584	0.248795	0.162550	-1.021484	-0.259766	-0.444580	0.094595	-0.012164	-0.008299	0.393441	0.601677	-0.367335	0.590130	81.309959	-87.686834	33.586706
29876		9.322624	-1.160344	-0.608971	1.098875	1.252705	-0.547066	0.004886	0.170194	0.153529	-1.022949	-0.254883	-0.438477	0.093230	-0.011532	-0.006169	0.393283	0.600919	-0.367439	0.590943	78.558094	-87.755163	36.344732
29877		9.338534	-1.046925	-0.527637	1.012165	1.139451	-0.525072	0.044085	0.150870	0.142092	-1.020508	-0.252197	-0.437256	0.093389	-0.010402	-0.005349	0.393003	0.600318	-0.367429	0.591746	75.996293	-87.814276	38.935128
29878		9.212399	-0.892609	-0.621945	0.810475	1.165936	-0.645597	0.103387	0.181571	0.130270	-1.019287	-0.257813	-0.439941	0.092124	-0.008863	-0.006308	0.392637	0.599761	-0.367148	0.592727	72.924967	-87.857397	42.069145
29879		9.097947	-0.653419	-0.499927	0.624885	0.961919	-0.749922	0.148017	0.168914	0.107227	-1.016113	-0.250244	-0.452148	0.090979	-0.006482	-0.005081	0.392180	0.599373	-0.366689	0.593705	70.078563	-87.883905	45.003782
29880		9.011912	-0.526246	-0.322028	0.568196	0.753148	-0.829085	0.144739	0.123571	0.100705	-1.010498	-0.251709	-0.447021	0.090120	-0.005215	-0.003280	0.391670	0.599122	-0.366310	0.594528	67.851155	-87.911586	47.316911
29881		9.026095	-0.485839	-0.264522	0.544515	0.690439	-0.812511	0.163630	0.100452	0.077338	-1.017578	-0.262207	-0.443359	0.090261	-0.004821	-0.002695	0.391130	0.599022	-0.365849	0.595269	66.074151	-87.928967	49.190303
29882		8.924063	-0.432701	-0.234146	0.497821	0.643838	-0.912204	0.202390	0.101034	0.042945	-1.014404	-0.256348	-0.452881	0.089240	-0.004305	-0.002391	0.390575	0.599055	-0.365167	0.596017	64.510013	-87.926514	50.872974
29883		8.863463	-0.384439	-0.209461	0.457375	0.605709	-0.970936	0.209031	0.077292	0.012708	-1.010498	-0.260742	-0.441895	0.088634	-0.003837	-0.002133	0.390047	0.599229	-0.364421	0.596644	63.512539	-87.912897	51.992352
29884		8.815183	-0.401103	-0.221896	0.463481	0.628392	-1.020197	0.217517	0.049394	-0.023234	-0.998291	-0.260254	-0.446533	0.088151	-0.004019	-0.002245	0.389549	0.599566	-0.363597	0.597134	63.167504	-87.887805	52.463769
29885		8.830239	-0.387449	-0.234106	0.447436	0.638509	-1.005295	0.229114	0.018404	-0.052126	-1.019287	-0.263428	-0.441406	0.088301	-0.003895	-0.002354	0.389047	0.600071	-0.362710	0.597493	63.471381	-87.855657	52.292448
29886		8.983468	-0.345500	-0.215721	0.425899	0.611471	-0.850918	0.234007	-0.013161	-0.081806	-1.019287	-0.264160	-0.442871	0.089833	-0.003489	-0.002155	0.388559	0.600731	-0.361782	0.597710	64.385749	-87.816395	51.513079
29887		9.182646	-0.362987	-0.199559	0.461636	0.612186	-0.652737	0.240316	-0.044707	-0.102419	-1.015625	-0.266357	-0.439941	0.091825	-0.003675	-0.001979	0.388058	0.601536	-0.360833	0.597800	65.830713	-87.773142	50.206239
29888		9.380891	-0.425865	-0.107433	0.574380	0.563856	-0.456076	0.261362	-0.055644	-0.121347	-1.007324	-0.266113	-0.445557	0.093807	-0.004314	-0.001054	0.387528	0.602445	-0.359785	0.597860	67.478449	-87.721423	48.708536
29889		9.659412	-0.455089	0.004449	0.670308	0.486436	-0.178093	0.294093	-0.051624	-0.137558	-1.011963	-0.266602	-0.443115	0.096591	-0.004617	0.000063	0.386956	0.603435	-0.358581	0.597955	69.109206	-87.658201	47.246496
29890		9.813940	-0.632151	0.162819	0.916942	0.431177	-0.029394	0.293045	-0.034168	-0.133156	-1.011963	-0.274658	-0.441895	0.098135	-0.006389	0.001636	0.386402	0.604359	-0.357361	0.598110	70.405506	-87.592793	46.118441
29891		9.938778	-0.790583	0.417365	1.188835	0.282629	0.091114	0.309642	-0.034011	-0.119820	-1.012207	-0.285400	-0.444336	0.099382	-0.007972	0.004178	0.385760	0.605292	-0.356128	0.598318	71.595411	-87.533186	45.106434
29892		10.118449	-0.780521	0.757518	1.350548	-0.016662	0.274026	0.322886	-0.056795	-0.091166	-1.011963	-0.290527	-0.433838	0.101179	-0.007864	0.007591	0.384947	0.606264	-0.354986	0.598536	72.906513	-87.492689	43.980766
29893		10.293234	-0.742403	0.856094	1.377864	-0.113782	0.450025	0.335603	-0.038493	-0.070981	-1.009277	-0.284180	-0.437012	0.102928	-0.007475	0.008568	0.384069	0.607169	-0.353830	0.598866	73.893331	-87.458884	43.186865
29894		10.355702	-0.552338	1.137908	1.347236	-0.444574	0.523065	0.352375	0.008379	-0.038704	-1.008545	-0.295898	-0.430664	0.103556	-0.005563	0.011365	0.383122	0.607906	-0.352632	0.599432	74.172254	-87.435564	43.111371
29895		10.249855	-0.352922	1.169940	1.186667	-0.561036	0.425960	0.365708	0.031797	-0.023601	-1.014160	-0.289795	-0.432129	0.102500	-0.003563	0.011677	0.382133	0.608571	-0.351392	0.600117	74.124330	-87.416419	43.370493
29896		10.067721	-0.056040	0.978861	0.833345	-0.528126	0.254434	0.395396	0.025818	-0.016030	-1.019287	-0.302246	-0.425049	0.100678	-0.000588	0.009774	0.381015	0.609293	-0.350097	0.600851	74.133735	-87.402886	43.589494
29897		9.870303	0.183134	0.881701	0.573578	-0.554465	0.066452	0.374723	0.040593	-0.013225	-1.011230	-0.293213	-0.432129	0.098705	0.001808	0.008800	0.379979	0.609926	-0.348843	0.601593	73.952341	-87.388050	43.987400
29898		9.708079	0.377898	0.929506	0.423060	-0.689658	-0.086487	0.362997	0.003637	-0.023352	-1.014648	-0.302002	-0.435791	0.097081	0.003751	0.009300	0.378940	0.610662	-0.347663	0.602185	74.237320	-87.373969	43.911966
29899		9.583315	0.417190	0.763958	0.313676	-0.566596	-0.211741	0.353129	-0.048434	-0.040384	-1.007568	-0.302490	-0.425049	0.095832	0.004139	0.007670	0.377895	0.611565	-0.346557	0.602563	75.202915	-87.357779	43.149294
29900		9.509886	0.427524	0.586285	0.227684	-0.420298	-0.287146	0.378446	-0.064943	-0.059983	-1.004150	-0.310791	-0.425781	0.095098	0.004236	0.005902	0.376799	0.612595	-0.345346	0.602899	76.417497	-87.332851	42.152032
29901		9.395272	0.393091	0.666552	0.303817	-0.480074	-0.402738	0.367778	-0.052203	-0.076012	-1.012939	-0.312256	-0.428467	0.093952	0.003883	0.006697	0.375806	0.613594	-0.344091	0.603219	77.505819	-87.295902	41.274869
29902		9.315001	0.119910	0.668718	0.553317	-0.352819	-0.496027	0.385928	-0.040523	-0.095998	-1.014648	-0.320557	-0.430176	0.093149	0.001141	0.006708	0.374834	0.614622	-0.342698	0.603570	78.479274	-87.246092	40.523405
29903		9.283479	-0.132166	0.691253	0.797136	-0.248387	-0.540086	0.435979	-0.040039	-0.129821	-1.008545	-0.317139	-0.417480	0.092833	-0.001397	0.006928	0.373813	0.615800	-0.341046	0.603939	79.526899	-87.176109	39.726035
29904		9.340072	-0.364668	0.695961	1.019591	-0.131524	-0.496175	0.456826	-0.032741	-0.148733	-1.015869	-0.320068	-0.413330	0.093397	-0.003732	0.006966	0.372791	0.617021	-0.339259	0.604331	80.486486	-87.094560	39.029025
29905		9.451194	-0.587159	0.648264	1.210295	0.030802	-0.398641	0.499119	-0.036977	-0.164897	-1.007080	-0.318604	-0.408447	0.094506	-0.005966	0.006485	0.371682	0.618360	-0.337299	0.604743	81.506160	-87.003145	38.295755
29906		9.567757	-0.611090	0.580113	1.219531	0.114167	-0.286324	0.571960	-0.052891	-0.175015	-1.015381	-0.335449	-0.417969	0.095671	-0.006211	0.005809	0.370344	0.619891	-0.335115	0.605210	82.688409	-86.907158	37.441680
29907		9.753707	-0.414186	0.521644	1.047108	0.079196	-0.092825	0.594855	-0.074377	-0.168349	-1.009521	-0.343750	-0.416504	0.097532	-0.004240	0.005240	0.368879	0.621515	-0.332919	0.605650	84.041842	-86.814771	36.428956
29908		9.943239	-0.062508	0.515312	0.770317	-0.083734	0.113894	0.636393	-0.103261	-0.160052	-1.010254	-0.338135	-0.412842	0.099429	-0.000721	0.005202	0.367205	0.623280	-0.330672	0.606084	85.623886	-86.727800	35.211306
29909		10.037458	0.285372	0.420079	0.449816	-0.178808	0.225943	0.644637	-0.136857	-0.135933	-1.004639	-0.348145	-0.409668	0.100374	0.002772	0.004278	0.365376	0.625119	-0.328533	0.606459	87.462200	-86.653176	33.741292
29910		9.992483	0.393118	0.209693	0.267993	-0.062642	0.185935	0.660605	-0.147990	-0.116710	-1.009033	-0.351318	-0.405029	0.099926	0.003866	0.002184	0.363414	0.626977	-0.326424	0.606859	89.331324	-86.587714	32.249531
29911		9.997467	0.723211	0.265671	0.038238	-0.291948	0.210097	0.671519	-0.152265	-0.113560	-1.020508	-0.355469	-0.397705	0.099977	0.007166	0.002757	0.361399	0.628859	-0.324294	0.607256	91.191084	-86.520523	30.773256
29912		9.918264	0.781186	0.239790	-0.007624	-0.313532	0.134237	0.651238	-0.144701	-0.096897	-1.018066	-0.354736	-0.394287	0.099185	0.007756	0.002495	0.359402	0.630643	-0.322263	0.607673	92.905235	-86.461013	29.431239
29913		9.779363	0.671373	0.044663	-0.008467	-0.104023	-0.010761	0.631896	-0.121193	-0.087093	-1.014404	-0.358398	-0.392822	0.097796	0.006670	0.000527	0.357473	0.632303	-0.320273	0.608138	94.356686	-86.404987	28.341127
29914		9.542865	0.490686	0.011844	0.126918	0.007143	-0.258055	0.633502	-0.077858	-0.079976	-1.014648	-0.376953	-0.388916	0.095431	0.004868	0.000171	0.355581	0.633811	-0.318222	0.608754	95.381207	-86.354442	27.679657
29915		9.291475	0.345338	0.058337	0.271234	0.035260	-0.518639	0.633055	-0.075815	-0.060958	-1.010010	-0.375000	-0.381836	0.092916	0.003423	0.000629	0.353634	0.635279	-0.316224	0.609398	96.388928	-86.313355	27.034730
29916		9.261572	0.298356	0.131969	0.359656	-0.007495	-0.552356	0.626490	-0.112632	-0.036524	-1.014404	-0.371826	-0.379150	0.092615	0.002962	0.001381	0.351569	0.636799	-0.314386	0.609957	97.717203	-86.283449	26.064989
29917		9.373411	0.385326	0.084227	0.276799	-0.020824	-0.435090	0.672802	-0.085432	-0.014078	-1.018066	-0.381592	-0.380371	0.093734	0.003844	0.000895	0.349329	0.638280	-0.312426	0.610703	98.853707	-86.266457	25.313787
29918		9.342241	0.521639	-0.049956	0.092672	0.005963	-0.456222	0.726401	-0.031214	0.004901	-1.012451	-0.386963	-0.372803	0.093422	0.005220	-0.000466	0.346939	0.639646	-0.310267	0.611736	99.565302	-86.265169	25.019193
29919		9.421698	0.764412	0.024795	-0.057211	-0.197349	-0.362232	0.729638	-0.003571	0.033050	-1.012451	-0.392334	-0.373535	0.094216	0.007659	0.000278	0.344493	0.640885	-0.308133	0.612898	100.087970	-86.281482	24.915758
29920		9.550461	0.829709	0.187291	-0.009938	-0.371224	-0.231618	0.677953	0.008887	0.069801	-1.011475	-0.385742	-0.368408	0.095502	0.008324	0.001897	0.342112	0.641928	-0.306252	0.614082	100.527138	-86.320494	24.866398
29921		9.864368	0.854188	0.246464	0.019970	-0.432747	0.082183	0.635395	0.016275	0.100335	-1.015137	-0.400146	-0.370361	0.098640	0.008583	0.002484	0.339785	0.642827	-0.304582	0.615264	100.939415	-86.376693	24.819482
29922		10.313608	1.042341	0.354725	-0.047690	-0.628179	0.540376	0.618391	0.000296	0.120641	-1.027344	-0.396729	-0.363525	0.103130	0.010475	0.003579	0.337419	0.643703	-0.303056	0.616403	101.522984	-86.443255	24.591219
29923		10.753082	1.186308	0.268581	-0.194429	-0.643777	0.988052	0.564437	0.002641	0.123989	-1.023926	-0.399658	-0.351807	0.107523	0.011922	0.002718	0.335219	0.644475	-0.301698	0.617461	102.082586	-86.511057	24.355973
29924		10.783698	1.336279	0.094760	-0.422319	-0.602876	1.028943	0.539978	0.036323	0.105939	-1.018066	-0.392822	-0.353027	0.107830	0.013417	0.000964	0.333200	0.645119	-0.300299	0.618562	102.284418	-86.573467	24.465174
29925		10.432791	1.609303	-0.096136	-0.778972	-0.630727	0.696242	0.504056	0.036332	0.077067	-1.021729	-0.397217	-0.359375	0.104322	0.016136	-0.000940	0.331386	0.645747	-0.298916	0.619551	102.414815	-86.618994	24.625264
29926		9.970792	1.835158	-0.302238	-1.107975	-0.623098	0.250114	0.461966	-0.018837	0.024439	-1.020020	-0.398193	-0.355225	0.099706	0.018371	-0.002971	0.329785	0.646546	-0.297583	0.620213	102.926957	-86.628918	24.378820
29927		9.818381	2.096954	-0.487889	-1.429018	-0.650185	0.115606	0.388082	-0.099940	-0.016487	-1.021484	-0.408691	-0.340088	0.098188	0.020971	-0.004789	0.328429	0.647537	-0.296478	0.620428	104.077940	-86.604276	23.449974
29928		9.796777	2.204509	-0.640442	-1.595803	-0.608665	0.103450	0.306155	-0.115427	-0.049646	-1.022461	-0.410156	-0.352295	0.097977	0.022030	-0.006314	0.327415	0.648484	-0.295546	0.620419	105.219865	-86.558548	22.483187
29929		9.756742	2.164577	-0.671359	-1.572346	-0.571160	0.063122	0.271504	-0.079538	-0.061976	-1.022949	-0.416260	-0.343750	0.097577	0.021625	-0.006645	0.326606	0.649285	-0.294620	0.620449	105.964940	-86.509961	21.893996
29930		9.645325	2.148429	-0.744851	-1.599612	-0.513573	-0.046403	0.245493	-0.070624	-0.055606	-1.019531	-0.415771	-0.336670	0.096462	0.021467	-0.007388	0.325873	0.650000	-0.293782	0.620483	106.607630	-86.466437	21.392456
29931		9.742473	1.979826	-0.749148	-1.455442	-0.412020	0.041684	0.167213	-0.068414	-0.012397	-1.021973	-0.423340	-0.341797	0.097429	0.019798	-0.007442	0.325264	0.650521	-0.293322	0.620474	107.296489	-86.446050	20.799670
29932		9.796304	1.674063	-0.642386	-1.143897	-0.312637	0.075512	0.080131	-0.010441	0.036775	-1.019043	-0.418945	-0.340332	0.097960	0.016761	-0.006412	0.324870	0.650644	-0.293198	0.620610	107.550521	-86.462668	20.592585
29933		9.804586	1.454641	-0.593405	-0.944884	-0.218874	0.069483	0.055006	0.035705	0.063087	-1.027588	-0.419434	-0.333984	0.098040	0.014579	-0.005948	0.324545	0.650548	-0.293162	0.620898	107.462398	-86.501119	20.713854
29934		9.848545	1.460116	-0.455794	-0.868712	-0.332248	0.110441	0.058718	0.030629	0.081221	-1.020752	-0.409668	-0.340576	0.098479	0.014642	-0.004569	0.324143	0.650444	-0.293182	0.621207	107.464894	-86.549026	20.746488
29935		9.858420	1.450856	-0.349784	-0.803119	-0.412591	0.117094	0.005454	0.035485	0.081117	-1.026123	-0.414063	-0.341309	0.098578	0.014549	-0.003515	0.323922	0.650242	-0.293359	0.621451	107.397999	-86.597285	20.818037
29936		9.733701	1.254674	-0.388554	-0.688139	-0.263900	-0.018457	-0.040986	0.059523	0.056913	-1.022461	-0.409912	-0.340820	0.097332	0.012574	-0.003917	0.323962	0.649922	-0.293563	0.621668	107.001542	-86.636725	21.193090
29937		9.590508	1.206943	-0.285599	-0.601049	-0.317215	-0.166225	-0.060252	0.031653	0.036316	-1.027100	-0.407471	-0.343994	0.095902	0.012086	-0.002875	0.324088	0.649690	-0.293804	0.621730	106.796207	-86.659743	21.365599
29938		9.626234	1.248647	-0.306108	-0.645411	-0.328136	-0.128010	-0.061567	-0.064016	0.013830	-1.021240	-0.416504	-0.337402	0.096262	0.012492	-0.003034	0.324148	0.649784	-0.294132	0.621446	107.416290	-86.654697	20.710549
29939		9.856240	1.417439	-0.522023	-0.892827	-0.264360	0.115055	-0.020371	-0.121082	-0.011800	-1.032471	-0.420166	-0.348877	0.098566	0.014168	-0.005162	0.324069	0.650163	-0.294341	0.620992	108.514508	-86.624682	19.600151
29940		9.981878	1.506486	-0.594407	-0.991986	-0.267495	0.247388	-0.057333	-0.111611	-0.016132	-1.024658	-0.415527	-0.333496	0.099823	0.015055	-0.005893	0.324138	0.650455	-0.294634	0.620510	109.465470	-86.593232	18.616039
29941		9.959935	1.471679	-0.600925	-0.963214	-0.246498	0.224180	-0.102602	-0.069130	-0.009358	-1.019775	-0.415527	-0.338379	0.099602	0.014709	-0.005982	0.324396	0.650535	-0.295022	0.620108	110.020686	-86.572585	18.002346
29942		9.780577	1.334318	-0.541352	-0.823968	-0.216042	0.036553	-0.096807	-0.074586	-0.001914	-1.025391	-0.418213	-0.339844	0.097808	0.013340	-0.005384	0.324604	0.650627	-0.295424	0.619710	110.639478	-86.554742	17.328295
29943		9.647877	1.298212	-0.503633	-0.775004	-0.232386	-0.098476	-0.084900	-0.110563	0.018351	-1.029297	-0.414551	-0.338379	0.096480	0.012989	-0.004989	0.324656	0.650823	-0.295914	0.619244	111.651790	-86.539449	16.266813
29944		9.597249	1.254816	-0.665079	-0.838556	-0.087819	-0.147637	-0.096115	-0.104444	0.037688	-1.032959	-0.412598	-0.337646	0.095974	0.012563	-0.006607	0.324695	0.650950	-0.296490	0.618814	112.659382	-86.534848	15.203627
29945		9.523395	1.112718	-0.720403	-0.762941	0.033441	-0.227857	-0.112054	-0.077279	0.060126	-1.031982	-0.420410	-0.335938	0.095233	0.011152	-0.007173	0.324756	0.650936	-0.297146	0.618482	113.510081	-86.546898	14.288459
29946		9.408938	1.321584	-0.694923	-0.919198	-0.124618	-0.331276	-0.097020	-0.076380	0.076184	-1.024414	-0.417236	-0.334717	0.094087	0.013248	-0.006920	0.324720	0.650917	-0.297805	0.618204	114.425187	-86.566917	13.317427
29947		9.417439	1.323373	-0.787616	-0.978613	-0.061015	-0.320670	-0.142844	-0.073587	0.092396	-1.030029	-0.415527	-0.333984	0.094171	0.013272	-0.007851	0.324786	0.650793	-0.298654	0.617890	115.373066	-86.594875	12.287271
29948		9.400984	1.309314	-0.806543	-0.983595	-0.044533	-0.337780	-0.157384	-0.032265	0.087681	-1.028564	-0.417725	-0.338379	0.094005	0.013128	-0.008061	0.324976	0.650522	-0.299465	0.617683	115.942472	-86.630000	11.627951
29949		9.434843	1.305115	-0.618020	-0.869188	-0.194876	-0.309632	-0.204642	-0.002867	0.089315	-1.036133	-0.407715	-0.330322	0.094343	0.013087	-0.006192	0.325358	0.650082	-0.300379	0.617501	116.251211	-86.672906	11.202636
29950		9.419372	1.392801	-0.526054	-0.889190	-0.324067	-0.323456	-0.184933	-0.021919	0.066790	-1.041992	-0.409912	-0.334473	0.094190	0.013955	-0.005263	0.325718	0.649765	-0.301190	0.617251	116.644164	-86.699368	10.704300
29951		9.506426	1.635243	-0.423190	-1.017059	-0.554255	-0.227092	-0.189333	-0.035015	0.033151	-1.036377	-0.413574	-0.335205	0.095062	0.016364	-0.004231	0.326174	0.649533	-0.301926	0.616894	117.010902	-86.704924	10.229698
29952		9.465285	1.711321	-0.260421	-0.982562	-0.730608	-0.268639	-0.211005	-0.020951	0.009381	-1.044922	-0.408203	-0.334961	0.094652	0.017115	-0.002612	0.326797	0.649255	-0.302628	0.616513	117.127852	-86.701985	9.992865
29953		9.423500	1.507663	-0.278196	-0.833357	-0.591730	-0.320156	-0.218445	-0.009067	-0.023289	-1.031494	-0.401855	-0.337646	0.094237	0.015063	-0.002794	0.327560	0.648979	-0.303228	0.616103	116.993243	-86.685396	10.003734
29954		9.341975	1.377166	-0.394502	-0.801275	-0.416918	-0.404773	-0.183649	-0.008009	-0.054178	-1.037842	-0.398926	-0.332764	0.093424	0.013743	-0.003954	0.328309	0.648802	-0.303617	0.615700	116.726852	-86.653321	10.166579
29955		9.342060	1.482182	-0.287483	-0.815871	-0.562692	-0.401453	-0.193736	-0.058779	-0.048765	-1.036133	-0.406738	-0.337891	0.093425	0.014796	-0.002862	0.328994	0.648757	-0.304140	0.615123	116.927716	-86.610849	9.855577
29956		9.429328	1.223943	-0.206800	-0.548954	-0.474003	-0.329703	-0.226670	-0.122477	-0.028346	-1.030029	-0.402832	-0.333496	0.094296	0.012224	-0.002024	0.329629	0.648820	-0.304932	0.614324	117.726718	-86.561849	8.926453
29957		9.506199	0.869285	-0.341954	-0.332226	-0.159470	-0.267814	-0.203103	-0.135079	-0.022776	-1.041016	-0.411621	-0.337402	0.095065	0.008679	-0.003364	0.330148	0.648952	-0.305693	0.613527	118.649796	-86.511427	7.886508
29958		9.600470	0.716005	-0.540398	-0.313098	0.086143	-0.175869	-0.165044	-0.094701	-0.023483	-1.035156	-0.403076	-0.334717	0.096008	0.007144	-0.005364	0.330609	0.649023	-0.306265	0.612918	119.230721	-86.471007	7.211151
29959		9.647908	0.495338	-0.507711	-0.107878	0.188496	-0.141178	-0.169878	-0.036922	-0.014940	-1.028320	-0.409180	-0.335449	0.096480	0.004942	-0.005063	0.331146	0.648896	-0.306786	0.612502	119.377051	-86.450816	6.968425
29960		9.594492	0.185503	-0.586870	0.094365	0.436211	-0.208839	-0.152138	0.003098	-0.025568	-1.039551	-0.407715	-0.337158	0.095945	0.001838	-0.005872	0.331721	0.648691	-0.307149	0.612226	119.156861	-86.436505	7.103102
29961		9.631263	-0.145431	-0.867644	0.201439	0.859465	-0.181699	-0.075553	-0.036840	-0.035803	-1.035645	-0.408691	-0.342529	0.096314	-0.001475	-0.008658	0.332015	0.648752	-0.307314	0.611919	119.261147	-86.405928	6.956643
29962		9.667339	-0.051145	-1.098646	-0.001566	0.987834	-0.133263	0.025657	-0.085087	-0.037549	-1.030518	-0.400635	-0.338867	0.096678	-0.000528	-0.010945	0.331914	0.649129	-0.307241	0.611610	119.786645	-86.360795	6.446225
29963		9.659258	0.148335	-1.254548	-0.247593	0.988734	-0.124640	0.046939	-0.109494	0.002664	-1.037842	-0.406006	-0.331787	0.096599	0.001488	-0.012492	0.331582	0.649556	-0.307276	0.611320	120.686097	-86.328136	5.573293
29964		9.768035	0.326660	-1.231398	-0.366945	0.856381	-0.006082	0.014396	-0.074427	0.046315	-1.042969	-0.409912	-0.335693	0.097684	0.003290	-0.012277	0.331277	0.649754	-0.307492	0.611167	121.483808	-86.326445	4.783605
29965		9.859104	0.629321	-0.935342	-0.432525	0.431577	0.091832	-0.028952	-0.012279	0.095927	-1.039307	-0.398438	-0.330811	0.098589	0.006339	-0.009348	0.331055	0.649614	-0.307900	0.611230	122.025119	-86.367076	4.225974
29966		9.837785	0.943861	-0.780149	-0.603029	0.113362	0.082009	-0.075374	-0.014084	0.127471	-1.040283	-0.407471	-0.334961	0.098372	0.009498	-0.007798	0.330887	0.649353	-0.308554	0.611268	122.717552	-86.422017	3.490296
29967		9.849109	1.285016	-0.782528	-0.887842	-0.094097	0.110590	-0.167687	-0.026199	0.145671	-1.038086	-0.401611	-0.340088	0.098483	0.012915	-0.007823	0.330942	0.648949	-0.309571	0.611154	123.570582	-86.481279	2.540770
29968		9.784817	1.423329	-0.994012	-1.138031	-0.012294	0.059561	-0.266467	-0.026836	0.157666	-1.039063	-0.399902	-0.330322	0.097838	0.014297	-0.009946	0.331280	0.648363	-0.310927	0.610903	124.462440	-86.545088	1.495697
29969		9.700743	1.592473	-1.045637	-1.319498	-0.077254	-0.015407	-0.324569	-0.066451	0.153889	-1.048096	-0.404053	-0.325195	0.096999	0.015982	-0.010450	0.331755	0.647806	-0.312515	0.610426	125.650547	-86.592965	0.120562
29970		9.659863	1.541017	-1.097473	-1.317898	-0.012950	-0.057940	-0.397403	-0.086465	0.149761	-1.039307	-0.392822	-0.331787	0.096592	0.015461	-0.010964	0.332447	0.647194	-0.314342	0.609761	126.959666	-86.630250	-1.417550
29971		9.504701	1.362531	-1.163474	-1.225860	0.137533	-0.219573	-0.407850	-0.084162	0.131160	-1.050781	-0.395264	-0.334717	0.095043	0.013664	-0.011623	0.333230	0.646583	-0.316137	0.609053	128.166993	-86.657971	-2.859630
29972		9.313872	1.158067	-1.106913	-1.041236	0.204003	-0.421799	-0.420465	-0.083670	0.110000	-1.045410	-0.394775	-0.329102	0.093137	0.011609	-0.011055	0.334120	0.645980	-0.317898	0.608288	129.247549	-86.674575	-4.181946
29973		9.224941	0.927184	-1.117299	-0.864830	0.339076	-0.520505	-0.427115	-0.104496	0.097950	-1.048584	-0.380615	-0.335205	0.092251	0.009293	-0.011145	0.335031	0.645445	-0.319676	0.607422	130.419504	-86.676854	-5.599604
29974		9.160599	0.731227	-1.096269	-0.694942	0.426343	-0.593775	-0.404509	-0.114691	0.087586	-1.039551	-0.385498	-0.335449	0.091609	0.007330	-0.010925	0.335884	0.644993	-0.321365	0.606539	131.608135	-86.668950	-7.021016
29975		9.154056	0.551859	-1.221306	-0.616744	0.622621	-0.602647	-0.398207	-0.112304	0.090426	-1.040771	-0.379883	-0.334473	0.091545	0.005536	-0.012173	0.336709	0.644537	-0.323040	0.605677	132.799800	-86.661627	-8.441842
29976		9.268641	0.300728	-1.418342	-0.512082	0.917149	-0.490325	-0.375828	-0.100978	0.100064	-1.046875	-0.377441	-0.338135	0.092692	0.003027	-0.014142	0.337451	0.644066	-0.324657	0.604900	133.979732	-86.660871	-9.838098
29977		9.502216	0.026643	-1.666570	-0.410237	1.263742	-0.257326	-0.322229	-0.098690	0.127156	-1.046875	-0.370850	-0.337402	0.095030	0.000300	-0.016619	0.337940	0.643632	-0.326195	0.604261	135.367114	-86.670445	-11.411365
29978		9.857661	-0.120209	-1.497584	-0.177749	1.190328	0.085909	-0.281616	-0.044122	0.169617	-1.039551	-0.373047	-0.337891	0.098581	-0.001140	-0.014952	0.338259	0.643031	-0.327652	0.603933	136.718626	-86.717012	-12.925374
29979		9.959763	-0.335015	-1.284004	0.113295	1.121461	0.171662	-0.220550	0.028508	0.208177	-1.037842	-0.364014	-0.341553	0.099599	-0.003261	-0.012851	0.338382	0.642249	-0.328927	0.604004	137.947568	-86.807385	-14.281445
29980		9.984602	-0.355447	-1.195591	0.162624	1.051387	0.193119	-0.145608	0.064774	0.226840	-1.046631	-0.369873	-0.337646	0.099846	-0.003450	-0.011986	0.338268	0.641453	-0.329973	0.604344	139.190798	-86.918521	-15.608712
29981		10.093897	-0.203096	-0.955670	0.151239	0.760291	0.298709	-0.146144	0.110041	0.246426	-1.038818	-0.364990	-0.339355	0.100936	-0.001914	-0.009611	0.338169	0.640484	-0.331007	0.604860	140.380621	-87.055359	-16.882628
29982		10.189566	-0.040402	-0.846491	0.052910	0.576105	0.395675	-0.176219	0.168920	0.263587	-1.048828	-0.353516	-0.341553	0.101889	-0.000277	-0.008551	0.338213	0.639258	-0.332085	0.605542	141.397890	-87.223043	-18.000877
29983		10.151521	0.290850	-0.821904	-0.243538	0.376603	0.366324	-0.165465	0.224558	0.261891	-1.038086	-0.349365	-0.343018	0.101502	0.003035	-0.008335	0.338317	0.637881	-0.333031	0.606416	142.115303	-87.414510	-18.812581
29984		10.062788	0.608064	-0.840514	-0.556120	0.226688	0.285587	-0.208645	0.252778	0.249401	-1.048340	-0.348633	-0.346680	0.100609	0.006197	-0.008539	0.338643	0.636365	-0.334018	0.607283	142.555778	-87.613783	-19.371748
29985		9.889549	0.719762	-0.956367	-0.752694	0.275648	0.116726	-0.249849	0.264318	0.231490	-1.046875	-0.340088	-0.356445	0.098874	0.007300	-0.009703	0.339172	0.634769	-0.335054	0.608086	142.746756	-87.812173	-19.704742
29986		9.867765	0.802605	-0.966740	-0.859554	0.253264	0.094304	-0.272852	0.277294	0.197885	-1.050049	-0.345459	-0.352783	0.098656	0.008110	-0.009815	0.339897	0.633151	-0.336028	0.608831	142.403099	-88.004527	-19.515916
29987		9.762779	0.800893	-1.152452	-0.990464	0.427894	-0.008748	-0.288945	0.276164	0.165052	-1.045166	-0.337646	-0.357910	0.097605	0.008073	-0.011671	0.340769	0.631559	-0.336948	0.609488	141.540562	-88.184958	-18.817147
29988		9.858832	0.742255	-0.735682	-0.738938	0.125734	0.073000	-0.360018	0.266424	0.148856	-1.039307	-0.339355	-0.368896	0.098573	0.007482	-0.007502	0.341897	0.629902	-0.338048	0.609962	140.333481	-88.354458	-17.814508
29989		10.827201	0.337260	0.259352	0.137455	-0.491066	1.010861	-0.461847	0.183533	0.160898	-1.042725	-0.327393	-0.367676	0.108272	0.003466	0.002486	0.343166	0.628297	-0.339637	0.610022	140.197488	-88.491779	-17.941780
29990		11.900822	-0.886829	0.096520	1.090779	0.302546	2.067715	-0.279905	0.201410	0.054293	-1.039795	-0.324463	-0.366699	0.119012	-0.008835	0.000858	0.344219	0.627130	-0.340303	0.610259	137.980871	-88.596585	-15.883505
29991		11.310741	-1.759948	-1.091329	1.167020	1.811675	1.482306	0.020527	0.509255	-0.108848	-1.034668	-0.333252	-0.379883	0.113070	-0.017660	-0.011203	0.345348	0.625813	-0.339010	0.611690	126.886392	-88.745655	-4.772903
29992		9.262604	-0.449940	-1.944579	-0.453604	1.890830	-0.539150	0.373297	0.410913	-0.267596	-1.036133	-0.336426	-0.380127	0.092580	-0.004587	-0.019645	0.345690	0.625672	-0.336308	0.613131	114.363389	-88.730897	7.968425
29993		8.624643	1.414694	-1.958444	-2.043334	0.926718	-1.141628	0.093034	-0.067074	-0.235658	-1.035400	-0.337402	-0.381592	0.086270	0.014054	-0.019549	0.346005	0.626453	-0.335390	0.612659	113.612545	-88.589614	8.774194
29994		8.949347	1.248205	-1.637745	-1.712598	0.752726	-0.822056	-0.402781	0.026700	0.010769	-1.030029	-0.327148	-0.387207	0.089491	0.012454	-0.016415	0.347274	0.625676	-0.336598	0.612072	112.956015	-88.598730	9.201452
29995		9.080508	0.227267	-0.861415	-0.441409	0.657870	-0.723046	-0.414769	0.366843	0.058844	-1.031738	-0.333984	-0.383301	0.090788	0.002281	-0.008785	0.349004	0.623750	-0.337402	0.612610	104.799148	-88.696667	17.124272
29996		9.324617	0.348476	-0.109611	-0.163436	-0.011584	-0.482363	-0.114880	0.451045	0.034778	-1.023926	-0.332520	-0.388916	0.093243	0.003500	-0.001308	0.350013	0.622129	-0.337063	0.613868	93.465373	-88.755368	28.396332
29997		9.710719	0.758390	-0.322349	-0.639720	-0.011528	-0.088098	-0.032568	0.374579	0.036849	-1.020996	-0.324951	-0.395752	0.097100	0.007601	-0.003407	0.350628	0.620878	-0.336610	0.615031	83.565102	-88.769296	38.281639
29998		9.992677	0.880974	-0.703615	-0.964291	0.281409	0.193091	-0.111358	0.395000	0.070748	-1.018066	-0.330322	-0.398193	0.099909	0.008841	-0.007238	0.351417	0.619369	-0.336468	0.616179	72.939200	-88.761361	48.847549
29999		9.845997	0.786192	-0.665381	-0.891870	0.327812	0.041319	-0.164172	0.405222	0.068054	-1.026367	-0.325684	-0.404297	0.098444	0.007890	-0.006860	0.352393	0.617736	-0.336460	0.617265	62.538818	-88.708371	59.157766
30000		9.609347	0.818931	-0.821027	-1.025551	0.466855	-0.199442	-0.107108	0.306974	0.022933	-1.016357	-0.322021	-0.408691	0.096080	0.008196	-0.008362	0.353166	0.616582	-0.336308	0.618059	55.811106	-88.628772	65.827288
30001		9.399419	0.838154	-1.148580	-1.228151	0.752570	-0.416089	-0.082080	0.205259	-0.016613	-1.027588	-0.320313	-0.409668	0.093983	0.008369	-0.011586	0.353812	0.615849	-0.336137	0.618513	52.225237	-88.551603	69.368600
30002		9.410904	0.869297	-1.637851	-1.514179	1.166214	-0.413190	-0.032768	0.065018	-0.047983	-1.019531	-0.326660	-0.412598	0.094106	0.008668	-0.016411	0.354168	0.615693	-0.335964	0.618559	51.839270	-88.506769	69.737205
30003		9.945675	1.074511	-1.828562	-1.779340	1.237822	0.122926	0.009041	-0.046692	-0.063261	-1.019287	-0.327393	-0.410889	0.099464	0.010714	-0.018262	0.354254	0.615978	-0.335813	0.618308	53.591821	-88.493857	67.990636
30004		10.425901	1.177306	-1.494703	-1.679607	0.911157	0.611722	-0.022498	-0.029892	-0.054791	-1.024170	-0.322754	-0.413574	0.104264	0.011743	-0.014933	0.354439	0.616146	-0.335755	0.618066	54.916546	-88.478033	66.653949
30005		11.067700	0.835960	-0.096963	-0.642023	-0.088124	1.268028	-0.030497	-0.092736	-0.037387	-1.019043	-0.323730	-0.408691	0.110679	0.008339	-0.000920	0.354490	0.616460	-0.335887	0.617652	57.109900	-88.489556	64.443749
30006		12.286713	-0.646239	0.706754	1.069716	0.017912	2.464762	-0.063856	-0.215888	-0.048011	-1.015869	-0.317871	-0.409912	0.122858	-0.006490	0.007202	0.354470	0.617116	-0.336308	0.616778	61.824120	-88.528114	59.692599
30007		12.782705	-2.561556	-0.034574	2.344351	1.648959	2.905222	0.205620	-0.182416	-0.160651	-1.015869	-0.325684	-0.398926	0.127807	-0.025718	-0.000256	0.354020	0.618332	-0.335490	0.616265	67.181178	-88.489207	54.452982
30008		11.819603	-2.462610	-1.442060	1.530692	2.781600	1.924715	0.737707	-0.102219	-0.314546	-1.016113	-0.322266	-0.398926	0.118165	-0.024759	-0.014451	0.352531	0.620497	-0.332412	0.616609	71.965414	-88.339584	50.090977
30009		10.318564	-0.237091	-2.031379	-0.674985	2.073576	0.478090	0.984543	-0.181674	-0.336807	-1.021240	-0.327881	-0.399170	0.103200	-0.002445	-0.020232	0.350205	0.623363	-0.328636	0.617069	77.577672	-88.179387	45.041901
30010		9.870028	1.534002	-2.445304	-2.376831	1.435949	0.088762	0.606586	-0.353399	-0.133328	-1.015137	-0.329102	-0.388184	0.098753	0.015348	-0.024232	0.348140	0.625751	-0.326958	0.616710	84.596214	-88.133770	38.368383
30011		9.878712	1.366235	-2.238441	-2.110249	1.318988	0.100597	0.229348	-0.250200	0.101094	-1.017822	-0.340332	-0.395996	0.098808	0.013738	-0.022245	0.346698	0.626775	-0.326991	0.616466	89.160354	-88.197846	33.934782
30012		9.744820	1.214522	-1.445453	-1.555311	0.711204	-0.035107	0.301348	-0.060202	0.102852	-1.016357	-0.335205	-0.385010	0.097446	0.012217	-0.014407	0.345335	0.627336	-0.326480	0.616931	90.523763	-88.254945	32.744501
30013		9.645905	1.897727	-0.963631	-1.867283	-0.085310	-0.113235	0.395915	-0.086826	0.062999	-1.015869	-0.329834	-0.378662	0.096457	0.019027	-0.009557	0.343753	0.628202	-0.325594	0.617402	92.489357	-88.287962	31.006361
30014		9.909681	1.520857	-1.208003	-1.679623	0.310184	0.140034	0.128527	-0.169279	0.089262	-1.014160	-0.328613	-0.387207	0.099100	0.015261	-0.011986	0.342795	0.628823	-0.325759	0.617215	96.052143	-88.329577	27.516879
30015		10.289091	0.680336	-0.966698	-0.833111	0.559285	0.495361	0.019573	-0.161379	0.060014	-1.013428	-0.337158	-0.386963	0.102897	0.006835	-0.009583	0.342282	0.629275	-0.326152	0.616832	99.438762	-88.349254	24.141459
30016		10.384847	0.657782	-0.503390	-0.549503	0.172418	0.589208	0.060787	-0.122445	-0.000441	-1.017334	-0.330566	-0.381348	0.103852	0.006579	-0.004968	0.341889	0.629781	-0.326163	0.616527	101.929524	-88.333490	21.685693
30017		10.349726	0.980875	-0.223283	-0.655255	-0.251161	0.562106	0.003676	-0.142254	-0.023974	-1.016357	-0.330322	-0.380859	0.103500	0.009796	-0.002159	0.341716	0.630283	-0.326307	0.616033	104.571370	-88.299348	19.046215
30018		10.337977	1.170563	0.144000	-0.598092	-0.674585	0.553214	-0.085659	-0.187086	-0.031204	-1.014893	-0.330566	-0.378418	0.103380	0.011690	0.001532	0.341773	0.630788	-0.326782	0.615233	107.840039	-88.249508	15.728271
30019		10.329053	1.236333	0.652196	-0.357470	-1.149350	0.540785	-0.126175	-0.228444	-0.050634	-1.018555	-0.324707	-0.380371	0.103286	0.012341	0.006632	0.341949	0.631376	-0.327388	0.614209	111.443466	-88.175931	12.052166
30020		10.280803	1.206704	0.941917	-0.156340	-1.391997	0.486637	-0.160321	-0.266172	-0.075470	-1.017090	-0.326904	-0.381836	0.102800	0.012036	0.009546	0.342248	0.632066	-0.328086	0.612959	115.156082	-88.072853	8.246975
30021		10.201912	1.164438	1.234931	0.055560	-1.628191	0.400336	-0.205462	-0.198810	-0.097055	-1.016357	-0.320557	-0.378662	0.102012	0.011608	0.012439	0.342864	0.632501	-0.328737	0.611816	117.310861	-87.970269	5.974523
30022		9.835732	1.171786	1.461758	0.174748	-1.828597	0.029931	-0.249676	-0.084294	-0.128661	-1.019043	-0.322266	-0.372803	0.098359	0.011673	0.014644	0.343905	0.632565	-0.329227	0.610901	117.451878	-87.879502	5.691598
30023		9.381465	1.191879	1.533086	0.189365	-1.897465	-0.424047	-0.286269	-0.016086	-0.147902	-1.010986	-0.333984	-0.376709	0.093822	0.011871	0.015321	0.345232	0.632383	-0.329649	0.610113	116.509981	-87.797458	6.471431
30024		8.965413	1.111641	1.491222	0.225237	-1.812228	-0.840330	-0.329542	0.013981	-0.175289	-1.019287	-0.325928	-0.379395	0.089665	0.011062	0.014888	0.346828	0.632083	-0.330064	0.609294	115.057531	-87.707441	7.737389
30025		8.718907	1.000779	1.605658	0.378184	-1.841511	-1.091172	-0.411366	-0.032759	-0.193329	-1.015381	-0.318848	-0.378174	0.087196	0.009957	0.016050	0.348659	0.631806	-0.330750	0.608164	114.137359	-87.596603	8.423843
30026		8.667189	0.675222	1.902165	0.818618	-1.912262	-1.160091	-0.495528	-0.071851	-0.209474	-1.020020	-0.319336	-0.379639	0.086672	0.006709	0.019036	0.350739	0.631528	-0.331707	0.606734	113.629920	-87.467178	8.648919
30027		8.588818	0.359063	2.040566	1.166353	-1.859606	-1.254527	-0.553156	-0.083454	-0.243114	-1.009277	-0.315674	-0.381592	0.085884	0.003543	0.020432	0.353079	0.631230	-0.332751	0.605113	113.086809	-87.318056	8.876732
30028		8.575551	0.329847	2.241274	1.308464	-2.013554	-1.274204	-0.592105	-0.081122	-0.280676	-1.013672	-0.329346	-0.376221	0.085751	0.003245	0.022438	0.355658	0.630916	-0.333785	0.603357	112.375253	-87.148814	9.250825
30029		8.555155	0.329797	1.938572	1.163744	-1.753847	-1.290528	-0.650646	-0.101036	-0.335928	-1.006348	-0.326172	-0.382080	0.085547	0.003217	0.019418	0.358549	0.630639	-0.334855	0.601340	111.664986	-86.946414	9.590150
30030		8.712793	0.522727	1.503832	0.803827	-1.476343	-1.116611	-0.659581	-0.129604	-0.402647	-1.010742	-0.327881	-0.384277	0.087129	0.005102	0.015078	0.361618	0.630538	-0.335785	0.599086	111.042164	-86.701630	9.836799
30031		8.962081	0.440609	1.089291	0.705930	-1.068215	-0.865058	-0.702470	-0.137659	-0.464274	-1.009033	-0.331055	-0.388184	0.089623	0.004236	0.010940	0.364985	0.630472	-0.336660	0.596616	110.323297	-86.422668	10.155153
30032		9.426906	0.368654	0.915088	0.746284	-0.865788	-0.403481	-0.649641	-0.135705	-0.508364	-1.005127	-0.333984	-0.385254	0.094272	0.003477	0.009203	0.368316	0.630564	-0.337228	0.594147	109.567382	-86.119516	10.541027
30033		9.944049	0.363148	0.845753	0.795564	-0.785844	0.111053	-0.567529	-0.175339	-0.510683	-1.006592	-0.336426	-0.376465	0.099442	0.003402	0.008535	0.371319	0.630914	-0.337613	0.591681	109.225334	-85.807946	10.559351
30034		10.291553	0.240813	0.838077	0.971158	-0.706266	0.445688	-0.475951	-0.197267	-0.478317	-1.009766	-0.333740	-0.386963	0.102913	0.002182	0.008477	0.373899	0.631439	-0.337863	0.589349	109.187633	-85.509181	10.325045
30035		10.602923	0.278560	0.889477	1.036457	-0.763433	0.752987	-0.308685	-0.246995	-0.414093	-1.001953	-0.332031	-0.379639	0.106024	0.002580	0.009022	0.375671	0.632306	-0.337915	0.587260	109.699006	-85.236127	9.635966
30036		10.997782	0.289221	0.706978	1.018597	-0.613900	1.147242	-0.183026	-0.356225	-0.311503	-0.995850	-0.340088	-0.376709	0.109969	0.002728	0.007263	0.376559	0.633553	-0.338123	0.585224	111.118052	-84.994898	8.107872
30037		11.574210	-0.283704	0.378072	1.449585	-0.064909	1.679921	-0.143560	-0.396123	-0.164886	-1.007813	-0.329834	-0.368408	0.115732	-0.002930	0.004012	0.376821	0.634738	-0.338755	0.583403	113.010740	-84.819796	6.126514
30038		12.201285	-0.858845	0.709299	2.197341	-0.103600	2.240232	-0.174461	-0.351510	-0.011553	-1.011963	-0.334473	-0.368896	0.122000	-0.008589	0.007315	0.376810	0.635474	-0.339876	0.581955	114.904700	-84.729192	4.125647
30039		12.043398	-1.669698	0.817168	2.951583	0.158689	2.009410	-0.197730	-0.201992	0.124221	-1.010498	-0.332275	-0.379639	0.120436	-0.016614	0.008310	0.376729	0.635496	-0.341215	0.581199	116.268717	-84.741082	2.643488
30040		11.087931	-1.749331	0.743801	2.889032	0.234006	1.057193	-0.113564	-0.014007	0.202623	-1.021729	-0.328125	-0.369873	0.110896	-0.017377	0.007456	0.376474	0.634996	-0.342203	0.581329	116.861117	-84.838660	1.984671
30041		10.046274	-1.209844	0.925465	2.392890	-0.204236	0.060515	-0.135185	-0.027754	0.253987	-1.003662	-0.329834	-0.372803	0.100477	-0.011965	0.009277	0.376113	0.634406	-0.343444	0.581476	117.699581	-84.958366	1.066516
30042		9.756388	-0.633683	1.056876	1.908797	-0.618980	-0.185698	-0.170556	-0.145454	0.266813	-1.017578	-0.319336	-0.366211	0.097564	-0.006198	0.010645	0.375625	0.634069	-0.345047	0.581210	119.282810	-85.050409	-0.619456
30043		9.794699	-0.278675	0.789490	1.457485	-0.579985	-0.108237	-0.201178	-0.123376	0.250317	-1.019775	-0.317139	-0.374268	0.097945	-0.002656	0.007958	0.375317	0.633636	-0.346646	0.580930	120.725712	-85.136886	-2.181948
30044		9.651995	0.051705	0.405127	0.956038	-0.417116	-0.208534	-0.206133	-0.008355	0.213271	-1.017334	-0.311035	-0.373779	0.096519	0.000624	0.004055	0.375333	0.632922	-0.347923	0.580934	121.412496	-85.236568	-2.988296
30045		9.356178	0.446798	0.287429	0.513124	-0.509166	-0.469361	-0.191673	0.006969	0.166346	-1.017822	-0.315674	-0.371094	0.093558	0.004549	0.002867	0.375463	0.632271	-0.348983	0.580924	121.875755	-85.317400	-3.561922
30046		9.275194	0.849832	0.340284	0.164960	-0.753497	-0.524402	-0.230451	-0.032714	0.139499	-1.013184	-0.300781	-0.376709	0.092745	0.008567	0.003408	0.375726	0.631708	-0.350142	0.580668	122.467910	-85.372588	-4.287119
30047		9.392043	0.839835	0.432670	0.215476	-0.838054	-0.412995	-0.312023	-0.032849	0.125429	-1.008545	-0.313965	-0.376221	0.093914	0.008464	0.004329	0.376285	0.631016	-0.351495	0.580242	122.976892	-85.420462	-4.975698
30048		9.488049	0.744428	0.389573	0.275231	-0.760328	-0.321895	-0.323034	0.017840	0.116488	-1.008301	-0.302002	-0.377441	0.094876	0.007506	0.003875	0.376994	0.630169	-0.352753	0.579938	123.147563	-85.479494	-5.331186
30049		9.193785	0.825859	0.255106	0.105180	-0.675847	-0.603727	-0.302379	0.090868	0.092337	-1.020752	-0.303955	-0.382813	0.091935	0.008305	0.002497	0.377834	0.629191	-0.353739	0.579853	122.793217	-85.549796	-5.148128
30050		8.765905	0.708170	0.132998	0.108582	-0.505666	-1.032438	-0.314474	0.063288	0.072720	-1.016602	-0.299805	-0.380615	0.087657	0.007116	0.001291	0.378721	0.628303	-0.354747	0.579621	122.514812	-85.601977	-5.048220
30051		8.771849	0.450879	0.261926	0.388969	-0.501619	-1.048310	-0.339212	-0.031442	0.062237	-1.015137	-0.298340	-0.377686	0.087717	0.004541	0.002625	0.379545	0.627659	-0.355974	0.579027	122.777744	-85.619872	-5.505445
30052		9.000904	-0.043064	0.308944	0.861770	-0.324110	-0.853565	-0.335175	-0.047605	0.057411	-1.021973	-0.293945	-0.377197	0.090008	-0.000400	0.003112	0.380343	0.627076	-0.357203	0.578378	123.124140	-85.630189	-6.044063
30053		8.981420	-0.376435	0.258749	1.129544	-0.131093	-0.891841	-0.286178	0.035486	0.045630	-1.010986	-0.296875	-0.379395	0.089816	-0.003740	0.002577	0.381166	0.626366	-0.358095	0.578053	122.932322	-85.660774	-6.014727
30054		8.765714	-0.702433	0.059152	1.307934	0.197741	-1.118733	-0.236489	0.085666	0.041388	-1.011963	-0.293457	-0.386475	0.087659	-0.007006	0.000562	0.381937	0.625612	-0.358732	0.577966	122.424728	-85.704835	-5.640177
30055		8.745700	-0.993239	-0.030350	1.520235	0.412816	-1.152827	-0.147642	0.087143	0.024246	-1.019531	-0.289307	-0.378662	0.087458	-0.009922	-0.000334	0.382481	0.625053	-0.359058	0.578009	121.883297	-85.740761	-5.180658
30056		8.871577	-1.062499	-0.069674	1.569073	0.484195	-1.029624	-0.080945	0.111708	0.015456	-1.025635	-0.288818	-0.383301	0.088716	-0.010618	-0.000742	0.382886	0.624566	-0.359115	0.578232	121.170046	-85.779449	-4.510554
30057		8.916052	-1.203111	-0.183422	1.641465	0.657707	-0.989417	-0.027779	0.142307	0.008139	-1.013672	-0.292236	-0.381836	0.089160	-0.012028	-0.001896	0.383200	0.624105	-0.358938	0.578631	120.242153	-85.822703	-3.594717
30058		8.840271	-1.123318	-0.287221	1.513492	0.726342	-1.056176	0.031241	0.139667	-0.018612	-1.022461	-0.291016	-0.385742	0.088400	-0.011241	-0.002936	0.383403	0.623812	-0.358510	0.579077	119.240910	-85.850900	-2.571471
30059		8.851482	-0.983394	-0.460127	1.309384	0.829150	-1.030574	0.043980	0.110671	-0.036189	-1.010254	-0.291992	-0.389893	0.088510	-0.009849	-0.004652	0.383564	0.623660	-0.358047	0.579421	118.373026	-85.860919	-1.674642
30060		8.941882	-0.722435	-0.528935	1.052595	0.783630	-0.922418	0.054553	0.093797	-0.071943	-1.014404	-0.298828	-0.387695	0.089414	-0.007255	-0.005333	0.383766	0.623639	-0.357474	0.579664	117.492471	-85.847511	-0.759024
30061		9.180282	-0.403920	-0.336507	0.876016	0.479512	-0.671756	0.062016	0.090768	-0.110784	-1.014160	-0.298340	-0.387451	0.091799	-0.004089	-0.003408	0.384052	0.623712	-0.356764	0.579833	116.509855	-85.812222	0.263231
30062		9.452022	-0.033797	-0.262118	0.606842	0.259225	-0.380027	0.087195	0.086442	-0.149089	-1.014893	-0.307129	-0.394775	0.094519	-0.000407	-0.002662	0.384361	0.623912	-0.355870	0.579963	115.459140	-85.755034	1.368309
30063		9.566728	0.141247	-0.444617	0.387560	0.357619	-0.249121	0.136552	0.093415	-0.180893	-1.012207	-0.304688	-0.391602	0.095666	0.001329	-0.004490	0.384621	0.624244	-0.354719	0.580138	114.319794	-85.681226	2.590707
30064		9.643522	0.396807	-0.678752	0.072703	0.464949	-0.148621	0.225408	0.065657	-0.195946	-1.013428	-0.303223	-0.387451	0.096437	0.003881	-0.006815	0.384598	0.624851	-0.353317	0.580356	113.414524	-85.591726	3.629552
30065		9.801368	0.401606	-0.764705	0.055345	0.551858	0.011020	0.246336	0.046825	-0.196149	-1.007813	-0.309326	-0.392578	0.098016	0.003929	-0.007665	0.384475	0.625554	-0.351888	0.580548	112.688133	-85.496536	4.501118
30066		9.975635	0.173120	-0.777486	0.279821	0.679899	0.167651	0.245800	0.045203	-0.194863	-1.011475	-0.308594	-0.387695	0.099756	0.001644	-0.007795	0.384346	0.626255	-0.350468	0.580737	112.007021	-85.401093	5.327081
30067		10.123332	-0.273719	-0.633054	0.766066	0.772438	0.275621	0.307361	0.099880	-0.198425	-1.012207	-0.317871	-0.382568	0.101227	-0.002828	-0.006385	0.384130	0.626921	-0.348751	0.581195	111.028169	-85.314059	6.487246
30068		10.048854	-0.217618	-0.585526	0.741653	0.724110	0.202063	0.399514	0.161534	-0.192619	-1.007080	-0.312744	-0.391357	0.100482	-0.002261	-0.005941	0.383713	0.627570	-0.346665	0.582017	109.754501	-85.240886	7.996356
30069		9.884064	-0.180823	-0.865810	0.571736	0.974901	0.046303	0.424876	0.154429	-0.178805	-1.007568	-0.325195	-0.385498	0.098832	-0.001878	-0.008738	0.383162	0.628263	-0.344559	0.582882	108.614958	-85.170988	9.385596
30070		9.912697	0.053593	-0.793990	0.406635	0.820494	0.089649	0.436704	0.127653	-0.157924	-0.999023	-0.322510	-0.386475	0.099122	0.000475	-0.008002	0.382464	0.629015	-0.342535	0.583721	107.730344	-85.105930	10.525943
30071		10.058585	0.008570	-0.594634	0.557356	0.685507	0.224653	0.378331	0.136486	-0.142923	-1.003174	-0.327148	-0.388184	0.100582	0.000025	-0.006015	0.381920	0.629603	-0.340709	0.584513	106.813174	-85.048778	11.665484
30072		10.201150	-0.071392	-0.487654	0.693520	0.650069	0.356028	0.361594	0.149589	-0.119713	-0.999268	-0.330811	-0.392822	0.102007	-0.000766	-0.004954	0.381380	0.630076	-0.338979	0.585360	105.868075	-85.005236	12.823540
30073		10.267795	-0.080088	-0.498600	0.701395	0.683309	0.420775	0.327547	0.164013	-0.077777	-0.997803	-0.336914	-0.391602	0.102673	-0.000833	-0.005072	0.380849	0.630370	-0.337452	0.586271	104.902070	-84.985070	13.983037
30074		10.395875	-0.021222	-0.448069	0.680269	0.630884	0.551416	0.309473	0.181743	-0.027158	-1.000977	-0.336182	-0.398926	0.103955	-0.000219	-0.004575	0.380254	0.630489	-0.336103	0.587304	103.900358	-84.994139	15.168011
30075		10.381331	0.050709	-0.290188	0.682422	0.474883	0.539489	0.264423	0.214093	0.028173	-1.002197	-0.329346	-0.398438	0.103810	0.000526	-0.003012	0.379692	0.630333	-0.334997	0.588465	102.742853	-85.036031	16.483395
30076		10.153911	0.039729	-0.246746	0.678476	0.453872	0.311442	0.238192	0.235887	0.068926	-1.001709	-0.338623	-0.390381	0.101536	0.000435	-0.002587	0.379128	0.629992	-0.334056	0.589728	101.460380	-85.101313	17.909039
30077		9.962180	0.068265	-0.322727	0.581985	0.516657	0.124523	0.200916	0.226724	0.101201	-0.999512	-0.337891	-0.394287	0.099618	0.000736	-0.003339	0.378571	0.629554	-0.333341	0.590957	100.221257	-85.180677	19.269569
30078		9.774462	0.244499	-0.444920	0.333604	0.545889	-0.045984	0.192163	0.248445	0.104871	-1.002686	-0.330322	-0.395508	0.097738	0.002501	-0.004568	0.378064	0.629025	-0.332624	0.592248	98.788871	-85.261875	20.818865
30079		9.641882	0.231515	-0.462132	0.304517	0.578551	-0.179124	0.103482	0.257030	0.118402	-0.998291	-0.342529	-0.405762	0.096411	0.002375	-0.004744	0.377811	0.628280	-0.332192	0.593440	97.207541	-85.347606	22.466415
30080		9.841138	0.405119	-0.337191	0.209063	0.404391	0.032034	0.085695	0.226560	0.125065	-0.996094	-0.336426	-0.408936	0.098405	0.004114	-0.003482	0.377540	0.627579	-0.331894	0.594520	95.777699	-85.432008	23.951582
30081		10.195954	0.732137	0.081288	0.136881	-0.095731	0.408475	0.058550	0.244599	0.130730	-0.994385	-0.339355	-0.400879	0.101956	0.007388	0.000690	0.377370	0.626764	-0.331657	0.595620	94.151213	-85.516902	25.618211
30082		10.641271	0.867783	0.568984	0.268586	-0.557354	0.861140	0.002581	0.229502	0.147956	-0.993408	-0.326416	-0.404541	0.106413	0.008756	0.005568	0.377295	0.625856	-0.331671	0.596613	92.546840	-85.607832	27.230316
30083		11.677660	1.283419	0.771074	0.055048	-0.897629	1.926164	0.000615	0.077601	0.199286	-0.993652	-0.335449	-0.405029	0.116767	0.012951	0.007665	0.376823	0.625314	-0.332135	0.597221	92.045633	-85.721920	27.734719
30084		12.688034	2.197881	-0.447282	-1.301220	-0.272784	3.003288	0.151225	-0.033430	0.290391	-0.992432	-0.329102	-0.399902	0.126849	0.022166	-0.004435	0.375422	0.625233	-0.332645	0.597905	92.506174	-85.886041	27.361242
30085		12.225005	1.907534	-1.721501	-1.756719	0.948274	2.518875	0.016948	0.235327	0.399426	-0.993896	-0.332275	-0.403564	0.122191	0.019321	-0.017357	0.374561	0.623914	-0.333390	0.599405	90.705803	-86.116848	29.177141
30086		10.744277	-0.725609	-2.141593	0.169632	2.576954	0.858897	-0.230543	0.334523	0.426318	-0.999268	-0.324707	-0.416260	0.107422	-0.007052	-0.021587	0.374553	0.621784	-0.334773	0.600851	87.633049	-86.357049	32.125571
30087		10.609154	-1.634659	-1.199173	1.374113	2.207162	0.670844	0.012255	0.133375	0.309625	-0.987061	-0.317139	-0.410889	0.106109	-0.016182	-0.012063	0.373804	0.620906	-0.335438	0.601854	86.292970	-86.528547	33.476674
30088		11.081944	-0.693187	-0.405515	0.942476	1.067324	1.206700	0.140848	0.166178	0.237020	-0.997559	-0.316895	-0.418457	0.110824	-0.006798	-0.004152	0.372925	0.620288	-0.335430	0.603039	84.631985	-86.655271	35.222860
30089		10.189528	-0.699638	-0.888444	0.628941	1.480134	0.312464	0.248935	0.506920	0.131200	-0.994629	-0.321533	-0.422607	0.101877	-0.006918	-0.009151	0.372603	0.619020	-0.334129	0.605259	79.684545	-86.688691	40.322920
30090		8.672189	-0.850354	-0.333865	0.935022	1.056883	-1.207459	0.373227	0.524254	0.061812	-0.987793	-0.314209	-0.423340	0.086715	-0.008470	-0.003582	0.372128	0.618040	-0.332204	0.607608	74.759932	-86.655967	45.471461
30091		8.686797	-1.401419	0.920130	2.021023	0.269642	-1.203751	0.144264	0.041394	0.168315	-0.988770	-0.320557	-0.416992	0.086882	-0.013948	0.009173	0.371236	0.617922	-0.332198	0.608277	74.036293	-86.741305	46.280501
30092		9.984141	-1.821138	1.011184	2.467655	0.440594	0.073595	0.208937	-0.229463	0.259512	-0.990234	-0.317627	-0.426270	0.099853	-0.018092	0.010207	0.369412	0.618593	-0.332782	0.608386	75.787045	-86.918462	44.648384
30093		10.575649	-0.923638	0.534415	1.458340	0.399371	0.708564	0.449243	-0.026152	0.288812	-0.995605	-0.320068	-0.423340	0.105769	-0.009096	0.005337	0.367096	0.619038	-0.332345	0.609573	75.583473	-87.081289	45.111389
30094		10.282914	0.206254	0.451713	0.405900	-0.122601	0.473469	0.434707	0.176743	0.304772	-0.996582	-0.318848	-0.414795	0.102830	0.002210	0.004431	0.365106	0.618806	-0.331630	0.611391	72.963124	-87.221414	47.985772
30095		9.623662	0.642009	0.465579	-0.014179	-0.380786	-0.163930	0.447658	0.224757	0.288698	-0.994385	-0.314941	-0.415771	0.096232	0.006549	0.004562	0.363206	0.618473	-0.330732	0.613342	69.584788	-87.335736	51.626100
30096		8.767455	0.642093	0.337260	-0.133378	-0.297426	-1.021328	0.535583	0.257659	0.217977	-0.994873	-0.313965	-0.417969	0.087672	0.006508	0.003277	0.361299	0.618309	-0.329286	0.615409	65.939011	-87.395167	55.584353
30097		8.155982	0.638383	0.624448	-0.015168	-0.559458	-1.627074	0.530614	0.140055	0.195053	-1.000732	-0.321045	-0.420410	0.081558	0.006447	0.006204	0.359284	0.618532	-0.327991	0.617054	63.620148	-87.461308	58.211282
30098		8.002897	0.578466	1.026746	0.232842	-0.881904	-1.775076	0.448632	-0.048612	0.236456	-0.993408	-0.324951	-0.420410	0.080020	0.005856	0.010300	0.357079	0.619115	-0.327416	0.618053	63.094662	-87.594688	58.995958
30099		8.102795	0.684362	1.030031	0.138137	-0.952138	-1.672729	0.517142	-0.062289	0.275651	-0.991699	-0.322754	-0.417236	0.081015	0.006929	0.010343	0.354520	0.619796	-0.326770	0.619186	62.453887	-87.750755	59.935209
30100		8.187600	0.914404	0.840848	-0.167659	-0.928105	-1.585268	0.615590	0.018107	0.305906	-1.002930	-0.306152	-0.404297	0.081863	0.009243	0.008429	0.351686	0.620344	-0.325769	0.620778	60.413338	-87.899574	62.331626
30101		8.354917	1.080171	0.765375	-0.361203	-0.962552	-1.416248	0.666361	0.076124	0.331449	-0.986816	-0.314941	-0.417480	0.083534	0.010915	0.007658	0.348708	0.620754	-0.324581	0.622667	57.032470	-88.038776	66.098054
30102		8.805466	0.969937	1.053354	-0.127254	-1.139887	-0.965599	0.607031	0.155943	0.368393	-1.003662	-0.316650	-0.409180	0.088045	0.009830	0.010495	0.345922	0.620741	-0.323552	0.624766	51.542765	-88.158184	71.940174
30103		8.872793	0.428735	0.699399	0.100462	-0.548098	-0.919496	0.585236	0.236842	0.349581	-1.004639	-0.318359	-0.412598	0.088728	0.004422	0.006902	0.343391	0.620463	-0.322385	0.627037	44.532778	-88.216430	79.290546
30104		9.039588	0.633095	0.452202	-0.235932	-0.453938	-0.754119	0.629705	0.168031	0.320281	-1.000732	-0.316162	-0.418701	0.090389	0.006462	0.004466	0.340696	0.620513	-0.321105	0.629111	38.399622	-88.266294	85.788989
30105		9.590616	1.042198	0.734904	-0.437700	-0.912710	-0.190760	0.427046	0.006554	0.309807	-1.000977	-0.322754	-0.407471	0.095890	0.010555	0.007368	0.338403	0.620739	-0.320699	0.630332	33.768935	-88.368338	90.667856
30106		10.383498	1.138004	0.862976	-0.460465	-1.073545	0.603271	0.224390	-0.134474	0.276430	-0.996582	-0.311768	-0.396729	0.103813	0.011514	0.008712	0.336614	0.621115	-0.321066	0.630733	30.541429	-88.518600	94.026599
30107		11.115938	1.478901	0.934642	-0.710574	-1.335743	1.337899	0.197806	-0.153818	0.203409	-1.004883	-0.312500	-0.400635	0.111137	0.014893	0.009447	0.335107	0.621624	-0.321321	0.630903	28.398169	-88.653409	96.285281
30108		11.263275	1.750932	0.727310	-1.055082	-1.339460	1.481060	0.119228	-0.105262	0.094002	-1.003906	-0.308350	-0.400635	0.112621	0.017558	0.007343	0.334266	0.622021	-0.321403	0.630917	27.708439	-88.732738	97.044977
30109		10.653670	2.201069	0.586654	-1.500722	-1.504574	0.872519	0.114246	-0.032267	-0.005870	-1.004150	-0.318604	-0.411133	0.106536	0.022004	0.005896	0.333874	0.622342	-0.321066	0.630980	28.413077	-88.748247	96.407044
30110		9.862885	2.600249	0.603272	-1.806248	-1.769180	0.087271	0.064076	-0.139323	-0.088095	-1.000977	-0.311279	-0.400879	0.098636	0.025957	0.006110	0.333724	0.623046	-0.320812	0.630493	32.452759	-88.792152	92.404546
30111		9.685458	2.670590	0.316112	-2.006660	-1.589603	-0.092271	0.002864	-0.288800	-0.117298	-0.998047	-0.319824	-0.393799	0.096866	0.026649	0.003301	0.333618	0.624167	-0.320907	0.629391	40.087973	-88.886441	84.770815
30112		9.754001	2.416422	0.333355	-1.761451	-1.473501	-0.024084	-0.040408	-0.303749	-0.136522	-1.004639	-0.319824	-0.399658	0.097551	0.024098	0.003477	0.333682	0.625290	-0.321103	0.628141	49.648382	-88.954874	75.187008
30113		9.651021	1.901532	0.428509	-1.259667	-1.272057	-0.130916	-0.080204	-0.227483	-0.140228	-1.009033	-0.321045	-0.379150	0.096519	0.018949	0.004387	0.334004	0.626114	-0.321284	0.627056	58.161685	-88.966441	66.627751
30114		9.365193	1.367838	0.224333	-0.918026	-0.813291	-0.425255	-0.074200	-0.204530	-0.134167	-1.000244	-0.318848	-0.386963	0.093659	0.013616	0.002334	0.334325	0.626863	-0.321426	0.626063	65.924317	-88.952775	58.822777
30115		9.213844	0.923280	0.175851	-0.561134	-0.533095	-0.583431	-0.082746	-0.249643	-0.098855	-1.002686	-0.317139	-0.378418	0.092141	0.009188	0.001870	0.334489	0.627683	-0.321780	0.624971	74.398942	-88.947018	50.300717
30116		9.246691	0.662211	0.059736	-0.392576	-0.303844	-0.555425	-0.055918	-0.271395	-0.059425	-1.004639	-0.329590	-0.387451	0.092468	0.006595	0.000721	0.334410	0.628550	-0.322210	0.623920	83.114371	-88.942650	41.553194
30117		9.189445	0.533386	0.064790	-0.268816	-0.251990	-0.614927	-0.014006	-0.216230	-0.011349	-1.007813	-0.321289	-0.372070	0.091894	0.005329	0.000747	0.334137	0.629237	-0.322567	0.623188	89.934214	-88.942066	34.725567
30118		8.977277	0.415307	0.086524	-0.153971	-0.218877	-0.829379	-0.018586	-0.138657	0.035956	-1.012695	-0.327148	-0.377197	0.089771	0.004169	0.000927	0.333857	0.629597	-0.322958	0.622772	94.378110	-88.957995	30.271719
30119		8.720636	0.539568	0.118878	-0.239223	-0.330416	-1.084094	-0.022730	-0.111750	0.075296	-1.009033	-0.317627	-0.377197	0.087204	0.005429	0.001237	0.333510	0.629804	-0.323440	0.622499	98.278870	-88.991934	26.358712
30120		8.564236	0.636012	0.023976	-0.375983	-0.320193	-1.239046	-0.047678	-0.099332	0.105092	-1.018311	-0.319092	-0.379150	0.085639	0.006405	0.000281	0.333169	0.629880	-0.324073	0.622275	102.204588	-89.039222	22.406506
30121		8.556495	0.918556	-0.028894	-0.641939	-0.449409	-1.242733	-0.068533	-0.095968	0.126188	-1.004883	-0.319092	-0.370117	0.085559	0.009239	-0.000251	0.332833	0.629879	-0.324831	0.622061	106.620421	-89.093495	17.952218
30122		8.604192	1.258901	0.058941	-0.876638	-0.727768	-1.191651	-0.088218	-0.104331	0.149572	-1.014404	-0.317871	-0.380127	0.086032	0.012654	0.000629	0.332473	0.629830	-0.325738	0.621828	112.171828	-89.152484	12.351026
30123		8.673833	1.527612	-0.103274	-1.195031	-0.760230	-1.119381	-0.086116	-0.104929	0.157038	-1.011475	-0.321289	-0.369873	0.086727	0.015344	-0.000994	0.332082	0.629776	-0.326662	0.621608	118.674470	-89.205706	5.799774
30124		8.653839	1.788007	-0.277965	-1.514790	-0.778095	-1.137255	-0.079262	-0.118073	0.154374	-1.011230	-0.318115	-0.373535	0.086526	0.017946	-0.002736	0.331656	0.629776	-0.327578	0.621353	126.380194	-89.241731	-1.950634
30125		8.433184	1.858097	-0.402991	-1.651891	-0.728423	-1.358449	-0.153935	-0.118564	0.154968	-1.013184	-0.309814	-0.372559	0.084320	0.018643	-0.003994	0.331461	0.629653	-0.328728	0.620973	134.696610	-89.262643	-10.354559
30126		8.164320	1.675117	-0.547495	-1.590281	-0.519473	-1.629593	-0.224695	-0.177187	0.156761	-1.018555	-0.310059	-0.375000	0.081635	0.016809	-0.005421	0.331388	0.629590	-0.330200	0.620296	144.822701	-89.240774	-20.608847
30127		8.026115	1.391606	-0.733926	-1.462659	-0.224306	-1.768807	-0.227788	-0.287726	0.155089	-1.014648	-0.314941	-0.366943	0.080261	0.013970	-0.007240	0.331144	0.629866	-0.331858	0.619259	155.893560	-89.138546	-31.809927
30128		8.144070	1.235392	-1.127615	-1.546620	0.162832	-1.645377	-0.209243	-0.378571	0.136972	-1.018311	-0.304443	-0.366699	0.081453	0.012398	-0.011135	0.330748	0.630481	-0.333550	0.617935	164.572292	-88.958362	-40.608304
30129		8.232717	1.120903	-1.297224	-1.535065	0.335371	-1.551462	-0.233663	-0.442988	0.152863	-1.026123	-0.305176	-0.363525	0.082347	0.011257	-0.012803	0.330269	0.631225	-0.335474	0.616389	171.247304	-88.726000	-47.417167
30130		8.558369	0.678791	-1.487318	-1.257000	0.699362	-1.219127	-0.343094	-0.449655	0.177870	-1.026123	-0.298096	-0.353516	0.085611	0.006839	-0.014692	0.330046	0.631761	-0.337820	0.614675	176.282910	-88.478927	-52.649521
30131		8.770457	0.101670	-1.198777	-0.601905	0.737167	-1.011410	-0.410224	-0.434270	0.199112	-1.015869	-0.292969	-0.348389	0.087729	0.001080	-0.011799	0.329991	0.632098	-0.340413	0.612925	-179.772405	-88.231688	-56.829557
30132		8.965743	-0.346829	-0.971851	-0.087767	0.747726	-0.819226	-0.377597	-0.478810	0.206339	-1.029541	-0.288818	-0.350586	0.089684	-0.003394	-0.009497	0.329732	0.632606	-0.342997	0.611096	-176.748650	-87.952189	-60.070037
30133		9.387212	-0.185500	-0.760868	-0.086759	0.421058	-0.402692	-0.264138	-0.538875	0.204432	-1.029053	-0.285156	-0.345947	0.093894	-0.001769	-0.007353	0.329014	0.633482	-0.345326	0.609262	-174.525347	-87.633693	-62.445031
30134		9.813969	-0.020237	-0.779974	-0.215844	0.279282	0.025907	-0.231960	-0.491433	0.227379	-1.040527	-0.286377	-0.341553	0.098159	-0.000100	-0.007558	0.328203	0.634221	-0.347547	0.607666	-172.481383	-87.337717	-64.622678
30135		9.988115	0.086030	-1.053846	-0.444632	0.395732	0.213576	-0.143510	-0.380974	0.245617	-1.038330	-0.287354	-0.329102	0.099900	0.000976	-0.010349	0.327245	0.634733	-0.349374	0.606599	-170.406549	-87.099366	-66.780873
30136		9.940221	0.436333	-0.725259	-0.563110	-0.109339	0.146992	-0.081358	-0.309974	0.252300	-1.027344	-0.275635	-0.334229	0.099408	0.004486	-0.007100	0.326193	0.635117	-0.350914	0.605874	-168.406655	-86.896866	-68.828698
30137		10.017331	0.360132	-0.421054	-0.337504	-0.367572	0.207530	-0.219535	-0.323784	0.279067	-1.039063	-0.280273	-0.324463	0.100175	0.003737	-0.004052	0.325471	0.635267	-0.352981	0.604904	-166.504359	-86.679639	-70.858561
30138		10.294569	-0.038610	-0.301953	0.061671	-0.311157	0.481487	-0.249057	-0.329270	0.303570	-1.038330	-0.273682	-0.324463	0.102951	-0.000233	-0.002850	0.324759	0.635339	-0.355220	0.603900	-164.659337	-86.452442	-72.848445
30139		10.564429	-0.118933	-0.405437	0.068951	-0.240659	0.757216	-0.253167	-0.267568	0.329362	-1.045166	-0.271240	-0.318115	0.105651	-0.001020	-0.003912	0.324089	0.635167	-0.357452	0.603123	-162.672584	-86.250979	-74.983173
30140		10.680666	0.129315	-0.935538	-0.437492	0.024892	0.900687	-0.243820	-0.228559	0.367188	-1.041260	-0.258057	-0.322510	0.106815	0.001478	-0.009235	0.323343	0.634822	-0.359709	0.602544	-160.491658	-86.059243	-77.307568
30141		10.830630	0.456768	-1.102484	-0.822559	-0.056758	1.052241	-0.296821	-0.172313	0.404199	-1.046387	-0.258057	-0.316895	0.108306	0.004770	-0.010939	0.322752	0.634151	-0.362152	0.602104	-158.111219	-85.883917	-79.862981
30142		10.898597	0.657572	-1.019272	-0.977009	-0.269481	1.106260	-0.410830	-0.065667	0.431555	-1.043701	-0.236816	-0.320801	0.108975	0.006790	-0.010171	0.322633	0.632920	-0.364848	0.601835	-155.473462	-85.751084	-82.742457
30143		10.925501	0.729828	-0.882886	-1.002638	-0.446762	1.117714	-0.454084	0.024131	0.425622	-1.042236	-0.245117	-0.318115	0.109238	0.007511	-0.008859	0.322827	0.631354	-0.367509	0.601757	-152.762094	-85.656174	-85.720960
30144		10.954341	0.787428	-1.072672	-1.189422	-0.329549	1.152931	-0.476057	0.096853	0.383033	-1.040283	-0.231689	-0.324463	0.109523	0.008058	-0.010799	0.323351	0.629607	-0.369980	0.601793	-150.197710	-85.599597	-88.565072
30145		10.888106	0.816785	-1.512408	-1.478844	0.033246	1.110553	-0.477998	0.147373	0.323683	-1.043945	-0.232422	-0.328369	0.108856	0.008308	-0.015224	0.324149	0.627808	-0.372185	0.601883	-147.876955	-85.575927	-91.166004
30146		10.864386	0.949073	-1.674148	-1.706825	0.112355	1.087424	-0.522760	0.176050	0.263611	-1.041260	-0.234619	-0.326660	0.108616	0.009590	-0.016862	0.325321	0.625957	-0.374285	0.601877	-145.861285	-85.577552	-93.486747
30147		10.830983	1.170513	-0.936588	-1.550426	-0.616715	0.993479	-0.632998	0.203250	0.219540	-1.040039	-0.223633	-0.334229	0.108287	0.011794	-0.009513	0.327015	0.623920	-0.376533	0.601671	-144.052169	-85.600188	-95.663590
30148		12.164545	1.020835	1.581124	-0.201595	-2.801850	2.171760	-0.959692	0.153054	0.232717	-1.028320	-0.215820	-0.342285	0.121645	0.010425	0.015668	0.329591	0.621464	-0.379877	0.600704	-142.567774	-85.590730	-97.702465
30149		14.467476	-1.175681	1.789051	1.744768	-2.059248	4.561107	-0.486406	0.279225	0.034779	-1.030029	-0.210693	-0.343262	0.144702	-0.011688	0.017717	0.331522	0.619775	-0.380973	0.600693	-141.376180	-85.704128	-99.175596
30150		13.948376	-2.708711	0.057437	2.199130	0.301792	4.221883	-0.108505	0.866082	-0.138410	-1.035156	-0.216309	-0.352783	0.139466	-0.027184	-0.000015	0.333919	0.617271	-0.379416	0.602925	-137.811842	-86.133773	-102.809914
30151		10.260476	-1.633239	-3.484678	-0.446997	3.193430	0.660586	0.067957	0.682145	-0.286645	-1.029541	-0.215088	-0.351807	0.102462	-0.016467	-0.035202	0.335861	0.615887	-0.377174	0.604666	-135.487673	-86.530673	-105.098418
30152		8.952434	1.350385	-3.590947	-3.062729	1.947544	-0.774373	-0.186646	-0.065996	-0.392526	-1.037842	-0.215332	-0.354248	0.089562	0.013295	-0.035892	0.337495	0.616531	-0.376626	0.603440	-138.840487	-86.656088	-101.845413
30153		9.540331	1.987556	-1.407333	-2.535122	-0.269997	-0.302220	-0.933067	0.164555	-0.088763	-1.030518	-0.217041	-0.362061	0.095400	0.019767	-0.014244	0.340941	0.614639	-0.378874	0.602023	-139.006129	-86.760353	-102.213585
30154		9.069535	-0.496678	-0.910618	-0.120733	0.564237	-0.702302	-1.010060	0.717592	-0.034543	-1.039551	-0.218750	-0.369873	0.090661	-0.005029	-0.009406	0.345500	0.610832	-0.380564	0.602234	-134.679374	-87.074298	-107.124776
30155		8.894869	-1.605814	-1.289153	0.664746	1.490438	-0.829615	-0.143446	0.728965	-0.176432	-1.026855	-0.211426	-0.385498	0.088887	-0.016146	-0.013204	0.347849	0.608739	-0.379184	0.603868	-129.782189	-87.430271	-112.108447
30156		9.537111	-0.574767	-1.576255	-0.397396	1.288357	-0.223452	0.240556	0.442689	-0.276133	-1.019531	-0.213867	-0.382568	0.095328	-0.005860	-0.015981	0.348787	0.608363	-0.376833	0.605177	-127.356520	-87.712712	-114.396957
30157		10.058575	-0.353696	-2.203776	-0.897457	1.765399	0.298416	-0.049435	0.407334	-0.211812	-1.015625	-0.222656	-0.380615	0.100537	-0.003649	-0.022242	0.350340	0.607461	-0.375616	0.605942	-124.329966	-87.948175	-117.452617
30158		10.239313	-1.383088	-1.695101	0.246037	1.845446	0.490876	-0.151487	0.452855	-0.168426	-1.015381	-0.218262	-0.397705	0.102343	-0.013930	-0.017172	0.352158	0.606159	-0.374756	0.606724	-119.501696	-88.168274	-122.369121
30159		10.427611	-1.933515	-0.601460	1.244301	1.178849	0.670499	0.067937	0.296351	-0.205423	-1.018799	-0.217529	-0.398926	0.104247	-0.019440	-0.006176	0.353126	0.605783	-0.373394	0.607377	-116.418442	-88.352583	-125.413448
30160		10.752417	-2.089162	-0.454556	1.452320	1.148869	0.992704	0.429313	0.112930	-0.222542	-1.013916	-0.217041	-0.389404	0.107498	-0.021001	-0.004651	0.352708	0.606632	-0.371203	0.608114	-116.212090	-88.496554	-125.372441
30161		11.131450	-1.732621	-0.373113	1.180835	0.929550	1.358340	0.602007	0.117404	-0.214572	-1.015381	-0.231201	-0.399902	0.111294	-0.017434	-0.003849	0.351747	0.607751	-0.368502	0.609195	-115.693152	-88.637292	-125.545106
30162		11.684248	-1.773302	0.652017	1.706384	0.079763	1.899404	0.481169	0.295260	-0.172524	-1.011475	-0.232666	-0.395264	0.116837	-0.017849	0.006305	0.351350	0.608034	-0.365979	0.610661	-110.300527	-88.795602	-130.661941
30163		11.669846	-2.673614	1.050674	2.679489	0.229882	1.900743	0.506806	0.506631	-0.146766	-1.009277	-0.238281	-0.408691	0.116705	-0.026848	0.010143	0.351178	0.607661	-0.363082	0.612857	-96.759031	-88.947532	-143.914192
30164		10.569120	-2.676912	0.145455	2.239396	1.108514	0.800940	0.844179	0.504329	-0.209487	-0.998291	-0.239258	-0.405273	0.105666	-0.026885	0.001075	0.350163	0.607991	-0.358957	0.615535	-79.472969	-89.061156	-160.717676
30165		9.635269	-0.924243	-1.019568	0.145508	1.309189	-0.169197	1.066678	0.212764	-0.282294	-1.006836	-0.253662	-0.406006	0.096329	-0.009323	-0.010348	0.348161	0.609720	-0.354427	0.617582	-68.343382	-89.185440	-171.235917
30166		9.749320	1.072507	-1.537897	-1.836491	0.760386	-0.085728	0.939815	0.034030	-0.199830	-0.999023	-0.254150	-0.409180	0.097501	0.010700	-0.015345	0.345966	0.611618	-0.350841	0.618984	-63.014307	-89.284255	-176.025552
30167		9.796693	1.882719	-1.536821	-2.533363	0.346629	-0.048286	0.477510	0.260376	-0.023832	-1.005859	-0.254150	-0.401367	0.097949	0.018852	-0.015451	0.345031	0.611697	-0.348827	0.620564	-52.555959	-89.218426	173.790231
30168		9.487432	1.226894	-0.997910	-1.706394	0.242982	-0.350048	0.223536	0.369189	0.051903	-1.005127	-0.252441	-0.400146	0.094853	0.012305	-0.010140	0.344826	0.610866	-0.347643	0.622160	-43.320606	-89.056832	164.683316
30169		9.394446	0.935052	-0.887289	-1.414895	0.318791	-0.441795	0.311477	0.221526	-0.003364	-0.998779	-0.254883	-0.410156	0.093935	0.009363	-0.008962	0.344266	0.610737	-0.346270	0.623360	-38.246650	-88.964380	159.788497
30170		9.774007	1.402551	-0.930584	-1.848015	0.123456	-0.069282	0.371883	0.112123	-0.062222	-0.992432	-0.256836	-0.410889	0.097739	0.014012	-0.009335	0.343515	0.611155	-0.344715	0.624226	-34.367489	-88.936463	156.123173
30171		10.194701	1.501011	-0.490850	-1.707506	-0.290342	0.357170	0.184779	0.123537	-0.068010	-1.005615	-0.265869	-0.409912	0.101949	0.014980	-0.004958	0.343372	0.611223	-0.343707	0.624794	-30.481941	-88.900025	152.344224
30172		10.332252	1.168207	0.217727	-1.051367	-0.702957	0.510491	0.086172	0.103624	-0.089534	-0.999512	-0.266357	-0.418945	0.103329	0.011635	0.002129	0.343564	0.611222	-0.342974	0.625092	-26.608996	-88.875117	148.521309
30173		10.353308	0.861599	0.651411	-0.555655	-0.897949	0.543113	0.056632	0.026718	-0.118346	-0.995605	-0.261963	-0.418457	0.103539	0.008553	0.006503	0.343803	0.611458	-0.342378	0.625057	-23.045598	-88.892051	144.991090
30174		10.500498	0.570689	0.957226	-0.139234	-0.992628	0.699102	-0.024585	0.030794	-0.131866	-1.001221	-0.263672	-0.417969	0.105010	0.005639	0.009555	0.344340	0.611566	-0.341986	0.624869	-18.998664	-88.905321	140.930694
30175		10.248940	0.307747	1.303807	0.279028	-1.136711	0.456947	-0.071600	0.118436	-0.148524	-1.003418	-0.268066	-0.416748	0.102499	0.003006	0.012976	0.345222	0.611346	-0.341540	0.624842	-13.795143	-88.866408	135.686560
30176		9.855633	0.272809	1.535416	0.441790	-1.299761	0.070674	-0.106646	0.176253	-0.173643	-1.005371	-0.272949	-0.416504	0.098572	0.002651	0.015266	0.346389	0.610928	-0.341026	0.624886	-8.064394	-88.788364	129.894880
30177		9.481814	0.237614	1.647209	0.539800	-1.357974	-0.297488	-0.177459	0.203537	-0.203867	-0.995361	-0.263428	-0.423340	0.094837	0.002294	0.016374	0.347911	0.610351	-0.340593	0.624841	-2.338581	-88.684623	124.067379
30178		9.249473	0.167224	1.835523	0.707147	-1.460801	-0.522057	-0.246861	0.179575	-0.245163	-0.994629	-0.258057	-0.428223	0.092513	0.001581	0.018270	0.349734	0.609798	-0.340290	0.624528	3.457105	-88.582139	118.129956
30179		9.102048	0.232069	1.705158	0.594473	-1.362989	-0.669521	-0.263870	0.154944	-0.289364	-0.994873	-0.266846	-0.432129	0.091037	0.002211	0.016978	0.351702	0.609362	-0.339949	0.624034	9.414402	-88.476779	112.020869
30180		8.800779	0.289492	1.244819	0.321824	-0.983104	-0.979967	-0.269669	0.148231	-0.332440	-0.993896	-0.264160	-0.430420	0.088022	0.002765	0.012379	0.353810	0.609010	-0.339503	0.623429	15.416239	-88.354076	105.863556
30181		8.651904	0.039670	1.117164	0.486930	-0.724369	-1.132642	-0.323284	0.120203	-0.354397	-0.999023	-0.279053	-0.431885	0.086526	0.000261	0.011119	0.356099	0.608682	-0.339207	0.622606	21.047043	-88.226137	100.046343
30182		8.803127	-0.325554	1.308420	0.917522	-0.673151	-0.979911	-0.324873	0.088210	-0.375332	-0.991211	-0.274414	-0.433594	0.088031	-0.003400	0.013051	0.358403	0.608484	-0.338905	0.621642	26.440619	-88.093955	94.465163
30183		9.026211	-0.267122	1.541240	1.008253	-0.873480	-0.749596	-0.301679	0.108406	-0.391267	-0.986328	-0.273193	-0.434326	0.090265	-0.002825	0.015368	0.360716	0.608287	-0.338446	0.620746	31.139763	-87.932155	89.591648
30184		9.196307	-0.094433	1.934389	1.082821	-1.269413	-0.563966	-0.316534	0.111559	-0.402159	-0.992432	-0.273926	-0.436279	0.091972	-0.001099	0.019294	0.363113	0.608068	-0.337990	0.619811	35.222409	-87.752780	85.326024
30185		9.267346	-0.021520	2.034943	1.094041	-1.367084	-0.487494	-0.348251	0.079684	-0.410815	-0.985107	-0.276855	-0.443359	0.092681	-0.000370	0.020313	0.365574	0.607900	-0.337663	0.618706	39.010383	-87.574624	81.336609
30186		9.347201	0.202098	1.753372	0.785563	-1.212799	-0.410707	-0.334410	0.023770	-0.434648	-0.980957	-0.284424	-0.451416	0.093478	0.001847	0.017519	0.367973	0.607966	-0.337319	0.617405	42.962403	-87.400830	77.190409
30187		9.570928	0.610597	1.562675	0.370392	-1.224912	-0.180464	-0.325431	-0.048789	-0.443373	-0.985840	-0.279297	-0.438965	0.095719	0.005919	0.015640	0.370244	0.608283	-0.337053	0.615879	47.090898	-87.240815	72.872145
30188		9.905510	0.898185	1.728256	0.244100	-1.483379	0.169928	-0.349825	-0.130623	-0.422908	-0.978271	-0.288086	-0.444092	0.099063	0.008803	0.017332	0.372387	0.608767	-0.337071	0.614096	51.299218	-87.105728	68.459434
30189		10.219265	0.801397	1.858450	0.435252	-1.528201	0.483161	-0.382782	-0.192013	-0.388229	-0.990234	-0.281494	-0.436523	0.102190	0.007851	0.018667	0.374415	0.609315	-0.337410	0.612130	55.417911	-86.992517	64.117073
30190		10.358085	0.732239	1.838523	0.523916	-1.468606	0.616832	-0.361106	-0.165789	-0.349610	-0.988037	-0.284912	-0.441406	0.103578	0.007175	0.018458	0.376304	0.609753	-0.337746	0.610348	58.778511	-86.874998	60.545871
30191		10.134274	0.464019	1.290711	0.514597	-0.867878	0.364084	-0.324638	-0.116533	-0.314514	-0.976563	-0.294189	-0.439941	0.101342	0.004502	0.012959	0.378052	0.610047	-0.337986	0.608840	61.292988	-86.751605	57.842615
30192		9.731545	0.419697	1.265858	0.557347	-0.839624	-0.042025	-0.261442	-0.104633	-0.294084	-0.980957	-0.297607	-0.446289	0.097315	0.004070	0.012704	0.379566	0.610385	-0.338068	0.607511	63.453933	-86.628966	55.529422
30193		9.863358	0.131265	1.470867	0.940682	-0.874429	0.077557	-0.270264	-0.198626	-0.252721	-0.985352	-0.286865	-0.437988	0.098620	0.001208	0.014805	0.380818	0.610921	-0.338483	0.605956	66.101410	-86.545655	52.723523
30194		10.201187	-0.221625	1.087432	1.104050	-0.360515	0.382747	-0.223466	-0.189576	-0.209851	-0.982178	-0.293945	-0.431396	0.101999	-0.002311	0.010974	0.381814	0.611442	-0.338866	0.604588	68.415052	-86.475418	50.278715
30195		10.172244	-0.454740	0.887219	1.232494	-0.079676	0.333399	-0.200877	-0.077407	-0.152513	-0.988037	-0.296143	-0.438477	0.101715	-0.004616	0.008916	0.382754	0.611570	-0.339144	0.603708	69.508504	-86.408820	49.069239
30196		9.889535	-0.766394	0.742341	1.438990	0.180155	0.027952	-0.189466	-0.073803	-0.096015	-0.983887	-0.293213	-0.436279	0.098889	-0.007704	0.007467	0.383497	0.611610	-0.339550	0.602966	70.362112	-86.370261	48.106567
30197		9.630236	-0.888030	0.631305	1.492377	0.316487	-0.241835	-0.195998	-0.113288	-0.049218	-0.984131	-0.302246	-0.435303	0.096297	-0.008898	0.006376	0.384048	0.611679	-0.340197	0.602181	71.398188	-86.363844	46.957284
30198		9.246659	-1.025156	0.434300	1.510895	0.527253	-0.637751	-0.173848	-0.107852	-0.022385	-0.985107	-0.297607	-0.433105	0.092463	-0.010258	0.004402	0.384462	0.611725	-0.340846	0.601503	72.318252	-86.369492	45.936964
30199		8.801138	-0.947450	0.247330	1.341070	0.624365	-1.081676	-0.147975	-0.127806	-0.004577	-0.980713	-0.293457	-0.431641	0.088010	-0.009475	0.002537	0.384707	0.611852	-0.341512	0.600839	73.387740	-86.387466	44.781788
30200		8.673616	-0.912437	0.175295	1.277587	0.652419	-1.208212	-0.151262	-0.180614	0.004551	-0.987549	-0.293945	-0.437744	0.086735	-0.009121	0.001838	0.384845	0.612113	-0.342315	0.600027	74.904003	-86.416830	43.177097
30201		8.766511	-0.664356	0.219432	1.091959	0.484513	-1.099819	-0.119619	-0.207436	0.013760	-0.986572	-0.291992	-0.430908	0.087663	-0.006636	0.002289	0.384811	0.612500	-0.343104	0.599202	76.689755	-86.452416	41.320618
30202		8.833313	-0.586593	-0.017190	0.923303	0.641290	-1.031570	-0.120093	-0.224710	0.025688	-0.982178	-0.295654	-0.426514	0.088334	-0.005855	-0.000069	0.384714	0.612915	-0.343963	0.598348	78.640378	-86.492833	39.298757
30203		8.972285	-0.468625	-0.163497	0.765555	0.700400	-0.886794	-0.120432	-0.246735	0.032650	-0.984863	-0.297607	-0.426758	0.089726	-0.004673	-0.001521	0.384556	0.613384	-0.344887	0.597436	80.835720	-86.535066	37.031620
30204		9.155479	-0.405096	-0.343060	0.643442	0.814207	-0.700740	-0.155717	-0.257405	0.031606	-0.989990	-0.290771	-0.431885	0.091560	-0.004039	-0.003310	0.384493	0.613816	-0.345931	0.596428	83.158539	-86.571985	34.616627
30205		9.212868	-0.232318	-0.527381	0.416868	0.878354	-0.633160	-0.152631	-0.214400	0.022463	-0.989746	-0.296143	-0.426025	0.092135	-0.002317	-0.005173	0.384519	0.614142	-0.346857	0.595538	85.130585	-86.595801	32.554869
30206		9.115682	0.148228	-0.602887	0.048712	0.748863	-0.706760	-0.178495	-0.187499	0.016939	-0.987793	-0.289307	-0.415039	0.091162	0.001485	-0.005945	0.384688	0.614344	-0.347789	0.594675	86.850234	-86.611372	30.731145
30207		8.945093	0.356648	-0.670501	-0.168476	0.692919	-0.863781	-0.218984	-0.174375	0.024662	-0.996826	-0.293457	-0.419678	0.089456	0.003570	-0.006631	0.384980	0.614417	-0.348840	0.593795	88.437981	-86.627959	29.016348
30208		8.725652	0.428597	-0.831561	-0.311127	0.783993	-1.077658	-0.216072	-0.159108	0.016385	-0.996338	-0.283691	-0.416992	0.087263	0.004284	-0.008251	0.385314	0.614462	-0.349827	0.592951	89.887782	-86.636985	27.441442
30209		8.536434	0.509624	-0.850130	-0.394045	0.747222	-1.260523	-0.187010	-0.160769	-0.003393	-0.997314	-0.289307	-0.413330	0.085371	0.005087	-0.008437	0.385613	0.614603	-0.350670	0.592112	91.378256	-86.632288	25.842464
30210		8.349347	0.426604	-0.974134	-0.378446	0.880717	-1.450653	-0.161690	-0.153689	-0.023799	-0.989746	-0.279297	-0.418457	0.083501	0.004248	-0.009681	0.385907	0.614806	-0.351360	0.591300	92.794376	-86.613689	24.332479
30211		8.171697	0.110974	-1.024446	-0.121145	1.056141	-1.645171	-0.157524	-0.141508	-0.036238	-1.000244	-0.279785	-0.425293	0.081724	0.001087	-0.010187	0.386246	0.615003	-0.351977	0.590507	94.075271	-86.586284	22.960316
30212		8.146328	-0.329770	-1.060114	0.263588	1.279525	-1.695509	-0.150017	-0.136628	-0.058747	-0.998047	-0.290039	-0.418701	0.081470	-0.003330	-0.010543	0.386636	0.615237	-0.352492	0.589699	95.268427	-86.544536	21.680298
30213		8.387280	-0.446152	-0.903413	0.463465	1.191351	-1.462385	-0.099801	-0.116458	-0.088328	-1.001465	-0.290527	-0.405518	0.083876	-0.004503	-0.008983	0.386994	0.615562	-0.352729	0.588983	96.245933	-86.485600	20.645098
30214		8.526520	-0.708678	-0.787887	0.769375	1.205144	-1.340367	-0.089110	-0.094242	-0.089970	-0.999268	-0.280762	-0.413818	0.085266	-0.007129	-0.007836	0.387363	0.615844	-0.352886	0.588352	96.988814	-86.426332	19.851069
30215		8.614448	-1.060064	-0.739765	1.120886	1.319647	-1.275601	-0.039501	-0.070760	-0.108332	-0.998535	-0.293457	-0.412598	0.086141	-0.010649	-0.007365	0.387674	0.616186	-0.352795	0.587843	97.506028	-86.357714	19.311554
30216		8.643474	-0.989142	-0.716190	1.081612	1.266790	-1.243771	0.069724	-0.057861	-0.123637	-0.997314	-0.288086	-0.417969	0.086431	-0.009942	-0.007140	0.387716	0.616727	-0.352311	0.587538	97.931770	-86.281257	18.926367
30217		8.761619	-0.899492	-0.818748	0.973735	1.320561	-1.120544	0.106743	-0.065067	-0.115616	-0.992432	-0.293945	-0.407471	0.087614	-0.009041	-0.008164	0.387608	0.617348	-0.351756	0.587290	98.436207	-86.208428	18.483540
30218		8.933498	-0.720084	-0.959478	0.771815	1.368297	-0.936959	0.130438	-0.064788	-0.114993	-0.999268	-0.292725	-0.418945	0.089334	-0.007246	-0.009571	0.387424	0.618011	-0.351134	0.587087	98.932979	-86.135918	18.061974
30219		9.051331	-0.512391	-0.984015	0.594397	1.298077	-0.806073	0.112998	-0.063507	-0.115938	-0.993164	-0.289551	-0.406006	0.090513	-0.005171	-0.009814	0.387299	0.618639	-0.350556	0.586853	99.392782	-86.062564	17.667401
30220		9.055036	-0.344840	-1.061369	0.421190	1.290470	-0.790694	0.107486	-0.056783	-0.107366	-1.003418	-0.292969	-0.395752	0.090551	-0.003491	-0.010590	0.387177	0.619219	-0.350009	0.586647	99.790584	-85.994736	17.331781
30221		9.073666	-0.055892	-0.938780	0.232595	1.047641	-0.753759	0.092650	-0.101157	-0.095915	-0.997070	-0.297852	-0.396973	0.090741	-0.000598	-0.009342	0.386990	0.619882	-0.349626	0.586299	100.536489	-85.928409	16.638640
30222		9.278448	0.240720	-0.834170	0.042875	0.816934	-0.529684	0.057828	-0.135395	-0.076722	-0.994141	-0.308105	-0.400146	0.092791	0.002374	-0.008278	0.386793	0.620543	-0.349471	0.585822	101.535307	-85.868650	15.671912
30223		9.671352	0.498345	-0.669321	-0.070447	0.549953	-0.121250	0.053278	-0.169791	-0.062194	-0.995117	-0.304199	-0.392334	0.096721	0.004955	-0.006610	0.386509	0.621271	-0.349440	0.585257	102.790658	-85.811260	14.445257
30224		10.088175	0.592798	-0.917598	-0.225023	0.720713	0.306333	0.104992	-0.196141	-0.047797	-0.997559	-0.295654	-0.399902	0.100892	0.005909	-0.009074	0.385974	0.622149	-0.349353	0.584728	104.266000	-85.756521	13.027675
30225		10.562831	0.642131	-1.217815	-0.360135	0.956179	0.790368	0.161803	-0.173866	-0.028566	-0.996094	-0.301758	-0.386719	0.105640	0.006416	-0.012081	0.385246	0.623038	-0.349116	0.584403	105.611420	-85.712904	11.772888
30226		10.838090	-0.145320	-1.545311	0.213007	1.600534	1.016265	0.167179	-0.073361	-0.004580	-0.992676	-0.313721	-0.392334	0.108387	-0.001443	-0.015415	0.384605	0.623600	-0.348746	0.584447	106.254811	-85.696966	11.225135
30227		10.935366	-1.048946	-1.301375	1.131374	1.798740	1.043675	0.213565	0.007251	-0.003980	-0.995605	-0.302734	-0.394287	0.109353	-0.010478	-0.013029	0.383958	0.624015	-0.348085	0.584823	106.333579	-85.693793	11.270260
30228		11.319082	-1.915878	-0.538424	2.276539	1.531041	1.347751	0.192895	-0.011749	-0.008663	-0.988281	-0.298584	-0.395020	0.113190	-0.019158	-0.005396	0.383355	0.624453	-0.347507	0.585095	106.530682	-85.685276	11.184874
30229		12.426885	-1.400261	0.612853	2.440524	0.286966	2.464335	0.256793	-0.083134	-0.012685	-0.989990	-0.314453	-0.389160	0.124265	-0.014018	0.006162	0.382441	0.625229	-0.346865	0.585245	107.269826	-85.662311	10.592575
30230		13.268020	0.097965	0.386191	1.080218	-0.208769	3.415639	0.271096	-0.078040	0.049047	-0.985352	-0.300537	-0.386475	0.132678	0.001007	0.003915	0.381308	0.625908	-0.346366	0.585555	108.119430	-85.673719	9.897732
30231		12.857437	0.839623	-1.606140	-0.546248	1.184185	3.106199	0.300715	-0.001237	0.144000	-0.990967	-0.311768	-0.385742	0.128568	0.008513	-0.016048	0.379938	0.626254	-0.345927	0.586334	108.664737	-85.749593	9.525080
30232		11.878262	1.072293	-2.546579	-1.287963	1.873924	2.168859	0.220506	-0.032818	0.228737	-0.987305	-0.303467	-0.378662	0.118774	0.010887	-0.025434	0.378513	0.626391	-0.346051	0.587036	109.639352	-85.865435	8.675964
30233		11.149521	0.142794	-2.880699	-0.703422	2.570291	1.391297	0.136736	-0.232358	0.276239	-0.997559	-0.299316	-0.375977	0.111526	0.001602	-0.028676	0.376867	0.626871	-0.346943	0.587056	112.267180	-85.963414	6.121393
30234		11.466037	-0.017550	-2.686978	-0.463283	2.430664	1.701092	0.289249	-0.373178	0.263247	-1.001709	-0.312256	-0.384766	0.114710	0.000014	-0.026656	0.374531	0.628071	-0.347613	0.586871	116.114308	-86.011466	2.432389
30235		11.445465	0.104090	-2.595677	-0.545051	2.250143	1.693255	0.399392	-0.115324	0.207566	-0.996582	-0.305176	-0.373779	0.114468	0.001211	-0.025888	0.372462	0.628814	-0.347297	0.587579	117.991256	-86.084993	0.781753
30236		10.620117	-0.353456	-2.241782	-0.056900	2.144551	0.833203	0.535875	0.105653	0.126976	-0.996582	-0.304199	-0.362305	0.106191	-0.003407	-0.022483	0.370579	0.629297	-0.345917	0.589065	118.032592	-86.175612	1.049500
30237		10.541308	-0.859215	-0.708180	1.100671	1.048801	0.677664	0.471209	0.026440	0.107399	-0.990723	-0.304199	-0.371826	0.105417	-0.008519	-0.007116	0.368820	0.629924	-0.344806	0.590150	118.554143	-86.234615	0.798783
30238		11.560900	-1.462014	1.351407	2.684548	-0.450297	1.598212	0.404460	0.018085	0.151567	-0.987793	-0.309570	-0.368408	0.115621	-0.014560	0.013474	0.367121	0.630372	-0.344048	0.591171	119.312272	-86.313597	0.272721
30239		12.537936	-0.509653	1.951246	2.207282	-1.446943	2.609116	0.721125	-0.086321	0.190550	-0.999512	-0.318604	-0.368652	0.125376	-0.005048	0.019548	0.364130	0.631638	-0.342662	0.592474	121.269089	-86.380544	-1.272660
30240		12.792541	0.988011	0.529167	0.208411	-0.985845	2.989260	0.854624	-0.074859	0.276598	-0.998047	-0.305420	-0.364746	0.127910	0.010034	0.005382	0.360471	0.632953	-0.341130	0.594189	123.724573	-86.489182	-3.240840
30241		11.747410	0.991113	0.177675	-0.067538	-0.702478	1.956649	0.706776	0.174209	0.399359	-0.993896	-0.308350	-0.366943	0.117456	0.010140	0.001710	0.357338	0.633042	-0.339966	0.596650	124.926378	-86.732011	-4.037682
30242		10.315794	-0.040406	0.845636	1.034222	-0.748897	0.458716	0.728426	0.158615	0.422738	-0.989990	-0.312988	-0.362793	0.103165	-0.000217	0.008374	0.354030	0.633164	-0.338837	0.599130	126.596116	-86.979644	-5.290531
30243		9.742449	-0.604688	1.094336	1.582301	-0.674731	-0.142138	0.915238	-0.039331	0.395681	-0.988770	-0.307861	-0.360107	0.097434	-0.005904	0.010935	0.349872	0.634242	-0.337402	0.601238	130.215307	-87.140901	-8.387999
30244		9.934214	-0.243321	1.179425	1.307437	-0.955058	0.062395	0.975319	-0.069839	0.388176	-1.004639	-0.310547	-0.361084	0.099343	-0.002298	0.011818	0.345482	0.635512	-0.335810	0.603323	134.468284	-87.276339	-12.085091
30245		9.980603	0.043643	1.006615	0.950319	-0.976821	0.125635	0.967957	0.094437	0.396449	-0.997803	-0.308838	-0.358154	0.099810	0.000586	0.010022	0.341360	0.636243	-0.333971	0.605914	137.776237	-87.470357	-14.839933
30246		9.669673	0.298361	0.942251	0.656168	-1.061108	-0.173039	0.952589	0.250453	0.387269	-0.997314	-0.305420	-0.351074	0.096702	0.003126	0.009316	0.337562	0.636472	-0.331876	0.608945	140.070756	-87.722295	-16.588762
30247		9.226711	0.494259	1.111089	0.534961	-1.303785	-0.613509	0.828857	0.249520	0.401081	-1.007568	-0.306885	-0.353271	0.092271	0.005082	0.011017	0.334110	0.636457	-0.330193	0.611773	142.961350	-87.974795	-19.004750
30248		9.203316	0.430027	1.126002	0.563164	-1.282532	-0.637084	0.739871	0.185868	0.411822	-1.002930	-0.300049	-0.357422	0.092035	0.004448	0.011191	0.330792	0.636455	-0.328918	0.614260	147.363073	-88.195079	-22.983325
30249		9.471076	0.711209	0.761053	0.102153	-1.150933	-0.354826	0.695845	0.149535	0.376439	-1.004150	-0.307617	-0.351807	0.094703	0.007264	0.007565	0.327661	0.636541	-0.327717	0.616487	152.548018	-88.374976	-27.770315
30250		9.682407	1.145395	0.444395	-0.458131	-1.150105	-0.131482	0.685968	0.178884	0.308119	-1.007324	-0.300293	-0.349854	0.096810	0.011588	0.004397	0.324812	0.636620	-0.326278	0.618672	157.255867	-88.540811	-32.085259
30251		9.651695	1.396978	0.476794	-0.669182	-1.326837	-0.162519	0.665192	0.186121	0.226202	-1.007324	-0.304688	-0.347900	0.096505	0.014063	0.004725	0.322293	0.636770	-0.324624	0.620702	161.032105	-88.684381	-35.479961
30252		9.577978	1.439785	0.142064	-0.912329	-1.084272	-0.230264	0.659286	0.065819	0.100209	-1.007813	-0.310303	-0.351074	0.095773	0.014441	0.001437	0.319981	0.637478	-0.322779	0.622131	163.299072	-88.735945	-37.368204
30253		9.743323	1.510952	0.299791	-0.872276	-1.264787	-0.068734	0.638599	-0.036006	0.005918	-1.008301	-0.312744	-0.348389	0.097432	0.015103	0.003064	0.317864	0.638617	-0.320856	0.623043	164.022165	-88.714898	-37.724094
30254		9.523286	1.424449	0.368053	-0.754106	-1.272487	-0.290630	0.640381	-0.025519	-0.072918	-1.000977	-0.313232	-0.349854	0.095238	0.014198	0.003738	0.315998	0.639845	-0.318656	0.623861	162.776296	-88.687050	-36.109429
30255		8.979118	1.541005	0.349047	-0.851730	-1.323227	-0.832449	0.661868	-0.046173	-0.123134	-1.000732	-0.327393	-0.347900	0.089800	0.015343	0.003562	0.314186	0.641245	-0.316257	0.624559	160.598870	-88.637514	-33.550682
30256		8.709368	1.612003	0.268613	-0.941472	-1.303740	-1.098466	0.590698	-0.105185	-0.126874	-0.998291	-0.330811	-0.338379	0.087102	0.016057	0.002779	0.312515	0.642715	-0.314158	0.624945	158.976361	-88.553912	-31.587688
30257		8.731125	1.524968	0.296508	-0.833648	-1.280953	-1.077120	0.518343	-0.122258	-0.112657	-1.013184	-0.319580	-0.335938	0.087318	0.015193	0.003058	0.311005	0.644100	-0.312354	0.625177	157.921420	-88.462746	-30.233899
30258		8.835646	1.448403	0.234103	-0.789837	-1.193109	-0.971084	0.499064	-0.087242	-0.096438	-1.001465	-0.329102	-0.333496	0.088362	0.014435	0.002416	0.309556	0.645314	-0.310606	0.625515	157.022893	-88.393426	-29.047524
30259		8.909577	1.675312	0.133111	-1.012927	-1.260179	-0.891316	0.500104	-0.058782	-0.078312	-1.000488	-0.332031	-0.340332	0.089102	0.016715	0.001399	0.308092	0.646409	-0.308867	0.625968	156.302811	-88.342398	-28.039094
30260		8.886843	1.944697	-0.029410	-1.310783	-1.305670	-0.905626	0.477661	-0.056741	-0.080474	-1.013428	-0.336914	-0.333984	0.088876	0.019412	-0.000223	0.306707	0.647461	-0.307187	0.626387	155.572695	-88.291934	-27.033453
30261		8.748055	1.634901	-0.069742	-1.085429	-1.084772	-1.046198	0.330887	-0.034987	-0.049615	-1.001953	-0.343506	-0.330566	0.087485	0.016328	-0.000655	0.305734	0.648171	-0.306030	0.626694	155.155945	-88.259517	-26.425442
30262		8.314723	0.995561	-0.066827	-0.589429	-0.683154	-1.487058	0.294274	-0.004139	-0.054235	-1.014160	-0.346924	-0.334717	0.083150	0.009934	-0.000652	0.304939	0.648733	-0.304926	0.627039	154.415107	-88.242100	-25.514122
30263		8.177072	1.200602	0.147800	-0.609297	-0.978484	-1.627389	0.358914	-0.061001	-0.080307	-1.010742	-0.339844	-0.327881	0.081775	0.011970	0.001524	0.303930	0.649611	-0.303620	0.627254	153.759815	-88.188191	-24.651367
30264		8.267541	1.460952	-0.025876	-0.904196	-1.013780	-1.527644	0.285697	-0.129331	-0.101190	-1.002441	-0.342285	-0.323242	0.082683	0.014568	-0.000184	0.303119	0.650619	-0.302579	0.627104	153.321298	-88.093968	-24.047424
30265		8.371370	1.434045	-0.066343	-0.889237	-0.972225	-1.421935	0.219025	-0.127303	-0.121420	-1.008301	-0.348389	-0.322266	0.083723	0.014290	-0.000594	0.302591	0.651552	-0.301677	0.626825	152.584066	-87.994991	-23.182795
30266		8.421230	1.480119	0.263402	-0.697186	-1.259536	-1.380326	0.216376	-0.094112	-0.138405	-1.015869	-0.345459	-0.332031	0.084221	0.014740	0.002690	0.302174	0.652398	-0.300677	0.626626	151.439519	-87.908060	-21.912016
30267		8.484363	1.650362	0.231131	-0.831189	-1.343532	-1.311772	0.210484	-0.047804	-0.133079	-1.010010	-0.351318	-0.331055	0.084854	0.016445	0.002349	0.301829	0.653084	-0.299643	0.626574	150.110905	-87.844521	-20.460404
30268		8.391707	1.679903	0.129110	-0.910238	-1.280530	-1.398938	0.170233	-0.012475	-0.102507	-1.000244	-0.349609	-0.327637	0.083926	0.016755	0.001311	0.301574	0.653549	-0.298781	0.626624	148.954043	-87.806494	-19.203820
30269		8.298301	1.601567	-0.040049	-0.953412	-1.098354	-1.487242	0.121410	-0.029284	-0.050656	-1.009277	-0.355469	-0.314453	0.082987	0.015995	-0.000379	0.301288	0.653917	-0.298267	0.626622	148.593253	-87.774677	-18.771744
30270		8.261025	1.537663	-0.128875	-0.957536	-0.992388	-1.522703	0.079262	-0.071272	0.018247	-1.002197	-0.347412	-0.326904	0.082609	0.015385	-0.001253	0.300863	0.654249	-0.298171	0.626525	149.388226	-87.742892	-19.520414
30271		8.240592	1.555326	-0.275032	-1.062298	-0.901008	-1.538527	0.026666	-0.131822	0.077723	-1.008545	-0.361328	-0.317627	0.082402	0.015586	-0.002694	0.300332	0.654604	-0.298527	0.626239	151.300357	-87.696877	-21.417366
30272		8.189504	1.641181	-0.648592	-1.367007	-0.684708	-1.575907	0.000162	-0.192449	0.132316	-1.009521	-0.351807	-0.309082	0.081890	0.016466	-0.006407	0.299628	0.655025	-0.299235	0.625799	154.169909	-87.631445	-24.287794
30273		8.287331	1.677554	-1.020425	-1.628369	-0.445063	-1.464897	-0.093468	-0.219331	0.185415	-1.006836	-0.351074	-0.314697	0.082869	0.016848	-0.010121	0.299022	0.655311	-0.300450	0.625206	157.628596	-87.557740	-27.801726
30274		8.491075	1.508329	-1.121765	-1.558310	-0.284107	-1.261507	-0.284971	-0.192724	0.241629	-1.010254	-0.347412	-0.313965	0.084903	0.015170	-0.011157	0.298908	0.655140	-0.302405	0.624497	161.341588	-87.500723	-31.680117
30275		8.604543	1.363106	-1.471408	-1.671765	0.056190	-1.137247	-0.366701	-0.152027	0.262330	-1.016357	-0.340576	-0.308838	0.086039	0.013717	-0.014674	0.299056	0.654686	-0.304623	0.623824	164.949995	-87.458701	-35.500919
30276		8.719082	1.366935	-1.574241	-1.745848	0.114637	-1.020191	-0.453838	-0.103330	0.293594	-1.015625	-0.335449	-0.310303	0.087179	0.013762	-0.015729	0.299465	0.653897	-0.307139	0.623221	168.636935	-87.437540	-39.450395
30277		8.825211	1.591033	-1.443085	-1.848690	-0.143473	-0.921121	-0.561385	-0.051214	0.331870	-1.010498	-0.329834	-0.310547	0.088229	0.016016	-0.014453	0.300183	0.652721	-0.310035	0.622674	172.585266	-87.437560	-43.723244
30278		8.897373	1.648085	-0.971742	-1.619486	-0.556792	-0.874517	-0.646215	0.021415	0.381229	-1.017334	-0.322510	-0.319092	0.088941	0.016619	-0.009780	0.301134	0.651107	-0.313243	0.622300	177.042574	-87.467779	-48.554181
30279		8.697323	1.468720	-0.591749	-1.280657	-0.740703	-1.097075	-0.681330	0.108897	0.381023	-1.010986	-0.309326	-0.307861	0.086942	0.014832	-0.006015	0.302332	0.649158	-0.316424	0.622145	-178.402045	-87.531003	-53.503240
30280		8.787591	1.436012	-0.023484	-0.939329	-1.172528	-1.036176	-0.678261	0.151011	0.369386	-1.015137	-0.311768	-0.322510	0.087849	0.014521	-0.000350	0.303619	0.647092	-0.319488	0.622105	-173.728576	-87.601381	-58.568566
30281		9.157928	1.231367	0.287636	-0.618790	-1.310316	-0.682152	-0.700202	0.120884	0.366019	-1.014893	-0.299072	-0.332520	0.091558	0.012491	0.002777	0.304933	0.645081	-0.322652	0.621918	-168.936693	-87.636770	-63.764714
30282		9.560992	1.105743	0.007273	-0.720504	-1.030681	-0.270480	-0.688916	0.141133	0.343496	-1.015381	-0.298340	-0.327881	0.095591	0.011222	-0.000033	0.306312	0.643050	-0.325670	0.621770	-164.257208	-87.668842	-68.841920
30283		9.773284	0.944090	-0.303763	-0.814627	-0.690246	-0.047419	-0.730564	0.255706	0.308928	-1.020996	-0.284668	-0.331055	0.097714	0.009580	-0.003197	0.308111	0.640646	-0.328528	0.621860	-159.378133	-87.751723	-74.142401
30284		9.456183	0.591391	-0.812544	-0.876969	-0.044395	-0.343889	-0.737267	0.389797	0.263898	-1.012451	-0.284668	-0.333740	0.094538	0.006008	-0.008332	0.310288	0.637877	-0.331048	0.622287	-153.877968	-87.896296	-80.067912
30285		8.989428	0.254951	-1.381013	-0.975890	0.650884	-0.790166	-0.693611	0.345955	0.226671	-1.017578	-0.278809	-0.336914	0.089867	0.002603	-0.013975	0.312362	0.635362	-0.333377	0.622579	-148.485061	-88.006757	-85.860521
30286		9.058178	-0.066022	-1.918596	-1.051206	1.289316	-0.703980	-0.728418	0.251193	0.232742	-1.014893	-0.271729	-0.346924	0.090558	-0.000625	-0.019297	0.314366	0.633069	-0.335974	0.622510	-143.424513	-88.051194	-91.340209
30287		9.485645	-0.275515	-2.256894	-1.094127	1.686402	-0.267750	-0.742933	0.267746	0.249039	-1.010498	-0.270996	-0.349854	0.094830	-0.002721	-0.022686	0.316386	0.630663	-0.338639	0.622485	-137.772972	-88.078905	-97.419478
30288		9.712663	-0.246146	-2.330521	-1.182355	1.740117	-0.045309	-0.727659	0.325972	0.262996	-1.001953	-0.260498	-0.356689	0.097092	-0.002419	-0.023455	0.318410	0.628065	-0.341200	0.622681	-131.098626	-88.102447	-104.513320
30289		9.985755	-0.080415	-2.337738	-1.350441	1.663140	0.217117	-0.687705	0.312117	0.277157	-1.008789	-0.252686	-0.361084	0.099822	-0.000747	-0.023531	0.320233	0.625539	-0.343700	0.622914	-124.388617	-88.086570	-111.619874
30290		10.445478	0.123675	-2.367867	-1.569910	1.578456	0.664615	-0.583802	0.296262	0.272649	-1.003662	-0.244629	-0.362549	0.104418	0.001310	-0.023837	0.321716	0.623229	-0.345881	0.623258	-118.102269	-88.041878	-118.243205
30291		10.886562	0.310306	-1.939311	-1.527831	1.125017	1.085678	-0.535666	0.336920	0.273186	-1.002686	-0.252441	-0.372559	0.108828	0.003199	-0.019585	0.323111	0.620860	-0.347846	0.623807	-111.531866	-87.981527	-125.123253
30292		11.159872	0.184491	-1.402532	-1.174202	0.761603	1.349071	-0.640195	0.408938	0.298745	-0.997070	-0.237549	-0.368652	0.111567	0.001966	-0.014260	0.324874	0.618046	-0.350092	0.624429	-104.307732	-87.892038	-132.717722
30293		11.291886	-0.144877	-1.101207	-0.784559	0.711025	1.484170	-0.681910	0.450731	0.305252	-1.004639	-0.235840	-0.377686	0.112896	-0.001315	-0.011262	0.326810	0.615010	-0.352417	0.625108	-97.187372	-87.769455	-140.232754
30294		11.149125	-0.003099	-0.935613	-0.858584	0.526828	1.330175	-0.630038	0.447239	0.277349	-1.005371	-0.229248	-0.379395	0.111470	0.000094	-0.009606	0.328665	0.612109	-0.354492	0.625809	-90.948315	-87.630913	-146.836717
30295		11.191523	0.619136	-0.941246	-1.434839	0.229877	1.341128	-0.534028	0.431210	0.230770	-1.001465	-0.227539	-0.388184	0.111887	0.006295	-0.009670	0.330336	0.609488	-0.356147	0.626548	-85.585471	-87.492879	-152.509258
30296		11.142285	1.431021	-1.322659	-2.368056	0.168948	1.246747	-0.553330	0.556327	0.171057	-0.994629	-0.223633	-0.395020	0.111373	0.014368	-0.013576	0.332473	0.606543	-0.357466	0.627523	-79.197706	-87.355716	-159.219433
30297		11.583482	2.665048	0.705816	-2.433005	-2.147176	1.643617	-0.813916	0.697084	0.121733	-0.988525	-0.207520	-0.399170	0.115842	0.026748	0.006546	0.335797	0.602796	-0.359213	0.628366	-71.928768	-87.190327	-166.962045
30298		13.457751	0.971510	1.618944	-0.680925	-2.003283	3.611100	-1.022898	0.684011	0.174212	-0.993652	-0.200195	-0.407959	0.134623	0.009913	0.015679	0.339554	0.598627	-0.361783	0.628858	-66.068738	-86.959140	-173.415154
30299		13.804572	-2.565720	-1.422850	0.746178	2.482093	4.060147	-0.671901	0.684715	-0.057034	-0.979736	-0.196045	-0.424072	0.137989	-0.025745	-0.014615	0.342975	0.595449	-0.362547	0.629578	-59.770625	-86.811733	179.893305
30300		12.081395	-1.182677	-2.718588	-1.001034	2.977931	2.223882	0.091218	0.351227	-0.444464	-0.977295	-0.202881	-0.418945	0.120739	-0.012083	-0.027403	0.344738	0.595325	-0.360319	0.630012	-54.105067	-86.918450	174.273002
30301		12.201131	1.646813	-1.129949	-2.618113	0.228919	2.268256	-0.330963	-0.033239	-0.420535	-0.981689	-0.210449	-0.423828	0.122047	0.016193	-0.011306	0.346983	0.595634	-0.360154	0.628579	-51.802939	-87.124736	171.779284
30302		12.616093	0.011383	-1.748698	-1.504309	1.629175	2.729498	-0.908498	0.377832	-0.163237	-0.975586	-0.203613	-0.433594	0.126128	-0.000069	-0.017725	0.350877	0.593179	-0.361850	0.627765	-47.876897	-87.059604	167.328368
30303		11.869336	-1.268010	-1.671989	-0.311777	2.254507	2.023863	-0.636353	0.684244	-0.248564	-0.969238	-0.205078	-0.443115	0.118619	-0.012882	-0.017085	0.354775	0.590377	-0.361894	0.628189	-41.124054	-86.881942	160.202399
30304		10.960385	-0.039046	-0.444206	-0.733994	0.632595	1.113874	-0.469717	0.307276	-0.319472	-0.968506	-0.203857	-0.437988	0.109596	-0.000576	-0.004609	0.357718	0.589177	-0.361867	0.627663	-36.750625	-86.863082	155.554306
30305		11.817076	-0.078890	0.293027	-0.367662	0.051707	2.002451	-0.697352	-0.045592	-0.203948	-0.981689	-0.199463	-0.442871	0.118169	-0.000899	0.002960	0.360324	0.588458	-0.363523	0.625888	-35.682532	-86.955666	154.085925
30306		13.374833	-1.213365	0.585385	0.717663	0.382178	3.605208	-0.661388	0.090027	-0.250540	-0.975098	-0.201416	-0.446289	0.133736	-0.012282	0.005834	0.363214	0.587459	-0.364678	0.624482	-33.252506	-86.997424	151.274420
30307		13.572563	-0.946364	0.888143	0.649858	0.024608	3.806256	-0.310143	0.149281	-0.456573	-0.968994	-0.199951	-0.450928	0.135710	-0.009760	0.008795	0.365818	0.587279	-0.364022	0.623513	-28.242265	-87.060141	146.080910
30308		12.685740	0.133624	0.821927	-0.249686	-0.399657	2.891600	-0.306511	0.173822	-0.561829	-0.966064	-0.205322	-0.447021	0.126868	0.000992	0.008107	0.368783	0.587219	-0.362995	0.622421	-21.834738	-87.109074	139.490638
30309		11.477914	0.693518	1.008816	-0.568436	-0.810903	1.687753	-0.489199	0.251810	-0.553326	-0.960693	-0.197510	-0.465576	0.114810	0.006642	0.009927	0.372392	0.586553	-0.362415	0.621237	-15.267867	-87.075345	132.636073
30310		10.900890	0.505573	2.134104	0.170677	-1.692091	1.175798	-0.533600	0.229813	-0.587106	-0.968018	-0.212891	-0.458984	0.109048	0.004792	0.021203	0.376193	0.585927	-0.361907	0.619832	-8.624189	-87.018534	125.678840
30311		10.690519	-0.121532	2.807789	1.086284	-1.977958	1.008265	-0.408907	-0.018531	-0.671915	-0.967773	-0.212891	-0.458252	0.106898	-0.001517	0.028091	0.379433	0.586447	-0.361227	0.617759	-1.418840	-87.064842	118.230707
30312		10.654239	-0.927991	2.195382	1.594717	-1.046206	0.936988	-0.318334	-0.078808	-0.757453	-0.962158	-0.213379	-0.465820	0.106498	-0.009648	0.022011	0.382560	0.587472	-0.360123	0.615497	6.990533	-87.090772	109.629200
30313		10.127924	-1.469431	1.926584	2.037463	-0.559428	0.384424	-0.223045	0.060410	-0.804988	-0.970703	-0.221924	-0.465576	0.101225	-0.015080	0.019252	0.385794	0.588323	-0.358316	0.613717	15.498678	-86.967962	100.983091
30314		9.621618	-1.824633	2.149303	2.528125	-0.591363	-0.128540	-0.138836	0.037196	-0.820483	-0.959229	-0.226807	-0.462402	0.096144	-0.018626	0.021488	0.388782	0.589428	-0.356241	0.611977	23.477573	-86.791634	92.914141
30315		9.645568	-2.177819	2.134999	2.907503	-0.390045	-0.131164	-0.077665	-0.044803	-0.800318	-0.959961	-0.242432	-0.461670	0.096363	-0.022156	0.021380	0.391373	0.590855	-0.354193	0.610135	30.758782	-86.605898	85.577704
30316		9.694630	-2.535088	1.712217	3.108490	0.179609	-0.135459	0.017555	0.019503	-0.760132	-0.958496	-0.244629	-0.464600	0.096851	-0.025721	0.017110	0.393671	0.592193	-0.351841	0.608719	36.610290	-86.355036	79.726660
30317		9.410814	-2.377006	1.711521	3.021677	0.132738	-0.432159	0.139902	0.179682	-0.685994	-0.956543	-0.251709	-0.472656	0.094041	-0.024105	0.017014	0.395654	0.593144	-0.349018	0.608132	40.388523	-86.029958	76.021830
30318		9.041693	-1.994344	2.077356	2.881168	-0.343340	-0.777992	0.181589	0.207697	-0.566223	-0.947754	-0.258789	-0.472900	0.090381	-0.020218	0.020661	0.397196	0.593877	-0.346362	0.607930	42.802182	-85.725491	73.707646
30319		9.028904	-1.830492	2.160064	2.806564	-0.451010	-0.787318	0.175951	0.173847	-0.443679	-0.958496	-0.263428	-0.473389	0.090267	-0.018524	0.021506	0.398319	0.594484	-0.344153	0.607856	44.435987	-85.478105	72.171535
30320		9.121675	-1.608918	2.168249	2.640413	-0.515181	-0.688129	0.178268	0.202252	-0.324931	-0.958496	-0.261475	-0.473145	0.091212	-0.016257	0.021576	0.399121	0.594802	-0.342230	0.608104	45.194112	-85.264511	71.514818
30321		8.898699	-1.200374	2.120270	2.263309	-0.639204	-0.891251	0.159867	0.263900	-0.216450	-0.954102	-0.267578	-0.472656	0.089002	-0.012117	0.021076	0.399751	0.594708	-0.340563	0.608719	45.083509	-85.069997	71.719146
30322		8.602038	-0.427801	2.226229	1.621940	-1.074346	-1.132296	0.196714	0.235052	-0.146843	-0.951660	-0.273682	-0.472168	0.086043	-0.004363	0.022157	0.400011	0.594654	-0.339046	0.609447	44.819793	-84.915081	72.098425
30323		8.400962	-0.347259	2.007239	1.451387	-0.915392	-1.340304	0.055787	0.056987	-0.089698	-0.950684	-0.277588	-0.479736	0.084014	-0.003516	0.020047	0.400211	0.594763	-0.338485	0.609521	45.029819	-84.855728	71.921057
30324		8.483804	-0.277998	1.666151	1.245514	-0.633199	-1.275942	0.076556	-0.077051	-0.087060	-0.950928	-0.273682	-0.479980	0.084830	-0.002823	0.016693	0.400116	0.595317	-0.338135	0.609236	45.839881	-84.850967	71.153170
30325		8.768405	0.761886	1.740209	0.377827	-1.149790	-0.922866	0.169425	-0.188833	-0.128665	-0.954346	-0.286377	-0.467529	0.087672	0.007548	0.017491	0.399681	0.596468	-0.337604	0.608691	47.403480	-84.871680	69.682135
30326		9.276696	1.266252	1.843418	0.012457	-1.439914	-0.379496	0.032672	-0.240220	-0.100287	-0.955566	-0.278320	-0.470703	0.092751	0.012613	0.018548	0.399481	0.597452	-0.337673	0.607819	49.027896	-84.920209	68.071459
30327		9.742665	0.903565	1.756419	0.326297	-1.174684	0.053141	-0.112627	-0.179437	-0.066487	-0.960693	-0.286377	-0.482422	0.097414	0.009013	0.017647	0.399713	0.597903	-0.338165	0.606948	50.155539	-84.957705	66.876025
30328		9.761238	0.817501	1.810682	0.438882	-1.193177	0.067208	-0.058915	-0.122319	-0.055514	-0.958252	-0.278809	-0.471924	0.097604	0.008153	0.018164	0.399848	0.598269	-0.338410	0.606362	50.993775	-84.977162	66.002069
30329		9.611911	0.859582	1.792506	0.395648	-1.216701	-0.081096	-0.092390	-0.116279	-0.029171	-0.956787	-0.280762	-0.467285	0.096110	0.008590	0.017977	0.400013	0.598505	-0.338825	0.605788	51.683176	-85.005513	65.258293
30330		9.303273	0.525677	1.853720	0.713213	-1.154930	-0.409446	-0.182912	-0.114981	0.003960	-0.955322	-0.278809	-0.470947	0.093022	0.005276	0.018586	0.400351	0.598499	-0.339609	0.605132	52.185917	-85.047347	64.649865
30331		9.201390	0.420570	1.822243	0.790008	-1.099035	-0.521238	-0.183976	-0.125159	0.016069	-0.959961	-0.277588	-0.472656	0.092002	0.004230	0.018276	0.400637	0.598501	-0.340454	0.604465	52.704879	-85.098088	64.024583
30332		9.039816	0.427773	1.658809	0.703761	-0.979908	-0.691426	-0.216775	-0.098359	0.022281	-0.962158	-0.272217	-0.472656	0.090390	0.004306	0.016628	0.401049	0.598343	-0.341360	0.603837	53.044126	-85.141647	63.560856
30333		8.858683	0.375768	1.588942	0.711256	-0.919046	-0.880070	-0.225354	-0.123601	0.026223	-0.956299	-0.279297	-0.460449	0.088576	0.003787	0.015940	0.401429	0.598239	-0.342357	0.603123	53.510845	-85.195732	62.964299
30334		8.648094	0.223437	1.299747	0.710321	-0.621175	-1.115655	-0.262663	-0.138502	0.021344	-0.952148	-0.284668	-0.469238	0.086472	0.002261	0.013054	0.401911	0.598109	-0.343478	0.602292	54.067549	-85.251792	62.256046
30335		8.365819	0.042131	1.110092	0.778938	-0.404808	-1.419215	-0.235575	-0.141864	0.011655	-0.959717	-0.278076	-0.461182	0.083650	0.000439	0.011160	0.402333	0.598062	-0.344497	0.601475	54.716689	-85.304198	61.470667
30336		8.319301	0.116533	1.026507	0.677568	-0.379905	-1.465555	-0.201905	-0.199524	-0.003259	-0.959961	-0.267090	-0.465820	0.083183	0.001174	0.010347	0.402600	0.598278	-0.345483	0.600514	55.792703	-85.367075	60.276427
30337		8.473823	0.147902	0.834890	0.578103	-0.228800	-1.319278	-0.204068	-0.251922	0.002025	-0.963379	-0.268799	-0.463623	0.084728	0.001488	0.008454	0.402765	0.598639	-0.346599	0.599400	57.197908	-85.447285	58.750801
30338		8.640739	-0.031714	0.731489	0.708652	-0.066393	-1.170245	-0.197089	-0.243168	0.006553	-0.963379	-0.275879	-0.458008	0.086398	-0.000307	0.007420	0.402912	0.598976	-0.347686	0.598335	58.581737	-85.523697	57.250791
30339		8.588716	-0.159030	0.450006	0.706313	0.218431	-1.242552	-0.145797	-0.247196	0.001454	-0.969482	-0.275391	-0.460693	0.085882	-0.001586	0.004607	0.402910	0.599438	-0.348614	0.597332	60.094294	-85.596089	55.651300
30340		8.374779	-0.066653	0.207714	0.518185	0.362509	-1.458973	-0.051976	-0.276836	-0.001101	-0.967285	-0.264160	-0.455078	0.083745	-0.000666	0.002193	0.402584	0.600179	-0.349311	0.596400	61.912967	-85.671512	53.798886
30341		8.235486	0.107868	0.210167	0.367395	0.251369	-1.585853	-0.018318	-0.380172	0.021548	-0.971924	-0.263428	-0.451904	0.082351	0.001088	0.002258	0.401906	0.601256	-0.350185	0.595258	64.462504	-85.780089	51.233122
30342		8.320824	-0.038557	-0.076386	0.391421	0.544731	-1.518511	-0.056219	-0.461403	0.048356	-0.976563	-0.262695	-0.445557	0.083210	-0.000366	-0.000572	0.401120	0.602447	-0.351412	0.593860	67.629611	-85.911724	48.026780
30343		8.298160	-0.509188	-0.280704	0.738013	0.895354	-1.575510	-0.004590	-0.428531	0.049855	-0.974854	-0.260742	-0.440186	0.082989	-0.005071	-0.002629	0.400228	0.603641	-0.352425	0.592648	70.773778	-86.024686	44.873587
30344		8.109997	-0.880491	-0.413055	1.016671	1.134869	-1.787956	0.073861	-0.366010	0.034169	-0.978516	-0.264160	-0.442871	0.081109	-0.008790	-0.003985	0.399256	0.604829	-0.353029	0.591733	73.659906	-86.106172	42.024469
30345		7.897611	-0.802463	-0.695886	0.823761	1.320332	-1.997411	0.220714	-0.359705	-0.008074	-0.981201	-0.275635	-0.436768	0.078988	-0.008020	-0.006826	0.397972	0.606366	-0.353059	0.591006	76.783211	-86.153084	39.022181
30346		7.800399	-0.623754	-0.835216	0.609029	1.338681	-2.081593	0.268274	-0.392701	-0.014657	-0.985596	-0.268799	-0.427734	0.078020	-0.006232	-0.008207	0.396505	0.608101	-0.352991	0.590249	80.282713	-86.188240	35.670315
30347		7.872086	-0.772802	-1.011399	0.681745	1.537445	-2.017734	0.244878	-0.414219	-0.008368	-0.979492	-0.272217	-0.422852	0.078741	-0.007719	-0.009960	0.395049	0.609841	-0.353053	0.589393	84.006079	-86.214487	32.080774
30348		7.871849	-1.121465	-0.980937	1.019391	1.636325	-2.036497	0.244168	-0.380969	-0.012114	-0.987061	-0.272705	-0.423828	0.078736	-0.011208	-0.009673	0.393663	0.611483	-0.353037	0.588628	87.471598	-86.222283	28.749310
30349		7.867073	-1.180283	-0.788953	1.167969	1.466964	-2.041576	0.274629	-0.339720	-0.037178	-0.991699	-0.277832	-0.416504	0.078682	-0.011807	-0.007772	0.392328	0.613107	-0.352773	0.587988	90.603353	-86.202562	25.769802
30350		7.904190	-1.012868	-0.846855	1.006415	1.425758	-1.991333	0.332384	-0.323881	-0.056588	-0.986816	-0.277100	-0.415039	0.079053	-0.010137	-0.008357	0.390899	0.614826	-0.352246	0.587460	93.577136	-86.161783	22.981683
30351		8.139812	-0.660903	-0.824764	0.730628	1.235808	-1.731074	0.415869	-0.331734	-0.107217	-0.988525	-0.285156	-0.415771	0.081408	-0.006636	-0.008126	0.389345	0.616819	-0.351331	0.586950	96.554019	-86.081919	20.238197
30352		8.667011	-0.322967	-0.744353	0.518327	1.004779	-1.181515	0.426276	-0.329672	-0.147118	-0.982910	-0.271973	-0.398438	0.086680	-0.003278	-0.007308	0.387877	0.618889	-0.350257	0.586385	99.342803	-85.970606	17.688936
30353		9.184536	-0.123263	-0.663354	0.435499	0.834824	-0.651669	0.512281	-0.287736	-0.194475	-0.986572	-0.280518	-0.393555	0.091854	-0.001305	-0.006505	0.386352	0.621083	-0.348699	0.586001	101.636448	-85.828993	15.685081
30354		9.448656	0.257795	-0.542905	0.198100	0.543736	-0.362643	0.578811	-0.238270	-0.230003	-0.985107	-0.291992	-0.392822	0.094496	0.002485	-0.005309	0.384807	0.623314	-0.346737	0.585813	103.393511	-85.668998	14.257133
30355		9.622586	0.182182	-0.407982	0.369694	0.449152	-0.197320	0.559049	-0.263809	-0.239483	-0.988525	-0.298340	-0.391113	0.096233	0.001718	-0.003948	0.383302	0.625593	-0.344848	0.585485	105.189932	-85.496598	12.778034
30356		9.992843	0.261775	-0.298148	0.411787	0.305324	0.174876	0.591723	-0.301093	-0.227149	-0.981689	-0.303223	-0.380127	0.099936	0.002513	-0.002823	0.381590	0.628013	-0.342970	0.585116	107.155144	-85.321723	11.148047
30357		10.138855	0.413962	-0.475263	0.238595	0.373560	0.336059	0.556667	-0.274217	-0.208292	-0.982178	-0.307861	-0.386963	0.101399	0.004047	-0.004602	0.379975	0.630250	-0.341198	0.584798	108.841175	-85.157476	9.777638
30358		10.105160	0.656045	-0.704103	-0.057146	0.441715	0.328415	0.484986	-0.217015	-0.176369	-0.987549	-0.312012	-0.371094	0.101065	0.006488	-0.006916	0.378585	0.632121	-0.339625	0.584595	110.103368	-85.018895	8.791116
30359		9.917245	0.856825	-0.726506	-0.236838	0.348721	0.159071	0.370836	-0.157593	-0.138719	-0.990723	-0.314453	-0.375488	0.099184	0.008513	-0.007171	0.377546	0.633536	-0.338389	0.584451	110.972662	-84.910552	8.133158
30360		9.923346	0.833952	-1.319115	-0.484981	0.862668	0.183756	0.289575	-0.230181	-0.101880	-0.999268	-0.324463	-0.370605	0.099253	0.008308	-0.013065	0.376531	0.634944	-0.337644	0.584010	112.273199	-84.805789	6.995378
30361		10.323022	0.931269	-2.009702	-0.849955	1.395492	0.618084	0.260980	-0.362807	-0.065621	-0.987549	-0.322021	-0.361572	0.103269	0.009305	-0.019898	0.375277	0.636622	-0.337345	0.583162	114.349045	-84.686697	5.062346
30362		10.939042	0.898127	-2.297695	-0.883744	1.631543	1.246498	0.205451	-0.377242	-0.032342	-0.986328	-0.319580	-0.355713	0.109435	0.008987	-0.022761	0.374074	0.638178	-0.337340	0.582237	116.469454	-84.575220	3.052280
30363		11.325064	0.380412	-2.643345	-0.550406	2.155210	1.608394	0.167870	-0.282865	-0.015119	-0.990234	-0.329102	-0.353516	0.113288	0.003818	-0.026270	0.373101	0.639358	-0.337321	0.581577	118.039480	-84.490947	1.573110
30364		11.450034	-0.204181	-3.125040	-0.255601	2.832716	1.712118	0.235247	-0.289284	-0.021604	-0.987793	-0.321533	-0.359619	0.114545	-0.002018	-0.031087	0.371917	0.640691	-0.337097	0.580998	119.614937	-84.398126	0.127098
30365		11.736454	-0.642428	-3.323833	0.066558	3.183923	1.979808	0.312486	-0.414370	0.016985	-0.989258	-0.323486	-0.347656	0.117434	-0.006363	-0.033005	0.370163	0.642464	-0.337002	0.580215	121.911017	-84.282642	-1.998899
30366		12.784152	-0.490225	-2.111009	0.653373	2.004409	2.981313	0.298979	-0.389363	0.086515	-0.993164	-0.321777	-0.339111	0.127884	-0.004816	-0.020868	0.368288	0.644016	-0.337123	0.579616	124.213001	-84.200368	-4.139023
30367		13.665542	-0.435339	-0.232499	1.628841	0.302216	3.761039	0.164205	-0.171528	0.222395	-0.998535	-0.327637	-0.340576	0.136662	-0.004200	-0.002211	0.366821	0.644458	-0.337668	0.579738	125.831672	-84.245887	-5.669984
30368		14.569523	0.390882	0.983384	1.585453	-1.205010	4.658832	0.150093	-0.005532	0.379492	-0.994385	-0.318848	-0.345215	0.145687	0.004178	0.009841	0.365221	0.644125	-0.338456	0.580658	127.255516	-84.416585	-7.012933
30369		13.884585	1.897808	0.003800	-0.321614	-1.136148	4.151149	0.305021	0.131640	0.474923	-0.998779	-0.324219	-0.336182	0.138800	0.019308	-0.000024	0.363076	0.643512	-0.338847	0.582452	128.563245	-84.675175	-8.149639
30370		11.536777	2.381182	-1.829057	-1.937300	0.213091	1.948003	0.296455	0.244766	0.445462	-0.993164	-0.306885	-0.346436	0.115292	0.024096	-0.018396	0.361232	0.642597	-0.338962	0.584539	129.305601	-84.959738	-8.723021
30371		9.709097	1.457651	-1.832109	-1.355734	0.710651	0.056697	0.181672	0.340072	0.264891	-1.003418	-0.315674	-0.343506	0.097040	0.014722	-0.018473	0.360445	0.641500	-0.338655	0.586405	128.767130	-85.197885	-8.076677
30372		9.652055	0.478551	0.761828	0.766514	-1.003615	-0.201407	0.096865	0.281094	0.096453	-0.993652	-0.317627	-0.350098	0.096529	0.004828	0.007485	0.360321	0.640703	-0.338165	0.587633	127.715484	-85.338833	-6.964380
30373		11.049647	-0.732609	1.614402	2.337490	-1.124482	1.073514	-0.045878	-0.015259	0.083257	-0.988770	-0.305908	-0.353760	0.110498	-0.007276	0.016154	0.360193	0.640543	-0.338583	0.587645	128.140666	-85.368631	-7.415930
30374		12.160881	-0.341316	-0.213345	1.156994	0.218514	2.297747	0.411316	-0.183760	0.107477	-0.995117	-0.314697	-0.343750	0.121613	-0.003344	-0.002029	0.358242	0.641657	-0.338039	0.587936	129.868389	-85.348118	-8.911500
30375		11.560798	0.150220	-1.692226	-0.084437	1.223099	1.807771	0.493432	0.069708	0.199014	-0.998291	-0.311523	-0.342529	0.115600	0.001659	-0.016959	0.356186	0.642016	-0.337090	0.589337	130.693699	-85.458463	-9.454439
30376		10.581392	-1.026930	-0.802118	1.266113	1.084817	0.717450	0.341614	0.243307	0.284801	-0.991699	-0.313477	-0.334229	0.105819	-0.010105	-0.008167	0.354653	0.641443	-0.336553	0.591189	130.910662	-85.670963	-9.474213
