// General information: 
//  MT Manager version: 2019.2.0 
//  XDA version: 2019.2.0 build 3853 rev 94535 built on 2019-09-09
// Device information: 
//  DeviceId: 00B47796
//  ProductCode: MTW2-3A7G6
//  Firmware Version: 4.6.0
//  Hardware Version: 2.0.0
// Device settings: 
//  Filter Profile: human(46.1)
//  Option Flags: Orientation Smoother Disabled, AHS Disabled, ICC Disabled
// Coordinate system: ENU
PacketCounter	SampleTimeFine	Acc_X	Acc_Y	Acc_Z	FreeAcc_E	FreeAcc_N	FreeAcc_U	Gyr_X	Gyr_Y	Gyr_Z	Mag_X	Mag_Y	Mag_Z	VelInc_X	VelInc_Y	VelInc_Z	Quat_q0	Quat_q1	Quat_q2	Quat_q3	Roll	Pitch	Yaw
43758		5.037390	-1.499709	8.123719	-0.000000	0.000000	-0.136984	0.004355	0.008894	0.000551	-0.689941	0.185303	-0.546875	0.050378	-0.014999	0.081235	0.084245	-0.277494	0.056660	-0.955348	-10.460972	-31.376558	-166.975430
43759		5.042910	-1.509159	8.091700	0.000000	0.000000	-0.159495	0.004815	0.007262	-0.004440	-0.702637	0.170166	-0.557861	0.050432	-0.015095	0.080915	0.054567	-0.276670	0.065912	-0.957148	-10.567066	-31.495763	-170.486612
43760		5.036428	-1.498542	8.124530	0.013465	-0.006434	-0.136996	0.005391	0.003033	-0.006742	-0.695801	0.178467	-0.548828	0.050365	-0.014989	0.081244	0.069331	-0.277125	0.061274	-0.956368	-10.509754	-31.437629	-168.741716
43761		5.036152	-1.497828	8.124833	0.013465	-0.006434	-0.136996	0.005437	0.005781	-0.004145	-0.695801	0.177490	-0.537109	0.050364	-0.014982	0.081246	0.069317	-0.277096	0.061244	-0.956380	-10.504843	-31.434806	-168.745161
43762		5.052539	-1.513025	8.133224	0.002305	0.005584	-0.119046	0.003356	0.006994	-0.003788	-0.703857	0.184082	-0.547119	0.050528	-0.015133	0.081330	0.069302	-0.277072	0.061227	-0.956389	-10.501630	-31.432283	-168.748229
43763		5.050462	-1.489510	8.107888	-0.007869	-0.014735	-0.145041	0.003644	0.004879	-0.004939	-0.697998	0.181641	-0.552734	0.050506	-0.014898	0.081077	0.069282	-0.277049	0.061205	-0.956398	-10.497531	-31.430050	-168.752088
43764		5.051757	-1.511921	8.133914	0.002305	0.005586	-0.119046	0.005437	0.005780	-0.004145	-0.693604	0.180664	-0.547852	0.050520	-0.015122	0.081337	0.069268	-0.277021	0.061175	-0.956410	-10.492604	-31.427232	-168.755540
43765		5.034420	-1.495711	8.126296	0.013648	-0.006463	-0.136996	0.002229	0.007359	-0.001691	-0.696533	0.180908	-0.541260	0.050347	-0.014958	0.081261	0.069261	-0.276985	0.061164	-0.956421	-10.490276	-31.423262	-168.757556
43766		5.074993	-1.486561	8.131819	-0.017107	-0.022238	-0.112630	0.005437	0.005780	-0.004145	-0.696289	0.183105	-0.543213	0.050752	-0.014869	0.081316	0.069246	-0.276957	0.061135	-0.956432	-10.485339	-31.420407	-168.761013
43767		5.033637	-1.494609	8.126984	0.013642	-0.006460	-0.136996	0.002979	0.003611	-0.007832	-0.690674	0.172363	-0.547363	0.050337	-0.014949	0.081269	0.069212	-0.276941	0.061111	-0.956441	-10.480707	-31.419188	-168.766624
43768		5.065381	-1.502637	8.117583	-0.019221	-0.002661	-0.127091	0.003804	0.005031	0.000346	-0.698730	0.175293	-0.548828	0.050656	-0.015028	0.081174	0.069217	-0.276915	0.061094	-0.956449	-10.478190	-31.416317	-168.767082
43769		5.048065	-1.486436	8.109945	-0.007878	-0.014710	-0.145041	0.004816	0.007260	-0.004441	-0.697021	0.174316	-0.544678	0.050483	-0.014867	0.081097	0.069200	-0.276880	0.061067	-0.956462	-10.473440	-31.412689	-168.770900
43770		5.064354	-1.501590	8.118418	-0.019204	-0.002630	-0.127091	0.005149	0.007894	-0.002995	-0.699219	0.177002	-0.545898	0.050647	-0.015019	0.081182	0.069190	-0.276842	0.061040	-0.956475	-10.468764	-31.408684	-168.773941
43771		5.031679	-1.492554	8.128574	0.013654	-0.006409	-0.136996	0.005482	0.008527	-0.001550	-0.693604	0.184082	-0.541016	0.050320	-0.014928	0.081283	0.069188	-0.276800	0.061014	-0.956489	-10.464548	-31.404041	-168.776004
43772		5.054041	-1.517787	8.104604	-0.021293	0.016966	-0.141552	0.004022	0.008260	-0.000898	-0.696777	0.177979	-0.552002	0.050544	-0.015180	0.081044	0.069186	-0.276761	0.060995	-0.956502	-10.461174	-31.399645	-168.777726
43773		5.055118	-1.540221	8.130767	-0.011120	0.037285	-0.115556	0.007231	0.006680	-0.003352	-0.695801	0.172363	-0.545654	0.050554	-0.015406	0.081305	0.069178	-0.276727	0.060958	-0.956515	-10.455454	-31.396229	-168.780753
43774		5.045098	-1.483701	8.112291	-0.007788	-0.014657	-0.145041	0.003690	0.007626	-0.002344	-0.699707	0.180420	-0.539551	0.050454	-0.014839	0.081121	0.069170	-0.276693	0.060941	-0.956527	-10.452238	-31.392464	-168.783131
43775		5.046321	-1.506296	8.138332	0.002385	0.005661	-0.119046	0.003139	0.003763	-0.002547	-0.688721	0.172363	-0.548340	0.050465	-0.015065	0.081382	0.069161	-0.276674	0.060923	-0.956534	-10.449325	-31.390608	-168.785271
43776		5.061313	-1.498461	8.120891	-0.019073	-0.002614	-0.127091	0.005396	0.003030	-0.006742	-0.693359	0.180908	-0.548096	0.050614	-0.014989	0.081208	0.069135	-0.276663	0.060890	-0.956541	-10.443844	-31.389927	-168.790027
43777		5.054854	-1.487878	8.153657	0.004552	-0.013902	-0.104585	0.003979	0.005511	-0.003495	-0.702881	0.178711	-0.557861	0.050551	-0.014881	0.081535	0.069122	-0.276636	0.060868	-0.956551	-10.440014	-31.387185	-168.793004
43778		5.045384	-1.504516	8.139242	0.002516	0.005669	-0.119046	0.004818	0.007259	-0.004443	-0.687988	0.184082	-0.552490	0.050456	-0.015048	0.081390	0.069105	-0.276605	0.060841	-0.956563	-10.435268	-31.383998	-168.796818
43779		5.051081	-1.513926	8.107170	-0.021110	0.016957	-0.141551	0.004311	0.006145	-0.002049	-0.687012	0.179932	-0.548340	0.050513	-0.015142	0.081070	0.069099	-0.276575	0.060819	-0.956573	-10.431705	-31.380749	-168.798917
43780		5.059687	-1.496152	8.122330	-0.018905	-0.002617	-0.127090	0.005108	0.005144	-0.005593	-0.691650	0.187012	-0.549561	0.050599	-0.014965	0.081222	0.069078	-0.276555	0.060790	-0.956583	-10.426771	-31.378964	-168.803108
43781		5.076006	-1.511196	8.130823	-0.030247	0.009432	-0.109140	0.005990	0.009640	-0.003945	-0.688965	0.184814	-0.552734	0.050764	-0.015115	0.081305	0.069064	-0.276508	0.060759	-0.956599	-10.421374	-31.373941	-168.806883
43782		5.058230	-1.494884	8.123471	-0.018744	-0.002642	-0.127090	0.006697	0.013657	0.001542	-0.697266	0.180908	-0.544189	0.050588	-0.014951	0.081231	0.069076	-0.276447	0.060736	-0.956617	-10.417594	-31.366990	-168.807319
43783		5.065187	-1.527478	8.117326	-0.032196	0.028964	-0.123600	0.002562	0.007991	-0.000249	-0.691162	0.178467	-0.545654	0.050655	-0.015276	0.081171	0.069076	-0.276408	0.060726	-0.956629	-10.415537	-31.362513	-168.808453
43784		5.041448	-1.501337	8.142267	0.003003	0.005566	-0.119046	0.005991	0.009639	-0.003946	-0.687500	0.173828	-0.547363	0.050418	-0.015017	0.081420	0.069063	-0.276373	0.060699	-0.956642	-10.410867	-31.358756	-168.811849
43785		5.055889	-1.493349	8.125211	-0.018513	-0.002704	-0.127090	0.007784	0.010540	-0.003151	-0.697510	0.174316	-0.543945	0.050563	-0.014937	0.081249	0.069056	-0.276320	0.060661	-0.956660	-10.404660	-31.353143	-168.815207
43786		5.039911	-1.499858	8.143491	0.003242	0.005506	-0.119046	0.005992	0.009638	-0.003946	-0.705322	0.175293	-0.545410	0.050403	-0.015002	0.081432	0.069042	-0.276285	0.060634	-0.956673	-10.399987	-31.349437	-168.818608
43787		5.045412	-1.509205	8.111580	-0.020386	0.016795	-0.141549	0.004531	0.009371	-0.003295	-0.704834	0.177002	-0.545410	0.050458	-0.015095	0.081113	0.069030	-0.276240	0.060611	-0.956688	-10.395668	-31.344498	-168.821918
43788		5.066692	-1.584488	8.066123	-0.070636	0.091200	-0.157067	0.005152	0.007891	-0.002998	-0.706055	0.182861	-0.535156	0.050670	-0.015848	0.080659	0.069021	-0.276215	0.060591	-0.956698	-10.392218	-31.341891	-168.824312
43789		5.124779	-1.271120	8.110454	-0.065436	-0.229301	-0.137890	0.009027	0.007579	-0.002558	-0.697754	0.180420	-0.535645	0.051251	-0.012716	0.081102	0.069019	-0.276176	0.060547	-0.956712	-10.385690	-31.337889	-168.826918
43790		5.895806	-1.021864	7.796792	-0.855013	-0.576404	-0.038671	-0.012080	-0.001642	-0.038026	-0.702393	0.173828	-0.540771	0.058955	-0.010225	0.077969	0.068818	-0.276224	0.060548	-0.956712	-10.379577	-31.345681	-168.851831
43791		6.305010	-1.079984	7.416630	-1.408155	-0.555882	-0.136220	-0.002444	0.014974	-0.026070	-0.702393	0.180176	-0.537842	0.063054	-0.010807	0.074162	0.068685	-0.276161	0.060529	-0.956741	-10.371095	-31.339942	-168.870838
43792		6.757262	-0.955367	7.080413	-1.951444	-0.722979	-0.201510	0.013570	-0.012817	-0.018539	-0.695313	0.173584	-0.534424	0.067567	-0.009565	0.070808	0.068578	-0.276434	0.060350	-0.956681	-10.349781	-31.375243	-168.885679
43793		5.993721	-1.179891	7.645490	-1.029945	-0.418615	-0.089810	0.009162	0.005310	-0.008994	-0.706055	0.167725	-0.538330	0.059939	-0.011805	0.076453	0.068546	-0.276408	0.060296	-0.956695	-10.341110	-31.373188	-168.892254
43794		6.034072	-1.088000	7.515770	-1.116497	-0.500700	-0.190666	0.009493	0.005945	-0.007549	-0.700684	0.170898	-0.536621	0.060343	-0.010886	0.075155	0.068446	-0.276818	0.060087	-0.956596	-10.318806	-31.424963	-168.904572
43795		5.138169	-1.429959	8.055208	-0.110262	-0.057950	-0.152645	0.007233	0.006680	-0.003354	-0.707764	0.171387	-0.531738	0.051384	-0.014303	0.080550	0.068438	-0.276785	0.060050	-0.956609	-10.313081	-31.421559	-168.907598
43796		4.989434	-1.611973	8.156911	0.060329	0.142741	-0.117116	0.008621	0.012288	-0.004103	-0.712158	0.170898	-0.537109	0.049899	-0.016124	0.081565	0.068337	-0.277240	0.059827	-0.956498	-10.289807	-31.478764	-168.919757
43797		4.947583	-1.619879	8.152375	0.091021	0.158497	-0.141576	0.008404	0.009061	-0.002857	-0.715576	0.175293	-0.526855	0.049479	-0.016203	0.081521	0.068332	-0.277195	0.059785	-0.956514	-10.283427	-31.473977	-168.922745
43798		4.981073	-1.526927	8.186479	0.099252	0.063629	-0.109743	0.010553	0.010917	-0.009745	-0.711426	0.180420	-0.535645	0.049814	-0.015276	0.081861	0.068200	-0.277641	0.059584	-0.956407	-10.261667	-31.530247	-168.938274
43799		5.168870	-1.457179	8.074027	-0.112876	-0.025817	-0.116446	0.012345	0.011819	-0.008951	-0.711182	0.176758	-0.541016	0.051693	-0.014579	0.080736	0.068171	-0.277584	0.059517	-0.956430	-10.250748	-31.524549	-168.945621
43800		5.262594	-1.458237	8.020348	-0.212565	-0.031482	-0.112113	0.012497	0.011978	-0.003664	-0.709717	0.175293	-0.535400	0.052630	-0.014588	0.080199	0.068069	-0.277979	0.059332	-0.956334	-10.231170	-31.574357	-168.957638
43801		5.403116	-1.387660	7.935116	-0.370338	-0.116438	-0.120700	0.007122	0.009268	-0.006049	-0.710205	0.176758	-0.529541	0.054034	-0.013881	0.079348	0.068048	-0.277935	0.059292	-0.956350	-10.224413	-31.569799	-168.962752
43802		5.204721	-1.472211	8.034219	-0.151895	-0.004445	-0.128571	0.011876	0.013456	-0.003963	-0.713867	0.173828	-0.537354	0.052052	-0.014728	0.080338	0.067966	-0.278296	0.059117	-0.956262	-10.206078	-31.615216	-168.972589
43803		5.354612	-1.457525	7.968171	-0.312792	-0.037417	-0.107598	0.008623	0.012285	-0.004107	-0.724365	0.183594	-0.531494	0.053551	-0.014580	0.079678	0.067955	-0.278236	0.059074	-0.956283	-10.198948	-31.608768	-168.976774
43804		5.164414	-1.451784	8.077850	-0.085971	-0.016402	-0.116150	0.010416	0.013188	-0.003313	-0.719238	0.184814	-0.543457	0.051649	-0.014523	0.080774	0.067859	-0.278642	0.058910	-0.956182	-10.182422	-31.659476	-168.987130
43805		5.083107	-1.491316	8.093870	-0.014427	0.035410	-0.139463	0.008916	0.010169	-0.005256	-0.718750	0.170410	-0.533936	0.050835	-0.014918	0.080935	0.067843	-0.278593	0.058864	-0.956200	-10.174859	-31.654348	-168.991820
43806		5.175234	-1.469847	8.014430	-0.125149	0.008866	-0.160805	0.008954	0.012920	-0.002663	-0.718018	0.178467	-0.523438	0.051757	-0.014703	0.080140	0.067771	-0.278952	0.058713	-0.956110	-10.159983	-31.699110	-168.999623
43807		5.193139	-1.507503	8.048843	-0.125986	0.041352	-0.116938	0.008331	0.003557	-0.008046	-0.712646	0.175293	-0.528809	0.051932	-0.015080	0.080487	0.067743	-0.278935	0.058663	-0.956120	-10.152193	-31.697993	-169.005378
43808		5.232225	-1.401429	8.024072	-0.154264	-0.064045	-0.132914	0.008330	-0.007285	-0.013130	-0.711914	0.182861	-0.532227	0.052318	-0.014021	0.080242	0.067639	-0.279343	0.058519	-0.956017	-10.137935	-31.748857	-169.016146
43809		5.093502	-1.492764	8.135308	0.013947	0.041306	-0.099117	0.002116	-0.011742	-0.014565	-0.713867	0.181885	-0.533447	0.050929	-0.014932	0.081356	0.067576	-0.279403	0.058485	-0.956006	-10.132381	-31.757031	-169.024412
43810		5.106519	-1.562055	8.048208	-0.042161	0.117032	-0.154803	-0.000881	-0.017780	-0.018449	-0.718018	0.175781	-0.526855	0.051057	-0.015625	0.080487	0.067435	-0.279855	0.058377	-0.955890	-10.122369	-31.812919	-169.037743
43811		5.166900	-1.444702	8.077529	-0.062968	-0.009219	-0.115964	-0.002962	-0.027414	-0.023182	-0.719238	0.175537	-0.535156	0.051656	-0.014452	0.080783	0.067328	-0.279994	0.058350	-0.955859	-10.117677	-31.830797	-169.049879
43812		5.316234	-1.434233	7.935980	-0.253558	-0.029970	-0.156914	-0.003543	-0.034030	-0.025975	-0.711914	0.187744	-0.525635	0.053147	-0.014348	0.079369	0.067165	-0.280504	0.058249	-0.955727	-10.108876	-31.893749	-169.064766
43813		5.377289	-1.439686	7.947401	-0.295236	-0.033551	-0.114191	0.001139	-0.035346	-0.029081	-0.711914	0.174072	-0.531494	0.053757	-0.014405	0.079483	0.067037	-0.280682	0.058191	-0.955687	-10.100232	-31.916695	-169.079902
43814		5.130454	-1.453904	7.994341	-0.055533	0.020341	-0.203245	0.000327	-0.025941	-0.032178	-0.720947	0.170410	-0.530029	0.051292	-0.014547	0.079950	0.066845	-0.281152	0.058076	-0.955569	-10.087651	-31.975489	-169.099887
43815		5.210337	-1.447402	8.061673	-0.082237	-0.001841	-0.105660	0.000874	-0.022081	-0.031983	-0.725098	0.172607	-0.528809	0.052092	-0.014483	0.080622	0.066700	-0.281267	0.058020	-0.955549	-10.077279	-31.991239	-169.118542
43816		5.049979	-1.503912	8.065834	0.056644	0.082925	-0.178808	0.004227	-0.015095	-0.035788	-0.723633	0.173096	-0.523682	0.050491	-0.015050	0.080662	0.066500	-0.281673	0.057886	-0.955451	-10.060632	-32.042709	-169.141482
43817		5.241700	-1.455502	7.977523	-0.145074	0.013899	-0.157972	0.009299	-0.012710	-0.043988	-0.725586	0.174561	-0.530273	0.052409	-0.014570	0.079778	0.066306	-0.281744	0.057775	-0.955450	-10.040571	-32.054368	-169.169261
43818		5.236205	-1.369295	8.005200	-0.110109	-0.067580	-0.150423	0.010140	-0.010967	-0.044943	-0.719482	0.181885	-0.529053	0.052355	-0.013709	0.080054	0.066072	-0.282101	0.057617	-0.955371	-10.018566	-32.100701	-169.198502
43819		5.303383	-1.405709	8.011474	-0.165111	-0.039520	-0.104094	0.013133	-0.004925	-0.041063	-0.714111	0.175537	-0.529785	0.053029	-0.014073	0.080115	0.065896	-0.282133	0.057495	-0.955381	-9.996821	-32.107661	-169.225275
43820		5.176556	-1.442399	8.054348	-0.033729	0.017996	-0.130317	0.011294	0.002261	-0.039366	-0.717285	0.180176	-0.522461	0.051764	-0.014439	0.080542	0.065687	-0.282411	0.057344	-0.955322	-9.974926	-32.144352	-169.252657
43821		5.341440	-1.344805	7.965751	-0.210889	-0.094767	-0.130786	0.011125	0.012941	-0.039571	-0.724121	0.179688	-0.531250	0.053417	-0.013463	0.079653	0.065510	-0.282358	0.057239	-0.955357	-9.953725	-32.141064	-169.280543
43822		5.174751	-1.363688	8.051569	-0.023075	-0.052293	-0.145103	0.011668	0.019255	-0.027647	-0.726807	0.179932	-0.535156	0.051753	-0.013649	0.080510	0.065353	-0.282543	0.057107	-0.955320	-9.934503	-32.165968	-169.302148
43823		5.410753	-1.315748	7.937805	-0.279104	-0.125785	-0.121327	0.016234	0.020531	-0.033454	-0.722900	0.171143	-0.530029	0.054113	-0.013173	0.079371	0.065211	-0.282450	0.056989	-0.955365	-9.912065	-32.157778	-169.326843
43824		5.357186	-1.316413	7.893861	-0.256173	-0.109665	-0.186277	0.013853	0.037460	-0.024275	-0.722168	0.182861	-0.529541	0.053585	-0.013176	0.078928	0.065069	-0.282540	0.056851	-0.955356	-9.890598	-32.171398	-169.348651
43825		5.333451	-1.261167	7.967837	-0.194921	-0.163680	-0.145326	0.016868	0.046261	-0.017802	-0.718018	0.175781	-0.530273	0.053352	-0.012623	0.079665	0.064994	-0.282319	0.056760	-0.955432	-9.871765	-32.147132	-169.365893
43826		5.132478	-1.345608	8.069286	0.020237	-0.053225	-0.155404	0.016332	0.055999	-0.010326	-0.716797	0.172852	-0.532715	0.051347	-0.013465	0.080677	0.064914	-0.282314	0.056628	-0.955447	-9.851638	-32.148836	-169.381309
43827		5.149706	-1.296316	8.044106	-0.009595	-0.101448	-0.174370	0.018634	0.071614	-0.004264	-0.727539	0.173340	-0.538086	0.051526	-0.012972	0.080421	0.064899	-0.281968	0.056557	-0.955554	-9.835055	-32.108923	-169.392432
43828		5.348993	-1.241261	7.943301	-0.228111	-0.177170	-0.160482	0.017888	0.078123	0.004457	-0.724854	0.180664	-0.539795	0.053521	-0.012419	0.079411	0.064889	-0.281830	0.056439	-0.955602	-9.816781	-32.094022	-169.400799
43829		5.128838	-1.260972	8.059264	0.008595	-0.131479	-0.177886	0.014290	0.087141	0.007931	-0.713135	0.182617	-0.536133	0.051324	-0.012613	0.080569	0.064922	-0.281407	0.056410	-0.955726	-9.806075	-32.044149	-169.405555
43830		5.217877	-1.285725	8.035659	-0.085001	-0.118277	-0.146772	0.005279	0.093135	0.018149	-0.722656	0.188477	-0.533691	0.052217	-0.012855	0.080332	0.064949	-0.281186	0.056372	-0.955792	-9.797842	-32.018174	-169.407610
43831		5.210157	-1.286649	8.040519	-0.084985	-0.118275	-0.146771	-0.001698	0.092412	0.022831	-0.723633	0.181885	-0.532715	0.052140	-0.012860	0.080381	0.065030	-0.280739	0.056442	-0.955914	-9.801248	-31.963871	-169.403034
43832		5.134240	-1.357476	8.126655	0.014124	-0.043316	-0.104773	-0.002713	0.090183	0.027613	-0.726074	0.174805	-0.543213	0.051381	-0.013567	0.081244	0.065092	-0.280522	0.056449	-0.955973	-9.800185	-31.937456	-169.398859
43833		5.158370	-1.417913	8.100241	-0.034285	0.011630	-0.105379	-0.008174	0.081644	0.029163	-0.720703	0.180420	-0.528076	0.051619	-0.014168	0.080982	0.065197	-0.280127	0.056556	-0.956075	-9.810173	-31.888618	-169.388843
43834		5.246580	-1.422107	8.050351	-0.139020	0.004402	-0.099923	-0.009676	0.075857	0.024620	-0.721924	0.186035	-0.533447	0.052498	-0.014211	0.080484	0.065244	-0.279960	0.056589	-0.956119	-9.813083	-31.868137	-169.384558
43835		5.297144	-1.407845	8.041656	-0.191011	-0.019552	-0.082676	-0.010403	0.057933	0.020610	-0.725830	0.184570	-0.545166	0.052996	-0.014069	0.080402	0.065312	-0.279682	0.056687	-0.956190	-9.822765	-31.833522	-169.377521
43836		4.999371	-1.494011	8.195118	0.131449	0.099865	-0.098857	-0.012926	0.052695	0.023458	-0.717285	0.187744	-0.541992	0.050017	-0.014929	0.081939	0.065357	-0.279625	0.056736	-0.956201	-9.829646	-31.825777	-169.371010
43837		5.108778	-1.537104	8.177515	0.022319	0.123521	-0.049578	-0.018033	0.036726	0.023982	-0.720459	0.181641	-0.540283	0.051105	-0.015358	0.081767	0.065436	-0.279449	0.056868	-0.956239	-9.846157	-31.802803	-169.359305
43838		5.111219	-1.526694	8.120524	-0.008863	0.115444	-0.097501	-0.016788	0.020190	0.016935	-0.719727	0.176758	-0.531250	0.051122	-0.015256	0.081201	0.065461	-0.279524	0.056930	-0.956211	-9.856621	-31.810656	-169.352368
43839		5.127443	-1.494734	8.150537	-0.004161	0.076486	-0.068443	-0.025454	0.005166	0.018448	-0.727295	0.189697	-0.539551	0.051278	-0.014932	0.081506	0.065512	-0.279503	0.057080	-0.956205	-9.877359	-31.806036	-169.340709
43840		5.229923	-1.459695	8.085334	-0.117971	0.028534	-0.074069	-0.027045	-0.014485	0.015393	-0.727295	0.187256	-0.544434	0.052295	-0.014582	0.080859	0.065529	-0.279733	0.057191	-0.956130	-9.896832	-31.831738	-169.330022
43841		5.238125	-1.472659	8.051358	-0.141946	0.039705	-0.096242	-0.027146	-0.031120	0.014277	-0.726563	0.194092	-0.545166	0.052370	-0.014712	0.080524	0.065568	-0.279887	0.057330	-0.956074	-9.919304	-31.848005	-169.316923
43842		5.353510	-1.443206	8.025023	-0.242867	-0.007416	-0.061540	-0.030050	-0.042491	0.010496	-0.719971	0.193848	-0.540283	0.053519	-0.014417	0.080264	0.065568	-0.280250	0.057447	-0.955961	-9.941457	-31.889458	-169.305764
43843		5.432076	-1.386964	7.908700	-0.361705	-0.069423	-0.125428	-0.034465	-0.046051	0.009839	-0.722900	0.186279	-0.550049	0.054303	-0.013853	0.079102	0.065580	-0.280479	0.057610	-0.955883	-9.967510	-31.914582	-169.293847
43844		5.081956	-1.576554	8.130934	0.041563	0.154017	-0.096801	-0.033811	-0.044785	0.012727	-0.726563	0.194092	-0.544922	0.050802	-0.015749	0.081323	0.065586	-0.280864	0.057748	-0.955761	-9.993078	-31.958356	-169.280673
43845		5.188007	-1.541730	8.063207	-0.075352	0.105141	-0.102336	-0.031350	-0.053445	0.011338	-0.723877	0.194580	-0.540283	0.051859	-0.015402	0.080648	0.065611	-0.281127	0.057896	-0.955673	-10.018365	-31.987495	-169.266856
43846		5.294219	-1.506702	7.995293	-0.189269	0.056753	-0.107814	-0.032066	-0.049389	0.008333	-0.722900	0.188965	-0.540527	0.052923	-0.015052	0.079968	0.065604	-0.281522	0.058031	-0.955549	-10.043314	-32.032569	-169.255230
43847		5.249636	-1.558570	7.997750	-0.150663	0.112329	-0.121635	-0.026177	-0.045571	0.008332	-0.723633	0.196533	-0.543945	0.052479	-0.015573	0.079991	0.065620	-0.281746	0.058153	-0.955474	-10.064118	-32.057559	-169.244304
43848		5.339707	-1.529740	7.948004	-0.242943	0.072084	-0.119436	-0.018843	-0.035832	-0.001550	-0.724365	0.196045	-0.556152	0.053383	-0.015290	0.079491	0.065583	-0.282073	0.058223	-0.955376	-10.078308	-32.095718	-169.240171
43849		5.048230	-1.592326	8.071388	0.064960	0.169485	-0.162067	-0.018189	-0.034564	0.001342	-0.723389	0.187744	-0.547363	0.050468	-0.015916	0.080724	0.065573	-0.282245	0.058300	-0.955321	-10.091390	-32.115197	-169.235179
43850		5.146775	-1.545577	8.036885	-0.025092	0.109561	-0.145372	-0.016237	-0.035934	-0.004298	-0.721191	0.198730	-0.541504	0.051453	-0.015450	0.080379	0.065530	-0.282565	0.058364	-0.955226	-10.104361	-32.152703	-169.232192
43851		5.032113	-1.592013	8.117457	0.113525	0.166754	-0.132343	-0.012112	-0.030267	-0.002502	-0.724854	0.190430	-0.543457	0.050309	-0.015916	0.081183	0.065510	-0.282715	0.058408	-0.955180	-10.112337	-32.170143	-169.230260
43852		5.105276	-1.496189	8.081918	0.047586	0.062828	-0.137275	-0.010943	-0.027887	-0.002004	-0.729980	0.200928	-0.546387	0.051041	-0.014958	0.080827	0.065487	-0.282979	0.058462	-0.955100	-10.123729	-32.200924	-169.226121
43853		5.137046	-1.532459	8.023695	-0.011473	0.097311	-0.163451	-0.011018	-0.022552	-0.002104	-0.733887	0.197998	-0.545166	0.051361	-0.015321	0.080244	0.065468	-0.283092	0.058505	-0.955065	-10.130737	-32.213975	-169.224834
43854		5.251985	-1.450712	8.019711	-0.097401	-0.003262	-0.117628	-0.010767	-0.016581	-0.000756	-0.733398	0.198975	-0.546143	0.052513	-0.014503	0.080202	0.065583	-0.283287	0.058600	-0.954994	-10.151286	-32.234635	-169.202506
43855		5.479903	-1.327794	7.860238	-0.361171	-0.149326	-0.147131	-0.012416	-0.017329	0.003734	-0.732910	0.197021	-0.545410	0.054792	-0.013272	0.078608	0.065588	-0.283373	0.058659	-0.954964	-10.160848	-32.244151	-169.197938
43856		5.371536	-1.407327	7.935253	-0.233618	-0.061758	-0.130548	-0.010159	-0.007228	0.004636	-0.734375	0.201172	-0.550049	0.053713	-0.014068	0.079355	0.065714	-0.283528	0.058749	-0.954904	-10.180273	-32.259999	-169.175254
43857		5.609753	-1.363389	7.820988	-0.489453	-0.135333	-0.105055	-0.010454	-0.005116	0.005785	-0.728027	0.194824	-0.550781	0.056096	-0.013628	0.078212	0.065728	-0.283555	0.058805	-0.954892	-10.188667	-32.262419	-169.170773
43858		5.268313	-1.424569	7.973906	-0.124748	-0.034308	-0.150857	-0.006439	0.003144	0.004891	-0.740723	0.199951	-0.543945	0.052685	-0.014242	0.079739	0.065850	-0.283671	0.058872	-0.954845	-10.204142	-32.274037	-169.150152
43859		4.960973	-1.589974	8.147381	0.210208	0.163656	-0.145831	-0.005598	0.004892	0.003944	-0.737061	0.201416	-0.547119	0.049612	-0.015896	0.081473	0.065860	-0.283649	0.058905	-0.954849	-10.208461	-32.271000	-169.148096
43860		5.142041	-1.561644	8.046037	0.008615	0.112958	-0.137709	-0.003622	0.006275	0.000901	-0.728760	0.208984	-0.553467	0.051423	-0.015615	0.080459	0.065975	-0.283738	0.058953	-0.954811	-10.220778	-32.279792	-169.129581
43861		5.307828	-1.540484	7.962357	-0.173594	0.071591	-0.121970	-0.003622	0.006274	0.000901	-0.730957	0.209473	-0.558105	0.053081	-0.015403	0.079622	0.065972	-0.283710	0.058974	-0.954818	-10.222795	-32.276286	-169.129719
43862		5.323513	-1.483180	7.966658	-0.177298	0.010562	-0.118581	-0.000403	0.004703	-0.001544	-0.737793	0.204346	-0.552979	0.053237	-0.014832	0.079665	0.066128	-0.283798	0.059015	-0.954779	-10.235664	-32.284513	-169.106217
43863		5.275869	-1.481744	7.993971	-0.122954	0.015100	-0.121527	0.005415	0.003037	-0.006733	-0.734619	0.200928	-0.559814	0.052759	-0.014821	0.079939	0.066103	-0.283785	0.058980	-0.954787	-10.229995	-32.283611	-169.111054
43864		5.267615	-1.448026	8.001042	-0.107324	-0.017608	-0.125098	0.006582	0.005419	-0.006233	-0.740479	0.207031	-0.549316	0.052678	-0.014485	0.080009	0.066203	-0.283871	0.058969	-0.954755	-10.233948	-32.292816	-169.096811
43865		4.848532	-1.594390	8.220718	0.347125	0.177592	-0.144258	0.003362	0.006990	-0.003788	-0.741455	0.208984	-0.550781	0.048488	-0.015946	0.082205	0.066187	-0.283839	0.058950	-0.954767	-10.230253	-32.289386	-169.100156
43866		5.000696	-1.602675	8.180494	0.199079	0.163682	-0.095199	0.005773	0.006418	-0.002690	-0.739014	0.196777	-0.554199	0.050009	-0.016030	0.081803	0.066331	-0.283903	0.058950	-0.954738	-10.236903	-32.295504	-169.080255
43867		5.187921	-1.387066	8.060119	-0.002555	-0.069220	-0.127688	-0.000545	-0.003860	-0.000202	-0.746094	0.202637	-0.559326	0.051878	-0.013870	0.080602	0.066330	-0.283923	0.058951	-0.954732	-10.237425	-32.297827	-169.079898
43868		5.579044	-1.228028	7.922903	-0.385355	-0.279434	-0.056684	-0.006506	-0.010755	0.006330	-0.748291	0.213135	-0.563232	0.055787	-0.012276	0.079232	0.066454	-0.284059	0.059008	-0.954679	-10.252204	-32.311945	-169.058951
43869		5.472387	-1.371720	7.870626	-0.337420	-0.118004	-0.135518	-0.010086	-0.020971	0.011363	-0.735352	0.208740	-0.554443	0.054716	-0.013710	0.078713	0.066500	-0.284161	0.059065	-0.954642	-10.263426	-32.322736	-169.048809
43870		5.507435	-1.404315	7.885704	-0.357542	-0.094942	-0.099222	-0.007564	-0.015729	0.008522	-0.744141	0.215820	-0.560791	0.055069	-0.014038	0.078862	0.066688	-0.284332	0.059124	-0.954574	-10.281528	-32.340269	-169.018812
43871		4.915645	-1.664241	8.177307	0.271221	0.233263	-0.134173	-0.007455	-0.018321	0.011214	-0.747070	0.210449	-0.559570	0.049150	-0.016637	0.081778	0.066737	-0.284420	0.059169	-0.954542	-10.291030	-32.349578	-169.009078
43872		4.977912	-1.635992	8.105959	0.186265	0.198830	-0.164453	-0.008838	-0.015522	0.005327	-0.746826	0.210449	-0.552246	0.049773	-0.016355	0.081064	0.066913	-0.284586	0.059230	-0.954476	-10.308833	-32.366671	-168.980621
43873		5.093249	-1.627139	8.106315	0.093224	0.171091	-0.103767	0.001505	-0.016223	0.003479	-0.738525	0.216309	-0.558105	0.050926	-0.016271	0.081067	0.066936	-0.284663	0.059222	-0.954452	-10.310312	-32.375588	-168.976292
43874		5.165545	-1.530569	8.071434	0.026424	0.065895	-0.108641	-0.001483	-0.022257	-0.000418	-0.747070	0.217041	-0.563965	0.051646	-0.015305	0.080720	0.067102	-0.284848	0.059241	-0.954384	-10.322767	-32.395379	-168.950345
43875		5.553145	-1.425510	7.838136	-0.410960	-0.082619	-0.110618	-0.001951	-0.031457	-0.000527	-0.748291	0.217773	-0.556152	0.055519	-0.014254	0.078390	0.067106	-0.285000	0.059239	-0.954339	-10.325794	-32.413295	-168.946830
43876		5.311733	-1.460836	7.982786	-0.129675	-0.020798	-0.114431	-0.004905	-0.034746	-0.001828	-0.749512	0.223633	-0.562988	0.053103	-0.014607	0.079837	0.067276	-0.285249	0.059266	-0.954251	-10.340711	-32.440547	-168.918737
43877		5.055563	-1.626855	8.127251	0.150481	0.173353	-0.106767	-0.004420	-0.044793	-0.000195	-0.757813	0.215820	-0.560059	0.050537	-0.016267	0.081284	0.067282	-0.285466	0.059272	-0.954185	-10.346156	-32.465945	-168.913360
43878		5.135443	-1.590542	8.036733	0.043571	0.130276	-0.144554	-0.006861	-0.046970	-0.003892	-0.752197	0.220459	-0.561035	0.051335	-0.015904	0.080380	0.067449	-0.285768	0.059300	-0.954081	-10.362253	-32.499548	-168.884588
43879		5.479881	-1.457609	7.876024	-0.312790	-0.044477	-0.112911	-0.006666	-0.054908	-0.001112	-0.754883	0.216553	-0.558594	0.054777	-0.014574	0.078776	0.067450	-0.286034	0.059311	-0.954001	-10.369338	-32.530740	-168.878568
43880		5.421488	-1.464464	7.917928	-0.235393	-0.032671	-0.108343	-0.009152	-0.048999	-0.002303	-0.756104	0.219482	-0.563965	0.054195	-0.014642	0.079193	0.067613	-0.286348	0.059349	-0.953893	-10.386875	-32.565541	-168.849580
43881		5.312400	-1.547586	7.918059	-0.147724	0.066738	-0.154220	-0.009611	-0.058208	-0.002421	-0.759766	0.213623	-0.548584	0.053101	-0.015473	0.079197	0.067605	-0.286630	0.059372	-0.953807	-10.395416	-32.598726	-168.844005
43882		5.172321	-1.581289	8.080574	0.062086	0.109625	-0.089869	-0.006025	-0.056404	-0.000834	-0.767822	0.218506	-0.559082	0.051700	-0.015811	0.080821	0.067768	-0.286981	0.059390	-0.953689	-10.411225	-32.638139	-168.815028
43883		5.152029	-1.533084	8.076382	0.086623	0.065982	-0.111665	-0.003606	-0.056983	0.000253	-0.760498	0.229980	-0.554443	0.051497	-0.015329	0.080779	0.067781	-0.287255	0.059389	-0.953605	-10.417231	-32.670356	-168.807789
43884		5.192486	-1.578695	7.983700	0.004437	0.110158	-0.159631	-0.005638	-0.063873	-0.001908	-0.756348	0.226563	-0.561768	0.051899	-0.015785	0.079854	0.067975	-0.287633	0.059402	-0.953477	-10.434166	-32.712725	-168.774312
43885		5.229984	-1.473503	8.119394	0.065304	-0.009503	-0.043136	-0.005981	-0.064842	0.005769	-0.769043	0.223389	-0.560059	0.052274	-0.014731	0.081211	0.068013	-0.287944	0.059417	-0.953379	-10.444080	-32.748796	-168.762380
43886		5.579785	-1.451129	7.880144	-0.345870	-0.072765	-0.055048	-0.011929	-0.085352	0.004583	-0.767822	0.227539	-0.557861	0.055765	-0.014505	0.078826	0.068235	-0.288418	0.059461	-0.953217	-10.468206	-32.801897	-168.722024
43887		5.248997	-1.608618	8.060343	0.020909	0.122953	-0.061113	-0.008289	-0.091650	0.003645	-0.773193	0.215576	-0.571533	0.052453	-0.016082	0.080628	0.068268	-0.288858	0.059475	-0.953081	-10.480516	-32.853287	-168.708149
43888		5.333427	-1.645553	7.970340	-0.091515	0.151430	-0.083952	-0.004012	-0.110278	-0.002126	-0.781250	0.223145	-0.559814	0.053290	-0.016455	0.079733	0.068449	-0.289453	0.059460	-0.952888	-10.498030	-32.921750	-168.672850
43889		5.173107	-1.620704	7.998749	0.069262	0.152683	-0.151446	0.001847	-0.108888	-0.013894	-0.782471	0.227295	-0.558105	0.051686	-0.016211	0.080015	0.068418	-0.289977	0.059394	-0.952735	-10.499349	-32.984678	-168.668554
43890		5.216029	-1.577785	8.004454	0.053805	0.104221	-0.130028	0.004010	-0.129073	-0.021924	-0.780273	0.224854	-0.562500	0.052107	-0.015785	0.080078	0.068534	-0.290661	0.059307	-0.952524	-10.506924	-33.065217	-168.642532
43891		5.292636	-1.543113	7.999089	0.004600	0.060443	-0.098012	-0.001559	-0.148996	-0.021691	-0.782227	0.227783	-0.552490	0.052865	-0.015436	0.080030	0.068473	-0.291378	0.059232	-0.952314	-10.510089	-33.151555	-168.638451
43892		5.276859	-1.506697	8.047862	0.065027	0.025126	-0.072124	-0.001150	-0.170450	-0.021413	-0.792236	0.222900	-0.552490	0.052698	-0.015072	0.080524	0.068603	-0.292256	0.059155	-0.952040	-10.523814	-33.254697	-168.606088
43893		5.021896	-1.642720	8.122199	0.320872	0.198603	-0.130454	-0.002300	-0.200460	-0.028315	-0.789063	0.226074	-0.556396	0.050135	-0.016433	0.081272	0.068524	-0.293220	0.059056	-0.951756	-10.528532	-33.370717	-168.599979
43894		5.268046	-1.563234	7.999977	0.079920	0.091001	-0.108001	-0.006763	-0.240282	-0.034067	-0.797607	0.225098	-0.548584	0.052582	-0.015639	0.080064	0.068592	-0.294425	0.058962	-0.951385	-10.544888	-33.513530	-168.569399
43895		5.567488	-1.530388	7.898072	-0.194884	0.020447	-0.031067	-0.009581	-0.265448	-0.045749	-0.795166	0.228760	-0.546143	0.055566	-0.015313	0.079055	0.068439	-0.295705	0.058850	-0.951005	-10.551853	-33.667983	-168.566817
43896		5.553964	-1.474501	7.841196	-0.182592	-0.025247	-0.093069	-0.016574	-0.297166	-0.046275	-0.793945	0.228027	-0.547363	0.055420	-0.014751	0.078496	0.068463	-0.297186	0.058763	-0.950547	-10.573566	-33.843923	-168.535593
43897		5.253010	-1.540469	8.026124	0.191935	0.080105	-0.099681	-0.021753	-0.314054	-0.047422	-0.807617	0.224854	-0.544189	0.052400	-0.015408	0.080345	0.068298	-0.298701	0.058688	-0.950089	-10.590397	-34.025927	-168.527858
43898		5.164135	-1.635674	8.072736	0.314805	0.188280	-0.097846	-0.022366	-0.343655	-0.053085	-0.803711	0.221924	-0.542480	0.051498	-0.016361	0.080818	0.068290	-0.300402	0.058600	-0.949558	-10.615875	-34.228504	-168.495780
43899		5.205281	-1.604287	8.010617	0.282592	0.159360	-0.131090	-0.024684	-0.354709	-0.055691	-0.807373	0.224121	-0.541260	0.051906	-0.016047	0.080200	0.068093	-0.302111	0.058512	-0.949035	-10.634302	-34.434270	-168.488274
43900		5.327170	-1.531693	7.929517	0.180122	0.077213	-0.139863	-0.026143	-0.380797	-0.060553	-0.821045	0.222656	-0.527344	0.053116	-0.015323	0.079398	0.068037	-0.303978	0.058420	-0.948449	-10.661435	-34.657290	-168.458667
43901		5.668849	-1.419831	7.741109	-0.156482	-0.070976	-0.114911	-0.026561	-0.407795	-0.063750	-0.825684	0.223877	-0.529297	0.056526	-0.014206	0.077528	0.067813	-0.305940	0.058310	-0.947841	-10.681891	-34.893797	-168.449579
43902		5.590615	-1.415048	7.826095	-0.001511	-0.064736	-0.091537	-0.033197	-0.434809	-0.055438	-0.823242	0.226807	-0.518066	0.055732	-0.014153	0.078385	0.067782	-0.308060	0.058235	-0.947161	-10.718637	-35.146588	-168.409826
43903		5.769319	-1.389596	7.759319	-0.137552	-0.109966	-0.045812	-0.036234	-0.467896	-0.057369	-0.829346	0.224121	-0.510742	0.057507	-0.013898	0.077730	0.067591	-0.310305	0.058160	-0.946446	-10.752004	-35.416237	-168.388097
43904		5.867672	-1.259466	7.700955	-0.191051	-0.246754	-0.054462	-0.041885	-0.493308	-0.050126	-0.834961	0.226563	-0.510254	0.058483	-0.012593	0.077157	0.067604	-0.312701	0.058105	-0.945659	-10.800656	-35.701386	-168.334375
43905		5.719902	-1.371120	7.804517	0.028496	-0.115678	-0.040620	-0.048068	-0.528270	-0.048449	-0.833496	0.231445	-0.508057	0.056989	-0.013706	0.078199	0.067454	-0.315229	0.058079	-0.944832	-10.849703	-36.004024	-168.297755
43906		5.368980	-1.542966	7.952402	0.433688	0.103944	-0.104534	-0.054299	-0.555650	-0.040401	-0.841064	0.228027	-0.508545	0.053465	-0.015419	0.079677	0.067525	-0.317918	0.058066	-0.943926	-10.914716	-36.323255	-168.226303
43907		5.262383	-1.614700	8.066866	0.636754	0.187633	-0.069314	-0.057693	-0.588138	-0.039096	-0.842285	0.218506	-0.493164	0.052383	-0.016134	0.080828	0.067420	-0.320724	0.058078	-0.942983	-10.978978	-36.658489	-168.173931
43908		5.772140	-1.531748	7.737968	0.102414	0.046674	-0.038895	-0.061972	-0.630900	-0.044886	-0.851807	0.232666	-0.499023	0.057473	-0.015306	0.077566	0.067446	-0.323749	0.058071	-0.941948	-11.052787	-37.018765	-168.098510
43909		5.843662	-1.485945	7.668725	0.072842	-0.001788	-0.057685	-0.063214	-0.693985	-0.048665	-0.860840	0.225098	-0.479492	0.058166	-0.014849	0.076894	0.067316	-0.327053	0.058057	-0.940816	-11.126457	-37.414460	-168.036693
43910		5.877488	-1.539871	7.746413	0.161621	0.044353	0.030809	-0.069812	-0.754714	-0.054920	-0.865723	0.227295	-0.474121	0.058478	-0.015388	0.077691	0.067338	-0.330656	0.058021	-0.939556	-11.213144	-37.844824	-167.946348
43911		5.736516	-1.674923	7.752974	0.341019	0.205192	-0.031960	-0.074613	-0.835756	-0.062496	-0.869141	0.227051	-0.465332	0.057035	-0.016738	0.077775	0.067164	-0.334623	0.057987	-0.938165	-11.301783	-38.321586	-167.872055
43912		6.096380	-1.544312	7.580910	0.053120	0.033660	0.036999	-0.081107	-0.911739	-0.078848	-0.877441	0.230713	-0.452393	0.060611	-0.015436	0.076092	0.067088	-0.338955	0.057910	-0.936619	-11.400555	-38.841930	-167.774903
43913		5.970501	-1.510537	7.711200	0.329753	0.019564	0.050441	-0.095990	-0.988776	-0.082381	-0.883057	0.228760	-0.443604	0.059317	-0.015093	0.077413	0.066826	-0.343639	0.057888	-0.934931	-11.509606	-39.406676	-167.689348
43914		5.983373	-1.537987	7.686606	0.402942	0.051894	0.040439	-0.108104	-1.054809	-0.087641	-0.890137	0.224365	-0.429688	0.059420	-0.015364	0.077188	0.066715	-0.348631	0.057865	-0.933090	-11.637078	-40.007463	-167.571675
43915		5.898836	-1.623775	7.722863	0.590095	0.154363	0.021054	-0.122362	-1.109640	-0.088756	-0.900391	0.232178	-0.420654	0.058551	-0.016216	0.077564	0.066408	-0.353870	0.057910	-0.931135	-11.774581	-40.640463	-167.467634
43916		6.173089	-1.560768	7.553695	0.391588	0.063234	0.058629	-0.128636	-1.157804	-0.099817	-0.898926	0.219971	-0.416748	0.061284	-0.015590	0.075903	0.066220	-0.359319	0.057922	-0.929059	-11.923141	-41.298740	-167.338791
43917		6.444018	-1.546395	7.354552	0.177154	0.023625	0.085444	-0.129230	-1.200196	-0.110245	-0.906250	0.223389	-0.398682	0.063989	-0.015452	0.073940	0.065823	-0.364963	0.057926	-0.926884	-12.069520	-41.984638	-167.230036
43918		6.724176	-1.458551	7.091921	-0.077786	-0.085581	0.067728	-0.129763	-1.232410	-0.128220	-0.912842	0.223389	-0.380615	0.066794	-0.014582	0.071341	0.065485	-0.370734	0.057865	-0.924619	-12.217891	-42.687231	-167.108074
43919		6.374889	-1.627872	7.280018	0.413342	0.137205	-0.009787	-0.124163	-1.261929	-0.139127	-0.923584	0.222168	-0.378174	0.063276	-0.016277	0.073211	0.064976	-0.376642	0.057768	-0.922270	-12.360228	-43.410785	-167.003882
43920		6.468005	-1.721983	7.276450	0.463409	0.226148	0.060497	-0.108100	-1.287790	-0.156644	-0.916504	0.221191	-0.360596	0.064196	-0.017231	0.073188	0.064566	-0.382637	0.057526	-0.919843	-12.494491	-44.147122	-166.886093
43921		6.518748	-1.710439	6.991070	0.353825	0.236652	-0.111545	-0.100633	-1.314742	-0.177499	-0.934570	0.212891	-0.346191	0.064711	-0.017127	0.070346	0.063935	-0.388760	0.057224	-0.917335	-12.615785	-44.904628	-166.795451
43922		6.993773	-1.717844	6.717834	-0.041486	0.198504	0.033659	-0.077981	-1.342016	-0.206217	-0.944580	0.215088	-0.331787	0.069467	-0.017224	0.067652	0.063347	-0.394966	0.056730	-0.914752	-12.718434	-45.676274	-166.702625
43923		6.829905	-1.692194	6.698343	0.190363	0.220872	-0.102261	-0.067266	-1.366641	-0.234055	-0.949951	0.208984	-0.314697	0.067819	-0.016979	0.067454	0.062531	-0.401295	0.056142	-0.912085	-12.800958	-46.469700	-166.641661
43924		6.862826	-1.850604	6.706713	0.297092	0.393814	-0.052657	-0.058825	-1.383527	-0.263680	-0.951416	0.205078	-0.302734	0.068138	-0.018576	0.067545	0.061706	-0.407662	0.055434	-0.909358	-12.869539	-47.271742	-166.584768
43925		6.972228	-1.848709	6.666090	0.331885	0.403294	-0.004937	-0.042328	-1.414937	-0.300862	-0.958984	0.203125	-0.285889	0.069220	-0.018577	0.067156	0.060643	-0.414182	0.054576	-0.906530	-12.908086	-48.100581	-166.565540
43926		7.137315	-1.780393	6.385182	0.155681	0.353925	-0.079735	-0.028882	-1.448675	-0.345893	-0.955078	0.198242	-0.266602	0.070877	-0.017918	0.064369	0.059502	-0.420809	0.053547	-0.903611	-12.920826	-48.948789	-166.563942
43927		7.133923	-1.751360	6.376845	0.296910	0.360641	-0.096507	-0.021388	-1.498447	-0.383241	-0.968994	0.196045	-0.243164	0.070825	-0.017643	0.064302	0.058125	-0.427677	0.052391	-0.900538	-12.907498	-49.834805	-166.597740
43928		7.153496	-1.702778	6.324124	0.394175	0.349770	-0.128331	-0.003565	-1.554205	-0.421300	-0.978516	0.193359	-0.247314	0.071005	-0.017177	0.063795	0.056632	-0.434735	0.051080	-0.897323	-12.868746	-50.751597	-166.653682
43929		7.150865	-1.798193	6.312615	0.534787	0.487421	-0.133240	0.014855	-1.613170	-0.461607	-0.973145	0.185059	-0.210938	0.070955	-0.018151	0.063699	0.055004	-0.442072	0.049553	-0.893919	-12.795000	-51.711641	-166.737446
43930		7.623754	-1.622726	6.106713	0.255749	0.302100	0.081129	0.035030	-1.684645	-0.509829	-0.988037	0.176758	-0.196289	0.075678	-0.016431	0.061703	0.053225	-0.449657	0.047839	-0.890330	-12.686636	-52.711319	-166.852804
43931		7.558874	-1.762228	6.089793	0.442703	0.503347	0.029848	0.061605	-1.756054	-0.551356	-0.983643	0.175293	-0.183350	0.075001	-0.017848	0.061553	0.051328	-0.457571	0.045857	-0.886505	-12.532979	-53.762268	-167.000638
43932		7.565036	-1.686463	6.201117	0.709877	0.481339	0.076149	0.083716	-1.845840	-0.589800	-0.990479	0.162354	-0.165039	0.075024	-0.017113	0.062698	0.049335	-0.465796	0.043704	-0.882434	-12.348796	-54.860889	-167.172570
43933		7.374924	-1.805463	6.330091	1.103398	0.682444	-0.013063	0.097388	-1.941738	-0.628867	-0.997559	0.160889	-0.142334	0.073073	-0.018316	0.064004	0.047210	-0.474454	0.041329	-0.878041	-12.124392	-56.024621	-167.377381
43934		7.829840	-1.645783	6.124831	0.886025	0.541791	0.209589	0.125553	-2.048937	-0.681261	-1.001953	0.145264	-0.120605	0.077609	-0.016762	0.062035	0.044950	-0.483469	0.038729	-0.873348	-11.850707	-57.245068	-167.623901
43935		7.892835	-1.522816	6.070132	1.022026	0.489005	0.196017	0.135767	-2.179385	-0.731477	-1.004395	0.153076	-0.098877	0.078204	-0.015557	0.061546	0.042503	-0.493066	0.035876	-0.868212	-11.522180	-58.552876	-167.919966
43936		8.383808	-1.491439	6.225705	1.134905	0.482213	0.663277	0.141879	-2.336619	-0.783523	-1.015869	0.138916	-0.066162	0.083044	-0.015285	0.063220	0.039883	-0.503206	0.032890	-0.862619	-11.153056	-59.942862	-168.260300
43937		8.512871	-1.775758	6.253664	1.338559	0.841171	0.780930	0.124364	-2.479203	-0.840239	-1.010498	0.126709	-0.043457	0.084269	-0.018152	0.063574	0.036977	-0.513970	0.029744	-0.856495	-10.720275	-61.428985	-168.674974
43938		8.973009	-1.720983	6.523053	1.637862	0.838222	1.261305	0.158968	-2.662019	-0.925632	-1.009521	0.113281	-0.009033	0.088770	-0.017675	0.066402	0.033832	-0.525334	0.026261	-0.849818	-10.176628	-63.011705	-169.192469
43939		10.033814	-1.671319	6.674694	1.617029	0.810139	2.218121	0.115456	-2.797627	-0.967527	-1.019043	0.090820	0.018311	0.099309	-0.017234	0.068131	0.030389	-0.537272	0.022754	-0.842554	-9.557944	-64.686029	-169.808037
43940		10.709925	-1.810561	6.951457	1.928645	1.016124	2.897081	0.064445	-2.892669	-1.000741	-1.015625	0.099854	0.047119	0.105987	-0.018661	0.071047	0.026695	-0.549385	0.019437	-0.834916	-8.877319	-66.397318	-170.521863
43941		11.504892	-1.870053	6.355330	1.446001	1.151624	3.333349	-0.041962	-2.959764	-1.033891	-1.015625	0.077393	0.076172	0.113993	-0.019278	0.065250	0.022549	-0.561780	0.016376	-0.826817	-8.100366	-68.162140	-171.390239
43942		12.334010	-2.280886	6.440010	1.613455	1.644345	4.097034	-0.135617	-2.965796	-1.088849	-1.012451	0.076416	0.106934	0.122241	-0.023432	0.066234	0.017937	-0.573943	0.013644	-0.818585	-7.179096	-69.909755	-172.467637
43943		12.420113	-2.355545	6.097317	1.676251	1.854001	3.997518	-0.200493	-2.907461	-1.176834	-1.016357	0.055420	0.132813	0.123156	-0.024220	0.062793	0.012742	-0.585870	0.010827	-0.810232	-5.918164	-71.641853	-173.924627
43944		13.954285	-2.654285	7.079090	2.551287	2.240810	5.689923	-0.350189	-2.803072	-1.227618	-1.000488	0.062012	0.160645	0.138366	-0.027268	0.072783	0.006935	-0.597098	0.008601	-0.802092	-4.402289	-73.282739	-175.734107
43945		14.392455	-2.899109	7.369927	3.142173	2.620388	6.096619	-0.514438	-2.527855	-1.236341	-1.002197	0.029541	0.194824	0.142795	-0.029683	0.075585	0.000550	-0.607246	0.006886	-0.794484	-2.533193	-74.771643	-177.984762
43946		12.993470	-3.718165	6.950939	3.498061	3.584162	4.535644	-0.594002	-2.268311	-1.309888	-0.994873	0.025391	0.216309	0.128888	-0.037819	0.071087	-0.006320	-0.616071	0.005434	-0.787647	-0.183760	-76.062972	179.224243
43947		11.929164	-3.589811	7.790892	4.898653	3.551059	3.576594	-0.690269	-1.975826	-1.346498	-0.989258	0.006592	0.228271	0.118269	-0.036425	0.079206	-0.013695	-0.623820	0.004068	-0.781438	2.770723	-77.177897	175.780894
43948		9.448561	-3.485679	7.613403	5.526352	3.486163	0.989605	-0.780337	-1.648435	-1.392864	-0.977539	-0.006836	0.244385	0.093609	-0.035211	0.077045	-0.021454	-0.629972	0.003118	-0.776315	6.140588	-78.027569	171.857340
43949		6.552805	-3.773428	8.438945	7.123512	3.702486	-1.816603	-0.799186	-1.347959	-1.456134	-0.959717	-0.020264	0.259766	0.064681	-0.037868	0.084978	-0.029601	-0.635105	0.001780	-0.771856	10.221780	-78.673897	167.222828
43950		2.376410	-4.222995	8.165494	7.787585	3.971927	-6.107053	-0.663149	-0.951116	-1.492436	-0.964844	-0.039307	0.266846	0.023060	-0.042132	0.081906	-0.037354	-0.638373	0.000035	-0.768821	14.442805	-78.989051	162.513255
43951		9.299932	-4.342131	11.441278	9.838243	4.355386	1.163769	-0.273525	-0.693353	-1.283887	-0.956055	-0.054199	0.265381	0.092321	-0.043859	0.114793	-0.043160	-0.640970	-0.002880	-0.766346	18.524625	-79.161446	158.196427
43952		10.341443	-5.926307	13.546989	11.853796	5.929868	2.431151	-0.454983	0.451592	-0.656048	-0.958252	-0.055664	0.259277	0.103526	-0.059295	0.135371	-0.047003	-0.638736	-0.002971	-0.767983	19.346361	-78.753734	157.067941
43953		3.530021	-7.047387	9.795340	9.442978	6.731210	-4.955170	-0.372893	1.186882	-0.240208	-0.961670	-0.064209	0.242676	0.035797	-0.070334	0.097873	-0.049097	-0.634075	-0.002583	-0.771707	18.685697	-78.066000	157.524099
43954		1.232948	-6.167461	7.847667	7.876142	5.772439	-7.406889	-0.143280	1.449977	-0.001483	-0.958984	-0.065674	0.228027	0.012898	-0.061619	0.078429	-0.049386	-0.627917	-0.001920	-0.776710	17.089513	-77.220423	159.039572
43955		0.757879	-5.033254	6.661473	6.698781	4.679927	-7.940030	0.016348	1.518793	0.175926	-0.953125	-0.060547	0.217041	0.008129	-0.050331	0.066550	-0.048635	-0.622005	-0.001804	-0.781499	15.638101	-76.413781	160.539678
43956		1.528025	-3.653560	6.547557	6.269093	3.375019	-7.009057	-0.009641	1.599690	0.402353	-0.953613	-0.058838	0.201172	0.015877	-0.036501	0.065352	-0.046908	-0.615144	-0.000359	-0.787018	13.475234	-75.517793	162.721911
43957		2.031968	-2.846785	6.628455	6.109733	2.599650	-6.336939	-0.180080	1.760020	0.649809	-0.950684	-0.056396	0.177002	0.020994	-0.028341	0.066127	-0.044899	-0.608149	0.001938	-0.792550	11.199327	-74.611951	164.970318
43958		2.163490	-2.772463	6.568421	5.937440	2.509949	-6.076892	-0.363228	1.964423	0.856098	-0.947998	-0.037842	0.153076	0.022397	-0.027511	0.065517	-0.042454	-0.599581	0.006117	-0.799164	8.329853	-73.505328	167.692605
43959		2.145805	-2.672422	6.465873	5.756579	2.380815	-5.972803	-0.455084	2.176922	0.980009	-0.955078	-0.036621	0.135742	0.022291	-0.026469	0.064480	-0.039965	-0.590710	0.010413	-0.805826	5.756170	-72.335867	170.111861
43960		2.324825	-2.353871	6.405399	5.521855	2.028521	-5.645447	-0.490108	2.367264	1.026803	-0.946289	-0.022461	0.106689	0.024125	-0.023260	0.063829	-0.037221	-0.580246	0.015544	-0.813442	3.142709	-70.935249	172.520938
43961		2.687006	-1.820099	6.433632	5.278394	1.462610	-5.130771	-0.529481	2.541522	1.038357	-0.949951	-0.015869	0.075439	0.027779	-0.017889	0.064035	-0.034727	-0.569672	0.020238	-0.820889	1.037342	-69.501251	174.435499
43962		3.202711	-1.297223	6.550774	5.021584	0.886385	-4.441765	-0.610871	2.706094	1.038384	-0.940674	-0.005127	0.053467	0.032976	-0.012603	0.065105	-0.032305	-0.557507	0.025835	-0.829141	-1.036570	-67.845963	176.234732
43963		4.025520	-1.071912	6.758015	4.717084	0.596485	-3.455587	-0.719060	2.875320	1.043292	-0.937500	0.009277	0.015869	0.041276	-0.010264	0.067029	-0.030351	-0.545265	0.031260	-0.837131	-2.730424	-66.179261	177.626688
43964		4.703590	-1.271264	6.856918	4.331770	0.706221	-2.637192	-0.781674	3.051660	1.038105	-0.926270	0.012207	-0.012207	0.048139	-0.012198	0.067889	-0.028447	-0.531299	0.037490	-0.845876	-4.387764	-64.284446	178.905467
43965		5.435136	-1.365902	7.049472	3.951551	0.698430	-1.751003	-0.778924	3.226995	1.019830	-0.923828	0.024170	-0.039551	0.055548	-0.013105	0.069657	-0.026803	-0.517266	0.043032	-0.854322	-5.671492	-62.390847	179.842044
43966		6.135823	-1.111963	7.181787	3.417182	0.328124	-0.943176	-0.755980	3.378298	1.022606	-0.921875	0.025879	-0.072754	0.062615	-0.010533	0.070808	-0.024959	-0.501549	0.049032	-0.863378	-6.909283	-60.284786	-179.296532
43967		6.663446	-0.656041	7.295174	2.888055	-0.239656	-0.344752	-0.777133	3.498049	1.040180	-0.917725	0.042236	-0.100342	0.067929	-0.005929	0.071795	-0.023270	-0.486005	0.054554	-0.871941	-7.914359	-58.219775	-178.645685
43968		6.981135	-0.328917	7.333432	2.350373	-0.689134	0.016454	-0.831252	3.571546	1.069100	-0.903809	0.045898	-0.141846	0.071121	-0.002610	0.072084	-0.021457	-0.469047	0.060915	-0.880809	-8.965772	-55.985393	-178.018226
43969		7.417469	-0.167630	7.392921	1.767242	-0.977903	0.463946	-0.907890	3.588470	1.079641	-0.885986	0.060547	-0.175781	0.075492	-0.000940	0.072588	-0.019919	-0.452725	0.067053	-0.888902	-9.876556	-53.855088	-177.541494
43970		7.886681	-0.266660	7.489172	1.163435	-1.035526	0.953832	-0.958344	3.582773	1.075065	-0.876953	0.072021	-0.206055	0.080203	-0.001884	0.073473	-0.018377	-0.435337	0.073906	-0.897041	-10.820031	-51.604872	-177.104121
43971		8.549405	-0.400260	7.510778	0.372257	-1.050176	1.518994	-0.956601	3.562497	1.051080	-0.860352	0.082275	-0.228516	0.086832	-0.003194	0.073586	-0.017056	-0.418797	0.080147	-0.904375	-11.604458	-49.484730	-176.798637
43972		8.968891	-0.507581	7.379551	-0.432093	-1.068569	1.755021	-0.915045	3.514002	1.029272	-0.845703	0.088623	-0.264160	0.090991	-0.004277	0.072225	-0.015604	-0.401423	0.086618	-0.911654	-12.375033	-47.275254	-176.527864
43973		8.959044	-0.259322	7.121799	-1.048592	-1.381000	1.502370	-0.872015	3.392152	1.013641	-0.834961	0.094971	-0.287109	0.090792	-0.001829	0.069694	-0.014198	-0.385381	0.092353	-0.918015	-13.021040	-45.250618	-176.325897
43974		8.982496	-0.031002	7.060127	-1.539141	-1.711081	1.377573	-0.877080	3.182153	0.992732	-0.800293	0.107666	-0.318848	0.090932	0.000445	0.069159	-0.012689	-0.369306	0.098504	-0.923985	-13.708618	-43.233014	-176.119455
43975		9.527487	-0.104548	7.341129	-2.105636	-1.829651	1.886976	-0.920783	2.951721	0.984270	-0.784912	0.121338	-0.340088	0.096347	-0.000239	0.071997	-0.011292	-0.355070	0.104380	-0.928925	-14.361702	-41.454468	-175.933792
43976		10.266641	-0.413717	7.946347	-2.618704	-1.819691	2.778472	-0.965630	2.754164	1.004713	-0.764893	0.122803	-0.358643	0.103766	-0.003239	0.078057	-0.009674	-0.340811	0.110887	-0.933519	-15.094998	-39.676554	-175.714022
43977		11.002286	-0.747865	8.525763	-3.155644	-1.798467	3.644324	-0.974750	2.637721	1.063799	-0.746826	0.131348	-0.387451	0.111171	-0.006478	0.083830	-0.007829	-0.327815	0.117114	-0.937422	-15.803170	-38.056337	-175.476233
43978		11.469674	-1.198909	8.693979	-3.779353	-1.585781	4.035151	-0.916409	2.586889	1.144143	-0.728027	0.137939	-0.392334	0.115873	-0.010934	0.085498	-0.005388	-0.314161	0.123530	-0.941283	-16.531741	-36.353082	-175.194220
43979		11.495403	-1.242017	8.522026	-4.272967	-1.657534	3.799490	-0.790138	2.545193	1.228737	-0.702637	0.152588	-0.399902	0.116098	-0.011376	0.083794	-0.002415	-0.301358	0.129102	-0.944728	-17.164562	-34.752082	-174.885289
43980		11.318573	-1.189062	8.269361	-4.655805	-1.785983	3.341268	-0.628390	2.473945	1.293337	-0.679688	0.146240	-0.405762	0.114270	-0.010897	0.081320	0.001236	-0.288084	0.134293	-0.948141	-17.746399	-33.090026	-174.540023
43981		11.211281	-0.954801	8.015551	-5.058938	-2.074234	2.873772	-0.469463	2.360455	1.338066	-0.653076	0.155273	-0.425049	0.113108	-0.008607	0.078845	0.005320	-0.275960	0.138453	-0.951130	-18.213261	-31.565629	-174.170882
43982		11.504121	-0.601284	7.947158	-5.695122	-2.557102	2.712461	-0.353649	2.226506	1.377162	-0.646484	0.157471	-0.438721	0.115954	-0.005077	0.078194	0.009913	-0.263769	0.142354	-0.953972	-18.648003	-30.028781	-173.766128
43983		12.137466	-0.744739	7.871123	-6.566687	-2.590344	2.835824	-0.268069	2.122859	1.419338	-0.621826	0.155762	-0.438477	0.122249	-0.006478	0.077426	0.014821	-0.252614	0.145604	-0.956434	-19.013965	-28.613658	-173.333438
43984		12.755119	-1.077748	7.739262	-7.458667	-2.437996	2.921660	-0.160613	2.082636	1.448959	-0.617920	0.152832	-0.445801	0.128421	-0.009788	0.076066	0.020090	-0.241053	0.148566	-0.958863	-19.333804	-27.148853	-172.889030
43985		12.852463	-1.406867	7.228359	-8.056496	-2.126570	2.433679	-0.035791	2.062782	1.479528	-0.603516	0.156250	-0.455566	0.129360	-0.013101	0.070955	0.025609	-0.230037	0.150722	-0.961098	-19.556792	-25.750680	-172.435522
43986		12.573886	-1.496006	6.354688	-8.472120	-1.894613	1.383129	0.099441	2.008718	1.500875	-0.592285	0.156250	-0.464355	0.126476	-0.014044	0.062272	0.031465	-0.218798	0.152395	-0.963283	-19.713561	-24.326593	-171.968806
43987		12.146848	-1.373459	5.376237	-8.738084	-1.799707	0.123866	0.228060	1.881151	1.491532	-0.577148	0.162354	-0.471436	0.122065	-0.012886	0.052601	0.037466	-0.208537	0.153219	-0.965211	-19.776437	-23.021891	-171.487994
43988		12.109021	-1.187630	4.566672	-9.231164	-1.856457	-0.855793	0.320183	1.693397	1.458191	-0.562988	0.156250	-0.476074	0.121554	-0.011063	0.044621	0.043565	-0.198870	0.153650	-0.966925	-19.795236	-21.789463	-170.993517
43989		12.138606	-0.923701	3.636725	-9.771026	-1.959364	-1.931859	0.384334	1.480895	1.409219	-0.551270	0.158203	-0.483398	0.121712	-0.008449	0.035450	0.049623	-0.190521	0.153513	-0.968335	-19.759415	-20.716238	-170.486181
43990		12.006054	-0.386346	2.632801	-10.122962	-2.277992	-3.212783	0.408216	1.226493	1.355853	-0.557617	0.155273	-0.496826	0.120242	-0.003101	0.025584	0.055645	-0.183256	0.153247	-0.969451	-19.719532	-19.770937	-169.960152
43991		11.914939	0.246361	1.867913	-10.354686	-2.760171	-4.274208	0.389565	0.907365	1.282934	-0.542969	0.155518	-0.494629	0.119214	0.003193	0.018144	0.061526	-0.177747	0.152788	-0.970194	-19.678881	-19.032104	-169.412080
43992		12.138258	0.855670	1.434000	-10.709439	-3.367499	-4.904356	0.328479	0.590102	1.177801	-0.543457	0.165283	-0.497559	0.121371	0.009248	0.013997	0.067076	-0.173837	0.152511	-0.970578	-19.678007	-18.480703	-168.860922
43993		12.673049	1.303298	1.312979	-11.219739	-3.965194	-5.077509	0.257565	0.318461	1.029624	-0.537109	0.161377	-0.504150	0.126682	0.013668	0.012945	0.072055	-0.171404	0.152267	-0.970692	-19.694301	-18.108573	-168.340480
43994		12.927016	1.544807	1.331985	-11.416342	-4.348549	-5.119645	0.208148	0.121161	0.844109	-0.541748	0.167480	-0.503174	0.129212	0.015980	0.013258	0.076220	-0.170193	0.152075	-0.970617	-19.723202	-17.890698	-167.885000
43995		12.583336	1.847525	1.346578	-11.043674	-4.651830	-5.344555	0.205156	-0.032366	0.622076	-0.545410	0.170654	-0.496094	0.125773	0.018853	0.013505	0.079441	-0.169785	0.151602	-0.970504	-19.716198	-17.786304	-167.525794
43996		11.869476	2.204433	1.359217	-10.313824	-4.902236	-5.667287	0.213544	-0.195315	0.378649	-0.539795	0.174072	-0.500000	0.118639	0.022254	0.013732	0.081579	-0.170594	0.150816	-0.970308	-19.676532	-17.845493	-167.269087
43997		11.224322	2.444043	1.540853	-9.599154	-5.073791	-5.757361	0.192242	-0.379151	0.131887	-0.537109	0.166748	-0.503174	0.112198	0.024499	0.015645	0.082671	-0.172243	0.149847	-0.970074	-19.613617	-18.023126	-167.117345
43998		10.891275	2.221617	2.036627	-9.104829	-4.936056	-5.291583	0.135919	-0.552579	-0.085750	-0.541260	0.167236	-0.492188	0.108865	0.022156	0.020682	0.082748	-0.175282	0.148840	-0.969678	-19.556562	-18.378984	-167.050818
43999		6.375285	-2.020587	4.697549	-4.375780	-0.656906	-2.941400	0.299643	-0.799217	-0.320763	-0.546631	0.175781	-0.486328	0.063532	-0.020378	0.047199	0.082053	-0.179257	0.146780	-0.969324	-19.378478	-18.870465	-167.072437
44000		-0.503578	-3.199371	11.126766	4.312779	0.339566	0.938009	0.692885	-0.887942	-0.560655	-0.547852	0.170410	-0.483643	-0.005620	-0.032364	0.111132	0.080564	-0.184107	0.142481	-0.969182	-18.933317	-19.506131	-167.212935
44001		-0.581366	-5.037417	13.408158	5.165857	1.630063	3.459344	0.457963	-0.904335	-0.596900	-0.552979	0.165283	-0.478027	-0.006570	-0.050662	0.133937	0.078739	-0.188715	0.139352	-0.968900	-18.614939	-20.105328	-167.379635
44002		0.289245	-3.136281	7.564617	2.405036	1.129976	-2.061481	0.460465	-1.111460	-0.789895	-0.563477	0.165039	-0.481689	0.002348	-0.031547	0.075588	0.076085	-0.194815	0.135871	-0.968399	-18.264839	-20.894145	-167.619720
44003		3.019835	-2.344655	6.966940	-0.147725	0.037717	-1.867232	0.504185	-1.369411	-0.941038	-0.563477	0.158203	-0.467041	0.029609	-0.023763	0.069814	0.072950	-0.201875	0.131993	-0.967731	-17.871296	-21.805896	-167.908556
44004		5.398793	-2.883014	9.073688	-1.348414	-0.293119	1.044721	0.518852	-1.419893	-0.910384	-0.569580	0.149170	-0.462891	0.053210	-0.029309	0.091041	0.069972	-0.209475	0.127983	-0.966874	-17.470539	-22.777969	-168.175979
44005		5.567890	-2.948155	8.868166	-1.442759	-0.116431	0.968768	0.476290	-1.309379	-0.774823	-0.579834	0.142822	-0.467773	0.054982	-0.029907	0.088972	0.067564	-0.216117	0.124413	-0.966049	-17.112133	-23.624888	-168.394274
44006		4.438242	-2.522410	7.783674	-0.725980	-0.000823	-0.532750	0.484604	-1.374520	-0.647096	-0.589111	0.141846	-0.453613	0.043764	-0.025555	0.078077	0.065783	-0.223318	0.120847	-0.964986	-16.777456	-24.525547	-168.528663
44007		5.137485	-2.011684	7.834967	-1.154564	-0.554107	-0.316105	0.483162	-1.528452	-0.564806	-0.595459	0.146240	-0.441406	0.050717	-0.020451	0.078690	0.064522	-0.230857	0.117384	-0.963724	-16.473492	-25.455968	-168.594038
44008		6.343389	-1.291230	8.698657	-1.613054	-1.554025	0.796395	0.491209	-1.567409	-0.544183	-0.597168	0.140869	-0.430664	0.062714	-0.013298	0.087448	0.063353	-0.238892	0.113819	-0.962269	-16.167936	-26.444790	-168.643658
44009		7.236695	-1.073213	10.244486	-1.476237	-2.122573	2.507325	0.516245	-1.494612	-0.585277	-0.607666	0.128418	-0.430420	0.071567	-0.011208	0.102953	0.062005	-0.246234	0.110164	-0.960931	-15.828975	-27.359149	-168.740148
44010		13.458961	-0.631562	13.903647	-4.897046	-4.132720	8.457141	0.776605	-0.970148	-0.805080	-0.608643	0.127930	-0.426270	0.133885	-0.007397	0.139660	0.059596	-0.251429	0.105058	-0.960310	-15.225072	-28.058774	-169.072164
44011		10.758174	-1.775827	9.413989	-4.759186	-1.628035	3.685950	0.606664	-0.138164	-0.681879	-0.612305	0.120850	-0.431396	0.107455	-0.018410	0.094159	0.057160	-0.252258	0.101252	-0.960649	-14.687119	-28.234894	-169.476724
44012		4.971109	-3.495084	7.275051	-0.886673	1.435297	-0.484926	0.623351	-0.160860	-0.501135	-0.610107	0.120605	-0.436523	0.049564	-0.035302	0.072681	0.055589	-0.253486	0.097470	-0.960809	-14.185462	-28.441817	-169.765273
44013		6.255538	-1.739669	9.479364	-0.780433	-0.748946	1.626104	0.598724	-0.254024	-0.369070	-0.615479	0.126953	-0.430664	0.062402	-0.017796	0.094820	0.054701	-0.254709	0.094061	-0.960877	-13.750585	-28.632977	-169.958503
44014		6.449061	0.185089	8.899957	-1.099444	-2.494644	0.836326	0.461644	-0.164638	-0.348137	-0.607422	0.121826	-0.437012	0.064420	0.001533	0.089056	0.053664	-0.255915	0.091253	-0.960885	-13.385512	-28.817129	-170.153242
44015		5.805786	-0.894333	9.013955	-0.535285	-1.305692	0.853466	0.333587	-0.123682	-0.270911	-0.614502	0.125244	-0.437500	0.057990	-0.009172	0.090160	0.052849	-0.256534	0.089275	-0.960951	-13.120699	-28.920630	-170.306836
44016		5.852932	-1.591011	8.233042	-0.987143	-0.474652	0.354477	0.271608	-0.144383	-0.209117	-0.615967	0.131348	-0.448242	0.058453	-0.016083	0.082351	0.052228	-0.257627	0.087544	-0.960852	-12.901722	-29.073941	-170.418624
44017		5.850821	-1.581487	8.521909	-0.825344	-0.491880	0.600425	0.228083	-0.153634	-0.164487	-0.622314	0.131592	-0.447021	0.058430	-0.015960	0.085246	0.051802	-0.258369	0.086202	-0.960797	-12.731370	-29.179682	-170.501083
44018		5.629704	-1.510537	8.285616	-0.729820	-0.468288	0.280615	0.168879	-0.120884	-0.121670	-0.621826	0.130859	-0.446045	0.056238	-0.015210	0.082877	0.051459	-0.259335	0.085081	-0.960655	-12.595696	-29.308163	-170.561492
44019		5.799496	-1.505062	8.065880	-0.975945	-0.448596	0.177510	0.130728	-0.118432	-0.105861	-0.627686	0.138672	-0.454834	0.057939	-0.015134	0.080683	0.051174	-0.259908	0.084290	-0.960585	-12.496441	-29.386640	-170.612117
44020		5.978756	-1.596353	8.164947	-1.067190	-0.379919	0.369502	0.099590	-0.087100	-0.081026	-0.627930	0.141602	-0.457275	0.059746	-0.016028	0.081668	0.050922	-0.260710	0.083562	-0.960445	-12.410275	-29.490837	-170.651880
44021		5.525878	-1.987689	8.066648	-0.743204	0.092144	0.136996	0.068862	-0.049187	-0.053224	-0.626953	0.138916	-0.463135	0.055234	-0.019919	0.080673	0.050780	-0.260944	0.083155	-0.960424	-12.358022	-29.524031	-170.678775
44022		5.146819	-1.878673	8.187714	-0.338662	0.033519	0.033226	0.063357	-0.038595	-0.047873	-0.634521	0.150635	-0.463867	0.051448	-0.018825	0.081881	0.050620	-0.261507	0.082658	-0.960323	-12.299834	-29.596793	-170.704292
44023		5.042864	-1.893836	8.076090	-0.303881	0.085229	-0.110074	0.058730	-0.040074	-0.042186	-0.627441	0.142578	-0.465332	0.050408	-0.018973	0.080765	0.050513	-0.261695	0.082316	-0.960306	-12.256165	-29.623559	-170.725461
44024		5.516123	-1.741263	7.872734	-0.794906	-0.094403	-0.076222	0.057487	-0.037166	-0.042782	-0.644043	0.163818	-0.473633	0.055143	-0.017447	0.078733	0.050369	-0.262243	0.081859	-0.960203	-12.203163	-29.693992	-170.748031
44025		5.264992	-2.035922	7.982809	-0.537277	0.222531	-0.052966	0.060341	-0.008773	-0.041198	-0.640625	0.152588	-0.473633	0.052642	-0.020394	0.079824	0.050257	-0.262281	0.081518	-0.960228	-12.156654	-29.703138	-170.772997
44026		4.868968	-1.935081	8.196337	-0.075862	0.160808	-0.086450	0.070144	0.000865	-0.039056	-0.651367	0.160156	-0.482666	0.048686	-0.019389	0.081956	0.050132	-0.262639	0.081019	-0.960179	-12.095363	-29.751348	-170.798517
44027		4.914017	-1.903403	8.074001	-0.176248	0.147047	-0.173843	0.070616	0.004613	-0.044124	-0.647705	0.154541	-0.483887	0.049138	-0.019073	0.080732	0.050013	-0.262612	0.080628	-0.960225	-12.041065	-29.753364	-170.827258
44028		5.391558	-1.544486	7.876303	-0.661480	-0.234804	-0.169151	0.088852	0.004157	-0.053916	-0.650635	0.168213	-0.490479	0.053913	-0.015494	0.078755	0.049841	-0.262945	0.080026	-0.960193	-11.964455	-29.800392	-170.862884
44029		5.221278	-1.789340	8.124814	-0.403322	0.007259	0.001250	0.088358	0.025469	-0.048732	-0.655029	0.158691	-0.488525	0.052219	-0.017942	0.081234	0.049715	-0.262816	0.079549	-0.960275	-11.897059	-29.791264	-170.897473
44030		4.701915	-1.842399	8.150935	0.056157	0.139060	-0.225317	0.084907	0.023685	-0.045129	-0.664307	0.175049	-0.494385	0.047025	-0.018469	0.081496	0.049572	-0.263049	0.078983	-0.960265	-11.824321	-29.825728	-170.930172
44031		5.277192	-1.714313	7.964822	-0.528368	-0.032575	-0.120125	0.095452	0.026455	-0.048014	-0.662109	0.166016	-0.496338	0.052778	-0.017194	0.079633	0.049459	-0.262913	0.078473	-0.960350	-11.753010	-29.815950	-170.964419
44032		5.446768	-1.560300	7.878222	-0.705931	-0.183924	-0.136117	0.097448	0.019456	-0.044466	-0.670898	0.175293	-0.495850	0.054472	-0.015653	0.078769	0.049338	-0.263157	0.077851	-0.960340	-11.673862	-29.851789	-170.996158
44033		5.676336	-1.622492	7.844096	-0.926005	-0.139785	-0.039967	0.095172	0.017360	-0.042950	-0.666260	0.171631	-0.502930	0.056767	-0.016274	0.078428	0.049252	-0.263063	0.077346	-0.960411	-11.604930	-29.846512	-171.025902
44034		4.843270	-1.883642	8.290669	0.006531	0.186341	-0.029754	0.084634	0.028616	-0.030746	-0.670654	0.168213	-0.505127	0.048442	-0.018879	0.082892	0.049176	-0.263259	0.076807	-0.960405	-11.537055	-29.875445	-171.050029
44035		5.284603	-1.758369	7.944628	-0.544504	0.054262	-0.125760	0.086882	-0.000338	-0.033793	-0.674561	0.180176	-0.502441	0.052843	-0.017627	0.079439	0.049130	-0.263249	0.076349	-0.960446	-11.476970	-29.879060	-171.071512
44036		5.601764	-1.522120	7.997105	-0.771089	-0.216307	0.036623	0.083253	0.014326	-0.034180	-0.680908	0.178955	-0.509521	0.056021	-0.015264	0.079961	0.049042	-0.263509	0.075813	-0.960422	-11.410085	-29.915587	-171.095981
44037		4.804480	-1.780632	8.230387	0.015604	0.124678	-0.118506	0.067790	0.009472	-0.027060	-0.686523	0.180420	-0.514648	0.048046	-0.017841	0.082296	0.049000	-0.263454	0.075459	-0.960467	-11.362445	-29.912952	-171.114406
44038		5.314156	-1.643105	7.986840	-0.532454	-0.040663	-0.094431	0.069472	-0.009493	-0.031640	-0.689453	0.180908	-0.510742	0.053135	-0.016467	0.079865	0.048915	-0.263826	0.074988	-0.960406	-11.305986	-29.961942	-171.134189
44039		4.996974	-1.737375	8.104497	-0.205405	0.087236	-0.136878	0.059369	-0.005718	-0.025882	-0.702881	0.186523	-0.517822	0.049965	-0.017404	0.081041	0.048873	-0.263847	0.074672	-0.960427	-11.264508	-29.967742	-171.149894
44040		5.258742	-1.676955	7.876766	-0.536248	0.028008	-0.209478	0.054854	-0.015545	-0.038727	-0.696777	0.187256	-0.512451	0.052578	-0.016801	0.078767	0.048737	-0.264249	0.074264	-0.960355	-11.214742	-30.020306	-171.173557
44041		4.825520	-1.608631	8.179285	-0.005253	-0.010826	-0.180767	0.052357	-0.009600	-0.034611	-0.705811	0.180420	-0.510498	0.048248	-0.016116	0.081791	0.048645	-0.264293	0.073968	-0.960370	-11.174663	-30.029297	-171.194457
44042		4.991014	-1.689577	8.039134	-0.215313	0.070665	-0.203254	0.037651	-0.032576	-0.033786	-0.705566	0.186523	-0.514404	0.049894	-0.016919	0.080396	0.048517	-0.264774	0.073647	-0.960269	-11.137618	-30.090186	-171.212813
44043		5.293260	-1.492874	7.983492	-0.489011	-0.151507	-0.131710	0.034813	-0.027514	-0.041793	-0.715820	0.182861	-0.508301	0.052918	-0.014954	0.079840	0.048374	-0.264912	0.073422	-0.960256	-11.106349	-30.110079	-171.236126
44044		5.157132	-1.615147	8.039148	-0.341434	-0.012622	-0.131991	0.032872	-0.031679	-0.041418	-0.718018	0.183594	-0.520752	0.051555	-0.016175	0.080397	0.048202	-0.265388	0.073117	-0.960156	-11.069601	-30.170736	-171.259661
44045		5.275661	-1.672143	7.971804	-0.477372	0.040562	-0.119969	0.032683	-0.034906	-0.040198	-0.720215	0.186035	-0.523193	0.052739	-0.016745	0.079725	0.048067	-0.265561	0.072902	-0.960131	-11.040484	-30.194647	-171.281051
44046		4.818575	-1.822716	8.143057	0.002819	0.236156	-0.179695	0.034519	-0.028298	-0.048614	-0.719238	0.184326	-0.530273	0.048170	-0.018253	0.081434	0.047861	-0.266019	0.072582	-0.960039	-11.000384	-30.253689	-171.309783
44047		5.446160	-1.695283	7.925398	-0.635321	0.059622	-0.069003	0.041436	-0.044727	-0.061299	-0.715332	0.181152	-0.520508	0.054439	-0.016986	0.079263	0.047640	-0.266246	0.072294	-0.960009	-10.959886	-30.285462	-171.343735
44048		4.813399	-1.764121	8.327197	0.119065	0.172934	-0.036233	0.047405	-0.026316	-0.061063	-0.727051	0.183838	-0.521484	0.048118	-0.017676	0.083274	0.047391	-0.266691	0.071900	-0.959927	-10.908455	-30.344125	-171.380898
44049		4.941779	-1.929021	8.109111	-0.108947	0.350913	-0.129457	0.054935	-0.041353	-0.065486	-0.722900	0.178711	-0.518799	0.049395	-0.019329	0.081096	0.047166	-0.266900	0.071543	-0.959907	-10.858526	-30.374462	-171.418103
44050		5.180017	-1.525563	8.127895	-0.270884	-0.069748	-0.058491	0.051072	-0.049692	-0.064726	-0.730469	0.187988	-0.526123	0.051775	-0.015293	0.081288	0.046914	-0.267450	0.071125	-0.959797	-10.805573	-30.445701	-171.454808
44051		5.598598	-1.301924	7.869788	-0.744998	-0.307605	-0.100674	0.044663	-0.060598	-0.058543	-0.729492	0.184082	-0.523926	0.055958	-0.013053	0.078712	0.046716	-0.267752	0.070822	-0.959745	-10.764923	-30.486129	-171.485192
44052		5.183329	-1.530045	8.107793	-0.267267	-0.048424	-0.072540	0.028433	-0.058548	-0.046384	-0.727051	0.187012	-0.522705	0.051806	-0.015324	0.081091	0.046524	-0.268340	0.070535	-0.959611	-10.731428	-30.560074	-171.509010
44053		5.091846	-1.453073	8.227123	-0.116408	-0.121059	-0.030271	0.023447	-0.077819	-0.044855	-0.731445	0.188477	-0.524414	0.050883	-0.014552	0.082289	0.046369	-0.268725	0.070348	-0.959525	-10.708464	-30.608766	-171.528408
44054		5.371303	-1.500205	7.988635	-0.467450	-0.078030	-0.081541	0.013956	-0.084032	-0.037467	-0.732910	0.189453	-0.523438	0.053677	-0.015018	0.079908	0.046209	-0.269431	0.070138	-0.959350	-10.687802	-30.695490	-171.543384
44055		5.592322	-1.415198	7.900683	-0.687933	-0.176720	-0.055989	0.007389	-0.101186	-0.043345	-0.737061	0.196045	-0.514893	0.055880	-0.014167	0.079035	0.046048	-0.269932	0.070024	-0.959225	-10.675935	-30.757224	-171.558979
44056		5.177748	-1.349203	8.037301	-0.245525	-0.199988	-0.162436	0.003496	-0.086717	-0.029227	-0.738525	0.193359	-0.525635	0.051741	-0.013501	0.080395	0.045915	-0.270648	0.069875	-0.959041	-10.664203	-30.844403	-171.568332
44057		5.259570	-1.507116	8.019278	-0.322478	-0.050569	-0.110278	-0.000282	-0.114873	-0.028508	-0.743164	0.189453	-0.534424	0.052547	-0.015079	0.080223	0.045819	-0.271211	0.069815	-0.958891	-10.662527	-30.912325	-171.572556
44058		5.565335	-1.390404	7.811303	-0.668844	-0.178351	-0.146072	0.001137	-0.111856	-0.026528	-0.747070	0.197998	-0.520020	0.055608	-0.013912	0.078144	0.045850	-0.272051	0.069653	-0.958663	-10.656982	-31.012342	-171.559001
44059		4.912447	-1.559719	8.177493	0.080307	0.032394	-0.146833	-0.007217	-0.107145	-0.019880	-0.745361	0.200684	-0.529297	0.049079	-0.015599	0.081802	0.045783	-0.272576	0.069639	-0.958518	-10.661691	-31.075054	-171.558522
44060		5.200086	-1.653695	8.059113	-0.214017	0.103892	-0.082924	-0.005014	-0.119587	-0.021589	-0.747559	0.193115	-0.532959	0.051951	-0.016541	0.080623	0.045894	-0.273450	0.069502	-0.958274	-10.662821	-31.178154	-171.533260
44061		5.005465	-1.717979	8.152745	0.008835	0.182929	-0.094672	-0.003882	-0.117209	-0.021079	-0.745850	0.195313	-0.529053	0.050005	-0.017183	0.081557	0.045829	-0.274023	0.069468	-0.958115	-10.665863	-31.246714	-171.532308
44062		5.367866	-1.468592	7.919860	-0.391780	-0.080859	-0.141343	0.001356	-0.123081	-0.022659	-0.753662	0.211670	-0.534668	0.053628	-0.014693	0.079232	0.045902	-0.274905	0.069308	-0.957871	-10.662881	-31.351367	-171.512583
44063		5.071588	-1.690525	8.088744	-0.050302	0.158999	-0.118419	-0.003921	-0.126105	-0.030522	-0.751953	0.200684	-0.534668	0.050662	-0.016911	0.080920	0.045795	-0.275524	0.069259	-0.957702	-10.663278	-31.425992	-171.516751
44064		5.425804	-1.545123	7.899321	-0.424908	-0.005505	-0.114985	0.001689	-0.136964	-0.041269	-0.756836	0.214844	-0.534424	0.054201	-0.015463	0.079030	0.045864	-0.276478	0.069058	-0.957438	-10.656067	-31.539522	-171.497687
44065		5.644143	-1.413117	7.755902	-0.665702	-0.144802	-0.140918	0.001018	-0.135692	-0.046938	-0.757080	0.215576	-0.527100	0.056385	-0.014145	0.077597	0.045688	-0.277147	0.068960	-0.957260	-10.648555	-31.621336	-171.511528
44066		5.398052	-1.606058	7.946408	-0.347084	0.059850	-0.079254	-0.000241	-0.132813	-0.047563	-0.771240	0.218018	-0.527588	0.053924	-0.016073	0.079500	0.045793	-0.278085	0.068748	-0.956998	-10.641114	-31.732672	-171.488405
44067		5.221679	-1.633813	8.071349	-0.119455	0.099859	-0.062934	0.005494	-0.131902	-0.060835	-0.760986	0.218018	-0.533203	0.052159	-0.016356	0.080747	0.045556	-0.278740	0.068610	-0.956829	-10.625878	-31.813870	-171.511969
44068		5.440834	-1.663539	7.917053	-0.369231	0.123108	-0.071114	0.010212	-0.147628	-0.064125	-0.770752	0.217773	-0.524170	0.054345	-0.016657	0.079210	0.045620	-0.279747	0.068320	-0.956552	-10.607974	-31.934715	-171.495807
44069		5.359734	-1.549008	7.950292	-0.262487	0.021989	-0.103727	0.010903	-0.152027	-0.071870	-0.776855	0.214844	-0.539307	0.053531	-0.015514	0.079543	0.045344	-0.280501	0.068135	-0.956358	-10.586958	-32.028449	-171.524295
44070		5.176667	-1.732991	8.024135	-0.056960	0.224605	-0.110411	0.006117	-0.165604	-0.074315	-0.780762	0.214844	-0.535400	0.051694	-0.017352	0.080284	0.045346	-0.281595	0.067849	-0.956057	-10.568812	-32.160149	-171.514483
44071		5.110584	-1.674266	8.074350	0.046424	0.175143	-0.113022	0.005109	-0.188259	-0.085717	-0.787598	0.226318	-0.526611	0.051023	-0.016767	0.080791	0.045008	-0.282528	0.067664	-0.955811	-10.548427	-32.275779	-171.547827
44072		5.823733	-1.457774	7.732992	-0.700617	-0.085434	-0.048368	-0.002215	-0.216232	-0.100156	-0.787109	0.221680	-0.532715	0.058146	-0.014606	0.077393	0.044922	-0.283868	0.067366	-0.955439	-10.529700	-32.437848	-171.545346
44073		4.859177	-1.717937	8.225797	0.384976	0.246082	-0.116408	-0.011297	-0.225006	-0.104628	-0.791748	0.215576	-0.529297	0.048490	-0.017200	0.082314	0.044483	-0.284986	0.067224	-0.955136	-10.514140	-32.576190	-171.586941
44074		5.373264	-1.567318	7.983052	-0.139577	0.065261	-0.064162	-0.015730	-0.281866	-0.111567	-0.799316	0.228271	-0.531982	0.053611	-0.015697	0.079907	0.044333	-0.286641	0.066962	-0.954666	-10.503112	-32.775943	-171.585629
44075		5.574009	-1.384445	7.827149	-0.354921	-0.118028	-0.111629	-0.022527	-0.300451	-0.115216	-0.812988	0.221191	-0.537842	0.055614	-0.013868	0.078357	0.043853	-0.288124	0.066840	-0.954250	-10.494883	-32.957929	-171.625165
44076		5.796299	-1.467579	7.726469	-0.562863	-0.047147	-0.059224	-0.031353	-0.323763	-0.114621	-0.811768	0.219971	-0.523438	0.057829	-0.014697	0.077361	0.043718	-0.289979	0.066631	-0.953709	-10.494853	-33.181010	-171.616093
44077		5.261429	-1.427166	8.004880	0.070639	-0.045129	-0.128142	-0.033436	-0.335160	-0.108150	-0.819336	0.224365	-0.519287	0.052472	-0.014287	0.080139	0.043266	-0.291627	0.066563	-0.953232	-10.497531	-33.381859	-171.646712
44078		5.898969	-1.457158	7.657878	-0.612153	-0.052410	-0.056323	-0.029050	-0.370270	-0.113746	-0.826904	0.221191	-0.521973	0.058839	-0.014594	0.076690	0.043148	-0.293697	0.066331	-0.952618	-10.499180	-33.630748	-171.632126
44079		5.538636	-1.507152	7.830204	-0.182933	0.028614	-0.105695	-0.029793	-0.370066	-0.106556	-0.834473	0.220459	-0.507324	0.055233	-0.015089	0.078407	0.042721	-0.295508	0.066240	-0.952083	-10.502531	-33.851147	-171.657406
44080		5.427977	-1.525797	7.951147	0.019042	0.053725	-0.065465	-0.026727	-0.399911	-0.100923	-0.841309	0.223145	-0.503418	0.054113	-0.015275	0.079622	0.042670	-0.297710	0.066008	-0.951415	-10.509429	-34.115234	-171.631340
44081		5.354384	-1.547706	7.897604	0.088130	0.094501	-0.147278	-0.027480	-0.411775	-0.096712	-0.850342	0.222168	-0.504883	0.053374	-0.015492	0.079088	0.042306	-0.299714	0.065910	-0.950809	-10.517977	-34.358152	-171.644707
44082		5.800262	-1.451775	7.777731	-0.293920	-0.036722	-0.006777	-0.027087	-0.445139	-0.092553	-0.849609	0.220947	-0.501709	0.057823	-0.014534	0.077908	0.042325	-0.302120	0.065677	-0.950062	-10.531708	-34.646154	-171.605094
44083		5.435736	-1.449221	7.935233	0.138702	-0.006617	-0.086643	-0.031259	-0.450259	-0.085873	-0.859131	0.223145	-0.485107	0.054172	-0.014503	0.079477	0.042019	-0.304301	0.065603	-0.949385	-10.549398	-34.909666	-171.606046
44084		5.488442	-1.438167	7.890966	0.121771	-0.014635	-0.094487	-0.025889	-0.496784	-0.082710	-0.863037	0.229248	-0.488525	0.054682	-0.014394	0.079048	0.042103	-0.306941	0.065365	-0.948547	-10.570196	-35.225242	-171.552773
44085		6.159170	-1.420682	7.527343	-0.581768	-0.071925	-0.000922	-0.031923	-0.542144	-0.093956	-0.870117	0.216553	-0.474121	0.061381	-0.014224	0.075442	0.041787	-0.309557	0.065261	-0.947718	-10.592031	-35.541403	-171.547209
44086		5.681864	-1.418514	7.752598	-0.003461	-0.032699	-0.096866	-0.034562	-0.592720	-0.097503	-0.882324	0.218994	-0.469482	0.056582	-0.014199	0.077696	0.041454	-0.312634	0.065093	-0.946734	-10.613561	-35.913634	-171.537104
44087		5.630923	-1.468397	7.877389	0.171526	0.015763	-0.020511	-0.039102	-0.651172	-0.105018	-0.888916	0.211914	-0.458984	0.056045	-0.014698	0.078960	0.041109	-0.315765	0.064981	-0.945717	-10.643640	-36.292407	-171.524620
44088		6.027620	-1.453257	7.541975	-0.273600	-0.006739	-0.053066	-0.041996	-0.727714	-0.118038	-0.887451	0.202148	-0.451904	0.059993	-0.014552	0.075641	0.040710	-0.319476	0.064787	-0.944500	-10.671906	-36.742240	-171.510711
44089		5.783031	-1.411943	7.713430	0.101409	-0.028892	-0.069875	-0.052711	-0.796105	-0.129301	-0.895996	0.204102	-0.445557	0.057514	-0.014136	0.077367	0.040274	-0.323295	0.064670	-0.943226	-10.711632	-37.205231	-171.495397
44090		5.654815	-1.500776	7.932125	0.421137	0.060295	0.034456	-0.059859	-0.874212	-0.124186	-0.906250	0.201172	-0.421387	0.056191	-0.015019	0.079572	0.039862	-0.327688	0.064520	-0.941737	-10.760242	-37.737765	-171.465360
44091		5.905168	-1.372296	7.741759	0.202868	-0.072300	0.017973	-0.066171	-0.970380	-0.122709	-0.908936	0.201172	-0.419922	0.058667	-0.013733	0.077707	0.039490	-0.332316	0.064439	-0.940135	-10.826188	-38.298161	-171.420351
44092		6.022375	-1.554644	7.713699	0.193977	0.103290	0.093767	-0.083201	-1.058967	-0.127368	-0.906006	0.187988	-0.404541	0.059804	-0.015552	0.077461	0.039081	-0.337560	0.064354	-0.938288	-10.904369	-38.934193	-171.365277
44093		5.915772	-1.644247	7.631254	0.330565	0.217003	-0.026038	-0.096512	-1.148675	-0.143037	-0.928467	0.191895	-0.381836	0.058706	-0.016448	0.076659	0.038617	-0.343018	0.064343	-0.936327	-10.996732	-39.597047	-171.307199
44094		6.024304	-1.649245	7.597497	0.347845	0.218699	0.014019	-0.112606	-1.224368	-0.161163	-0.932861	0.197021	-0.379150	0.059763	-0.016498	0.076351	0.038049	-0.349024	0.064304	-0.934130	-11.094556	-40.328954	-171.249734
44095		6.406960	-1.263374	7.443269	0.095346	-0.187643	0.086897	-0.126231	-1.316374	-0.173512	-0.938965	0.191406	-0.359863	0.063567	-0.012642	0.074860	0.037442	-0.355255	0.064341	-0.931801	-11.209124	-41.089339	-171.185432
44096		6.334442	-1.309370	7.532937	0.348461	-0.136344	0.109162	-0.132915	-1.401226	-0.160391	-0.945801	0.180908	-0.337402	0.062804	-0.013094	0.075779	0.036895	-0.362052	0.064361	-0.929201	-11.341118	-41.919722	-171.095937
44097		6.336716	-1.236997	7.468700	0.450350	-0.197511	0.047429	-0.123671	-1.508548	-0.164499	-0.945801	0.175293	-0.326660	0.062791	-0.012375	0.075170	0.036392	-0.369136	0.064360	-0.926430	-11.484342	-42.786831	-170.988968
44098		6.516068	-1.220049	7.561927	0.544767	-0.236517	0.226013	-0.118183	-1.595597	-0.167368	-0.952881	0.181396	-0.313477	0.064544	-0.012210	0.076143	0.035896	-0.376784	0.064254	-0.923372	-11.632539	-43.726040	-170.866433
44099		6.030809	-1.572116	7.794882	1.213586	0.152485	0.092055	-0.120831	-1.701398	-0.166879	-0.959717	0.169678	-0.296387	0.059629	-0.015724	0.078468	0.035445	-0.384711	0.064192	-0.920120	-11.804007	-44.701230	-170.720250
44100		6.264456	-1.716001	7.579759	1.072309	0.296503	0.107007	-0.112265	-1.796218	-0.189971	-0.968994	0.165527	-0.273438	0.061944	-0.017176	0.076366	0.034914	-0.393222	0.063971	-0.916550	-11.971092	-45.753900	-170.570675
44101		6.367838	-1.772923	7.617631	1.214872	0.348266	0.193336	-0.098148	-1.935465	-0.217941	-0.970215	0.162598	-0.251709	0.062918	-0.017760	0.076796	0.034341	-0.402171	0.063654	-0.912703	-12.142705	-46.865760	-170.411522
44102		6.683877	-1.942850	7.364089	1.018362	0.518810	0.255517	-0.069299	-2.077892	-0.252616	-0.980713	0.160645	-0.223877	0.066044	-0.019487	0.074337	0.033693	-0.411894	0.063054	-0.908423	-12.299680	-48.081712	-170.248216
44103		6.468061	-1.954801	7.441178	1.434857	0.568422	0.119180	-0.050746	-2.238170	-0.307861	-0.993164	0.150391	-0.199951	0.063812	-0.019628	0.075134	0.032894	-0.422150	0.062272	-0.903786	-12.446297	-49.373437	-170.092214
44104		7.220799	-2.013538	6.975777	0.832746	0.610612	0.374767	-0.004226	-2.415835	-0.395071	-0.997559	0.135010	-0.173340	0.071318	-0.020275	0.070623	0.031834	-0.433315	0.061012	-0.898611	-12.539699	-50.794058	-169.970206
44105		6.720642	-2.167968	6.927632	1.356607	0.859270	-0.051806	0.014835	-2.599756	-0.491363	-1.002686	0.134277	-0.151855	0.066245	-0.021848	0.070140	0.030450	-0.445116	0.059464	-0.892977	-12.594123	-52.310550	-169.890226
44106		7.085280	-2.065183	6.634754	1.172434	0.788210	0.009915	0.062872	-2.813055	-0.593696	-1.004395	0.138184	-0.109131	0.069849	-0.020881	0.067328	0.028757	-0.457941	0.057391	-0.886662	-12.581786	-53.976580	-169.858100
44107		6.904116	-2.180836	6.619718	1.550210	0.979126	-0.175570	0.098947	-3.019841	-0.701517	-1.010498	0.108643	-0.078125	0.067954	-0.022081	0.067218	0.026737	-0.471471	0.054907	-0.879764	-12.502352	-55.754222	-169.886238
44108		7.210044	-2.268992	6.912536	1.936277	1.083363	0.186498	0.110388	-3.227645	-0.815192	-1.014893	0.101074	-0.051025	0.070879	-0.023019	0.070263	0.024281	-0.485942	0.052031	-0.872103	-12.349221	-57.677981	-169.992032
44109		6.937623	-1.850530	6.914779	2.409552	0.768533	-0.171008	0.112396	-3.472484	-0.914986	-1.010986	0.093994	-0.007568	0.068076	-0.018858	0.070327	0.021464	-0.501240	0.048890	-0.863659	-12.137013	-59.734932	-170.165292
44110		7.847757	-1.827302	6.415423	1.886363	0.781980	0.281904	0.080154	-3.750062	-1.012139	-1.019287	0.080566	0.029297	0.077163	-0.018692	0.065602	0.018195	-0.517688	0.045573	-0.854161	-11.874794	-61.972191	-170.411815
44111		7.588902	-2.371514	6.155749	2.172558	1.452520	-0.103701	0.135776	-3.995039	-1.161568	-1.018555	0.057373	0.077637	0.074500	-0.024193	0.063039	0.014493	-0.534900	0.041616	-0.843765	-11.423203	-64.349899	-170.830942
44112		9.438637	-2.360648	6.557896	2.187560	1.405238	1.627780	0.133987	-4.209420	-1.262690	-1.018799	0.049805	0.118408	0.092827	-0.024241	0.067528	0.010388	-0.552874	0.037345	-0.832362	-10.806583	-66.868854	-171.423104
44113		10.057590	-2.281797	5.318409	1.300127	1.488745	1.620464	0.198569	-4.370011	-1.411791	-1.015381	0.040771	0.169678	0.099218	-0.023576	0.055339	0.005874	-0.571178	0.032381	-0.820166	-9.826345	-69.478654	-172.356507
44114		12.560294	-1.857039	5.639469	1.285173	1.099899	3.975581	0.227924	-4.442503	-1.502981	-1.000488	0.019531	0.211670	0.124165	-0.019574	0.059142	0.001075	-0.589552	0.027012	-0.807278	-8.414271	-72.139553	-173.713249
44115		13.941814	-2.110281	5.526413	1.411309	1.511352	5.188996	0.213495	-4.432369	-1.567304	-0.989990	-0.007324	0.260498	0.137977	-0.022249	0.058309	-0.004024	-0.607499	0.021501	-0.794019	-6.396597	-74.775593	-175.690162
44116		14.801748	-2.104194	5.582869	1.931398	1.700114	5.935998	0.076343	-4.383247	-1.573041	-0.981201	-0.012451	0.308838	0.146575	-0.022221	0.059043	-0.009565	-0.624971	0.016508	-0.780414	-3.620412	-77.366555	-178.505306
44117		14.841006	-2.112390	5.882182	2.909718	1.907854	5.908848	-0.072866	-4.261133	-1.585813	-0.965088	-0.030762	0.351074	0.146938	-0.022271	0.061971	-0.015627	-0.641574	0.012040	-0.766808	0.515329	-79.834986	177.233913
44118		16.494118	-3.120174	6.882254	4.357010	3.096883	7.523092	-0.290840	-4.111590	-1.579923	-0.949463	-0.052002	0.392090	0.163227	-0.032392	0.072237	-0.022360	-0.657302	0.008423	-0.753248	7.014897	-82.137867	170.484695
44119		15.947381	-3.494870	6.841805	5.103558	3.661961	6.735534	-0.410680	-3.726681	-1.633098	-0.932617	-0.070801	0.426758	0.157870	-0.036098	0.071443	-0.029700	-0.671232	0.005020	-0.740635	18.166503	-84.028770	159.016097
44120		14.756718	-4.524925	7.255161	6.294194	4.811400	5.289287	-0.478632	-3.476529	-1.726515	-0.909424	-0.081543	0.451172	0.145878	-0.046336	0.075207	-0.037589	-0.683973	0.001556	-0.728537	37.370659	-85.354993	139.454482
44121		14.016220	-4.850160	8.723111	8.346220	5.179777	4.313575	-0.629616	-3.012315	-1.775995	-0.893066	-0.100342	0.476318	0.138389	-0.049456	0.089479	-0.046183	-0.694742	-0.001656	-0.717773	62.487558	-85.696882	113.901300
44122		10.482605	-4.782256	9.231624	9.352214	4.941547	0.486743	-0.870806	-2.469248	-1.813956	-0.881592	-0.111084	0.502197	0.103237	-0.048357	0.093807	-0.055698	-0.703286	-0.004183	-0.708710	82.734774	-85.126585	93.086381
44123		5.352380	-4.941445	9.043315	9.435232	4.695426	-4.937424	-1.034253	-2.030693	-1.910381	-0.859863	-0.136719	0.508545	0.052128	-0.049446	0.091223	-0.066141	-0.710085	-0.006667	-0.700971	94.721761	-84.051743	80.451169
44124		-0.787643	-5.534736	7.915049	8.340475	4.685317	-11.355436	-0.703042	-1.823996	-2.002071	-0.855469	-0.143311	0.524170	-0.009151	-0.054982	0.079265	-0.075657	-0.716052	-0.010593	-0.693854	101.790491	-82.778805	72.925088
44125		16.607584	-6.117549	13.462902	14.712103	6.839380	5.394039	-0.384076	-1.656871	-1.433974	-0.843506	-0.160400	0.535156	0.164509	-0.062098	0.136115	-0.082091	-0.721543	-0.013763	-0.687348	106.857243	-81.746496	67.589655
44126		16.380578	-8.760068	16.884986	18.487782	9.113287	4.516118	-0.631857	0.391290	-0.471834	-0.843262	-0.161621	0.517334	0.163930	-0.087454	0.168806	-0.085894	-0.719790	-0.013295	-0.688729	104.437512	-81.570386	69.661393
44127		6.749718	-10.449806	12.911553	14.186663	9.837788	-4.973587	-0.535331	1.594176	0.180576	-0.852051	-0.173584	0.502197	0.068619	-0.104091	0.128851	-0.087091	-0.714066	-0.011482	-0.694545	98.128843	-81.850800	75.726218
44128		2.920626	-10.089737	10.639424	11.708719	9.188589	-8.398790	-0.099699	2.134391	0.522634	-0.862061	-0.158447	0.483154	0.030603	-0.100766	0.106123	-0.085404	-0.706408	-0.009968	-0.702563	89.243798	-82.259977	84.626811
44129		1.576599	-8.509894	8.951471	9.789889	7.672431	-9.248598	0.354544	2.356751	0.689848	-0.873779	-0.149902	0.448486	0.017112	-0.085200	0.089167	-0.081606	-0.698269	-0.009778	-0.711101	79.089305	-82.517336	95.075610
44130		1.207794	-6.569380	7.941465	8.522830	5.879320	-9.126134	0.609853	2.506667	0.872842	-0.884033	-0.130859	0.429443	0.013358	-0.065879	0.079052	-0.076123	-0.689338	-0.009632	-0.720365	67.408248	-82.605485	107.190852
44131		1.606601	-4.660887	7.742993	8.049191	4.131991	-8.266682	0.619141	2.664948	1.094302	-0.897949	-0.122070	0.400879	0.017350	-0.046755	0.077060	-0.069912	-0.679961	-0.009098	-0.729851	55.260164	-82.422925	119.799882
44132		1.846643	-3.329512	7.531897	7.619022	2.908811	-7.642774	0.405722	2.860910	1.340965	-0.909424	-0.103516	0.358643	0.019764	-0.033318	0.074975	-0.063371	-0.669342	-0.006699	-0.740217	42.370154	-81.917609	133.025054
44133		2.065006	-2.905133	7.120941	7.062610	2.563758	-7.175961	0.117241	3.063795	1.572715	-0.927002	-0.092529	0.332275	0.021965	-0.028924	0.070863	-0.057047	-0.658001	-0.002834	-0.750848	30.616119	-81.038708	144.976477
44134		2.132390	-2.978770	6.754224	6.592499	2.660723	-6.898491	-0.098520	3.257069	1.723930	-0.938477	-0.068115	0.298096	0.022676	-0.029563	0.067195	-0.050713	-0.645313	0.002614	-0.762229	20.192483	-79.742407	155.468112
44135		2.344816	-3.109643	6.356374	6.060086	2.811064	-6.505435	-0.175257	3.409701	1.795707	-0.941650	-0.039307	0.255615	0.024805	-0.030822	0.063176	-0.044471	-0.632138	0.008216	-0.773535	12.234449	-78.151107	163.472476
44136		2.972435	-2.708625	6.195446	5.600502	2.418338	-5.649227	-0.185349	3.539379	1.806570	-0.949219	-0.032227	0.217773	0.031057	-0.026753	0.061438	-0.038074	-0.617817	0.014202	-0.785271	5.979469	-76.261401	169.753100
44137		3.852014	-2.151056	6.340506	5.309341	1.835903	-4.511815	-0.200795	3.650174	1.795842	-0.951904	0.001221	0.179688	0.039860	-0.021093	0.062707	-0.031894	-0.603199	0.019846	-0.796706	1.446141	-74.240470	174.320472
44138		4.801088	-1.675472	6.569501	4.999246	1.291471	-3.305328	-0.266201	3.767911	1.791857	-0.956299	0.015381	0.143555	0.049384	-0.016230	0.064795	-0.025795	-0.587403	0.026061	-0.808463	-2.196578	-72.014094	177.941523
44139		5.601312	-1.446048	6.851977	4.722593	0.954107	-2.250288	-0.361460	3.899326	1.796758	-0.954834	0.031982	0.098877	0.057461	-0.013826	0.067434	-0.020095	-0.571231	0.032297	-0.819907	-4.965821	-69.720210	-179.347793
44140		6.370805	-1.306314	7.138989	4.373995	0.663803	-1.229491	-0.446819	4.020570	1.803502	-0.953369	0.050537	0.058594	0.065240	-0.012322	0.070117	-0.014493	-0.553798	0.039223	-0.831600	-7.307535	-67.251990	-177.133373
44141		6.928946	-1.134352	7.309080	3.927292	0.329024	-0.476173	-0.522443	4.118417	1.795137	-0.937988	0.063477	0.022461	0.070872	-0.010524	0.071670	-0.009279	-0.536149	0.046065	-0.842815	-9.138457	-64.769843	-175.458161
44142		7.602596	-0.896336	7.580183	3.440048	-0.116911	0.394874	-0.595528	4.199318	1.753018	-0.928955	0.082764	-0.021729	0.077669	-0.008065	0.074207	-0.004328	-0.517370	0.053418	-0.854082	-10.705920	-62.155039	-174.116263
44143		8.421025	-0.630804	7.932809	2.888885	-0.624812	1.389147	-0.690521	4.267616	1.688014	-0.925049	0.090576	-0.060791	0.085925	-0.005318	0.077526	-0.000043	-0.498546	0.060634	-0.864740	-11.943570	-59.567918	-173.153375
44144		9.328826	-0.589152	8.201058	2.128441	-0.943916	2.401316	-0.800463	4.340753	1.598930	-0.912354	0.111084	-0.106934	0.095080	-0.004813	0.079981	0.003678	-0.478616	0.068405	-0.875348	-13.034813	-56.867384	-172.439113
44145		10.272386	-0.857292	8.335366	1.174834	-0.959003	3.355534	-0.884188	4.430468	1.508189	-0.895020	0.110107	-0.146240	0.104596	-0.007427	0.081085	0.006649	-0.458594	0.075954	-0.885369	-13.906204	-54.197689	-171.997774
44146		10.676066	-1.208136	8.241860	0.261074	-0.838957	3.698766	-0.898684	4.479112	1.419989	-0.881836	0.134033	-0.181641	0.108652	-0.010951	0.080050	0.009285	-0.437568	0.083644	-0.895238	-14.670980	-51.435113	-171.715566
44147		10.663544	-1.425568	8.121089	-0.427064	-0.792279	3.635426	-0.864316	4.444597	1.354685	-0.858643	0.151855	-0.228516	0.108497	-0.013181	0.078872	0.011599	-0.417028	0.090667	-0.904285	-15.277861	-48.774539	-171.571192
44148		10.735749	-1.295518	8.156519	-1.071241	-1.116784	3.642302	-0.837376	4.298062	1.343443	-0.838379	0.158691	-0.260010	0.109160	-0.011891	0.079283	0.014083	-0.396363	0.097796	-0.912761	-15.883261	-46.121896	-171.434456
44149		11.099810	-0.945745	8.215823	-1.877087	-1.683075	3.796616	-0.878455	4.075427	1.358934	-0.812988	0.164795	-0.292969	0.112701	-0.008341	0.079911	0.016551	-0.377068	0.104771	-0.920092	-16.484857	-43.662258	-171.296510
44150		11.734510	-0.823085	8.412127	-2.779594	-2.100917	4.221905	-0.964924	3.820758	1.375116	-0.789795	0.178223	-0.323486	0.118975	-0.007018	0.081894	0.019154	-0.358213	0.112395	-0.926652	-17.180728	-41.267238	-171.120491
44151		12.772755	-0.990657	8.902634	-3.769958	-2.355888	5.140134	-1.052698	3.576286	1.382828	-0.764404	0.174561	-0.348877	0.129355	-0.008555	0.086770	0.021666	-0.340896	0.120079	-0.932149	-17.901922	-39.074384	-170.938975
44152		14.232172	-1.200346	9.426266	-5.125437	-2.671152	6.293498	-1.102161	3.407517	1.390226	-0.731201	0.192627	-0.363770	0.143977	-0.010496	0.091880	0.024313	-0.323703	0.128209	-0.937117	-18.673816	-36.902919	-170.747671
44153		15.499027	-0.980461	9.411685	-6.717169	-3.280328	6.735444	-1.138358	3.344981	1.423226	-0.708740	0.199951	-0.379883	0.156598	-0.008168	0.091556	0.026995	-0.307196	0.136239	-0.941457	-19.432538	-34.824733	-170.567581
44154		16.058020	-0.864367	8.705023	-8.170761	-3.541909	6.157242	-1.124566	3.305981	1.471192	-0.681641	0.196777	-0.403564	0.162046	-0.006976	0.084422	0.030023	-0.290236	0.144463	-0.945511	-20.201678	-32.695140	-170.380206
44155		16.427315	-0.563929	7.808743	-9.516290	-3.876160	5.204954	-1.023143	3.203658	1.522360	-0.654785	0.197754	-0.404541	0.165531	-0.003992	0.075466	0.033422	-0.274093	0.151976	-0.949031	-20.895840	-30.669599	-170.176593
44156		16.947090	-0.082380	6.648375	-11.073507	-4.306254	3.978991	-0.869651	3.076011	1.560101	-0.641357	0.204102	-0.418701	0.170465	0.000785	0.063866	0.037366	-0.257984	0.158948	-0.952252	-21.525718	-28.649669	-169.947778
44157		17.151948	0.423883	5.455295	-12.272151	-4.658599	2.507630	-0.660705	2.916010	1.568296	-0.619385	0.198730	-0.437988	0.172249	0.005762	0.052028	0.041664	-0.242937	0.164649	-0.955059	-22.018483	-26.764060	-169.704301
44158		17.143313	0.780417	4.161607	-13.234042	-4.769663	0.859985	-0.414797	2.712214	1.543693	-0.609131	0.199219	-0.444092	0.171909	0.009213	0.039269	0.046353	-0.228424	0.169232	-0.957619	-22.385133	-24.948153	-169.444739
44159		16.947381	1.039539	2.846559	-13.920231	-4.712403	-0.846230	-0.143551	2.467552	1.474703	-0.594971	0.207031	-0.462891	0.169725	0.011666	0.026364	0.051164	-0.215366	0.172168	-0.959874	-22.576317	-23.317853	-169.180737
44160		16.875054	2.006689	1.672125	-14.534445	-5.355311	-2.626231	0.043566	2.175385	1.376937	-0.577393	0.205322	-0.467529	0.168776	0.021225	0.014890	0.055983	-0.203462	0.174132	-0.961846	-22.668679	-21.832965	-168.910021
44161		16.686555	2.683466	0.607552	-14.900301	-5.722218	-4.223732	0.086865	1.888532	1.291819	-0.569824	0.201172	-0.478027	0.166735	0.027910	0.004513	0.060643	-0.193212	0.175556	-0.963417	-22.723094	-20.548200	-168.624576
44162		16.299123	3.026197	-0.369064	-14.985802	-5.758403	-5.663806	0.082862	1.584782	1.200689	-0.553711	0.211182	-0.480957	0.162770	0.031241	-0.004968	0.065135	-0.184346	0.176901	-0.964614	-22.789735	-19.426733	-168.322274
44163		16.047933	3.470142	-1.402324	-15.147996	-5.887119	-7.088990	0.090015	1.244987	1.090696	-0.560791	0.209961	-0.485596	0.160196	0.035582	-0.015005	0.069382	-0.177336	0.177882	-0.965451	-22.842416	-18.525934	-168.004799
44164		16.062884	3.818870	-2.368719	-15.490423	-5.992828	-8.283020	0.126430	0.887919	0.925855	-0.544189	0.208252	-0.495850	0.160343	0.038947	-0.024375	0.073178	-0.172144	0.178474	-0.966001	-22.874294	-17.846103	-167.697177
44165		16.108906	4.195931	-3.066461	-15.733991	-6.208604	-9.181195	0.170538	0.531301	0.704574	-0.543213	0.205078	-0.489746	0.160858	0.042553	-0.031056	0.076260	-0.168879	0.178460	-0.966342	-22.858474	-17.407776	-167.430149
44166		16.041502	4.443295	-3.373577	-15.734070	-6.392644	-9.650631	0.192820	0.172298	0.437018	-0.548096	0.223877	-0.490967	0.160288	0.044816	-0.033831	0.078368	-0.167659	0.178005	-0.966469	-22.814481	-17.228024	-167.227006
44167		15.884658	4.621220	-3.089197	-15.450940	-6.664102	-9.531237	0.185800	-0.153096	0.167922	-0.542480	0.218262	-0.496826	0.158831	0.046374	-0.030727	0.079479	-0.168171	0.177199	-0.966438	-22.747409	-17.270697	-167.097691
44168		14.812171	3.740829	-2.271992	-14.231809	-5.906770	-8.753748	0.112959	-0.476486	-0.106937	-0.545410	0.209961	-0.489258	0.148195	0.037342	-0.022346	0.079451	-0.170711	0.176379	-0.966145	-22.702235	-17.567882	-167.044295
44169		13.395070	4.342329	-8.102222	-14.980018	-4.346111	-14.355064	0.539933	-1.453241	-1.033685	-0.561279	0.209717	-0.490234	0.134757	0.042945	-0.079929	0.076203	-0.178415	0.172314	-0.965748	-22.319698	-18.562943	-167.283591
44170		2.993129	-2.488021	5.276579	-0.934794	0.124090	-3.324327	0.771838	-2.507058	-1.521529	-0.568115	0.197754	-0.465332	0.029076	-0.025308	0.053037	0.071654	-0.191805	0.166232	-0.964595	-21.785396	-20.255406	-167.565870
44171		4.729569	-11.898098	17.179259	1.785524	5.293626	10.871130	0.912802	-1.994087	-1.713751	-0.577637	0.189697	-0.460938	0.044557	-0.120154	0.171699	0.065921	-0.202496	0.159467	-0.963961	-21.073441	-21.676895	-168.096731
44172		5.451041	-6.517020	10.419750	-0.939496	2.277233	3.403888	1.035942	-1.711322	-1.677394	-0.581299	0.186523	-0.446289	0.053066	-0.066159	0.104315	0.060205	-0.212001	0.152190	-0.963467	-20.256921	-22.966088	-168.692046
44173		3.185233	-1.381268	4.086893	-1.147085	-0.315100	-4.583980	1.102515	-2.039871	-1.510431	-0.592285	0.168213	-0.445557	0.031327	-0.014277	0.041112	0.055651	-0.222620	0.144660	-0.962505	-19.443843	-24.358560	-169.146456
44174		5.598411	-4.553073	9.234832	-0.938893	1.119469	1.815290	1.034509	-2.654768	-1.108043	-0.610596	0.167725	-0.431152	0.054499	-0.046315	0.092840	0.053347	-0.236163	0.137690	-0.960428	-18.808098	-26.036539	-169.255706
44175		12.934024	-6.737379	12.981630	-5.374034	1.325789	8.910066	1.424184	-2.458982	-0.975232	-0.621094	0.148682	-0.423584	0.127402	-0.068928	0.130904	0.052039	-0.248232	0.129040	-0.958656	-17.950119	-27.549123	-169.351042
44176		20.153433	4.296911	16.231944	-9.323801	-10.752208	12.221702	2.064884	-1.181953	-1.432116	-0.623047	0.142090	-0.417480	0.200861	0.039842	0.163930	0.048461	-0.254556	0.117051	-0.958724	-16.462684	-28.473523	-170.008570
44177		12.026077	2.961885	10.833298	-4.901827	-6.737094	4.376624	1.231969	-0.137964	-1.201700	-0.631592	0.138672	-0.428467	0.120358	0.028227	0.108593	0.044354	-0.255610	0.109589	-0.959524	-15.409164	-28.738082	-170.736857
44178		5.909445	-3.125547	7.655961	-1.357588	0.840102	0.224931	1.101531	-0.191540	-0.866327	-0.627930	0.135498	-0.428223	0.058884	-0.031932	0.076441	0.041673	-0.257097	0.103099	-0.959966	-14.527851	-29.013510	-171.250722
44179		8.296042	-0.255207	9.546007	-2.367435	-2.461234	2.367256	1.117740	-0.291734	-0.648571	-0.630859	0.132813	-0.432617	0.082811	-0.003355	0.095564	0.040153	-0.258591	0.096848	-0.960281	-13.710844	-29.265888	-171.615508
44180		8.236480	2.077079	9.417822	-2.288683	-4.574976	1.792459	0.841213	-0.107765	-0.543225	-0.631348	0.125488	-0.433838	0.082369	0.020151	0.094308	0.038649	-0.259552	0.092025	-0.960557	-13.064188	-29.440230	-171.945605
44181		6.585203	-0.020576	8.875915	-1.186361	-2.133539	0.966328	0.641564	-0.084415	-0.401566	-0.629150	0.131348	-0.440674	0.065814	-0.000623	0.088785	0.037598	-0.260015	0.088417	-0.960813	-12.577395	-29.538188	-172.189872
44182		7.171382	-0.692989	9.693887	-1.281509	-1.587954	2.091771	0.517970	-0.037465	-0.276199	-0.639893	0.138672	-0.447998	0.071686	-0.007280	0.096934	0.036927	-0.260580	0.085481	-0.960951	-12.189979	-29.636492	-172.362463
44183		4.980382	-1.310528	8.627192	0.050614	-0.519518	0.221133	0.345890	-0.027104	-0.169614	-0.640869	0.129639	-0.441406	0.049781	-0.013297	0.086256	0.036580	-0.260718	0.083604	-0.961092	-11.941133	-29.671843	-172.466952
44184		5.554224	-1.447422	8.634351	-0.432117	-0.415351	0.538020	0.258018	-0.075918	-0.117916	-0.640381	0.143799	-0.458984	0.055501	-0.014618	0.086346	0.036348	-0.261445	0.082109	-0.961032	-11.754212	-29.771705	-172.533354
44185		5.316116	-1.330877	8.381714	-0.345866	-0.443885	0.185750	0.186511	-0.077013	-0.070525	-0.638916	0.149414	-0.463379	0.053124	-0.013406	0.083825	0.036290	-0.261811	0.081118	-0.961019	-11.631391	-29.823057	-172.567520
44186		5.389554	-1.496712	7.909795	-0.639588	-0.206034	-0.148281	0.130526	-0.087659	-0.046289	-0.650391	0.153564	-0.466064	0.053857	-0.015031	0.079112	0.036241	-0.262585	0.080326	-0.960876	-11.540743	-29.920787	-172.586600
44187		5.763614	-1.686217	7.922657	-0.951641	-0.052015	0.082904	0.096187	-0.093794	-0.027253	-0.656982	0.157471	-0.465576	0.057597	-0.016908	0.079245	0.036279	-0.263031	0.079822	-0.960795	-11.484565	-29.976613	-172.590762
44188		5.335211	-1.647409	7.817392	-0.621054	-0.017644	-0.226029	0.080496	-0.091157	-0.028354	-0.664063	0.167725	-0.469482	0.053314	-0.016513	0.078192	0.036251	-0.263825	0.079294	-0.960622	-11.428570	-30.074307	-172.598002
44189		5.438406	-1.950954	7.770828	-0.735111	0.284266	-0.161416	0.082636	-0.061069	-0.041723	-0.667725	0.166016	-0.470703	0.054356	-0.019553	0.077717	0.036189	-0.264122	0.078841	-0.960580	-11.373207	-30.113478	-172.615984
44190		5.160011	-2.580209	7.949546	-0.410807	0.923017	-0.042440	0.098816	-0.037077	-0.046859	-0.673584	0.174805	-0.481934	0.051579	-0.025853	0.079492	0.036075	-0.264659	0.078213	-0.960488	-11.297321	-30.182815	-172.642447
44191		5.615760	-2.326526	7.711176	-0.913702	0.665429	-0.059018	0.118617	-0.042869	-0.058659	-0.679443	0.169189	-0.484375	0.056134	-0.023327	0.077110	0.035972	-0.264870	0.077569	-0.960486	-11.214509	-30.213708	-172.673940
44192		5.122688	-1.917472	8.255198	-0.190678	0.259597	0.084948	0.095870	-0.006452	-0.053400	-0.691650	0.168457	-0.485596	0.051219	-0.019228	0.082544	0.035811	-0.265262	0.076958	-0.960433	-11.136901	-30.266361	-172.708546
44193		4.987929	-2.067173	8.115868	-0.150737	0.451013	-0.076476	0.103386	-0.007661	-0.064515	-0.698730	0.183350	-0.493652	0.049870	-0.020730	0.081150	0.035647	-0.265309	0.076385	-0.960472	-11.058518	-30.278123	-172.748480
44194		5.939936	-1.653388	7.745258	-1.138623	0.001091	0.021390	0.110931	0.005426	-0.080841	-0.696045	0.173340	-0.484375	0.059395	-0.016601	0.077442	0.035370	-0.265648	0.075672	-0.960445	-10.962789	-30.326547	-172.802505
44195		5.292724	-1.669653	7.993512	-0.458643	0.068748	-0.092512	0.110457	0.030558	-0.075470	-0.708252	0.181396	-0.488037	0.052933	-0.016761	0.079918	0.035148	-0.265515	0.075056	-0.960538	-10.874249	-30.317981	-172.854456
44196		5.717333	-1.621245	7.730051	-0.952949	0.022950	-0.109009	0.104183	0.033718	-0.079936	-0.709229	0.182129	-0.497803	0.057180	-0.016276	0.077282	0.034855	-0.265719	0.074383	-0.960544	-10.780971	-30.350300	-172.911508
44197		5.092260	-1.520074	8.065042	-0.246287	-0.039683	-0.157409	0.100118	0.053558	-0.080450	-0.721436	0.178955	-0.501221	0.050938	-0.015262	0.080629	0.034587	-0.265480	0.073814	-0.960664	-10.695263	-30.329271	-172.969540
44198		4.798473	-1.618356	8.205843	0.077698	0.084326	-0.170742	0.095348	0.040327	-0.072223	-0.716064	0.181152	-0.503174	0.047995	-0.016240	0.082041	0.034318	-0.265651	0.073196	-0.960674	-10.609237	-30.356813	-173.022409
44199		4.678444	-1.638439	8.333407	0.242372	0.111629	-0.120073	0.082145	0.031395	-0.068111	-0.720215	0.189453	-0.502197	0.046792	-0.016435	0.083320	0.034093	-0.265517	0.072726	-0.960755	-10.539270	-30.346918	-173.069634
44200		4.925944	-1.478975	8.287466	0.016000	-0.054902	-0.059170	0.069491	0.009317	-0.061139	-0.729492	0.183594	-0.496094	0.049259	-0.014834	0.082867	0.033855	-0.265831	0.072242	-0.960713	-10.473687	-30.389972	-173.111540
44201		5.164446	-1.231679	7.992744	-0.332757	-0.280765	-0.227129	0.044002	-0.023745	-0.051171	-0.735107	0.190674	-0.508301	0.051632	-0.012348	0.079931	0.033681	-0.265963	0.071968	-0.960703	-10.434492	-30.409389	-173.141062
44202		5.112317	-1.601430	8.166779	-0.197579	0.075921	-0.047861	0.030277	-0.048227	-0.044723	-0.739746	0.191162	-0.499268	0.051100	-0.016038	0.081678	0.033490	-0.266551	0.071685	-0.960568	-10.400156	-30.482715	-173.165470
44203		5.749421	-1.103687	7.830898	-0.896661	-0.435933	-0.086287	0.025636	-0.082118	-0.048689	-0.739990	0.194092	-0.504883	0.057459	-0.011061	0.078331	0.033324	-0.266966	0.071493	-0.960473	-10.375771	-30.534833	-173.186437
44204		4.961925	-1.356170	8.349633	0.054455	-0.162615	-0.007237	0.011272	-0.093144	-0.034361	-0.747070	0.198730	-0.506104	0.049578	-0.013575	0.083519	0.033174	-0.267768	0.071307	-0.960268	-10.358383	-30.632298	-173.198846
44205		5.117320	-1.757406	8.118621	-0.196536	0.247344	-0.061399	-0.002409	-0.143812	-0.025474	-0.747559	0.199951	-0.508301	0.051113	-0.017580	0.081223	0.033104	-0.268476	0.071270	-0.960076	-10.361500	-30.716876	-173.197285
44206		5.286658	-1.390746	8.129215	-0.304738	-0.130287	-0.022018	-0.005428	-0.153824	-0.029817	-0.744385	0.191895	-0.509033	0.052802	-0.013913	0.081333	0.032974	-0.269566	0.071162	-0.959783	-10.358999	-30.847596	-173.199506
44207		4.946230	-1.809912	8.213560	0.035284	0.309498	-0.060432	-0.004022	-0.171038	-0.023999	-0.761719	0.205078	-0.505615	0.049390	-0.018103	0.082178	0.032918	-0.270405	0.071130	-0.959551	-10.365214	-30.947455	-173.193709
44208		5.792898	-1.423280	7.744148	-0.896910	-0.102125	-0.079224	-0.002920	-0.204498	-0.037384	-0.753662	0.208496	-0.507324	0.057847	-0.014242	0.077501	0.033343	-0.271762	0.070918	-0.959169	-10.372912	-31.104562	-173.123995
44209		5.193296	-1.472309	8.105453	-0.178289	-0.032934	-0.075979	-0.004557	-0.199604	-0.036901	-0.753906	0.206055	-0.513428	0.051849	-0.014731	0.081107	0.033235	-0.272743	0.070865	-0.958898	-10.376878	-31.221930	-173.123175
44210		5.742066	-1.483965	7.715646	-0.822516	-0.030798	-0.115928	-0.003420	-0.233109	-0.050342	-0.763184	0.215576	-0.509033	0.057327	-0.014853	0.077224	0.033714	-0.274242	0.070618	-0.958472	-10.384530	-31.395627	-173.045057
44211		5.254977	-1.555396	8.092527	-0.188988	0.048847	-0.041050	-0.001450	-0.223059	-0.049403	-0.771973	0.217773	-0.505127	0.052456	-0.015566	0.080984	0.033558	-0.275339	0.070529	-0.958169	-10.383924	-31.527585	-173.049588
44212		4.867687	-1.788392	8.262152	0.251806	0.301667	-0.065820	-0.007060	-0.239128	-0.052508	-0.777100	0.214355	-0.512451	0.048573	-0.017894	0.082680	0.034144	-0.276870	0.070275	-0.957726	-10.395449	-31.704040	-172.957148
44213		5.292022	-1.617476	8.028492	-0.201951	0.118433	-0.064686	-0.006138	-0.261282	-0.059286	-0.783691	0.222656	-0.508057	0.052810	-0.016188	0.080354	0.033948	-0.278154	0.070186	-0.957367	-10.396540	-31.858637	-172.963513
44214		5.092756	-1.647401	8.153281	0.064022	0.156726	-0.060899	-0.010921	-0.257747	-0.059053	-0.796875	0.232422	-0.508057	0.050818	-0.016485	0.081599	0.034487	-0.279769	0.069939	-0.956895	-10.409125	-32.045695	-172.875014
44215		5.679806	-1.440124	7.762365	-0.608313	-0.061293	-0.106267	0.000518	-0.283072	-0.075651	-0.793945	0.222656	-0.519531	0.056683	-0.014423	0.077704	0.034230	-0.281162	0.069791	-0.956507	-10.402022	-32.214341	-172.889547
44216		5.236157	-1.801075	7.914418	-0.129309	0.327996	-0.159975	0.002013	-0.286111	-0.075231	-0.806152	0.235107	-0.505615	0.052241	-0.018031	0.079219	0.034811	-0.282914	0.069438	-0.955995	-10.405110	-32.418107	-172.796844
44217		5.361999	-1.631874	7.896587	-0.208422	0.154850	-0.132677	-0.006754	-0.343325	-0.107584	-0.814453	0.232910	-0.505371	0.053476	-0.016345	0.079058	0.034411	-0.284605	0.069267	-0.955520	-10.394575	-32.624083	-172.825352
44218		5.296373	-1.711070	8.095960	-0.003481	0.225453	0.009376	-0.006247	-0.382144	-0.119230	-0.825684	0.237793	-0.505371	0.052799	-0.017140	0.081061	0.033947	-0.286792	0.068996	-0.954902	-10.376114	-32.890260	-172.857506
44219		5.130998	-1.623795	8.155173	0.209802	0.156798	-0.045295	-0.005108	-0.419748	-0.128011	-0.832031	0.221924	-0.501465	0.051128	-0.016269	0.081660	0.033479	-0.288854	0.068774	-0.954313	-10.361900	-33.141482	-172.890646
44220		5.302859	-1.494566	7.966607	0.014876	0.041137	-0.126678	-0.012968	-0.448337	-0.136953	-0.838623	0.233887	-0.496338	0.052840	-0.014977	0.079786	0.032943	-0.291355	0.068499	-0.953590	-10.344911	-33.446206	-172.927040
44221		5.458836	-1.582990	7.953852	-0.076164	0.121041	-0.037829	-0.018790	-0.493641	-0.138783	-0.844971	0.227051	-0.488525	0.054381	-0.015860	0.079674	0.032428	-0.293772	0.068314	-0.952880	-10.339061	-33.740252	-172.958714
44222		5.711304	-1.289216	7.804955	-0.304552	-0.170234	-0.061973	-0.027959	-0.535073	-0.140924	-0.850342	0.232422	-0.481201	0.056895	-0.012921	0.078204	0.031879	-0.296683	0.068091	-0.952012	-10.334692	-34.093813	-172.987531
44223		5.750328	-1.249773	7.853779	-0.252573	-0.212545	-0.004486	-0.038120	-0.570154	-0.134174	-0.856689	0.215820	-0.483887	0.057271	-0.012521	0.078704	0.031383	-0.299462	0.067991	-0.951165	-10.346584	-34.430589	-173.006808
44224		5.925934	-1.071411	7.673112	-0.430765	-0.379299	-0.075567	-0.038632	-0.628945	-0.142578	-0.868652	0.224365	-0.462646	0.059010	-0.010741	0.076919	0.030841	-0.302813	0.067800	-0.950135	-10.353841	-34.837003	-173.025348
44225		5.469923	-1.444120	7.776759	0.058652	0.028507	-0.196092	-0.052675	-0.671397	-0.135616	-0.876221	0.224609	-0.455078	0.054428	-0.014458	0.077954	0.030349	-0.306070	0.067750	-0.949110	-10.380604	-35.231074	-173.032866
44226		5.323380	-1.502694	8.149960	0.469808	0.065832	0.025647	-0.056456	-0.714536	-0.141566	-0.884033	0.214111	-0.451660	0.052932	-0.015041	0.081693	0.029813	-0.309819	0.067629	-0.947919	-10.404534	-35.685334	-173.039875
44227		5.449658	-1.594656	7.910239	0.298399	0.175405	-0.081639	-0.055720	-0.753558	-0.150917	-0.887939	0.209473	-0.444824	0.054186	-0.015965	0.079311	0.029270	-0.313463	0.067555	-0.946742	-10.433066	-36.127370	-173.047180
44228		5.711441	-1.517165	7.557479	-0.038580	0.118660	-0.219890	-0.062231	-0.804183	-0.168236	-0.893555	0.206543	-0.445557	0.056797	-0.015196	0.075808	0.028627	-0.317630	0.067407	-0.945383	-10.456319	-36.634172	-173.061025
44229		6.234484	-1.321232	7.517680	-0.394595	-0.115289	0.034157	-0.068522	-0.851808	-0.186998	-0.896973	0.194580	-0.417725	0.062012	-0.013245	0.075446	0.027925	-0.321742	0.067320	-0.944018	-10.484741	-37.135401	-173.080558
44230		6.271326	-1.222386	7.290582	-0.468171	-0.183516	-0.131634	-0.070639	-0.906654	-0.194045	-0.912598	0.196533	-0.410645	0.062370	-0.012259	0.073193	0.027179	-0.326386	0.067153	-0.942456	-10.509910	-37.702356	-173.099028
44231		6.189839	-1.336777	7.418573	-0.233688	-0.069467	-0.061988	-0.080280	-0.945259	-0.207911	-0.910889	0.186768	-0.402344	0.061533	-0.013402	0.074483	0.026389	-0.330934	0.067071	-0.940897	-10.543408	-38.258506	-173.120769
44232		5.824986	-1.526889	7.596583	0.263435	0.141656	-0.123537	-0.089458	-0.994305	-0.209247	-0.924561	0.190918	-0.386963	0.057855	-0.015295	0.076261	0.025567	-0.335981	0.066953	-0.939138	-10.579790	-38.876280	-173.138136
44233		6.211664	-1.477714	7.348126	-0.091095	0.090506	-0.078934	-0.096224	-1.050095	-0.226214	-0.923828	0.183350	-0.377930	0.061713	-0.014812	0.073813	0.024699	-0.341012	0.066898	-0.937350	-10.623019	-39.493495	-173.158359
44234		5.832130	-1.549283	7.604030	0.475328	0.176970	-0.118509	-0.085292	-1.073435	-0.225095	-0.937500	0.170654	-0.363281	0.057895	-0.015526	0.076358	0.023833	-0.346409	0.066721	-0.935404	-10.656810	-40.157013	-173.175852
44235		6.382931	-1.320786	7.443794	0.063344	-0.074466	0.081033	-0.083056	-1.137278	-0.221320	-0.944580	0.171387	-0.341309	0.063390	-0.013247	0.074805	0.023037	-0.351824	0.066598	-0.933410	-10.702856	-40.822889	-173.179565
44236		6.615648	-1.376530	7.111472	-0.208333	0.005299	-0.005034	-0.076892	-1.187410	-0.230114	-0.950684	0.165039	-0.330566	0.065717	-0.013814	0.071511	0.022199	-0.357723	0.066356	-0.931202	-10.740248	-41.550496	-173.184000
44237		6.671661	-1.222818	7.082028	-0.148976	-0.139615	-0.008684	-0.070821	-1.246477	-0.236259	-0.960449	0.158203	-0.320557	0.066259	-0.012281	0.071239	0.021389	-0.363624	0.066132	-0.928949	-10.782941	-42.279510	-173.182126
44238		6.477807	-1.233866	7.372789	0.323132	-0.131660	0.072619	-0.055657	-1.288243	-0.230342	-0.959229	0.151855	-0.309082	0.064287	-0.012392	0.074146	0.020618	-0.369957	0.065775	-0.926488	-10.818727	-43.063617	-173.170990
44239		6.127773	-1.318036	7.655562	0.905600	-0.037974	0.039791	-0.036898	-1.370666	-0.208760	-0.969971	0.130615	-0.291504	0.060737	-0.013230	0.076976	0.020037	-0.376389	0.065425	-0.923931	-10.870396	-43.859618	-173.127859
44240		6.351888	-1.480222	7.453361	0.751464	0.136446	0.061778	-0.025950	-1.442241	-0.203313	-0.987549	0.137695	-0.276123	0.062964	-0.014857	0.074991	0.019494	-0.383378	0.064958	-0.921098	-10.921839	-44.726578	-173.070358
44241		6.361762	-1.409899	7.483398	0.912790	0.074019	0.067619	-0.014570	-1.526772	-0.211603	-0.983887	0.123047	-0.256836	0.063029	-0.014160	0.075318	0.018990	-0.390487	0.064477	-0.918151	-10.979491	-45.610710	-173.002039
44242		6.913310	-1.267328	7.126498	0.434440	-0.063248	0.186910	-0.014713	-1.632606	-0.235080	-0.980957	0.115234	-0.233398	0.068533	-0.012749	0.071827	0.018382	-0.398302	0.063873	-0.914843	-11.031946	-46.587118	-172.936250
44243		6.958094	-1.556754	6.937438	0.441400	0.253897	0.122335	-0.017742	-1.760113	-0.280103	-0.997070	0.112549	-0.208252	0.068945	-0.015658	0.069984	0.017629	-0.406448	0.063240	-0.911312	-11.082698	-47.609965	-172.882003
44244		7.327600	-1.255785	6.879852	0.336974	-0.049909	0.310742	-0.015498	-1.912127	-0.336936	-1.007813	0.093018	-0.187988	0.072593	-0.012675	0.069496	0.016639	-0.415498	0.062400	-0.907298	-11.111424	-48.753980	-172.851122
44245		6.574195	-1.538679	7.619589	1.600372	0.239978	0.238331	-0.014821	-2.108983	-0.355523	-1.011475	0.084717	-0.160645	0.064906	-0.015497	0.076884	0.015655	-0.425174	0.061558	-0.902880	-11.161012	-49.981309	-172.798083
44246		6.842201	-1.861207	7.457477	1.543958	0.579795	0.344521	0.014169	-2.333923	-0.396578	-1.012695	0.077637	-0.126953	0.067509	-0.018752	0.075365	0.014585	-0.436039	0.060410	-0.897780	-11.193030	-51.367919	-172.742350
44247		6.568812	-2.403132	7.267270	1.823515	1.187374	0.036016	0.014111	-2.517750	-0.505048	-1.016602	0.054199	-0.096436	0.064705	-0.024201	0.073490	0.013110	-0.447476	0.059065	-0.892247	-11.181965	-52.841655	-172.747185
44248		6.881109	-2.201707	6.952813	1.646070	1.032021	0.023855	0.027188	-2.746540	-0.625014	-1.026611	0.046143	-0.059326	0.067778	-0.022239	0.070461	0.011166	-0.460089	0.057312	-0.885951	-11.098466	-54.483860	-172.828501
44249		6.790845	-1.942112	6.870762	1.906878	0.834444	-0.181771	0.057957	-3.004488	-0.728374	-1.016846	0.031006	-0.022461	0.066795	-0.019686	0.069711	0.008935	-0.473568	0.055214	-0.878980	-10.951078	-56.255843	-172.968257
44250		6.997527	-1.873735	6.764645	2.014735	0.818756	-0.143264	0.137315	-3.296709	-0.815220	-1.019287	0.019775	0.025146	0.068771	-0.019066	0.068774	0.006561	-0.488411	0.052483	-0.871009	-10.707758	-58.226123	-173.161749
44251		6.974942	-2.129764	6.912133	2.499155	1.131261	-0.146961	0.236512	-3.582809	-0.932896	-1.015869	0.005615	0.060303	0.068396	-0.021701	0.070329	0.004017	-0.504187	0.049057	-0.862191	-10.320608	-60.344560	-173.455342
44252		6.689423	-2.298138	7.216518	3.278229	1.375045	-0.354554	0.321268	-3.932593	-1.076062	-1.003174	-0.020508	0.106201	0.065333	-0.023453	0.073423	0.001129	-0.521477	0.044835	-0.852086	-9.737546	-62.695945	-173.907493
44253		7.292280	-2.327904	7.543126	3.701689	1.451038	0.170681	0.376707	-4.341643	-1.210905	-0.999268	-0.027344	0.155273	0.071120	-0.023857	0.076944	-0.002074	-0.540128	0.040046	-0.840627	-8.949184	-65.265826	-174.545305
44254		6.993488	-2.620314	7.393836	4.154293	1.878820	-0.345213	0.394941	-4.761395	-1.377803	-0.986816	-0.034912	0.201172	0.067966	-0.026824	0.075520	-0.005863	-0.560411	0.034676	-0.827467	-7.830998	-68.102238	-175.515171
44255		9.075982	-2.726894	7.656789	4.158863	2.042608	1.453629	0.369059	-5.282916	-1.585220	-0.973877	-0.060059	0.263428	0.088476	-0.028120	0.078874	-0.010468	-0.582357	0.028858	-0.812353	-6.186532	-71.220308	-177.043708
44256		10.743487	-1.763612	7.009130	3.625305	1.263405	2.551439	0.371365	-5.698142	-1.807140	-0.954590	-0.080566	0.321533	0.105215	-0.018727	0.073076	-0.015913	-0.605647	0.022359	-0.795260	-3.511927	-74.580562	-179.617854
44257		15.120079	-2.078094	6.983765	3.310803	1.790242	6.541195	0.241686	-5.983764	-1.877598	-0.919434	-0.103027	0.379883	0.148818	-0.022274	0.074288	-0.021970	-0.629386	0.016187	-0.776613	0.694871	-78.039487	176.196075
44258		18.712628	-2.370913	6.974521	3.678946	2.419481	9.806293	0.264452	-5.996370	-2.001656	-0.897949	-0.114990	0.445801	0.184674	-0.025663	0.075274	-0.028421	-0.652648	0.009506	-0.757068	8.726381	-81.393196	168.191332
44259		19.891796	-3.498626	7.393393	5.192050	3.884806	10.690813	0.054072	-5.764777	-2.022663	-0.867676	-0.127930	0.493164	0.196310	-0.037002	0.079608	-0.035615	-0.674284	0.003526	-0.737605	25.286429	-84.245564	151.537697
44260		21.297918	-3.548070	8.555767	7.462460	4.268029	11.758778	-0.099876	-5.574741	-2.058254	-0.838135	-0.153076	0.542725	0.210105	-0.037608	0.091460	-0.043425	-0.694640	-0.002042	-0.718042	61.087401	-85.855566	115.556704
44261		22.179277	-5.028605	10.485277	10.644161	6.013224	12.039981	-0.342208	-4.956843	-2.108737	-0.806885	-0.161865	0.573242	0.218557	-0.052416	0.110385	-0.052221	-0.712103	-0.007051	-0.700095	99.620560	-85.098237	76.715432
44262		19.328479	-6.186752	11.407924	12.602776	7.141037	8.410086	-0.485240	-4.500649	-2.138124	-0.772949	-0.171875	0.606445	0.189977	-0.063626	0.118532	-0.061555	-0.727468	-0.011748	-0.683274	119.063306	-83.060238	56.892648
44263		16.116023	-7.183024	14.362037	16.149642	7.747702	4.211368	-0.771099	-3.718937	-2.031441	-0.747803	-0.192627	0.625732	0.157713	-0.072882	0.146854	-0.071506	-0.739663	-0.015345	-0.668992	126.852345	-80.917652	48.581508
44264		5.727826	-8.520749	14.386810	15.573810	7.824898	-6.882272	-0.933084	-2.752177	-2.012040	-0.729980	-0.203857	0.647461	0.054431	-0.085090	0.145027	-0.081840	-0.748245	-0.018595	-0.658093	129.336653	-79.047546	45.513472
44265		-5.264800	-6.818202	11.450403	11.076647	4.772244	-17.547894	-0.511204	-2.274698	-2.310033	-0.714355	-0.218262	0.656982	-0.054727	-0.067266	0.114062	-0.091557	-0.755221	-0.024612	-0.648578	129.821392	-77.195537	44.718028
44266		20.490760	-5.386696	17.162732	20.773428	6.751900	6.505108	-0.218069	-2.424010	-1.837165	-0.703613	-0.234619	0.670166	0.202302	-0.055544	0.174150	-0.098558	-0.762600	-0.029608	-0.638632	131.229008	-75.513203	43.136820
44267		17.548914	-9.213454	19.914377	23.474015	9.769972	2.143590	-0.776771	0.215419	-0.827106	-0.712402	-0.245117	0.660400	0.175323	-0.092086	0.199313	-0.104131	-0.761409	-0.030376	-0.639132	129.258620	-75.229748	44.712342
44268		9.744395	-11.590439	17.161472	19.563133	10.977239	-5.275825	-0.808057	1.758188	-0.144884	-0.720947	-0.248291	0.636963	0.098867	-0.115283	0.171216	-0.107306	-0.755161	-0.029082	-0.646043	125.466680	-75.810762	48.142735
44269		4.028148	-11.670260	14.053980	15.566887	10.370450	-10.029004	-0.460345	2.630840	0.293326	-0.745605	-0.249268	0.613281	0.042299	-0.116318	0.140260	-0.107708	-0.746406	-0.027885	-0.656125	120.399313	-76.771137	53.085924
44270		1.760075	-10.665929	11.972659	13.106560	9.272752	-11.369582	-0.004205	2.998660	0.539450	-0.779053	-0.227783	0.576172	0.019681	-0.106606	0.119444	-0.105399	-0.736333	-0.027227	-0.667805	114.138826	-77.881108	59.488150
44271		1.300342	-9.014227	10.583910	11.501694	7.830049	-10.975983	0.313909	3.216042	0.768721	-0.801270	-0.215332	0.543457	0.015048	-0.090253	0.105466	-0.101228	-0.725779	-0.027125	-0.679899	106.651740	-78.938150	67.312932
44272		1.607597	-6.922683	9.892849	10.590083	6.017559	-9.834124	0.411331	3.453168	1.073241	-0.822754	-0.201904	0.517578	0.018151	-0.069336	0.098485	-0.095457	-0.713994	-0.026081	-0.693124	96.920961	-79.995059	77.433817
44273		1.553517	-5.363715	9.297703	9.787112	4.630891	-9.194504	0.267487	3.724235	1.409701	-0.848877	-0.191406	0.479004	0.017640	-0.053642	0.092590	-0.089116	-0.701272	-0.023736	-0.706903	84.485202	-80.834648	90.198317
44274		1.231737	-4.665584	8.629106	8.994836	4.017161	-8.984018	0.018853	3.956638	1.692921	-0.877197	-0.168457	0.443115	0.014415	-0.046548	0.086015	-0.082423	-0.686999	-0.019305	-0.721711	68.593819	-81.282093	106.275332
44275		1.311356	-4.325822	8.206703	8.471886	3.764795	-8.463350	-0.204400	4.131241	1.906988	-0.896484	-0.139648	0.388916	0.015216	-0.043036	0.081811	-0.075826	-0.672029	-0.013703	-0.736505	51.714169	-81.051109	123.235094
44276		2.127205	-4.307352	8.107240	8.196858	3.863346	-7.229098	-0.326068	4.292668	2.043645	-0.917969	-0.123535	0.343506	0.023444	-0.042710	0.080655	-0.068921	-0.655657	-0.006920	-0.751875	35.723485	-80.060332	139.232062
44277		3.175939	-4.005788	8.082688	7.839772	3.658880	-5.739086	-0.388579	4.517155	2.139519	-0.940674	-0.104736	0.289063	0.034000	-0.039546	0.080153	-0.061976	-0.638425	0.000012	-0.767185	23.173334	-78.401817	151.776399
44278		3.958283	-3.544588	8.054697	7.385051	3.218333	-4.503064	-0.420959	4.753799	2.226256	-0.946533	-0.068604	0.240234	0.041873	-0.034820	0.079643	-0.054595	-0.619393	0.007617	-0.783144	13.467830	-76.162676	161.452578
44279		4.572196	-3.026203	8.041960	6.879788	2.669979	-3.468232	-0.470882	4.953287	2.279145	-0.965088	-0.042480	0.192627	0.048035	-0.029536	0.079319	-0.047298	-0.599567	0.015176	-0.798782	6.601526	-73.593396	168.282225
44280		5.310933	-2.663396	8.095223	6.314656	2.232246	-2.332851	-0.553831	5.097129	2.321094	-0.959717	-0.014404	0.129150	0.055453	-0.025778	0.079631	-0.039892	-0.578165	0.023503	-0.814605	1.358866	-70.704610	173.428871
44281		6.174867	-2.182725	8.394673	5.829684	1.618932	-1.053309	-0.658170	5.187546	2.360524	-0.958740	0.003174	0.072266	0.064149	-0.020807	0.082373	-0.032773	-0.556406	0.031976	-0.829648	-2.507471	-67.719418	177.158300
44282		7.153810	-1.689887	8.947449	5.394050	0.907268	0.391877	-0.794695	5.250415	2.393735	-0.957764	0.044922	0.015381	0.074047	-0.015672	0.087616	-0.025715	-0.533328	0.041431	-0.844502	-5.681192	-64.545071	-179.898782
44283		8.340575	-1.080475	9.551788	4.768214	0.013188	1.985047	-0.983600	5.333680	2.379421	-0.949951	0.059082	-0.048584	0.086031	-0.009329	0.093295	-0.019383	-0.509969	0.051237	-0.858446	-8.177193	-61.348108	-177.731345
44284		9.494628	-0.766949	9.890167	3.766451	-0.638893	3.374450	-1.181179	5.442497	2.312476	-0.927979	0.080811	-0.104492	0.097666	-0.005977	0.096307	-0.013693	-0.485077	0.062022	-0.872162	-10.309786	-57.976398	-176.076161
44285		10.498173	-0.712746	10.068299	2.598440	-1.055515	4.475715	-1.368428	5.531669	2.204139	-0.906982	0.098633	-0.149170	0.107778	-0.005274	0.097768	-0.009106	-0.459967	0.072940	-0.884888	-12.034578	-54.623645	-174.947672
44286		11.278273	-0.911682	10.211032	1.413173	-1.250958	5.308864	-1.487386	5.559470	2.083410	-0.886963	0.123047	-0.193115	0.115645	-0.007178	0.098980	-0.005173	-0.433702	0.084383	-0.897082	-13.550365	-51.169585	-174.149599
44287		11.766091	-0.796171	10.178653	0.195573	-1.715152	5.667164	-1.573438	5.496771	1.976494	-0.857910	0.129883	-0.246094	0.120465	-0.005996	0.098553	-0.002032	-0.407988	0.095559	-0.907970	-14.836615	-47.839796	-173.645923
44288		11.969481	-0.539411	10.308132	-0.766729	-2.338024	5.797881	-1.699969	5.345523	1.909541	-0.843262	0.149170	-0.297119	0.122432	-0.003376	0.099867	0.000771	-0.381973	0.107420	-0.917909	-16.103380	-44.512718	-173.277313
44289		12.284010	-0.507933	10.355790	-1.818162	-2.731871	5.921279	-1.874332	5.100885	1.865759	-0.807861	0.167480	-0.331299	0.125462	-0.002966	0.100414	0.003020	-0.357423	0.119574	-0.926252	-17.350430	-41.407064	-173.025693
44290		13.055598	-1.018486	10.542330	-3.088686	-2.697920	6.488738	-2.036227	4.829413	1.840619	-0.771484	0.182617	-0.365234	0.133132	-0.007915	0.102317	0.005169	-0.333212	0.132644	-0.933461	-18.677398	-38.367942	-172.816160
44291		14.479131	-2.396040	10.726530	-4.802265	-1.912768	7.612858	-2.083171	4.556564	1.839346	-0.740723	0.197998	-0.392090	0.147394	-0.021517	0.104159	0.007267	-0.310671	0.145515	-0.939285	-19.972045	-35.556275	-172.650792
44292		17.210074	-3.808194	11.129198	-7.540404	-1.347052	9.572544	-1.973658	4.336871	1.924978	-0.697266	0.208008	-0.409668	0.174814	-0.035332	0.107878	0.010232	-0.288256	0.158187	-0.944341	-21.241942	-32.764422	-172.447586
44293		20.207121	-4.113032	10.878178	-11.050724	-1.721370	10.641910	-1.704207	4.195813	2.157097	-0.657959	0.212891	-0.430908	0.204720	-0.038027	0.104838	0.014648	-0.266743	0.169522	-0.948628	-22.376360	-30.073743	-172.147673
44294		22.208456	-2.289764	9.889698	-14.298598	-3.791293	9.612080	-1.398991	4.058795	2.451911	-0.630859	0.224365	-0.444580	0.224285	-0.019485	0.094504	0.021105	-0.244871	0.179957	-0.952475	-23.419586	-27.314311	-171.695082
44295		23.062851	0.524459	7.955202	-16.884598	-6.289861	6.639879	-1.219618	3.885173	2.632970	-0.601807	0.227539	-0.455566	0.232015	0.008760	0.075007	0.028658	-0.224063	0.189360	-0.955572	-24.353833	-24.668273	-171.161539
