// General information: 
//  MT Manager version: 2019.2.0 
//  XDA version: 2019.2.0 build 3853 rev 94535 built on 2019-09-09
// Device information: 
//  DeviceId: 00B47787
//  ProductCode: MTW2-3A7G6
//  Firmware Version: 4.6.0
//  Hardware Version: 2.0.0
// Device settings: 
//  Filter Profile: human(46.1)
//  Option Flags: Orientation Smoother Disabled, AHS Disabled, ICC Disabled
// Coordinate system: ENU
PacketCounter	SampleTimeFine	Acc_X	Acc_Y	Acc_Z	FreeAcc_E	FreeAcc_N	FreeAcc_U	Gyr_X	Gyr_Y	Gyr_Z	Mag_X	Mag_Y	Mag_Z	VelInc_X	VelInc_Y	VelInc_Z	Quat_q0	Quat_q1	Quat_q2	Quat_q3	Roll	Pitch	Yaw
43758		4.423163	2.760378	8.541563	0.000000	-0.000000	0.194428	-0.003320	0.007812	-0.013074	-0.664307	0.085205	-0.598877	0.044237	0.027602	0.085413	0.314002	-0.170310	-0.210311	-0.910036	17.908815	-26.234956	-146.132403
43759		4.397042	2.740495	8.529553	0.000000	0.000000	0.167171	0.001151	0.011853	-0.015913	-0.676025	0.068604	-0.607178	0.043978	0.027401	0.085293	0.298374	-0.173371	-0.206437	-0.915587	17.809957	-26.146265	-148.067660
43760		4.408149	2.760265	8.521530	0.005492	-0.012832	0.170655	-0.000644	0.012792	-0.013195	-0.671143	0.076660	-0.602051	0.044089	0.027600	0.085212	0.306217	-0.171794	-0.208384	-0.912849	17.861037	-26.184656	-147.097738
43761		4.398552	2.707433	8.530249	-0.020475	0.033832	0.159325	-0.001177	0.011682	-0.014102	-0.672363	0.074463	-0.587158	0.043992	0.027072	0.085300	0.306164	-0.171728	-0.208373	-0.912882	17.863135	-26.175807	-147.104020
43762		4.434652	2.747588	8.534668	-0.022877	-0.011074	0.190077	0.000074	0.009918	-0.015395	-0.677734	0.079834	-0.597656	0.044353	0.027472	0.085344	0.306101	-0.171675	-0.208374	-0.912913	17.866687	-26.168722	-147.111975
43763		4.408497	2.727747	8.522658	-0.019346	0.009819	0.162816	-0.001711	0.010571	-0.015008	-0.673828	0.079102	-0.602539	0.044092	0.027275	0.085224	0.306042	-0.171614	-0.208363	-0.912947	17.868814	-26.160319	-147.119023
43764		4.432362	2.766525	8.506017	-0.017338	-0.038466	0.169799	-0.000469	0.009094	-0.013971	-0.670410	0.077148	-0.596436	0.044329	0.027662	0.085058	0.305987	-0.171559	-0.208359	-0.912976	17.871463	-26.152953	-147.125712
43765		4.423228	2.731410	8.485060	-0.037776	-0.019194	0.138192	-0.004029	0.010113	-0.015528	-0.671875	0.078613	-0.591797	0.044239	0.027312	0.084848	0.305923	-0.171503	-0.208339	-0.913013	17.872439	-26.144708	-147.133164
43766		4.417406	2.748225	8.515554	-0.018303	-0.014300	0.166308	-0.000492	0.009666	-0.009310	-0.671387	0.080078	-0.595947	0.044179	0.027480	0.085153	0.305891	-0.171452	-0.208330	-0.913036	17.873828	-26.138036	-147.136932
43767		4.386713	2.744532	8.533573	0.004667	0.011463	0.167163	-0.003510	0.011510	-0.012289	-0.668701	0.072021	-0.594971	0.043874	0.027444	0.085333	0.305843	-0.171392	-0.208307	-0.913068	17.874112	-26.129599	-147.142142
43768		4.431955	2.733684	8.507667	-0.042232	-0.015895	0.161961	-0.002799	0.008922	-0.012160	-0.673340	0.072021	-0.599121	0.044325	0.027335	0.085074	0.305795	-0.171345	-0.208292	-0.913096	17.874985	-26.122870	-147.147777
43769		4.425956	2.733014	8.567613	-0.028322	0.016368	0.210354	0.003105	0.007505	-0.017069	-0.673584	0.071289	-0.592773	0.044265	0.027325	0.085675	0.305728	-0.171288	-0.208309	-0.913126	17.880681	-26.115775	-147.156673
43770		4.412767	2.750258	8.517303	-0.018169	-0.014250	0.166308	-0.000476	0.009095	-0.013966	-0.675781	0.074463	-0.596924	0.044133	0.027500	0.085171	0.305674	-0.171237	-0.208304	-0.913154	17.883164	-26.108884	-147.163287
43771		4.411608	2.750834	8.517718	-0.018169	-0.014250	0.166308	-0.000477	0.009095	-0.013966	-0.668213	0.081787	-0.591553	0.044122	0.027505	0.085175	0.305619	-0.171182	-0.208300	-0.913184	17.885838	-26.101467	-147.169985
43772		4.422409	2.735024	8.568803	-0.028104	0.016442	0.210355	0.000593	0.011031	-0.014478	-0.670898	0.071777	-0.601074	0.044231	0.027347	0.085686	0.305566	-0.171122	-0.208299	-0.913213	17.888931	-26.093657	-147.176542
43773		4.425811	2.719380	8.539211	-0.047544	0.011571	0.182240	0.004151	0.010014	-0.012919	-0.670654	0.072510	-0.596924	0.044264	0.027189	0.085390	0.305521	-0.171056	-0.208314	-0.913237	17.893896	-26.085922	-147.182423
43774		4.407858	2.752852	8.519007	-0.017846	-0.014182	0.166309	-0.004049	0.010398	-0.013193	-0.674072	0.076416	-0.589844	0.044085	0.027527	0.085187	0.305470	-0.171011	-0.208288	-0.913269	17.893612	-26.078953	-147.188135
43775		4.406733	2.753424	8.519404	-0.017846	-0.014182	0.166309	0.002559	0.006681	-0.015642	-0.661865	0.069336	-0.597656	0.044072	0.027530	0.085193	0.305407	-0.170960	-0.208303	-0.913296	17.898676	-26.072556	-147.196320
43776		4.422459	2.739214	8.510829	-0.041580	-0.015750	0.161964	0.003962	0.013714	-0.012136	-0.671143	0.078857	-0.598877	0.044232	0.027388	0.085106	0.305372	-0.170890	-0.208309	-0.913319	17.902465	-26.064237	-147.200761
43777		4.433143	2.723424	8.561975	-0.051637	0.014892	0.206011	-0.002268	0.009746	-0.013576	-0.679443	0.075439	-0.608154	0.044337	0.027232	0.085617	0.305318	-0.170835	-0.208296	-0.913350	17.903946	-26.056532	-147.207090
43778		4.420087	2.758188	8.482214	-0.035707	-0.043092	0.141688	0.000586	0.011032	-0.014473	-0.665039	0.077393	-0.602539	0.044208	0.027578	0.084820	0.305267	-0.170785	-0.208291	-0.913378	17.906265	-26.049798	-147.213304
43779		4.435468	2.725915	8.503389	-0.065204	-0.017320	0.157621	-0.001201	0.011683	-0.014088	-0.663818	0.080322	-0.600098	0.044362	0.027257	0.085031	0.305214	-0.170719	-0.208280	-0.913411	17.908324	-26.040946	-147.219562
43780		4.404602	2.722469	8.521359	-0.041763	0.008574	0.158476	0.000583	0.011032	-0.014472	-0.666748	0.081055	-0.602295	0.044053	0.027221	0.085211	0.305164	-0.170677	-0.208277	-0.913436	17.910641	-26.035066	-147.225774
43781		4.415830	2.742334	8.513266	-0.040763	-0.015568	0.161968	0.002357	0.010667	-0.012527	-0.666260	0.082275	-0.602295	0.044165	0.027420	0.085131	0.305119	-0.170611	-0.208282	-0.913462	17.914409	-26.027043	-147.231282
43782		4.414375	2.725213	8.543270	-0.045716	0.011962	0.182248	-0.000488	0.009095	-0.013958	-0.670654	0.079590	-0.593506	0.044150	0.027249	0.085431	0.305070	-0.170584	-0.208275	-0.913485	17.915816	-26.022810	-147.237419
43783		4.400991	2.742460	8.493055	-0.035666	-0.018683	0.138201	0.003973	0.013144	-0.016786	-0.663574	0.075928	-0.593018	0.044018	0.027419	0.084928	0.305010	-0.170501	-0.208288	-0.913518	17.921428	-26.012685	-147.245024
43784		4.423910	2.728407	8.565163	-0.049571	0.015356	0.206021	0.003609	0.008906	-0.013817	-0.664795	0.072998	-0.599609	0.044245	0.027279	0.085650	0.304965	-0.170473	-0.208299	-0.913535	17.924865	-26.009063	-147.250981
43785		4.422638	2.729351	8.565519	-0.049571	0.015356	0.206021	0.002901	0.011208	-0.016272	-0.671387	0.073242	-0.594238	0.044233	0.027289	0.085653	0.304905	-0.170400	-0.208309	-0.913567	17.929891	-26.000084	-147.258651
43786		4.409339	2.746756	8.515204	-0.038734	-0.015199	0.161976	0.003618	0.008621	-0.016144	-0.680908	0.071777	-0.595459	0.044099	0.027462	0.085151	0.304851	-0.170376	-0.208318	-0.913587	17.933268	-25.996629	-147.265765
43787		4.425062	2.732674	8.506640	-0.062705	-0.016820	0.157638	0.002898	0.011208	-0.016270	-0.678467	0.071289	-0.594238	0.044258	0.027322	0.085064	0.304790	-0.170303	-0.208328	-0.913619	17.938290	-25.987649	-147.273433
43788		4.394449	2.747280	8.494884	-0.033260	-0.018289	0.138210	0.002358	0.010382	-0.014849	-0.681396	0.079590	-0.584961	0.043951	0.027469	0.084947	0.304744	-0.170283	-0.208328	-0.913638	17.940266	-25.984491	-147.279341
43789		4.473471	2.689321	8.480698	-0.133664	-0.021520	0.144637	0.004670	0.010845	-0.014324	-0.674316	0.075684	-0.586426	0.044741	0.026888	0.084805	0.304694	-0.170212	-0.208345	-0.913664	17.945818	-25.976057	-147.285903
43790		6.001411	1.873467	7.561071	-1.969737	-0.616220	-0.198270	-0.020149	-0.005604	0.004720	-0.676758	0.072266	-0.592041	0.060012	0.018744	0.075611	0.304703	-0.170329	-0.208249	-0.913661	17.930537	-25.986121	-147.282844
43791		5.457741	2.107152	8.201475	-1.293826	-0.213093	0.175897	0.002437	0.020608	0.001591	-0.674805	0.079590	-0.587891	0.054586	0.021071	0.082009	0.304734	-0.170233	-0.208227	-0.913674	17.929738	-25.975183	-147.277840
43792		6.699985	2.222752	7.840010	-2.221725	-1.075779	0.444155	-0.008954	0.014884	0.000516	-0.671143	0.072510	-0.587646	0.067006	0.022231	0.078394	0.304798	-0.170501	-0.208135	-0.913623	17.909025	-26.003530	-147.268404
43793		5.405616	2.518878	8.148634	-1.001524	-0.514046	0.222171	0.000716	0.019543	-0.011990	-0.679932	0.069092	-0.592773	0.054066	0.025185	0.081481	0.304765	-0.170399	-0.208119	-0.913657	17.910941	-25.990778	-147.271848
43794		4.466274	2.792615	8.506276	-0.044066	-0.079835	0.192047	0.007342	0.015548	-0.016760	-0.675049	0.068604	-0.588623	0.044672	0.027919	0.085060	0.304798	-0.170887	-0.208162	-0.913545	17.901411	-26.047857	-147.271036
43795		4.504504	2.818492	8.340590	-0.089603	-0.197594	0.074315	0.006274	0.013611	-0.016248	-0.681152	0.068604	-0.583252	0.045053	0.028179	0.083404	0.304743	-0.170799	-0.208184	-0.913575	17.908169	-26.037588	-147.278236
43796		4.419095	2.840450	8.614452	0.048368	-0.034801	0.276999	0.007519	0.012136	-0.015211	-0.685059	0.069092	-0.587646	0.044198	0.028398	0.086143	0.304787	-0.171276	-0.208260	-0.913453	17.902553	-26.094686	-147.276886
43797		4.235885	2.802029	8.468327	0.133335	0.011381	0.060951	0.010897	0.014537	-0.015194	-0.690918	0.073242	-0.576172	0.042367	0.028012	0.084682	0.304742	-0.171178	-0.208300	-0.913478	17.911617	-26.084107	-147.283281
43798		4.538128	2.722291	8.382795	-0.152157	-0.114627	0.098944	-0.002299	0.010029	-0.011238	-0.683105	0.076660	-0.586670	0.045387	0.027221	0.083825	0.304793	-0.171675	-0.208327	-0.913361	17.899305	-26.141906	-147.279777
43799		4.591371	2.765037	8.348988	-0.173087	-0.188659	0.105284	-0.002494	0.013728	-0.010455	-0.682861	0.072021	-0.590576	0.045921	0.027649	0.083486	0.304757	-0.171606	-0.208304	-0.913391	17.899511	-26.132636	-147.283471
43800		4.574905	2.779090	8.498797	-0.115157	-0.114845	0.230031	-0.002495	0.013728	-0.010455	-0.683594	0.071777	-0.584229	0.045756	0.027790	0.084984	0.304776	-0.172063	-0.208316	-0.913296	17.887449	-26.184869	-147.283594
43801		4.541481	2.740925	8.435782	-0.126966	-0.102224	0.150925	-0.001786	0.011427	-0.008000	-0.683838	0.072998	-0.581055	0.045421	0.027408	0.084355	0.304750	-0.172006	-0.208298	-0.913320	17.887598	-26.177290	-147.286244
43802		4.966490	2.624730	8.310365	-0.536218	-0.281480	0.199837	-0.007698	0.012833	-0.003105	-0.687256	0.070801	-0.588379	0.049671	0.026250	0.083099	0.304812	-0.172432	-0.208303	-0.913218	17.874368	-26.226554	-147.280324
43803		4.393949	2.772134	8.575585	0.037202	0.016579	0.213803	-0.000907	0.016779	-0.010053	-0.698242	0.082520	-0.579102	0.043948	0.027720	0.085752	0.304783	-0.172346	-0.208282	-0.913248	17.875111	-26.215711	-147.283182
43804		4.753653	2.718951	8.286094	-0.313315	-0.256366	0.111292	-0.007162	0.013659	-0.004523	-0.695557	0.079346	-0.594482	0.047543	0.027191	0.082857	0.304829	-0.172823	-0.208281	-0.913143	17.860059	-26.270212	-147.279402
43805		4.540397	2.706200	8.438604	-0.132838	-0.071036	0.143520	-0.003456	0.020872	-0.002812	-0.694580	0.063965	-0.583008	0.045413	0.027063	0.084381	0.304835	-0.172731	-0.208236	-0.913169	17.857037	-26.258430	-147.277059
43806		4.346517	2.905618	8.537552	0.165901	-0.070801	0.196912	-0.002773	0.019142	0.004297	-0.691406	0.074463	-0.572998	0.043473	0.029058	0.085371	0.304932	-0.173167	-0.208259	-0.913048	17.844678	-26.310178	-147.267129
43807		4.725453	2.714341	8.246670	-0.295010	-0.258290	0.064123	-0.016492	0.002738	0.015712	-0.687500	0.073486	-0.575928	0.047254	0.027154	0.082464	0.304992	-0.173197	-0.208167	-0.913044	17.830769	-26.311540	-147.257074
43808		4.304669	2.722011	8.631043	0.109152	0.130080	0.207572	-0.007544	-0.000789	0.011474	-0.690186	0.080078	-0.584717	0.043045	0.027226	0.086310	0.305091	-0.173662	-0.208203	-0.912914	17.819087	-26.366929	-147.247393
43809		4.641455	2.576358	8.446157	-0.269796	-0.016771	0.159535	0.000759	-0.025005	0.009899	-0.689697	0.078857	-0.579346	0.046403	0.025766	0.084467	0.305111	-0.173786	-0.208236	-0.912877	17.819033	-26.382410	-147.246302
43810		4.481896	2.640704	8.562540	-0.077136	0.076015	0.205599	0.009326	-0.021422	0.004899	-0.692383	0.072510	-0.576172	0.044809	0.026404	0.085631	0.305162	-0.174301	-0.208364	-0.912732	17.818466	-26.445682	-147.245297
43811		4.780813	2.560780	8.394707	-0.383053	-0.090058	0.173805	0.011502	-0.029468	0.002953	-0.693604	0.073730	-0.580811	0.047795	0.025604	0.083956	0.305155	-0.174421	-0.208459	-0.912690	17.826838	-26.462379	-147.249310
43812		4.778796	2.613755	8.363922	-0.344795	-0.136366	0.161596	0.012919	-0.023290	-0.000518	-0.687012	0.081543	-0.571289	0.047778	0.026132	0.083646	0.305193	-0.174923	-0.208601	-0.912548	17.828799	-26.524443	-147.250465
43813		4.631987	2.716374	8.441922	-0.153701	-0.099095	0.190642	0.017749	-0.026348	-0.002573	-0.685303	0.067871	-0.574707	0.046309	0.027156	0.084428	0.305169	-0.175015	-0.208725	-0.912511	17.841992	-26.538471	-147.257243
43814		4.689837	2.638432	8.413225	-0.243016	-0.077946	0.170955	0.013119	-0.027274	-0.003622	-0.696289	0.067871	-0.576172	0.046887	0.026378	0.084140	0.305186	-0.175526	-0.208875	-0.912372	17.845250	-26.601425	-147.261278
43815		4.508890	2.771038	8.509172	-0.003863	-0.037378	0.207958	0.012201	-0.020988	-0.002966	-0.699951	0.071045	-0.575439	0.045080	0.027705	0.085098	0.305161	-0.175601	-0.208966	-0.912346	17.854911	-26.612462	-147.267252
43816		4.613531	2.717126	8.395315	-0.129850	-0.098735	0.143323	0.005442	-0.025791	-0.002994	-0.699463	0.069580	-0.572754	0.046125	0.027168	0.083960	0.305174	-0.176105	-0.209077	-0.912219	17.853789	-26.673291	-147.270810
43817		4.427691	2.847666	8.551100	0.123834	-0.025635	0.228178	0.004170	-0.023743	0.000627	-0.697998	0.072021	-0.572266	0.044267	0.028475	0.085517	0.305155	-0.176209	-0.209132	-0.912192	17.858117	-26.686464	-147.275138
43818		4.760746	2.754411	8.335622	-0.218155	-0.219254	0.169216	-0.003687	-0.029625	0.008095	-0.694336	0.077148	-0.577148	0.047594	0.027548	0.083363	0.305200	-0.176718	-0.209200	-0.912063	17.850645	-26.746974	-147.273440
43819		4.555428	2.793122	8.537673	0.003155	-0.047900	0.259205	-0.010807	-0.038665	0.011041	-0.690430	0.072021	-0.571533	0.045536	0.027938	0.085384	0.305200	-0.176923	-0.209200	-0.912023	17.844854	-26.770116	-147.274343
43820		4.687389	2.792205	8.376783	-0.116686	-0.185217	0.181841	-0.025960	-0.050460	0.017587	-0.691895	0.079102	-0.565186	0.046850	0.027937	0.083776	0.305241	-0.177554	-0.209196	-0.911888	17.825294	-26.841907	-147.271655
43821		4.513532	2.779144	8.649933	0.065943	0.042935	0.331807	-0.034531	-0.065389	0.026354	-0.697510	0.076660	-0.572510	0.045103	0.027812	0.086509	0.305262	-0.177934	-0.209116	-0.911825	17.804046	-26.882313	-147.268431
43822		4.513456	2.792083	8.537546	0.066747	-0.017303	0.239772	-0.050039	-0.082560	0.026584	-0.702148	0.077881	-0.578857	0.045096	0.027948	0.085387	0.305285	-0.178731	-0.209046	-0.911677	17.772200	-26.970268	-147.266967
43823		4.575500	2.878169	8.611369	0.101214	-0.072759	0.353884	-0.075956	-0.113153	0.042974	-0.701172	0.071533	-0.571533	0.045700	0.028824	0.086129	0.305295	-0.179409	-0.208834	-0.911590	17.726815	-27.039640	-147.262871
43824		4.238094	3.081511	8.715123	0.525383	-0.003621	0.342826	-0.116357	-0.160390	0.047499	-0.698242	0.083008	-0.568848	0.042304	0.030876	0.087167	0.305265	-0.180647	-0.208565	-0.911417	17.659676	-27.169570	-147.264481
43825		4.053239	2.689499	9.024278	0.502236	0.524974	0.413350	-0.101138	-0.245103	0.083351	-0.698486	0.078125	-0.563721	0.040411	0.026957	0.090279	0.305297	-0.182006	-0.208403	-0.911172	17.600207	-27.317994	-147.261170
43826		3.851790	3.341064	9.055516	1.107696	0.174011	0.519010	-0.116419	-0.344883	0.135043	-0.696777	0.074707	-0.565430	0.038339	0.033489	0.090602	0.305463	-0.184082	-0.208320	-0.910719	17.525672	-27.552586	-147.245021
43827		4.012419	3.334958	9.172329	1.055545	0.172130	0.685360	-0.153903	-0.495273	0.196617	-0.708740	0.077637	-0.564941	0.039864	0.033459	0.091797	0.305699	-0.186778	-0.208194	-0.910119	17.425828	-27.857211	-147.219946
43828		3.962890	3.272913	9.395687	1.167965	0.372939	0.826467	-0.199868	-0.693199	0.265522	-0.712891	0.089600	-0.561279	0.039259	0.032875	0.094061	0.305989	-0.190563	-0.208154	-0.909246	17.303282	-28.289259	-147.192632
43829		3.796881	3.439418	9.861787	1.592275	0.591650	1.169764	-0.264459	-0.946111	0.352963	-0.705322	0.093506	-0.549805	0.037441	0.034591	0.098750	0.306352	-0.195635	-0.208061	-0.908067	17.133957	-28.867033	-147.155433
43830		3.556064	3.677116	10.482484	2.191342	0.882364	1.609504	-0.394157	-1.267822	0.474457	-0.719238	0.103271	-0.539063	0.034808	0.037061	0.104974	0.306765	-0.202374	-0.207795	-0.906510	16.892112	-29.630004	-147.106265
43831		3.700370	2.716349	10.758685	1.709418	1.705043	1.632304	-0.382256	-1.596367	0.625496	-0.727295	0.101074	-0.528564	0.036058	0.027483	0.107825	0.307543	-0.210839	-0.207871	-0.904298	16.627033	-30.609268	-147.014495
43832		3.937770	3.713343	10.853722	2.403204	1.002113	2.032705	-0.230872	-1.915108	0.778041	-0.740723	0.101563	-0.523438	0.038191	0.037409	0.108864	0.308770	-0.220321	-0.208927	-0.901371	16.434608	-31.749300	-146.884899
43833		4.380702	3.751540	10.852937	2.356175	0.879631	2.217201	-0.297628	-2.204158	0.923068	-0.743652	0.113770	-0.495605	0.042434	0.037875	0.108946	0.310277	-0.231664	-0.209957	-0.897763	16.166779	-33.109991	-146.703493
43834		4.225347	3.497017	10.452896	2.445294	1.046036	1.687901	-0.279780	-2.476757	1.075842	-0.754639	0.131104	-0.484131	0.040766	0.035339	0.104991	0.312089	-0.243777	-0.211258	-0.893612	15.888668	-34.579327	-146.471469
43835		5.178797	4.106253	10.337272	2.462579	0.259534	2.203863	-0.235154	-2.722894	1.244463	-0.769531	0.138672	-0.474365	0.050117	0.041500	0.104014	0.314451	-0.257597	-0.212916	-0.888499	15.566527	-36.274418	-146.148224
43836		5.923347	5.473044	10.132678	3.140836	-1.000089	2.710573	-0.262228	-2.873052	1.414191	-0.770264	0.151611	-0.455322	0.057381	0.055274	0.102088	0.317216	-0.271515	-0.214427	-0.882992	15.183606	-37.990507	-145.732030
43837		6.874989	5.005383	9.711715	2.440585	-1.163813	2.809154	-0.470748	-2.883601	1.508392	-0.783203	0.159424	-0.429932	0.066960	0.050793	0.097972	0.320102	-0.286573	-0.214846	-0.877070	14.582306	-39.809362	-145.204113
43838		8.168038	4.055845	9.582652	1.301840	-0.991752	3.313623	-0.454591	-2.832630	1.566642	-0.791016	0.171387	-0.402588	0.079991	0.041409	0.096874	0.323080	-0.300511	-0.215303	-0.871181	13.983523	-41.507649	-144.626710
43839		8.169437	4.761577	8.892588	1.919500	-1.742898	2.905588	-0.494212	-2.656474	1.590853	-0.802490	0.197998	-0.394043	0.080121	0.048479	0.089878	0.326367	-0.314557	-0.215026	-0.865045	13.218965	-43.201481	-143.912286
43840		8.809890	5.204101	9.258441	2.358377	-2.009591	3.633571	-0.733636	-2.351435	1.553346	-0.810303	0.210449	-0.383301	0.086594	0.053059	0.093415	0.329161	-0.326701	-0.213564	-0.859831	12.345679	-44.620587	-143.186525
43841		7.673448	4.334813	8.969731	2.622116	-1.040469	2.441362	-1.016910	-1.886694	1.435302	-0.807861	0.231934	-0.371826	0.075569	0.044351	0.090190	0.331628	-0.337991	-0.209935	-0.855401	11.173433	-45.846603	-142.356166
43842		4.390765	1.845742	8.729874	2.800230	1.943595	-0.470653	-1.046077	-1.430272	1.297287	-0.808350	0.245361	-0.356445	0.043159	0.019196	0.087510	0.333687	-0.346206	-0.206177	-0.852224	10.107120	-46.692847	-141.606301
43843		0.872472	1.695994	11.330254	5.922352	5.055583	-1.364172	-0.540710	-0.941031	1.014315	-0.812256	0.248047	-0.359863	0.008104	0.017308	0.113295	0.336093	-0.352154	-0.203682	-0.849436	9.280240	-47.322234	-140.899370
43844		5.388301	1.208705	12.349571	3.705840	4.063058	2.547120	0.170084	-0.230366	0.549454	-0.814453	0.260254	-0.356689	0.053707	0.012130	0.123568	0.338338	-0.352111	-0.204203	-0.848437	9.195574	-47.363669	-140.558046
43845		1.754381	5.456955	11.066811	8.047110	1.984769	-0.504926	0.683830	0.577185	0.087021	-0.810059	0.260742	-0.359863	0.017840	0.054199	0.110803	0.340497	-0.348591	-0.205973	-0.848600	9.476345	-47.045443	-140.406683
43846		0.017006	6.838113	9.242382	9.033394	0.743505	-2.739820	0.512934	1.017743	-0.202663	-0.809814	0.252441	-0.371826	0.000710	0.068143	0.092596	0.341390	-0.341520	-0.207052	-0.850851	9.925009	-46.264215	-140.523998
43847		-1.152026	5.360811	7.888937	7.926702	1.459206	-4.584141	0.206157	1.191107	-0.429235	-0.805908	0.259033	-0.385986	-0.010935	0.053551	0.079011	0.341142	-0.335649	-0.206625	-0.853386	10.170238	-45.549301	-140.700918
43848		-0.876157	3.462616	7.384908	6.107304	2.300041	-4.842406	0.173060	1.270620	-0.676255	-0.802490	0.249756	-0.406250	-0.008175	0.034591	0.073932	0.339538	-0.327110	-0.206714	-0.857311	10.694981	-44.526956	-141.176929
43849		-0.343525	2.477217	7.491328	5.077595	2.763341	-4.431678	0.372153	1.345650	-0.908259	-0.798340	0.235352	-0.408936	-0.002819	0.024646	0.074980	0.337632	-0.319760	-0.207504	-0.860640	11.261059	-43.670913	-141.683879
43850		0.338802	2.461647	7.686555	4.630732	2.547390	-3.703441	0.623352	1.465543	-1.101205	-0.793701	0.237061	-0.415771	0.004086	0.024356	0.076913	0.335246	-0.308798	-0.209765	-0.865016	12.192926	-42.444516	-142.381331
43851		0.909623	2.665543	7.768491	4.347098	2.175712	-3.130732	0.744973	1.610648	-1.238331	-0.791748	0.218750	-0.433350	0.009886	0.026306	0.077706	0.332710	-0.299266	-0.212187	-0.868747	13.060337	-41.388816	-143.040684
43852		1.183554	2.720562	7.644408	3.992100	1.909947	-2.909669	0.737165	1.731376	-1.329550	-0.786621	0.216064	-0.448242	0.012677	0.026841	0.076436	0.329482	-0.286584	-0.214703	-0.873621	14.065489	-39.957057	-143.808434
43853		1.491130	2.311566	7.569134	3.332905	1.980417	-2.753969	0.661892	1.804429	-1.366049	-0.783936	0.199707	-0.458984	0.015750	0.022760	0.075627	0.326377	-0.276125	-0.216564	-0.877686	14.854725	-38.760384	-144.454777
43854		2.023393	1.562794	7.571985	2.277310	2.212553	-2.478709	0.611416	1.825781	-1.365240	-0.777100	0.190918	-0.473633	0.021029	0.015255	0.075577	0.323024	-0.262947	-0.218266	-0.882539	15.696200	-37.238376	-145.110809
43855		2.776994	0.910939	7.822849	1.250207	2.425403	-1.920283	0.614209	1.848595	-1.337524	-0.765137	0.177979	-0.483887	0.028551	0.008680	0.077994	0.319924	-0.252319	-0.219735	-0.886398	16.378195	-36.008565	-145.663939
43856		3.717628	0.757759	8.188910	0.399059	2.251381	-1.082179	0.659662	1.878141	-1.295961	-0.756104	0.166260	-0.499512	0.037990	0.007064	0.081559	0.316662	-0.238982	-0.221274	-0.890871	17.134845	-34.467747	-146.215513
43857		4.749249	1.021298	8.604348	-0.224073	1.775979	-0.095459	0.642093	1.946428	-1.225923	-0.746338	0.152588	-0.512451	0.048387	0.009643	0.085607	0.314100	-0.227921	-0.222501	-0.894364	17.728092	-33.193145	-146.620093
43858		5.554943	1.404245	8.876231	-0.741777	1.204129	0.656855	0.563338	2.046662	-1.148399	-0.741455	0.142822	-0.517578	0.056533	0.013471	0.088226	0.311499	-0.214220	-0.222964	-0.898535	18.283427	-31.592486	-146.972850
43859		6.201598	1.667960	9.018596	-1.242338	0.714094	1.165366	0.437882	2.150987	-1.063441	-0.729248	0.135742	-0.529297	0.063068	0.016150	0.089547	0.309565	-0.202671	-0.222704	-0.901940	18.646755	-30.230314	-147.191524
43860		6.704449	1.781465	9.176923	-1.799137	0.358078	1.543691	0.309685	2.253746	-0.991213	-0.713379	0.133057	-0.549072	0.068160	0.017337	0.091032	0.307565	-0.188756	-0.221387	-0.905959	18.937482	-28.567466	-147.359035
43861		7.091876	1.436294	9.141610	-2.572744	0.281406	1.554865	0.244749	2.346559	-0.962137	-0.701904	0.126953	-0.564209	0.072053	0.013907	0.090592	0.306010	-0.176668	-0.219777	-0.909310	19.121538	-27.116475	-147.452657
43862		7.367041	1.152822	9.092810	-3.269771	0.179342	1.481128	0.251586	2.400124	-0.963189	-0.694336	0.114014	-0.566406	0.074809	0.011056	0.090049	0.304181	-0.162421	-0.217817	-0.913044	19.327099	-25.410804	-147.546070
43863		7.842919	1.008804	9.141935	-3.982185	-0.052500	1.599377	0.319664	2.421464	-0.976295	-0.678711	0.104980	-0.583008	0.079576	0.009556	0.090476	0.302594	-0.149800	-0.216367	-0.916069	19.540623	-23.916064	-147.618601
43864		8.511821	1.013075	9.159191	-4.801780	-0.518900	1.764570	0.381820	2.401829	-0.987537	-0.672852	0.102051	-0.584961	0.086258	0.009533	0.090579	0.300695	-0.135599	-0.214882	-0.919250	19.798646	-22.242415	-147.702794
43865		9.351075	1.130754	9.170742	-5.665171	-1.135150	1.995420	0.417720	2.351637	-0.991495	-0.665039	0.092285	-0.594482	0.094634	0.010650	0.090622	0.298923	-0.123083	-0.213920	-0.921810	20.067539	-20.781774	-147.783103
43866		10.113880	1.200434	9.078120	-6.539602	-1.741884	2.033554	0.409018	2.286973	-1.003369	-0.652588	0.076416	-0.607666	0.102226	0.011309	0.089640	0.296802	-0.109711	-0.212638	-0.924477	20.327218	-19.212510	-147.877501
43867		10.624163	1.091996	8.731915	-7.308125	-2.186821	1.681279	0.357921	2.209096	-1.006372	-0.648682	0.075928	-0.619385	0.107250	0.010227	0.086157	0.294673	-0.097887	-0.211551	-0.926732	20.565271	-17.824784	-147.981005
43868		10.816073	1.081608	8.390671	-7.750239	-2.543861	1.233340	0.258651	2.105790	-0.991028	-0.640137	0.072021	-0.631104	0.109088	0.010170	0.082775	0.292322	-0.086027	-0.209778	-0.929054	20.726594	-16.409047	-148.088890
43869		10.616765	0.819295	7.911273	-7.977436	-2.555199	0.473220	0.123650	1.961933	-0.933965	-0.621826	0.060547	-0.631104	0.106973	0.007646	0.078071	0.290077	-0.075745	-0.207874	-0.931078	20.826260	-15.167886	-148.194463
43870		10.183538	0.673805	7.401222	-7.899912	-2.541891	-0.322598	-0.009030	1.790202	-0.821769	-0.622559	0.062256	-0.647461	0.102519	0.006321	0.073096	0.288086	-0.066379	-0.205226	-0.932997	20.810213	-14.011025	-148.266460
43871		9.840731	0.604953	6.986530	-7.803903	-2.573171	-0.953117	-0.107543	1.592383	-0.671916	-0.614258	0.052002	-0.653076	0.098979	0.005755	0.069076	0.286539	-0.058411	-0.202646	-0.934569	20.757379	-13.021082	-148.303681
43872		9.481065	0.840635	6.626657	-7.479575	-2.797942	-1.402284	-0.194139	1.408516	-0.504378	-0.608154	0.050781	-0.648193	0.095295	0.008230	0.065589	0.285614	-0.051837	-0.199582	-0.935898	20.603002	-12.183050	-148.280548
43873		9.128893	1.054386	6.300480	-7.149192	-2.987615	-1.806067	-0.242318	1.237712	-0.344340	-0.596680	0.055176	-0.665039	0.091695	0.010462	0.062425	0.285168	-0.046044	-0.196765	-0.936932	20.450876	-11.449403	-148.215275
43874		8.751609	0.915984	6.112177	-6.961801	-2.835464	-2.178508	-0.210062	1.085647	-0.201118	-0.599854	0.050049	-0.669922	0.087855	0.009135	0.060636	0.285376	-0.041667	-0.194049	-0.937641	20.264178	-10.888038	-148.095666
43875		9.011319	0.771877	6.090343	-7.310107	-2.934487	-2.273316	-0.060367	0.972389	-0.093321	-0.596924	0.054932	-0.669922	0.090411	0.007695	0.060462	0.285865	-0.037100	-0.192395	-0.938024	20.202948	-10.346463	-147.950676
43876		9.363607	1.076537	6.141307	-7.472811	-3.388987	-2.117061	0.130286	0.945941	-0.010238	-0.588379	0.057861	-0.679443	0.093926	0.010721	0.060976	0.286940	-0.033394	-0.191474	-0.938024	20.195652	-9.935005	-147.756067
43877		8.723840	1.549058	5.679919	-6.704003	-3.642183	-2.563098	0.246490	0.948054	0.089735	-0.591064	0.041992	-0.679932	0.087499	0.015460	0.056404	0.288305	-0.028676	-0.191252	-0.937806	20.296617	-9.442856	-147.516441
43878		8.000351	1.644576	5.248603	-6.045084	-3.540133	-3.090931	0.295760	0.865855	0.206240	-0.578125	0.050537	-0.689209	0.080213	0.016451	0.052163	0.290387	-0.025604	-0.191247	-0.937254	20.368462	-9.152709	-147.218795
43879		7.732337	1.718227	5.081234	-5.795009	-3.559978	-3.308503	0.319811	0.717074	0.332710	-0.572998	0.045410	-0.690674	0.077476	0.017230	0.050562	0.292670	-0.022095	-0.191661	-0.936548	20.500784	-8.833983	-146.892708
43880		7.731203	1.897245	5.016618	-5.681828	-3.752695	-3.318733	0.324235	0.537245	0.420148	-0.567871	0.047607	-0.695801	0.077406	0.019054	0.049989	0.295475	-0.020935	-0.192307	-0.935561	20.584430	-8.790077	-146.544213
43881		7.671028	2.092440	4.953744	-5.516679	-3.921404	-3.335704	0.312688	0.351524	0.468891	-0.564941	0.042969	-0.684570	0.076748	0.021027	0.049435	0.298037	-0.019277	-0.193200	-0.934599	20.714050	-8.696098	-146.217996
43882		7.537275	2.421383	5.033573	-5.195292	-4.078607	-3.150530	0.284217	0.153721	0.471668	-0.567627	0.050293	-0.692383	0.075354	0.024320	0.050312	0.300742	-0.020196	-0.194293	-0.933486	20.784682	-8.891899	-145.918999
43883		7.244927	2.878909	5.330885	-4.700442	-4.154308	-2.752734	0.237088	-0.042619	0.432959	-0.557617	0.060303	-0.689941	0.072375	0.028883	0.053358	0.302745	-0.020458	-0.195419	-0.932598	20.885427	-9.002742	-145.693081
43884		-1.777152	7.008038	9.952388	4.722694	-0.419876	1.538108	-0.050402	-0.249963	0.328750	-0.550781	0.060059	-0.696533	-0.018011	0.070076	0.099484	0.304379	-0.023764	-0.195661	-0.931936	20.792960	-9.404454	-145.554130
43885		-4.741886	6.659323	16.559975	6.492839	3.992298	7.008993	-0.363277	-0.219798	0.043324	-0.554688	0.058838	-0.694824	-0.047615	0.066884	0.165426	0.304322	-0.025382	-0.194297	-0.932198	20.588396	-9.530869	-145.575688
43886		-6.750975	5.706207	17.584059	7.582701	6.185866	7.262825	-0.114831	0.070877	-0.228752	-0.551270	0.061523	-0.697021	-0.067382	0.057240	0.175832	0.303585	-0.026390	-0.193809	-0.932511	20.508622	-9.607250	-145.675973
43887		-4.632590	4.663663	8.628034	5.870725	2.371445	-1.005620	-0.008546	-0.059089	-0.262828	-0.554199	0.049072	-0.707031	-0.046290	0.046701	0.086265	0.302301	-0.026423	-0.193893	-0.932910	20.529603	-9.586042	-145.831034
43888		-1.129887	2.668118	5.111806	2.129871	0.586565	-4.367912	0.004962	-0.675507	-0.208615	-0.560791	0.055664	-0.695313	-0.011444	0.026692	0.051080	0.300869	-0.030355	-0.195005	-0.933021	20.547007	-10.019629	-146.074890
43889		3.315405	3.093105	6.863530	-1.331725	-1.466759	-1.828835	0.079630	-1.061395	-0.288569	-0.564941	0.057861	-0.685791	0.032834	0.030856	0.068822	0.298496	-0.034904	-0.197014	-0.933203	20.659503	-10.530583	-146.449649
43890		5.070648	4.414435	9.307248	-2.082639	-2.375983	1.225435	0.048943	-1.004068	-0.453820	-0.565674	0.051514	-0.688965	0.050338	0.044007	0.093337	0.295575	-0.039982	-0.198882	-0.933532	20.750374	-11.082284	-146.897457
43891		3.497342	3.911009	8.934823	-1.020719	-1.236870	0.423835	-0.024966	-0.860055	-0.552235	-0.568848	0.055176	-0.672119	0.034697	0.039025	0.089493	0.292134	-0.043483	-0.200144	-0.934189	20.829771	-11.430588	-147.377387
43892		1.761387	2.647913	7.788285	-0.203791	0.224937	-1.405616	-0.009149	-0.965294	-0.553416	-0.576172	0.046143	-0.671875	0.017311	0.026435	0.077966	0.288759	-0.048377	-0.201743	-0.934654	20.910319	-11.943231	-147.874804
43893		2.208392	2.092011	8.369445	-0.848040	0.703385	-0.976032	0.084986	-1.163728	-0.550777	-0.577881	0.045410	-0.671387	0.021654	0.020824	0.083830	0.285026	-0.053136	-0.203949	-0.935062	21.074349	-12.452644	-148.420600
43894		3.596622	2.582374	9.729342	-1.674282	0.274735	0.741203	0.162314	-1.188264	-0.562121	-0.589111	0.042480	-0.658691	0.035459	0.025645	0.097526	0.281398	-0.058764	-0.206638	-0.935234	21.274879	-13.074105	-148.974411
43895		4.200672	2.766917	10.214500	-2.020379	0.129935	1.391674	0.134402	-1.016613	-0.515529	-0.587891	0.039795	-0.654541	0.041558	0.027493	0.102376	0.277972	-0.062795	-0.208845	-0.935506	21.467015	-13.508873	-149.475130
43896		3.039199	2.047966	9.686499	-1.367920	1.107244	0.393260	0.066823	-0.872857	-0.335785	-0.585205	0.039795	-0.655273	0.030003	0.020397	0.097003	0.275686	-0.067314	-0.210539	-0.935489	21.575793	-14.006271	-149.841513
43897		2.540309	1.269583	9.414086	-1.316631	1.882273	-0.251673	0.061377	-0.844295	-0.084450	-0.600586	0.037598	-0.648682	0.025011	0.012656	0.094251	0.274420	-0.071089	-0.212016	-0.935248	21.667538	-14.438154	-150.071782
43898		2.993618	1.271267	9.328033	-1.618131	1.681966	-0.213618	0.082540	-0.825940	0.143273	-0.592529	0.033936	-0.647217	0.029542	0.012695	0.093408	0.274418	-0.075844	-0.213483	-0.934541	21.716278	-15.006296	-150.165770
43899		3.288406	1.610429	9.033650	-1.622883	1.204031	-0.276968	0.119038	-0.788503	0.310004	-0.593750	0.039063	-0.643311	0.032503	0.016101	0.090475	0.275067	-0.079695	-0.215002	-0.933681	21.785139	-15.491762	-150.168280
43900		2.874511	2.251221	8.839596	-0.851141	0.885113	-0.327919	0.161417	-0.780996	0.407379	-0.609619	0.036377	-0.630615	0.028354	0.022499	0.088525	0.276369	-0.084395	-0.216603	-0.932513	21.832029	-16.088605	-150.106126
43901		2.833999	2.975657	8.565123	-0.362314	0.288544	-0.324154	0.201057	-0.804218	0.430030	-0.612793	0.040039	-0.633789	0.027931	0.029731	0.085794	0.277585	-0.088332	-0.218468	-0.931352	21.930513	-16.608077	-150.046793
43902		2.867585	3.519433	8.232509	-0.019652	-0.226255	-0.414210	0.216273	-0.864158	0.399787	-0.604980	0.043701	-0.619873	0.028249	0.035162	0.082486	0.278768	-0.093291	-0.220411	-0.930056	22.013204	-17.242658	-150.007884
43903		3.128477	3.905345	7.688284	0.022860	-0.829266	-0.677051	0.213281	-0.940236	0.374045	-0.614502	0.041504	-0.613281	0.030850	0.039029	0.077070	0.279567	-0.097778	-0.222535	-0.928848	22.136594	-17.822510	-150.011903
43904		2.907141	4.336911	7.937553	0.552551	-0.860027	-0.367100	0.190677	-1.048067	0.337063	-0.617920	0.044434	-0.616699	0.028582	0.043342	0.079567	0.280219	-0.103506	-0.224653	-0.927521	22.232166	-18.536742	-150.052162
43905		3.533897	4.833182	8.366006	0.433228	-1.251281	0.389450	0.119666	-1.112127	0.313077	-0.615967	0.054932	-0.606934	0.034797	0.048336	0.083883	0.280479	-0.108847	-0.226600	-0.926356	22.326520	-19.194494	-150.132013
43906		4.598222	5.659968	9.241364	0.218439	-1.869952	1.807802	-0.061773	-1.123278	0.345819	-0.623535	0.052979	-0.610596	0.045364	0.056707	0.092652	0.280920	-0.115228	-0.227670	-0.925188	22.289493	-19.945727	-150.187697
43907		6.200234	5.220110	9.803214	-1.166005	-1.973207	2.698936	-0.342632	-0.961608	0.449568	-0.626221	0.049316	-0.599121	0.061413	0.052508	0.098239	0.281703	-0.120669	-0.227173	-0.924378	22.081888	-20.553302	-150.155193
43908		5.834178	4.098756	9.225953	-1.430908	-1.234224	1.693129	-0.420808	-0.733782	0.453902	-0.633545	0.068604	-0.606689	0.057909	0.041314	0.092386	0.282848	-0.125856	-0.226009	-0.923622	21.791850	-21.121044	-150.057445
43909		4.759021	4.153565	8.668830	-0.486825	-1.043494	0.851384	-0.407800	-0.658602	0.403432	-0.637939	0.064941	-0.589600	0.047220	0.041808	0.086759	0.283708	-0.129931	-0.224801	-0.923088	21.528625	-21.557234	-149.976303
43910		5.223845	3.640480	8.901513	-1.028158	-0.760624	1.056639	-0.389464	-0.628389	0.366032	-0.639404	0.073486	-0.592529	0.051892	0.036673	0.089107	0.284566	-0.134477	-0.223699	-0.922441	21.265485	-22.049595	-149.900255
43911		5.540519	2.723679	8.920968	-1.731878	-0.220665	0.894825	-0.353912	-0.556224	0.340873	-0.640625	0.077881	-0.589355	0.055110	0.027489	0.089315	0.285277	-0.137928	-0.222627	-0.921971	21.035189	-22.417483	-149.827663
43912		5.713881	2.217169	8.645759	-2.115587	-0.056529	0.571634	-0.293722	-0.478914	0.331290	-0.644531	0.082031	-0.587646	0.056895	0.022393	0.086561	0.286195	-0.141608	-0.221769	-0.921335	20.818986	-22.822305	-149.734217
43913		5.630173	2.558081	8.760162	-1.766998	-0.212169	0.761594	-0.240959	-0.439579	0.324839	-0.641846	0.087402	-0.584229	0.056067	0.025778	0.087694	0.287032	-0.144339	-0.221057	-0.920822	20.644859	-23.123964	-149.641952
43914		5.350134	2.797469	8.857860	-1.315772	-0.204823	0.823947	-0.219689	-0.368299	0.290833	-0.647461	0.083740	-0.585938	0.053297	0.028150	0.088646	0.287934	-0.147368	-0.220389	-0.920220	20.466300	-23.461788	-149.544160
43915		4.802640	3.052039	9.244526	-0.623959	0.050684	1.024723	-0.204142	-0.306041	0.253416	-0.652344	0.093506	-0.583740	0.047846	0.030675	0.092487	0.288612	-0.149351	-0.219703	-0.919852	20.316535	-23.676992	-149.462287
43916		4.532617	2.766095	8.592549	-0.620058	0.069527	0.268897	-0.194051	-0.270457	0.230148	-0.650635	0.090088	-0.589355	0.045178	0.027796	0.085960	0.289354	-0.151811	-0.219047	-0.919373	20.156176	-23.947876	-149.376686
43917		4.769236	2.829351	8.657010	-0.717966	-0.057658	0.442835	-0.183915	-0.276240	0.212341	-0.649170	0.095459	-0.584473	0.047543	0.028424	0.086610	0.289888	-0.153581	-0.218439	-0.919055	20.023990	-24.138593	-149.311052
43918		5.383716	2.922892	8.759178	-1.074800	-0.360864	0.815829	-0.193911	-0.239241	0.194875	-0.648926	0.096680	-0.583496	0.053704	0.029366	0.087628	0.290493	-0.155836	-0.217756	-0.918646	19.867996	-24.382738	-149.238076
43919		6.285786	3.065855	9.115337	-1.605331	-0.723047	1.540725	-0.231470	-0.070688	0.148062	-0.654297	0.099365	-0.596436	0.062803	0.030811	0.091140	0.290916	-0.156661	-0.216679	-0.918627	19.705260	-24.449879	-149.165414
43920		4.384962	2.779020	8.249319	-0.396930	-0.061992	-0.074070	-0.229106	-0.040021	0.120161	-0.643311	0.101807	-0.595215	0.043816	0.027911	0.082470	0.291364	-0.157970	-0.215603	-0.918514	19.529311	-24.571831	-149.093393
43921		4.989991	2.541128	8.528556	-0.946566	-0.049316	0.345813	-0.225457	-0.061992	0.114008	-0.656738	0.099609	-0.591553	0.049859	0.025536	0.085272	0.291643	-0.158709	-0.214568	-0.918540	19.377241	-24.627422	-149.038602
43922		4.743933	2.650619	8.689308	-0.629639	0.052139	0.416464	-0.197654	-0.041283	0.098717	-0.660645	0.101074	-0.595459	0.047408	0.026615	0.086877	0.292009	-0.159936	-0.213650	-0.918425	19.224272	-24.743277	-148.979222
43923		4.338675	3.070224	8.770658	-0.031029	-0.041767	0.442656	-0.158469	-0.032288	0.075038	-0.660889	0.101563	-0.588867	0.043361	0.030788	0.087689	0.292193	-0.160399	-0.212909	-0.918458	19.117430	-24.775246	-148.941126
43924		4.542056	2.807835	8.627915	-0.347286	-0.019240	0.328029	-0.133253	-0.029673	0.057941	-0.659424	0.103516	-0.598145	0.045400	0.028149	0.086267	0.292428	-0.161408	-0.212298	-0.918348	19.010658	-24.873824	-148.903616
43925		4.862650	2.620689	8.466931	-0.727708	-0.118209	0.269910	-0.105201	-0.008398	0.047151	-0.659668	0.106201	-0.596191	0.048617	0.026263	0.084658	0.292552	-0.161654	-0.211789	-0.918383	18.939130	-24.887567	-148.877109
43926		5.046196	2.589603	8.255906	-0.907494	-0.287316	0.158472	-0.077860	0.006642	0.031448	-0.651855	0.106689	-0.597656	0.050461	0.025936	0.082547	0.292745	-0.162368	-0.211398	-0.918285	18.867743	-24.959101	-148.848022
43927		4.840436	2.669904	8.450858	-0.661174	-0.162620	0.262609	-0.062273	0.016672	0.029845	-0.661377	0.106934	-0.585205	0.048407	0.026733	0.084496	0.292850	-0.162418	-0.211064	-0.918320	18.822956	-24.956024	-148.826693
43928		4.740061	2.770198	8.415872	-0.514161	-0.208724	0.220316	-0.047689	0.016516	0.028584	-0.668701	0.112061	-0.610352	0.047404	0.027729	0.084148	0.293061	-0.163027	-0.210798	-0.918206	18.768927	-25.020204	-148.797407
43929		4.620465	2.745834	8.486389	-0.422341	-0.105503	0.223128	-0.030034	0.030449	0.025982	-0.657471	0.104980	-0.590332	0.046214	0.027477	0.084853	0.293189	-0.162962	-0.210594	-0.918223	18.742375	-25.008942	-148.775582
43930		4.459158	2.750659	8.493399	-0.281078	-0.031079	0.162686	-0.035933	0.023255	0.028345	-0.667236	0.106934	-0.601563	0.044598	0.027528	0.084924	0.293413	-0.163505	-0.210373	-0.918106	18.695068	-25.067224	-148.745324
43931		4.494484	2.873810	8.492461	-0.232124	-0.145088	0.212587	-0.055447	0.035208	0.036422	-0.662354	0.112549	-0.599854	0.044955	0.028770	0.084909	0.293572	-0.163467	-0.210037	-0.918138	18.650876	-25.055297	-148.716285
43932		4.497282	2.868604	8.296666	-0.259490	-0.242184	0.044447	-0.077315	0.056037	0.053382	-0.664063	0.109863	-0.602783	0.044988	0.028730	0.082943	0.293907	-0.163923	-0.209557	-0.918060	18.571299	-25.097709	-148.664709
43933		4.515910	2.723161	8.300500	-0.359624	-0.152309	0.013544	-0.078683	0.067152	0.064105	-0.665527	0.112061	-0.598877	0.045178	0.027279	0.082979	0.294208	-0.163802	-0.209044	-0.918102	18.504021	-25.073440	-148.612662
43934		4.328403	2.683192	8.466964	-0.197559	0.038214	0.065752	-0.066930	0.065368	0.061423	-0.664307	0.107422	-0.604736	0.043303	0.026874	0.084647	0.294593	-0.164190	-0.208593	-0.918012	18.428290	-25.109937	-148.554775
43935		4.219515	2.778705	8.634171	-0.023922	0.088990	0.190608	-0.067506	0.064821	0.065170	-0.667480	0.121094	-0.599854	0.042214	0.027830	0.086319	0.294905	-0.164065	-0.208134	-0.918038	18.367348	-25.087045	-148.502610
43936		4.788444	2.636253	8.441736	-0.572686	-0.174336	0.226415	-0.072417	0.059023	0.062421	-0.673828	0.118652	-0.599854	0.047901	0.026408	0.084394	0.295279	-0.164467	-0.207663	-0.917953	18.289122	-25.124233	-148.445664
43937		4.584608	2.699534	8.468662	-0.369712	-0.122626	0.180942	-0.080436	0.064107	0.063820	-0.666992	0.117676	-0.597656	0.045865	0.027044	0.084661	0.295573	-0.164363	-0.207146	-0.917993	18.221180	-25.101399	-148.394505
43938		4.355465	2.670079	8.600769	-0.175499	0.062732	0.189207	-0.080989	0.062714	0.060631	-0.663086	0.116211	-0.595947	0.043574	0.026749	0.085983	0.295932	-0.164745	-0.206631	-0.917925	18.138521	-25.134498	-148.338126
43939		4.695076	2.611754	8.418519	-0.502920	-0.153707	0.160271	-0.087485	0.054695	0.064391	-0.672852	0.107422	-0.595947	0.046965	0.026169	0.084161	0.296213	-0.164695	-0.206096	-0.917964	18.067186	-25.116800	-148.288532
43940		4.525255	2.573952	8.545949	-0.360265	0.007377	0.187640	-0.081590	0.061328	0.057480	-0.671875	0.126709	-0.599365	0.045271	0.025787	0.085435	0.296552	-0.165065	-0.205581	-0.917904	17.985382	-25.148024	-148.234530
43941		4.237771	2.589421	8.622244	-0.113654	0.158931	0.135615	-0.069254	0.051853	0.050876	-0.672607	0.117188	-0.596191	0.042393	0.025935	0.086202	0.296782	-0.164988	-0.205144	-0.917941	17.928185	-25.129403	-148.193668
43942		4.252600	2.601436	8.698506	-0.093454	0.173389	0.211148	-0.052508	0.046492	0.041518	-0.670166	0.127686	-0.596436	0.042541	0.026046	0.086968	0.297053	-0.165348	-0.204795	-0.917866	17.868474	-25.163625	-148.152338
43943		5.053263	2.394326	8.327363	-0.902176	-0.238827	0.174418	-0.043513	0.035125	0.039463	-0.680176	0.119385	-0.599609	0.050543	0.023971	0.083260	0.297236	-0.165298	-0.204510	-0.917880	17.830320	-25.152083	-148.121627
43944		4.774127	2.501138	8.475358	-0.585480	-0.117855	0.213428	-0.041354	0.037374	0.024610	-0.670166	0.138184	-0.599854	0.047754	0.025035	0.084739	0.297427	-0.165655	-0.204237	-0.917814	17.782129	-25.186846	-148.092327
43945		4.571077	2.552089	8.529079	-0.387980	-0.038706	0.187366	-0.038248	0.034728	0.020640	-0.677979	0.122803	-0.593750	0.045723	0.025542	0.085278	0.297527	-0.165579	-0.203992	-0.917850	17.751839	-25.172220	-148.073049
43946		4.583059	2.688746	8.597687	-0.291608	-0.115857	0.289568	-0.041825	0.027206	0.016543	-0.680176	0.132813	-0.591797	0.045840	0.026909	0.085965	0.297668	-0.165965	-0.203737	-0.917791	17.706451	-25.209791	-148.050694
43947		4.569945	2.700678	8.549317	-0.281958	-0.146651	0.245537	-0.049276	0.024637	0.013997	-0.682861	0.128418	-0.597900	0.045708	0.027031	0.085481	0.297718	-0.165946	-0.203463	-0.917839	17.672366	-25.199523	-148.037379
43948		4.597439	2.664590	8.593682	-0.307111	-0.114976	0.285843	-0.049812	0.015569	0.015183	-0.676270	0.127441	-0.594238	0.045979	0.026671	0.085927	0.297831	-0.166381	-0.203191	-0.917784	17.624240	-25.241653	-148.018336
43949		4.407446	2.716754	8.668039	-0.113842	-0.032472	0.283213	-0.044917	0.020800	0.013376	-0.669189	0.132813	-0.588867	0.044082	0.027190	0.086670	0.297878	-0.166373	-0.202942	-0.917825	17.593115	-25.233386	-148.006139
43950		5.412682	2.543277	8.238711	-1.060653	-0.590463	0.295137	-0.048287	0.002178	0.015182	-0.677734	0.133789	-0.592041	0.054126	0.025457	0.082380	0.297977	-0.166853	-0.202698	-0.917760	17.547438	-25.281151	-147.989886
43951		5.251641	2.479425	8.221089	-0.977187	-0.478223	0.193810	-0.038256	0.009490	0.015386	-0.675049	0.128662	-0.589844	0.052518	0.024814	0.082204	0.298026	-0.166889	-0.202495	-0.917782	17.520518	-25.279424	-147.978638
43952		4.263033	2.663561	8.726254	-0.002688	0.096516	0.257377	-0.028968	0.010881	0.012936	-0.679443	0.139893	-0.590576	0.042633	0.026651	0.087256	0.298139	-0.167301	-0.202331	-0.917707	17.486144	-25.322416	-147.962207
43953		4.394543	2.699550	8.652204	-0.093186	-0.030787	0.259581	-0.030267	-0.003836	0.013770	-0.684326	0.131836	-0.588135	0.043942	0.027012	0.086519	0.298174	-0.167385	-0.202186	-0.917712	17.465286	-25.327715	-147.954466
43954		4.809167	2.589636	8.431882	-0.509254	-0.251688	0.217679	-0.026944	-0.009357	0.015925	-0.682617	0.132324	-0.588379	0.048086	0.025912	0.084318	0.298279	-0.167872	-0.202059	-0.917617	17.433367	-25.380314	-147.940288
43955		4.645979	2.682555	8.488483	-0.313780	-0.217416	0.221745	-0.027191	-0.005934	0.014425	-0.676758	0.137451	-0.578857	0.046455	0.026840	0.084883	0.298318	-0.167962	-0.201931	-0.917616	17.414253	-25.386895	-147.932534
43956		4.764606	2.611434	8.428507	-0.449349	-0.249283	0.202138	-0.024418	-0.012025	0.020294	-0.678223	0.132324	-0.573975	0.047638	0.026129	0.084285	0.298440	-0.168454	-0.201817	-0.917511	17.383335	-25.440747	-147.916409
43957		5.160914	2.479697	8.275240	-0.859468	-0.415870	0.204892	-0.030086	-0.006713	0.019922	-0.674805	0.134033	-0.573730	0.051604	0.024815	0.082750	0.298500	-0.168558	-0.201672	-0.917504	17.361174	-25.448718	-147.905460
43958		4.512912	2.667958	8.565192	-0.182814	-0.107691	0.227326	-0.027755	-0.006502	0.018151	-0.673828	0.139648	-0.577881	0.045124	0.026696	0.085650	0.298614	-0.169023	-0.201539	-0.917411	17.328789	-25.498783	-147.889712
43959		4.147128	2.728506	8.680022	0.158490	0.074656	0.185088	-0.029564	0.002358	0.018767	-0.681885	0.135742	-0.566406	0.041470	0.027302	0.086796	0.298679	-0.169083	-0.201383	-0.917413	17.306466	-25.501617	-147.877731
43960		4.624292	2.557404	8.484638	-0.339708	-0.120565	0.176484	-0.035496	0.011365	0.019217	-0.675293	0.140381	-0.571045	0.046245	0.025594	0.084839	0.298807	-0.169464	-0.201187	-0.917344	17.268391	-25.540325	-147.858191
43961		4.891797	2.597640	8.335637	-0.545956	-0.352784	0.174190	-0.037021	0.016262	0.016700	-0.678711	0.139160	-0.572510	0.048923	0.025996	0.083348	0.298870	-0.169470	-0.200978	-0.917368	17.241187	-25.535218	-147.844832
43962		4.752726	2.537305	8.361199	-0.464249	-0.231658	0.120427	-0.038036	0.030499	0.015349	-0.675293	0.141602	-0.566895	0.047538	0.025393	0.083600	0.298995	-0.169757	-0.200746	-0.917325	17.201485	-25.562038	-147.824208
43963		4.714694	2.511000	8.328982	-0.457056	-0.214291	0.069143	-0.041181	0.033139	0.019349	-0.672607	0.146973	-0.572021	0.047158	0.025132	0.083277	0.299083	-0.169694	-0.200491	-0.917364	17.169827	-25.548157	-147.806076
43964		4.485296	2.469058	8.486583	-0.270842	-0.002196	0.095029	-0.035715	0.038942	0.013836	-0.667480	0.139893	-0.565674	0.044868	0.024709	0.084853	0.299210	-0.169931	-0.200259	-0.917329	17.131479	-25.569387	-147.784948
43965		4.270983	2.604336	8.652570	0.007599	0.073198	0.181582	-0.037462	0.038770	0.007261	-0.670898	0.146240	-0.560059	0.042726	0.026061	0.086513	0.299252	-0.169825	-0.200023	-0.917387	17.104662	-25.550394	-147.773113
43966		4.529133	2.558064	8.430785	-0.254467	-0.123999	0.089572	-0.038082	0.038731	0.015625	-0.674316	0.141113	-0.562012	0.045306	0.025600	0.084294	0.299383	-0.170056	-0.199777	-0.917355	17.064724	-25.570603	-147.751082
43967		4.558609	2.418865	8.451823	-0.359002	-0.030847	0.083539	-0.041158	0.040569	0.012670	-0.678223	0.147949	-0.552490	0.045602	0.024209	0.084504	0.299449	-0.169953	-0.199517	-0.917409	17.034229	-25.551550	-147.735649
43968		4.218632	2.516994	8.632988	0.001506	0.141322	0.119111	-0.035473	0.043214	0.010979	-0.674072	0.147217	-0.562988	0.042204	0.025188	0.086316	0.299563	-0.170147	-0.199280	-0.917387	16.996854	-25.567532	-147.715737
43969		4.422257	2.460147	8.525570	-0.210320	0.029672	0.099371	-0.036497	0.040996	0.009140	-0.668457	0.152344	-0.560791	0.044239	0.024619	0.085242	0.299617	-0.170032	-0.199043	-0.917443	16.969924	-25.547668	-147.702389
43970		4.602925	2.434167	8.456838	-0.372028	-0.073258	0.111345	-0.028994	0.034781	0.006811	-0.666748	0.154785	-0.557617	0.046043	0.024356	0.084557	0.299708	-0.170239	-0.198851	-0.917416	16.938175	-25.566181	-147.686685
43971		4.355574	2.408337	8.621828	-0.168311	0.138383	0.140179	-0.019140	0.028778	0.002708	-0.668457	0.157227	-0.550537	0.043568	0.024092	0.086210	0.299734	-0.170147	-0.198717	-0.917453	16.923850	-25.551959	-147.679521
43972		4.660095	2.282031	8.491033	-0.498557	0.023505	0.125757	-0.008800	0.015920	0.001582	-0.667480	0.152100	-0.554932	0.046608	0.022824	0.084906	0.299799	-0.170397	-0.198648	-0.917401	16.906603	-25.578919	-147.670535
43973		4.357776	2.372459	8.622988	-0.187225	0.162751	0.132822	-0.001283	0.009704	-0.000754	-0.669434	0.151611	-0.550049	0.043582	0.023725	0.086228	0.299806	-0.170364	-0.198628	-0.917409	16.904930	-25.574603	-147.668999
43974		4.171560	2.586907	8.711989	0.109721	0.136684	0.185414	0.001659	0.002001	-0.008828	-0.654297	0.156250	-0.556396	0.041718	0.025867	0.087120	0.299817	-0.170644	-0.198634	-0.917352	16.897408	-25.606548	-147.668881
43975		4.852169	2.451631	8.459906	-0.540980	-0.208821	0.226625	-0.008758	-0.009034	-0.001534	-0.658447	0.163330	-0.550781	0.048518	0.024520	0.084600	0.299795	-0.170707	-0.198609	-0.917353	16.893142	-25.612404	-147.671275
43976		4.848200	2.503197	8.431392	-0.504846	-0.257027	0.214200	-0.010365	-0.003336	0.002918	-0.654053	0.155518	-0.553711	0.048480	0.025037	0.084313	0.299843	-0.171033	-0.198557	-0.917288	16.876297	-25.648302	-147.665110
43977		4.494831	2.636302	8.589026	-0.121304	-0.112676	0.232090	-0.021981	-0.005463	0.002498	-0.656982	0.157959	-0.561768	0.044946	0.026373	0.085889	0.299833	-0.171104	-0.198462	-0.917298	16.863100	-25.652900	-147.664386
43978		4.587659	2.475653	8.492554	-0.302480	-0.083172	0.147260	-0.025455	-0.006835	0.011704	-0.660645	0.160645	-0.555664	0.045872	0.024770	0.084924	0.299903	-0.171472	-0.198341	-0.917233	16.835916	-25.691559	-147.653669
43979		4.258833	2.595597	8.582230	0.041966	0.026803	0.113388	-0.021832	-0.008096	0.010952	-0.654053	0.169678	-0.551758	0.042583	0.025968	0.085821	0.299929	-0.171564	-0.198243	-0.917229	16.820772	-25.699031	-147.648276
43980		4.218836	2.619704	8.659114	0.110667	0.064569	0.168558	-0.023493	-0.018330	0.019514	-0.649902	0.160889	-0.547119	0.042178	0.026211	0.086592	0.300024	-0.171981	-0.198141	-0.917141	16.793817	-25.744311	-147.635032
43981		5.047086	2.297570	8.253573	-0.794030	-0.285839	0.094946	-0.028191	-0.035215	0.022527	-0.637207	0.166748	-0.553223	0.050454	0.022993	0.082541	0.300070	-0.172218	-0.198045	-0.917102	16.774112	-25.768599	-147.627557
43982		4.824327	2.274751	8.377124	-0.604039	-0.101832	0.099406	-0.013489	-0.043429	0.023318	-0.647217	0.171143	-0.559570	0.048222	0.022759	0.083780	0.300166	-0.172734	-0.198023	-0.916979	16.754034	-25.827699	-147.616655
43983		4.001370	2.485757	8.816298	0.244523	0.345207	0.174209	-0.010920	-0.054872	0.022771	-0.637939	0.168213	-0.551270	0.039987	0.024867	0.088173	0.300209	-0.173035	-0.198036	-0.916905	16.745703	-25.862837	-147.612612
43984		4.339287	2.416613	8.635733	-0.079227	0.154190	0.147998	0.000394	-0.081975	0.022951	-0.642334	0.166260	-0.552246	0.043355	0.024171	0.086375	0.300276	-0.173699	-0.198133	-0.916737	16.736718	-25.942069	-147.608974
43985		4.376110	2.384247	8.673621	-0.112024	0.183563	0.188333	0.008342	-0.095048	0.023601	-0.647217	0.172119	-0.556396	0.043717	0.023844	0.086758	0.300299	-0.174157	-0.198294	-0.916608	16.742409	-25.999416	-147.611783
43986		4.437466	2.549456	8.631125	-0.050737	0.019672	0.221464	0.002766	-0.117307	0.028624	-0.644775	0.171387	-0.553955	0.044320	0.025500	0.086338	0.300358	-0.174976	-0.198448	-0.916399	16.736098	-26.097916	-147.611155
43987		4.958606	2.490661	8.375092	-0.522185	-0.300152	0.215799	-0.008883	-0.146209	0.040598	-0.639893	0.175537	-0.552246	0.049520	0.024920	0.083786	0.300393	-0.175711	-0.198591	-0.916216	16.731482	-26.186165	-147.612969
43988		4.263303	2.582192	8.700235	0.146475	0.127796	0.212269	-0.021731	-0.157965	0.045144	-0.630859	0.174072	-0.555176	0.042558	0.025841	0.087033	0.300465	-0.176765	-0.198680	-0.915970	16.710222	-26.309195	-147.609778
43989		4.127347	2.657080	8.801947	0.333157	0.193161	0.258112	-0.034106	-0.185852	0.043168	-0.632813	0.174072	-0.552734	0.041186	0.026595	0.088053	0.300450	-0.177722	-0.198765	-0.915772	16.693665	-26.419652	-147.617248
43990		4.592873	2.514832	8.552168	-0.134392	-0.032394	0.214241	-0.048266	-0.223699	0.052164	-0.642822	0.173096	-0.567139	0.045826	0.025181	0.085567	0.300462	-0.179111	-0.198824	-0.915484	16.660925	-26.578525	-147.621861
43991		4.749647	2.476830	8.524034	-0.259984	-0.082137	0.251039	-0.037551	-0.247099	0.053311	-0.635010	0.172607	-0.554932	0.047385	0.024797	0.085294	0.300429	-0.180363	-0.198975	-0.915216	16.644632	-26.724300	-147.634260
43992		4.778492	2.419193	8.540254	-0.285476	-0.030823	0.264013	-0.013691	-0.283647	0.070194	-0.636963	0.180664	-0.556885	0.047655	0.024215	0.085469	0.300493	-0.181986	-0.199266	-0.914810	16.631867	-26.918444	-147.638776
43993		4.800719	2.430292	8.556448	-0.265003	-0.025584	0.291522	-0.013132	-0.317207	0.077461	-0.635986	0.178955	-0.560547	0.047862	0.024327	0.085639	0.300521	-0.183546	-0.199611	-0.914414	16.628716	-27.106698	-147.649169
43994		4.604218	2.528198	8.665816	0.001125	0.066799	0.320546	-0.017462	-0.340571	0.077846	-0.642578	0.180908	-0.562988	0.045885	0.025307	0.086734	0.300558	-0.185437	-0.199962	-0.913944	16.616537	-27.332850	-147.659413
43995		4.929521	2.446032	8.540817	-0.289541	-0.067186	0.343116	-0.022879	-0.377002	0.084732	-0.647217	0.182373	-0.557861	0.049124	0.024491	0.085498	0.300549	-0.187291	-0.200344	-0.913485	16.610866	-27.555155	-147.676320
43996		4.893585	2.446850	8.506993	-0.230269	-0.045334	0.299085	-0.037544	-0.398590	0.092439	-0.645020	0.186035	-0.564697	0.048755	0.024507	0.085163	0.300573	-0.189485	-0.200675	-0.912952	16.588185	-27.814901	-147.688221
43997		4.800659	2.436882	8.508046	-0.129467	0.026939	0.254781	-0.051263	-0.419001	0.092773	-0.643555	0.181152	-0.565674	0.047817	0.024413	0.085175	0.300529	-0.191580	-0.200982	-0.912461	16.567631	-28.061619	-147.707815
43998		4.998765	2.451795	8.421071	-0.243493	-0.097420	0.279113	-0.066302	-0.448264	0.105141	-0.647461	0.178223	-0.557373	0.049786	0.024572	0.084314	0.300529	-0.194050	-0.201241	-0.911882	16.529239	-28.350156	-147.720828
43999		4.682251	2.576293	8.551976	0.144010	0.043536	0.270676	-0.084186	-0.470342	0.121096	-0.650635	0.191162	-0.553955	0.046606	0.025827	0.085619	0.300528	-0.196455	-0.201446	-0.911322	16.485955	-28.629737	-147.731983
44000		5.101290	2.476863	8.450590	-0.200995	-0.106412	0.361717	-0.110391	-0.519029	0.138936	-0.652344	0.191650	-0.560791	0.050776	0.024851	0.084624	0.300563	-0.199338	-0.201576	-0.910656	16.418587	-28.961977	-147.736543
44001		4.628352	2.603726	8.712811	0.345528	0.170497	0.383653	-0.126882	-0.557817	0.148436	-0.657471	0.189209	-0.555664	0.046021	0.026127	0.087240	0.300551	-0.202231	-0.201687	-0.909997	16.350141	-29.294106	-147.746052
44002		4.528029	2.751387	8.779245	0.591804	0.164635	0.423065	-0.151672	-0.614207	0.167155	-0.661377	0.198486	-0.562500	0.044987	0.027618	0.087910	0.300570	-0.205626	-0.201740	-0.909218	16.258900	-29.682397	-147.749555
44003		5.193033	2.472728	8.468493	-0.084540	-0.065497	0.423789	-0.171456	-0.686804	0.194863	-0.661621	0.198975	-0.552734	0.051615	0.024850	0.084841	0.300587	-0.209215	-0.201790	-0.908382	16.161647	-30.092967	-147.752302
44004		4.998651	2.340368	8.519496	0.063841	0.176470	0.336691	-0.169943	-0.755629	0.205666	-0.663574	0.197998	-0.552734	0.049640	0.023527	0.085363	0.300610	-0.213304	-0.201928	-0.907392	16.060427	-30.564217	-147.756013
44005		4.992323	1.984335	8.662816	-0.040706	0.546911	0.365910	-0.140230	-0.830746	0.204436	-0.672852	0.197510	-0.558350	0.049543	0.019955	0.086821	0.300548	-0.217502	-0.202320	-0.906328	15.990752	-31.055600	-147.777611
44006		4.810074	1.972189	8.825462	0.215145	0.763016	0.399356	-0.110709	-0.935073	0.199637	-0.682373	0.201904	-0.548096	0.047668	0.019819	0.088467	0.300414	-0.222294	-0.202991	-0.905059	15.941883	-31.623833	-147.816801
44007		4.721144	1.789334	8.847866	0.259561	1.000579	0.321716	-0.073300	-1.045582	0.199374	-0.687744	0.212891	-0.538574	0.046730	0.017973	0.088717	0.300171	-0.227348	-0.204005	-0.903655	15.933374	-32.232831	-147.880874
44008		5.293283	1.650743	8.619014	-0.204033	0.793470	0.402924	-0.014795	-1.180121	0.192215	-0.686768	0.210205	-0.533447	0.052407	0.016564	0.086499	0.299846	-0.233071	-0.205466	-0.901972	15.966964	-32.933406	-147.970521
44009		5.378985	1.724228	8.567577	-0.129139	0.750467	0.421003	0.022845	-1.299336	0.191316	-0.702148	0.201660	-0.534424	0.053215	0.017284	0.086025	0.299396	-0.239102	-0.207289	-0.900124	16.045111	-33.680842	-148.089732
44010		4.651575	2.142535	9.077354	0.924498	1.111994	0.508789	0.040625	-1.427277	0.188817	-0.706787	0.206299	-0.525391	0.045846	0.021450	0.091107	0.298842	-0.245825	-0.209348	-0.898019	16.141497	-34.515847	-148.231985
44011		4.981544	2.181412	8.890586	0.784619	0.936581	0.537277	0.025351	-1.581237	0.214513	-0.717041	0.202881	-0.516113	0.049087	0.021856	0.089299	0.298173	-0.253117	-0.211554	-0.895695	16.249597	-35.421786	-148.395972
44012		4.957069	2.421052	8.970327	1.123969	0.916119	0.617818	0.016835	-1.722987	0.241372	-0.721924	0.207275	-0.511230	0.048766	0.024262	0.090128	0.297476	-0.261207	-0.213849	-0.893055	16.353355	-36.425282	-148.567714
44013		5.481941	2.709792	8.548437	0.960914	0.368764	0.647128	0.003163	-1.900064	0.301532	-0.734619	0.212646	-0.490479	0.053963	0.027178	0.086000	0.296783	-0.270011	-0.216284	-0.890076	16.461267	-37.520056	-148.744821
44014		5.671990	2.936880	8.391024	1.098787	0.157064	0.673971	-0.047990	-2.069790	0.371383	-0.735107	0.209717	-0.481689	0.055793	0.029493	0.084484	0.296150	-0.279814	-0.218592	-0.886688	16.527518	-38.732753	-148.906713
44015		5.130341	2.657607	8.631326	1.557955	0.833110	0.422407	-0.083360	-2.229392	0.454853	-0.751221	0.216553	-0.464844	0.050276	0.026727	0.086866	0.295596	-0.290315	-0.220872	-0.882925	16.572715	-40.033086	-149.053895
44016		5.770731	2.862812	8.376538	1.383079	0.415250	0.655008	-0.091667	-2.374062	0.527133	-0.761475	0.222168	-0.458496	0.056632	0.028817	0.084429	0.295177	-0.301607	-0.223158	-0.878695	16.595302	-41.436004	-149.177448
44017		6.104203	2.711810	7.714375	1.027935	0.151559	0.338241	-0.131750	-2.532033	0.601560	-0.779541	0.229980	-0.434570	0.059977	0.027351	0.077890	0.294773	-0.313585	-0.225389	-0.874056	16.595267	-42.926446	-149.290467
44018		6.031179	2.729343	7.504946	1.233946	0.176827	0.116485	-0.200812	-2.672790	0.684739	-0.782227	0.229248	-0.411133	0.059208	0.027573	0.075818	0.294439	-0.326403	-0.227321	-0.868961	16.528589	-44.517418	-149.367363
44019		6.117771	2.651170	7.238262	1.259199	0.176574	-0.054373	-0.238691	-2.809327	0.765985	-0.801025	0.239258	-0.398682	0.060051	0.026830	0.073200	0.294154	-0.339810	-0.229144	-0.863421	16.427233	-46.187113	-149.417765
44020		6.383079	2.818599	7.176434	1.446032	0.059545	0.091208	-0.257122	-2.931143	0.846807	-0.806885	0.243652	-0.373291	0.062650	0.028546	0.072652	0.294005	-0.353855	-0.230848	-0.857354	16.278876	-47.944773	-149.421796
44021		6.377053	2.827903	6.866757	1.584893	0.003967	-0.153701	-0.312223	-3.089010	0.952363	-0.810547	0.247559	-0.352783	0.062564	0.028687	0.069596	0.293933	-0.368622	-0.232333	-0.850731	16.063491	-49.798292	-149.373978
44022		6.624757	2.597847	6.896562	1.601764	0.245194	-0.037037	-0.335821	-3.271193	1.058595	-0.825684	0.265137	-0.326416	0.064969	0.026442	0.069991	0.293993	-0.384271	-0.233701	-0.843379	15.778440	-51.774758	-149.258418
44023		6.887683	2.742538	6.857595	1.856962	0.181619	0.111813	-0.319520	-3.453664	1.182519	-0.820557	0.263916	-0.296143	0.067515	0.027938	0.069705	0.294282	-0.400635	-0.235117	-0.835231	15.436010	-53.864594	-149.059040
44024		6.871994	2.981724	6.958250	2.422455	0.234490	0.116857	-0.318350	-3.657901	1.303291	-0.843750	0.288086	-0.275635	0.067236	0.030371	0.070773	0.294747	-0.417882	-0.236492	-0.826178	15.003442	-56.088551	-148.756451
44025		7.234714	2.318406	6.755380	2.046837	0.637808	0.124125	-0.356896	-3.868469	1.410915	-0.839111	0.287842	-0.237793	0.070857	0.023810	0.068892	0.295193	-0.435980	-0.237718	-0.816255	14.458424	-58.439444	-148.352293
44026		7.879075	1.823217	6.835791	1.856682	1.041492	0.559515	-0.323744	-4.043266	1.488014	-0.853271	0.301514	-0.211914	0.077249	0.018923	0.069900	0.295698	-0.454651	-0.239047	-0.805426	13.821041	-60.897071	-147.830720
44027		9.068771	1.478036	6.773974	1.524159	1.136367	1.442435	-0.338228	-4.200643	1.507432	-0.848633	0.308594	-0.173828	0.089123	0.015573	0.069597	0.295905	-0.473768	-0.240407	-0.793844	13.095894	-63.440518	-147.230576
44028		11.191253	0.969595	6.193372	0.507457	0.827655	2.976826	-0.297834	-4.249799	1.498564	-0.850586	0.333496	-0.147461	0.110486	0.010622	0.064276	0.295978	-0.492763	-0.241880	-0.781713	12.276628	-66.005065	-146.514962
44029		12.365073	1.159175	6.097448	0.721702	0.622702	3.988658	-0.299022	-4.208425	1.468214	-0.848633	0.333496	-0.104736	0.122242	0.012586	0.063538	0.295816	-0.511319	-0.243259	-0.769331	11.314479	-68.539114	-145.658316
44030		13.572845	1.055480	5.969668	0.769584	0.634002	5.017825	-0.307575	-4.109503	1.376035	-0.852783	0.354980	-0.076660	0.134387	0.011577	0.062450	0.295271	-0.529134	-0.244555	-0.756984	10.220833	-70.998912	-144.682065
44031		13.934415	0.955921	6.339529	1.416286	1.171567	5.414251	-0.297309	-3.912924	1.251075	-0.845947	0.355225	-0.040771	0.138005	0.010522	0.066089	0.294372	-0.545813	-0.245842	-0.744980	9.015927	-73.330871	-143.596028
44032		13.077587	1.948977	5.817132	2.499095	0.524001	4.403975	-0.300653	-3.777536	1.193694	-0.844238	0.370850	-0.008057	0.129527	0.020355	0.060596	0.293315	-0.561675	-0.246950	-0.733146	7.517766	-75.568851	-142.220966
44033		13.056040	1.061701	5.937738	2.448926	1.491725	4.279725	-0.222849	-3.685720	1.086586	-0.836426	0.375732	0.019287	0.129376	0.011390	0.061757	0.292067	-0.576762	-0.248438	-0.721333	5.813508	-77.740446	-140.601442
44034		12.826545	1.168062	6.464143	3.381703	2.068014	4.041333	-0.035170	-3.535118	0.984025	-0.832275	0.379150	0.045654	0.127037	0.012319	0.066892	0.291093	-0.590658	-0.250570	-0.709650	3.808903	-79.801020	-138.579061
44035		11.818545	2.494564	7.120080	5.320276	1.954786	3.011126	0.092621	-3.337959	0.928615	-0.829834	0.392334	0.073486	0.116858	0.025457	0.073170	0.290434	-0.603453	-0.252974	-0.698209	1.088617	-81.736665	-135.770216
44036		10.834225	2.525489	7.564463	6.105092	2.562312	1.897381	0.112531	-3.160554	0.912553	-0.822510	0.399414	0.097168	0.107012	0.025702	0.077357	0.289943	-0.615332	-0.255145	-0.687169	-3.136404	-83.528757	-131.445568
44037		9.476254	3.131387	7.301134	6.755822	2.249591	0.296577	0.121297	-2.976684	0.972376	-0.817627	0.406738	0.115967	0.093508	0.031726	0.074428	0.289823	-0.626560	-0.256851	-0.676353	-10.749388	-85.159525	-123.726876
44038		6.779521	3.783277	6.228275	6.833489	1.346833	-2.702961	-0.069656	-2.863377	1.160498	-0.809814	0.414063	0.148926	0.066673	0.038244	0.063229	0.289837	-0.637650	-0.257080	-0.665813	-26.549226	-86.499055	-107.926164
44039		5.779840	3.177303	4.347957	5.294190	0.557753	-3.976442	-0.564689	-2.915757	1.387574	-0.807373	0.426270	0.164063	0.056934	0.032294	0.044223	0.288867	-0.649884	-0.254964	-0.655134	-58.574223	-87.219841	-76.180537
44040		4.238969	1.591659	4.186286	4.190300	1.663039	-5.605566	-0.644449	-2.760467	1.272657	-0.789307	0.433838	0.195801	0.041704	0.016319	0.042389	0.287400	-0.661256	-0.252667	-0.645214	-92.332194	-86.899566	-42.749452
44041		7.248015	0.364350	10.435497	8.029610	6.861952	-2.741848	-0.492513	-2.258911	1.019628	-0.785645	0.434814	0.213135	0.071275	0.004267	0.105155	0.286183	-0.670497	-0.250930	-0.636841	-111.337362	-86.049967	-23.992609
44042		19.349986	3.409296	16.675490	15.472608	8.766825	8.838263	0.124205	-0.238226	0.286358	-0.780518	0.441162	0.209717	0.193252	0.034266	0.167006	0.287238	-0.671248	-0.250692	-0.635668	-111.860302	-85.866227	-23.395301
44043		8.696686	5.022843	13.053128	13.301091	5.367150	-1.718544	0.432079	1.496882	-0.213716	-0.793945	0.437012	0.208008	0.087994	0.049854	0.129983	0.289875	-0.665592	-0.250622	-0.640429	-100.179926	-86.221290	-34.855659
44044		6.690888	5.630943	11.320218	12.257639	3.736764	-3.456721	0.343428	2.593080	-0.594359	-0.802734	0.431396	0.174316	0.068536	0.055914	0.112417	0.292373	-0.655689	-0.249903	-0.649722	-75.439985	-86.524377	-59.443442
44045		4.607150	5.114167	9.496968	10.399714	2.838515	-5.192173	0.103062	3.297790	-0.840877	-0.813965	0.428223	0.145264	0.047844	0.050894	0.094217	0.294056	-0.643691	-0.248134	-0.661531	-46.211284	-86.007305	-88.672679
44046		2.739937	4.407514	7.558144	8.413752	2.004604	-6.772945	-0.142727	3.609215	-0.984621	-0.821045	0.416992	0.116943	0.028974	0.043989	0.075037	0.294791	-0.630248	-0.245472	-0.675004	-25.291443	-84.601609	-109.737809
44047		2.263935	3.518014	6.322139	6.839448	1.716553	-7.030668	-0.316222	3.721539	-1.103497	-0.827148	0.404053	0.096191	0.024004	0.035150	0.062728	0.294580	-0.616691	-0.242347	-0.688609	-13.630655	-82.793025	-121.650284
44048		2.452110	2.634862	5.655454	5.638653	1.764328	-6.646254	-0.370681	3.798417	-1.193532	-0.844482	0.395264	0.067627	0.025746	0.026302	0.056025	0.293887	-0.602150	-0.239102	-0.702763	-6.351397	-80.707025	-129.213760
44049		2.626916	1.872499	5.337425	4.754706	1.973266	-6.292938	-0.312905	3.862272	-1.282302	-0.845459	0.377441	0.039795	0.027413	0.018635	0.052823	0.292994	-0.587391	-0.236135	-0.716496	-1.681502	-78.550135	-134.142988
44050		2.833573	1.435760	5.290816	4.258934	2.131765	-5.889055	-0.171876	3.925948	-1.355179	-0.856934	0.374756	0.006348	0.029463	0.014206	0.052325	0.292216	-0.571368	-0.233685	-0.730438	1.795935	-76.232806	-137.800674
44051		3.136963	1.167268	5.373270	3.927808	2.241793	-5.383702	0.006657	3.972563	-1.401975	-0.859131	0.360107	-0.021484	0.032509	0.011446	0.053095	0.291692	-0.555095	-0.231855	-0.743659	4.349495	-73.917386	-140.439313
44052		3.741446	0.917890	5.435254	3.481833	2.261181	-4.603066	0.204186	4.025604	-1.422573	-0.857422	0.351318	-0.053223	0.038562	0.008852	0.053593	0.291575	-0.537532	-0.230617	-0.756875	6.438772	-71.472751	-142.498319
44053		4.021297	0.902549	5.551702	3.266071	2.198699	-4.129567	0.390985	4.090538	-1.412899	-0.860107	0.343506	-0.086426	0.041399	0.008628	0.054695	0.291927	-0.519735	-0.229873	-0.769293	8.074367	-69.046361	-143.998086
44054		4.061799	0.975431	5.651654	3.129719	2.102265	-3.882393	0.527908	4.108050	-1.377058	-0.859619	0.330078	-0.116211	0.041833	0.009321	0.055691	0.292656	-0.500903	-0.229397	-0.781553	9.447670	-66.524916	-145.147816
44055		4.427868	0.814080	6.037906	2.896084	2.285471	-3.247208	0.592917	4.081260	-1.334873	-0.861816	0.322510	-0.137207	0.045551	0.007662	0.059481	0.293537	-0.482447	-0.229029	-0.792860	10.541904	-64.090108	-145.978458
44056		5.222521	0.643436	6.547263	2.515250	2.423986	-2.174475	0.631218	4.068474	-1.303216	-0.856934	0.308594	-0.178223	0.053582	0.005884	0.064411	0.294481	-0.463203	-0.228605	-0.804030	11.490404	-61.581785	-146.630861
44057		6.326446	0.410328	7.152337	1.949698	2.551867	-0.811541	0.654850	4.099982	-1.252809	-0.855225	0.293213	-0.217285	0.064736	0.003469	0.070218	0.295578	-0.444223	-0.228046	-0.814429	12.250128	-59.136013	-147.073549
44058		7.535617	0.157868	7.848132	1.256128	2.659464	0.662701	0.686556	4.209006	-1.196468	-0.853516	0.286865	-0.234375	0.076992	0.000856	0.076876	0.296951	-0.423988	-0.227163	-0.824895	12.891271	-56.553720	-147.358959
44059		8.281169	0.097466	8.336560	0.690577	2.579377	1.629846	0.719576	4.356742	-1.138490	-0.846191	0.275635	-0.277588	0.084604	0.000201	0.081537	0.298653	-0.403554	-0.226014	-0.834786	13.400247	-53.975203	-147.476950
44060		8.741152	0.289256	8.572783	0.198305	2.189048	2.234125	0.708327	4.476481	-1.067919	-0.836914	0.254395	-0.314941	0.089314	0.002120	0.083751	0.303243	-0.381080	-0.225217	-0.843860	13.766007	-51.237358	-147.093600
44061		8.965181	0.452890	8.673814	-0.264696	1.789171	2.537012	0.648614	4.521610	-0.985381	-0.821777	0.246094	-0.339600	0.091602	0.003804	0.084695	0.305331	-0.359811	-0.222911	-0.853006	14.048232	-48.587365	-146.977159
44062		9.184783	0.579106	8.595785	-0.859395	1.277899	2.684645	0.565645	4.495813	-0.904139	-0.817627	0.244873	-0.383301	0.093773	0.005131	0.083879	0.307387	-0.338052	-0.219925	-0.861897	14.244158	-45.884334	-146.798393
44063		9.344166	0.708670	8.753909	-1.289220	0.917982	2.911857	0.475114	4.398132	-0.828843	-0.798340	0.221680	-0.417236	0.095364	0.006489	0.085472	0.309378	-0.317376	-0.216556	-0.869863	14.355691	-43.325488	-146.570059
44064		9.659990	0.860110	8.860969	-1.834475	0.415329	3.187579	0.385711	4.266474	-0.776131	-0.786621	0.227051	-0.445068	0.098493	0.008053	0.086538	0.313032	-0.296167	-0.213158	-0.876847	14.400994	-40.755786	-146.080902
44065		9.642110	0.971476	8.756036	-2.248784	-0.023553	3.051990	0.300914	4.091588	-0.747575	-0.768555	0.217529	-0.467041	0.098221	0.009220	0.085577	0.314495	-0.276900	-0.209131	-0.883563	14.433207	-38.378801	-145.861363
44066		9.217970	1.199080	8.641736	-2.298467	-0.361830	2.663449	0.202095	3.838134	-0.717406	-0.758301	0.207520	-0.493408	0.093857	0.011570	0.084639	0.315499	-0.258240	-0.204819	-0.889844	14.440850	-36.073791	-145.680231
44067		8.670419	1.679845	8.618150	-1.993467	-0.737497	2.342019	0.056857	3.474091	-0.658009	-0.729980	0.198730	-0.517090	0.088238	0.016486	0.084662	0.316156	-0.241981	-0.200405	-0.895169	14.381384	-34.052103	-145.520633
44068		8.312129	2.270939	8.704410	-1.659050	-1.206114	2.261926	-0.214778	3.034445	-0.562447	-0.714355	0.190430	-0.527344	0.084492	0.022566	0.085745	0.316323	-0.227587	-0.195180	-0.900027	14.187289	-32.218435	-145.387709
44069		8.564633	2.796132	9.394933	-1.549402	-1.610221	3.010446	-0.587024	2.542551	-0.442531	-0.705078	0.184326	-0.550293	0.086893	0.028043	0.092768	0.316119	-0.216622	-0.189000	-0.904114	13.785404	-30.743467	-145.262902
44070		10.703511	2.664039	10.982514	-2.945828	-2.075963	5.329298	-0.890045	2.140900	-0.358706	-0.688232	0.181641	-0.551758	0.108250	0.026932	0.108551	0.315480	-0.207460	-0.181852	-0.907944	13.230660	-29.436956	-145.168811
44071		14.407816	1.626289	13.046335	-5.948270	-2.513893	8.591652	-0.962502	2.111833	-0.404890	-0.681641	0.193115	-0.546631	0.145478	0.016592	0.128853	0.314544	-0.199008	-0.174555	-0.911586	12.653908	-28.205526	-145.117129
44072		17.503709	-0.124306	14.264981	-9.338287	-2.597333	10.581115	-0.616012	2.572148	-0.623225	-0.666260	0.184326	-0.563721	0.176848	-0.001358	0.140387	0.313258	-0.187202	-0.168196	-0.915716	12.321081	-26.629852	-145.155979
44073		18.146941	-0.866292	14.028912	-10.825271	-2.830496	10.227886	0.027223	3.293424	-0.944932	-0.656250	0.173828	-0.572510	0.183703	-0.009546	0.137275	0.311683	-0.171257	-0.164017	-0.920121	12.396193	-24.670375	-145.294226
44074		16.864386	0.063371	12.392856	-10.269598	-3.866870	8.006271	0.631110	3.880434	-1.231695	-0.641846	0.170898	-0.595947	0.171004	-0.000799	0.120625	0.309633	-0.150979	-0.161779	-0.924749	12.846408	-22.297768	-145.517835
44075		14.560316	1.943183	9.869365	-8.433757	-5.337020	4.799649	0.875481	4.109846	-1.391717	-0.637451	0.149902	-0.621582	0.147720	0.017985	0.095753	0.307110	-0.129457	-0.160471	-0.929071	13.440460	-19.822955	-145.775744
44076		12.714815	2.819373	7.590256	-7.327300	-6.095399	1.864265	0.689778	3.897622	-1.442142	-0.620850	0.138184	-0.632080	0.128794	0.027013	0.073498	0.303883	-0.108803	-0.158485	-0.933113	13.926757	-17.419890	-146.066599
44077		12.597615	2.828143	6.014848	-7.809349	-6.761070	-0.006818	0.314559	3.444522	-1.458190	-0.612305	0.130127	-0.648438	0.127189	0.027265	0.058008	0.299929	-0.091077	-0.155480	-0.936789	14.203684	-15.301967	-146.410971
44078		13.163771	1.791271	4.721933	-9.293618	-6.814475	-1.690893	-0.070762	2.986930	-1.446819	-0.603271	0.115479	-0.673828	0.132448	0.016973	0.045239	0.295373	-0.075831	-0.151235	-0.940283	14.260375	-13.411762	-146.806966
44079		15.223321	-0.096379	3.413929	-12.370839	-6.918754	-3.294348	-0.182471	2.694611	-1.378041	-0.597656	0.105225	-0.676514	0.152663	-0.001985	0.032086	0.290831	-0.062378	-0.146899	-0.943370	14.241263	-11.720481	-147.201243
44080		15.750338	-0.798971	2.036087	-13.427620	-7.085832	-5.087168	-0.026204	2.558840	-1.201755	-0.583252	0.101318	-0.694580	0.157695	-0.008934	0.018345	0.286991	-0.049340	-0.143370	-0.945858	14.284154	-10.115258	-147.513184
44081		14.605702	-2.121015	0.160821	-13.339147	-5.985751	-7.793422	0.298807	2.348590	-0.895820	-0.575684	0.094482	-0.713623	0.145965	-0.021865	-0.000139	0.284491	-0.037154	-0.141619	-0.947433	14.481931	-8.683747	-147.677950
44082		13.512581	-3.613573	-1.371631	-13.255300	-4.660221	-10.130206	0.804399	1.956745	-0.548178	-0.558838	0.082275	-0.727295	0.134882	-0.036447	-0.015183	0.283417	-0.026355	-0.142716	-0.947952	14.942799	-7.519413	-147.696438
44083		13.174635	-3.965437	-2.277966	-13.107664	-4.487982	-11.402339	1.329927	1.433269	-0.216140	-0.554199	0.074463	-0.723633	0.131534	-0.039640	-0.023986	0.283580	-0.017517	-0.147006	-0.947452	15.692252	-6.694133	-147.597816
44084		13.229870	-2.721896	-2.241908	-12.433255	-5.560258	-11.212572	1.621345	0.876853	0.103724	-0.545898	0.071777	-0.737305	0.132212	-0.026964	-0.023218	0.284873	-0.011258	-0.153411	-0.946143	16.593212	-6.240826	-147.398068
44085		13.685433	-1.182285	-1.370695	-11.988082	-6.842639	-9.988608	1.576724	0.374545	0.403574	-0.545654	0.056152	-0.726318	0.136852	-0.011437	-0.014054	0.287150	-0.007546	-0.160303	-0.944347	17.465504	-6.102852	-147.112082
44086		13.728487	-0.017719	-0.193943	-11.432688	-7.492653	-8.523342	1.301411	0.005037	0.623969	-0.546875	0.056396	-0.729004	0.137284	0.000264	-0.001942	0.290193	-0.006378	-0.166415	-0.942366	18.167170	-6.234891	-146.766375
44087		12.964481	0.839057	0.792855	-10.359150	-7.488899	-7.360360	0.917060	-0.291315	0.767900	-0.547852	0.049805	-0.718750	0.129600	0.008851	0.008157	0.293595	-0.007055	-0.171127	-0.940462	18.651389	-6.531759	-146.398943
44088		10.678517	2.897951	2.209064	-7.386669	-7.385109	-5.545949	0.498724	-0.570543	0.802339	-0.540771	0.048828	-0.720703	0.106604	0.029352	0.022468	0.296963	-0.010014	-0.174309	-0.938791	18.890719	-7.026537	-146.063470
44089		-1.951652	7.136056	11.071304	4.759477	-0.648228	2.606255	-0.480248	-1.154246	0.706955	-0.547119	0.063232	-0.713135	-0.020407	0.071555	0.110425	0.299247	-0.016758	-0.173725	-0.938078	18.592886	-7.782576	-145.890526
44090		-7.658958	3.916182	16.980760	7.405932	6.995284	6.266934	-0.781608	-1.214994	0.545057	-0.552246	0.072266	-0.696777	-0.077726	0.039613	0.169183	0.300741	-0.024436	-0.171882	-0.937771	18.128991	-8.581386	-145.809678
44091		-7.885818	4.283070	14.990924	8.129621	6.216944	4.347565	-0.196991	-1.317117	0.307989	-0.552979	0.076172	-0.701660	-0.079909	0.042855	0.149343	0.301025	-0.031170	-0.172893	-0.937294	18.026153	-9.353241	-145.876499
44092		-2.663536	3.850891	5.171975	4.201385	0.342691	-4.253651	-0.172563	-1.886348	0.137076	-0.551758	0.071289	-0.686035	-0.027148	0.038535	0.051432	0.300049	-0.040641	-0.174918	-0.936868	17.966677	-10.434983	-146.136860
44093		0.826127	2.033841	4.622903	0.411168	-0.332744	-4.722568	-0.012712	-2.546507	-0.128582	-0.577393	0.078125	-0.664063	0.007685	0.020336	0.046328	0.297196	-0.052472	-0.178687	-0.936479	18.061358	-11.799483	-146.667660
44094		6.288709	2.280390	7.652687	-3.820925	-2.208467	-0.656881	0.236499	-2.733688	-0.495290	-0.584229	0.084961	-0.658203	0.061889	0.022559	0.077404	0.292515	-0.064704	-0.184000	-0.936159	18.361255	-13.225955	-147.442694
44095		5.908472	3.556423	10.157420	-2.606697	-1.800648	2.048487	0.296592	-2.481225	-0.793946	-0.595703	0.081299	-0.642578	0.057958	0.035181	0.102350	0.286590	-0.075147	-0.189254	-0.936164	18.748201	-14.428778	-148.352247
44096		3.794228	1.349396	8.247475	-2.029645	0.407420	-0.871299	0.264796	-2.434006	-0.775266	-0.604492	0.070557	-0.623047	0.036986	0.013240	0.082946	0.280784	-0.085676	-0.194297	-0.935985	19.131133	-15.634144	-149.253439
44097		3.165527	-0.809265	8.180588	-2.572574	2.519587	-1.773640	0.369869	-2.635248	-0.536539	-0.606445	0.068604	-0.611084	0.030552	-0.008327	0.082198	0.275849	-0.096959	-0.199936	-0.935164	19.573611	-16.956745	-150.076444
44098		4.411992	-1.734521	10.567841	-3.753136	3.860575	0.441821	0.458196	-2.751051	-0.136895	-0.614502	0.072266	-0.601318	0.042649	-0.017618	0.106232	0.272709	-0.109307	-0.205946	-0.933417	20.025551	-18.444398	-150.711246
44099		7.413147	-0.129933	12.778856	-4.896918	2.467079	3.905629	0.472391	-2.593391	0.336373	-0.628418	0.068604	-0.590088	0.072469	-0.001480	0.128732	0.271846	-0.121103	-0.211480	-0.930973	20.411361	-19.905292	-151.062999
44100		11.469730	4.227248	14.576451	-5.284589	-1.625552	8.389289	0.195288	-2.166847	0.801866	-0.633789	0.074951	-0.573975	0.112939	0.042584	0.147036	0.273453	-0.132045	-0.214829	-0.928244	20.515804	-21.261826	-151.061922
44101		11.953241	7.691257	11.171662	-3.874012	-5.896360	6.832447	0.133759	-1.338136	0.614729	-0.634033	0.080078	-0.567383	0.118544	0.077203	0.112564	0.274953	-0.138730	-0.216863	-0.926351	20.567673	-22.103366	-150.996031
44102		7.503069	8.000465	8.162434	-0.332806	-5.473318	2.711663	-0.056102	-1.017057	0.327665	-0.639160	0.080322	-0.561279	0.074483	0.080150	0.081982	0.275395	-0.144189	-0.217782	-0.925169	20.539610	-22.752428	-151.022262
44103		7.932452	4.397259	9.272954	-2.464955	-2.359302	2.701454	-0.173142	-0.950030	0.264061	-0.647949	0.084961	-0.561768	0.078825	0.044157	0.093067	0.275457	-0.149109	-0.218092	-0.924298	20.460576	-23.315345	-151.074934
44104		7.974471	2.161819	9.643911	-3.617599	-0.471776	2.351206	-0.154174	-0.687037	0.267202	-0.645996	0.080078	-0.560059	0.079384	0.021799	0.096695	0.275891	-0.153118	-0.218160	-0.923496	20.364454	-23.777388	-151.064235
44105		7.275896	2.940577	9.065581	-2.625438	-1.007824	1.843270	-0.145519	-0.517519	0.273211	-0.648682	0.086182	-0.565186	0.072484	0.029571	0.090822	0.276479	-0.156007	-0.217988	-0.922877	20.260949	-24.109958	-151.015749
44106		8.828494	3.918992	9.742419	-3.121633	-2.095755	3.381197	-0.228943	-0.173051	0.175978	-0.643066	0.099854	-0.561523	0.088166	0.039379	0.097456	0.276992	-0.157664	-0.217066	-0.922659	20.096671	-24.279659	-150.945083
44107		4.395453	3.076429	8.380742	-0.278194	-0.180786	0.132720	-0.238292	-0.045489	0.154334	-0.649170	0.086914	-0.567139	0.043912	0.030898	0.083781	0.277470	-0.158373	-0.215904	-0.922667	19.925976	-24.334640	-150.863207
44108		4.925873	2.988876	8.919549	-0.628698	-0.103480	0.786837	-0.215710	-0.057742	0.156519	-0.649414	0.093018	-0.578613	0.049210	0.030023	0.089177	0.278027	-0.159467	-0.214901	-0.922545	19.763385	-24.439189	-150.778541
44109		4.398013	2.598683	8.840616	-0.428711	0.368009	0.382060	-0.215407	-0.020241	0.169079	-0.641602	0.096680	-0.577881	0.043949	0.026119	0.088383	0.278617	-0.160044	-0.213797	-0.922524	19.599568	-24.483047	-150.682123
44110		4.646255	2.625207	8.510834	-0.642743	0.061608	0.212118	-0.205570	-0.013220	0.156624	-0.652588	0.099854	-0.585449	0.046436	0.026376	0.085084	0.279227	-0.160916	-0.212775	-0.922423	19.438068	-24.562784	-150.587408
44111		5.143028	2.792634	8.420832	-0.935776	-0.348982	0.393312	-0.211875	-0.020235	0.169602	-0.654297	0.096191	-0.584717	0.051398	0.028059	0.084184	0.279821	-0.161489	-0.211685	-0.922394	19.275788	-24.606324	-150.490306
44112		4.814687	2.659793	8.369198	-0.736778	-0.144825	0.174069	-0.233302	0.005467	0.176234	-0.656982	0.102783	-0.593994	0.048126	0.026738	0.083660	0.280517	-0.162334	-0.210491	-0.922308	19.091277	-24.679122	-150.379602
44113		4.719753	2.733173	8.558865	-0.565701	-0.089101	0.320054	-0.230346	0.008297	0.178783	-0.664307	0.114258	-0.584717	0.047177	0.027472	0.085555	0.281167	-0.162811	-0.209267	-0.922304	18.913338	-24.708453	-150.270782
44114		5.520523	2.543326	7.810753	-1.420848	-0.683097	-0.041963	-0.216972	0.009633	0.166212	-0.657471	0.113525	-0.588135	0.055188	0.025564	0.078077	0.281831	-0.163602	-0.208148	-0.922215	18.739741	-24.776381	-150.164822
44115		4.480700	2.700793	8.648136	-0.341057	0.045061	0.288937	-0.194262	0.062278	0.129915	-0.660156	0.106934	-0.589844	0.044816	0.027121	0.086441	0.282340	-0.163729	-0.207054	-0.922283	18.589893	-24.766950	-150.074053
44116		4.528085	2.480716	8.452809	-0.526830	0.079953	0.077890	-0.167758	0.039347	0.121750	-0.667480	0.119629	-0.587402	0.045282	0.024906	0.084498	0.282869	-0.164269	-0.206154	-0.922226	18.452787	-24.810270	-149.988486
44117		4.690778	2.264806	8.639262	-0.739097	0.240398	0.245419	-0.129298	0.060601	0.094830	-0.669189	0.116211	-0.590332	0.046923	0.022726	0.086364	0.283266	-0.164276	-0.205390	-0.922274	18.349067	-24.795109	-149.919083
44118		4.584387	2.812848	8.564385	-0.334352	-0.171830	0.293552	-0.091063	0.056822	0.081446	-0.672363	0.116455	-0.587891	0.045857	0.028186	0.085618	0.283689	-0.164583	-0.204849	-0.922209	18.264099	-24.821127	-149.854032
44119		4.096886	2.491864	8.666570	-0.119345	0.329164	0.085832	-0.072910	0.067989	0.074595	-0.675537	0.113525	-0.589844	0.040989	0.024966	0.086643	0.284047	-0.164456	-0.204351	-0.922232	18.197161	-24.798215	-149.795340
44120		5.133560	2.432110	8.389110	-1.011131	-0.237793	0.265349	-0.066020	0.056020	0.069729	-0.672852	0.121826	-0.591797	0.051351	0.024367	0.083869	0.284434	-0.164715	-0.203934	-0.922159	18.129439	-24.821897	-149.737503
44121		4.784998	2.459931	8.438237	-0.711008	-0.086239	0.169213	-0.048173	0.070595	0.061395	-0.676514	0.123779	-0.586426	0.047872	0.024634	0.084360	0.284754	-0.164528	-0.203557	-0.922177	18.079791	-24.795181	-149.686268
44122		4.784427	2.697753	8.613580	-0.530667	-0.189939	0.387542	-0.040192	0.077370	0.050548	-0.683838	0.135010	-0.580811	0.047871	0.027007	0.086112	0.285095	-0.164634	-0.203243	-0.922122	18.029650	-24.803801	-149.635701
44123		4.752379	2.781543	8.207374	-0.532637	-0.437848	0.046707	-0.046599	0.065202	0.059351	-0.675293	0.129883	-0.586182	0.047542	0.027849	0.082052	0.285401	-0.164468	-0.202882	-0.922136	17.981879	-24.779663	-149.586794
44124		4.530596	2.814162	8.520783	-0.274265	-0.220252	0.233497	-0.045859	0.074873	0.054565	-0.684082	0.141602	-0.584717	0.045330	0.028174	0.085184	0.285753	-0.164597	-0.202542	-0.922079	17.927778	-24.790166	-149.534421
44125		4.388412	2.639988	8.502905	-0.269686	-0.040490	0.109646	-0.043682	0.059166	0.065200	-0.683838	0.141113	-0.577637	0.043901	0.026433	0.085010	0.286082	-0.164461	-0.202199	-0.922077	17.880711	-24.770354	-149.483217
44126		4.465851	2.683023	8.597860	-0.279520	-0.069740	0.236325	-0.038268	0.057128	0.061828	-0.680664	0.147217	-0.583008	0.044675	0.026860	0.085961	0.286455	-0.164664	-0.201913	-0.921987	17.830613	-24.791321	-149.430015
44127		4.106309	2.938561	8.742733	0.181763	-0.036146	0.281764	-0.035456	0.046277	0.065918	-0.680664	0.134766	-0.575195	0.041074	0.029415	0.087413	0.286780	-0.164578	-0.201625	-0.921965	17.789115	-24.778670	-149.380893
44128		4.713127	2.687992	8.411833	-0.494137	-0.286152	0.180897	-0.046470	0.020548	0.076199	-0.683350	0.141846	-0.572754	0.047130	0.026917	0.084107	0.287174	-0.164971	-0.201341	-0.921834	17.733696	-24.821446	-149.326186
44129		4.634478	2.770704	8.448667	-0.372166	-0.300563	0.202616	-0.028810	0.013769	0.073932	-0.678467	0.145996	-0.572510	0.046340	0.027736	0.084479	0.287509	-0.165034	-0.201124	-0.921765	17.696560	-24.827942	-149.278488
44130		4.722039	2.568810	8.531023	-0.533749	-0.151838	0.255423	-0.023322	-0.013019	0.078045	-0.676758	0.150879	-0.564209	0.047205	0.025716	0.085310	0.287896	-0.165549	-0.200993	-0.921581	17.656638	-24.889120	-149.229127
44131		5.157039	2.474882	8.333883	-0.959229	-0.376468	0.242751	-0.017008	-0.043438	0.073066	-0.679199	0.148438	-0.561035	0.051543	0.024775	0.083348	0.288179	-0.165858	-0.200913	-0.921454	17.631001	-24.926728	-149.192855
44132		5.117958	2.266022	8.428255	-1.021044	-0.154230	0.251979	-0.009741	-0.059115	0.067321	-0.678223	0.153564	-0.569092	0.051147	0.022682	0.084297	0.288481	-0.166555	-0.200920	-0.921232	17.605097	-25.011230	-149.158670
44133		4.664428	2.469511	8.572864	-0.509491	-0.026818	0.241618	-0.006270	-0.091710	0.056286	-0.682373	0.149658	-0.555176	0.046598	0.024711	0.085749	0.288647	-0.167055	-0.200973	-0.921078	17.593677	-25.072350	-149.141664
44134		4.633138	2.439658	8.592967	-0.481500	0.025863	0.238405	-0.021188	-0.109058	0.058402	-0.683594	0.156982	-0.554932	0.046277	0.024419	0.085952	0.288848	-0.167991	-0.201005	-0.920838	17.567222	-25.182564	-149.122235
44135		4.731357	2.664288	8.466958	-0.433875	-0.244022	0.233492	-0.042751	-0.131653	0.058087	-0.674561	0.168457	-0.555420	0.047250	0.026675	0.084695	0.288952	-0.168729	-0.200945	-0.920684	17.537587	-25.265883	-149.111682
44136		3.994622	2.647294	8.842505	0.222240	0.291944	0.238204	-0.054738	-0.131361	0.049345	-0.672607	0.161621	-0.551514	0.039882	0.026507	0.088444	0.289059	-0.169805	-0.200862	-0.920470	17.495923	-25.386486	-149.101852
44137		4.880426	2.833288	8.347403	-0.432875	-0.487887	0.242151	-0.075903	-0.163744	0.066408	-0.673340	0.174805	-0.547852	0.048726	0.028381	0.083503	0.289141	-0.170748	-0.200689	-0.920308	17.447640	-25.488842	-149.092218
44138		4.416581	2.728287	8.528091	-0.075123	-0.104486	0.170372	-0.086636	-0.164098	0.065630	-0.670166	0.172119	-0.542725	0.044087	0.027334	0.085305	0.289261	-0.172032	-0.200491	-0.920074	17.386140	-25.629648	-149.078631
44139		4.613648	2.504283	8.551852	-0.336438	-0.014277	0.216167	-0.108915	-0.188296	0.059946	-0.669678	0.173340	-0.542480	0.046048	0.025103	0.085548	0.289259	-0.173129	-0.200207	-0.919931	17.322496	-25.744388	-149.077314
44140		4.656705	2.410938	8.454209	-0.416305	-0.005536	0.127020	-0.127271	-0.204595	0.052425	-0.667480	0.177246	-0.538574	0.046474	0.024175	0.084574	0.289241	-0.174641	-0.199892	-0.919719	17.244416	-25.904673	-149.079142
44141		4.609709	2.452765	8.563916	-0.308337	0.038336	0.212757	-0.117620	-0.210142	0.050760	-0.660645	0.171875	-0.535156	0.046001	0.024590	0.085673	0.289167	-0.175842	-0.199607	-0.919576	17.179874	-26.029887	-149.087207
44142		4.684134	2.330015	8.506110	-0.421333	0.075833	0.164319	-0.087599	-0.223642	0.064741	-0.656006	0.180908	-0.537842	0.046739	0.023353	0.085103	0.289219	-0.177394	-0.199489	-0.919287	17.122602	-26.202377	-149.084761
44143		4.809896	2.463462	8.484100	-0.418472	-0.086227	0.237243	-0.059038	-0.228504	0.068737	-0.659668	0.175293	-0.535645	0.047994	0.024676	0.084889	0.289260	-0.178613	-0.199483	-0.919039	17.088209	-26.340767	-149.085050
44144		4.581234	2.530793	8.525749	-0.164226	-0.002000	0.190012	-0.052174	-0.214441	0.067836	-0.656006	0.186768	-0.543213	0.045712	0.025346	0.085300	0.289365	-0.180071	-0.199509	-0.918715	17.049426	-26.508482	-149.078706
44145		5.086585	2.356137	8.281952	-0.687394	-0.210429	0.162212	-0.064184	-0.220508	0.075150	-0.653809	0.172363	-0.542236	0.050766	0.023607	0.082868	0.289438	-0.181267	-0.199462	-0.918468	17.009549	-26.643646	-149.073354
44146		4.976258	2.390942	8.343523	-0.539326	-0.148152	0.176370	-0.067103	-0.209355	0.073545	-0.656250	0.187988	-0.543213	0.049666	0.023956	0.083479	0.289560	-0.182727	-0.199407	-0.918152	16.960058	-26.809323	-149.062302
44147		4.988727	2.503325	8.330287	-0.460950	-0.238671	0.201215	-0.066980	-0.212262	0.079769	-0.650146	0.196533	-0.552734	0.049789	0.025081	0.083347	0.289658	-0.183894	-0.199330	-0.917905	16.916440	-26.940807	-149.052304
44148		5.622070	2.420279	8.057697	-1.024972	-0.586673	0.237043	-0.077769	-0.239751	0.097439	-0.649658	0.195068	-0.555420	0.056112	0.024261	0.080635	0.289848	-0.185531	-0.199246	-0.917533	16.856564	-27.127008	-149.031935
44149		4.956973	2.446401	8.413075	-0.395055	-0.127323	0.245342	-0.081971	-0.235100	0.096941	-0.649414	0.194336	-0.554932	0.049459	0.024522	0.084179	0.289988	-0.186842	-0.199117	-0.917251	16.801254	-27.273925	-149.015287
44150		4.892557	2.574031	8.473134	-0.220737	-0.156088	0.300847	-0.081898	-0.271146	0.099951	-0.648682	0.200439	-0.558350	0.048798	0.025799	0.084787	0.290152	-0.188631	-0.199058	-0.916846	16.740723	-27.477853	-148.998800
44151		4.991993	2.223102	8.468504	-0.479409	0.068714	0.254243	-0.092481	-0.298271	0.111787	-0.657715	0.189941	-0.562744	0.049781	0.022298	0.084749	0.290285	-0.190261	-0.198957	-0.916488	16.680274	-27.661928	-148.984293
44152		4.456651	2.382451	8.663856	0.108355	0.297512	0.212275	-0.090177	-0.313825	0.106088	-0.653809	0.197998	-0.562744	0.044418	0.023887	0.086698	0.290425	-0.192261	-0.198914	-0.916036	16.616557	-27.889991	-148.971409
44153		4.635109	2.449565	8.615733	0.037826	0.153775	0.271471	-0.091209	-0.355010	0.113557	-0.657959	0.205322	-0.561523	0.046184	0.024561	0.086228	0.290509	-0.194150	-0.198898	-0.915614	16.560906	-28.105560	-148.965803
44154		5.232260	2.419764	8.406756	-0.437119	-0.179708	0.369740	-0.094733	-0.388471	0.120868	-0.660156	0.198242	-0.573730	0.052145	0.024269	0.084157	0.290635	-0.196506	-0.198925	-0.915066	16.496380	-28.376328	-148.956959
44155		4.945327	2.346770	8.444468	-0.214641	0.038082	0.248373	-0.096297	-0.417750	0.129577	-0.663818	0.201172	-0.563721	0.049262	0.023540	0.084536	0.290722	-0.198704	-0.198960	-0.914556	16.438246	-28.629037	-148.952375
44156		5.313797	2.286981	8.341164	-0.503335	-0.114375	0.325118	-0.097253	-0.461987	0.132830	-0.675049	0.208496	-0.572021	0.052930	0.022946	0.083523	0.290823	-0.201407	-0.199067	-0.913909	16.374838	-28.941875	-148.948949
44157		5.067425	2.144620	8.474881	-0.323961	0.187221	0.284914	-0.098315	-0.497757	0.138744	-0.672119	0.205322	-0.576660	0.050448	0.021523	0.084864	0.290867	-0.203981	-0.199198	-0.913295	16.319555	-29.240115	-148.952720
44158		4.925915	2.219631	8.477109	-0.115451	0.219130	0.236749	-0.090015	-0.532151	0.131385	-0.681396	0.205566	-0.574219	0.049019	0.022267	0.084892	0.290893	-0.206988	-0.199438	-0.912558	16.266643	-29.591073	-148.962390
44159		5.085755	2.221554	8.496808	-0.174797	0.180558	0.332877	-0.079261	-0.588625	0.134132	-0.687012	0.215088	-0.578369	0.050592	0.022283	0.085108	0.290841	-0.209942	-0.199789	-0.911823	16.231801	-29.938636	-148.985292
44160		4.538666	2.235949	8.707222	0.359282	0.546481	0.236521	-0.079900	-0.626098	0.139203	-0.689697	0.216064	-0.572998	0.045098	0.022426	0.087205	0.290813	-0.213361	-0.200197	-0.910948	16.190712	-30.342060	-149.006806
44161		5.037154	2.239970	8.392727	-0.030991	0.199794	0.226582	-0.067464	-0.708483	0.159951	-0.693604	0.213135	-0.569336	0.050056	0.022468	0.084097	0.290764	-0.216865	-0.200744	-0.910015	16.165628	-30.759797	-149.035101
44162		5.149746	2.172356	8.503897	-0.050866	0.294469	0.359108	-0.060204	-0.780054	0.170539	-0.694580	0.222412	-0.564453	0.051147	0.021793	0.085232	0.290738	-0.220976	-0.201425	-0.908884	16.140306	-31.252194	-149.064771
44163		5.084449	2.138136	8.439125	0.031891	0.359174	0.262599	-0.046400	-0.865266	0.185731	-0.713623	0.220215	-0.555908	0.050459	0.021448	0.084605	0.290662	-0.225181	-0.202261	-0.907689	16.134248	-31.760416	-149.105633
44164		5.872804	1.924312	8.034027	-0.706064	0.024474	0.298614	-0.033501	-0.976990	0.208171	-0.711426	0.218994	-0.561279	0.058315	0.019317	0.080623	0.290624	-0.230170	-0.203296	-0.906217	16.131351	-32.366597	-149.147851
44165		5.326204	1.924450	8.418103	-0.105259	0.509514	0.319674	-0.023157	-1.049591	0.217659	-0.724121	0.213623	-0.543945	0.052798	0.019312	0.084457	0.290518	-0.235200	-0.204459	-0.904697	16.147150	-32.981420	-149.203247
44166		5.137543	2.009513	8.349848	0.163861	0.555573	0.178098	-0.002527	-1.158554	0.222704	-0.739258	0.229492	-0.540771	0.050868	0.020153	0.083794	0.290381	-0.240963	-0.205867	-0.902903	16.176895	-33.689527	-149.271246
44167		5.605491	1.847187	8.207164	-0.214241	0.474147	0.282810	0.026341	-1.257863	0.236293	-0.744629	0.227051	-0.540771	0.055515	0.018527	0.082424	0.290184	-0.246864	-0.207519	-0.900992	16.238727	-34.421931	-149.356234
44168		4.912248	1.956908	8.523411	0.563005	0.924914	0.158985	0.042995	-1.327961	0.237503	-0.750977	0.216553	-0.524658	0.048532	0.019609	0.085562	0.289970	-0.253314	-0.209340	-0.898847	16.310707	-35.224818	-149.449997
44169		5.455911	2.127505	8.242000	0.309148	0.507259	0.280334	0.055208	-1.447316	0.250441	-0.770020	0.220703	-0.525635	0.053934	0.021320	0.082818	0.289648	-0.260017	-0.211359	-0.896561	16.409702	-36.063538	-149.567079
44170		5.682479	1.862944	8.245030	0.116679	0.704922	0.347479	0.058618	-1.556545	0.262252	-0.773193	0.218994	-0.504150	0.056156	0.018679	0.082895	0.289293	-0.267459	-0.213523	-0.893971	16.513308	-36.994735	-149.695014
44171		5.633176	1.851632	8.306509	0.301232	0.865348	0.351818	0.073500	-1.696254	0.271330	-0.784912	0.218506	-0.496094	0.055599	0.018561	0.083546	0.288787	-0.275238	-0.215930	-0.891191	16.652420	-37.973259	-149.855856
44172		5.737105	2.023063	8.270904	0.478144	0.787780	0.412907	0.077994	-1.827640	0.282874	-0.789795	0.229004	-0.477783	0.056583	0.020279	0.083236	0.288217	-0.283834	-0.218507	-0.888045	16.802489	-39.055228	-150.034884
44173		5.770811	2.240472	8.168003	0.713650	0.674924	0.388778	0.085284	-1.991448	0.297916	-0.796875	0.223633	-0.468994	0.056858	0.022455	0.082259	0.287475	-0.292888	-0.221317	-0.884643	16.989202	-40.199365	-150.252415
44174		5.737902	2.129914	8.108494	0.817866	0.863379	0.276382	0.079734	-2.159464	0.311565	-0.818359	0.222656	-0.453857	0.056466	0.021355	0.081706	0.286610	-0.302913	-0.224290	-0.880791	17.190408	-41.465859	-150.499218
44175		5.484201	2.345575	8.639794	1.523687	1.237716	0.500681	0.087366	-2.340499	0.325060	-0.827637	0.214111	-0.442139	0.053788	0.023506	0.087042	0.285534	-0.313463	-0.227516	-0.876612	17.439110	-42.804361	-150.796653
44176		5.722750	2.554267	8.368896	1.602627	0.991799	0.471013	0.048761	-2.555325	0.368527	-0.835205	0.218262	-0.413330	0.056105	0.025626	0.084417	0.284341	-0.325231	-0.230763	-0.871850	17.684082	-44.293734	-151.119668
44177		5.688027	2.745986	8.243911	1.919997	0.943485	0.349630	-0.027865	-2.769319	0.432768	-0.853027	0.221924	-0.399414	0.055672	0.027593	0.083212	0.282963	-0.337835	-0.233847	-0.866669	17.916214	-45.883178	-151.471272
44178		5.728760	3.199722	8.048102	2.354571	0.639121	0.280288	-0.127732	-3.039331	0.518426	-0.859863	0.229736	-0.370850	0.055973	0.032195	0.081318	0.281451	-0.351978	-0.236669	-0.860747	18.103715	-47.658979	-151.835846
44179		6.157174	3.260460	7.403957	2.112327	0.230129	0.128912	-0.203205	-3.357386	0.664899	-0.870605	0.234619	-0.342529	0.060209	0.032882	0.075025	0.279944	-0.367472	-0.239308	-0.854006	18.256100	-49.608412	-152.195248
44180		6.083388	3.496744	7.252114	2.541912	0.156306	-0.048933	-0.222880	-3.653973	0.803459	-0.883789	0.234375	-0.305176	0.059355	0.035289	0.073575	0.278583	-0.384489	-0.241933	-0.846184	18.387375	-51.766407	-152.535222
44181		6.429793	3.538473	7.132312	2.652180	0.131747	0.069994	-0.223219	-3.983154	0.970634	-0.885498	0.247070	-0.275146	0.062688	0.035772	0.072543	0.277387	-0.402769	-0.244614	-0.837256	18.515498	-54.110290	-152.857210
44182		5.902211	3.497731	7.027523	3.207684	0.420545	-0.540427	-0.293798	-4.305820	1.145058	-0.901367	0.262207	-0.239746	0.057290	0.035413	0.071469	0.276286	-0.422684	-0.246972	-0.827048	18.572577	-56.681561	-153.134829
44183		6.928505	3.478540	7.211145	3.193710	0.493304	0.269030	-0.240448	-4.595905	1.323378	-0.906494	0.258545	-0.188965	0.067372	0.035323	0.073632	0.275498	-0.443558	-0.249452	-0.815556	18.627177	-59.422182	-153.362647
44184		6.760974	3.400884	6.620369	3.307619	0.410525	-0.327128	-0.285261	-4.859371	1.530375	-0.906494	0.280518	-0.154785	0.065712	0.034612	0.067767	0.274981	-0.465686	-0.251493	-0.802666	18.555501	-62.361578	-153.470348
44185		8.795399	2.243646	6.859363	2.316465	1.209025	1.259108	-0.267349	-5.123280	1.692836	-0.901123	0.297119	-0.110840	0.085965	0.023263	0.070782	0.274611	-0.488596	-0.253423	-0.788441	18.422369	-65.456156	-153.493797
44186		9.734799	2.027382	5.848051	1.747324	0.775287	1.562150	-0.227393	-5.321474	1.833486	-0.905518	0.309814	-0.066406	0.095555	0.021224	0.061015	0.274451	-0.512147	-0.255238	-0.772810	18.187071	-68.699144	-153.381867
44187		12.766975	0.651023	5.949610	0.541308	1.643179	4.179095	-0.253614	-5.421236	1.852090	-0.901123	0.323486	-0.011963	0.125927	0.007760	0.062916	0.273928	-0.535617	-0.256842	-0.756380	17.908011	-71.984330	-153.240991
44188		15.594862	1.180163	5.526206	0.637214	0.949809	6.732686	-0.315005	-5.375547	1.801067	-0.895264	0.344482	0.033447	0.154274	0.013287	0.059404	0.272901	-0.558592	-0.258066	-0.739528	17.558551	-75.249117	-153.066683
44189		17.489658	2.454687	6.380585	2.555810	0.810025	8.770970	-0.411310	-5.110537	1.682318	-0.883545	0.353027	0.081299	0.172976	0.026145	0.068190	0.271279	-0.580038	-0.258717	-0.723207	17.115890	-78.334577	-152.855223
44190		15.676515	1.808094	5.602384	2.724505	1.291068	6.657287	-0.391369	-4.802625	1.504280	-0.873047	0.367676	0.115479	0.155218	0.019367	0.059727	0.269303	-0.599799	-0.259349	-0.707428	16.734908	-81.233175	-152.697365
44191		15.133030	0.616970	5.985771	2.965542	2.806777	5.950978	-0.164857	-4.718973	1.333146	-0.862061	0.370117	0.158691	0.149816	0.007223	0.063399	0.267323	-0.618282	-0.261035	-0.691467	17.058918	-84.045401	-153.120217
44192		15.186559	2.113908	7.169960	5.508558	2.911081	5.923822	0.178723	-4.529952	1.143487	-0.852783	0.375000	0.198730	0.150066	0.021934	0.075132	0.265864	-0.635108	-0.264075	-0.675440	19.476845	-86.728331	-155.443585
44193		14.612409	3.471980	8.506264	8.033770	3.241527	5.115045	0.298892	-4.244347	1.022578	-0.840820	0.394287	0.220703	0.144095	0.035330	0.088188	0.264596	-0.650264	-0.267406	-0.660030	38.150659	-89.176595	-173.954601
44194		13.086146	3.648642	9.483326	9.373302	4.122884	3.210361	0.381770	-3.860986	0.960021	-0.817139	0.392334	0.266846	0.128821	0.036924	0.097404	0.263811	-0.663695	-0.270571	-0.645526	-178.204101	-88.429120	42.611480
44195		9.984146	4.605037	9.377090	10.273704	3.546727	-0.290744	0.247868	-3.525117	1.091610	-0.808350	0.405762	0.293945	0.097915	0.046471	0.095566	0.263340	-0.676131	-0.272342	-0.631925	-169.240966	-86.343947	33.781662
44196		5.983642	4.835593	8.012242	9.493845	2.400715	-4.571145	-0.192298	-3.298553	1.317502	-0.786865	0.414551	0.305664	0.058184	0.048820	0.081044	0.262338	-0.688483	-0.271554	-0.619216	-165.370214	-84.335601	29.787423
44197		4.323259	2.721072	7.252715	7.484253	3.332126	-6.410960	-0.407430	-3.179253	1.287842	-0.779053	0.419189	0.328857	0.041896	0.027632	0.073144	0.260563	-0.700527	-0.269979	-0.607025	-163.665753	-82.379731	27.835654
44198		4.606234	-0.541680	9.493677	6.961692	7.257685	-6.573276	-0.332499	-2.825588	1.175330	-0.753662	0.426514	0.351807	0.044745	-0.004993	0.095584	0.259137	-0.710991	-0.268479	-0.596036	-162.663145	-80.644231	26.628666
44199		22.672238	3.049446	18.099089	18.312449	11.962108	9.486557	0.280926	-0.979704	0.514781	-0.751221	0.442139	0.355469	0.225753	0.030821	0.182141	0.260346	-0.714247	-0.268741	-0.591480	-161.853799	-80.016563	25.969901
44200		12.142950	4.802589	15.065801	15.774988	7.859198	-0.492117	0.662094	1.135148	0.010507	-0.762207	0.433350	0.347656	0.122280	0.047535	0.150123	0.264300	-0.709909	-0.269140	-0.594759	-160.168616	-80.650915	24.645048
44201		8.883067	5.795484	13.625975	14.839245	5.920645	-3.263416	0.610369	2.384757	-0.331770	-0.774170	0.439941	0.315674	0.090544	0.057392	0.135363	0.268665	-0.701530	-0.268951	-0.602776	-157.765398	-81.991552	22.566879
44202		6.482475	5.159204	11.625831	12.530658	4.802200	-4.943971	0.411062	3.207696	-0.547592	-0.791992	0.432861	0.296387	0.066820	0.051173	0.115303	0.272774	-0.690283	-0.267727	-0.614350	-153.693365	-83.830710	18.701116
44203		4.673791	4.325530	10.075289	10.539957	4.176801	-6.136546	0.242671	3.651068	-0.693912	-0.806885	0.431641	0.265381	0.048717	0.042967	0.099928	0.276316	-0.677710	-0.265832	-0.627449	-145.659652	-85.838832	10.774548
44204		3.850515	3.657599	8.795174	8.991728	3.659952	-6.451187	0.094487	3.895413	-0.811461	-0.819580	0.426025	0.229736	0.040356	0.036373	0.087195	0.279249	-0.663885	-0.263404	-0.641790	-121.784581	-87.796782	-13.078769
44205		3.697487	2.962892	7.958849	7.787864	3.475308	-6.199846	-0.015263	4.062152	-0.912883	-0.832275	0.420654	0.197510	0.038716	0.029461	0.078812	0.281556	-0.649547	-0.260648	-0.656413	-49.272328	-88.216722	-85.633512
44206		3.619926	2.454004	7.426265	6.919103	3.361305	-5.927916	-0.073663	4.226823	-0.988724	-0.842041	0.398682	0.158447	0.037878	0.024383	0.073465	0.283547	-0.634023	-0.257562	-0.671773	-12.032926	-86.285912	-122.949815
44207		3.421420	2.255273	7.018506	6.357128	3.119531	-5.825683	-0.086853	4.367158	-1.027282	-0.861816	0.397705	0.125732	0.035851	0.022402	0.069404	0.285372	-0.618017	-0.254262	-0.687000	-1.808893	-83.865317	-133.260218
44208		3.230130	1.951391	6.671876	5.760013	2.994319	-5.738199	-0.084231	4.501416	-1.047066	-0.863281	0.391846	0.084229	0.033893	0.019367	0.065960	0.287192	-0.600819	-0.250667	-0.702641	2.689433	-81.226189	-137.843482
44209		2.950766	1.809041	6.350833	5.312307	2.788270	-5.774369	-0.066550	4.590235	-1.052340	-0.864014	0.378418	0.041748	0.031049	0.017951	0.062801	0.288967	-0.583324	-0.246925	-0.717815	5.025713	-78.563393	-140.255686
44210		2.885474	1.632411	6.220564	4.944026	2.716746	-5.587431	-0.031539	4.616152	-1.023933	-0.872070	0.375244	0.003662	0.030363	0.016181	0.061514	0.290846	-0.564973	-0.243002	-0.732915	6.456764	-75.814308	-141.739985
44211		3.061667	1.259049	6.198247	4.459968	2.823155	-5.175164	0.054634	4.605580	-0.989638	-0.874268	0.367920	-0.028320	0.032095	0.012417	0.061258	0.292889	-0.546679	-0.239225	-0.747081	7.365825	-73.128709	-142.651790
44212		3.691840	0.925168	6.390671	4.003483	2.950342	-4.282435	0.213051	4.599678	-0.972716	-0.873291	0.349609	-0.072266	0.038419	0.009000	0.063044	0.295283	-0.527430	-0.235811	-0.760933	8.113352	-70.379851	-143.308129
44213		4.481924	1.134853	6.709728	3.900255	2.711211	-3.192957	0.387875	4.636718	-0.971367	-0.869629	0.347656	-0.103027	0.046413	0.010997	0.066055	0.297995	-0.507943	-0.232928	-0.773911	8.751574	-67.672530	-143.754540
44214		5.113841	1.704383	7.088798	4.044060	2.244915	-2.203614	0.495923	4.702494	-0.973961	-0.870605	0.347900	-0.141846	0.052868	0.016615	0.069700	0.300895	-0.487250	-0.230170	-0.786811	9.343681	-64.858524	-144.088172
44215		5.685693	2.185729	7.597844	4.159845	1.904318	-1.217202	0.517495	4.767265	-0.977133	-0.855469	0.322998	-0.189697	0.058752	0.021379	0.074649	0.303709	-0.466468	-0.227338	-0.799053	9.831571	-62.074100	-144.303078
44216		6.322160	2.378298	8.194527	4.015292	1.753319	-0.140210	0.460169	4.841496	-0.976818	-0.850098	0.321289	-0.213379	0.065296	0.023281	0.080435	0.306301	-0.444663	-0.223951	-0.811357	10.230692	-59.176887	-144.454805
44217		7.030781	2.081584	8.560236	3.291269	1.729236	0.826533	0.434338	4.936802	-0.972885	-0.839355	0.309082	-0.246582	0.072492	0.020283	0.083875	0.308753	-0.422759	-0.220236	-0.823069	10.537880	-56.296140	-144.524875
44218		7.589668	1.677045	8.969016	2.492708	1.796216	1.649769	0.485377	5.024452	-0.961066	-0.833496	0.304688	-0.284912	0.078197	0.016184	0.087785	0.311257	-0.399594	-0.216350	-0.834647	10.839122	-53.294788	-144.548167
44219		8.340970	1.565025	9.377014	1.736232	1.547354	2.617296	0.608763	5.098473	-0.944797	-0.822998	0.281250	-0.317383	0.085836	0.014967	0.091649	0.313943	-0.376231	-0.212763	-0.845353	11.152938	-50.325793	-144.504830
44220		8.910055	1.730029	9.720219	1.121459	1.070287	3.394150	0.730014	5.161258	-0.934958	-0.811035	0.280029	-0.353760	0.091648	0.016527	0.094920	0.320855	-0.350390	-0.210517	-0.854378	11.451276	-47.207708	-143.850755
44221		9.215925	2.117867	10.064581	0.770610	0.510938	3.964649	0.807986	5.188757	-0.934924	-0.797119	0.264160	-0.384033	0.094826	0.020339	0.098292	0.323630	-0.325837	-0.207200	-0.863807	11.834953	-44.189412	-143.741217
44222		9.693896	2.372982	10.469216	0.187612	-0.031000	4.648381	0.825063	5.171826	-0.949169	-0.782959	0.256836	-0.420410	0.099714	0.022836	0.102233	0.326065	-0.300510	-0.203762	-0.872844	12.239302	-41.107640	-143.636280
44223		9.846623	2.551265	10.687639	-0.353902	-0.497872	4.927322	0.784433	5.119979	-0.989319	-0.767822	0.231445	-0.468262	0.101283	0.024603	0.104405	0.328035	-0.275791	-0.200247	-0.881041	12.622445	-38.122300	-143.533652
44224		9.505455	2.556385	10.865601	-0.736933	-0.647352	4.814042	0.725167	4.986451	-1.014550	-0.755127	0.228027	-0.493652	0.097852	0.024684	0.106330	0.329387	-0.250970	-0.196492	-0.888768	12.998703	-35.138346	-143.461210
44225		9.653327	2.435086	11.562294	-1.334728	-0.657389	5.370958	0.698411	4.735977	-1.046642	-0.734619	0.219238	-0.532471	0.099360	0.023437	0.113375	0.330173	-0.227686	-0.193043	-0.895477	13.373786	-32.360877	-143.417634
44226		11.121720	2.293570	12.899517	-2.730427	-1.040834	7.121253	0.717327	4.487801	-1.111699	-0.712646	0.200195	-0.567871	0.114199	0.021850	0.126534	0.331567	-0.204371	-0.190121	-0.901193	13.787029	-29.632324	-143.264126
44227		13.926755	2.439977	14.677019	-4.899658	-2.163422	9.848488	0.798715	4.390257	-1.228835	-0.686279	0.183594	-0.596436	0.142589	0.022952	0.143758	0.330939	-0.182056	-0.187639	-0.906712	14.282572	-27.022374	-143.345780
44228		16.990357	2.905551	16.175850	-7.361632	-3.918387	12.303298	0.885959	4.537133	-1.400454	-0.657227	0.170654	-0.633301	0.173711	0.027143	0.157969	0.330375	-0.157916	-0.185324	-0.911904	14.846664	-24.233846	-143.374516
44229		19.118537	2.946554	16.671951	-9.819630	-5.390016	13.133581	0.929633	4.837299	-1.622018	-0.629639	0.149658	-0.638916	0.195371	0.027131	0.162157	0.328094	-0.132781	-0.182784	-0.917231	15.450574	-21.316732	-143.560616
44230		20.565160	1.876702	15.550358	-12.830010	-6.417752	11.688361	0.940940	5.101601	-1.886581	-0.608643	0.132080	-0.668457	0.209690	0.016086	0.150269	0.324489	-0.105630	-0.179819	-0.922613	16.084147	-18.156188	-143.832370
44231		20.399009	1.603497	12.789819	-14.109400	-7.680881	8.188401	0.935038	5.233525	-2.170535	-0.575684	0.114258	-0.692383	0.207398	0.013215	0.122566	0.319551	-0.077988	-0.176707	-0.927674	16.721649	-14.929362	-144.192321
44232		18.165434	2.598663	10.109901	-12.693453	-8.499404	4.521565	0.663099	4.951765	-2.363605	-0.556152	0.106445	-0.712158	0.184371	0.023493	0.096637	0.313005	-0.051502	-0.172646	-0.932507	17.216186	-11.778518	-144.679597
44233		17.569274	0.915690	7.172006	-13.828314	-8.139283	0.356458	0.192140	4.306379	-2.507737	-0.533447	0.090332	-0.731445	0.177278	0.006874	0.067921	0.304992	-0.028952	-0.167388	-0.937082	17.441915	-8.995969	-145.325682
44234		21.320375	-0.173821	2.822525	-17.724624	-10.871711	-4.324172	-0.082569	3.702118	-2.437950	-0.522217	0.071045	-0.748535	0.213635	-0.004330	0.024275	0.296513	-0.009440	-0.161610	-0.941208	17.491567	-6.523459	-146.032129
44235		22.383934	1.971349	-1.112607	-17.342019	-14.234571	-8.159807	-0.323027	3.345940	-1.967033	-0.509521	0.066650	-0.756592	0.223790	0.017490	-0.014900	0.289899	0.007410	-0.155186	-0.944363	17.353205	-4.357634	-146.534567
44236		22.289584	-1.245508	-4.421571	-18.747045	-12.487058	-13.054012	-0.368436	2.858570	-1.282244	-0.489990	0.062012	-0.765869	0.222147	-0.013966	-0.047370	0.286015	0.021482	-0.149221	-0.946291	17.157352	-2.562072	-146.751818
44237		23.139578	-7.647319	-7.411644	-22.393207	-8.571756	-18.408563	0.469098	2.332737	-0.816763	-0.480957	0.059082	-0.781982	0.230195	-0.077237	-0.076987	0.283829	0.033791	-0.147999	-0.946782	17.426807	-1.147557	-146.800263
44238		21.871924	-8.808972	-9.564727	-21.389949	-7.489319	-21.380597	1.743662	1.684638	-0.623564	-0.461426	0.040039	-0.787598	0.217625	-0.087920	-0.098250	0.281826	0.044671	-0.153758	-0.946011	18.426820	-0.122992	-146.841286
44239		20.645779	-4.930908	-9.510851	-18.120179	-9.963177	-20.461824	2.378631	0.773742	-0.515686	-0.458740	0.010010	-0.790283	0.205960	-0.048698	-0.096488	0.279438	0.052069	-0.163785	-0.944657	19.788477	0.391836	-146.974262
44240		20.522624	-0.062600	-7.187708	-15.866035	-13.173399	-16.710176	1.913887	-0.118981	-0.398014	-0.465088	0.007080	-0.788330	0.205268	-0.000347	-0.071759	0.277014	0.054345	-0.172910	-0.943617	20.881555	0.387552	-147.207660
44241		19.719500	2.768095	-4.167552	-14.400825	-14.062237	-12.771747	0.691328	-0.856230	-0.321771	-0.459473	0.003906	-0.779053	0.197415	0.027505	-0.040735	0.274574	0.051532	-0.177261	-0.943680	21.275602	-0.004755	-147.555062
44242		18.734970	2.327300	-1.328438	-14.442383	-12.227598	-10.091721	-0.541717	-1.396146	-0.383403	-0.456055	0.008301	-0.774658	0.187481	0.022880	-0.012038	0.271767	0.044269	-0.176603	-0.944984	20.969014	-0.706057	-148.041384
44243		4.901464	0.907899	5.565513	-4.661636	-1.565817	-4.187787	-1.149131	-1.820023	-0.486789	-0.471191	0.020996	-0.761719	0.048528	0.009282	0.056045	0.268108	0.034527	-0.173523	-0.947004	20.322246	-1.584464	-148.669113
44244		-13.207535	8.171609	18.865396	12.621722	6.169871	10.180036	-0.900259	-2.477189	-0.562390	-0.485352	0.021484	-0.754639	-0.134163	0.082935	0.186629	0.263553	0.021741	-0.172581	-0.948832	19.839110	-2.849385	-149.451493
44245		-19.678278	5.974693	20.563496	17.489305	11.685272	10.269703	-0.588256	-2.999825	-0.226060	-0.500000	0.030029	-0.739990	-0.199767	0.060570	0.202476	0.259935	0.006919	-0.173692	-0.949851	19.545655	-4.424995	-150.152934
44246		-4.208483	2.423578	7.391151	4.193981	2.576676	-2.465721	-0.229124	-3.567916	-0.377893	-0.512939	0.035645	-0.717773	-0.043348	0.024401	0.073118	0.255093	-0.010222	-0.177286	-0.950470	19.500537	-6.308350	-151.038366
44247		5.935932	1.524888	1.777229	-4.536043	-3.401884	-6.886078	-0.139524	-4.185740	-0.875429	-0.535400	0.028076	-0.705566	0.059036	0.015003	0.019000	0.247167	-0.029521	-0.181959	-0.951277	19.584155	-8.401799	-152.322708
44248		8.718220	0.052948	3.824771	-7.692645	-2.519960	-4.803046	0.012355	-4.420709	-1.109733	-0.563232	0.027588	-0.678955	0.086310	0.000046	0.040162	0.237886	-0.049735	-0.187688	-0.951688	19.838554	-10.600601	-153.790566
44249		5.957044	-0.595972	11.878497	-5.239279	2.615934	2.129499	0.061786	-4.562672	-0.772978	-0.577148	0.028564	-0.655273	0.056817	-0.006220	0.120100	0.229888	-0.070642	-0.193544	-0.951158	20.145480	-12.907086	-155.127423
44250		10.571293	-6.395035	13.285922	-11.450210	6.443347	2.697178	0.104251	-4.288388	0.003086	-0.596680	0.029297	-0.630859	0.102834	-0.064019	0.135052	0.225822	-0.091157	-0.199008	-0.949258	20.421783	-15.244865	-155.998693
44251		12.931317	-4.481552	14.779422	-11.974600	4.967729	5.602243	0.279895	-3.920371	0.878916	-0.613281	0.037598	-0.614014	0.126580	-0.044464	0.150231	0.226184	-0.110314	-0.204315	-0.946006	20.674174	-17.526111	-156.327856
44252		17.836616	2.833228	16.899634	-11.927014	-1.604320	11.794831	0.249686	-3.141725	1.376741	-0.623047	0.036133	-0.603271	0.175482	0.029334	0.171804	0.229688	-0.126594	-0.208295	-0.942248	20.780077	-19.527014	-156.215034
44253		14.590913	9.737867	12.091630	-5.912818	-7.880705	9.077530	0.030997	-2.154778	1.031691	-0.635986	0.049561	-0.593750	0.144090	0.098106	0.122490	0.232317	-0.137786	-0.210240	-0.939597	20.754249	-20.892259	-156.091428
44254		11.502990	8.386716	10.662632	-3.804071	-6.148139	6.437500	-0.291734	-1.794380	0.581668	-0.644287	0.066162	-0.595947	0.113823	0.084356	0.107528	0.233063	-0.147527	-0.210594	-0.937853	20.604197	-22.016931	-156.138884
44255		10.623250	2.267130	10.644291	-5.872382	-0.839552	4.190889	-0.397212	-1.405386	0.417950	-0.651855	0.067383	-0.581299	0.105433	0.023105	0.107140	0.233252	-0.155028	-0.210047	-0.936718	20.399107	-22.856380	-156.200190
44256		10.792370	1.503440	11.277820	-6.083177	0.052968	4.641183	-0.307392	-1.009194	0.387623	-0.662354	0.069580	-0.585693	0.107323	0.015417	0.113297	0.233882	-0.160913	-0.209545	-0.935680	20.217631	-23.524615	-156.184018
44257		10.879513	2.654895	9.156432	-5.900297	-1.889920	3.258921	-0.312469	-0.234564	0.176494	-0.658936	0.069580	-0.585938	0.108664	0.026788	0.091650	0.234219	-0.162573	-0.208207	-0.935608	20.015926	-23.687036	-156.129673
44258		4.882952	4.805661	8.730614	0.173838	-1.610928	1.166191	-0.286000	-0.188900	0.153232	-0.670166	0.072998	-0.581299	0.048710	0.048219	0.087283	0.234629	-0.164378	-0.207026	-0.935451	19.828559	-23.871273	-156.071038
44259		4.749104	3.621533	8.532766	-0.322932	-0.720254	0.572611	-0.281442	-0.157231	0.141487	-0.676514	0.083008	-0.581299	0.047398	0.036369	0.085314	0.234906	-0.165603	-0.205770	-0.935443	19.645540	-23.984988	-156.019658
44260		4.681434	3.227546	8.743630	-0.383570	-0.296771	0.605981	-0.266844	-0.116750	0.154911	-0.680176	0.077881	-0.580322	0.046738	0.032428	0.087420	0.235409	-0.167046	-0.204596	-0.935318	19.462550	-24.130060	-155.944064
44261		4.725668	3.475275	8.469660	-0.328601	-0.659781	0.463560	-0.235311	-0.060614	0.160094	-0.690430	0.085938	-0.588135	0.047203	0.034890	0.084670	0.235908	-0.167784	-0.203425	-0.935315	19.292643	-24.194899	-155.860648
44262		5.187302	3.618814	7.926329	-0.728615	-1.216515	0.228216	-0.237865	-0.013224	0.197490	-0.684814	0.098633	-0.580322	0.051832	0.036334	0.079224	0.236736	-0.168750	-0.202229	-0.935191	19.106609	-24.291344	-155.737715
44263		4.651201	3.496363	8.132099	-0.281887	-0.848271	0.146738	-0.240711	0.038548	0.213894	-0.684814	0.100098	-0.583984	0.046490	0.035111	0.081270	0.237581	-0.169086	-0.200869	-0.935209	18.911667	-24.312120	-155.601461
44264		4.688825	3.257847	8.150010	-0.406602	-0.687856	0.106119	-0.270001	0.071595	0.242423	-0.691650	0.108398	-0.575195	0.046878	0.032745	0.081439	0.238673	-0.169738	-0.199386	-0.935131	18.689002	-24.370144	-155.434229
44265		4.115167	2.870480	8.685327	0.002444	0.052167	0.217584	-0.257646	0.125585	0.250536	-0.691895	0.116211	-0.574951	0.041170	0.028868	0.086790	0.239761	-0.169723	-0.197811	-0.935190	18.467916	-24.349509	-155.258451
44266		4.398361	2.742657	8.775814	-0.258622	0.058170	0.376144	-0.247151	0.127436	0.239938	-0.692871	0.116699	-0.570313	0.044006	0.027588	0.087696	0.240911	-0.170081	-0.196368	-0.935133	18.254097	-24.375205	-155.081549
44267		4.614591	2.018785	8.827411	-0.791005	0.551351	0.304792	-0.207866	0.109898	0.199351	-0.700439	0.118408	-0.566650	0.046174	0.020326	0.088228	0.241784	-0.170030	-0.195086	-0.935185	18.075462	-24.352914	-154.939590
44268		4.859462	1.918146	8.680492	-1.062556	0.451237	0.252695	-0.144577	0.066234	0.160405	-0.691162	0.122070	-0.563721	0.048608	0.019283	0.086775	0.242587	-0.170469	-0.194258	-0.935070	17.944324	-24.396546	-154.822183
44269		4.975705	2.154352	8.678467	-1.028429	0.198204	0.366590	-0.092996	0.023672	0.126365	-0.690674	0.123047	-0.558838	0.049754	0.021615	0.086769	0.243132	-0.170611	-0.193679	-0.935022	17.856374	-24.407920	-154.740659
44270		5.105917	2.076027	8.645521	-1.168001	0.190638	0.371847	-0.040150	-0.025744	0.084691	-0.696533	0.141846	-0.562744	0.051039	0.020799	0.086458	0.243579	-0.171281	-0.193510	-0.934818	17.810312	-24.488087	-154.686113
44271		4.500755	2.328512	8.780384	-0.499729	0.282142	0.308803	0.013678	-0.077712	0.053335	-0.693604	0.141602	-0.557617	0.044967	0.023291	0.087823	0.243775	-0.171698	-0.193616	-0.934669	17.809551	-24.541952	-154.667798
44272		4.918733	2.559574	8.501981	-0.767493	-0.181803	0.306943	0.027905	-0.130314	0.044206	-0.687744	0.147461	-0.543701	0.049126	0.025595	0.085055	0.243990	-0.172734	-0.193923	-0.934358	17.820363	-24.671904	-154.657536
44273		4.727695	2.619263	8.571563	-0.550436	-0.115963	0.304964	0.020395	-0.156778	0.037488	-0.683350	0.145020	-0.538086	0.047205	0.026193	0.085755	0.244041	-0.173497	-0.194170	-0.934152	17.833733	-24.766220	-154.663982
44274		4.960040	2.946103	8.410811	-0.582566	-0.529291	0.356073	-0.006547	-0.194470	0.042484	-0.685059	0.152588	-0.530762	0.049512	0.029474	0.084155	0.244155	-0.174872	-0.194395	-0.933820	17.830342	-24.930727	-154.667192
44275		4.694766	2.923996	8.475253	-0.341871	-0.371248	0.295020	-0.031543	-0.218087	0.044357	-0.680420	0.159668	-0.538086	0.046849	0.029264	0.084799	0.244133	-0.175992	-0.194467	-0.933600	17.817233	-25.059789	-154.681365
44276		4.584065	2.782121	8.552422	-0.276111	-0.168440	0.276570	-0.056718	-0.256039	0.051345	-0.678955	0.161865	-0.531982	0.045724	0.027857	0.085575	0.244182	-0.177721	-0.194525	-0.933247	17.788099	-25.259273	-154.691210
44277		4.386042	2.989245	8.643948	0.043206	-0.210325	0.328547	-0.084639	-0.276390	0.045651	-0.683350	0.159668	-0.537842	0.043734	0.029939	0.086487	0.244061	-0.179180	-0.194420	-0.933022	17.749079	-25.420485	-154.715773
44278		4.350733	2.996805	8.610983	0.106676	-0.209003	0.286995	-0.129062	-0.310530	0.055972	-0.670898	0.172852	-0.531982	0.043365	0.030036	0.086158	0.244011	-0.181251	-0.194202	-0.932680	17.681962	-25.650066	-154.733270
44279		4.562641	2.647729	8.502660	-0.241703	-0.052476	0.190418	-0.110316	-0.337392	0.073909	-0.677490	0.176758	-0.526367	0.045473	0.026541	0.085089	0.243939	-0.183053	-0.194024	-0.932384	17.625924	-25.849634	-154.752189
44280		4.736064	2.724260	8.597289	-0.274172	-0.125182	0.369370	-0.057695	-0.376951	0.124914	-0.666016	0.180908	-0.534180	0.047181	0.027297	0.086054	0.244207	-0.185408	-0.194155	-0.931821	17.587079	-26.126960	-154.740425
44281		4.902524	2.705144	8.478410	-0.409140	-0.214825	0.337303	-0.063615	-0.393220	0.122657	-0.665771	0.173828	-0.531494	0.048842	0.027108	0.084872	0.244348	-0.187459	-0.194218	-0.931361	17.549449	-26.365576	-154.740157
44282		5.057736	2.494799	8.439423	-0.606564	-0.106907	0.318900	-0.081735	-0.408757	0.121179	-0.667480	0.193848	-0.536621	0.050390	0.025013	0.084487	0.244541	-0.189983	-0.194277	-0.930786	17.500362	-26.659305	-154.736467
44283		4.603630	2.449628	8.598194	-0.179331	0.187126	0.239958	-0.089030	-0.422928	0.114498	-0.673340	0.186523	-0.545654	0.045840	0.024561	0.086068	0.244588	-0.192195	-0.194263	-0.930322	17.452789	-26.912847	-154.746481
44284		4.967122	2.409955	8.505352	-0.464604	0.054624	0.316585	-0.100648	-0.464819	0.118945	-0.668213	0.186768	-0.550537	0.049459	0.024172	0.085156	0.244694	-0.194995	-0.194301	-0.929704	17.398069	-27.236493	-154.754504
44285		4.966665	2.349058	8.457348	-0.461043	0.096167	0.261564	-0.103654	-0.482510	0.111607	-0.670898	0.186035	-0.548828	0.049449	0.023562	0.084681	0.244653	-0.197497	-0.194292	-0.929188	17.348077	-27.522231	-154.777303
44286		5.551769	2.206036	8.176657	-1.024948	-0.119471	0.261111	-0.108209	-0.521363	0.108194	-0.676758	0.194824	-0.544678	0.055292	0.022135	0.081899	0.244641	-0.200554	-0.194370	-0.928520	17.296920	-27.874680	-154.802369
44287		5.284683	2.293653	8.217208	-0.701312	-0.053859	0.198119	-0.115963	-0.530760	0.103605	-0.679443	0.192627	-0.555664	0.052617	0.023012	0.082299	0.244500	-0.203285	-0.194369	-0.927963	17.246584	-28.185584	-154.838980
44288		5.003272	2.368226	8.357958	-0.335938	0.077436	0.206173	-0.107939	-0.572921	0.099512	-0.695801	0.192871	-0.563965	0.049781	0.023752	0.083710	0.244392	-0.206569	-0.194515	-0.927235	17.202848	-28.564824	-154.878937
44289		4.928364	2.416887	8.433869	-0.171857	0.121316	0.247914	-0.111059	-0.598412	0.096685	-0.695068	0.197266	-0.557861	0.049019	0.024239	0.084472	0.244154	-0.209598	-0.194623	-0.926596	17.163913	-28.911730	-154.932615
44290		4.599704	2.521398	8.669006	0.281322	0.292821	0.311597	-0.105868	-0.650423	0.103780	-0.700928	0.197021	-0.560791	0.045702	0.025284	0.086826	0.243986	-0.213234	-0.194864	-0.925759	17.127724	-29.333730	-154.984726
44291		5.017807	2.401273	8.534994	-0.087309	0.198289	0.372754	-0.104188	-0.718170	0.119494	-0.718018	0.201904	-0.558105	0.049857	0.024087	0.085517	0.243738	-0.216827	-0.195122	-0.924935	17.097695	-29.750209	-155.047173
44292		5.189903	2.220452	8.473068	-0.259098	0.284134	0.361298	-0.091452	-0.783309	0.133045	-0.717285	0.199463	-0.553711	0.051552	0.022278	0.084923	0.243582	-0.221077	-0.195552	-0.923879	17.074190	-30.249252	-155.106735
44293		4.926173	2.476899	8.399843	0.139312	0.172812	0.232693	-0.067624	-0.850724	0.153017	-0.727539	0.195068	-0.555664	0.048885	0.024835	0.084199	0.243391	-0.225264	-0.196097	-0.922802	17.068440	-30.744100	-155.173991
44294		5.093258	2.513842	8.441158	0.134473	0.144005	0.359539	-0.050260	-0.965681	0.194339	-0.734131	0.202881	-0.553711	0.050500	0.025209	0.084650	0.243373	-0.230351	-0.196862	-0.921387	17.068027	-31.352760	-155.230744
44295		4.868711	2.359467	8.561171	0.359757	0.449934	0.298308	-0.034904	-1.052164	0.229882	-0.744141	0.202148	-0.545654	0.048209	0.023665	0.085862	0.243364	-0.235491	-0.197706	-0.919908	17.077554	-31.970955	-155.289181
44296		5.096353	2.140626	8.401561	0.121844	0.521827	0.229872	-0.002379	-1.158572	0.245207	-0.759766	0.194824	-0.531738	0.050449	0.021469	0.084309	0.243429	-0.241436	-0.198852	-0.918101	17.109286	-32.692984	-155.352639
44297		5.076017	1.892566	8.389026	0.107814	0.779923	0.142324	0.033329	-1.254714	0.250416	-0.766113	0.197021	-0.530518	0.050209	0.018975	0.084210	0.243377	-0.247428	-0.200218	-0.916220	17.175024	-33.425569	-155.440266
44298		5.756129	1.814073	8.022080	-0.457265	0.497945	0.203246	0.068294	-1.396955	0.247468	-0.775635	0.200684	-0.525391	0.056977	0.018184	0.080626	0.243278	-0.254352	-0.201955	-0.913967	17.276519	-34.277483	-155.553968
44299		5.451930	1.686203	8.182146	-0.112152	0.860599	0.125076	0.094046	-1.531438	0.240071	-0.781982	0.207031	-0.513428	0.053870	0.016888	0.082244	0.242952	-0.261500	-0.203928	-0.911595	17.418611	-35.159456	-155.710895
44300		5.347460	1.810866	8.305680	0.225787	0.947815	0.182666	0.132293	-1.689050	0.234228	-0.795410	0.197998	-0.499512	0.052749	0.018116	0.083516	0.242547	-0.269628	-0.206299	-0.908797	17.605310	-36.167629	-155.902967
44301		5.030158	1.905596	8.526035	0.748066	1.186101	0.170183	0.152530	-1.840213	0.236943	-0.806396	0.200439	-0.485840	0.049492	0.019050	0.085733	0.241931	-0.278068	-0.208887	-0.905822	17.833291	-37.216807	-156.140227
