// General information: 
//  MT Manager version: 2019.2.0 
//  XDA version: 2019.2.0 build 3853 rev 94535 built on 2019-09-09
// Device information: 
//  DeviceId: 00B47791
//  ProductCode: MTW2-3A7G6
//  Firmware Version: 4.6.0
//  Hardware Version: 2.0.0
// Device settings: 
//  Filter Profile: human(46.1)
//  Option Flags: Orientation Smoother Disabled, AHS Disabled, ICC Disabled
// Coordinate system: ENU
PacketCounter	SampleTimeFine	Acc_X	Acc_Y	Acc_Z	FreeAcc_E	FreeAcc_N	FreeAcc_U	Gyr_X	Gyr_Y	Gyr_Z	Mag_X	Mag_Y	Mag_Z	VelInc_X	VelInc_Y	VelInc_Z	Quat_q0	Quat_q1	Quat_q2	Quat_q3	Roll	Pitch	Yaw
23745		9.315079	0.795214	3.120418	0.038477	0.015051	0.043192	0.009925	0.009113	-0.006856	-0.814697	-0.222656	-0.713379	0.093152	0.007947	0.031200	0.806791	0.118280	-0.570716	0.096855	14.062246	-70.701466	3.690897
23746		9.288077	0.794952	3.099284	0.049210	0.020714	0.010908	0.003906	0.008882	-0.013921	-0.821045	-0.225342	-0.720215	0.092883	0.007942	0.030989	0.806812	0.118279	-0.570691	0.096836	14.064803	-70.697603	3.686847
23747		9.282073	0.796177	3.134070	0.016214	0.011178	0.016493	0.000963	0.007130	-0.013815	-0.835693	-0.226074	-0.725586	0.092822	0.007955	0.031337	0.806828	0.118271	-0.570673	0.096813	14.066480	-70.694768	3.682689
23748		9.293058	0.797516	3.066598	0.080435	0.033192	0.005327	-0.001289	0.006870	-0.009148	-0.833740	-0.228271	-0.722412	0.092932	0.007971	0.030663	0.806842	0.118240	-0.570662	0.096801	14.059588	-70.692781	3.686034
23749		9.287123	0.798372	3.101263	0.047439	0.023657	0.010910	-0.000747	0.005960	-0.012962	-0.822266	-0.223633	-0.726318	0.092873	0.007978	0.031010	0.806855	0.118224	-0.570651	0.096776	14.059396	-70.690715	3.682817
23750		9.325362	0.815460	3.108428	0.049078	0.038870	0.050667	-0.000875	0.008957	-0.008535	-0.826660	-0.229980	-0.728516	0.093255	0.008151	0.031080	0.806875	0.118192	-0.570630	0.096769	14.050946	-70.687616	3.688040
23751		9.343283	0.845553	3.112151	0.043182	0.067109	0.071189	-0.001640	0.003286	-0.011976	-0.825439	-0.223389	-0.718262	0.093434	0.008450	0.031120	0.806881	0.118170	-0.570631	0.096743	14.049740	-70.687174	3.685356
23752		9.280545	0.801039	3.137354	0.013264	0.016081	0.016490	-0.005791	0.012304	-0.010430	-0.824951	-0.221191	-0.716797	0.092808	0.008006	0.031368	0.806914	0.118122	-0.570598	0.096717	14.040248	-70.681938	3.688835
23753		9.303972	0.831164	3.107485	0.039780	0.054832	0.031428	-0.004157	0.009297	-0.010164	-0.822998	-0.227783	-0.723145	0.093042	0.008308	0.031070	0.806938	0.118082	-0.570577	0.096695	14.032344	-70.678407	3.691720
23754		9.317579	0.804496	3.093458	0.065572	0.034428	0.037617	-0.010228	0.016241	-0.013927	-0.817139	-0.228271	-0.723389	0.093179	0.008040	0.030927	0.806986	0.118025	-0.570529	0.096644	14.024221	-70.670552	3.690955
23755		9.285372	0.818216	3.159503	-0.007368	0.027403	0.029531	-0.013180	0.008811	-0.014915	-0.823730	-0.218018	-0.726074	0.092856	0.008177	0.031590	0.807016	0.117962	-0.570511	0.096577	14.018872	-70.666631	3.685653
23756		9.299054	0.791532	3.145271	0.018448	0.007010	0.035727	-0.015295	0.011231	-0.013584	-0.815674	-0.220703	-0.715332	0.092993	0.007911	0.031447	0.807054	0.117883	-0.570485	0.096508	14.009139	-70.661455	3.683175
23757		9.272039	0.790889	3.124301	0.029198	0.012620	0.003445	-0.016122	0.007059	-0.014812	-0.828613	-0.229492	-0.718750	0.092722	0.007905	0.031239	0.807080	0.117809	-0.570476	0.096432	14.002635	-70.658522	3.677311
23758		9.280134	0.763935	3.143923	0.022567	-0.018300	0.015226	-0.016188	0.008557	-0.012600	-0.811523	-0.217773	-0.722168	0.092803	0.007636	0.031435	0.807109	0.117729	-0.570463	0.096366	13.992186	-70.655168	3.675650
23759		9.312057	0.766300	3.132732	0.043053	-0.011431	0.041939	-0.012429	0.008809	-0.012572	-0.825439	-0.221680	-0.715820	0.093122	0.007659	0.031323	0.807138	0.117662	-0.570446	0.096311	13.983561	-70.651573	3.674277
23760		9.291762	0.794656	3.183239	-0.016341	0.000448	0.041300	-0.011399	0.014171	-0.016895	-0.829102	-0.226563	-0.716553	0.092921	0.007941	0.031825	0.807183	0.117607	-0.570405	0.096240	13.980043	-70.644427	3.667481
23761		9.323515	0.797280	3.172484	0.004142	0.007325	0.068009	-0.003334	0.013479	-0.008939	-0.816895	-0.220947	-0.727295	0.093238	0.007969	0.031718	0.807217	0.117565	-0.570368	0.096229	13.969042	-70.638739	3.674148
23762		9.278750	0.781714	3.201410	-0.031072	-0.016469	0.033838	-0.002443	0.016157	-0.009927	-0.816406	-0.221436	-0.724121	0.092790	0.007813	0.032007	0.807259	0.117526	-0.570318	0.096215	13.959097	-70.631455	3.680000
23763		9.255050	0.823431	3.146725	-0.000726	0.039894	-0.002780	-0.004153	0.014985	-0.009075	-0.822998	-0.223145	-0.720947	0.092553	0.008231	0.031460	0.807298	0.117481	-0.570275	0.096201	13.947261	-70.624910	3.687056
23764		9.281119	0.825477	3.170093	-0.012657	0.036279	0.029497	-0.008392	0.014144	-0.007506	-0.822510	-0.226807	-0.725098	0.092814	0.008253	0.031694	0.807337	0.117412	-0.570238	0.096178	13.930795	-70.619021	3.696027
23765		9.254079	0.824602	3.149273	-0.001890	0.041862	-0.002789	-0.012429	0.008813	-0.012582	-0.826660	-0.218018	-0.724609	0.092543	0.008242	0.031488	0.807365	0.117345	-0.570221	0.096123	13.922192	-70.615424	3.694630
23766		9.266201	0.854154	3.187285	-0.040213	0.059639	0.023251	-0.014279	0.004955	-0.008395	-0.830322	-0.224854	-0.722656	0.092663	0.008540	0.031870	0.807382	0.117259	-0.570223	0.096074	13.907336	-70.614567	3.698283
23767		9.273852	0.812236	3.154222	0.004450	0.030845	0.016463	-0.016051	0.010957	-0.004235	-0.826660	-0.220947	-0.718262	0.092740	0.008123	0.031536	0.807414	0.117154	-0.570204	0.096044	13.882632	-70.610925	3.711754
23768		9.294152	0.813676	3.211866	-0.039945	0.016744	0.054305	-0.018230	0.020845	-0.011310	-0.826660	-0.215088	-0.725830	0.092945	0.008134	0.032108	0.807478	0.117054	-0.570144	0.095983	13.864045	-70.600994	3.717259
23769		9.325192	0.801279	3.149365	0.031815	0.025735	0.062437	-0.020895	0.024169	-0.006165	-0.830566	-0.221191	-0.725586	0.093256	0.008013	0.031482	0.807552	0.116928	-0.570073	0.095939	13.834491	-70.589734	3.732931
23770		9.318583	0.801110	3.185980	-0.001211	0.016252	0.067999	-0.019526	0.027442	-0.008754	-0.823242	-0.224121	-0.723145	0.093191	0.008010	0.031846	0.807636	0.116808	-0.569988	0.095885	13.808196	-70.576401	3.745103
23771		9.291098	0.799786	3.166622	0.009567	0.021819	0.035718	-0.022467	0.025689	-0.008657	-0.822998	-0.222412	-0.732178	0.092915	0.007997	0.031653	0.807716	0.116682	-0.569910	0.095827	13.781134	-70.563951	3.757180
23772		9.275658	0.813272	3.131556	0.033907	0.046271	0.010886	-0.021991	0.020605	-0.011357	-0.820313	-0.227295	-0.725586	0.092760	0.008131	0.031305	0.807783	0.116567	-0.569851	0.095754	13.760635	-70.553908	3.762295
23773		9.249217	0.840748	3.216948	-0.057895	0.047662	0.015741	-0.023153	0.018530	-0.014325	-0.818115	-0.214600	-0.725830	0.092496	0.008405	0.032160	0.807846	0.116457	-0.569799	0.095667	13.744913	-70.544667	3.761930
23774		9.248190	0.827066	3.165884	-0.007174	0.050730	-0.002833	-0.022405	0.012843	-0.013074	-0.810547	-0.217041	-0.724609	0.092484	0.008268	0.031652	0.807892	0.116348	-0.569770	0.095580	13.729817	-70.538708	3.760929
23775		9.225043	0.882621	3.163815	-0.028080	0.104964	-0.020938	-0.031635	0.011168	-0.012300	-0.817871	-0.220947	-0.727783	0.092253	0.008826	0.031632	0.807938	0.116202	-0.569753	0.095473	13.708892	-70.533839	3.760928
23776		9.247222	0.827883	3.168497	-0.008315	0.052705	-0.002844	-0.031356	0.010874	-0.020072	-0.824707	-0.227783	-0.722412	0.092475	0.008275	0.031679	0.807987	0.116077	-0.569732	0.095331	13.700368	-70.527947	3.747317
23777		9.250273	0.871041	3.135528	0.010705	0.104451	-0.007242	-0.033208	0.007011	-0.015893	-0.817627	-0.221436	-0.718750	0.092505	0.008708	0.031351	0.808024	0.115937	-0.569731	0.095202	13.685798	-70.524905	3.739620
23778		9.186890	0.797411	3.054809	0.083442	0.057409	-0.098965	-0.035739	0.001665	-0.016283	-0.814941	-0.219727	-0.727295	0.091870	0.007972	0.030546	0.808046	0.115793	-0.569752	0.095063	13.672841	-70.524879	3.729013
23779		9.130805	0.808817	2.904979	0.195411	0.111890	-0.199468	-0.023507	-0.013740	-0.010953	-0.820801	-0.230957	-0.726807	0.091306	0.008087	0.029055	0.808015	0.115688	-0.569832	0.094969	13.664002	-70.534060	3.721134
23780		9.086889	0.792467	2.931245	0.160271	0.087999	-0.233631	-0.019477	-0.014094	-0.006965	-0.825439	-0.221680	-0.718262	0.090867	0.007924	0.029318	0.807979	0.115590	-0.569914	0.094904	13.651719	-70.543873	3.719552
23781		9.145909	0.795677	2.940791	0.169360	0.090353	-0.174629	-0.025632	0.000037	-0.007421	-0.816650	-0.217773	-0.730469	0.091459	0.007957	0.029407	0.807987	0.115460	-0.569941	0.094827	13.630819	-70.545862	3.723173
23782		9.172470	0.811264	3.016698	0.106092	0.084717	-0.123808	-0.029530	0.020126	-0.011438	-0.817871	-0.220459	-0.729736	0.091728	0.008112	0.030157	0.808057	0.115314	-0.569888	0.094732	13.606398	-70.536163	3.727857
23783		9.303418	0.790718	3.024409	0.151184	0.067119	0.000493	-0.030420	0.040484	-0.017770	-0.812500	-0.220459	-0.722412	0.093041	0.007904	0.030224	0.808188	0.115175	-0.569749	0.094623	13.583649	-70.514232	3.730530
23784		9.375691	0.795415	3.129080	0.084018	0.044021	0.102876	-0.033639	0.050703	-0.019431	-0.819580	-0.221436	-0.726074	0.093766	0.007950	0.031266	0.808351	0.115022	-0.569568	0.094501	13.557970	-70.486300	3.734127
23785		9.520476	0.775714	3.230109	0.052831	0.000991	0.270566	-0.033661	0.073434	-0.015032	-0.820068	-0.219971	-0.732422	0.095217	0.007755	0.032265	0.808576	0.114847	-0.569299	0.094413	13.516678	-70.446380	3.754505
23786		9.561344	0.722014	3.296826	0.028720	-0.066238	0.326566	-0.039746	0.074738	-0.019938	-0.820801	-0.214355	-0.731201	0.095626	0.007217	0.032931	0.808811	0.114659	-0.569024	0.094286	13.479354	-70.405041	3.766748
23787		9.579236	0.709609	3.307317	0.035604	-0.078170	0.345869	-0.031959	0.068965	-0.017018	-0.813965	-0.217041	-0.723389	0.095804	0.007093	0.033039	0.809023	0.114498	-0.568770	0.094192	13.444049	-70.367337	3.781817
23788		9.577189	0.724230	3.366409	-0.016316	-0.079182	0.364406	-0.016715	0.059498	-0.012879	-0.818848	-0.213867	-0.731201	0.095782	0.007239	0.033635	0.809198	0.114388	-0.568551	0.094148	13.414498	-70.335497	3.799430
23789		9.489853	0.720210	3.339705	-0.015144	-0.075082	0.273133	-0.013847	0.057074	-0.011863	-0.823730	-0.210938	-0.733154	0.094908	0.007199	0.033369	0.809363	0.114291	-0.568339	0.094120	13.386115	-70.305101	3.818173
23790		9.299347	0.696151	3.329829	-0.058171	-0.097282	0.088696	-0.010582	0.062421	-0.009123	-0.815674	-0.214111	-0.737061	0.093004	0.006959	0.033269	0.809542	0.114191	-0.568108	0.094108	13.353005	-70.272141	3.842826
23791		9.135244	0.715072	3.501079	-0.266514	-0.130144	-0.007913	-0.016497	0.075968	-0.005661	-0.803955	-0.216553	-0.740479	0.091366	0.007151	0.034976	0.809759	0.114057	-0.567825	0.094107	13.306690	-70.232022	3.879016
23792		8.980328	0.748761	3.498918	-0.320123	-0.097723	-0.151563	-0.022368	0.066778	-0.006608	-0.808838	-0.225586	-0.727295	0.089815	0.007489	0.034958	0.809956	0.113901	-0.567580	0.094075	13.261756	-70.196625	3.909210
23793		8.912153	0.885909	3.547503	-0.420060	0.020618	-0.188800	-0.026525	0.058764	-0.008396	-0.816162	-0.218506	-0.734375	0.089132	0.008860	0.035448	0.810132	0.113742	-0.567370	0.094025	13.220497	-70.165723	3.933937
23794		8.987976	0.989209	3.480756	-0.358217	0.143440	-0.131313	-0.047495	0.061770	-0.016874	-0.808838	-0.215820	-0.739502	0.089891	0.009893	0.034777	0.810332	0.113523	-0.567152	0.093884	13.179717	-70.131973	3.945625
23795		9.112485	1.052877	3.493648	-0.338836	0.206559	-0.004832	-0.067866	0.079471	-0.028106	-0.809082	-0.217529	-0.740967	0.091140	0.010528	0.034897	0.810598	0.113243	-0.566866	0.093649	13.137914	-70.086935	3.945751
23796		9.155418	1.068950	3.634297	-0.445948	0.186101	0.083722	-0.093496	0.106525	-0.032435	-0.808350	-0.215820	-0.747314	0.091575	0.010692	0.036289	0.810960	0.112855	-0.566478	0.093335	13.078459	-70.025982	3.948398
23797		9.228879	0.973913	3.693102	-0.436272	0.084627	0.165399	-0.111964	0.114957	-0.040606	-0.818115	-0.212891	-0.745117	0.092312	0.009741	0.036873	0.811357	0.112415	-0.566061	0.092944	13.018182	-69.959520	3.941295
23798		9.243598	0.875488	3.741064	-0.436164	-0.018301	0.188091	-0.114147	0.101863	-0.040457	-0.809814	-0.211670	-0.739990	0.092457	0.008758	0.037359	0.811719	0.111966	-0.565697	0.092534	12.961014	-69.900156	3.928644
23799		9.265083	0.777861	3.753362	-0.403666	-0.110787	0.205263	-0.103701	0.082908	-0.042657	-0.808105	-0.212646	-0.741943	0.092668	0.007778	0.037491	0.812021	0.111580	-0.565404	0.092140	12.920119	-69.851332	3.905936
23800		9.287098	0.680908	3.764229	-0.371152	-0.203255	0.222460	-0.079556	0.077225	-0.040880	-0.816650	-0.212646	-0.745850	0.092887	0.006805	0.037604	0.812294	0.111286	-0.565124	0.091814	12.892231	-69.805782	3.883389
23801		9.307183	0.612723	3.722226	-0.300144	-0.253445	0.222238	-0.047679	0.080907	-0.023239	-0.797363	-0.210449	-0.741211	0.093088	0.006125	0.037183	0.812549	0.111073	-0.564824	0.091656	12.854725	-69.760564	3.891261
23802		9.204962	0.608819	3.607469	-0.222562	-0.224079	0.087619	-0.022202	0.105486	-0.020667	-0.801514	-0.213135	-0.741699	0.092069	0.006083	0.036025	0.812860	0.110942	-0.564413	0.091590	12.819406	-69.701770	3.911655
23803		9.082602	0.616611	3.649616	-0.293630	-0.228113	-0.011907	-0.002915	0.136705	-0.010202	-0.800781	-0.212646	-0.744629	0.090851	0.006162	0.036434	0.813242	0.110848	-0.563873	0.091642	12.769006	-69.627026	3.960636
23804		8.916079	0.580143	3.613647	-0.296549	-0.253070	-0.182554	0.021409	0.141781	-0.002203	-0.797607	-0.204590	-0.744629	0.089186	0.005797	0.036074	0.813621	0.110827	-0.563304	0.091795	12.719162	-69.550234	4.023473
23805		8.861403	0.648840	3.652862	-0.357274	-0.196417	-0.214634	0.040173	0.133179	-0.001830	-0.800293	-0.212891	-0.751709	0.088638	0.006480	0.036471	0.813965	0.110887	-0.562762	0.092001	12.682805	-69.478487	4.083866
23806		8.820347	0.705694	3.570906	-0.301749	-0.116853	-0.276274	0.037772	0.136287	-0.004544	-0.801514	-0.210693	-0.745361	0.088228	0.007048	0.035650	0.814321	0.110938	-0.562206	0.092185	12.648085	-69.404403	4.140083
23807		8.819164	0.750134	3.549768	-0.282670	-0.065147	-0.280791	0.033482	0.151109	-0.002034	-0.801514	-0.217041	-0.750732	0.088219	0.007495	0.035432	0.814718	0.110963	-0.561594	0.092381	12.602938	-69.322579	4.205832
23808		8.763843	0.819350	3.589897	-0.343354	-0.008505	-0.312916	0.016661	0.154213	-0.018461	-0.797363	-0.216309	-0.747803	0.087667	0.008182	0.035832	0.815141	0.110962	-0.560967	0.092462	12.571806	-69.236801	4.245952
23809		8.828308	0.853694	3.651869	-0.372137	0.010949	-0.228047	0.015048	0.135960	-0.020963	-0.797119	-0.215088	-0.753418	0.088309	0.008525	0.036459	0.815513	0.110972	-0.560414	0.092521	12.549707	-69.161064	4.275819
23810		8.958506	0.892608	3.689921	-0.358898	0.042427	-0.089701	0.016197	0.114380	-0.028548	-0.796875	-0.213135	-0.758057	0.089607	0.008910	0.036849	0.815828	0.111016	-0.559943	0.092538	12.546658	-69.096248	4.285781
23811		9.125714	0.976871	3.682610	-0.305069	0.130673	0.070854	0.016184	0.114418	-0.028590	-0.800293	-0.219482	-0.754639	0.091280	0.009753	0.036775	0.816143	0.111062	-0.559473	0.092557	12.543617	-69.031606	4.295966
23812		9.275490	1.016744	3.776639	-0.335742	0.147333	0.246987	0.022361	0.108284	-0.018545	-0.792969	-0.211670	-0.746826	0.092776	0.010155	0.037717	0.816433	0.111106	-0.559029	0.092628	12.531549	-68.971418	4.319267
23813		9.407619	1.041374	3.760535	-0.271247	0.180870	0.366855	0.032066	0.095442	-0.003904	-0.794922	-0.215576	-0.752686	0.094094	0.010406	0.037562	0.816673	0.111156	-0.558642	0.092781	12.507995	-68.920454	4.361192
23814		9.410875	1.043149	3.735168	-0.239376	0.192349	0.361294	0.042277	0.093148	0.009091	-0.795166	-0.221680	-0.754883	0.094126	0.010428	0.037310	0.816896	0.111211	-0.558266	0.093012	12.472349	-68.872259	4.421984
23815		9.371648	0.984491	3.736098	-0.229266	0.138599	0.320607	0.039390	0.110282	0.024682	-0.790527	-0.219727	-0.762939	0.093736	0.009849	0.037311	0.817161	0.111205	-0.557831	0.093311	12.407317	-68.816500	4.512911
23816		9.317028	0.951588	3.753722	-0.245445	0.106202	0.273512	0.018090	0.125895	0.031958	-0.795166	-0.213867	-0.762451	0.093192	0.009527	0.037479	0.817478	0.111084	-0.557344	0.093588	12.315409	-68.752568	4.619637
23817		9.197959	0.899590	3.741725	-0.252306	0.063729	0.154483	-0.004706	0.137345	0.035610	-0.795898	-0.211914	-0.757324	0.092004	0.009013	0.037354	0.817836	0.110854	-0.556824	0.093823	12.201960	-68.682882	4.735490
23818		9.043271	0.887010	3.741703	-0.292909	0.055513	0.009685	-0.033286	0.147133	0.029807	-0.788818	-0.210693	-0.759033	0.090459	0.008890	0.037349	0.818241	0.110515	-0.556274	0.093956	12.078096	-68.606756	4.844359
23819		9.001682	0.951924	3.714190	-0.288718	0.133024	-0.033599	-0.056035	0.153903	0.016630	-0.788086	-0.211426	-0.758789	0.090045	0.009537	0.037070	0.818682	0.110120	-0.555699	0.093980	11.958883	-68.525351	4.934929
23820		8.994092	0.962075	3.782215	-0.340603	0.132076	-0.015190	-0.084251	0.169216	0.004035	-0.787354	-0.210693	-0.760254	0.089973	0.009638	0.037742	0.819187	0.109634	-0.555067	0.093879	11.837564	-68.433611	5.009845
23821		8.949756	1.040731	3.810042	-0.387749	0.207628	-0.040063	-0.123373	0.175952	-0.008280	-0.785889	-0.210205	-0.766113	0.089531	0.010427	0.038015	0.819736	0.109022	-0.554419	0.093626	11.710180	-68.336786	5.067817
23822		8.935306	1.163676	3.828293	-0.426662	0.329509	-0.037258	-0.157418	0.175489	-0.029218	-0.788818	-0.207764	-0.765625	0.089388	0.011654	0.038195	0.820313	0.108326	-0.553776	0.093188	11.593714	-68.237533	5.092552
23823		8.930816	1.216885	3.865640	-0.458927	0.379287	-0.023461	-0.193629	0.177524	-0.048977	-0.775635	-0.210938	-0.767822	0.089345	0.012184	0.038565	0.820921	0.107538	-0.553131	0.092574	11.484241	-68.135073	5.087954
23824		8.899954	1.269399	3.881350	-0.479673	0.433464	-0.041944	-0.231505	0.196083	-0.076584	-0.784180	-0.209961	-0.769287	0.089042	0.012705	0.038712	0.821614	0.106659	-0.552410	0.091749	11.386890	-68.018795	5.046463
23825		8.893174	1.254024	3.849625	-0.428885	0.436400	-0.060442	-0.274065	0.208395	-0.096181	-0.782471	-0.195068	-0.781250	0.088978	0.012550	0.038386	0.822368	0.105656	-0.551647	0.090735	11.289072	-67.893683	4.979562
23826		8.850822	1.250152	3.882393	-0.450368	0.431376	-0.087260	-0.317011	0.212172	-0.123825	-0.780762	-0.200928	-0.780273	0.088557	0.012508	0.038710	0.823168	0.104546	-0.550870	0.089484	11.203684	-67.763124	4.871671
23827		8.817937	1.205535	3.881750	-0.426658	0.396461	-0.120523	-0.356713	0.226558	-0.143795	-0.769531	-0.211182	-0.783691	0.088232	0.012061	0.038696	0.824030	0.103325	-0.550040	0.088055	11.118967	-67.622599	4.739299
23828		8.796678	1.245297	3.941466	-0.472373	0.427316	-0.114148	-0.392379	0.239205	-0.162041	-0.770020	-0.196045	-0.774902	0.088024	0.012459	0.039285	0.824952	0.102000	-0.549159	0.086456	11.035170	-67.472601	4.583316
23829		8.822907	1.231073	4.029019	-0.509420	0.400638	-0.057067	-0.426503	0.243903	-0.185215	-0.773193	-0.199707	-0.789063	0.088289	0.012315	0.040156	0.825907	0.100596	-0.548260	0.084672	10.961037	-67.317937	4.395881
23830		8.855969	1.248555	4.032245	-0.475394	0.426622	-0.022999	-0.461137	0.252434	-0.208140	-0.770996	-0.192871	-0.793945	0.088623	0.012486	0.040182	0.826907	0.099106	-0.547324	0.082698	10.894813	-67.155760	4.177522
23831		8.825591	1.219130	4.055167	-0.470575	0.400209	-0.043347	-0.503407	0.256424	-0.230583	-0.767578	-0.196289	-0.795654	0.088322	0.012191	0.040408	0.827940	0.097502	-0.546374	0.080521	10.831922	-66.989321	3.929594
23832		8.804401	1.124782	3.970259	-0.350164	0.337341	-0.101402	-0.533232	0.261197	-0.258086	-0.765381	-0.195557	-0.789307	0.088110	0.011240	0.039558	0.829006	0.095844	-0.545395	0.078145	10.785650	-66.816900	3.644013
23833		8.755247	1.043609	3.914577	-0.269696	0.276904	-0.173295	-0.555205	0.268078	-0.290962	-0.755371	-0.196533	-0.801758	0.087620	0.010417	0.038999	0.830103	0.094183	-0.544377	0.075581	10.766003	-66.637581	3.316066
23834		8.722580	0.938853	3.842060	-0.162810	0.195046	-0.238679	-0.552444	0.261953	-0.314378	-0.754883	-0.183105	-0.803467	0.087291	0.009357	0.038280	0.831182	0.092601	-0.543363	0.072921	10.777914	-66.458778	2.955026
23835		8.657593	0.771081	3.879133	-0.154098	0.022732	-0.295765	-0.547261	0.257050	-0.336189	-0.747314	-0.194336	-0.807617	0.086639	0.007671	0.038659	0.832242	0.091098	-0.542354	0.070184	10.818440	-66.280760	2.565479
23836		8.623368	0.682088	3.855726	-0.098529	-0.061039	-0.342691	-0.524050	0.246303	-0.354747	-0.761719	-0.188232	-0.811279	0.086293	0.006769	0.038433	0.833262	0.089744	-0.541363	0.067423	10.895519	-66.106037	2.149603
23837		8.631722	0.601699	3.787277	0.010365	-0.128312	-0.368351	-0.499480	0.232233	-0.354817	-0.747070	-0.177002	-0.805664	0.086372	0.005958	0.037758	0.834221	0.088498	-0.540420	0.064725	10.986247	-65.939565	1.734032
23838		8.678698	0.562550	3.801271	0.051087	-0.174407	-0.323070	-0.470786	0.217262	-0.340209	-0.749268	-0.185303	-0.814209	0.086838	0.005567	0.037905	0.835115	0.087333	-0.539530	0.062153	11.075433	-65.782565	1.337095
23839		8.772110	0.543931	3.791434	0.126266	-0.195479	-0.243647	-0.439619	0.203205	-0.323705	-0.746826	-0.178711	-0.813477	0.087768	0.005380	0.037813	0.835943	0.086260	-0.538693	0.059732	11.162131	-65.635327	0.962555
23840		8.923547	0.584453	3.819810	0.179260	-0.166000	-0.091449	-0.419567	0.200734	-0.290511	-0.747803	-0.172119	-0.814209	0.089282	0.005795	0.038096	0.836742	0.085180	-0.537868	0.057499	11.217440	-65.492649	0.634325
23841		9.047146	0.555633	3.780017	0.294299	-0.189464	0.001871	-0.388254	0.195255	-0.259159	-0.739990	-0.164307	-0.816895	0.090515	0.005512	0.037701	0.837495	0.084149	-0.537068	0.055482	11.251072	-65.356774	0.349652
23842		9.144046	0.624139	3.888449	0.248601	-0.146484	0.139190	-0.359929	0.205202	-0.231921	-0.746582	-0.173096	-0.820801	0.091487	0.006205	0.038779	0.838253	0.083154	-0.536227	0.053652	11.263018	-65.218120	0.105188
23843		9.245676	0.594395	3.969928	0.247350	-0.192619	0.261926	-0.338568	0.206520	-0.204645	-0.738037	-0.168213	-0.827637	0.092504	0.005916	0.039594	0.838991	0.082181	-0.535384	0.052001	11.252884	-65.081963	-0.100510
23844		9.289836	0.591537	3.986815	0.275265	-0.198295	0.308109	-0.323633	0.220382	-0.186432	-0.735352	-0.166748	-0.828125	0.092948	0.005893	0.039756	0.839754	0.081213	-0.534482	0.050467	11.224819	-64.939829	-0.278011
23845		9.298311	0.516652	3.967702	0.332800	-0.267400	0.300961	-0.289133	0.218973	-0.174160	-0.737061	-0.169678	-0.827881	0.093031	0.005143	0.039568	0.840490	0.080362	-0.533581	0.049080	11.201384	-64.800138	-0.438201
23846		9.307382	0.442264	3.947711	0.390382	-0.336505	0.293831	-0.245783	0.214080	-0.159125	-0.729736	-0.173828	-0.824219	0.093120	0.004397	0.039372	0.841191	0.079650	-0.532693	0.047866	11.185157	-64.664625	-0.579807
23847		9.270434	0.400686	3.971901	0.381733	-0.381815	0.266298	-0.199496	0.194706	-0.137329	-0.736572	-0.166016	-0.832520	0.092746	0.003983	0.039625	0.841813	0.079083	-0.531884	0.046863	11.173590	-64.542705	-0.696635
23848		9.309512	0.373094	3.944243	0.447469	-0.404546	0.286785	-0.154761	0.181334	-0.119005	-0.727539	-0.166260	-0.828125	0.093133	0.003706	0.039355	0.842376	0.078657	-0.531126	0.046048	11.168882	-64.430184	-0.793127
23849		9.253291	0.343235	3.961039	0.431421	-0.437026	0.239869	-0.131240	0.169103	-0.101155	-0.724365	-0.170410	-0.845459	0.092568	0.003411	0.039530	0.842891	0.078287	-0.530421	0.045369	11.158952	-64.326683	-0.868616
23850		9.230714	0.316656	3.968372	0.436384	-0.463421	0.219716	-0.103093	0.163285	-0.064074	-0.728516	-0.164795	-0.844727	0.092341	0.003157	0.039607	0.843373	0.077936	-0.529746	0.044915	11.123055	-64.230213	-0.897935
23851		9.142871	0.312472	3.942170	0.437994	-0.459849	0.128495	-0.077468	0.157757	-0.043044	-0.722656	-0.171143	-0.851318	0.091460	0.003120	0.039348	0.843822	0.077641	-0.529099	0.044619	11.078631	-64.139537	-0.901005
23852		9.091990	0.324562	3.927376	0.441709	-0.441655	0.076889	-0.042534	0.145557	-0.013515	-0.723145	-0.157471	-0.842773	0.090949	0.003248	0.039207	0.844220	0.077415	-0.528503	0.044531	11.022879	-64.058533	-0.869820
23853		9.068883	0.348393	3.956945	0.414926	-0.419227	0.070404	-0.005481	0.136254	0.009799	-0.721924	-0.162842	-0.847656	0.090716	0.003489	0.039508	0.844572	0.077288	-0.527951	0.044640	10.963854	-63.985729	-0.810771
23854		9.038669	0.312380	3.993665	0.387416	-0.456015	0.055769	0.014615	0.137009	0.033220	-0.714844	-0.162354	-0.840332	0.090414	0.003136	0.039875	0.844914	0.077179	-0.527398	0.044895	10.889136	-63.914795	-0.722393
23855		9.016136	0.334117	4.021697	0.360635	-0.433591	0.049276	0.050047	0.117619	0.059332	-0.717773	-0.171143	-0.850830	0.090184	0.003358	0.040165	0.845183	0.077161	-0.526930	0.045352	10.809857	-63.857753	-0.605287
23856		9.099336	0.360181	4.114657	0.320271	-0.417895	0.166332	0.066034	0.099809	0.088073	-0.720459	-0.161865	-0.847656	0.091012	0.003628	0.041102	0.845394	0.077136	-0.526543	0.045963	10.711131	-63.813495	-0.456691
23857		9.150742	0.413287	4.165701	0.297519	-0.366132	0.239048	0.075650	0.101814	0.113483	-0.710938	-0.160645	-0.848633	0.091526	0.004169	0.041612	0.845598	0.077087	-0.526156	0.046710	10.588814	-63.770908	-0.275171
23858		9.192244	0.548015	4.225478	0.249224	-0.233733	0.313297	0.081406	0.100148	0.135489	-0.724365	-0.165283	-0.846436	0.091940	0.005525	0.042211	0.845791	0.077000	-0.525782	0.047561	10.445245	-63.731214	-0.066990
23859		9.156894	0.567073	4.192808	0.266414	-0.196616	0.268992	0.073072	0.099053	0.152771	-0.715820	-0.159424	-0.846191	0.091585	0.005725	0.041885	0.845978	0.076837	-0.525422	0.048466	10.278205	-63.693828	0.162889
23860		9.029912	0.629201	4.175273	0.221564	-0.118649	0.152498	0.065216	0.087337	0.163560	-0.712891	-0.160889	-0.854736	0.090312	0.006352	0.041715	0.846135	0.076612	-0.525117	0.049389	10.097164	-63.663804	0.402838
23861		8.964083	0.620166	4.218677	0.160302	-0.121298	0.111838	0.060642	0.075584	0.166001	-0.717041	-0.161621	-0.854492	0.089652	0.006263	0.042155	0.846260	0.076367	-0.524863	0.050309	9.913666	-63.640346	0.643255
23862		8.865155	0.639399	4.364136	-0.011094	-0.114828	0.088432	0.039359	0.069097	0.163197	-0.716553	-0.157959	-0.849121	0.088661	0.006458	0.043612	0.846378	0.076037	-0.524639	0.051154	9.722633	-63.619761	0.877850
23863		8.853947	0.589401	4.307309	0.045206	-0.139415	0.049928	0.040682	0.056952	0.156833	-0.714600	-0.167969	-0.852295	0.088547	0.005955	0.043049	0.846463	0.075736	-0.524465	0.051976	9.542424	-63.605255	1.101912
23864		8.892665	0.695155	4.320663	0.034734	-0.024107	0.098370	0.038466	0.043180	0.147831	-0.717529	-0.159424	-0.850830	0.088931	0.007009	0.043189	0.846515	0.075451	-0.524345	0.052745	9.373947	-63.597299	1.311053
23865		8.944263	0.729979	4.345811	0.030876	0.019155	0.158142	0.029356	0.044584	0.144329	-0.716553	-0.163330	-0.852051	0.089447	0.007358	0.043439	0.846574	0.075138	-0.524220	0.053479	9.204144	-63.588033	1.516290
23866		8.988007	0.794389	4.354866	0.033171	0.094184	0.205806	0.021480	0.051347	0.130383	-0.720947	-0.161865	-0.855225	0.089886	0.007998	0.043526	0.846657	0.074825	-0.524063	0.054134	9.044547	-63.573343	1.704673
23867		8.978687	0.813225	4.343639	0.038837	0.127005	0.193696	0.004875	0.069455	0.115625	-0.715576	-0.160889	-0.850098	0.089797	0.008183	0.043405	0.846797	0.074477	-0.523828	0.054691	8.889288	-63.546925	1.878059
23868		8.857021	0.748587	4.344120	-0.000091	0.073556	0.080399	-0.008186	0.076848	0.102675	-0.716797	-0.164795	-0.850098	0.088583	0.007533	0.043407	0.846965	0.074104	-0.523561	0.055160	8.740278	-63.514914	2.035787
23869		8.813557	0.764762	4.341889	-0.015342	0.100204	0.041518	-0.013434	0.070939	0.087422	-0.720703	-0.159912	-0.855225	0.088148	0.007689	0.043387	0.847123	0.073752	-0.523314	0.055551	8.606993	-63.484824	2.172988
23870		8.812460	0.702489	4.323022	0.015897	0.052393	0.027966	-0.016545	0.063072	0.077264	-0.717529	-0.148193	-0.858643	0.088136	0.007063	0.043202	0.847264	0.073414	-0.523097	0.055886	8.485132	-63.458141	2.295248
23871		8.840150	0.720601	4.395400	-0.033977	0.066343	0.085873	-0.011565	0.065147	0.064246	-0.713623	-0.155029	-0.856201	0.088413	0.007237	0.043925	0.847412	0.073132	-0.522865	0.056182	8.380728	-63.429128	2.401426
23872		8.856280	0.777051	4.360360	-0.001215	0.137070	0.088396	-0.019376	0.061750	0.066726	-0.716797	-0.158691	-0.857422	0.088574	0.007804	0.043576	0.847554	0.072807	-0.522650	0.056462	8.269559	-63.402055	2.509432
23873		8.899082	0.846195	4.371669	0.001054	0.212120	0.135991	-0.025762	0.072028	0.050400	-0.710693	-0.151123	-0.857178	0.089004	0.008490	0.043684	0.847729	0.072499	-0.522388	0.056664	8.172022	-63.367831	2.598885
23874		8.938426	0.903788	4.362901	0.022268	0.278619	0.170752	-0.031492	0.073300	0.038630	-0.712891	-0.152344	-0.858154	0.089398	0.009062	0.043595	0.847912	0.072195	-0.522117	0.056798	8.084464	-63.331763	2.673051
23875		8.975211	0.928431	4.403742	0.004840	0.302998	0.223124	-0.042178	0.073839	0.025567	-0.710693	-0.153809	-0.868408	0.089767	0.009305	0.044002	0.848104	0.071882	-0.521843	0.056853	8.005718	-63.294397	2.731002
23876		8.972584	0.891402	4.315915	0.093644	0.288758	0.179151	-0.063349	0.076616	0.010410	-0.716797	-0.155762	-0.859375	0.089742	0.008932	0.043122	0.848316	0.071515	-0.521556	0.056785	7.931588	-63.254067	2.769663
23877		8.995064	0.779123	4.298827	0.145027	0.187872	0.184402	-0.078939	0.079960	-0.001023	-0.706299	-0.147949	-0.858154	0.089968	0.007808	0.042949	0.848544	0.071113	-0.521256	0.056634	7.861115	-63.211068	2.794799
23878		8.962363	0.729760	4.309986	0.136421	0.142460	0.156945	-0.090064	0.082429	-0.005612	-0.715088	-0.151611	-0.862061	0.089642	0.007314	0.043060	0.848784	0.070673	-0.520947	0.056431	7.789163	-63.166234	2.813979
23879		8.950824	0.635105	4.230320	0.224450	0.068929	0.105028	-0.089876	0.077565	-0.010860	-0.708252	-0.153320	-0.857666	0.089525	0.006365	0.042266	0.849012	0.070252	-0.520657	0.056208	7.724111	-63.123806	2.826035
23880		8.877670	0.611615	4.231465	0.201096	0.049040	0.038685	-0.082917	0.069346	-0.010406	-0.715820	-0.147949	-0.865479	0.088792	0.006129	0.042281	0.849216	0.069859	-0.520399	0.055999	7.663931	-63.086029	2.836739
23881		8.863875	0.483446	4.200156	0.250512	-0.066624	0.004446	-0.082235	0.080645	-0.003149	-0.716797	-0.150391	-0.867432	0.088656	0.004850	0.041964	0.849447	0.069449	-0.520096	0.055830	7.594401	-63.042426	2.858737
23882		8.861695	0.426179	4.182536	0.281758	-0.114451	-0.008995	-0.075555	0.082662	-0.002538	-0.706543	-0.145020	-0.873779	0.088634	0.004276	0.041787	0.849680	0.069062	-0.519782	0.055678	7.527809	-62.997677	2.881231
23883		8.817254	0.306263	4.179650	0.291339	-0.227742	-0.057151	-0.064774	0.082559	0.000255	-0.703125	-0.147217	-0.875977	0.088190	0.003076	0.041759	0.849908	0.068717	-0.519467	0.055569	7.464485	-62.953218	2.907509
23884		8.788916	0.216044	4.185501	0.295542	-0.313496	-0.085175	-0.044426	0.082687	0.001001	-0.700684	-0.146240	-0.871094	0.087906	0.002170	0.041818	0.850130	0.068452	-0.519145	0.055512	7.411993	-62.908592	2.934056
23885		8.756281	0.190025	4.125426	0.344516	-0.325437	-0.142987	-0.014393	0.076783	0.008770	-0.706299	-0.145752	-0.870605	0.087579	0.001907	0.041220	0.850323	0.068300	-0.518843	0.055568	7.369165	-62.868021	2.969759
23886		8.725575	0.231095	4.110995	0.342849	-0.279914	-0.174563	0.011543	0.072989	0.014376	-0.712158	-0.145508	-0.873291	0.087271	0.002315	0.041078	0.850496	0.068242	-0.518551	0.055710	7.335547	-62.829964	3.011258
23887		8.728510	0.255690	4.158995	0.304515	-0.261708	-0.148927	0.039117	0.072282	0.011323	-0.707764	-0.148193	-0.871826	0.087300	0.002554	0.041559	0.850658	0.068313	-0.518254	0.055914	7.321385	-62.792120	3.049226
23888		8.638213	0.282607	4.104945	0.312453	-0.226819	-0.252348	0.048941	0.071148	0.007004	-0.706299	-0.150879	-0.867432	0.086397	0.002819	0.041019	0.850816	0.068433	-0.517958	0.056122	7.317748	-62.754599	3.081185
23889		8.612155	0.285051	4.085137	0.323567	-0.221627	-0.284571	0.076787	0.064622	0.002763	-0.709229	-0.145996	-0.864014	0.086135	0.002836	0.040825	0.850947	0.068688	-0.517679	0.056385	7.335804	-62.720481	3.107215
23890		8.610029	0.309957	4.019653	0.380679	-0.187097	-0.314985	0.088046	0.045812	-0.002682	-0.711426	-0.145752	-0.867432	0.086110	0.003081	0.040178	0.851027	0.069008	-0.517476	0.056644	7.368889	-62.696683	3.123194
23891		8.614467	0.360416	3.994214	0.399918	-0.135397	-0.319826	0.112168	0.029331	-0.001228	-0.701660	-0.146729	-0.873535	0.086151	0.003581	0.039932	0.851056	0.069434	-0.517336	0.056969	7.416618	-62.682338	3.138654
23892		8.686387	0.419798	3.953395	0.460945	-0.071247	-0.271129	0.124946	0.024668	-0.000266	-0.706787	-0.148438	-0.871338	0.086869	0.004173	0.039526	0.851068	0.069909	-0.517213	0.057326	7.471084	-62.670724	3.154166
23893		8.729053	0.433370	3.915518	0.513851	-0.053626	-0.249815	0.135120	0.032746	0.001950	-0.697510	-0.152344	-0.872559	0.087297	0.004308	0.039144	0.851096	0.070423	-0.517053	0.057726	7.527941	-62.654689	3.174157
23894		8.831275	0.463361	3.917063	0.557125	-0.025319	-0.156681	0.144744	0.031255	0.007848	-0.702637	-0.153564	-0.867920	0.088319	0.004609	0.039160	0.851115	0.070961	-0.516899	0.058171	7.583894	-62.639951	3.200854
23895		8.835665	0.493467	3.961060	0.518773	-0.007091	-0.131091	0.143527	0.039656	0.004735	-0.700195	-0.152344	-0.866455	0.088364	0.004908	0.039597	0.851156	0.071501	-0.516707	0.058606	7.641463	-62.620222	3.225473
23896		8.794889	0.469432	3.929406	0.535290	-0.029477	-0.183396	0.136816	0.037728	0.004018	-0.703369	-0.155029	-0.867432	0.087956	0.004669	0.039281	0.851194	0.072013	-0.516526	0.059017	7.696112	-62.601596	3.248594
23897		8.766996	0.441119	3.956095	0.507764	-0.066387	-0.197946	0.123941	0.039834	-0.003987	-0.702637	-0.157227	-0.872070	0.087678	0.004385	0.039546	0.851245	0.072493	-0.516336	0.059365	7.751945	-62.581116	3.262536
23898		8.752891	0.450051	3.900045	0.551340	-0.050850	-0.235661	0.111192	0.022401	0.000385	-0.702393	-0.157471	-0.871826	0.087533	0.004479	0.038993	0.851253	0.072909	-0.516226	0.059689	7.798144	-62.570945	3.278668
23899		8.785754	0.458400	3.893948	0.571758	-0.043585	-0.208853	0.099531	0.011710	-0.003440	-0.699951	-0.151855	-0.869873	0.087860	0.004563	0.038937	0.851239	0.073292	-0.516163	0.059966	7.843562	-62.566482	3.288590
23900		8.835473	0.516675	3.825210	0.644329	0.024739	-0.192448	0.095439	-0.003001	-0.005311	-0.702637	-0.155273	-0.867920	0.088354	0.005146	0.038256	0.851189	0.073663	-0.516163	0.060215	7.890696	-62.570300	3.293330
23901		8.876528	0.516546	3.764048	0.716159	0.033776	-0.183897	0.092745	-0.000866	-0.012897	-0.705322	-0.161133	-0.870605	0.088765	0.005142	0.037643	0.851148	0.074045	-0.516152	0.060429	7.944464	-62.572236	3.289463
23902		8.867469	0.463044	3.772085	0.714911	-0.024471	-0.191703	0.098762	0.006669	-0.019851	-0.705322	-0.162842	-0.867188	0.088676	0.004603	0.037720	0.851125	0.074465	-0.516105	0.060629	8.007983	-62.569472	3.278007
23903		8.886183	0.389224	3.731903	0.772461	-0.093690	-0.198251	0.105337	0.002518	-0.029098	-0.703125	-0.167969	-0.868164	0.088863	0.003860	0.037320	0.851093	0.074941	-0.516069	0.060808	8.086160	-62.568184	3.254768
23904		8.931513	0.349725	3.667130	0.857035	-0.124960	-0.190217	0.121513	-0.006657	-0.035321	-0.704346	-0.165283	-0.866699	0.089315	0.003459	0.036676	0.851031	0.075504	-0.516066	0.060997	8.181803	-62.571739	3.222085
23905		8.946595	0.319683	3.629090	0.901809	-0.153874	-0.196185	0.136566	-0.021667	-0.037328	-0.700684	-0.163818	-0.860840	0.089463	0.003155	0.036303	0.850926	0.076142	-0.516121	0.061213	8.290692	-62.583455	3.184406
23906		9.015868	0.281995	3.588165	0.974773	-0.189244	-0.155860	0.152741	-0.022822	-0.041782	-0.700439	-0.160400	-0.871582	0.090155	0.002774	0.035894	0.850812	0.076858	-0.516174	0.061448	8.413840	-62.595626	3.140758
23907		9.016672	0.291366	3.585392	0.974294	-0.188214	-0.155792	0.163752	-0.028613	-0.040193	-0.695068	-0.159912	-0.868896	0.090162	0.002866	0.035869	0.850678	0.077621	-0.516248	0.061719	8.542702	-62.610963	3.098136
23908		9.122619	0.239048	3.954362	0.710498	-0.318347	0.102460	0.172727	-0.025373	-0.037920	-0.702637	-0.169678	-0.867188	0.091222	0.002339	0.039557	0.850548	0.078410	-0.516307	0.062019	8.673416	-62.624758	3.058394
23909		9.290613	0.391032	3.984441	0.731964	-0.179484	0.275730	0.132219	-0.016082	-0.026637	-0.706787	-0.163086	-0.859375	0.092903	0.003872	0.039854	0.850454	0.078999	-0.516342	0.062271	8.767446	-62.634092	3.034660
23910		9.393442	0.497445	3.934011	0.800947	-0.068607	0.351682	0.116754	-0.029995	-0.008427	-0.701416	-0.171387	-0.865234	0.093929	0.004948	0.039357	0.850323	0.079477	-0.516450	0.062551	8.834825	-62.653173	3.030391
23911		9.522853	0.634360	3.858204	0.897022	0.080236	0.442155	0.087935	-0.031200	0.008168	-0.701904	-0.173340	-0.864990	0.095222	0.006331	0.038600	0.850197	0.079793	-0.516576	0.062830	8.868016	-62.674109	3.046590
23912		9.426644	0.675659	3.756201	0.930120	0.137976	0.313665	0.049215	-0.025162	0.019989	-0.699219	-0.172607	-0.862305	0.094261	0.006757	0.037576	0.850096	0.079910	-0.516696	0.063060	8.864872	-62.692922	3.078325
23913		9.329827	0.675967	3.796368	0.848056	0.128835	0.246100	0.019599	-0.013950	0.015859	-0.704102	-0.169922	-0.864502	0.093295	0.006763	0.037971	0.850038	0.079911	-0.516773	0.063203	8.847508	-62.704773	3.107349
23914		9.303140	0.574039	3.774719	0.871134	0.034388	0.205615	-0.001856	-0.027219	0.013684	-0.707031	-0.181396	-0.861572	0.093026	0.005747	0.037760	0.849954	0.079827	-0.516916	0.063272	8.822281	-62.724232	3.130920
23915		9.289615	0.591253	3.878476	0.767765	0.031984	0.242093	-0.016659	-0.034010	0.010971	-0.713135	-0.165039	-0.854492	0.092889	0.005921	0.038800	0.849861	0.079692	-0.517088	0.063292	8.792867	-62.747000	3.150120
23916		9.376388	0.600232	4.031566	0.669287	0.015041	0.389385	-0.050888	-0.017895	0.009139	-0.713623	-0.163330	-0.862549	0.093760	0.006017	0.040323	0.849821	0.079410	-0.517205	0.063221	8.742963	-62.760919	3.170040
23917		9.568633	0.605588	4.346844	0.480310	-0.032564	0.703432	-0.111716	0.000711	0.013649	-0.704102	-0.173096	-0.869141	0.095686	0.006087	0.043465	0.849854	0.078853	-0.517261	0.063020	8.650189	-62.764236	3.199240
23918		9.852288	0.639379	4.369421	0.583538	0.013127	0.968199	-0.189874	0.019181	0.025670	-0.705078	-0.161865	-0.857422	0.098526	0.006448	0.043679	0.849960	0.077924	-0.517270	0.062673	8.496063	-62.758449	3.246497
23919		9.987166	0.750199	4.247766	0.730982	0.163838	1.040359	-0.252647	0.027578	0.043188	-0.702881	-0.167480	-0.863281	0.099876	0.007577	0.042454	0.850107	0.076684	-0.517266	0.062243	8.285641	-62.748937	3.317206
23920		9.850701	0.793095	4.235671	0.672827	0.222144	0.915973	-0.268042	0.039845	0.048275	-0.704346	-0.163330	-0.861816	0.098514	0.008011	0.042326	0.850286	0.075358	-0.517219	0.061798	8.058750	-62.733156	3.396037
23921		9.496179	0.721150	4.470370	0.322196	0.114789	0.702286	-0.248696	0.046323	0.047438	-0.699707	-0.160156	-0.857178	0.094970	0.007290	0.044673	0.850475	0.074117	-0.517134	0.061404	7.843259	-62.713095	3.475014
23922		9.137071	0.625816	4.171489	0.437610	0.083963	0.241191	-0.244631	0.035048	0.026402	-0.705322	-0.150879	-0.864502	0.091377	0.006321	0.041691	0.850637	0.072949	-0.517091	0.060925	7.655002	-62.698099	3.525657
23923		8.848366	0.311329	3.737869	0.740750	-0.138761	-0.231758	-0.230551	0.027054	0.018932	-0.708252	-0.156006	-0.870117	0.088488	0.003165	0.037363	0.850776	0.071865	-0.517070	0.060449	7.484436	-62.686590	3.565799
23924		8.623465	0.161259	3.944442	0.485574	-0.320655	-0.346422	-0.161922	0.033841	0.006572	-0.698242	-0.144531	-0.866211	0.086241	0.001647	0.039429	0.850909	0.071099	-0.516998	0.060097	7.365607	-62.670691	3.591350
23925		8.482341	0.052015	4.143146	0.266744	-0.462326	-0.387530	-0.081336	-0.013062	-0.003867	-0.708740	-0.153076	-0.860107	0.084821	0.000535	0.041437	0.850896	0.070720	-0.517094	0.059896	7.311408	-62.680236	3.596747
23926		8.651389	-0.028419	3.964788	0.510511	-0.502877	-0.323042	0.021943	-0.041948	-0.012035	-0.703613	-0.156250	-0.859375	0.086506	-0.000294	0.039666	0.850773	0.070807	-0.517283	0.059913	7.329112	-62.706061	3.587161
23927		8.853280	-0.117567	4.107737	0.493967	-0.613025	-0.083962	0.081726	0.038633	-0.015161	-0.705566	-0.148193	-0.868652	0.088541	-0.001199	0.041060	0.850840	0.071136	-0.517106	0.060104	7.373431	-62.685403	3.586828
23928		8.858689	-0.232969	4.503086	0.180078	-0.801857	0.093523	0.134923	0.110170	-0.005905	-0.704590	-0.149902	-0.859375	0.088612	-0.002363	0.044980	0.851067	0.071643	-0.516616	0.060494	7.427549	-62.625246	3.609320
23929		8.843436	-0.270192	4.684833	0.031839	-0.877887	0.160040	0.233123	0.073262	0.007889	-0.698242	-0.151611	-0.870850	0.088452	-0.002753	0.046813	0.851161	0.072546	-0.516254	0.061186	7.528272	-62.586634	3.643159
23930		8.933753	-0.258782	4.792279	-0.015294	-0.892874	0.289163	0.332617	0.023810	0.044705	-0.699463	-0.163330	-0.863281	0.089344	-0.002648	0.047908	0.851077	0.073787	-0.516087	0.062271	7.652306	-62.579364	3.714240
23931		8.939931	-0.153250	4.880563	-0.104426	-0.816897	0.340514	0.415987	0.005545	0.075714	-0.696777	-0.154297	-0.868652	0.089401	-0.001600	0.048800	0.850903	0.075314	-0.515979	0.063698	7.793333	-62.584489	3.820714
23932		8.801877	0.056279	5.097252	-0.391925	-0.669995	0.329091	0.476116	0.013102	0.113792	-0.701172	-0.167725	-0.853760	0.088022	0.000492	0.050968	0.850709	0.076992	-0.515834	0.065443	7.925572	-62.588784	3.975362
23933		8.485857	0.338218	5.262675	-0.732485	-0.449488	0.141273	0.512979	0.001228	0.155189	-0.705322	-0.164307	-0.867432	0.084856	0.003313	0.052635	0.850452	0.078726	-0.515736	0.067457	8.035843	-62.602901	4.179064
23934		8.269628	0.496796	5.313862	-0.909189	-0.325201	-0.017879	0.558071	-0.039831	0.193274	-0.710693	-0.180420	-0.859619	0.082681	0.004900	0.053169	0.850049	0.080565	-0.515813	0.069730	8.136035	-62.644021	4.422759
23935		8.210155	0.658272	5.337500	-0.995133	-0.188271	-0.050356	0.589124	-0.053591	0.219598	-0.701904	-0.181152	-0.857422	0.082080	0.006516	0.053416	0.849584	0.082475	-0.515940	0.072191	8.227430	-62.694808	4.696682
23936		8.061236	0.737205	5.397053	-1.137080	-0.142356	-0.151324	0.591730	-0.022728	0.255572	-0.707764	-0.183105	-0.857422	0.080597	0.007315	0.054001	0.849173	0.084291	-0.515947	0.074825	8.275468	-62.731641	5.021158
23937		7.671569	0.800168	5.326404	-1.271539	-0.091521	-0.526213	0.597200	0.002148	0.289830	-0.700195	-0.184326	-0.852539	0.076705	0.007954	0.053287	0.848805	0.086032	-0.515852	0.077627	8.284653	-62.756836	5.392578
23938		7.420952	0.794364	5.458513	-1.501848	-0.147026	-0.690202	0.601044	0.004081	0.320292	-0.707520	-0.183838	-0.850830	0.074198	0.007898	0.054607	0.848417	0.087707	-0.515757	0.080568	8.261571	-62.783762	5.802626
23939		7.142632	0.794897	5.382638	-1.567185	-0.149233	-0.972806	0.590184	0.000635	0.363056	-0.708740	-0.185303	-0.848633	0.071412	0.007920	0.053850	0.847999	0.089228	-0.515692	0.083660	8.185347	-62.815648	6.265371
23940		6.971579	0.757095	5.374267	-1.633933	-0.197385	-1.132241	0.585531	-0.009926	0.399990	-0.708496	-0.184814	-0.849365	0.069698	0.007553	0.053768	0.847528	0.090634	-0.515686	0.086889	8.066074	-62.856567	6.773011
23941		6.999151	0.776203	5.323541	-1.588416	-0.167140	-1.130540	0.567184	-0.003898	0.435489	-0.713135	-0.193359	-0.838379	0.069974	0.007763	0.053259	0.847056	0.091870	-0.515670	0.090225	7.895527	-62.895891	7.326610
23942		7.260913	0.792662	5.294023	-1.454861	-0.125669	-0.910810	0.524305	0.020054	0.469163	-0.703369	-0.187256	-0.846436	0.072596	0.007958	0.052954	0.846638	0.092823	-0.515583	0.093602	7.658007	-62.923773	7.927456
23943		7.550190	0.847587	5.168902	-1.236581	-0.012844	-0.707084	0.470056	0.049955	0.498815	-0.711670	-0.192139	-0.840332	0.075494	0.008543	0.051690	0.846301	0.093457	-0.515399	0.096977	7.351785	-62.935147	8.570662
23944		7.785676	0.904418	5.047203	-1.046505	0.106325	-0.549726	0.423164	0.068052	0.528854	-0.712646	-0.193604	-0.854736	0.077850	0.009143	0.050465	0.846006	0.093803	-0.515172	0.100366	6.981955	-62.936887	9.254727
23945		7.995262	0.980201	4.972330	-0.915183	0.236451	-0.393794	0.380428	0.053188	0.539432	-0.722168	-0.190186	-0.839844	0.079939	0.009923	0.049721	0.845679	0.093950	-0.515026	0.103681	6.578186	-62.945465	9.949736
23946		8.188731	1.078054	4.817873	-0.733582	0.412576	-0.287931	0.328618	0.021775	0.541815	-0.716797	-0.195801	-0.841553	0.081863	0.010923	0.048188	0.845283	0.093885	-0.515037	0.106858	6.145046	-62.970086	10.644084
23947		8.243079	1.038128	4.631188	-0.552733	0.456568	-0.327967	0.307030	-0.006713	0.528814	-0.717041	-0.197998	-0.836182	0.082402	0.010528	0.046331	0.844824	0.093778	-0.515167	0.109909	5.716598	-63.007486	11.319297
23948		8.325002	1.139176	4.669047	-0.594216	0.576872	-0.235766	0.284566	-0.062625	0.505039	-0.717041	-0.184814	-0.837158	0.083206	0.011535	0.046733	0.844235	0.093672	-0.515532	0.112778	5.306433	-63.073611	11.959840
23949		8.247335	1.121192	4.668194	-0.643727	0.577702	-0.309034	0.214324	-0.097698	0.471863	-0.713867	-0.186279	-0.837891	0.082424	0.011356	0.046734	0.843603	0.093369	-0.516063	0.115306	4.893830	-63.155585	12.556982
23950		8.314121	0.982664	4.819179	-0.725013	0.433880	-0.189759	0.145903	-0.128046	0.414517	-0.718750	-0.188721	-0.839111	0.083090	0.009964	0.048252	0.842951	0.092942	-0.516732	0.117400	4.506172	-63.250534	13.081563
23951		8.365366	1.015188	5.001796	-0.889860	0.440963	-0.063762	0.062660	-0.129408	0.332673	-0.712402	-0.187256	-0.834717	0.083604	0.010275	0.050075	0.842380	0.092376	-0.517415	0.118933	4.161152	-63.340978	13.504828
23952		8.563278	0.913042	5.195012	-0.958358	0.329717	0.193526	-0.023761	-0.124059	0.246225	-0.719482	-0.176514	-0.837891	0.085589	0.009242	0.052002	0.841911	0.091669	-0.518084	0.119881	3.862570	-63.423845	13.820707
23953		8.871569	0.999341	5.352246	-1.002058	0.417971	0.539660	-0.077855	-0.108873	0.156854	-0.720703	-0.174072	-0.831543	0.088679	0.010084	0.053567	0.841559	0.090955	-0.518681	0.120319	3.632225	-63.494013	14.025192
23954		8.959799	1.252910	5.497896	-1.177569	0.643486	0.688449	-0.173299	-0.084078	0.066220	-0.728271	-0.170898	-0.832031	0.089571	0.012606	0.055006	0.841368	0.090056	-0.519189	0.120137	3.447985	-63.546522	14.116449
23955		8.981629	1.450593	5.425500	-1.177105	0.866756	0.678884	-0.253090	-0.111694	-0.014742	-0.727783	-0.171875	-0.837646	0.089787	0.014568	0.054287	0.841188	0.089051	-0.519824	0.119397	3.313098	-63.611920	14.102016
23956		8.898682	1.635981	5.355631	-1.220088	1.062179	0.576197	-0.289105	-0.144412	-0.086262	-0.729248	-0.168213	-0.838867	0.088955	0.016399	0.053597	0.840980	0.088096	-0.520586	0.118246	3.241718	-63.693862	13.993222
23957		8.790827	1.740259	5.168635	-1.149115	1.205459	0.397520	-0.352581	-0.164451	-0.148458	-0.733154	-0.170410	-0.838623	0.087879	0.017429	0.051728	0.840781	0.087052	-0.521439	0.116660	3.208044	-63.785147	13.802383
23958		8.516606	1.774338	4.948208	-1.098866	1.269356	0.053763	-0.380020	-0.180673	-0.210663	-0.729980	-0.162354	-0.821533	0.085140	0.017748	0.049525	0.840585	0.086061	-0.522347	0.114732	3.232652	-63.883716	13.528847
23959		8.633318	1.470697	4.767286	-0.819501	1.033644	0.070840	-0.385259	-0.215904	-0.270741	-0.729980	-0.166260	-0.829834	0.086302	0.014682	0.047738	0.840328	0.085226	-0.523377	0.112524	3.328470	-64.000343	13.173354
23960		8.720304	1.228983	4.610049	-0.592716	0.840524	0.074113	-0.364944	-0.217686	-0.316144	-0.733643	-0.157715	-0.826416	0.087172	0.012236	0.046173	0.840077	0.084595	-0.524381	0.110174	3.491558	-64.116266	12.756059
23961		8.838858	0.814051	4.328016	-0.198343	0.508473	0.047428	-0.320134	-0.219838	-0.354883	-0.733887	-0.157471	-0.827881	0.088355	0.008053	0.043364	0.839818	0.084256	-0.525348	0.107780	3.729077	-64.231205	12.285293
23962		8.976946	0.404155	4.191687	0.075138	0.137626	0.101669	-0.253752	-0.219619	-0.378115	-0.740479	-0.168213	-0.821533	0.089731	0.003925	0.042010	0.839538	0.084251	-0.526267	0.105458	4.035016	-64.344241	11.780441
23963		9.080710	0.051356	4.206096	0.186899	-0.225561	0.190676	-0.198377	-0.207382	-0.391755	-0.739014	-0.167725	-0.833496	0.090764	0.000378	0.042155	0.839269	0.084512	-0.527095	0.103233	4.391903	-64.448346	11.255547
23964		9.079874	-0.242192	4.082008	0.357895	-0.509883	0.125993	-0.134029	-0.207882	-0.394054	-0.736328	-0.160889	-0.823975	0.090751	-0.002573	0.040916	0.838967	0.085050	-0.527888	0.101166	4.792409	-64.551217	10.723622
23965		9.142909	-0.418580	4.014748	0.474465	-0.693666	0.146217	-0.063272	-0.230231	-0.388296	-0.732910	-0.167969	-0.821533	0.091374	-0.004351	0.040254	0.838570	0.085879	-0.528738	0.099301	5.232498	-64.665364	10.193243
23966		9.090156	-0.358754	3.958062	0.471033	-0.663537	0.074860	-0.001837	-0.238066	-0.381601	-0.732178	-0.170898	-0.821045	0.090847	-0.003761	0.039689	0.838119	0.086949	-0.529591	0.097619	5.704749	-64.782469	9.666120
23967		9.018079	-0.213030	3.844976	0.486271	-0.538593	-0.033717	0.043323	-0.257290	-0.366611	-0.736084	-0.180420	-0.823486	0.090127	-0.002304	0.038565	0.837585	0.088180	-0.530507	0.096114	6.192101	-64.909594	9.152038
23968		8.980523	0.073204	3.836691	0.388337	-0.302164	-0.059069	0.087096	-0.269764	-0.359451	-0.739746	-0.170410	-0.815430	0.089754	0.000554	0.038488	0.836993	0.089581	-0.531452	0.094748	6.702797	-65.042128	8.640275
23969		9.077515	0.408377	3.886368	0.284016	-0.024226	0.066103	0.088766	-0.254752	-0.344070	-0.738037	-0.184326	-0.817871	0.090732	0.003910	0.038981	0.836427	0.090941	-0.532340	0.093458	7.198396	-65.165530	8.146882
23970		9.131492	0.686520	3.833329	0.267395	0.222848	0.108430	0.086129	-0.235662	-0.332457	-0.742920	-0.183594	-0.814209	0.091281	0.006697	0.038444	0.835904	0.092247	-0.533152	0.092215	7.679558	-65.277055	7.667677
23971		9.088815	0.999148	3.776178	0.208144	0.501228	0.065051	0.078459	-0.197821	-0.307989	-0.751221	-0.179199	-0.806885	0.090866	0.009837	0.037856	0.835471	0.093440	-0.533818	0.091074	8.123828	-65.367524	7.225142
23972		8.968619	1.229971	3.823791	0.048885	0.674169	-0.008945	0.045814	-0.167110	-0.285363	-0.741943	-0.190918	-0.816406	0.089672	0.012163	0.038316	0.835122	0.094419	-0.534382	0.089952	8.518411	-65.441220	6.816346
23973		8.819290	1.287576	3.788564	-0.003322	0.703908	-0.153733	0.016887	-0.131274	-0.267517	-0.738770	-0.189941	-0.807861	0.088185	0.012755	0.037945	0.834873	0.095216	-0.534815	0.088846	8.869965	-65.494939	6.437463
23974		8.756563	1.188103	3.969632	-0.167765	0.534617	-0.141444	-0.010631	-0.115297	-0.258651	-0.746826	-0.194092	-0.804688	0.087558	0.011770	0.039746	0.834675	0.095867	-0.535195	0.087709	9.193097	-65.539246	6.072289
23975		8.753273	1.038041	4.023405	-0.182223	0.353725	-0.131430	-0.038195	-0.090037	-0.256085	-0.740234	-0.190674	-0.802002	0.087528	0.010276	0.040271	0.834554	0.096385	-0.535484	0.086523	9.493126	-65.568930	5.715597
23976		8.804207	0.794617	3.981192	-0.066377	0.110595	-0.118426	-0.059502	-0.087242	-0.254149	-0.743408	-0.200439	-0.806641	0.088035	0.007846	0.039848	0.834449	0.096807	-0.535770	0.085287	9.778770	-65.596472	5.361059
23977		8.866895	0.480904	3.957527	0.056007	-0.204443	-0.093112	-0.068670	-0.058547	-0.262321	-0.744629	-0.198975	-0.806152	0.088664	0.004706	0.039600	0.834427	0.097202	-0.535935	0.084008	10.063601	-65.606278	5.002016
23978		8.898404	0.250202	3.913596	0.164599	-0.435014	-0.099601	-0.048073	-0.034040	-0.247504	-0.748291	-0.200684	-0.809082	0.088980	0.002401	0.039151	0.834453	0.097632	-0.535995	0.082857	10.336810	-65.602928	4.668681
23979		8.934234	0.088744	3.911982	0.222400	-0.607828	-0.080623	-0.036473	-0.008492	-0.225497	-0.739502	-0.195801	-0.805420	0.089342	0.000794	0.039123	0.834531	0.098041	-0.535955	0.081843	10.582977	-65.586966	4.372335
23980		8.938753	0.037882	3.838483	0.305139	-0.654242	-0.111371	-0.015484	0.013777	-0.188282	-0.748535	-0.203369	-0.814697	0.089390	0.000298	0.038379	0.834644	0.098427	-0.535830	0.081048	10.789379	-65.561828	4.132425
23981		8.978819	0.028040	3.850009	0.319129	-0.678370	-0.072025	0.008732	0.031305	-0.147981	-0.745605	-0.203857	-0.804932	0.089794	0.000212	0.038486	0.834773	0.098800	-0.535642	0.080498	10.955208	-65.530969	3.952672
23982		9.019322	0.157798	3.851905	0.308318	-0.562525	-0.025004	0.034102	0.027761	-0.111188	-0.744385	-0.199707	-0.811279	0.090199	0.001521	0.038507	0.834866	0.099181	-0.535476	0.080165	11.090646	-65.505870	3.822048
23983		9.093419	0.430730	3.834136	0.293448	-0.300224	0.056463	0.044849	0.024427	-0.080962	-0.748535	-0.203613	-0.810791	0.090941	0.004262	0.038331	0.834932	0.099529	-0.535335	0.079988	11.195480	-65.485948	3.731996
23984		9.219328	0.577228	3.894970	0.260900	-0.176820	0.207325	0.042552	0.027603	-0.063290	-0.744385	-0.204346	-0.809814	0.092200	0.005735	0.038938	0.835002	0.099815	-0.535191	0.079877	11.276052	-65.466098	3.666617
23985		9.265161	0.774926	3.811841	0.308533	0.031604	0.231099	0.041547	0.017646	-0.047492	-0.746094	-0.205078	-0.814209	0.092657	0.007719	0.038112	0.835038	0.100062	-0.535096	0.079827	11.339215	-65.453638	3.620269
23986		9.353597	0.957525	3.882549	0.242446	0.188885	0.355221	0.029088	0.033482	-0.043522	-0.744873	-0.220215	-0.813477	0.093545	0.009549	0.038811	0.835121	0.100237	-0.534942	0.079766	11.386229	-65.432632	3.583407
23987		9.357420	1.072891	4.019009	0.101590	0.263559	0.423770	0.006719	0.056194	-0.044057	-0.742188	-0.205566	-0.804688	0.093588	0.010707	0.040164	0.835276	0.100314	-0.534701	0.079656	11.415548	-65.398880	3.552317
23988		9.320610	1.129547	4.055046	0.048508	0.307148	0.409658	-0.015990	0.081112	-0.046414	-0.736328	-0.207520	-0.812256	0.093225	0.011277	0.040512	0.835510	0.100294	-0.534364	0.079489	11.428828	-65.350804	3.524784
23989		9.236898	1.166296	4.116014	-0.038831	0.325234	0.361535	-0.038821	0.102452	-0.051641	-0.745117	-0.207031	-0.814941	0.092393	0.011647	0.041111	0.835814	0.100182	-0.533945	0.079250	11.429733	-65.290206	3.496225
23990		9.076918	1.193427	4.229787	-0.200147	0.320028	0.265175	-0.067121	0.117930	-0.055198	-0.739014	-0.205078	-0.810791	0.090797	0.011923	0.042240	0.836176	0.099954	-0.533470	0.078925	11.414850	-65.220396	3.466869
23991		8.952562	1.151057	4.386420	-0.366704	0.239086	0.213395	-0.096372	0.122711	-0.059478	-0.732910	-0.207764	-0.817383	0.089556	0.011505	0.043804	0.836565	0.099615	-0.532984	0.078509	11.387240	-65.147537	3.433366
23992		8.816900	1.065357	4.483991	-0.476205	0.131947	0.123846	-0.125383	0.117379	-0.063658	-0.735596	-0.205078	-0.807373	0.088199	0.010654	0.044781	0.836957	0.099166	-0.532529	0.077993	11.349351	-65.077067	3.392542
23993		8.782906	0.963378	4.481855	-0.452959	0.037122	0.084181	-0.149010	0.105692	-0.070055	-0.729980	-0.202148	-0.815674	0.087856	0.009636	0.044765	0.837329	0.098641	-0.532129	0.077384	11.308472	-65.012597	3.340372
23994		8.725450	0.858943	4.453840	-0.417936	-0.053899	0.012299	-0.161666	0.092756	-0.066040	-0.737305	-0.204346	-0.818604	0.087278	0.008597	0.044491	0.837672	0.098055	-0.531789	0.076750	11.258572	-64.955781	3.289800
23995		8.707218	0.811245	4.527892	-0.470719	-0.113801	0.023015	-0.166583	0.078956	-0.063726	-0.733887	-0.201416	-0.819580	0.087093	0.008122	0.045238	0.837979	0.097450	-0.531510	0.076107	11.206386	-64.907079	3.238947
23996		8.751156	0.717153	4.470751	-0.373449	-0.185324	0.031643	-0.157059	0.057735	-0.060393	-0.733887	-0.207275	-0.821777	0.087527	0.007180	0.044677	0.838223	0.096882	-0.531317	0.075491	11.160655	-64.870577	3.186622
23997		8.857150	0.728797	4.417673	-0.279256	-0.154468	0.106699	-0.150928	0.050601	-0.056195	-0.728027	-0.200195	-0.817383	0.088585	0.007296	0.044149	0.838442	0.096333	-0.531153	0.074908	11.115117	-64.838685	3.138303
23998		8.991175	0.756760	4.408351	-0.215815	-0.118655	0.226577	-0.125317	0.040570	-0.057258	-0.735352	-0.205811	-0.827148	0.089923	0.007569	0.044061	0.838623	0.095897	-0.531020	0.074382	11.087973	-64.812146	3.085753
23999		9.150501	0.731386	4.401789	-0.132407	-0.135654	0.366036	-0.116614	0.037457	-0.054748	-0.732422	-0.188965	-0.817383	0.091515	0.007314	0.043996	0.838790	0.095493	-0.530899	0.073889	11.063406	-64.787827	3.035963
24000		9.297213	0.673038	4.120111	0.194118	-0.119761	0.376249	-0.122216	0.036729	-0.058365	-0.739746	-0.200439	-0.817871	0.092982	0.006728	0.041180	0.838959	0.095072	-0.530780	0.073363	11.039912	-64.763403	2.980897
24001		9.325451	0.655088	3.950976	0.361624	-0.094983	0.329481	-0.112019	0.019678	-0.053732	-0.737793	-0.201416	-0.819824	0.093260	0.006548	0.039497	0.839074	0.094691	-0.530732	0.072878	11.020851	-64.749210	2.927914
24002		9.252289	0.736919	3.849750	0.403373	0.008330	0.227517	-0.133120	0.020667	-0.054050	-0.731201	-0.195801	-0.824463	0.092529	0.007370	0.038483	0.839202	0.094222	-0.530687	0.072336	10.989933	-64.734475	2.874619
24003		9.165607	0.857881	3.783206	0.399871	0.141645	0.131004	-0.140575	0.007077	-0.051214	-0.734375	-0.199707	-0.818848	0.091660	0.008582	0.037823	0.839297	0.093718	-0.530703	0.071780	10.954397	-64.727668	2.821749
24004		9.158532	1.002935	3.685253	0.451351	0.307041	0.095274	-0.155596	-0.014897	-0.060996	-0.730469	-0.195557	-0.821533	0.091586	0.010030	0.036852	0.839343	0.093185	-0.530811	0.071132	10.926986	-64.732093	2.750155
24005		9.288089	1.178195	3.572586	0.566730	0.507301	0.179389	-0.185128	-0.025038	-0.073045	-0.729492	-0.197754	-0.825195	0.092881	0.011781	0.035727	0.839379	0.092564	-0.530966	0.070351	10.899358	-64.741008	2.660317
24006		9.423927	1.295164	3.530392	0.637110	0.634148	0.293918	-0.218991	-0.007022	-0.094176	-0.721680	-0.189453	-0.822998	0.094244	0.012946	0.035293	0.839486	0.091850	-0.531047	0.069398	10.873464	-64.737388	2.546929
24007		9.466666	1.372190	3.535268	0.639018	0.709858	0.340467	-0.253536	0.035598	-0.106335	-0.730469	-0.196045	-0.826660	0.094680	0.013716	0.035318	0.839724	0.091009	-0.530955	0.068324	10.832387	-64.708631	2.428608
24008		9.425054	1.417407	3.699325	0.476704	0.718803	0.374646	-0.293848	0.078206	-0.115882	-0.733887	-0.180908	-0.821045	0.094273	0.014174	0.036936	0.840096	0.090008	-0.530691	0.067119	10.769809	-64.654744	2.308171
24009		9.286454	1.275792	3.681229	0.475853	0.586815	0.229549	-0.309607	0.113561	-0.114044	-0.735840	-0.192139	-0.825928	0.092893	0.012762	0.036740	0.840564	0.088925	-0.530284	0.065898	10.687852	-64.581386	2.199436
24010		9.119086	1.086711	3.670013	0.467042	0.407936	0.057627	-0.305548	0.123221	-0.097346	-0.722656	-0.189453	-0.829590	0.091219	0.010879	0.036627	0.841049	0.087809	-0.529842	0.064759	10.586220	-64.504539	2.114510
24011		9.019538	0.854383	3.762795	0.403151	0.167177	-0.012169	-0.295405	0.126101	-0.070028	-0.721436	-0.190674	-0.829590	0.090222	0.008568	0.037558	0.841525	0.086664	-0.529395	0.063766	10.457634	-64.428891	2.066333
24012		8.908637	0.598257	3.722257	0.454149	-0.066811	-0.150069	-0.268140	0.121106	-0.042047	-0.721924	-0.186523	-0.829834	0.089110	0.006014	0.037161	0.841966	0.085563	-0.528969	0.062960	10.313449	-64.358841	2.052833
24013		8.857391	0.414869	3.738807	0.463259	-0.240153	-0.203740	-0.223867	0.100841	-0.008851	-0.721436	-0.173096	-0.838379	0.088593	0.004187	0.037339	0.842322	0.084565	-0.528629	0.062403	10.159951	-64.303769	2.077717
24014		8.804983	0.285221	3.776502	0.440610	-0.364430	-0.244820	-0.188431	0.100386	0.021355	-0.722656	-0.178955	-0.835693	0.088068	0.002897	0.037718	0.842652	0.083634	-0.528291	0.062063	9.991851	-64.251837	2.140860
24015		8.777802	0.187829	3.787934	0.444929	-0.450604	-0.271591	-0.157659	0.097882	0.037858	-0.727783	-0.174805	-0.835449	0.087796	0.001925	0.037835	0.842955	0.082793	-0.527961	0.061876	9.823049	-64.202979	2.224885
24016		8.806000	0.201820	3.717413	0.522955	-0.409962	-0.275185	-0.116840	0.083811	0.060192	-0.722656	-0.165039	-0.830322	0.088075	0.002066	0.037136	0.843197	0.082067	-0.527687	0.061882	9.654832	-64.164137	2.333849
24017		8.927481	0.274322	3.771282	0.522013	-0.335141	-0.137311	-0.094704	0.120012	0.073952	-0.721191	-0.169189	-0.840088	0.089296	0.002794	0.037658	0.843521	0.081388	-0.527259	0.062023	9.476605	-64.105995	2.468500
24018		8.912897	0.347390	3.789911	0.495992	-0.253464	-0.137278	-0.082620	0.155139	0.091543	-0.719971	-0.175049	-0.845215	0.089157	0.003530	0.037829	0.843926	0.080698	-0.526686	0.062277	9.278499	-64.029503	2.632066
24019		8.940450	0.427902	3.769883	0.523212	-0.154951	-0.115834	-0.049449	0.169798	0.103193	-0.720947	-0.169434	-0.840820	0.089434	0.004334	0.037622	0.844352	0.080118	-0.526044	0.062680	9.084575	-63.945483	2.813205
24020		9.037750	0.653729	3.822280	0.490242	0.072421	0.009354	-0.011694	0.163737	0.108904	-0.713867	-0.161377	-0.846924	0.090405	0.006589	0.038148	0.844744	0.079683	-0.525418	0.063202	8.907945	-63.865107	2.998947
24021		9.075241	0.861377	3.837521	0.467374	0.288189	0.062889	-0.018684	0.175535	0.111179	-0.720703	-0.160645	-0.842285	0.090781	0.008668	0.038295	0.845168	0.079209	-0.524745	0.063722	8.723708	-63.778034	3.189190
24022		9.140073	0.959663	3.830949	0.496267	0.402107	0.123612	-0.023990	0.156840	0.105552	-0.718994	-0.163574	-0.853760	0.091426	0.009649	0.038237	0.845546	0.078728	-0.524150	0.064189	8.546862	-63.700817	3.366786
24023		9.194944	0.986472	3.811024	0.543449	0.447859	0.164692	-0.032974	0.116703	0.101144	-0.722656	-0.166992	-0.851807	0.091967	0.009918	0.038055	0.845824	0.078239	-0.523724	0.064606	8.378155	-63.645723	3.530810
24024		9.295226	1.001212	3.818443	0.586036	0.477443	0.257703	-0.054974	0.090411	0.099931	-0.712402	-0.159668	-0.844482	0.092964	0.010069	0.038140	0.846041	0.077666	-0.523417	0.064945	8.203126	-63.605235	3.687220
24025		9.288817	0.908210	3.761650	0.655370	0.411860	0.220150	-0.075714	0.059415	0.104724	-0.718018	-0.161377	-0.847656	0.092895	0.009145	0.037585	0.846182	0.077006	-0.523249	0.065243	8.016364	-63.582479	3.844174
24026		9.370731	0.810345	3.691822	0.773311	0.346967	0.255997	-0.088144	0.032610	0.105325	-0.716309	-0.159424	-0.847412	0.093709	0.008169	0.036899	0.846258	0.076296	-0.523199	0.065495	7.826175	-63.574867	3.996323
24027		9.428513	0.766654	3.617959	0.871294	0.334871	0.272100	-0.094602	0.008879	0.099998	-0.719238	-0.164063	-0.851563	0.094283	0.007731	0.036172	0.846275	0.075585	-0.523248	0.065704	7.642236	-63.579981	4.138061
24028		9.463303	0.723013	3.517162	0.981070	0.326448	0.255987	-0.094756	-0.001706	0.091218	-0.717773	-0.158203	-0.849365	0.094629	0.007290	0.035169	0.846266	0.074898	-0.523340	0.065868	7.469900	-63.590386	4.266394
24029		9.483398	0.738393	3.381031	1.103418	0.381103	0.214708	-0.102223	-0.009782	0.078327	-0.710938	-0.154297	-0.847412	0.094829	0.007438	0.033811	0.846244	0.074217	-0.523462	0.065958	7.308998	-63.604126	4.377514
24030		9.526932	0.755312	3.270281	1.213932	0.432053	0.205664	-0.127137	-0.003122	0.061738	-0.704834	-0.160400	-0.848145	0.095266	0.007603	0.032699	0.846253	0.073469	-0.523559	0.065911	7.151758	-63.612879	4.468060
24031		9.454473	0.838930	3.078364	1.332754	0.559292	0.060414	-0.134547	0.004735	0.052443	-0.718506	-0.154785	-0.843750	0.094543	0.008435	0.030776	0.846288	0.072714	-0.523620	0.065812	6.999711	-63.616268	4.548605
24032		9.292658	0.875779	3.017690	1.306351	0.610903	-0.109741	-0.145563	-0.000534	0.035794	-0.712402	-0.143555	-0.848145	0.092925	0.008796	0.030171	0.846317	0.071959	-0.523702	0.065610	6.861500	-63.621569	4.606595
24033		9.089591	0.958979	2.876679	1.323401	0.720444	-0.349857	-0.174278	-0.010763	0.019156	-0.717529	-0.145996	-0.849121	0.090893	0.009624	0.028763	0.846336	0.071128	-0.523829	0.065260	6.726932	-63.631343	4.642213
24034		8.961057	1.022863	2.736635	1.375553	0.811613	-0.523710	-0.181611	-0.031632	-0.000804	-0.724365	-0.138916	-0.843994	0.089606	0.010253	0.027371	0.846308	0.070320	-0.524042	0.064793	6.613644	-63.651890	4.648372
24035		8.815966	1.079035	2.517132	1.491136	0.907904	-0.747713	-0.214023	-0.039309	-0.010992	-0.715820	-0.144531	-0.848877	0.088155	0.010812	0.025177	0.846274	0.069409	-0.524291	0.064201	6.494606	-63.675874	4.641240
24036		8.657958	1.085752	2.216413	1.682825	0.968945	-1.021736	-0.215073	-0.014651	-0.020765	-0.715576	-0.146729	-0.853027	0.086579	0.010872	0.022159	0.846306	0.068507	-0.524436	0.063568	6.382839	-63.685657	4.624397
24037		8.553631	1.133440	2.810567	1.107363	0.906699	-0.851648	-0.161795	0.018669	-0.045659	-0.717285	-0.139404	-0.851074	0.085542	0.011338	0.028089	0.846415	0.067890	-0.524410	0.062986	6.326037	-63.674439	4.581218
24038		8.580767	1.392462	4.038670	-0.000038	0.943465	-0.273859	-0.258460	0.074400	-0.099416	-0.718262	-0.135986	-0.860596	0.085830	0.013934	0.040337	0.846718	0.066984	-0.524162	0.061938	6.268798	-63.628423	4.476132
24039		8.897281	1.106234	3.658266	0.537354	0.745330	-0.172979	-0.386657	0.119456	-0.155472	-0.714844	-0.139160	-0.854248	0.089003	0.011064	0.036508	0.847197	0.065671	-0.523740	0.060336	6.196379	-63.553010	4.306507
24040		9.010697	0.864314	3.117082	1.124121	0.606400	-0.324564	-0.321857	0.203303	-0.192588	-0.711426	-0.130127	-0.859375	0.090147	0.008606	0.031065	0.847882	0.064700	-0.522931	0.058767	6.192651	-63.427868	4.100608
24041		8.730361	0.762441	3.789786	0.450927	0.379961	-0.282986	-0.287373	0.278966	-0.213535	-0.712646	-0.128906	-0.860352	0.087364	0.007585	0.037765	0.848756	0.063911	-0.521780	0.057230	6.221745	-63.258035	3.880680
24042		8.402240	0.518724	4.665736	-0.398226	-0.020219	-0.196204	-0.253922	0.243802	-0.246815	-0.708984	-0.127197	-0.864502	0.084086	0.005143	0.046548	0.849532	0.063354	-0.520758	0.055619	6.310000	-63.106378	3.614305
24043		8.398964	0.338368	5.423778	-1.015213	-0.331336	0.133868	-0.161290	0.133791	-0.284326	-0.701904	-0.130615	-0.860596	0.084031	0.003308	0.054179	0.850000	0.063325	-0.520161	0.054063	6.505349	-63.014334	3.288370
24044		8.874711	0.079759	6.021780	-1.266458	-0.688005	0.815170	-0.088796	0.141651	-0.331883	-0.701172	-0.132568	-0.861816	0.088791	0.000677	0.060155	0.850475	0.063720	-0.519496	0.052488	6.792169	-62.914312	2.904832
24045		9.282522	-0.198585	6.568877	-1.488461	-1.065182	1.412484	-0.051288	0.320508	-0.384331	-0.697510	-0.130615	-0.860596	0.092926	-0.002148	0.065540	0.851414	0.064369	-0.518040	0.050852	7.131175	-62.707706	2.487527
24046		9.331282	-0.782622	6.331668	-1.124965	-1.629200	1.316339	-0.034946	0.405573	-0.425500	-0.695313	-0.129150	-0.874756	0.093424	-0.008014	0.063129	0.852571	0.065167	-0.516202	0.049103	7.506364	-62.448830	2.037953
24047		9.056480	-1.323123	5.625726	-0.512329	-2.086932	0.713531	0.135229	0.273253	-0.415366	-0.696289	-0.152100	-0.865479	0.090614	-0.013457	0.056124	0.853323	0.066701	-0.514884	0.047800	7.980291	-62.264074	1.587256
24048		8.390806	-1.446587	5.334429	-0.522662	-2.210138	-0.025129	0.315954	0.115936	-0.344540	-0.688721	-0.142578	-0.858643	0.083914	-0.014695	0.053273	0.853587	0.068858	-0.514217	0.047206	8.500593	-62.172749	1.199737
24049		7.386428	-1.095721	5.470256	-1.146252	-1.936452	-0.833839	0.400756	0.060808	-0.261680	-0.686035	-0.149902	-0.865234	0.073866	-0.011163	0.054658	0.853657	0.071180	-0.513788	0.047171	8.987261	-62.118065	0.905828
24050		6.766821	-0.365419	5.870836	-1.885384	-1.327710	-1.148249	0.465878	0.026827	-0.195352	-0.689697	-0.162354	-0.863281	0.067672	-0.003857	0.058690	0.853594	0.073611	-0.513513	0.047567	9.444552	-62.087845	0.686173
24051		6.702553	0.560687	6.085249	-2.240669	-0.492365	-1.037399	0.462032	-0.006489	-0.179166	-0.689209	-0.158203	-0.862549	0.067028	0.005406	0.060867	0.853440	0.075998	-0.513381	0.048017	9.888203	-62.076906	0.480507
24052		7.080163	1.324875	5.625378	-1.783826	0.304538	-0.854229	0.423147	-0.006175	-0.214248	-0.687744	-0.168457	-0.868896	0.070814	0.013054	0.056284	0.853303	0.078304	-0.513242	0.048212	10.346384	-62.061740	0.232452
24053		7.677079	1.813568	5.251601	-1.255667	0.814541	-0.455041	0.411754	0.029958	-0.269279	-0.682861	-0.170654	-0.866699	0.076803	0.017924	0.052542	0.853273	0.080698	-0.512926	0.048161	10.848923	-62.019215	-0.072577
24054		8.128305	2.104635	4.989609	-0.856759	1.105961	-0.146371	0.404562	0.081705	-0.324338	-0.685059	-0.175049	-0.861084	0.081337	0.020814	0.049905	0.853388	0.083184	-0.512365	0.047872	11.393036	-61.940127	-0.430458
24055		8.364583	2.101802	5.025920	-0.763983	1.048918	0.084765	0.395791	0.106351	-0.359364	-0.680420	-0.176758	-0.864258	0.083710	0.020768	0.050256	0.853571	0.085722	-0.511683	0.047427	11.961236	-61.841604	-0.820721
24056		8.438482	1.798357	5.158035	-0.776577	0.677125	0.186592	0.382615	0.119150	-0.366052	-0.679443	-0.175293	-0.865234	0.084448	0.017730	0.051564	0.853788	0.088209	-0.510944	0.046917	12.522172	-61.733345	-1.212974
24057		8.569980	1.251773	5.446634	-0.853055	0.034273	0.382812	0.375058	0.118051	-0.370169	-0.682861	-0.194336	-0.862549	0.085755	0.012257	0.054439	0.854000	0.090681	-0.510205	0.046377	13.080236	-61.623326	-1.605995
24058		8.762904	0.614642	5.765383	-0.908766	-0.705091	0.631578	0.348368	0.104090	-0.357794	-0.682373	-0.188721	-0.859863	0.087670	0.005889	0.057619	0.854181	0.093003	-0.509536	0.045807	13.609610	-61.521032	-1.985674
24059		8.908260	-0.060976	5.884802	-0.806695	-1.439716	0.735676	0.327920	0.107314	-0.337119	-0.671875	-0.196045	-0.863525	0.089113	-0.000856	0.058799	0.854369	0.095191	-0.508863	0.045282	14.102774	-61.418106	-2.336343
24060		8.887019	-0.320750	5.982182	-0.836272	-1.758180	0.726655	0.352480	0.100770	-0.306095	-0.673828	-0.209473	-0.860352	0.088895	-0.003449	0.059771	0.854518	0.097397	-0.508225	0.044940	14.576590	-61.321901	-2.650866
24061		8.762583	-0.508792	5.981581	-0.843811	-1.981811	0.588335	0.375496	0.091122	-0.266050	-0.671143	-0.216553	-0.862061	0.087646	-0.005317	0.059766	0.854617	0.099610	-0.507639	0.044832	15.023926	-61.235601	-2.918832
24062		8.488757	-0.426181	6.015410	-1.002543	-1.943290	0.367890	0.452251	0.062506	-0.212220	-0.675049	-0.211426	-0.854736	0.084902	-0.004488	0.060118	0.854588	0.102019	-0.507182	0.045131	15.466970	-61.172195	-3.132385
24063		8.172710	0.045413	6.109588	-1.306889	-1.536684	0.189953	0.500577	0.051813	-0.153763	-0.671143	-0.220459	-0.866699	0.081743	0.000238	0.061075	0.854489	0.104489	-0.506787	0.045799	15.880899	-61.123008	-3.280722
24064		8.147368	0.595092	6.210660	-1.495993	-1.062400	0.283808	0.528052	0.049567	-0.092127	-0.671387	-0.236816	-0.854980	0.081492	0.005749	0.062102	0.854350	0.106914	-0.506424	0.046794	16.248301	-61.084379	-3.359122
24065		8.129707	1.262340	6.191770	-1.606684	-0.445300	0.348210	0.529945	0.039973	-0.048943	-0.674805	-0.236572	-0.854736	0.081313	0.012439	0.061935	0.854170	0.109246	-0.506120	0.047978	16.576720	-61.057750	-3.390643
24066		8.253628	1.908144	6.136733	-1.622040	0.158281	0.520112	0.487093	0.015063	-0.012463	-0.672852	-0.239502	-0.849121	0.082542	0.018927	0.061407	0.853935	0.111307	-0.505950	0.049194	16.851577	-61.050731	-3.389144
24067		8.319371	2.624019	6.024678	-1.639148	0.849632	0.626921	0.413540	-0.016537	0.002903	-0.679688	-0.242676	-0.847900	0.083188	0.026117	0.060308	0.853653	0.113023	-0.505939	0.050273	17.078525	-61.063593	-3.380930
24068		8.431426	3.100577	5.739004	-1.444976	1.356038	0.661655	0.299431	-0.044252	0.003989	-0.669922	-0.233154	-0.852539	0.084301	0.030921	0.057455	0.853363	0.114254	-0.506075	0.051050	17.247447	-61.091916	-3.381510
24069		8.404274	3.311312	5.588295	-1.380724	1.584178	0.599306	0.165290	-0.037127	0.004394	-0.679199	-0.241699	-0.852539	0.084032	0.033069	0.055926	0.853166	0.114911	-0.506213	0.051496	17.337154	-61.116318	-3.379005
24070		8.417189	3.189975	5.521444	-1.298568	1.478169	0.562287	0.009332	-0.038776	0.001947	-0.668945	-0.243896	-0.850830	0.084161	0.031898	0.055232	0.853056	0.114904	-0.506397	0.051529	17.339969	-61.141101	-3.380453
24071		8.481453	2.739690	5.505099	-1.166084	1.048132	0.545339	-0.132819	-0.055218	-0.005453	-0.673096	-0.238281	-0.849854	0.084800	0.027431	0.055056	0.852986	0.114319	-0.506683	0.051167	17.274258	-61.173722	-3.395515
24072		8.658629	2.205401	5.356093	-0.850124	0.572794	0.554210	-0.242619	-0.071954	-0.002910	-0.675293	-0.251709	-0.855713	0.086567	0.022118	0.053565	0.852937	0.113260	-0.507068	0.050523	17.148011	-61.215710	-3.414064
24073		8.920771	1.639917	5.158291	-0.447661	0.080789	0.611827	-0.307662	-0.067223	0.009421	-0.675537	-0.238281	-0.842773	0.089190	0.016483	0.051588	0.852930	0.111895	-0.507457	0.049775	16.970742	-61.257437	-3.416132
24074		8.997089	1.239815	4.915031	-0.127965	-0.231582	0.510696	-0.335436	-0.009356	0.038112	-0.677979	-0.243164	-0.859375	0.089966	0.012498	0.049134	0.853077	0.110323	-0.507619	0.049108	16.731243	-61.271980	-3.365593
24075		8.843432	0.851292	4.802926	-0.028992	-0.555603	0.271434	-0.311530	0.062173	0.064773	-0.678223	-0.239502	-0.843262	0.088446	0.008616	0.047988	0.853382	0.108768	-0.507484	0.048658	16.457102	-61.251720	-3.259708
24076		8.575879	0.572072	4.683862	0.002430	-0.768665	-0.054581	-0.251142	0.082162	0.101702	-0.672119	-0.230957	-0.854248	0.085775	0.005823	0.046796	0.853696	0.107372	-0.507267	0.048527	16.175167	-61.225958	-3.105544
24077		8.218643	0.405790	4.581868	-0.045652	-0.874274	-0.435172	-0.190616	0.093624	0.147719	-0.674805	-0.221680	-0.862305	0.082205	0.004162	0.045776	0.853991	0.106115	-0.507012	0.048755	15.878672	-61.200996	-2.895057
24078		7.886134	0.402856	4.483715	-0.116839	-0.824302	-0.770346	-0.097525	0.089491	0.183740	-0.680176	-0.226318	-0.860596	0.078878	0.004123	0.044800	0.854219	0.105161	-0.506768	0.049364	15.600674	-61.183115	-2.645581
24079		7.665406	0.645758	4.535047	-0.309671	-0.574775	-0.906745	-0.009286	0.090814	0.217912	-0.680420	-0.226318	-0.865234	0.076668	0.006543	0.045315	0.854392	0.104500	-0.506516	0.050349	15.339150	-61.169448	-2.356349
24080		7.611831	0.809883	4.450897	-0.291255	-0.376193	-0.970743	0.051670	0.100007	0.236007	-0.681641	-0.223633	-0.853516	0.076131	0.008177	0.044473	0.854552	0.104049	-0.506216	0.051567	15.091964	-61.152567	-2.044144
24081		7.603067	1.078948	4.500243	-0.385656	-0.108884	-0.920987	0.109618	0.109861	0.241528	-0.668213	-0.226807	-0.855957	0.076042	0.010857	0.044967	0.854703	0.103831	-0.505863	0.052963	14.870312	-61.130667	-1.722555
24082		7.833013	1.203839	4.543456	-0.330658	0.015015	-0.683682	0.126795	0.137272	0.241312	-0.668213	-0.226563	-0.867676	0.078347	0.012104	0.045388	0.854913	0.103679	-0.505385	0.054414	14.651906	-61.092745	-1.393654
24083		7.952526	1.204678	4.743538	-0.435098	-0.015222	-0.485014	0.111054	0.183553	0.244967	-0.670166	-0.219971	-0.865723	0.079554	0.012118	0.047369	0.855244	0.103438	-0.504716	0.055867	14.409723	-61.029248	-1.047414
24084		8.098404	1.167459	4.880950	-0.461680	-0.065245	-0.296737	0.075064	0.214650	0.253359	-0.671387	-0.225342	-0.865234	0.081022	0.011759	0.048727	0.855669	0.103011	-0.503923	0.057277	14.131836	-60.948493	-0.684239
24085		8.237609	1.085127	4.961971	-0.431164	-0.141842	-0.145694	0.029364	0.242989	0.263212	-0.669189	-0.223389	-0.862061	0.082422	0.010952	0.049521	0.856181	0.102358	-0.503029	0.058632	13.812967	-60.852843	-0.303262
24086		8.307006	0.977431	4.946655	-0.345819	-0.216822	-0.103700	0.015376	0.243531	0.277201	-0.664063	-0.206055	-0.868408	0.083117	0.009886	0.049366	0.856697	0.101608	-0.502140	0.060011	13.474293	-60.757414	0.091352
24087		8.434497	0.891285	4.879273	-0.193901	-0.255702	-0.033149	-0.005553	0.212728	0.305703	-0.666748	-0.219482	-0.866211	0.084383	0.009043	0.048703	0.857133	0.100707	-0.501404	0.061444	13.104786	-60.682033	0.508119
24088		8.503309	0.851986	4.720038	-0.005469	-0.224687	-0.052549	-0.021499	0.187661	0.323721	-0.668213	-0.208984	-0.869629	0.085063	0.008663	0.047120	0.857507	0.099695	-0.500786	0.062898	12.715545	-60.621282	0.936557
24089		8.532780	1.025449	4.798518	-0.086378	-0.041357	0.029893	-0.013293	0.129292	0.346600	-0.665527	-0.215820	-0.873291	0.085341	0.010406	0.047929	0.857719	0.098684	-0.500427	0.064445	12.322876	-60.594916	1.375274
24090		8.559525	1.227807	4.761863	-0.083931	0.197389	0.056569	-0.039565	0.064352	0.347588	-0.665527	-0.213867	-0.864746	0.085589	0.012436	0.047589	0.857779	0.097575	-0.500351	0.065896	11.928356	-60.603252	1.798394
24091		8.623059	1.325036	4.521611	0.124138	0.382139	0.005474	-0.066270	0.001716	0.346698	-0.671875	-0.204590	-0.866455	0.086208	0.013415	0.045211	0.857692	0.096377	-0.500553	0.067248	11.532062	-60.645504	2.206368
24092		8.778381	1.430466	4.382918	0.284564	0.553026	0.083234	-0.097242	-0.038092	0.334836	-0.672607	-0.203857	-0.878906	0.087751	0.014473	0.043839	0.857522	0.095088	-0.500928	0.068451	11.136621	-60.707199	2.592620
24093		8.863163	1.569912	4.164920	0.467968	0.774628	0.063936	-0.152432	-0.050960	0.318767	-0.669189	-0.194580	-0.871826	0.088596	0.015872	0.041660	0.857348	0.093608	-0.501368	0.069442	10.726518	-60.773256	2.959373
24094		8.956864	1.521527	4.045689	0.611939	0.791935	0.082075	-0.210977	-0.055220	0.302165	-0.672852	-0.195801	-0.875244	0.089534	0.015393	0.040465	0.857195	0.091916	-0.501835	0.070209	10.298532	-60.838348	3.307329
24095		9.123445	1.450024	4.025710	0.713744	0.767436	0.209671	-0.263086	-0.028956	0.283114	-0.673340	-0.189209	-0.874023	0.091208	0.014682	0.040251	0.857134	0.090042	-0.502200	0.070779	9.853818	-60.885735	3.640687
24096		9.237437	1.329282	3.987219	0.819651	0.699314	0.278604	-0.315041	0.008573	0.262103	-0.670898	-0.192627	-0.874023	0.092359	0.013477	0.039847	0.857195	0.087983	-0.502409	0.071142	9.393082	-60.908347	3.957690
24097		9.214864	1.117222	4.026288	0.816937	0.522087	0.258698	-0.370605	0.055449	0.246827	-0.685303	-0.187012	-0.880371	0.092146	0.011360	0.040216	0.857398	0.085709	-0.502429	0.071323	8.907976	-60.902054	4.266633
24098		9.088945	0.740081	3.981254	0.873281	0.199427	0.097131	-0.391654	0.088189	0.238753	-0.669434	-0.170410	-0.888916	0.090898	0.007587	0.039758	0.857692	0.083353	-0.502309	0.071430	8.414530	-60.875029	4.571339
24099		8.979647	0.346846	4.033340	0.859738	-0.159463	-0.001598	-0.404311	0.113926	0.241144	-0.680908	-0.171387	-0.886475	0.089815	0.003658	0.040275	0.858049	0.080927	-0.502082	0.071526	7.908166	-60.832515	4.882665
24100		8.817358	0.061508	4.076495	0.806497	-0.413086	-0.140760	-0.399015	0.133821	0.247942	-0.677734	-0.162354	-0.890381	0.088200	0.000806	0.040704	0.858448	0.078494	-0.501766	0.071667	7.396269	-60.777549	5.203115
24101		8.800053	-0.203308	4.061882	0.868179	-0.629337	-0.177791	-0.364823	0.128838	0.252131	-0.669922	-0.163086	-0.883545	0.088029	-0.001848	0.040566	0.858813	0.076204	-0.501459	0.071915	6.902002	-60.724669	5.526818
24102		8.886304	-0.359300	4.111793	0.902673	-0.749332	-0.085103	-0.302788	0.121018	0.255560	-0.675781	-0.156006	-0.883301	0.088892	-0.003417	0.041069	0.859130	0.074171	-0.501161	0.072326	6.442053	-60.674918	5.851505
24103		8.749752	-0.520259	4.099513	0.883403	-0.873918	-0.216303	-0.269034	0.146766	0.261842	-0.671631	-0.152100	-0.890381	0.087534	-0.005033	0.040938	0.859492	0.072260	-0.500742	0.072862	5.993676	-60.609866	6.185871
24104		8.658116	-0.664257	4.160925	0.821208	-0.996484	-0.270672	-0.197645	0.141133	0.261833	-0.669189	-0.153320	-0.896729	0.086619	-0.006488	0.041555	0.859812	0.070655	-0.500319	0.073570	5.588337	-60.546679	6.517505
24105		8.678981	-0.722617	4.215806	0.802451	-1.030317	-0.225491	-0.145057	0.128709	0.264862	-0.673340	-0.145020	-0.898193	0.086826	-0.007081	0.042107	0.860077	0.069276	-0.499930	0.074422	5.212813	-60.489758	6.850192
24106		8.721433	-0.784677	4.185778	0.867883	-1.052578	-0.203388	-0.070056	0.135024	0.257401	-0.669189	-0.142334	-0.893555	0.087253	-0.007720	0.041802	0.860334	0.068233	-0.499480	0.075429	4.888452	-60.427587	7.173220
24107		8.725675	-0.736935	4.208689	0.849042	-0.983227	-0.184298	0.010711	0.126905	0.255295	-0.666504	-0.139404	-0.890381	0.087293	-0.007260	0.042031	0.860541	0.067548	-0.499034	0.076628	4.614503	-60.369391	7.492123
24108		8.754000	-0.740549	4.235750	0.850082	-0.966476	-0.144919	0.056618	0.142992	0.240799	-0.664307	-0.143799	-0.895996	0.087579	-0.007312	0.042293	0.860776	0.067087	-0.498496	0.077881	4.381006	-60.300526	7.794339
24109		8.772165	-0.669940	4.249163	0.844698	-0.877997	-0.118841	0.109199	0.148468	0.226619	-0.667236	-0.144287	-0.894531	0.087761	-0.006623	0.042423	0.861011	0.066889	-0.497907	0.079210	4.192897	-60.227506	8.079799
24110		8.759398	-0.593265	4.176725	0.895770	-0.772479	-0.162563	0.156030	0.133956	0.208818	-0.673584	-0.141113	-0.901855	0.087628	-0.005874	0.041704	0.861200	0.066941	-0.497355	0.080572	4.051413	-60.161489	8.342465
24111		8.825771	-0.440794	4.194618	0.892608	-0.608836	-0.090758	0.213347	0.114367	0.186630	-0.670654	-0.138672	-0.890137	0.088286	-0.004370	0.041891	0.861327	0.067304	-0.496856	0.081975	3.967080	-60.105673	8.577438
24112		8.942970	-0.245246	4.325802	0.808268	-0.425246	0.082527	0.232077	0.100629	0.168939	-0.668213	-0.151855	-0.891357	0.089454	-0.002427	0.043210	0.861419	0.067794	-0.496403	0.083342	3.912161	-60.056953	8.790484
24113		9.005416	-0.050684	4.433869	0.715294	-0.245083	0.196686	0.248238	0.091689	0.150454	-0.665527	-0.146240	-0.893311	0.090075	-0.000494	0.044297	0.861488	0.068406	-0.495973	0.084669	3.886219	-60.012466	8.981366
24114		9.053060	0.109517	4.420385	0.724031	-0.077999	0.236163	0.260214	0.091593	0.126597	-0.667969	-0.148682	-0.894287	0.090550	0.001095	0.044164	0.861562	0.069129	-0.495530	0.085923	3.891097	-59.967165	9.144847
24115		9.084493	0.289941	4.308022	0.802689	0.125211	0.212838	0.260652	0.080421	0.099176	-0.666748	-0.151611	-0.901611	0.090861	0.002888	0.043047	0.861617	0.069927	-0.495123	0.087055	3.924260	-59.927131	9.275830
24116		9.001666	0.459806	4.243873	0.787043	0.297688	0.114236	0.245892	0.115108	0.078431	-0.657959	-0.140137	-0.898438	0.090039	0.004581	0.042393	0.861771	0.070696	-0.494566	0.088073	3.967117	-59.866534	9.385828
24117		8.829041	0.461751	4.299830	0.664517	0.273425	-0.007721	0.233390	0.117997	0.066004	-0.656738	-0.150879	-0.890869	0.088314	0.004597	0.042952	0.861941	0.071441	-0.493996	0.089007	4.015114	-59.803796	9.481736
24118		8.752402	0.364592	4.235464	0.711908	0.184854	-0.110336	0.238787	0.095192	0.061069	-0.669189	-0.147217	-0.900391	0.087543	0.003622	0.042317	0.862053	0.072227	-0.493519	0.089922	4.072215	-59.753892	9.570036
24119		8.683664	0.298771	4.119105	0.798189	0.137852	-0.231133	0.247325	0.080109	0.059697	-0.656006	-0.161621	-0.898193	0.086852	0.002963	0.041160	0.862124	0.073065	-0.493103	0.090850	4.137160	-59.712643	9.655664
24120		8.661924	0.238156	3.964726	0.937589	0.107909	-0.330389	0.260240	0.074146	0.058710	-0.660889	-0.160889	-0.894287	0.086633	0.002355	0.039618	0.862174	0.073961	-0.492705	0.091802	4.210699	-59.674872	9.739673
24121		8.587173	0.187834	3.807921	1.049318	0.083354	-0.476357	0.275078	0.054632	0.046072	-0.664307	-0.158936	-0.898682	0.085882	0.001846	0.038058	0.862175	0.074963	-0.492378	0.092729	4.306724	-59.647716	9.807777
24122		8.601858	0.245513	3.597326	1.222688	0.182470	-0.567974	0.296602	0.017658	0.049678	-0.659180	-0.166016	-0.889404	0.086021	0.002423	0.035969	0.862072	0.076065	-0.492203	0.093711	4.414135	-59.642075	9.876907
24123		8.629018	0.314936	3.462369	1.332489	0.276899	-0.609702	0.320086	-0.020273	0.054445	-0.664795	-0.166748	-0.893066	0.086286	0.003117	0.034637	0.861864	0.077276	-0.492179	0.094757	4.533349	-59.658209	9.948031
24124		8.687409	0.334108	3.146221	1.616232	0.366315	-0.716808	0.342100	-0.072901	0.066221	-0.661621	-0.171387	-0.891357	0.086862	0.003316	0.031500	0.861508	0.078577	-0.492377	0.095888	4.657779	-59.705299	10.027851
24125		8.804049	0.253967	2.915662	1.876140	0.345894	-0.733188	0.366871	-0.136205	0.078004	-0.669922	-0.177246	-0.885010	0.088020	0.002520	0.029221	0.860979	0.079985	-0.492836	0.097105	4.789996	-59.788901	10.114883
24126		8.941148	0.159334	2.687594	2.143098	0.313198	-0.729643	0.394852	-0.178835	0.080611	-0.668701	-0.175781	-0.887207	0.089387	0.001576	0.026959	0.860327	0.081530	-0.493467	0.098386	4.939444	-59.897471	10.200834
24127		9.120769	-0.004831	2.469443	2.437085	0.215672	-0.685767	0.408895	-0.214287	0.087628	-0.665527	-0.177734	-0.890381	0.091181	-0.000059	0.024792	0.859576	0.083133	-0.494241	0.099715	5.093091	-60.026344	10.290736
24128		9.248576	-0.146592	2.267116	2.684245	0.132463	-0.676239	0.452084	-0.248835	0.090937	-0.665283	-0.175293	-0.884033	0.092458	-0.001475	0.022783	0.858713	0.084930	-0.495143	0.101151	5.271406	-60.175563	10.380570
24129		9.305454	-0.295913	2.164855	2.813257	0.011727	-0.677534	0.466414	-0.280992	0.094247	-0.678955	-0.177002	-0.886230	0.093025	-0.002966	0.021772	0.857758	0.086796	-0.496171	0.102621	5.458088	-60.343113	10.470113
24130		9.454917	-0.468184	2.187840	2.887905	-0.153744	-0.537042	0.500646	-0.294602	0.103009	-0.674561	-0.180908	-0.873047	0.094519	-0.004688	0.022006	0.856742	0.088789	-0.497243	0.104205	5.656758	-60.519477	10.567559
24131		9.805373	-0.483694	3.045057	2.322922	-0.365257	0.193423	0.523297	-0.280535	0.114658	-0.680176	-0.197754	-0.862549	0.098014	-0.004861	0.030575	0.855738	0.090846	-0.498241	0.105903	5.856270	-60.688240	10.679480
24132		10.293828	-0.149572	3.297916	2.232989	-0.073792	0.764164	0.423521	-0.220821	0.137526	-0.686279	-0.183105	-0.868652	0.102903	-0.001495	0.033090	0.854906	0.092388	-0.499047	0.107477	5.969088	-60.825203	10.825139
24133		10.643362	-0.019213	2.982335	2.605478	0.165929	0.927879	0.341377	-0.180542	0.169176	-0.681396	-0.201660	-0.865479	0.106407	-0.000153	0.029919	0.854195	0.093477	-0.499732	0.108999	5.997949	-60.940459	11.012780
24134		10.925381	0.503338	3.325387	2.283786	0.604272	1.371883	0.325383	-0.199854	0.190747	-0.687500	-0.198486	-0.856445	0.109216	0.005083	0.033371	0.853424	0.094452	-0.500522	0.110563	5.996361	-61.068792	11.224272
24135		11.018314	1.023894	4.461657	1.210150	0.808009	2.029635	0.227301	-0.116100	0.194123	-0.675293	-0.196533	-0.862549	0.110147	0.010295	0.044692	0.852907	0.094955	-0.501003	0.111935	5.925538	-61.148773	11.450706
24136		10.912497	1.562313	5.006704	0.539877	1.177009	2.225321	0.050706	0.037739	0.191264	-0.690918	-0.203125	-0.860840	0.109119	0.015715	0.050050	0.852856	0.094626	-0.500930	0.112927	5.739429	-61.141368	11.693174
24137		10.151124	2.064510	5.463627	-0.341050	1.484894	1.799264	-0.157996	0.179650	0.199193	-0.675537	-0.195068	-0.861084	0.101540	0.020789	0.054529	0.853256	0.093306	-0.500367	0.113496	5.411917	-61.052243	11.960676
24138		9.325463	2.284302	6.788693	-1.886899	1.291924	1.721567	-0.308693	0.185689	0.204990	-0.683350	-0.190674	-0.870117	0.093294	0.023043	0.067765	0.853732	0.091328	-0.499869	0.113716	4.993500	-60.959844	12.233885
24139		8.734269	2.606859	7.254220	-2.646569	1.462707	1.437327	-0.418985	-0.024609	0.212672	-0.687256	-0.187256	-0.857666	0.087306	0.026313	0.072498	0.853728	0.088976	-0.500328	0.113596	4.523585	-60.986153	12.493550
24140		7.909513	2.475522	6.362476	-2.274606	1.534270	0.269062	-0.481193	-0.195960	0.225203	-0.683594	-0.172363	-0.862549	0.079005	0.024997	0.063642	0.853306	0.086426	-0.501561	0.113296	4.017162	-61.110532	12.754068
24141		7.063109	1.762603	6.234945	-2.393793	0.834301	-0.569185	-0.432963	-0.224628	0.213622	-0.687744	-0.166992	-0.864990	0.070542	0.017836	0.062390	0.852795	0.084125	-0.502875	0.113055	3.549268	-61.249083	13.001768
24142		6.295846	1.160902	6.866353	-3.145363	0.044505	-0.967534	-0.347174	-0.270750	0.186376	-0.691650	-0.161133	-0.870605	0.062855	0.011787	0.068728	0.852139	0.082280	-0.504326	0.112889	3.158209	-61.412737	13.216915
24143		5.946790	0.334953	6.719260	-2.989496	-0.724753	-1.376902	-0.279841	-0.327132	0.162290	-0.693359	-0.158936	-0.854492	0.059355	0.003492	0.067285	0.851324	0.080818	-0.505963	0.112770	2.831335	-61.606744	13.403206
24144		5.852080	-0.328233	6.480346	-2.682156	-1.295317	-1.598214	-0.180919	-0.290194	0.142048	-0.700439	-0.154541	-0.855469	0.058429	-0.003182	0.064891	0.850569	0.079803	-0.507380	0.112827	2.577324	-61.779031	13.570126
24145		5.853995	-0.822315	6.081030	-2.235338	-1.658961	-1.801730	-0.106854	-0.244041	0.132316	-0.705811	-0.156982	-0.855957	0.058471	-0.008152	0.060886	0.849906	0.079105	-0.508549	0.113051	2.372151	-61.923919	13.730203
24146		6.254764	-1.050955	5.554887	-1.567035	-1.696376	-1.704049	0.007140	-0.250638	0.143847	-0.699707	-0.155029	-0.861572	0.062486	-0.010467	0.055627	0.849170	0.078863	-0.509690	0.113609	2.218066	-62.073086	13.905734
24147		6.887359	-0.876242	5.522273	-1.318999	-1.445535	-1.159962	0.077655	-0.192732	0.160485	-0.700928	-0.161377	-0.849854	0.068827	-0.008729	0.055286	0.848545	0.078848	-0.510546	0.114442	2.082804	-62.188773	14.105899
24148		7.404959	-0.455665	5.789297	-1.440529	-1.044581	-0.571977	0.071329	-0.089710	0.160229	-0.696533	-0.150146	-0.848145	0.074027	-0.004518	0.057925	0.848184	0.078747	-0.510969	0.115298	1.938918	-62.245405	14.311409
24149		7.955446	0.219539	6.022639	-1.585530	-0.384498	0.033518	0.054985	-0.053036	0.137105	-0.707031	-0.154297	-0.850342	0.079537	0.002233	0.060248	0.847936	0.078615	-0.511235	0.116029	1.809101	-62.280204	14.490504
24150		8.464255	0.908449	5.948740	-1.494314	0.362297	0.458250	-0.019021	-0.081768	0.094092	-0.709717	-0.148438	-0.841309	0.084614	0.009130	0.059521	0.847667	0.078293	-0.511651	0.116376	1.683908	-62.330705	14.615992
24151		8.857824	1.663183	5.811848	-1.426496	1.173486	0.751063	-0.077284	-0.180873	0.039784	-0.714355	-0.148193	-0.846191	0.088522	0.016672	0.058192	0.847200	0.077924	-0.512497	0.116306	1.587756	-62.436781	14.671366
24152		9.314397	2.337288	5.687799	-1.324788	1.907815	1.104139	-0.168801	-0.231448	-0.048413	-0.710449	-0.149902	-0.843018	0.093084	0.023398	0.056966	0.846687	0.077419	-0.513578	0.115606	1.536772	-62.570759	14.616196
24153		9.496349	2.709468	5.466815	-1.176244	2.341592	1.166443	-0.276971	-0.201247	-0.140538	-0.706055	-0.154297	-0.845947	0.094927	0.027104	0.054726	0.846346	0.076678	-0.514554	0.114251	1.525410	-62.685697	14.447132
24154		9.262815	2.840693	5.528396	-1.377912	2.423950	0.988159	-0.365488	-0.164196	-0.247986	-0.716797	-0.144531	-0.850830	0.092618	0.028393	0.055308	0.846191	0.075818	-0.515381	0.112227	1.582440	-62.777815	14.144160
24155		8.906209	2.785912	5.658213	-1.636081	2.294822	0.730285	-0.439197	-0.182499	-0.357551	-0.716797	-0.145752	-0.842041	0.089060	0.027824	0.056602	0.846073	0.074937	-0.516281	0.109543	1.721420	-62.878268	13.701929
24156		8.811855	2.587287	5.392428	-1.403062	2.144467	0.524322	-0.459850	-0.273820	-0.467141	-0.707275	-0.142822	-0.836182	0.088105	0.025791	0.053986	0.845777	0.074300	-0.517533	0.106303	1.977631	-63.028415	13.114888
24157		9.011890	2.300501	5.136152	-1.031353	1.924277	0.585385	-0.463038	-0.341566	-0.562643	-0.718750	-0.146484	-0.844482	0.090096	0.022871	0.051462	0.845346	0.073933	-0.519029	0.102628	2.348162	-63.213703	12.398899
24158		9.028757	1.811554	5.021239	-0.815217	1.446076	0.543817	-0.485170	-0.325732	-0.635450	-0.722168	-0.145752	-0.835693	0.090263	0.017951	0.050316	0.844988	0.073651	-0.520434	0.098588	2.795952	-63.385759	11.583071
24159		9.049954	1.120410	4.836638	-0.490728	0.779777	0.468412	-0.456780	-0.299543	-0.691221	-0.723877	-0.142578	-0.837158	0.090465	0.011002	0.048477	0.844698	0.073621	-0.521684	0.094397	3.330079	-63.537962	10.690368
24160		8.920501	0.741474	4.856047	-0.485475	0.351836	0.353268	-0.428958	-0.236477	-0.723883	-0.717773	-0.145508	-0.835449	0.089174	0.007196	0.048650	0.844562	0.073761	-0.522633	0.090159	3.921052	-63.649132	9.752658
24161		8.761055	0.249525	4.839870	-0.436958	-0.181605	0.188242	-0.380692	-0.204134	-0.722486	-0.719238	-0.147705	-0.831299	0.087570	0.002271	0.048484	0.844477	0.074087	-0.523414	0.086066	4.540995	-63.737333	8.814645
24162		8.624689	-0.122470	4.709030	-0.309878	-0.572516	-0.007014	-0.320545	-0.213839	-0.701020	-0.729004	-0.149902	-0.832520	0.086192	-0.001451	0.047185	0.844321	0.074612	-0.524209	0.082213	5.177017	-63.827534	7.897450
24163		8.348302	-0.167045	4.558907	-0.301685	-0.648432	-0.326170	-0.217944	-0.216378	-0.655189	-0.715820	-0.142090	-0.836182	0.083428	-0.001894	0.045681	0.844089	0.075451	-0.524983	0.078824	5.823763	-63.917183	7.034887
24164		8.205869	-0.285729	4.640781	-0.424507	-0.835822	-0.427818	-0.149397	-0.262224	-0.606488	-0.719238	-0.153320	-0.831055	0.081989	-0.003071	0.046518	0.843683	0.076465	-0.525935	0.075797	6.464178	-64.031626	6.223021
24165		8.351866	-0.383170	4.570379	-0.299059	-0.955988	-0.337179	-0.076429	-0.327722	-0.550912	-0.731201	-0.153076	-0.828613	0.083433	-0.004044	0.045842	0.843045	0.077669	-0.527151	0.073175	7.097333	-64.183169	5.467421
24166		8.445785	-0.206772	4.558545	-0.308858	-0.823310	-0.253351	-0.026480	-0.353512	-0.488901	-0.727539	-0.158936	-0.830322	0.084372	-0.002268	0.045735	0.842290	0.078925	-0.528477	0.070932	7.698150	-64.350344	4.779841
24167		8.665670	-0.166509	4.407687	-0.115556	-0.788142	-0.121736	-0.001001	-0.343126	-0.428026	-0.731201	-0.161377	-0.816895	0.086577	-0.001850	0.044225	0.841523	0.080127	-0.529769	0.069020	8.247694	-64.513495	4.166896
24168		9.061104	0.039365	4.412448	-0.018057	-0.616168	0.246869	0.036690	-0.341008	-0.361177	-0.730957	-0.174316	-0.827393	0.090536	0.000222	0.044279	0.840718	0.081306	-0.531064	0.067485	8.745946	-64.678651	3.634910
24169		9.550481	0.292731	4.248727	0.257011	-0.358011	0.635024	0.044002	-0.327082	-0.287614	-0.733154	-0.165039	-0.828369	0.095439	0.002781	0.042644	0.839917	0.082318	-0.532324	0.066289	9.163735	-64.840686	3.197796
24170		9.815039	0.371688	4.118608	0.445984	-0.278626	0.824956	0.048405	-0.210521	-0.236150	-0.730225	-0.173828	-0.822266	0.098111	0.003591	0.041290	0.839407	0.083171	-0.533110	0.065365	9.503644	-64.940116	2.849530
24171		9.586685	0.535980	4.103010	0.316107	-0.144815	0.623094	0.062677	-0.150825	-0.191138	-0.729736	-0.173096	-0.822021	0.095841	0.005255	0.041104	0.839031	0.083946	-0.533661	0.064696	9.787191	-65.009592	2.573142
24172		9.663679	0.586615	3.969585	0.447225	-0.086980	0.641058	0.067445	-0.102624	-0.169061	-0.738037	-0.175293	-0.821289	0.096621	0.005771	0.039747	0.838776	0.084664	-0.534015	0.064149	10.037999	-65.053243	2.335608
24173		9.584792	0.472621	3.858036	0.533202	-0.194032	0.514659	0.070048	0.001485	-0.152127	-0.733887	-0.178467	-0.816650	0.095852	0.004640	0.038581	0.838790	0.085317	-0.533940	0.063727	10.247564	-65.039735	2.145638
24174		9.164696	0.473614	3.907020	0.318685	-0.223272	0.153723	0.051866	0.072822	-0.124225	-0.735107	-0.175293	-0.819580	0.091664	0.004669	0.039038	0.838993	0.085794	-0.533583	0.063401	10.397056	-64.988537	2.010026
24175		8.749371	0.428942	3.955247	0.116935	-0.292884	-0.206440	0.045626	0.044772	-0.101214	-0.734863	-0.174072	-0.824463	0.087505	0.004236	0.039534	0.839116	0.086194	-0.533355	0.063146	10.520798	-64.955493	1.899214
24176		8.499159	0.379982	3.648116	0.294560	-0.286956	-0.565000	0.045322	-0.026712	-0.071918	-0.738037	-0.183350	-0.827881	0.084988	0.003761	0.036493	0.839040	0.086534	-0.533440	0.062978	10.624825	-64.965600	1.809238
24177		8.487947	0.295320	3.470132	0.460535	-0.338652	-0.655859	0.058448	-0.067728	-0.046118	-0.733887	-0.174316	-0.820557	0.084868	0.002923	0.034731	0.838839	0.086877	-0.533704	0.062940	10.714803	-65.001571	1.743805
24178		8.439491	0.320479	3.487621	0.413418	-0.323557	-0.690429	0.067882	-0.078848	-0.015777	-0.735840	-0.177979	-0.818115	0.084381	0.003186	0.034911	0.838596	0.087178	-0.534024	0.063045	10.776259	-65.046895	1.715237
24179		8.514733	0.315823	3.265074	0.634499	-0.282606	-0.714409	0.074200	-0.105626	0.019458	-0.730225	-0.178955	-0.820313	0.085130	0.003154	0.032697	0.838267	0.087424	-0.534470	0.063307	10.804998	-65.111172	1.727332
24180		8.611995	0.396956	3.037366	0.850589	-0.154024	-0.713105	0.087800	-0.103391	0.049103	-0.736328	-0.182129	-0.819092	0.086103	0.003977	0.030420	0.837928	0.087643	-0.534915	0.063727	10.804932	-65.177287	1.779136
24181		8.645134	0.416829	2.949596	0.928681	-0.113520	-0.716706	0.105814	-0.077821	0.080494	-0.739990	-0.183350	-0.819336	0.086438	0.004187	0.029532	0.837639	0.087849	-0.535261	0.064342	10.770897	-65.232460	1.880320
24182		8.613212	0.563075	2.965605	0.863815	0.029502	-0.726861	0.132406	-0.050160	0.109236	-0.737305	-0.177246	-0.819824	0.086122	0.005658	0.029681	0.837402	0.088078	-0.535494	0.065157	10.710361	-65.275055	2.027029
24183		8.597568	0.644557	2.875668	0.915073	0.134611	-0.771248	0.130354	-0.006910	0.123904	-0.737793	-0.175537	-0.820068	0.085971	0.006480	0.028764	0.837277	0.088248	-0.535553	0.066050	10.620350	-65.294814	2.205246
24184		8.502762	0.729378	2.768958	0.950906	0.247986	-0.894708	0.115084	0.043424	0.142420	-0.743652	-0.185303	-0.813965	0.085028	0.007338	0.027675	0.837286	0.088282	-0.535415	0.066997	10.487094	-65.287981	2.420568
24185		8.382170	0.904553	2.755143	0.877002	0.430583	-0.997062	0.104586	0.053074	0.152587	-0.734375	-0.169434	-0.812744	0.083822	0.009095	0.027534	0.837322	0.088247	-0.535243	0.067968	10.333545	-65.276575	2.652483
24186		8.183450	1.022819	2.821779	0.709761	0.538412	-1.141828	0.101981	0.025981	0.155222	-0.742188	-0.175537	-0.815430	0.081830	0.010277	0.028212	0.837284	0.088199	-0.535188	0.068926	10.181322	-65.280565	2.880649
24187		8.176734	1.056335	3.092808	0.457870	0.521252	-1.034366	0.087960	0.010382	0.147249	-0.740234	-0.181885	-0.817139	0.081761	0.010610	0.030928	0.837213	0.088123	-0.535197	0.069811	10.034210	-65.292191	3.094984
24188		8.217546	1.085884	3.269887	0.310689	0.522512	-0.922817	0.020624	0.041614	0.135782	-0.731934	-0.171631	-0.818604	0.082175	0.010911	0.032683	0.837258	0.087782	-0.535095	0.070478	9.855829	-65.284913	3.300719
24189		8.427268	0.915965	3.588333	0.154642	0.303411	-0.613884	-0.021192	0.072445	0.116977	-0.732666	-0.177246	-0.818604	0.084280	0.009213	0.035852	0.837410	0.087307	-0.534869	0.070971	9.670185	-65.258014	3.488648
24190		8.849654	0.926261	3.928809	0.032801	0.262440	-0.089524	-0.082726	0.091643	0.102190	-0.734375	-0.177979	-0.822266	0.088510	0.009324	0.039244	0.837646	0.086605	-0.534578	0.071241	9.463876	-65.218573	3.659807
24191		9.216774	0.927007	3.987099	0.141253	0.275993	0.267445	-0.128736	0.101204	0.092630	-0.736572	-0.166504	-0.820557	0.092184	0.009338	0.039818	0.837930	0.085735	-0.534258	0.071357	9.241617	-65.172586	3.820306
24192		9.538153	1.142784	3.907165	0.307872	0.527964	0.539834	-0.104056	0.086084	0.064953	-0.730225	-0.156738	-0.816406	0.095395	0.011479	0.039025	0.838172	0.085044	-0.533981	0.071412	9.070943	-65.132430	3.938890
24193		9.805702	1.369696	3.831730	0.446967	0.785073	0.765303	-0.076089	0.102397	0.035862	-0.739990	-0.166504	-0.822998	0.098074	0.013729	0.038262	0.838455	0.084546	-0.533613	0.071431	8.949033	-65.080272	4.022132
24194		9.897672	1.443217	3.625746	0.662970	0.913782	0.766456	-0.089549	0.127472	0.014353	-0.735596	-0.163818	-0.821289	0.098999	0.014455	0.036188	0.838819	0.084034	-0.533136	0.071327	8.841039	-65.012076	4.080390
24195		9.851813	1.293713	3.328772	0.950162	0.839279	0.589496	-0.130428	0.133250	-0.009650	-0.739502	-0.159912	-0.826416	0.098541	0.012954	0.033214	0.839222	0.083418	-0.532638	0.071024	8.738291	-64.938329	4.108214
24196		9.822163	1.137696	2.944648	1.321626	0.776050	0.389824	-0.198572	0.106649	-0.032782	-0.729004	-0.164063	-0.831055	0.098239	0.011390	0.029383	0.839591	0.082583	-0.532267	0.070424	8.629736	-64.877811	4.098331
24197		9.724703	1.041932	2.380809	1.807395	0.805076	0.056907	-0.276620	0.062574	-0.061936	-0.731934	-0.159912	-0.831787	0.097258	0.010422	0.023763	0.839883	0.081517	-0.532094	0.069482	8.519933	-64.839595	4.041448
24198		9.782651	0.913540	2.049248	2.156028	0.751581	-0.039208	-0.298291	-0.007542	-0.107886	-0.724609	-0.164551	-0.823730	0.097831	0.009113	0.020483	0.840012	0.080504	-0.532204	0.068254	8.465989	-64.837351	3.908231
24199		10.081148	1.080204	1.896815	2.385718	0.948474	0.177460	-0.319419	-0.044607	-0.169233	-0.730469	-0.161865	-0.827881	0.100816	0.010747	0.018973	0.840069	0.079580	-0.532449	0.066705	8.480520	-64.850860	3.686887
24200		10.645989	1.163042	1.468216	2.990862	1.118830	0.514381	-0.381290	-0.034005	-0.235049	-0.737549	-0.147705	-0.827393	0.106471	0.011533	0.014678	0.840196	0.078568	-0.532644	0.064713	8.537659	-64.852942	3.378863
24201		10.958140	1.415545	0.772869	3.698788	1.491697	0.520544	-0.370734	0.011988	-0.293628	-0.731201	-0.158691	-0.840332	0.109603	0.014009	0.007696	0.840457	0.077741	-0.532615	0.062525	8.662496	-64.823522	3.003155
24202		11.375042	1.736608	1.946947	2.798486	1.554080	1.410107	-0.201809	0.180602	-0.389423	-0.731445	-0.158447	-0.831543	0.113801	0.017164	0.019349	0.841126	0.077822	-0.531788	0.060442	8.966460	-64.689980	2.535075
24203		11.264506	2.310241	4.152334	0.748842	1.652443	2.277650	-0.388206	0.490577	-0.539855	-0.718994	-0.152832	-0.834473	0.112808	0.022878	0.041202	0.842728	0.077428	-0.529645	0.057359	9.277129	-64.365994	1.941476
24204		10.618841	1.499970	3.801372	1.005076	0.888570	1.485975	-0.789049	0.559268	-0.646605	-0.710938	-0.154785	-0.841797	0.106342	0.014805	0.037658	0.844676	0.075604	-0.527277	0.052782	9.458862	-63.992538	1.233337
24205		9.837562	0.891873	2.447394	2.025251	0.500992	0.147726	-0.674129	0.325395	-0.648344	-0.709229	-0.150635	-0.843262	0.098444	0.008682	0.024284	0.845941	0.074332	-0.525846	0.048418	9.741844	-63.749381	0.484806
24206		8.801760	0.803833	4.450771	-0.142216	0.023111	0.082033	-0.356288	0.333435	-0.583021	-0.706543	-0.148193	-0.845459	0.088115	0.007861	0.044347	0.847076	0.074226	-0.524322	0.045160	10.121399	-63.506574	-0.170788
24207		7.744552	1.333858	8.414534	-4.140306	-0.153894	0.929543	-0.447137	0.449434	-0.594004	-0.698486	-0.148438	-0.847168	0.077674	0.013296	0.083941	0.848538	0.073741	-0.522312	0.041668	10.427238	-63.195180	-0.802755
24208		7.526109	0.348115	8.923963	-4.496927	-1.197264	0.899206	-0.789243	0.303485	-0.658772	-0.690674	-0.150879	-0.858887	0.075408	0.003585	0.089111	0.849737	0.071996	-0.520959	0.036943	10.629749	-62.958307	-1.541493
24209		8.316647	-0.953132	8.671893	-3.717029	-2.446174	1.388951	-0.493752	0.105187	-0.740844	-0.692383	-0.142090	-0.858398	0.083177	-0.009625	0.086699	0.850310	0.071760	-0.520348	0.032576	11.125389	-62.821766	-2.419273
24210		8.940784	-0.581354	9.280374	-3.996884	-2.216857	2.250112	-0.246974	0.245267	-0.814697	-0.693848	-0.144531	-0.863770	0.089497	-0.006063	0.092701	0.851154	0.072736	-0.519066	0.028578	11.803020	-62.594049	-3.345491
24211		8.693058	-1.838732	8.449454	-3.186475	-3.366321	1.538852	-0.338537	0.436797	-0.835870	-0.683350	-0.157227	-0.862305	0.087037	-0.018608	0.084336	0.852512	0.073354	-0.516962	0.024331	12.392086	-62.251827	-4.232048
24212		7.148551	-2.832127	7.362493	-2.795325	-4.175741	-0.427697	0.040155	0.365045	-0.745764	-0.686035	-0.154053	-0.864014	0.071513	-0.028603	0.073489	0.853518	0.075355	-0.515141	0.021411	13.102124	-61.956524	-5.013803
24213		5.603452	-1.971166	7.468450	-3.679838	-3.330460	-1.662324	0.331030	0.255510	-0.615614	-0.685303	-0.164551	-0.868652	0.056069	-0.020008	0.074580	0.854105	0.078279	-0.513797	0.019762	13.856176	-61.734936	-5.657109
24214		5.342310	-0.737583	7.685246	-4.107495	-2.192779	-1.659950	0.522471	0.180968	-0.486189	-0.679688	-0.167480	-0.861816	0.053474	-0.007706	0.076784	0.854401	0.081687	-0.512797	0.019122	14.595897	-61.569150	-6.161856
24215		5.904641	0.537227	7.591519	-3.883792	-1.012302	-1.056229	0.554733	0.212932	-0.385091	-0.680664	-0.183838	-0.869385	0.059137	0.005048	0.075867	0.854745	0.084977	-0.511691	0.019016	15.235850	-61.397594	-6.531640
24216		6.876372	1.425031	7.046298	-3.026463	-0.161007	-0.337469	0.551644	0.274526	-0.308493	-0.672119	-0.189941	-0.864746	0.068882	0.013950	0.070407	0.855232	0.088045	-0.510349	0.019249	15.773610	-61.201924	-6.788593
24217		7.968429	2.072981	6.670070	-2.225688	0.425062	0.538558	0.495831	0.339079	-0.238307	-0.669189	-0.188477	-0.875488	0.079822	0.020470	0.066616	0.855891	0.090693	-0.508761	0.019674	16.186315	-60.980789	-6.938722
24218		8.743534	2.431081	6.374457	-1.605236	0.740542	1.135728	0.406370	0.371972	-0.175200	-0.666748	-0.193115	-0.863770	0.087575	0.024105	0.063631	0.856662	0.092789	-0.507065	0.020150	16.472109	-60.751093	-7.003597
24219		9.076654	2.414644	6.415795	-1.440498	0.668665	1.450362	0.262229	0.341970	-0.086590	-0.671143	-0.197266	-0.873535	0.090887	0.024023	0.064034	0.857408	0.094051	-0.505550	0.020633	16.595767	-60.552417	-6.976314
24220		9.032902	2.414756	6.392214	-1.409660	0.663918	1.405903	0.144738	0.279478	0.014279	-0.651611	-0.206543	-0.877686	0.090417	0.024108	0.063813	0.858039	0.094554	-0.504360	0.021214	16.571964	-60.404412	-6.858006
24221		9.032110	2.156209	6.431568	-1.386816	0.405979	1.390223	0.048166	0.196575	0.100163	-0.648682	-0.194580	-0.866943	0.090373	0.021592	0.064232	0.858494	0.094441	-0.503577	0.021889	16.434725	-60.315997	-6.671584
24222		9.228584	1.790361	6.203055	-1.030676	0.091311	1.402453	0.024239	0.132950	0.174862	-0.654785	-0.199463	-0.878906	0.092311	0.017977	0.061971	0.858793	0.094039	-0.503102	0.022787	16.230501	-60.274005	-6.424671
24223		9.236389	1.248799	5.880534	-0.669559	-0.360782	1.181518	0.007583	0.088522	0.230943	-0.661865	-0.196533	-0.876953	0.092375	0.012592	0.058765	0.858979	0.093434	-0.502847	0.023869	15.975697	-60.265213	-6.129473
24224		8.988877	0.591029	5.488729	-0.362628	-0.896039	0.691642	0.010058	0.065853	0.283725	-0.661621	-0.194092	-0.871338	0.089898	0.006035	0.054858	0.859101	0.092704	-0.502711	0.025167	15.677449	-60.276175	-5.783679
24225		8.542473	-0.088565	5.171987	-0.216566	-1.456146	0.064753	0.055846	0.044258	0.320179	-0.657715	-0.196533	-0.882080	0.085437	-0.000763	0.051701	0.859138	0.092087	-0.502680	0.026734	15.375819	-60.304033	-5.402789
24226		8.091080	-0.573735	4.788942	-0.042743	-1.815627	-0.569834	0.147742	0.017689	0.371443	-0.663574	-0.196533	-0.874023	0.080926	-0.005622	0.047878	0.859058	0.091734	-0.502770	0.028732	15.083112	-60.353035	-4.972725
24227		7.698944	-0.907667	4.541936	0.025173	-2.057281	-1.066619	0.238362	0.040273	0.416543	-0.675781	-0.193848	-0.875977	0.077017	-0.008970	0.045393	0.858981	0.091659	-0.502771	0.031169	14.791664	-60.395388	-4.483566
24228		7.384787	-0.953948	4.402366	0.002028	-2.042793	-1.407161	0.345970	0.052569	0.457052	-0.664551	-0.200684	-0.881104	0.073881	-0.009447	0.043988	0.858875	0.091936	-0.502715	0.034051	14.517779	-60.435366	-3.944788
24229		7.170872	-0.768591	4.403486	-0.125077	-1.834665	-1.565194	0.427400	0.074222	0.490267	-0.663086	-0.195801	-0.870117	0.071744	-0.007604	0.043992	0.858770	0.092480	-0.502564	0.037295	14.251908	-60.467037	-3.360899
24230		7.161359	-0.477103	4.561844	-0.302700	-1.561618	-1.458478	0.464022	0.103110	0.513948	-0.661621	-0.195557	-0.879883	0.071649	-0.004693	0.045571	0.858708	0.093110	-0.502286	0.040742	13.975494	-60.484297	-2.741658
24231		7.017894	-0.091305	4.370722	-0.264793	-1.124269	-1.625609	0.496243	0.120614	0.527192	-0.668457	-0.196777	-0.869873	0.070208	-0.000836	0.043663	0.858660	0.093846	-0.501927	0.044338	13.700263	-60.492469	-2.101904
24232		6.974692	0.274073	4.391887	-0.359240	-0.753378	-1.608209	0.519342	0.141055	0.528171	-0.668457	-0.203857	-0.871582	0.069771	0.002811	0.043877	0.858641	0.094667	-0.501467	0.048001	13.431801	-60.487592	-1.455629
24233		7.030763	0.479007	4.573424	-0.516646	-0.575988	-1.447367	0.512734	0.140412	0.528053	-0.662354	-0.204834	-0.877441	0.070327	0.004859	0.045697	0.858610	0.095463	-0.501006	0.051650	13.160534	-60.481859	-0.809549
24234		7.066339	0.520231	4.450734	-0.399418	-0.494189	-1.469484	0.514461	0.085759	0.515113	-0.668701	-0.207520	-0.865967	0.070669	0.005270	0.044491	0.858435	0.096310	-0.500764	0.055218	12.914960	-60.503197	-0.192458
24235		7.349717	0.599415	4.430631	-0.261405	-0.398637	-1.223109	0.525635	-0.000240	0.508503	-0.668701	-0.195557	-0.872314	0.073482	0.006065	0.044322	0.858027	0.097246	-0.500880	0.058747	12.700951	-60.570851	0.396015
24236		7.661698	0.480301	4.361723	-0.034186	-0.482376	-0.996619	0.474525	-0.020729	0.502772	-0.669434	-0.210205	-0.868164	0.076600	0.004892	0.043637	0.857586	0.097978	-0.501089	0.062109	12.465356	-60.647856	0.974480
24237		7.857760	0.408904	4.292964	0.125445	-0.516072	-0.865116	0.453604	-0.029223	0.500516	-0.670410	-0.205078	-0.873047	0.078561	0.004188	0.042951	0.857122	0.098631	-0.501335	0.065407	12.220230	-60.728402	1.550436
24238		8.177522	0.468092	4.240329	0.302991	-0.422244	-0.603929	0.447092	-0.045471	0.491321	-0.664307	-0.218018	-0.876709	0.081754	0.004787	0.042432	0.856615	0.099281	-0.501640	0.068639	11.981290	-60.815417	2.114015
24239		8.459767	0.787383	4.392111	0.230292	-0.123929	-0.251838	0.464845	-0.033607	0.480263	-0.679932	-0.212646	-0.863525	0.084571	0.007975	0.043954	0.856122	0.100032	-0.501879	0.071875	11.759287	-60.893706	2.669934
24240		8.688588	0.986685	4.330515	0.335233	0.107815	-0.061051	0.441225	-0.041423	0.442579	-0.670654	-0.215088	-0.868164	0.086855	0.009963	0.043345	0.855628	0.100778	-0.502133	0.074885	11.561120	-60.970641	3.182503
24241		9.068111	1.122709	3.966383	0.779175	0.357370	0.111446	0.444730	-0.063763	0.411570	-0.669678	-0.211670	-0.865479	0.090645	0.011325	0.039718	0.855077	0.101625	-0.502464	0.077760	11.399291	-61.056184	3.655599
24242		9.281302	1.345034	3.822623	0.935269	0.633520	0.251508	0.402632	-0.015984	0.391974	-0.672852	-0.208984	-0.859863	0.092783	0.013555	0.038261	0.854669	0.102319	-0.502589	0.080468	11.221531	-61.111588	4.118617
24243		9.106343	1.384679	3.850109	0.807239	0.679240	0.114705	0.297309	0.040235	0.362898	-0.673828	-0.218750	-0.868896	0.091046	0.013955	0.038503	0.854461	0.102616	-0.502502	0.082816	11.001189	-61.131809	4.561581
24244		8.822187	1.408775	3.563254	0.894874	0.786105	-0.268390	0.258681	-0.038909	0.339895	-0.681152	-0.210449	-0.860107	0.088191	0.014192	0.035668	0.854081	0.102834	-0.502752	0.084926	10.796656	-61.192928	4.960619
24245		8.968879	1.587934	3.207769	1.203097	1.076096	-0.291835	0.224946	-0.086171	0.311273	-0.678223	-0.217041	-0.861328	0.089650	0.015983	0.032134	0.853605	0.103003	-0.503203	0.086806	10.610227	-61.277297	5.317117
24246		9.150004	1.632206	3.224439	1.247098	1.140325	-0.121039	0.174908	-0.062711	0.284911	-0.679932	-0.205811	-0.860107	0.091467	0.016424	0.032287	0.853224	0.103012	-0.503559	0.088458	10.416011	-61.344923	5.649173
24247		9.161218	1.483971	3.158276	1.329473	1.033456	-0.155089	0.127168	-0.080857	0.263462	-0.684326	-0.216064	-0.863525	0.091580	0.014940	0.031629	0.852828	0.102882	-0.504003	0.089891	10.219005	-61.420233	5.953399
24248		9.142173	1.291433	3.191443	1.326857	0.855886	-0.172184	0.089926	-0.062438	0.242555	-0.676025	-0.214355	-0.853760	0.091396	0.013011	0.031949	0.852507	0.102633	-0.504372	0.091147	10.017373	-61.482343	6.237855
24249		9.007014	1.001981	3.314143	1.223292	0.555787	-0.257142	0.034892	-0.017261	0.227603	-0.685791	-0.213867	-0.859131	0.090056	0.010117	0.033151	0.852332	0.102170	-0.504566	0.092226	9.790932	-61.517171	6.515075
24250		8.846615	0.780632	3.361419	1.158261	0.340264	-0.393890	0.014582	0.009803	0.210691	-0.685791	-0.214600	-0.864502	0.088460	0.007897	0.033610	0.852242	0.101650	-0.504643	0.093194	9.565133	-61.534400	6.778133
24251		8.735558	0.611216	3.520740	1.011334	0.146128	-0.429991	0.014899	0.015638	0.190728	-0.680908	-0.206787	-0.862549	0.087352	0.006193	0.035201	0.852175	0.101180	-0.504686	0.094083	9.359068	-61.546139	7.019040
24252		8.635548	0.443669	3.556047	0.974393	-0.014698	-0.514014	0.015071	0.007394	0.166231	-0.685303	-0.208740	-0.857422	0.086353	0.004506	0.035558	0.852099	0.100774	-0.504750	0.094861	9.179782	-61.559694	7.229254
24253		8.550928	0.309312	3.596518	0.931679	-0.147240	-0.579093	0.046603	-0.006954	0.141835	-0.685791	-0.211670	-0.863525	0.085506	0.003145	0.035969	0.851981	0.100572	-0.504849	0.095609	9.046375	-61.579078	7.408128
24254		8.566140	0.333932	3.875752	0.693293	-0.187497	-0.432075	0.037831	-0.011394	0.120756	-0.684570	-0.205566	-0.860352	0.085657	0.003384	0.038763	0.851866	0.100388	-0.504959	0.096242	8.930475	-61.598804	7.561194
24255		8.577926	0.043023	3.873212	0.774826	-0.456711	-0.443830	0.003416	0.002915	0.097012	-0.686035	-0.203613	-0.860596	0.085780	0.000471	0.038731	0.851815	0.100110	-0.505014	0.096695	8.817274	-61.608284	7.688913
24256		8.550297	-0.206477	3.968416	0.745886	-0.715989	-0.440945	0.015032	0.001548	0.076893	-0.683350	-0.204834	-0.859863	0.085504	-0.002035	0.039683	0.851765	0.099931	-0.505058	0.097089	8.731686	-61.616592	7.792327
24257		8.628061	-0.199613	4.196577	0.586558	-0.759922	-0.264232	0.005193	-0.011031	0.049670	-0.683594	-0.202393	-0.853516	0.086279	-0.001976	0.041970	0.851701	0.099788	-0.505147	0.097338	8.671232	-61.629684	7.861227
24258		8.838766	-0.140866	4.031259	0.805534	-0.641950	-0.151751	0.005987	-0.036426	0.029191	-0.682617	-0.211182	-0.847168	0.088381	-0.001397	0.040329	0.851582	0.099709	-0.505334	0.097488	8.636418	-61.655322	7.901093
24259		9.018545	-0.000722	3.747136	1.088644	-0.417312	-0.116508	0.014009	-0.007877	0.015974	-0.684814	-0.210205	-0.857178	0.090184	-0.000003	0.037475	0.851537	0.099687	-0.505389	0.097617	8.615780	-61.663688	7.930473
24260		9.159376	0.249527	3.418184	1.364964	-0.077939	-0.129133	0.058716	0.026676	0.014484	-0.679443	-0.202148	-0.862305	0.091598	0.002492	0.034170	0.851558	0.099843	-0.505273	0.097872	8.616829	-61.652370	7.964525
24261		9.205288	0.608891	3.295569	1.394177	0.302371	-0.120748	0.139577	-0.003700	0.008420	-0.679688	-0.201416	-0.859863	0.092052	0.006070	0.032962	0.851465	0.100372	-0.505245	0.098288	8.675411	-61.657725	7.985639
24262		9.532312	1.052918	3.009958	1.664491	0.823318	0.065828	0.183990	-0.070759	0.012906	-0.682861	-0.220215	-0.851807	0.095312	0.010508	0.030143	0.851178	0.101108	-0.505482	0.098799	8.765042	-61.701344	7.999682
24263		10.014836	1.284282	2.678378	2.099036	1.162610	0.354043	0.166400	-0.068798	0.018712	-0.683105	-0.210693	-0.849854	0.100138	0.012830	0.026829	0.850901	0.101758	-0.505721	0.099294	8.838743	-61.744487	8.021065
24264		10.071203	1.486553	2.511170	2.204704	1.403838	0.341792	0.139740	-0.017216	0.029011	-0.693115	-0.217773	-0.852783	0.100708	0.014863	0.025131	0.850761	0.102243	-0.505760	0.099794	8.878014	-61.759449	8.064489
24265		10.252737	1.286068	2.234831	2.569159	1.298833	0.359800	0.144721	-0.085255	0.044043	-0.684570	-0.216553	-0.849609	0.102515	0.012867	0.022401	0.850439	0.102745	-0.506093	0.100334	8.915368	-61.814170	8.113011
24266		10.409625	1.137171	1.950232	2.913887	1.246111	0.356546	0.129286	-0.032576	0.055287	-0.683838	-0.222168	-0.854248	0.104090	0.011388	0.019527	0.850251	0.103127	-0.506217	0.100910	8.923344	-61.840324	8.185039
24267		10.283028	0.678603	1.880044	3.035241	0.821796	0.179694	0.093267	-0.011002	0.069465	-0.690186	-0.212158	-0.843750	0.102827	0.006813	0.018809	0.850130	0.103308	-0.506273	0.101466	8.891926	-61.855274	8.278097
24268		10.459595	0.325001	1.971776	3.133961	0.475061	0.353396	0.120230	-0.027496	0.077457	-0.687988	-0.208496	-0.845215	0.104592	0.003279	0.019734	0.849947	0.103592	-0.506391	0.102116	8.870230	-61.880558	8.377742
24269		11.399930	0.191942	4.197528	1.740440	-0.201707	2.209985	0.093238	0.069377	0.103006	-0.691650	-0.221436	-0.849609	0.114013	0.001959	0.041937	0.850011	0.103647	-0.506122	0.102855	8.789955	-61.852891	8.526167
24270		12.029288	0.690274	4.635917	1.535995	0.218354	3.003900	-0.188684	0.172179	0.142429	-0.692139	-0.208740	-0.849121	0.120328	0.007032	0.046249	0.850459	0.102350	-0.505584	0.103101	8.490368	-61.770599	8.740120
24271		12.302642	0.577874	2.667438	3.355678	0.713481	2.313088	-0.234850	0.123250	0.218043	-0.684814	-0.202393	-0.850098	0.123036	0.005944	0.026592	0.850766	0.100691	-0.505312	0.103528	8.093616	-61.721236	9.034589
24272		12.386932	1.335830	4.078352	2.008166	1.097948	3.095259	-0.099247	0.180139	0.276778	-0.683838	-0.204834	-0.855469	0.123887	0.013550	0.040665	0.851115	0.099428	-0.504760	0.104572	7.705406	-61.643793	9.407290
24273		11.734565	1.844528	4.969584	0.831287	1.345072	2.966139	-0.470095	0.294807	0.259741	-0.683838	-0.196533	-0.855957	0.117395	0.018714	0.049479	0.851942	0.096572	-0.503898	0.104667	7.110021	-61.497890	9.774847
24274		10.613902	1.959219	5.154483	0.160976	1.387588	2.066284	-0.672795	0.613891	0.227079	-0.680908	-0.188477	-0.865234	0.106274	0.019885	0.051152	0.853673	0.092765	-0.501763	0.104263	6.399279	-61.166742	10.141975
24275		8.400142	2.275393	6.820464	-2.306104	1.151333	0.939698	-0.800459	0.711289	0.167512	-0.673340	-0.187988	-0.868652	0.084224	0.023096	0.067813	0.855719	0.088510	-0.499234	0.103328	5.678371	-60.773839	10.438724
24276		7.086663	1.948318	7.661995	-3.513030	0.585139	0.189250	-0.698843	0.206153	0.093254	-0.675293	-0.177490	-0.866943	0.070936	0.019784	0.076478	0.856476	0.085135	-0.498774	0.102102	5.150307	-60.663987	10.581646
24277		7.753989	1.686358	7.364118	-2.876600	0.519722	0.611002	-0.505676	-0.139596	0.057123	-0.676270	-0.175049	-0.868408	0.077484	0.017072	0.073652	0.856301	0.082853	-0.499672	0.101056	4.801814	-60.748679	10.645806
24278		8.295980	1.543659	7.292343	-2.526972	0.497161	1.038645	-0.629969	0.104650	0.096781	-0.670654	-0.165527	-0.866699	0.082990	0.015706	0.072831	0.856757	0.079816	-0.499603	0.099969	4.320966	-60.695977	10.780075
24279		7.285605	0.806500	7.300903	-2.825350	-0.245870	0.136694	-0.728415	0.281203	0.146001	-0.679443	-0.165283	-0.876221	0.072953	0.008384	0.072876	0.857660	0.076145	-0.498836	0.098917	3.722295	-60.543199	10.984936
24280		6.358138	0.184948	7.087838	-2.940149	-0.828568	-0.792355	-0.508132	-0.020205	0.142511	-0.674805	-0.152100	-0.875000	0.063573	0.002075	0.070880	0.857717	0.073576	-0.499248	0.098283	3.275365	-60.562194	11.160772
24281		6.320171	-0.443623	6.718755	-2.513809	-1.321587	-1.025362	-0.372314	-0.164775	0.146137	-0.673828	-0.147705	-0.880615	0.063149	-0.004265	0.067248	0.857358	0.071651	-0.500209	0.097950	2.909539	-60.662965	11.332579
24282		6.192169	-1.045614	6.461110	-2.231724	-1.831231	-1.277576	-0.315611	-0.028182	0.167262	-0.683594	-0.138672	-0.871826	0.061921	-0.010302	0.064636	0.857306	0.069847	-0.500564	0.097896	2.546555	-60.685810	11.537996
24283		6.067447	-1.561159	6.328313	-2.064706	-2.286183	-1.457511	-0.237535	0.059868	0.207032	-0.677002	-0.134521	-0.875488	0.060709	-0.015474	0.063283	0.857426	0.068235	-0.500513	0.098240	2.183817	-60.658342	11.794735
24284		6.608988	-1.705116	6.084272	-1.566632	-2.293680	-1.101249	-0.072600	0.051266	0.254351	-0.671143	-0.134521	-0.878662	0.066127	-0.016945	0.060832	0.857441	0.067214	-0.500437	0.099194	1.867813	-60.636348	12.105693
24285		7.289217	-1.297465	6.228789	-1.454286	-1.835618	-0.424960	0.030832	0.144540	0.295341	-0.674805	-0.122314	-0.878418	0.072956	-0.012877	0.062233	0.857634	0.066490	-0.499919	0.100617	1.567745	-60.560485	12.467178
24286		7.573748	-0.778337	6.409978	-1.578243	-1.314778	-0.074326	0.065861	0.280872	0.318831	-0.682373	-0.129395	-0.878662	0.075840	-0.007684	0.063991	0.858142	0.065783	-0.498805	0.102268	1.262098	-60.405930	12.857584
24287		7.870975	-0.052145	6.336612	-1.526533	-0.535247	0.161817	0.085431	0.266874	0.305897	-0.672119	-0.132080	-0.878418	0.078795	-0.000428	0.063261	0.858610	0.065204	-0.497734	0.103912	0.985076	-60.258271	13.229500
24288		8.360206	0.722250	6.442622	-1.553143	0.272384	0.648459	0.070873	0.148525	0.271542	-0.673584	-0.131592	-0.878418	0.083640	0.007313	0.064367	0.858803	0.064708	-0.497168	0.105333	0.738199	-60.177474	13.557133
24289		8.812407	1.411465	6.425227	-1.484940	1.017978	1.035950	-0.018501	0.052383	0.193224	-0.675293	-0.130127	-0.883301	0.088127	0.014206	0.064228	0.858826	0.064076	-0.497033	0.106164	0.520961	-60.150411	13.792108
24290		9.016350	1.741542	6.082725	-1.181218	1.455501	1.041495	-0.127588	0.019452	0.112355	-0.670654	-0.126953	-0.883789	0.090160	0.017505	0.060807	0.858843	0.063193	-0.497073	0.106366	0.322401	-60.141550	13.933415
24291		8.865276	1.879453	5.852370	-1.095055	1.638337	0.793556	-0.240783	0.013448	0.005898	-0.670898	-0.125488	-0.887207	0.088656	0.018868	0.058495	0.858938	0.062092	-0.497163	0.105829	0.165444	-60.135552	13.952085
24292		8.512137	1.778741	5.809369	-1.202906	1.520491	0.463999	-0.299117	0.001464	-0.117274	-0.668457	-0.133057	-0.885010	0.085132	0.017824	0.058066	0.859085	0.061051	-0.497295	0.104611	0.097988	-60.136125	13.828755
24293		8.201162	1.652623	5.575976	-1.122762	1.415613	0.077569	-0.335359	-0.018534	-0.231434	-0.664795	-0.123291	-0.886963	0.082026	0.016525	0.055740	0.859249	0.060151	-0.497497	0.102808	0.123807	-60.148167	13.574191
24294		7.903607	1.660755	5.372893	-1.092971	1.428758	-0.280786	-0.354409	-0.043560	-0.335259	-0.662842	-0.123047	-0.880615	0.079052	0.016570	0.053717	0.859407	0.059441	-0.497780	0.100504	0.243154	-60.173954	13.199526
24295		7.746245	1.532107	5.100570	-0.905327	1.332022	-0.551286	-0.366059	-0.075282	-0.418901	-0.668945	-0.125000	-0.882568	0.077475	0.015252	0.051007	0.859525	0.058903	-0.498179	0.097801	0.439798	-60.217359	12.727964
24296		7.696410	1.420150	5.072371	-0.875675	1.207476	-0.606404	-0.347943	-0.071225	-0.499543	-0.670654	-0.108643	-0.886963	0.076981	0.014097	0.050727	0.859680	0.058643	-0.498522	0.094797	0.729009	-60.256797	12.162043
24297		7.837627	1.020883	4.980459	-0.636179	0.828401	-0.529125	-0.323437	-0.074039	-0.552096	-0.666748	-0.118408	-0.885010	0.078386	0.010073	0.049817	0.859837	0.058618	-0.498847	0.091626	1.085775	-60.295964	11.534599
24298		7.940402	0.804160	4.718164	-0.312903	0.649231	-0.569407	-0.304376	-0.069517	-0.581857	-0.678467	-0.120361	-0.885498	0.079411	0.007882	0.047197	0.860006	0.058742	-0.499129	0.088370	1.484241	-60.329891	10.871023
24299		8.108126	0.472282	4.671686	-0.117612	0.316867	-0.449191	-0.253767	-0.051948	-0.583402	-0.659668	-0.119629	-0.880371	0.081083	0.004546	0.046732	0.860194	0.059084	-0.499308	0.085244	1.914074	-60.351572	10.205835
