// General information: 
//  MT Manager version: 2019.2.0 
//  XDA version: 2019.2.0 build 3853 rev 94535 built on 2019-09-09
// Device information: 
//  DeviceId: 00B47793
//  ProductCode: MTW2-3A7G6
//  Firmware Version: 4.6.0
//  Hardware Version: 2.0.0
// Device settings: 
//  Filter Profile: human(46.1)
//  Option Flags: Orientation Smoother Disabled, AHS Disabled, ICC Disabled
// Coordinate system: ENU
PacketCounter	SampleTimeFine	Acc_X	Acc_Y	Acc_Z	FreeAcc_E	FreeAcc_N	FreeAcc_U	Gyr_X	Gyr_Y	Gyr_Z	Mag_X	Mag_Y	Mag_Z	VelInc_X	VelInc_Y	VelInc_Z	Quat_q0	Quat_q1	Quat_q2	Quat_q3	Roll	Pitch	Yaw
23745		5.855061	-1.834100	7.699727	0.000454	0.019052	0.032672	0.000227	-0.002894	-0.007866	-0.872803	0.473877	-0.544434	0.058549	-0.018343	0.076998	0.242379	-0.330043	0.013519	-0.912218	-13.289671	-36.554629	-145.833346
23746		5.872812	-1.813691	7.722052	0.011104	-0.003981	0.056930	0.005138	-0.001545	-0.010387	-0.878662	0.472168	-0.553223	0.058727	-0.018142	0.077221	0.242378	-0.330037	0.013509	-0.912220	-13.288002	-36.554359	-145.834218
23747		5.883730	-1.815138	7.689249	-0.016876	-0.011956	0.038055	0.002788	-0.001867	-0.010054	-0.894043	0.469971	-0.561279	0.058836	-0.018155	0.076893	0.242371	-0.330035	0.013509	-0.912223	-13.287562	-36.554175	-145.835297
23748		5.860832	-1.815631	7.681772	-0.006487	-0.002141	0.018663	0.002787	-0.001867	-0.010053	-0.892334	0.468262	-0.555908	0.058607	-0.018160	0.076818	0.242361	-0.330033	0.013508	-0.912227	-13.286904	-36.554067	-145.836782
23749		5.884419	-1.813456	7.689119	-0.016810	-0.013590	0.038053	0.004116	-0.002676	-0.010712	-0.881348	0.471436	-0.558838	0.058842	-0.018139	0.076892	0.242353	-0.330032	0.013500	-0.912229	-13.285510	-36.554421	-145.838185
23750		5.879060	-1.794189	7.703964	0.004165	-0.025939	0.042911	0.005025	-0.004893	-0.007658	-0.883301	0.466064	-0.561035	0.058788	-0.017946	0.077041	0.242357	-0.330041	0.013490	-0.912225	-13.284774	-36.555707	-145.837711
23751		5.862192	-1.812975	7.681362	-0.006390	-0.004591	0.018662	0.002283	-0.004233	-0.013218	-0.886963	0.472656	-0.551270	0.058619	-0.018135	0.076815	0.242335	-0.330050	0.013484	-0.912228	-13.283545	-36.557259	-145.840599
23752		5.880176	-1.792762	7.703444	0.004232	-0.027565	0.042907	-0.002237	-0.006566	-0.004803	-0.883789	0.472900	-0.552246	0.058799	-0.017928	0.077037	0.242340	-0.330075	0.013509	-0.912217	-13.288358	-36.559101	-145.837782
23753		5.858547	-1.828032	7.698518	0.000739	0.012482	0.032682	0.002884	-0.004511	-0.009180	-0.884033	0.469238	-0.558350	0.058583	-0.018284	0.076986	0.242337	-0.330084	0.013507	-0.912214	-13.288482	-36.560276	-145.837821
23754		5.859072	-1.827373	7.698276	0.000776	0.011668	0.032683	0.000533	-0.004834	-0.008847	-0.874268	0.467773	-0.556396	0.058588	-0.018277	0.076984	0.242331	-0.330098	0.013515	-0.912211	-13.290025	-36.561659	-145.837762
23755		5.877084	-1.806984	7.720374	0.011406	-0.011351	0.056924	0.003191	-0.006450	-0.010164	-0.882324	0.476074	-0.560547	0.058767	-0.018074	0.077205	0.242324	-0.330116	0.013508	-0.912206	-13.289755	-36.564045	-145.838166
23756		5.876726	-1.846565	7.649930	-0.048164	0.014405	0.008953	0.002071	-0.004938	-0.011360	-0.877197	0.474854	-0.546875	0.058764	-0.018470	0.076501	0.242319	-0.330126	0.013503	-0.912204	-13.289394	-36.565473	-145.838666
23757		5.866689	-1.843420	7.682477	-0.020117	0.020711	0.027834	0.002882	-0.004511	-0.009178	-0.889648	0.464111	-0.550781	0.058664	-0.018438	0.076826	0.242316	-0.330136	0.013500	-0.912201	-13.289520	-36.566648	-145.838704
23758		5.889379	-1.807005	7.686839	-0.016490	-0.020975	0.038041	0.002673	-0.005216	-0.007322	-0.869873	0.474121	-0.552979	0.058891	-0.018073	0.076870	0.242314	-0.330151	0.013503	-0.912196	-13.290642	-36.568328	-145.838233
23759		5.874676	-1.819903	7.737104	0.018617	0.004020	0.070950	0.002378	-0.006878	-0.012342	-0.884033	0.475342	-0.546875	0.058743	-0.018204	0.077373	0.242296	-0.330172	0.013496	-0.912193	-13.289978	-36.571240	-145.840079
23760		5.879956	-1.802861	7.719151	0.011629	-0.015548	0.056918	0.005341	-0.000841	-0.012236	-0.888428	0.467529	-0.548340	0.058798	-0.018034	0.077191	0.242288	-0.330163	0.013483	-0.912199	-13.287473	-36.570798	-145.842079
23761		5.857223	-1.803265	7.711588	0.022017	-0.005739	0.037536	0.002981	-0.007155	-0.008305	-0.876953	0.475586	-0.561035	0.058569	-0.018036	0.077118	0.242290	-0.330184	0.013478	-0.912191	-13.288162	-36.573333	-145.841076
23762		5.859084	-1.836941	7.713975	0.008157	0.023679	0.046724	0.001147	-0.008714	-0.010810	-0.878418	0.472168	-0.556396	0.058586	-0.018373	0.077142	0.242277	-0.330215	0.013476	-0.912183	-13.288973	-36.577103	-145.841547
23763		5.887942	-1.818887	7.703072	-0.009216	-0.006489	0.052068	0.003079	-0.009799	-0.007432	-0.884033	0.472900	-0.555908	0.058875	-0.018192	0.077033	0.242283	-0.330249	0.013469	-0.912170	-13.290225	-36.580997	-145.839505
23764		5.893613	-1.802195	7.684723	-0.016249	-0.026016	0.038029	0.000126	-0.009846	-0.011133	-0.882568	0.470215	-0.559570	0.058931	-0.018025	0.076850	0.242271	-0.330285	0.013469	-0.912159	-13.291622	-36.585314	-145.839561
23765		5.894582	-1.801555	7.684130	-0.016213	-0.026850	0.038027	0.002058	-0.010931	-0.007756	-0.884766	0.476074	-0.553467	0.058941	-0.018019	0.076844	0.242274	-0.330325	0.013465	-0.912144	-13.293437	-36.589881	-145.837558
23766		5.873421	-1.836675	7.678947	-0.019738	0.013206	0.027847	0.002057	-0.010931	-0.007755	-0.890869	0.469727	-0.553955	0.058729	-0.018370	0.076792	0.242279	-0.330364	0.013460	-0.912129	-13.295223	-36.594412	-145.835289
23767		5.897519	-1.834608	7.685846	-0.030052	0.001717	0.047224	0.000232	-0.006500	-0.013858	-0.886719	0.471680	-0.549316	0.058971	-0.018350	0.076860	0.242251	-0.330386	0.013460	-0.912128	-13.295124	-36.597313	-145.838250
23768		5.892416	-1.815461	7.700458	-0.009015	-0.010625	0.052065	0.002978	-0.007156	-0.008301	-0.886963	0.477051	-0.557373	0.058921	-0.018158	0.077006	0.242244	-0.330410	0.013458	-0.912122	-13.295745	-36.600196	-145.838310
23769		5.893231	-1.814965	7.699952	-0.008979	-0.011459	0.052064	-0.001622	-0.010449	-0.006761	-0.890137	0.474365	-0.557373	0.058928	-0.018151	0.077003	0.242245	-0.330451	0.013473	-0.912106	-13.300034	-36.604363	-145.835693
23770		5.876598	-1.834197	7.677109	-0.019547	0.009916	0.027852	0.001856	-0.005645	-0.009497	-0.883789	0.471924	-0.553711	0.058763	-0.018345	0.076773	0.242240	-0.330468	0.013473	-0.912102	-13.300762	-36.606248	-145.835670
23771		5.877262	-1.833588	7.676746	-0.019512	0.009083	0.027852	0.000627	-0.007481	-0.007965	-0.887451	0.471191	-0.558105	0.058769	-0.018338	0.076770	0.242240	-0.330493	0.013480	-0.912092	-13.302973	-36.608919	-145.834377
23772		5.901157	-1.831626	7.683765	-0.029828	-0.002396	0.047224	0.001855	-0.005645	-0.009496	-0.886475	0.465820	-0.552490	0.059009	-0.018320	0.076839	0.242233	-0.330509	0.013480	-0.912088	-13.303529	-36.610807	-145.834601
23773		5.890249	-1.794336	7.713288	0.012129	-0.026325	0.056895	-0.001415	-0.009746	-0.008613	-0.887451	0.475586	-0.552490	0.058898	-0.017945	0.077136	0.242226	-0.330547	0.013492	-0.912076	-13.306864	-36.614826	-145.833386
23774		5.885252	-1.850125	7.660545	-0.040348	0.018183	0.023020	0.002269	-0.004237	-0.013204	-0.878174	0.472656	-0.544678	0.058850	-0.018506	0.076606	0.242198	-0.330558	0.013487	-0.912080	-13.305556	-36.616603	-145.836948
23775		5.899971	-1.726374	7.674131	0.012047	-0.095538	0.019557	0.004098	-0.008667	-0.007101	-0.887695	0.472900	-0.546875	0.058996	-0.017267	0.076744	0.242207	-0.330585	0.013478	-0.912068	-13.306253	-36.619822	-145.834860
23776		6.204939	-1.734184	7.444849	-0.333013	-0.256614	0.023861	0.002378	-0.010484	-0.018328	-0.895752	0.460205	-0.543945	0.062044	-0.017348	0.074452	0.242158	-0.330626	0.013458	-0.912066	-13.303757	-36.625878	-145.840731
23777		7.328391	-1.120149	6.217507	-1.562240	-1.470088	-0.377875	0.004535	0.013099	-0.031202	-0.893311	0.468994	-0.536377	0.073286	-0.011214	0.062170	0.242056	-0.330554	0.013434	-0.912120	-13.292083	-36.620137	-145.858962
23778		7.756171	-1.038101	6.800459	-1.453263	-1.653034	0.318334	0.006293	-0.079808	-0.028346	-0.889404	0.467041	-0.542969	0.077533	-0.010394	0.068035	0.241950	-0.330912	0.013299	-0.912020	-13.289548	-36.666831	-145.863136
23779		6.968930	-1.398867	6.932122	-1.001967	-0.960090	0.018459	-0.005914	-0.021679	-0.002586	-0.897461	0.458984	-0.541992	0.069682	-0.013988	0.069329	0.241964	-0.331009	0.013327	-0.911981	-13.299135	-36.676711	-145.855771
23780		6.585680	-1.664876	7.225322	-0.680976	-0.512501	0.067691	-0.005090	-0.034450	-0.008792	-0.900146	0.469238	-0.535400	0.065844	-0.016650	0.072265	0.241931	-0.331170	0.013328	-0.911931	-13.306647	-36.695326	-145.853145
23781		6.090890	-1.999997	7.560812	-0.290529	0.052377	0.095777	-0.001925	-0.015722	-0.017752	-0.894775	0.474121	-0.542725	0.060901	-0.020005	0.075613	0.241882	-0.331237	0.013321	-0.911920	-13.307066	-36.703884	-145.857301
23782		5.823143	-1.950821	7.834109	0.076010	0.167417	0.139908	0.003178	-0.004066	-0.019740	-0.896973	0.469482	-0.541504	0.058228	-0.019515	0.078342	0.241817	-0.331250	0.013304	-0.911932	-13.302754	-36.706893	-145.866362
23783		5.452343	-2.010258	7.883426	0.325965	0.393583	-0.032277	0.001228	0.010214	-0.014727	-0.890137	0.472412	-0.533936	0.054526	-0.020107	0.078831	0.241786	-0.331195	0.013318	-0.911961	-13.300074	-36.700591	-145.872681
23784		5.927748	-1.746974	7.708684	0.016600	-0.076076	0.066982	0.008690	0.003007	-0.021833	-0.900635	0.468018	-0.534912	0.059277	-0.017480	0.077085	0.241729	-0.331167	0.013279	-0.911987	-13.290943	-36.699604	-145.883372
23785		5.996584	-1.628243	7.631605	-0.025332	-0.221844	0.026100	0.002763	-0.001870	-0.010035	-0.904053	0.469482	-0.542725	0.059964	-0.016286	0.076316	0.241722	-0.331164	0.013279	-0.911989	-13.290521	-36.699421	-145.884441
23786		6.269583	-1.628882	7.500334	-0.286356	-0.361624	0.086967	0.000320	-0.015140	-0.009362	-0.902832	0.475098	-0.538818	0.062689	-0.016292	0.075008	0.241711	-0.331227	0.013276	-0.911969	-13.293007	-36.706807	-145.883313
23787		6.217695	-1.653490	7.429332	-0.304263	-0.325969	0.005148	-0.004376	-0.021786	-0.005087	-0.898193	0.476318	-0.532959	0.062168	-0.016535	0.074300	0.241716	-0.331324	0.013293	-0.911933	-13.300690	-36.717078	-145.877666
23788		6.007902	-1.755205	7.548969	-0.133567	-0.125674	-0.008151	-0.008359	-0.025360	0.000492	-0.905762	0.478516	-0.537842	0.060069	-0.017549	0.075498	0.241739	-0.331443	0.013332	-0.911883	-13.313296	-36.728777	-145.867583
23789		5.903026	-1.888214	7.667800	-0.046194	0.054903	0.046374	-0.008666	-0.027026	-0.004514	-0.910156	0.479980	-0.538574	0.059019	-0.018880	0.076687	0.241740	-0.331568	0.013363	-0.911836	-13.324197	-36.741891	-145.860669
23790		5.916925	-1.924788	7.636113	-0.088079	0.077172	0.036745	0.000422	-0.027381	-0.010869	-0.903076	0.479248	-0.541992	0.059158	-0.019251	0.076369	0.241727	-0.331686	0.013341	-0.911797	-13.327219	-36.756203	-145.858133
23791		5.867845	-1.829484	7.537741	-0.071261	0.003592	-0.086894	0.002676	-0.053201	-0.019232	-0.894775	0.477539	-0.543213	0.058657	-0.018301	0.075393	0.241682	-0.331918	0.013264	-0.911726	-13.328080	-36.785854	-145.857141
23792		6.129925	-1.767946	7.520681	-0.223686	-0.167375	0.045518	0.004307	-0.075146	-0.025618	-0.897949	0.470703	-0.530518	0.061269	-0.017689	0.075229	0.241611	-0.332250	0.013142	-0.911626	-13.327448	-36.828739	-145.856974
23793		6.136128	-1.691400	7.583334	-0.150100	-0.225086	0.084112	0.001845	-0.078830	-0.022522	-0.910156	0.472412	-0.532227	0.061329	-0.016922	0.075857	0.241551	-0.332601	0.013033	-0.911515	-13.329951	-36.873114	-145.854041
23794		6.085823	-1.765461	7.529260	-0.174905	-0.140500	0.025682	-0.002355	-0.086723	-0.021036	-0.902344	0.477783	-0.537842	0.060824	-0.017660	0.075319	0.241490	-0.332993	0.012935	-0.911390	-13.336203	-36.921861	-145.848783
23795		6.085058	-1.756040	7.629615	-0.101179	-0.130692	0.101712	-0.003291	-0.090511	-0.020442	-0.902588	0.474365	-0.537842	0.060814	-0.017565	0.076324	0.241431	-0.333402	0.012838	-0.911257	-13.343694	-36.972472	-145.842453
23796		6.120085	-1.737877	7.613397	-0.118486	-0.160885	0.106966	-0.008512	-0.089942	-0.016890	-0.907227	0.476318	-0.544189	0.061165	-0.017381	0.076162	0.241380	-0.333816	0.012771	-0.911120	-13.355557	-37.022465	-145.833727
23797		6.220904	-1.687385	7.542952	-0.198548	-0.256971	0.103843	-0.007708	-0.089520	-0.014683	-0.916992	0.479248	-0.537598	0.062174	-0.016876	0.075458	0.241340	-0.334226	0.012705	-0.910981	-13.367932	-37.071759	-145.823506
23798		6.126564	-1.759644	7.547314	-0.157022	-0.147417	0.063885	-0.010763	-0.079723	-0.007258	-0.912842	0.475586	-0.533203	0.061235	-0.017595	0.075498	0.241328	-0.334596	0.012677	-0.910849	-13.384153	-37.114785	-145.809716
23799		5.968947	-1.814544	7.585924	-0.045886	-0.020855	0.008952	-0.013440	-0.072123	-0.009528	-0.912354	0.477051	-0.532227	0.059661	-0.018143	0.075882	0.241300	-0.334933	0.012667	-0.910733	-13.400278	-37.153694	-145.798742
23800		6.214357	-1.882782	7.480074	-0.296384	-0.082655	0.087814	0.000086	-0.060528	-0.021968	-0.917480	0.479004	-0.532959	0.062119	-0.018835	0.074820	0.241238	-0.335203	0.012588	-0.910651	-13.402172	-37.187974	-145.798403
23801		6.180527	-1.698875	7.397608	-0.241002	-0.238779	-0.030326	-0.001625	-0.051531	-0.015226	-0.905029	0.479248	-0.528809	0.061785	-0.016993	0.073992	0.241203	-0.335432	0.012539	-0.910576	-13.407064	-37.216162	-145.794830
23802		6.278700	-1.726740	7.425986	-0.296198	-0.252312	0.056333	-0.004896	-0.040045	-0.015565	-0.910645	0.478516	-0.527344	0.062771	-0.017270	0.074273	0.241160	-0.335614	0.012518	-0.910521	-13.412461	-37.238182	-145.793417
23803		6.218359	-1.783098	7.390394	-0.300080	-0.179257	0.002768	0.002282	-0.022489	-0.011022	-0.913330	0.478516	-0.530029	0.062174	-0.017835	0.073911	0.241149	-0.335706	0.012494	-0.910490	-13.413967	-37.249625	-145.791742
23804		6.311343	-1.741973	7.415376	-0.327381	-0.253184	0.070837	0.005881	-0.001106	-0.008213	-0.910156	0.485596	-0.527588	0.063112	-0.017425	0.074154	0.241156	-0.335698	0.012483	-0.910492	-13.412372	-37.248978	-145.791682
23805		6.323862	-1.737460	7.456096	-0.309658	-0.257653	0.109061	0.005612	0.020046	-0.002539	-0.915771	0.476807	-0.536377	0.063246	-0.017377	0.074554	0.241186	-0.335592	0.012509	-0.910522	-13.411266	-37.235586	-145.791170
23806		6.321302	-1.736934	7.458389	-0.309584	-0.258481	0.109042	0.009327	0.048388	0.003508	-0.915527	0.479004	-0.527832	0.063231	-0.017372	0.074568	0.241249	-0.335353	0.012561	-0.910593	-13.407662	-37.205808	-145.791162
23807		6.157652	-1.775103	7.488271	-0.205515	-0.150504	0.040077	0.009028	0.075531	0.005584	-0.919434	0.475342	-0.531250	0.061605	-0.017753	0.074859	0.241318	-0.334990	0.012653	-0.910707	-13.402443	-37.160414	-145.794217
23808		6.017831	-1.757340	7.341910	-0.203214	-0.127676	-0.161337	0.011764	0.086868	0.003909	-0.915771	0.474854	-0.533203	0.060211	-0.017577	0.073392	0.241384	-0.334573	0.012741	-0.910841	-13.393747	-37.109145	-145.800333
23809		5.924999	-1.903222	7.493345	-0.119296	0.060800	-0.073070	0.021801	0.074437	-0.010461	-0.914795	0.479492	-0.537109	0.059277	-0.019043	0.074909	0.241402	-0.334200	0.012746	-0.910974	-13.374578	-37.066488	-145.814392
23810		5.917115	-1.876037	7.585800	-0.052578	0.051954	-0.011123	0.023678	0.062526	-0.024995	-0.916992	0.478027	-0.541016	0.059193	-0.018777	0.075837	0.241357	-0.333882	0.012702	-0.911103	-13.349363	-37.032616	-145.836607
23811		5.813213	-1.795314	7.733420	0.136028	0.047833	0.026093	0.021010	0.035322	-0.030742	-0.921631	0.474854	-0.536133	0.058143	-0.017970	0.077322	0.241284	-0.333689	0.012630	-0.911194	-13.326065	-37.014437	-145.858298
23812		5.911077	-1.804644	7.748729	0.073812	0.015576	0.098654	0.011938	0.006857	-0.031446	-0.911133	0.484131	-0.530762	0.059111	-0.018060	0.077484	0.241194	-0.333639	0.012562	-0.911237	-13.310443	-37.012438	-145.875773
23813		5.904878	-1.749235	7.760807	0.108786	-0.026964	0.094127	0.009304	-0.016732	-0.031231	-0.919189	0.479492	-0.539795	0.059040	-0.017505	0.077612	0.241103	-0.333698	0.012479	-0.911241	-13.298832	-37.023338	-145.889193
23814		6.031591	-1.822590	7.622241	-0.090046	-0.035249	0.076253	0.006563	-0.037679	-0.031890	-0.918213	0.477051	-0.540039	0.060299	-0.018238	0.076233	0.241004	-0.333857	0.012381	-0.911210	-13.290522	-37.046222	-145.899631
23815		6.203507	-1.749361	7.558396	-0.208027	-0.182291	0.116895	0.004428	-0.052907	-0.032130	-0.917480	0.479980	-0.542969	0.062012	-0.017505	0.075600	0.240903	-0.334086	0.012275	-0.911154	-13.284908	-37.077409	-145.907722
23816		6.286110	-1.750864	7.470362	-0.312603	-0.225962	0.098832	0.004941	-0.069747	-0.033675	-0.920166	0.483398	-0.542969	0.062832	-0.017521	0.074725	0.240795	-0.334393	0.012143	-0.911071	-13.279947	-37.118413	-145.914131
23817		6.119791	-1.835295	7.545334	-0.187530	-0.061960	0.072312	0.005425	-0.070992	-0.036476	-0.920654	0.488037	-0.536865	0.061168	-0.018366	0.075475	0.240677	-0.334704	0.012004	-0.910991	-13.273712	-37.160256	-145.922292
23818		6.143630	-1.812213	7.563118	-0.176801	-0.085063	0.096427	0.013029	-0.077498	-0.045389	-0.919189	0.484619	-0.535156	0.061403	-0.018141	0.075654	0.240530	-0.335038	0.011806	-0.910909	-13.259915	-37.207129	-145.935641
23819		6.144514	-1.790196	7.573586	-0.155777	-0.097438	0.101207	0.010664	-0.077840	-0.045008	-0.923340	0.485840	-0.533936	0.061412	-0.017920	0.075759	0.240382	-0.335374	0.011620	-0.910827	-13.247716	-37.253909	-145.948681
23820		6.092037	-1.644011	7.648867	-0.005517	-0.186809	0.101238	0.004434	-0.088026	-0.044103	-0.922607	0.481689	-0.537842	0.060883	-0.016455	0.076515	0.240227	-0.335765	0.011451	-0.910726	-13.240400	-37.306486	-145.959432
23821		6.118444	-1.730607	7.601174	-0.082392	-0.122914	0.096212	-0.000169	-0.091350	-0.042480	-0.927246	0.484619	-0.535889	0.061146	-0.017319	0.076040	0.240072	-0.336176	0.011303	-0.910617	-13.236797	-37.360467	-145.968502
23822		6.190336	-1.585965	7.605219	-0.057398	-0.276673	0.116817	-0.002617	-0.095045	-0.039349	-0.929443	0.487305	-0.533447	0.061864	-0.015871	0.076082	0.239928	-0.336607	0.011165	-0.910497	-13.236216	-37.416336	-145.974782
23823		5.982894	-1.699084	7.577196	0.021604	-0.083004	-0.010216	-0.008964	-0.102594	-0.039299	-0.920166	0.481445	-0.537109	0.059787	-0.016999	0.075803	0.239774	-0.337079	0.011049	-0.910365	-13.240117	-37.476171	-145.979774
23824		6.181072	-1.783523	7.471254	-0.201160	-0.105038	0.044023	0.001503	-0.121997	-0.044096	-0.931641	0.480225	-0.531250	0.061761	-0.017849	0.074750	0.239616	-0.337628	0.010852	-0.910205	-13.237838	-37.547698	-145.984942
23825		6.037598	-1.609861	7.512817	0.004333	-0.181467	-0.042647	0.003822	-0.146906	-0.045369	-0.933350	0.491455	-0.541016	0.060317	-0.016114	0.075172	0.239458	-0.338287	0.010614	-0.910005	-13.236266	-37.633043	-145.986880
23826		5.909184	-1.711016	7.575363	0.098064	-0.016594	-0.054499	0.001042	-0.193414	-0.055466	-0.933594	0.487793	-0.535156	0.059014	-0.017127	0.075811	0.239251	-0.339162	0.010314	-0.909737	-13.236565	-37.745898	-145.988239
23827		5.937347	-1.838770	7.646101	0.087882	0.106633	0.040072	-0.010194	-0.259680	-0.076968	-0.927734	0.476563	-0.534424	0.059267	-0.018407	0.076539	0.238930	-0.340351	0.009951	-0.909382	-13.240822	-37.898287	-145.993758
23828		5.742609	-1.826610	7.851893	0.373826	0.227380	0.075424	-0.018670	-0.323291	-0.095470	-0.931152	0.488770	-0.521484	0.057290	-0.018286	0.078613	0.238514	-0.341841	0.009518	-0.908936	-13.248307	-38.088823	-146.001781
23829		5.421604	-1.887211	8.093227	0.739347	0.476539	0.070724	-0.025198	-0.390695	-0.109437	-0.939697	0.481201	-0.531006	0.054047	-0.018892	0.081040	0.238025	-0.343643	0.009012	-0.908390	-13.260440	-38.318545	-146.008417
23830		5.681542	-1.809559	7.983770	0.572845	0.300753	0.130963	-0.035077	-0.487178	-0.133404	-0.941650	0.486572	-0.525879	0.056609	-0.018119	0.079979	0.237414	-0.345896	0.008393	-0.907701	-13.277622	-38.605445	-146.015880
23831		5.790736	-1.770685	7.896464	0.510231	0.233990	0.122437	-0.032946	-0.585740	-0.151852	-0.945801	0.479248	-0.520264	0.057662	-0.017738	0.079137	0.236725	-0.348590	0.007617	-0.906856	-13.295846	-38.949516	-146.019797
23832		5.748358	-1.712912	7.918034	0.632193	0.238100	0.097719	-0.050094	-0.706576	-0.170852	-0.948486	0.480713	-0.505615	0.057189	-0.017158	0.079387	0.235922	-0.351850	0.006741	-0.905813	-13.328256	-39.363669	-146.016658
23833		5.688132	-1.832366	7.901129	0.676846	0.407392	0.062309	-0.052843	-0.837096	-0.200675	-0.948242	0.475342	-0.505615	0.056532	-0.018360	0.079253	0.234980	-0.355699	0.005672	-0.904561	-13.363084	-39.854328	-146.012342
23834		5.852673	-1.798572	7.887364	0.656635	0.351906	0.144385	-0.057216	-0.977447	-0.235163	-0.959717	0.482910	-0.495605	0.058119	-0.018032	0.079163	0.233872	-0.360183	0.004396	-0.903080	-13.400124	-40.427966	-146.008410
23835		5.883429	-1.840668	7.866966	0.698309	0.428529	0.148214	-0.064762	-1.126973	-0.273208	-0.956543	0.465332	-0.487305	0.058365	-0.018461	0.079005	0.232576	-0.365339	0.002911	-0.901347	-13.440832	-41.089817	-146.005651
23836		5.660165	-1.969291	8.047465	1.007804	0.730987	0.143507	-0.058812	-1.269272	-0.311406	-0.979492	0.476074	-0.477783	0.056059	-0.019757	0.080837	0.231112	-0.371118	0.001163	-0.899365	-13.476432	-41.836206	-146.005377
23837		5.742342	-1.954872	7.998669	1.046135	0.748058	0.143165	-0.050325	-1.399682	-0.349256	-0.979248	0.475098	-0.454834	0.056828	-0.019628	0.080391	0.229483	-0.377455	-0.000843	-0.897142	-13.504322	-42.660158	-146.009459
23838		6.185106	-1.987759	7.839822	0.782486	0.649496	0.318120	-0.045891	-1.528180	-0.395680	-0.987549	0.465332	-0.447021	0.061210	-0.019981	0.078872	0.227641	-0.384342	-0.003105	-0.894679	-13.521692	-43.562026	-146.025041
23839		6.771327	-1.947475	7.701482	0.491967	0.444387	0.604328	-0.028684	-1.645752	-0.455608	-0.995361	0.467773	-0.428467	0.067032	-0.019617	0.077571	0.225547	-0.391708	-0.005692	-0.891998	-13.511935	-44.537304	-146.065300
23840		6.932073	-2.283162	7.521147	0.285434	0.752970	0.636363	-0.014532	-1.742275	-0.516399	-1.005859	0.465576	-0.411377	0.068603	-0.023004	0.075813	0.223189	-0.399457	-0.008570	-0.889127	-13.471540	-45.574560	-146.136576
23841		6.592245	-2.247524	7.496658	0.635307	0.962751	0.354672	0.025832	-1.833144	-0.601781	-1.010254	0.466797	-0.393311	0.065164	-0.022682	0.075563	0.220508	-0.407526	-0.011898	-0.886091	-13.367913	-46.673662	-146.262292
23842		6.578653	-1.962487	7.318719	0.788140	0.797175	0.158946	0.020486	-1.940090	-0.687875	-1.022949	0.447266	-0.382080	0.065004	-0.019857	0.073818	0.217408	-0.416030	-0.015495	-0.882844	-13.224343	-47.843612	-146.444164
23843		6.625510	-1.849456	7.013097	0.748721	0.743072	-0.046173	-0.001028	-2.057965	-0.776056	-1.024658	0.445068	-0.363525	0.065456	-0.018749	0.070807	0.213839	-0.425023	-0.019306	-0.879350	-13.045449	-49.090402	-146.686321
23844		6.940322	-2.036469	6.880571	0.578277	0.910580	0.111498	-0.005353	-2.166761	-0.881728	-1.032715	0.438232	-0.346436	0.068562	-0.020666	0.069552	0.209759	-0.434434	-0.023437	-0.875625	-12.801895	-50.410918	-147.011721
23845		7.137380	-2.035551	6.799000	0.596019	0.973331	0.187534	-0.070947	-2.251597	-0.975377	-1.044678	0.426025	-0.321289	0.070502	-0.020676	0.068794	0.205087	-0.444212	-0.027570	-0.871697	-12.524677	-51.789631	-147.422448
23846		8.429450	-1.789131	6.402497	-0.087995	0.387942	0.915050	-0.157177	-2.292773	-1.033919	-1.046143	0.412598	-0.291992	0.083459	-0.018273	0.064999	0.199930	-0.454182	-0.031495	-0.867614	-12.235442	-53.197282	-147.902777
23847		9.530464	-2.641964	5.981692	-1.082566	0.899295	1.659142	-0.166472	-2.220968	-1.090768	-1.063965	0.407471	-0.278076	0.094487	-0.026886	0.060891	0.194486	-0.463770	-0.035431	-0.863619	-11.865285	-54.569804	-148.481258
23848		9.696366	-2.463863	6.306446	-0.637875	0.952174	1.957683	-0.064677	-2.037147	-1.123183	-1.057861	0.401855	-0.251953	0.096174	-0.025160	0.064055	0.189143	-0.472393	-0.039699	-0.859939	-11.341353	-55.840194	-149.166538
23849		8.043864	-1.235923	5.290758	-0.034298	0.215343	-0.108467	-0.021180	-1.936167	-1.196828	-1.068604	0.380615	-0.248047	0.079846	-0.012833	0.053684	0.183581	-0.480463	-0.044227	-0.856445	-10.666459	-57.057694	-149.993023
23850		9.283541	-0.884502	5.260720	-0.364579	-0.289003	0.884068	-0.111152	-1.905616	-1.229687	-1.076416	0.374512	-0.225586	0.092272	-0.009384	0.053493	0.177645	-0.488417	-0.048415	-0.852964	-9.953149	-58.255723	-150.914798
23851		10.242641	-1.557171	5.480743	-0.705722	0.327576	1.881964	-0.124486	-1.696856	-1.222353	-1.075439	0.354492	-0.211914	0.101859	-0.016161	0.055683	0.171737	-0.495435	-0.052336	-0.849889	-9.160329	-59.328524	-151.927204
23852		9.462996	-1.402146	6.029443	0.291525	0.681117	1.470759	-0.085336	-1.466856	-1.140434	-1.079834	0.354980	-0.187744	0.094102	-0.014533	0.060992	0.166318	-0.501417	-0.056019	-0.847220	-8.329256	-60.256408	-152.947512
23853		8.293077	-1.208666	9.011443	3.471466	1.675544	1.874116	-0.225837	-1.146252	-0.980249	-1.083496	0.341309	-0.177002	0.082352	-0.012389	0.090601	0.161303	-0.506165	-0.058434	-0.845200	-7.642983	-60.982726	-153.885621
23854		4.842680	-1.206100	11.371198	7.039799	3.087711	-0.059892	-0.494245	-0.603051	-0.881393	-1.076172	0.334961	-0.164551	0.048031	-0.011992	0.113887	0.156178	-0.508840	-0.059024	-0.844515	-7.106807	-61.388103	-154.822846
23855		6.019341	0.068662	11.706797	7.267757	1.724503	1.026685	-0.760707	-0.086110	-0.998233	-1.081055	0.316406	-0.173340	0.060147	0.000832	0.117091	0.150028	-0.509488	-0.058381	-0.845284	-6.520345	-61.502929	-155.988776
23856		5.419623	-0.932887	11.083970	6.687915	2.581052	0.272266	-1.080408	0.577050	-0.974042	-1.080566	0.320557	-0.174561	0.054471	-0.008995	0.110732	0.143353	-0.507552	-0.055823	-0.847776	-6.067454	-61.233203	-157.212082
23857		3.465921	-2.090494	9.077327	5.493110	3.483599	-2.298030	-1.178789	0.995404	-1.003299	-1.071289	0.307617	-0.181152	0.035007	-0.020545	0.090721	0.136410	-0.503870	-0.052620	-0.851316	-5.617889	-60.722390	-158.500633
23858		2.367215	-2.643611	7.740974	4.693918	3.828602	-3.827426	-1.131108	1.167501	-1.049956	-1.080078	0.295898	-0.190918	0.023986	-0.026124	0.077419	0.129423	-0.499362	-0.049613	-0.855234	-5.111104	-60.110208	-159.830684
23859		3.148864	-3.009345	7.605363	4.097770	3.951881	-3.149098	-1.054332	1.263202	-1.035733	-1.072998	0.291504	-0.197021	0.031814	-0.029857	0.076011	0.122698	-0.494356	-0.046835	-0.859281	-4.605146	-59.437408	-161.117456
23860		3.920938	-3.557744	7.606745	3.553413	4.297906	-2.410354	-0.996016	1.377890	-0.919514	-1.060547	0.279785	-0.217773	0.039570	-0.035380	0.075972	0.116634	-0.488797	-0.043942	-0.863448	-4.208341	-58.688247	-162.247579
23861		4.306997	-3.789842	7.420037	3.101484	4.370853	-2.115561	-0.935109	1.481433	-0.714662	-1.065430	0.272217	-0.228516	0.043484	-0.037707	0.074056	0.111614	-0.482761	-0.040750	-0.867654	-3.994786	-57.869094	-163.130613
23862		4.478894	-4.008083	7.146880	2.675889	4.449012	-2.050722	-0.867375	1.531594	-0.458083	-1.059814	0.269287	-0.239014	0.045244	-0.039875	0.071297	0.107872	-0.476474	-0.037197	-0.871753	-3.995859	-57.009400	-163.721327
23863		5.021773	-4.266512	6.863521	2.029111	4.507254	-1.682773	-0.762932	1.533001	-0.174913	-1.052734	0.254883	-0.252930	0.050705	-0.042448	0.068410	0.105604	-0.470146	-0.033425	-0.875610	-4.195627	-56.138660	-164.007886
23864		5.777406	-4.332579	6.734783	1.415872	4.365308	-1.069413	-0.621553	1.542791	0.116472	-1.049805	0.266113	-0.263184	0.058317	-0.043083	0.067034	0.104940	-0.463708	-0.029574	-0.879254	-4.559952	-55.249490	-164.000489
23865		6.475586	-4.190009	6.733404	0.953432	4.034448	-0.451048	-0.484391	1.541465	0.401761	-1.041992	0.263428	-0.279297	0.065357	-0.041607	0.066933	0.105838	-0.457221	-0.025668	-0.882660	-5.066236	-54.348238	-163.722768
23866		7.084011	-4.028657	6.639656	0.444804	3.665994	0.028975	-0.360661	1.554289	0.690367	-1.039307	0.272217	-0.295898	0.071492	-0.039921	0.065915	0.108289	-0.450609	-0.021634	-0.885865	-5.707266	-53.421627	-163.187793
23867		7.377506	-3.874118	6.553954	0.101952	3.337557	0.249015	-0.249921	1.560713	0.945270	-1.030273	0.278320	-0.301270	0.074465	-0.038309	0.065008	0.112109	-0.443906	-0.017517	-0.888860	-6.446549	-52.473114	-162.443182
23868		7.621191	-3.339810	6.556923	-0.068858	2.640748	0.446373	-0.170813	1.539447	1.172514	-1.023926	0.286377	-0.316406	0.076908	-0.032893	0.065007	0.117103	-0.437226	-0.013250	-0.891597	-7.271960	-51.514095	-161.522783
23869		7.892296	-3.001053	6.631548	-0.243265	2.119553	0.709506	-0.131579	1.505442	1.349230	-1.019043	0.301270	-0.331055	0.079619	-0.029432	0.065737	0.122956	-0.430649	-0.008798	-0.894061	-8.158983	-50.553431	-160.481269
23870		8.078511	-2.736006	6.563055	-0.492250	1.654300	0.809872	-0.086557	1.478737	1.458232	-1.011230	0.322998	-0.349854	0.081464	-0.026740	0.065042	0.129380	-0.424117	-0.004320	-0.896307	-9.052452	-49.587443	-159.383916
23871		8.234149	-2.440139	6.551502	-0.667770	1.165502	0.905027	-0.022490	1.453790	1.508415	-1.001709	0.331055	-0.356201	0.082996	-0.023770	0.064916	0.136149	-0.417617	-0.000046	-0.898365	-9.898486	-48.621288	-158.284164
23872		8.225443	-2.107567	6.644034	-0.648588	0.691202	0.926994	0.028465	1.403434	1.541516	-0.993408	0.340088	-0.370361	0.082877	-0.020448	0.065857	0.143159	-0.411254	0.004042	-0.900199	-10.699640	-47.668820	-157.189901
23873		8.250133	-1.947454	6.693843	-0.716987	0.371371	0.958070	0.066271	1.370325	1.555447	-0.984375	0.354004	-0.381836	0.083106	-0.018852	0.066364	0.150294	-0.404976	0.007956	-0.901855	-11.449991	-46.724704	-156.117945
23874		8.233865	-1.868700	6.695036	-0.810609	0.137105	0.931277	0.107130	1.324969	1.563238	-0.973389	0.364014	-0.389893	0.082923	-0.018076	0.066393	0.157533	-0.398821	0.011675	-0.903321	-12.149999	-45.794904	-155.067439
23875		8.163996	-1.733046	6.825943	-0.753788	-0.118047	0.941959	0.147880	1.278897	1.572758	-0.964600	0.379639	-0.406982	0.082207	-0.016736	0.067722	0.164881	-0.392806	0.015183	-0.904592	-12.801808	-44.882269	-154.034492
23876		8.077765	-1.599164	6.948010	-0.686777	-0.362496	0.933307	0.175549	1.235424	1.575050	-0.959717	0.387695	-0.412598	0.081328	-0.015413	0.068965	0.172281	-0.386918	0.018541	-0.905687	-13.412584	-43.984589	-153.021816
23877		8.072829	-1.521421	7.115029	-0.650563	-0.572161	1.020383	0.181722	1.202801	1.576176	-0.937988	0.405762	-0.417969	0.081271	-0.014639	0.070649	0.179683	-0.381140	0.021836	-0.906625	-13.993206	-43.098515	-152.030476
23878		7.912784	-1.396833	7.174215	-0.569868	-0.780533	0.915593	0.177837	1.165987	1.548474	-0.934570	0.416016	-0.430420	0.079650	-0.013417	0.071267	0.187200	-0.375496	0.024964	-0.907378	-14.539103	-42.228380	-151.045776
23879		7.681785	-1.292959	7.153993	-0.497132	-0.940244	0.710033	0.178566	1.130531	1.474344	-0.917480	0.418701	-0.432373	0.077313	-0.012424	0.071093	0.194108	-0.369990	0.028011	-0.908100	-15.025208	-41.383858	-150.165809
23880		7.452098	-1.195332	7.070303	-0.462679	-1.085052	0.461474	0.179217	1.093743	1.355286	-0.914551	0.431885	-0.443848	0.074985	-0.011509	0.070283	0.200694	-0.364635	0.030717	-0.908746	-15.436951	-40.571145	-149.356679
23881		7.153302	-1.037650	6.977196	-0.362591	-1.238180	0.150324	0.196270	1.063494	1.170433	-0.903320	0.437988	-0.452393	0.071962	-0.010024	0.069380	0.206234	-0.359405	0.033058	-0.909507	-15.737314	-39.801286	-148.719728
23882		7.032518	-0.807850	6.993986	-0.274287	-1.494699	0.021652	0.203590	1.020383	0.938750	-0.886719	0.445801	-0.464600	0.070718	-0.007818	0.069572	0.210925	-0.354380	0.034836	-0.910336	-15.921449	-39.088079	-148.225682
23883		7.107002	-0.631220	7.004084	-0.335482	-1.762682	0.023193	0.191210	0.983472	0.691195	-0.874268	0.441406	-0.470459	0.071435	-0.006132	0.069684	0.214268	-0.349565	0.036259	-0.911361	-15.998517	-38.434661	-147.930477
23884		7.408852	-0.575636	7.168536	-0.492231	-1.987180	0.307505	0.163351	0.962251	0.423133	-0.859131	0.446777	-0.468262	0.074444	-0.005657	0.071323	0.216519	-0.344913	0.037258	-0.912560	-15.974667	-37.833898	-147.798937
23885		7.726258	-0.401085	7.344005	-0.617555	-2.312487	0.582526	0.113997	0.970967	0.176144	-0.859375	0.441895	-0.471680	0.077621	-0.003984	0.073062	0.217369	-0.340313	0.038124	-0.914048	-15.871787	-37.268480	-147.863522
23886		8.262017	-0.161932	7.706841	-0.757093	-2.767185	1.116676	0.007478	0.996911	-0.018513	-0.855713	0.440674	-0.478760	0.083003	-0.001630	0.076655	0.217302	-0.335737	0.039121	-0.915713	-15.748317	-36.717901	-148.045106
23887		9.006302	-0.114323	7.939099	-1.211323	-3.149547	1.709790	-0.146527	1.082618	-0.135127	-0.843506	0.434814	-0.482910	0.090490	-0.001146	0.078903	0.216257	-0.330951	0.040773	-0.917628	-15.658391	-36.138975	-148.340950
23888		9.150325	-0.259899	7.919552	-1.499634	-3.131626	1.782898	-0.327397	1.190584	-0.169018	-0.833496	0.429199	-0.480957	0.091970	-0.002548	0.078653	0.214863	-0.325860	0.043272	-0.919661	-15.651297	-35.504501	-148.660591
23889		9.234181	-0.457661	7.855354	-1.799995	-3.057486	1.788861	-0.492432	1.279503	-0.138163	-0.835449	0.432617	-0.483887	0.092839	-0.004448	0.077972	0.213177	-0.320518	0.046716	-0.921760	-15.744926	-34.817425	-148.991068
23890		9.006168	-0.941613	7.495090	-2.163813	-2.623462	1.439302	-0.640691	1.360963	-0.038999	-0.828613	0.430176	-0.493652	0.090567	-0.009195	0.074365	0.211796	-0.314918	0.051053	-0.923776	-15.956431	-34.069768	-149.255961
23891		8.293444	-1.460452	6.843217	-2.354962	-1.969996	0.594766	-0.700749	1.379825	0.091714	-0.812256	0.432617	-0.505127	0.083411	-0.014328	0.067908	0.210792	-0.309243	0.055925	-0.925639	-16.250149	-33.292864	-149.453562
23892		7.915729	-1.801001	6.131766	-2.731437	-1.615598	-0.146851	-0.670290	1.325999	0.238294	-0.807861	0.430908	-0.503662	0.079583	-0.017711	0.060851	0.210613	-0.303728	0.060795	-0.927198	-16.584980	-32.521955	-149.536155
23893		7.797647	-2.034186	5.638276	-3.108539	-1.452935	-0.595532	-0.554627	1.225388	0.365602	-0.792725	0.427734	-0.506104	0.078357	-0.020043	0.055959	0.211123	-0.298501	0.065241	-0.928476	-16.906217	-31.786463	-149.533043
23894		7.963246	-2.021090	5.279990	-3.513124	-1.624768	-0.846458	-0.403869	1.104236	0.479241	-0.791016	0.428223	-0.510010	0.079970	-0.019913	0.052399	0.212484	-0.293629	0.069008	-0.929446	-17.189488	-31.097620	-149.429217
23895		8.068867	-1.785790	4.876864	-3.809155	-1.961895	-1.226667	-0.247422	0.972208	0.565252	-0.785156	0.434814	-0.511475	0.080974	-0.017569	0.048397	0.214443	-0.289162	0.072049	-0.930166	-17.421104	-30.466604	-149.257165
23896		7.972991	-1.458724	4.524641	-3.878911	-2.284216	-1.694531	-0.126590	0.824392	0.629353	-0.782471	0.434814	-0.515869	0.079961	-0.014307	0.044926	0.216964	-0.285222	0.074452	-0.930609	-17.615542	-29.904289	-149.013781
23897		7.770637	-1.153148	4.197190	-3.844887	-2.529387	-2.187239	-0.033178	0.642718	0.665660	-0.779785	0.437988	-0.521973	0.077879	-0.011266	0.041724	0.219807	-0.282004	0.076282	-0.930774	-17.782006	-29.434631	-148.719527
23898		7.581345	-0.932173	3.982238	-3.768778	-2.696569	-2.551252	0.027336	0.432522	0.680028	-0.770020	0.444580	-0.520264	0.075930	-0.009069	0.039657	0.222897	-0.279688	0.077615	-0.930628	-17.935952	-29.076072	-148.374359
23899		7.598590	-0.923405	3.701175	-3.944067	-2.759171	-2.804049	0.109072	0.211721	0.679076	-0.770020	0.455078	-0.518799	0.076056	-0.008996	0.036926	0.226161	-0.278304	0.078322	-0.930196	-18.061633	-28.837564	-147.989404
23900		8.091899	-1.091135	3.797119	-4.317464	-2.888008	-2.456991	0.228104	0.025711	0.647971	-0.767822	0.448242	-0.517822	0.080959	-0.010692	0.037949	0.229540	-0.277661	0.078216	-0.929569	-18.126590	-28.705184	-147.584056
23901		9.005557	-0.976192	4.358312	-4.628370	-3.470048	-1.591695	0.358512	-0.068392	0.632064	-0.767822	0.445801	-0.519531	0.090071	-0.009555	0.043597	0.233036	-0.277307	0.077377	-0.928875	-18.120140	-28.626854	-147.173045
23902		9.404961	-0.289127	4.904070	-4.336021	-4.311122	-1.140908	0.406450	-0.065917	0.679490	-0.770508	0.447754	-0.518555	0.094043	-0.002671	0.049066	0.236812	-0.276864	0.076386	-0.928134	-18.099579	-28.538863	-146.733557
23903		8.578722	0.033106	4.696929	-3.691633	-4.233355	-1.805998	0.371449	-0.071984	0.767666	-0.764160	0.447998	-0.516602	0.085768	0.000573	0.047001	0.240949	-0.276451	0.075668	-0.927250	-18.124700	-28.438407	-146.238475
23904		7.483358	-0.124178	4.046988	-3.284460	-3.594765	-2.835295	0.378614	-0.165099	0.785080	-0.768799	0.453613	-0.519287	0.074804	-0.001025	0.040530	0.245187	-0.276450	0.074834	-0.926207	-18.159172	-28.385562	-145.716502
23905		7.213726	-0.026186	3.819152	-3.139993	-3.576114	-3.181237	0.437518	-0.337690	0.725946	-0.763428	0.464600	-0.511230	0.072073	-0.000084	0.038313	0.249312	-0.277192	0.073426	-0.924996	-18.159012	-28.436856	-145.193757
23906		7.564961	0.286465	4.055600	-3.088954	-4.041911	-2.893173	0.489794	-0.491410	0.642393	-0.761475	0.471924	-0.520752	0.075540	0.003008	0.040749	0.253155	-0.278606	0.071472	-0.923679	-18.120209	-28.587299	-144.693323
23907		5.085905	1.652399	4.225046	-0.579303	-3.960500	-4.296678	0.327909	-0.816531	0.500919	-0.758545	0.475830	-0.515137	0.050644	0.016581	0.042485	0.256249	-0.281768	0.069651	-0.922004	-18.166150	-28.939586	-144.211149
23908		2.050359	-2.175623	7.717930	1.917493	0.976756	-1.820680	0.385467	-1.193095	0.177048	-0.769775	0.471924	-0.507813	0.020062	-0.021887	0.077258	0.258062	-0.286701	0.066619	-0.920200	-18.122715	-29.555152	-143.850525
23909		4.270132	-2.004091	11.735700	2.761189	-0.113835	2.529847	0.463846	-1.036148	-0.223227	-0.781250	0.480225	-0.498047	0.042070	-0.020361	0.117529	0.258076	-0.290929	0.062857	-0.919133	-17.896739	-30.156366	-143.774210
23910		2.798292	-0.840595	8.343747	2.434382	-0.370096	-1.322044	0.525646	-0.926977	-0.703087	-0.780273	0.465576	-0.501221	0.027566	-0.008723	0.083543	0.255938	-0.294719	0.058248	-0.918827	-17.469004	-30.782273	-144.026277
23911		2.805223	0.099491	7.543613	2.425413	-1.121286	-2.220298	0.506096	-1.071384	-1.022400	-0.789795	0.456055	-0.493896	0.027652	0.000662	0.075587	0.252325	-0.299273	0.053074	-0.918668	-16.954910	-31.539132	-144.462869
23912		5.213684	-1.030901	8.595397	0.932948	-1.163566	0.182308	0.381042	-1.181596	-0.969902	-0.791504	0.455322	-0.491943	0.051577	-0.010724	0.086240	0.248798	-0.304461	0.048403	-0.918183	-16.530839	-32.345058	-144.852828
23913		6.426070	-2.477629	8.515203	-0.484900	-0.365788	1.122143	0.302662	-1.229539	-0.829154	-0.800781	0.452393	-0.488281	0.063632	-0.025170	0.085507	0.245777	-0.309911	0.044251	-0.917382	-16.196493	-33.152053	-145.153639
23914		7.689577	-2.349412	7.890164	-1.573226	-0.996771	1.297365	0.282857	-1.197439	-0.730134	-0.811279	0.438477	-0.479492	0.076335	-0.023885	0.079326	0.243212	-0.315205	0.040361	-0.916441	-15.898301	-33.924583	-145.396447
23915		8.555323	-2.463100	8.176184	-1.944004	-1.158951	2.061063	0.242770	-1.156149	-0.584908	-0.825928	0.450928	-0.462646	0.085006	-0.024980	0.082224	0.241177	-0.320309	0.036951	-0.915353	-15.666947	-34.650443	-145.563400
23916		15.137732	-4.666482	10.768251	-5.660198	-1.919653	8.385010	0.350611	-0.887643	-0.422832	-0.827393	0.448730	-0.466797	0.150798	-0.047174	0.108270	0.240057	-0.324018	0.033607	-0.914470	-15.403015	-35.202967	-145.669197
23917		11.593390	-1.951795	9.507610	-2.848215	-2.700859	4.788808	0.223686	-0.158021	-0.199440	-0.823975	0.438721	-0.473389	0.115839	-0.019740	0.095146	0.239568	-0.324496	0.032103	-0.914483	-15.218745	-35.317760	-145.769503
23918		5.573738	-1.235645	7.301701	0.168617	-0.750496	-0.575994	0.124401	-0.051411	-0.183044	-0.823730	0.446777	-0.467041	0.055707	-0.012453	0.073024	0.239061	-0.324609	0.031175	-0.914608	-15.086086	-35.371385	-145.867893
23919		7.026958	-2.345321	7.964076	-0.872466	-0.344687	1.023598	0.167060	-0.129773	-0.200558	-0.826904	0.440674	-0.473145	0.070194	-0.023590	0.079667	0.238469	-0.325024	0.029962	-0.914655	-14.930064	-35.470276	-145.975044
23920		6.847179	-1.683794	7.722774	-0.622152	-0.844740	0.592098	0.151774	-0.077894	-0.171452	-0.826660	0.441895	-0.472900	0.068427	-0.016955	0.077242	0.238076	-0.325223	0.028891	-0.914721	-14.788519	-35.536406	-146.059600
23921		6.204690	-1.355786	7.523729	-0.175649	-0.840768	-0.004271	0.160661	-0.059784	-0.149242	-0.825439	0.446533	-0.469727	0.062014	-0.013665	0.075245	0.237698	-0.325317	0.027874	-0.914818	-14.648528	-35.588601	-146.145120
23922		5.959623	-1.180638	7.703349	0.169820	-0.845617	-0.039834	0.144794	-0.071272	-0.138430	-0.833984	0.451416	-0.478516	0.059561	-0.011903	0.077046	0.237457	-0.325489	0.026892	-0.914849	-14.522950	-35.645921	-146.207190
23923		5.624212	-1.858137	7.634310	0.070612	-0.082191	-0.150630	0.133351	-0.073215	-0.123931	-0.840088	0.447266	-0.480713	0.056203	-0.018667	0.076351	0.237151	-0.325673	0.026024	-0.914888	-14.409698	-35.701637	-146.273458
23924		5.056965	-2.359112	7.844503	0.372843	0.658277	-0.215701	0.149295	-0.105289	-0.085055	-0.833740	0.455322	-0.479736	0.050518	-0.023671	0.078454	0.237177	-0.325986	0.025064	-0.914796	-14.305976	-35.769996	-146.292047
23925		5.767966	-1.457686	7.871455	0.288420	-0.439604	0.040110	0.149987	-0.126120	-0.060950	-0.844482	0.450928	-0.473633	0.057626	-0.014653	0.078740	0.237192	-0.326384	0.024160	-0.914675	-14.213474	-35.846008	-146.306343
23926		6.619661	-0.899575	7.849596	-0.062380	-1.303576	0.411895	0.112325	-0.082039	-0.057118	-0.841309	0.447021	-0.476318	0.066162	-0.009059	0.078518	0.237296	-0.326631	0.023438	-0.914578	-14.139553	-35.897414	-146.308502
23927		6.672366	-1.528252	7.840816	-0.367456	-0.761121	0.561323	0.070128	0.006248	-0.035412	-0.849365	0.455566	-0.489746	0.066723	-0.015322	0.078401	0.237282	-0.326514	0.023098	-0.914632	-14.089524	-35.896277	-146.328364
23928		5.826510	-2.071679	7.789609	-0.062056	0.098078	0.132392	0.053154	0.062802	-0.013096	-0.847168	0.457275	-0.482910	0.058288	-0.020741	0.077872	0.237469	-0.326164	0.022890	-0.914714	-14.052505	-35.861050	-146.325820
23929		5.415404	-2.308485	7.833886	0.134687	0.500881	-0.027165	0.085111	0.044715	-0.043475	-0.847168	0.461426	-0.492432	0.054167	-0.023130	0.078317	0.237438	-0.325854	0.022515	-0.914842	-13.986816	-35.839621	-146.357786
23930		6.003333	-2.089654	7.643548	-0.294933	0.027963	0.124248	0.103948	0.055763	-0.067678	-0.845459	0.452393	-0.487549	0.060048	-0.020957	0.076408	0.237478	-0.325482	0.021971	-0.914977	-13.899589	-35.815784	-146.389056
23931		5.957085	-1.900799	7.972127	0.003883	-0.072453	0.318918	0.115652	0.059944	-0.078711	-0.851807	0.461914	-0.493652	0.059587	-0.019078	0.079692	0.237333	-0.325070	0.021417	-0.915174	-13.800834	-35.790641	-146.447668
23932		5.805333	-1.566892	7.728529	0.088739	-0.320101	-0.026123	0.093761	0.060582	-0.073712	-0.851563	0.453369	-0.486084	0.058071	-0.015727	0.077260	0.237325	-0.324687	0.020917	-0.915324	-13.716660	-35.764820	-146.484135
23933		6.513626	-1.729805	7.653903	-0.513768	-0.493659	0.360518	0.095020	0.042564	-0.078271	-0.860840	0.465088	-0.499756	0.065146	-0.017360	0.076517	0.237151	-0.324379	0.020437	-0.915489	-13.631712	-35.749147	-146.539414
23934		6.468981	-1.830304	7.578269	-0.581540	-0.386124	0.293776	0.084641	0.074407	-0.069319	-0.865723	0.450928	-0.500000	0.064712	-0.018358	0.075751	0.237148	-0.323943	0.020002	-0.915653	-13.553283	-35.714917	-146.574796
23935		6.343560	-1.920026	7.969175	-0.310365	-0.199402	0.545831	0.081366	0.081709	-0.052330	-0.859863	0.459961	-0.500732	0.063463	-0.019249	0.079658	0.237067	-0.323469	0.019673	-0.915849	-13.482879	-35.673840	-146.618640
23936		6.306157	-1.741726	7.719265	-0.372270	-0.367480	0.292491	0.052845	0.106837	-0.042844	-0.864014	0.458252	-0.499268	0.063099	-0.017451	0.077154	0.237120	-0.322920	0.019469	-0.916034	-13.430294	-35.617935	-146.642410
23937		6.436172	-1.695234	7.461526	-0.608535	-0.496686	0.155034	0.048742	0.116113	-0.037502	-0.861084	0.466797	-0.502441	0.064402	-0.016983	0.074574	0.237050	-0.322325	0.019354	-0.916264	-13.381385	-35.555644	-146.681553
23938		6.467283	-1.537431	7.621429	-0.480178	-0.632769	0.269209	0.040391	0.127039	-0.028371	-0.869141	0.463379	-0.501953	0.064719	-0.015399	0.076170	0.237167	-0.321696	0.019248	-0.916457	-13.339981	-35.486499	-146.696048
23939		5.903582	-1.613608	7.681754	-0.105898	-0.309124	0.003553	0.025781	0.134935	-0.006671	-0.870117	0.468262	-0.503906	0.059087	-0.016148	0.076776	0.237199	-0.321039	0.019311	-0.916678	-13.314871	-35.409599	-146.716970
23940		5.782306	-1.764062	7.824788	-0.013899	-0.109590	0.074783	0.020282	0.132326	0.008134	-0.870850	0.472412	-0.508545	0.057876	-0.017646	0.078208	0.237451	-0.320406	0.019361	-0.916833	-13.299089	-35.332682	-146.707136
23941		5.778006	-1.650533	7.938444	0.092425	-0.200589	0.141192	0.021037	0.132744	0.010374	-0.873535	0.470215	-0.500732	0.057834	-0.016511	0.079344	0.237554	-0.319763	0.019470	-0.917028	-13.283733	-35.254747	-146.715960
23942		5.764454	-1.706700	7.893267	0.039385	-0.156241	0.107971	0.010709	0.122742	0.031088	-0.864502	0.479248	-0.514160	0.057696	-0.017062	0.078896	0.237736	-0.319181	0.019644	-0.917180	-13.283189	-35.180363	-146.708931
23943		6.295248	-1.609355	7.662101	-0.429309	-0.514650	0.211223	0.000153	0.103201	0.036656	-0.874512	0.474609	-0.506104	0.062995	-0.016082	0.076588	0.237928	-0.318695	0.019856	-0.917295	-13.292888	-35.115441	-146.695052
23944		5.853462	-1.569836	7.861846	0.000199	-0.336220	0.108148	-0.009921	0.097258	0.052858	-0.876221	0.471436	-0.520996	0.058577	-0.015679	0.078591	0.238180	-0.318252	0.020129	-0.917377	-13.315006	-35.052403	-146.669126
23945		6.022994	-1.553047	7.799238	-0.151466	-0.443889	0.152077	-0.032700	0.071196	0.066203	-0.886963	0.481201	-0.508301	0.060263	-0.015498	0.077973	0.238459	-0.317949	0.020500	-0.917402	-13.357963	-35.001410	-146.630053
23946		5.878129	-1.515358	8.043281	0.106675	-0.394467	0.255882	-0.050425	0.034602	0.084060	-0.884766	0.472168	-0.515137	0.058802	-0.015109	0.080426	0.238795	-0.317838	0.020933	-0.917343	-13.421147	-34.969132	-146.572900
23947		5.904994	-1.219120	7.962732	0.169614	-0.689867	0.150024	-0.087031	-0.007222	0.113817	-0.884277	0.476807	-0.510742	0.059054	-0.012123	0.079635	0.239214	-0.317954	0.021536	-0.917179	-13.520965	-34.955402	-146.488860
23948		6.139541	-1.087821	7.924150	0.051594	-0.931762	0.227163	-0.132782	-0.043587	0.160860	-0.884277	0.488037	-0.512207	0.061387	-0.010776	0.079262	0.239780	-0.318292	0.022376	-0.916894	-13.668459	-34.956163	-146.366839
23949		6.460103	-0.924718	7.635329	-0.254344	-1.272847	0.147302	-0.168493	-0.080030	0.195358	-0.878906	0.487061	-0.513428	0.064579	-0.009120	0.076387	0.240451	-0.318830	0.023394	-0.916506	-13.853577	-34.971491	-146.215402
23950		5.974687	-1.562138	7.673150	-0.154406	-0.507262	0.022614	-0.202168	-0.073157	0.233543	-0.884521	0.490479	-0.517090	0.059737	-0.015474	0.076769	0.241241	-0.319377	0.024632	-0.916076	-14.071975	-34.978025	-146.039042
23951		5.642385	-1.841660	7.782305	0.035067	-0.122219	-0.026153	-0.204960	-0.057137	0.240183	-0.880859	0.492432	-0.509766	0.056424	-0.018269	0.077858	0.242055	-0.319847	0.025916	-0.915661	-14.293272	-34.973429	-145.860984
23952		5.708188	-2.244678	7.580238	-0.286548	0.154929	-0.067134	-0.202391	-0.039195	0.233872	-0.884277	0.502686	-0.514648	0.057093	-0.022303	0.075836	0.242842	-0.320237	0.027196	-0.915280	-14.508537	-34.959972	-145.690272
23953		5.380413	-2.606335	7.679115	-0.146932	0.611083	-0.101067	-0.166693	-0.023579	0.189613	-0.884766	0.513672	-0.510498	0.053820	-0.025948	0.076819	0.243480	-0.320512	0.028265	-0.914981	-14.684806	-34.943017	-145.552433
23954		5.161873	-2.816483	7.809547	-0.000878	0.892268	-0.077680	-0.126506	-0.020910	0.125039	-0.893799	0.516113	-0.516113	0.051628	-0.028083	0.078119	0.243886	-0.320741	0.029046	-0.914768	-14.812460	-34.934452	-145.458697
23955		5.433231	-2.924832	7.483791	-0.418844	0.816288	-0.156601	-0.074192	-0.029557	0.050070	-0.892822	0.516113	-0.515381	0.054329	-0.029207	0.074857	0.244035	-0.320950	0.029461	-0.914642	-14.882261	-34.940802	-145.414176
23956		5.450905	-2.910462	7.504309	-0.407849	0.793110	-0.132685	-0.027223	-0.013408	-0.005263	-0.895508	0.514893	-0.518799	0.054503	-0.029096	0.075051	0.244003	-0.321042	0.029588	-0.914614	-14.901872	-34.947066	-145.409827
23957		5.152459	-2.950991	7.858027	-0.009197	1.005316	-0.015033	0.013716	-0.022964	-0.059170	-0.899902	0.510742	-0.519287	0.051507	-0.029531	0.078584	0.243792	-0.321130	0.029433	-0.914645	-14.878362	-34.965822	-145.440277
23958		5.678347	-2.651729	7.493686	-0.454919	0.467860	-0.065648	0.055575	-0.039874	-0.099707	-0.894287	0.516113	-0.502930	0.056755	-0.026566	0.074941	0.243465	-0.321255	0.028998	-0.914702	-14.816686	-35.000600	-145.495028
23959		6.257603	-2.036652	7.370111	-0.658466	-0.343377	0.039854	0.066260	-0.035086	-0.118777	-0.895752	0.512451	-0.514404	0.062551	-0.020428	0.073705	0.243068	-0.321343	0.028493	-0.914792	-14.741109	-35.034735	-145.563704
23960		5.675810	-1.954608	7.784365	0.017933	-0.091823	0.017007	0.046684	-0.033117	-0.107258	-0.899170	0.521729	-0.513428	0.056735	-0.019595	0.077848	0.242691	-0.321449	0.028094	-0.914867	-14.680779	-35.066772	-145.624911
23961		6.152639	-1.926127	7.761930	-0.304896	-0.329113	0.267551	0.045617	-0.056552	-0.101337	-0.904297	0.522705	-0.516602	0.061495	-0.019310	0.077632	0.242343	-0.321658	0.027685	-0.914899	-14.625850	-35.110155	-145.678120
23962		6.112126	-1.646721	7.692990	-0.197555	-0.553786	0.132470	0.025642	-0.062937	-0.089560	-0.906494	0.514893	-0.509521	0.061090	-0.016504	0.076947	0.242018	-0.321924	0.027375	-0.914901	-14.587359	-35.156082	-145.722192
23963		6.038369	-1.638905	7.771565	-0.093425	-0.510678	0.151027	0.010215	-0.061535	-0.066379	-0.907227	0.514160	-0.519531	0.060354	-0.016413	0.077733	0.241773	-0.322193	0.027179	-0.914876	-14.566743	-35.197129	-145.750935
23964		5.863205	-1.716192	7.709135	-0.040540	-0.362619	0.016865	-0.003199	-0.072585	-0.056116	-0.903076	0.523926	-0.512451	0.058599	-0.017177	0.077113	0.241555	-0.322533	0.027043	-0.914818	-14.558729	-35.243573	-145.770694
23965		6.263369	-1.976873	7.359322	-0.626704	-0.348434	0.025161	0.000527	-0.072127	-0.050226	-0.903320	0.523926	-0.512451	0.062602	-0.019785	0.073616	0.241370	-0.322860	0.026903	-0.914756	-14.551010	-35.288160	-145.786648
23966		5.490848	-1.941340	7.891133	0.235898	0.036167	-0.008034	-0.004053	-0.052285	-0.048122	-0.900146	0.523438	-0.512939	0.054883	-0.019425	0.078926	0.241185	-0.323107	0.026809	-0.914720	-14.544507	-35.322205	-145.804589
23967		5.383361	-2.215758	7.972332	0.245536	0.340480	0.049970	-0.000485	-0.056996	-0.053278	-0.906738	0.520020	-0.517822	0.053805	-0.022172	0.079739	0.240982	-0.323367	0.026687	-0.914685	-14.534591	-35.358835	-145.825316
23968		5.997761	-2.077614	7.440453	-0.428161	-0.113671	-0.042646	0.022384	-0.055006	-0.074174	-0.910400	0.532715	-0.512939	0.059949	-0.020807	0.074419	0.240721	-0.323598	0.026426	-0.914680	-14.502917	-35.398112	-145.860538
23969		6.004078	-1.942496	7.560258	-0.300579	-0.216003	0.028183	0.018338	-0.036373	-0.074913	-0.908447	0.524414	-0.515381	0.060020	-0.019454	0.075612	0.240447	-0.323743	0.026209	-0.914707	-14.471526	-35.426387	-145.899678
23970		5.855143	-1.956758	7.634631	-0.159076	-0.120791	0.003590	0.013405	-0.044719	-0.075760	-0.912354	0.528076	-0.518066	0.058527	-0.019595	0.076358	0.240162	-0.323938	0.025999	-0.914719	-14.443246	-35.460163	-145.937865
23971		5.887557	-1.933016	7.622847	-0.176008	-0.151314	0.008402	0.014539	-0.036864	-0.080694	-0.925049	0.536865	-0.511475	0.058854	-0.019359	0.076238	0.239856	-0.324091	0.025789	-0.914751	-14.411722	-35.489503	-145.980924
23972		6.092226	-1.898646	7.633097	-0.291983	-0.267026	0.128524	0.019903	-0.033098	-0.079969	-0.916992	0.531494	-0.523682	0.060902	-0.019018	0.076339	0.239560	-0.324225	0.025556	-0.914787	-14.376795	-35.517401	-146.024088
23973		5.992212	-1.816194	7.538953	-0.247040	-0.297582	-0.020273	0.032333	-0.009534	-0.092484	-0.909912	0.534424	-0.514893	0.059910	-0.018202	0.075389	0.239225	-0.324233	0.025278	-0.914880	-14.327558	-35.533199	-146.080032
23974		6.000067	-2.073085	7.427148	-0.431951	-0.077435	-0.052132	0.056926	0.022135	-0.129213	-0.925293	0.530518	-0.514404	0.059995	-0.020791	0.074259	0.238758	-0.324077	0.024862	-0.915069	-14.246241	-35.537336	-146.166471
23975		5.786333	-2.094317	7.614581	-0.189906	0.069101	-0.024491	0.073403	0.037333	-0.140173	-0.918457	0.537354	-0.516357	0.057863	-0.021012	0.076127	0.238265	-0.323827	0.024375	-0.915299	-14.149806	-35.533681	-146.263120
23976		5.508885	-2.013437	7.812977	0.143568	0.155756	-0.045423	0.079311	0.043237	-0.144845	-0.922119	0.527832	-0.522461	0.055091	-0.020205	0.078110	0.237759	-0.323549	0.023856	-0.915542	-14.047362	-35.528048	-146.363861
23977		5.721708	-1.881735	7.846840	0.067208	-0.042268	0.078999	0.065699	0.030484	-0.139500	-0.925293	0.529541	-0.522217	0.057216	-0.018883	0.078453	0.237258	-0.323339	0.023397	-0.915758	-13.956311	-35.527839	-146.458858
23978		5.735520	-1.744692	7.628231	-0.022304	-0.183409	-0.112383	0.061044	0.004112	-0.129849	-0.928711	0.534180	-0.527344	0.057345	-0.017507	0.076276	0.236796	-0.323260	0.022940	-0.915917	-13.874144	-35.541630	-146.542708
23979		5.824512	-1.787751	7.770131	-0.018160	-0.158685	0.060023	0.047752	-0.024205	-0.123572	-0.928467	0.539063	-0.523193	0.058225	-0.017932	0.077704	0.236344	-0.323319	0.022524	-0.916023	-13.805011	-35.569443	-146.617632
23980		5.471797	-1.930689	7.872855	0.224135	0.148469	-0.036304	0.039977	-0.061646	-0.116450	-0.937256	0.531982	-0.532471	0.054682	-0.019354	0.078742	0.235916	-0.323564	0.022108	-0.916057	-13.746537	-35.617834	-146.681382
23981		5.641116	-1.827327	7.828130	0.129283	-0.012018	0.006888	0.036084	-0.096381	-0.121547	-0.937256	0.536865	-0.521240	0.056362	-0.018322	0.078305	0.235463	-0.323968	0.021663	-0.916042	-13.691736	-35.685419	-146.743011
23982		5.759228	-1.884957	7.752191	-0.013577	-0.008253	0.026924	0.033066	-0.134276	-0.130393	-0.941895	0.538818	-0.527588	0.057528	-0.018900	0.077557	0.234968	-0.324555	0.021170	-0.915973	-13.638452	-35.776024	-146.804438
23983		5.689020	-1.854891	7.605178	-0.032058	-0.004731	-0.135745	0.036451	-0.170816	-0.144098	-0.946777	0.539795	-0.528320	0.056812	-0.018604	0.076097	0.234419	-0.325301	0.020600	-0.915862	-13.581287	-35.888004	-146.869477
23984		5.984305	-1.728798	7.737232	-0.086345	-0.214471	0.117665	0.030454	-0.211267	-0.146968	-0.948975	0.540527	-0.524658	0.059749	-0.017344	0.077433	0.233852	-0.326244	0.020001	-0.915684	-13.529877	-36.023622	-146.929926
23985		5.627261	-1.605488	7.975957	0.368836	-0.120923	0.072091	0.009699	-0.235294	-0.132446	-0.952637	0.537842	-0.525391	0.056168	-0.016096	0.079825	0.233319	-0.327314	0.019497	-0.915449	-13.498560	-36.169874	-146.976696
23986		5.908608	-1.772344	7.691128	-0.042980	-0.111800	0.045907	0.000837	-0.280712	-0.119900	-0.958984	0.527344	-0.523926	0.058967	-0.017759	0.076994	0.232833	-0.328606	0.018997	-0.915121	-13.481470	-36.340506	-147.007359
23987		6.390287	-1.606762	7.488345	-0.399244	-0.475870	0.142554	0.001440	-0.307911	-0.121848	-0.958496	0.536621	-0.514404	0.063778	-0.016107	0.074982	0.232341	-0.330016	0.018463	-0.914749	-13.465981	-36.525777	-147.035071
23988		5.998183	-1.657234	7.826184	0.078010	-0.200163	0.183688	-0.010309	-0.321663	-0.104117	-0.957275	0.536133	-0.519287	0.059847	-0.016599	0.078359	0.231911	-0.331505	0.017992	-0.914329	-13.465570	-36.717121	-147.048205
23989		6.016754	-1.639756	7.748431	0.053536	-0.215571	0.131098	-0.023006	-0.333469	-0.097900	-0.970459	0.536621	-0.513672	0.060030	-0.016418	0.077586	0.231489	-0.333056	0.017580	-0.913880	-13.476392	-36.913436	-147.055138
23990		5.986750	-1.786127	7.878533	0.124666	-0.038395	0.241445	-0.026195	-0.360093	-0.090047	-0.972900	0.537109	-0.507080	0.059717	-0.017878	0.078895	0.231100	-0.334736	0.017160	-0.913373	-13.494791	-37.124315	-147.052011
23991		5.847822	-1.742560	7.891964	0.277003	0.001210	0.159262	-0.052151	-0.366830	-0.076193	-0.973633	0.537598	-0.509033	0.058327	-0.017427	0.079031	0.230730	-0.336469	0.016879	-0.912835	-13.534946	-37.336313	-147.037995
23992		6.504381	-1.510282	7.508113	-0.268544	-0.521821	0.218022	-0.054598	-0.406980	-0.072465	-0.977295	0.538818	-0.495605	0.064885	-0.015106	0.075217	0.230375	-0.338392	0.016564	-0.912219	-13.582174	-37.570936	-147.014248
23993		5.865463	-1.476802	7.744397	0.356747	-0.231000	0.004618	-0.087829	-0.425978	-0.055945	-0.974854	0.545166	-0.499512	0.058485	-0.014750	0.077575	0.230040	-0.340431	0.016411	-0.911548	-13.658093	-37.813118	-146.975319
23994		5.757628	-1.760582	7.864704	0.432088	0.098936	0.082099	-0.118797	-0.491957	-0.065589	-0.989258	0.538574	-0.494629	0.057377	-0.017578	0.078799	0.229612	-0.342811	0.016302	-0.910765	-13.754806	-38.094063	-146.931165
23995		5.927729	-1.994087	7.644232	0.136887	0.222593	0.060513	-0.156214	-0.558525	-0.090445	-0.989746	0.540039	-0.489258	0.059054	-0.019908	0.076623	0.229011	-0.345531	0.016249	-0.909889	-13.870196	-38.414608	-146.892256
23996		6.255335	-2.019524	7.435360	-0.164164	0.100328	0.109756	-0.097007	-0.639254	-0.131621	-0.999023	0.529297	-0.486816	0.062302	-0.020200	0.074563	0.228329	-0.348556	0.015759	-0.908915	-13.942715	-38.786432	-146.867499
23997		6.107128	-1.793548	7.667990	0.235107	0.019072	0.150035	-0.116298	-0.693712	-0.137157	-1.001953	0.536377	-0.471680	0.060792	-0.017933	0.076902	0.227590	-0.351842	0.015289	-0.907842	-14.030796	-39.188511	-146.836263
23998		6.022734	-1.712872	7.741451	0.437397	0.021094	0.134426	-0.124527	-0.745668	-0.131027	-1.009766	0.529053	-0.473633	0.059927	-0.017120	0.077649	0.226865	-0.355372	0.014803	-0.906655	-14.132923	-39.619326	-146.790133
23999		6.274958	-1.665573	7.330531	0.097506	-0.152333	-0.022249	-0.109865	-0.794785	-0.135283	-1.017090	0.542969	-0.455566	0.062446	-0.016658	0.073563	0.226147	-0.359099	0.014191	-0.905375	-14.231785	-40.077202	-146.736884
24000		6.574653	-1.697760	7.249656	-0.085148	-0.227271	0.117391	-0.117479	-0.835015	-0.137949	-1.026367	0.528076	-0.446045	0.065431	-0.016980	0.072780	0.225402	-0.363015	0.013559	-0.904008	-14.339584	-40.558468	-146.676611
24001		6.285235	-1.705695	7.300250	0.207592	-0.057621	-0.032086	-0.109733	-0.879841	-0.139863	-1.033691	0.528809	-0.436035	0.062518	-0.017061	0.073287	0.224662	-0.367113	0.012843	-0.902547	-14.449283	-41.064046	-146.607710
24002		6.386407	-1.804566	7.252245	0.154357	0.019851	0.016493	-0.103315	-0.920627	-0.158370	-1.033691	0.528076	-0.432373	0.063515	-0.018058	0.072825	0.223847	-0.371386	0.012012	-0.901011	-14.552803	-41.595554	-146.542840
24003		6.149636	-1.891254	7.370994	0.432615	0.252486	-0.041569	-0.103166	-0.956063	-0.168135	-1.041992	0.525635	-0.416992	0.061127	-0.018926	0.074012	0.222986	-0.375806	0.011128	-0.899402	-14.657940	-42.147283	-146.476571
24004		6.800148	-1.677913	6.861601	-0.144815	-0.237089	-0.011619	-0.076828	-1.012396	-0.204523	-1.043457	0.524902	-0.410156	0.067636	-0.016822	0.068965	0.222008	-0.380448	0.009989	-0.897704	-14.738462	-42.736177	-146.424680
24005		6.909385	-1.712671	6.886439	-0.116937	-0.197639	0.088939	-0.074291	-1.046126	-0.223835	-1.048340	0.518555	-0.401611	0.068713	-0.017178	0.069231	0.220944	-0.385223	0.008768	-0.895941	-14.813915	-43.345791	-146.379126
24006		6.360725	-1.911134	7.064410	0.355052	0.280730	-0.127063	-0.075044	-1.078020	-0.236688	-1.045410	0.518555	-0.383301	0.063203	-0.019160	0.070993	0.219815	-0.390137	0.007487	-0.894102	-14.888629	-43.975654	-146.335331
24007		6.981573	-1.982910	6.548569	-0.310568	0.070351	-0.042551	-0.063695	-1.124823	-0.273925	-1.065918	0.510010	-0.377441	0.069419	-0.019903	0.065883	0.218537	-0.395231	0.006034	-0.892187	-14.945137	-44.636143	-146.309248
24008		6.943938	-1.766144	6.583417	-0.081966	-0.046709	-0.082893	-0.056354	-1.150070	-0.304590	-1.071045	0.516846	-0.359863	0.069032	-0.017748	0.066237	0.217130	-0.400422	0.004457	-0.890223	-14.984909	-45.315865	-146.300765
24009		7.067396	-1.730098	6.384090	-0.182529	-0.098965	-0.135208	-0.039833	-1.205210	-0.313688	-1.076172	0.500244	-0.349365	0.070260	-0.017399	0.064269	0.215709	-0.405821	0.002731	-0.888128	-15.019318	-46.026711	-146.287078
24010		6.848262	-1.646211	6.617363	0.248089	0.013785	-0.151675	-0.034081	-1.245445	-0.327525	-1.076416	0.500000	-0.336670	0.068042	-0.016562	0.066601	0.214230	-0.411381	0.000905	-0.885929	-15.049045	-46.762612	-146.275047
24011		6.834646	-1.754164	6.675113	0.363864	0.194590	-0.108310	-0.014879	-1.288542	-0.331264	-1.080078	0.490723	-0.320801	0.067885	-0.017649	0.067191	0.212765	-0.417090	-0.001057	-0.883610	-15.073354	-47.522171	-146.255963
24012		7.434780	-1.652831	5.983317	-0.334439	-0.175190	-0.134679	0.006711	-1.339892	-0.357746	-1.085938	0.485596	-0.308350	0.073915	-0.016663	0.060329	0.211218	-0.422987	-0.003228	-0.881169	-15.077832	-48.314809	-146.246751
24013		7.050990	-1.478168	6.402929	0.367622	-0.041218	-0.181458	0.000843	-1.357222	-0.358700	-1.092529	0.494629	-0.301025	0.070047	-0.014908	0.064506	0.209644	-0.428942	-0.005388	-0.878652	-15.088635	-49.116449	-146.234120
24014		7.231573	-1.512252	6.244916	0.252682	-0.030529	-0.142366	0.019158	-1.402958	-0.350691	-1.096191	0.480957	-0.277100	0.071849	-0.015255	0.062953	0.208132	-0.435063	-0.007665	-0.875981	-15.102294	-49.942920	-146.203688
24015		7.390681	-1.458191	6.198467	0.271335	-0.069196	-0.061311	0.016441	-1.437751	-0.336818	-1.111328	0.476074	-0.263916	0.073434	-0.014711	0.062512	0.206663	-0.441310	-0.009930	-0.873176	-15.134463	-50.785827	-146.152014
24016		7.397359	-1.447983	5.946610	0.200469	-0.053879	-0.213995	0.028081	-1.478109	-0.329565	-1.111084	0.475830	-0.239014	0.073507	-0.014610	0.060008	0.205237	-0.447703	-0.012276	-0.870224	-15.174027	-51.650665	-146.082521
24017		7.828285	-1.308146	5.643132	-0.080143	-0.314958	-0.079716	0.042200	-1.508396	-0.321030	-1.112549	0.471436	-0.232422	0.077833	-0.013219	0.057017	0.203867	-0.454183	-0.014690	-0.867145	-15.220295	-52.530217	-145.995509
24018		7.556060	-1.413235	5.876113	0.329151	0.003031	-0.142647	0.053954	-1.554470	-0.305935	-1.118896	0.458740	-0.219971	0.075079	-0.014263	0.059342	0.202573	-0.460828	-0.017172	-0.863890	-15.283105	-53.433631	-145.879976
24019		7.694984	-1.502543	5.741943	0.254668	0.091549	-0.098525	0.063994	-1.616449	-0.309976	-1.124756	0.455078	-0.197754	0.076459	-0.015163	0.058034	0.201266	-0.467696	-0.019763	-0.860443	-15.354931	-54.371103	-145.747931
24020		8.013325	-1.622530	5.169551	-0.261140	0.056025	-0.143322	0.074994	-1.678354	-0.343378	-1.123291	0.454590	-0.183594	0.079668	-0.016382	0.052359	0.199821	-0.474788	-0.022545	-0.856819	-15.412570	-55.348473	-145.626709
24021		7.888062	-1.564417	5.467482	0.200619	0.201738	-0.092665	0.083443	-1.745830	-0.369724	-1.135010	0.451904	-0.159668	0.078370	-0.015812	0.055354	0.198260	-0.482117	-0.025487	-0.852999	-15.464604	-56.366349	-145.508244
24022		7.934893	-1.643673	5.330792	0.187959	0.324030	-0.120502	0.083529	-1.835490	-0.389522	-1.135742	0.443115	-0.151855	0.078823	-0.016613	0.054026	0.196587	-0.489789	-0.028568	-0.848908	-15.525993	-57.437402	-145.379612
24023		8.092640	-1.687596	4.991020	-0.021756	0.335459	-0.162138	0.094081	-1.920837	-0.427543	-1.142334	0.430908	-0.125732	0.080406	-0.017072	0.050676	0.194748	-0.497759	-0.031864	-0.844567	-15.575417	-58.560629	-145.259886
24024		8.288459	-1.681549	4.982724	0.051879	0.377968	-0.004285	0.099570	-2.006343	-0.469876	-1.138672	0.429199	-0.097412	0.082339	-0.017034	0.050647	0.192710	-0.506031	-0.035373	-0.839967	-15.610319	-59.738215	-145.154528
24025		8.147049	-1.592294	4.887721	0.231295	0.425944	-0.191816	0.098802	-2.084878	-0.493992	-1.146973	0.417236	-0.078613	0.080915	-0.016148	0.049715	0.190535	-0.514569	-0.039007	-0.835101	-15.649775	-60.962124	-145.046057
24026		8.180565	-1.435406	5.086266	0.615433	0.441523	-0.103178	0.117898	-2.156576	-0.501081	-1.147461	0.410400	-0.058105	0.081215	-0.014588	0.051732	0.188341	-0.523331	-0.042807	-0.829952	-15.697874	-62.227327	-144.916302
24027		8.559538	-1.128999	4.793703	0.514314	0.101178	0.048389	0.120430	-2.256317	-0.495076	-1.151855	0.398438	-0.036865	0.085019	-0.011530	0.048891	0.186135	-0.532434	-0.046686	-0.824432	-15.791138	-63.545838	-144.736028
24028		8.916039	-1.052149	4.119889	0.026623	-0.121116	0.064369	0.103543	-2.345125	-0.480199	-1.149414	0.395752	-0.008789	0.088644	-0.010756	0.042235	0.183897	-0.541852	-0.050536	-0.818550	-15.955312	-64.911438	-144.489542
24029		8.818416	-1.364242	4.622255	0.589398	0.462838	0.208498	0.095145	-2.421570	-0.478798	-1.143066	0.390137	0.022461	0.087583	-0.013875	0.047279	0.181597	-0.551508	-0.054407	-0.812343	-16.177774	-66.317872	-144.187426
24030		8.678178	-1.122698	4.451448	0.781765	0.354931	-0.032903	0.114555	-2.529229	-0.485411	-1.135742	0.375977	0.046143	0.086182	-0.011463	0.045600	0.179265	-0.561498	-0.058468	-0.805708	-16.454909	-67.784669	-143.816879
24031		9.258649	-0.884052	3.562258	0.121682	-0.124821	0.145109	0.049673	-2.587309	-0.485893	-1.147217	0.374268	0.077637	0.092094	-0.009074	0.036814	0.176702	-0.571681	-0.062307	-0.798796	-16.841027	-69.281918	-143.373361
24032		8.909364	-0.768811	3.164381	0.129605	-0.144570	-0.329128	0.060862	-2.675848	-0.493430	-1.139404	0.378662	0.103760	0.088640	-0.007917	0.032829	0.174081	-0.582106	-0.066283	-0.791489	-17.315416	-70.828310	-142.833284
24033		8.837977	-0.585252	3.106388	0.384382	-0.186696	-0.436459	0.059612	-2.754223	-0.475183	-1.141846	0.366455	0.130615	0.087927	-0.006071	0.032275	0.171470	-0.592735	-0.070253	-0.783790	-17.953927	-72.411842	-142.126414
24034		8.774791	-0.656145	3.201724	0.690497	0.053519	-0.474978	0.070080	-2.844592	-0.437959	-1.143555	0.360352	0.168945	0.087266	-0.006764	0.033258	0.168969	-0.603607	-0.074221	-0.775628	-18.845848	-74.035320	-141.154605
24035		9.358220	-0.473045	2.490307	0.224808	-0.309231	-0.125140	0.074581	-2.951464	-0.416916	-1.128174	0.350342	0.188721	0.093191	-0.004935	0.026278	0.166489	-0.614764	-0.078214	-0.766961	-20.071095	-75.706468	-139.843099
24036		9.140802	-0.357640	2.209017	0.300341	-0.337944	-0.413176	0.115755	-2.993985	-0.366804	-1.122314	0.337646	0.219971	0.091057	-0.003757	0.023453	0.164272	-0.625935	-0.082232	-0.757930	-21.762472	-77.381603	-138.037565
24037		8.971829	-0.020630	2.257972	0.744713	-0.480704	-0.603994	0.150170	-3.086441	-0.292734	-1.114014	0.340576	0.254639	0.089355	-0.000355	0.023960	0.162368	-0.637309	-0.086201	-0.748361	-24.274982	-79.071966	-135.385306
24038		9.223299	0.181008	2.108172	0.909075	-0.625157	-0.414738	0.161165	-3.203344	-0.171951	-1.106445	0.336182	0.278809	0.091881	0.001713	0.022557	0.160859	-0.649007	-0.089904	-0.738127	-28.278567	-80.759562	-131.227174
24039		8.648792	0.543218	1.833205	1.118458	-0.867460	-1.069324	0.172911	-3.378742	-0.047243	-1.093750	0.327148	0.322266	0.086163	0.005395	0.019794	0.159727	-0.661220	-0.093359	-0.727021	-34.914183	-82.421730	-124.421982
24040		9.032084	0.450293	1.909189	1.421164	-0.682530	-0.706015	0.132217	-3.605989	0.112210	-1.079102	0.338867	0.356445	0.089955	0.004540	0.020719	0.158883	-0.674167	-0.096295	-0.714830	-46.578496	-83.949452	-112.601561
24041		9.344413	0.264322	1.758278	1.527582	-0.481267	-0.437006	0.072970	-3.800901	0.256413	-1.065918	0.334229	0.394531	0.093084	0.002756	0.019355	0.158208	-0.687692	-0.098651	-0.701653	-66.332761	-85.041819	-92.718290
24042		9.822397	0.397524	1.358579	1.561681	-0.679103	-0.036705	0.006820	-4.020521	0.392756	-1.045166	0.333984	0.435547	0.097916	0.004167	0.015556	0.157614	-0.701845	-0.100447	-0.687374	-93.682152	-85.220395	-65.271253
24043		10.330361	-0.334965	0.816483	1.213508	-0.120612	0.482552	-0.108850	-4.213137	0.477003	-1.021240	0.330322	0.476318	0.103109	-0.003098	0.010340	0.156740	-0.716489	-0.101654	-0.672118	-118.310233	-84.266122	-40.607591
24044		10.778909	-1.021966	0.363819	1.018527	0.445044	0.962637	-0.116378	-4.348874	0.426314	-0.993164	0.331787	0.515381	0.107697	-0.009987	0.005987	0.155525	-0.731240	-0.103081	-0.656105	-134.525848	-82.570341	-24.356290
24045		10.455757	-2.669692	-0.785912	-0.225059	1.716299	0.866895	-0.042063	-4.409396	0.164922	-0.966064	0.333740	0.561523	0.104719	-0.026612	-0.005546	0.153620	-0.745643	-0.105699	-0.639723	-145.054513	-80.569340	-13.741065
24046		10.756314	-3.012724	0.098395	0.955350	2.513092	1.028748	-0.011757	-4.486828	-0.087119	-0.938721	0.330811	0.589355	0.107492	-0.030174	0.003398	0.150903	-0.759769	-0.109366	-0.622911	-152.456389	-78.391239	-6.222877
24047		10.828072	-3.995291	-0.693545	0.335709	3.339597	1.250963	-0.025273	-4.552478	-0.421907	-0.912598	0.306396	0.639160	0.108316	-0.040182	-0.004465	0.146981	-0.773536	-0.114252	-0.605793	-158.235087	-76.117741	-0.316295
24048		11.298484	-4.039455	-1.261558	0.358739	3.423694	1.749772	-0.048479	-4.612787	-0.848326	-0.874512	0.312012	0.677734	0.113063	-0.040877	-0.009998	0.141563	-0.786847	-0.120703	-0.588441	-163.201421	-73.780802	4.794639
24049		12.882416	-5.159580	-1.061245	1.040566	4.900188	3.171009	-0.182070	-4.667844	-1.207233	-0.837891	0.297852	0.709229	0.128710	-0.052381	-0.007560	0.134452	-0.799751	-0.128140	-0.570878	-167.574662	-71.365677	9.265832
24050		12.212276	-4.752825	-1.984766	0.631794	4.544836	2.620306	-0.334786	-4.821597	-1.698221	-0.802734	0.275879	0.747803	0.122143	-0.048595	-0.016822	0.125146	-0.812389	-0.137130	-0.552773	-171.767790	-68.820946	13.518239
24051		14.593010	-4.016206	-0.899496	3.147550	4.920220	4.177581	-0.515733	-4.826512	-2.059551	-0.765869	0.263184	0.781250	0.145665	-0.041680	-0.005371	0.114020	-0.824357	-0.146997	-0.534628	-175.621077	-66.201375	17.365625
24052		13.851480	-3.787337	-0.985437	3.347504	5.116645	3.215892	-0.838793	-4.793511	-2.225624	-0.724121	0.239014	0.800049	0.138262	-0.039445	-0.006375	0.101063	-0.835719	-0.156563	-0.516573	-179.078978	-63.516826	20.651347
24053		13.384413	-2.489598	-1.149708	3.929372	4.299668	2.544103	-1.043686	-4.733596	-2.341447	-0.679443	0.222412	0.828613	0.133760	-0.026511	-0.008195	0.086925	-0.846338	-0.165940	-0.498617	177.845584	-60.791143	23.450140
24054		14.451943	-2.476823	-0.497774	5.348157	5.217537	2.811423	-1.049722	-4.425465	-2.410301	-0.641602	0.202148	0.856201	0.144268	-0.026522	-0.001647	0.072854	-0.855525	-0.175455	-0.481647	175.174174	-58.177769	25.865452
24055		14.129722	-0.032734	-0.445989	6.506725	3.372785	2.274574	-1.223300	-3.973916	-2.105591	-0.602295	0.186035	0.869141	0.141335	-0.001831	-0.001644	0.059055	-0.863464	-0.182870	-0.466370	172.992937	-55.790358	27.628168
24056		12.702462	-0.300828	-2.948729	4.059621	2.990366	2.216030	-1.462797	-3.629097	-1.822716	-0.573486	0.170654	0.881836	0.127496	-0.004373	-0.027148	0.045253	-0.870459	-0.188460	-0.452478	171.106451	-53.589401	28.930812
24057		11.345221	-0.634977	-5.320641	1.689732	2.708651	2.320554	-1.462715	-3.117112	-1.670019	-0.548584	0.138672	0.896240	0.114202	-0.007682	-0.051377	0.032173	-0.876112	-0.193044	-0.440598	169.432899	-51.669605	29.979565
24058		9.980486	0.545352	-7.335588	0.075489	1.093279	2.536633	-1.284271	-2.289882	-1.515362	-0.524902	0.137695	0.904541	0.100671	0.004227	-0.072236	0.021104	-0.879759	-0.197336	-0.432015	167.969812	-50.216438	30.938799
24059		8.625369	2.530100	-10.151290	-1.917532	-1.447727	3.531419	-1.253136	-1.684491	-1.244968	-0.498779	0.117920	0.905518	0.087258	0.024126	-0.100934	0.011247	-0.882240	-0.200223	-0.425954	166.684990	-49.120800	31.679937
24060		10.322341	2.564965	-8.170261	0.600826	-0.245972	3.583446	-1.156686	-1.064875	-1.052866	-0.492920	0.097900	0.903564	0.103788	0.024633	-0.081295	0.002844	-0.883482	-0.202408	-0.422471	165.524922	-48.386653	32.338941
24061		12.466772	7.760058	1.616636	10.955936	-2.363400	-0.188138	-1.292710	0.090124	-0.931892	-0.493652	0.084961	0.896973	0.125035	0.077121	0.015611	-0.004736	-0.882342	-0.203742	-0.424192	164.192905	-48.299718	33.128013
24062		25.710437	4.628945	8.642902	22.258669	6.522752	4.989882	-2.047250	2.266181	-0.777905	-0.517090	0.076904	0.887451	0.258238	0.046148	0.083034	-0.013101	-0.876587	-0.202814	-0.436222	162.103731	-49.416594	34.341943
24063		10.163693	0.583094	-2.875985	3.265461	2.769226	-0.139625	-2.211037	3.263445	-0.650685	-0.544434	0.050293	0.857178	0.101167	0.005171	-0.030473	-0.020891	-0.868493	-0.200972	-0.452652	159.680845	-51.064425	35.843109
24064		8.663759	-2.023581	-6.762893	-1.797576	4.070578	0.438243	-1.680902	3.053647	-0.317265	-0.572754	0.029053	0.845703	0.085561	-0.020947	-0.068767	-0.025826	-0.860953	-0.198787	-0.467521	157.695547	-52.632582	37.140236
24065		8.764706	-3.975234	-8.113445	-3.759375	5.695680	0.764248	-0.809446	2.330135	0.245444	-0.603760	0.031250	0.828613	0.086744	-0.039976	-0.081987	-0.026410	-0.855582	-0.196080	-0.478367	156.715760	-53.921129	37.781707
24066		10.478678	-4.380849	-7.897551	-3.122402	6.615129	1.928326	0.156769	1.842836	0.799230	-0.618896	0.041260	0.819580	0.104227	-0.043329	-0.079972	-0.022008	-0.851934	-0.193221	-0.486200	156.815211	-55.076365	37.767462
24067		12.945301	-4.389124	-6.501761	-1.035383	7.484383	3.302919	1.136889	1.807098	1.094309	-0.640381	0.059814	0.809570	0.129093	-0.042809	-0.066431	-0.012747	-0.848663	-0.191464	-0.492899	157.731893	-56.276838	37.444110
24068		14.713931	-3.950216	-4.842909	1.032540	7.646823	4.187227	2.090173	2.213410	1.118994	-0.656738	0.095459	0.793213	0.146804	-0.038160	-0.050459	0.001014	-0.844300	-0.191932	-0.500318	159.134593	-57.696232	37.197253
24069		14.479166	-2.849503	-3.437217	2.144854	6.479707	3.713849	2.896744	2.913074	0.926953	-0.690186	0.123047	0.771240	0.144395	-0.027303	-0.036879	0.018366	-0.837703	-0.195164	-0.509733	160.677287	-59.449167	37.332424
24070		12.028765	-0.141553	-1.978794	2.967126	3.253286	1.554879	3.349727	3.532749	0.670273	-0.710205	0.153564	0.746582	0.119916	-0.000658	-0.021924	0.037561	-0.828792	-0.200457	-0.521066	162.105397	-61.494283	37.894718
24071		7.839427	4.576386	-0.211050	4.410300	-2.004198	-2.133195	3.048431	3.764006	0.543785	-0.744629	0.187256	0.723145	0.078220	0.046017	-0.002884	0.055382	-0.818716	-0.205334	-0.533362	163.192436	-63.648492	38.635924
24072		5.071774	7.639862	1.015153	5.627042	-5.238891	-4.712568	1.939190	3.646325	0.541654	-0.771973	0.192139	0.686523	0.050694	0.076439	0.009968	0.068513	-0.808832	-0.207181	-0.546052	163.681043	-65.743800	39.322173
24073		4.126472	6.770486	1.298211	5.160189	-4.634227	-5.757047	0.667474	3.406713	0.499469	-0.797852	0.215088	0.675293	0.041311	0.067766	0.012505	0.076107	-0.799699	-0.205740	-0.558892	163.425196	-67.699675	40.015004
24074		3.615763	3.931339	1.250445	3.710257	-2.255513	-6.460366	-0.190585	3.237922	0.293776	-0.822998	0.208008	0.635498	0.036296	0.039378	0.011880	0.079504	-0.790916	-0.202723	-0.571869	162.341495	-69.526735	41.059175
24075		3.553665	1.123022	1.356074	2.536316	0.266914	-6.775725	-0.486769	3.221457	-0.091934	-0.844971	0.206543	0.624268	0.035754	0.011246	0.012959	0.080586	-0.781703	-0.200343	-0.585072	160.271588	-71.261423	42.958247
24076		3.800151	-0.493309	1.676069	2.119401	1.873030	-6.731766	-0.393226	3.317971	-0.550015	-0.862793	0.202393	0.581787	0.038259	-0.005006	0.016137	0.080770	-0.771488	-0.199928	-0.598591	157.004430	-72.922507	46.152307
24077		4.800623	-0.711840	1.951715	2.350909	2.367548	-5.784403	-0.206055	3.497090	-0.946977	-0.888428	0.202637	0.552490	0.048303	-0.007327	0.018682	0.080640	-0.760034	-0.201475	-0.612580	152.280669	-74.505554	50.947983
24078		5.197142	-0.121341	2.263958	2.767649	2.024307	-5.297283	-0.107548	3.702095	-1.202606	-0.918945	0.187256	0.519531	0.052370	-0.001516	0.021673	0.080282	-0.747377	-0.204134	-0.627145	145.840844	-75.978511	57.540460
24079		5.149084	0.696114	2.500998	3.117711	1.365016	-5.158154	-0.222032	3.845704	-1.312228	-0.941162	0.168213	0.487305	0.052003	0.006648	0.024006	0.079264	-0.733916	-0.206712	-0.642148	137.495763	-77.248237	65.984645
24080		4.898362	1.127442	2.519965	3.093023	0.929462	-5.210510	-0.497824	3.931175	-1.307881	-0.962646	0.161377	0.457520	0.049538	0.011013	0.024202	0.077305	-0.719974	-0.208260	-0.657487	127.220977	-78.222115	76.203508
24081		4.593436	1.033228	2.364805	2.709113	0.880885	-5.380955	-0.823616	3.927367	-1.231611	-0.968262	0.144287	0.423828	0.046449	0.010142	0.022697	0.074384	-0.705943	-0.208380	-0.672822	115.473994	-78.797931	87.705600
24082		4.691506	0.292628	2.320287	2.193251	1.526492	-5.303206	-1.112864	3.875676	-1.126403	-0.986572	0.127441	0.373291	0.047369	0.002786	0.022272	0.070712	-0.691983	-0.207075	-0.687953	103.074263	-78.928630	99.689246
24083		5.677999	-0.538572	2.702893	2.000420	2.574380	-4.408829	-1.313964	3.845057	-0.975458	-1.006836	0.122070	0.335205	0.057259	-0.005491	0.025967	0.066797	-0.678062	-0.204484	-0.702820	90.921155	-78.645965	111.307883
24084		6.632995	-1.590832	2.987141	1.585099	3.758083	-3.582991	-1.417335	3.895058	-0.763823	-1.021484	0.101318	0.296631	0.066835	-0.015957	0.028686	0.063300	-0.663907	-0.200697	-0.717594	79.475750	-78.025441	122.161231
24085		7.050695	-2.585902	3.278877	1.218412	4.776139	-3.266848	-1.368370	3.988109	-0.519756	-1.032471	0.096680	0.261719	0.071077	-0.025825	0.031552	0.060904	-0.649361	-0.196165	-0.732216	69.050653	-77.120155	132.030239
24086		7.207643	-2.980968	3.571186	1.083941	5.183320	-3.064295	-1.230893	4.068722	-0.245757	-1.040771	0.101074	0.216797	0.072749	-0.029684	0.034419	0.060011	-0.634441	-0.191122	-0.746563	59.770460	-75.986449	140.842594
24087		7.234131	-2.563992	3.884913	1.248641	4.809877	-2.791519	-1.119205	4.120724	0.071124	-1.054688	0.086182	0.177246	0.073132	-0.025402	0.037490	0.060675	-0.619319	-0.185399	-0.760520	51.566017	-74.688874	148.657149
24088		7.201304	-1.832694	4.052661	1.377363	4.056510	-2.513381	-1.084429	4.099499	0.455139	-1.064941	0.097168	0.126953	0.072866	-0.017947	0.039137	0.062862	-0.604327	-0.178529	-0.773928	44.227747	-73.306794	155.640546
24089		7.402768	-1.471515	4.068837	1.181514	3.586733	-2.115222	-1.113663	4.023704	0.852345	-1.070068	0.094482	0.083008	0.074888	-0.014176	0.039267	0.066399	-0.589730	-0.170300	-0.786643	37.576194	-71.884135	161.939518
24090		7.779119	-1.603129	3.880882	0.588873	3.483750	-1.710105	-1.077498	3.904589	1.219127	-1.068359	0.103027	0.050781	0.078625	-0.015350	0.037363	0.071355	-0.575621	-0.161080	-0.798512	31.527938	-70.436146	167.673547
24091		8.291604	-1.662250	3.783848	0.043701	3.315633	-1.162599	-0.955677	3.787943	1.499237	-1.075928	0.123291	0.011963	0.083734	-0.015821	0.036335	0.077653	-0.561919	-0.151525	-0.809480	26.102253	-68.948235	172.872122
24092		8.886700	-1.732645	3.975560	-0.299664	3.214824	-0.466981	-0.767484	3.651719	1.732096	-1.074951	0.138184	-0.039063	0.089719	-0.016403	0.038187	0.085287	-0.548613	-0.142049	-0.819495	21.269320	-67.428431	177.599795
24093		9.762842	-1.749878	4.516954	-0.462832	3.130641	0.615473	-0.554921	3.554979	1.914519	-1.068359	0.160156	-0.066650	0.098572	-0.016436	0.043470	0.094145	-0.535526	-0.132941	-0.828658	16.990260	-65.862748	-178.088320
24094		10.415303	-1.685750	5.370342	-0.294757	3.007465	1.633252	-0.347766	3.524519	2.063222	-1.066406	0.171875	-0.105713	0.105244	-0.015684	0.051883	0.104116	-0.522327	-0.124235	-0.837198	13.190560	-64.217516	-174.121301
24095		10.617041	-1.074957	6.442386	0.371787	2.404276	2.411908	-0.226051	3.541490	2.173469	-1.058105	0.196777	-0.135986	0.107397	-0.009515	0.062541	0.114830	-0.508854	-0.115705	-0.845277	9.810779	-62.476179	-170.487288
24096		10.470876	-0.237665	7.320058	1.078612	1.521866	2.827584	-0.250266	3.582999	2.254918	-1.049561	0.207275	-0.172607	0.106015	-0.001096	0.071311	0.125802	-0.495024	-0.106773	-0.853067	6.746163	-60.626777	-167.169327
24097		10.250516	-0.059753	7.785632	1.266993	1.130820	2.946023	-0.367011	3.633607	2.271404	-1.051758	0.230469	-0.208252	0.103894	0.000718	0.075977	0.136522	-0.480852	-0.097240	-0.860632	3.979495	-58.674051	-164.209689
24098		9.868819	-0.161428	8.018849	1.258140	0.952272	2.805083	-0.485834	3.651805	2.241411	-1.027832	0.260254	-0.246582	0.100139	-0.000306	0.078371	0.146775	-0.466424	-0.087191	-0.867930	1.503981	-56.641129	-161.613612
24099		9.759905	-0.480129	8.206087	1.004370	0.925637	2.873399	-0.550782	3.638859	2.167098	-1.027832	0.276611	-0.279053	0.099113	-0.003510	0.080278	0.156479	-0.451872	-0.077022	-0.874868	-0.657067	-54.563691	-159.379735
24100		9.739763	-0.771818	8.359615	0.681530	0.845950	2.998953	-0.560085	3.602596	2.087637	-1.010254	0.297363	-0.311279	0.098954	-0.006460	0.081842	0.165731	-0.437231	-0.066966	-0.881407	-2.528202	-52.462324	-157.456092
24101		9.774984	-1.004690	8.586012	0.398834	0.717007	3.209706	-0.540907	3.537910	2.033558	-0.983887	0.307129	-0.332520	0.099342	-0.008813	0.084137	0.174692	-0.422670	-0.057157	-0.887449	-4.156036	-50.368847	-155.772785
24102		10.035088	-1.112039	9.025407	0.178769	0.456437	3.719992	-0.512760	3.435529	2.005806	-0.969727	0.327637	-0.364990	0.101985	-0.009875	0.088538	0.183488	-0.408336	-0.047578	-0.892933	-5.597626	-48.304761	-154.264242
24103		10.766426	-1.330417	9.632981	-0.264475	0.172733	4.690901	-0.484857	3.351652	2.004786	-0.943115	0.343750	-0.393066	0.109383	-0.011983	0.094536	0.192243	-0.394209	-0.038203	-0.897877	-6.893116	-46.268744	-152.881917
24104		11.468250	-1.522468	10.218709	-0.735360	-0.185342	5.603418	-0.443954	3.314845	1.997722	-0.920166	0.353516	-0.418945	0.116498	-0.013843	0.100298	0.200967	-0.380033	-0.029027	-0.902411	-8.051535	-44.231402	-151.613686
24105		11.909371	-1.455889	10.487727	-1.190141	-0.801085	6.057298	-0.396047	3.290679	1.990678	-0.900879	0.370117	-0.438477	0.120934	-0.013156	0.102924	0.209670	-0.365794	-0.020113	-0.906548	-9.080559	-42.194871	-150.445106
24106		12.001408	-1.255474	10.573159	-1.495094	-1.469314	6.092578	-0.373348	3.249585	1.970647	-0.870117	0.378418	-0.451416	0.121826	-0.011165	0.103784	0.219007	-0.351525	-0.011583	-0.910127	-10.013750	-40.161133	-149.271212
24107		12.356617	-1.193888	10.623931	-2.044108	-2.115090	6.258951	-0.363099	3.180667	1.911029	-0.843262	0.385986	-0.463135	0.125340	-0.010556	0.104275	0.227244	-0.337492	-0.003055	-0.913482	-10.836009	-38.168325	-148.301696
24108		13.333574	-1.220183	10.714480	-3.021385	-2.945120	6.807774	-0.340702	3.115218	1.783666	-0.821533	0.384277	-0.478760	0.135084	-0.010822	0.105069	0.235375	-0.323580	0.004962	-0.916444	-11.540520	-36.210276	-147.406962
24109		14.020720	-0.802967	10.548175	-3.780570	-4.091875	6.843304	-0.362139	3.103622	1.626671	-0.802979	0.390869	-0.489014	0.141880	-0.006692	0.103302	0.242163	-0.309687	0.012936	-0.919393	-12.139800	-34.276172	-146.731251
24110		13.533194	-0.455281	10.000030	-3.965242	-4.677254	5.863022	-0.464371	3.085319	1.442429	-0.792236	0.394531	-0.505859	0.136880	-0.003340	0.097905	0.248080	-0.295896	0.021036	-0.922203	-12.694203	-32.365366	-146.189155
24111		13.190204	0.949840	9.299803	-3.812901	-6.209745	4.618098	-0.657908	2.964770	1.269131	-0.775391	0.402344	-0.503418	0.133196	0.010642	0.090996	0.252648	-0.282860	0.029652	-0.924814	-13.275717	-30.544195	-145.800692
24112		13.566996	1.745203	8.258801	-4.564213	-7.530390	3.519838	-0.984813	2.833367	1.131960	-0.761719	0.392578	-0.515869	0.136718	0.018624	0.080566	0.256076	-0.270770	0.039424	-0.927121	-13.986307	-28.808409	-145.510140
24113		13.227793	1.951856	6.409070	-5.428318	-7.971792	1.449048	-1.276649	2.689295	0.948161	-0.748779	0.400879	-0.521729	0.133027	0.020549	0.062176	0.258217	-0.259709	0.050093	-0.929175	-14.798114	-27.178255	-145.342912
24114		12.839672	2.111537	4.669804	-6.152351	-8.222213	-0.557766	-1.450058	2.459137	0.747600	-0.742432	0.402344	-0.532959	0.128876	0.021927	0.044958	0.259038	-0.249907	0.061041	-0.930978	-15.653680	-25.702142	-145.309997
24115		13.165200	2.650009	3.147258	-7.065766	-9.045785	-2.164925	-1.532223	2.206825	0.597864	-0.731934	0.405273	-0.547852	0.131907	0.027127	0.029812	0.259244	-0.241403	0.071801	-0.932396	-16.525506	-24.389563	-145.328668
24116		13.284860	2.923156	1.656858	-7.894218	-9.437437	-3.780686	-1.542076	1.960420	0.544991	-0.718018	0.425049	-0.548584	0.132920	0.029714	0.015038	0.259022	-0.234009	0.082256	-0.933478	-17.398573	-23.220577	-145.382210
24117		13.434348	2.895517	-0.267028	-9.040328	-9.491947	-5.676742	-1.428149	1.682350	0.545154	-0.715088	0.426025	-0.550049	0.134234	0.029296	-0.004008	0.259222	-0.227756	0.091761	-0.934083	-18.221520	-22.204431	-145.374792
24118		13.322104	2.930232	-2.390746	-10.009930	-9.363938	-7.839333	-1.164111	1.361398	0.544848	-0.719971	0.435059	-0.560547	0.132973	0.029521	-0.024985	0.259666	-0.222610	0.099639	-0.934393	-18.909779	-21.362355	-145.340853
24119		12.869996	2.919391	-4.043393	-10.469290	-8.992941	-9.646682	-0.783847	0.950496	0.502728	-0.701660	0.423584	-0.562744	0.128432	0.029357	-0.041160	0.260698	-0.218920	0.105120	-0.934377	-19.398274	-20.750404	-145.236242
24120		12.286855	2.826285	-4.595116	-10.324400	-8.549445	-10.431525	-0.341117	0.489841	0.369514	-0.705322	0.430664	-0.562256	0.122703	0.028411	-0.046300	0.261634	-0.216845	0.107816	-0.934292	-19.635303	-20.412554	-145.142874
24121		11.759060	2.328879	-3.959438	-9.834205	-7.914973	-9.946373	0.097453	0.047632	0.182181	-0.709717	0.434814	-0.562256	0.117560	0.023415	-0.039611	0.262600	-0.216385	0.107648	-0.934147	-19.615938	-20.348756	-145.043297
24122		11.319348	1.932538	-2.411563	-8.941138	-7.500115	-8.595270	0.445672	-0.323861	0.012527	-0.705566	0.425537	-0.554199	0.113231	0.019386	-0.023889	0.263350	-0.217293	0.105181	-0.934006	-19.389539	-20.518376	-144.965464
24123		10.972936	1.448027	-0.552630	-8.008004	-7.072705	-6.870625	0.628459	-0.606272	-0.048895	-0.714355	0.427246	-0.560059	0.109749	0.014470	-0.005148	0.264156	-0.219308	0.101421	-0.933723	-19.066048	-20.852589	-144.866956
24124		10.716390	0.462844	0.777212	-7.600816	-6.207626	-5.413640	0.713063	-0.797572	-0.010244	-0.716797	0.419922	-0.559814	0.107132	0.004594	0.008216	0.265327	-0.222086	0.097051	-0.933199	-18.715705	-21.284564	-144.709690
24125		10.356726	-0.631745	1.651013	-7.367161	-5.145771	-4.369160	0.807018	-0.929281	0.089627	-0.725098	0.416260	-0.548584	0.103492	-0.006339	0.016966	0.267123	-0.225292	0.092177	-0.932412	-18.342735	-21.770131	-144.470891
24126		9.997333	-1.172947	2.302099	-6.980696	-4.525398	-3.696150	0.912033	-1.028706	0.226162	-0.723633	0.422363	-0.549561	0.099867	-0.011723	0.023481	0.269708	-0.228757	0.086827	-0.931337	-17.947712	-22.288126	-144.135218
24127		9.395508	-1.277576	2.689105	-6.331161	-4.122001	-3.483091	1.007988	-1.125130	0.374564	-0.724365	0.424072	-0.550049	0.093826	-0.012737	0.027355	0.273121	-0.232457	0.081070	-0.929944	-17.540291	-22.833812	-143.696490
24128		8.772577	-1.147003	2.849340	-5.661148	-3.889075	-3.550254	1.046574	-1.257596	0.510225	-0.722412	0.431396	-0.544434	0.087574	-0.011397	0.028985	0.276958	-0.236644	0.075149	-0.928249	-17.152908	-23.434683	-143.190139
24129		7.352015	0.958993	3.846353	-3.041788	-4.860358	-3.739031	1.049521	-1.402954	0.597334	-0.735840	0.438477	-0.538574	0.073219	0.009605	0.039028	0.281523	-0.241457	0.069068	-0.926106	-16.802784	-24.100716	-142.571277
24130		-1.747582	2.314456	18.367828	11.471823	-0.778866	4.801235	-0.862368	-1.768818	0.795825	-0.731201	0.446289	-0.523193	-0.019193	0.023862	0.183412	0.284522	-0.250563	0.071602	-0.922572	-17.633890	-24.934416	-141.792092
24131		-4.364690	-9.335054	11.578311	4.424439	10.333740	0.859080	-0.293405	-1.614507	0.185756	-0.739746	0.444336	-0.506104	-0.044494	-0.093222	0.115563	0.285615	-0.258343	0.070918	-0.920138	-17.987947	-25.779675	-141.362106
24132		-5.490545	-4.790364	4.100569	3.661681	7.136523	-7.453225	0.663132	-1.956776	-1.261754	-0.753906	0.452148	-0.506348	-0.055603	-0.047689	0.040306	0.281173	-0.266819	0.063503	-0.919629	-17.437458	-27.067358	-141.770337
24133		1.159387	-1.126498	6.080403	1.895171	0.587780	-3.842436	0.972768	-2.642873	-2.049982	-0.762207	0.426270	-0.494385	0.010671	-0.011674	0.060893	0.273877	-0.278204	0.052600	-0.919145	-16.522532	-28.855802	-142.536560
24134		11.379199	-2.194991	11.450343	-2.622550	-3.353027	5.912125	0.727051	-2.811677	-1.606268	-0.779541	0.418945	-0.473145	0.111985	-0.023274	0.116003	0.268105	-0.290510	0.043225	-0.917527	-15.860480	-30.658783	-143.049290
24135		14.234263	-2.510861	9.840599	-5.345770	-4.297754	6.271134	0.597126	-2.455678	-1.026431	-0.776123	0.417480	-0.470703	0.140988	-0.026132	0.100066	0.264804	-0.301161	0.035729	-0.915371	-15.408498	-32.169485	-143.263439
24136		12.108737	-1.257255	9.561162	-3.220385	-4.022675	4.783651	0.438084	-2.294061	-0.783403	-0.799316	0.404541	-0.453613	0.119929	-0.013255	0.096963	0.262230	-0.311200	0.029548	-0.912972	-15.105048	-33.554947	-143.370881
24137		25.567811	-2.612640	15.390834	-9.152240	-8.584022	17.389164	0.436404	-1.729990	-0.676679	-0.792969	0.410645	-0.446289	0.254243	-0.027327	0.156053	0.260098	-0.318602	0.024264	-0.911182	-14.779255	-34.609931	-143.509243
24138		15.689183	0.175830	10.119378	-4.292982	-6.572041	7.127249	0.057743	-0.202259	-0.281109	-0.802002	0.410889	-0.458252	0.156792	0.001509	0.101353	0.258926	-0.319488	0.023324	-0.911230	-14.663001	-34.762553	-143.662411
24139		3.945801	-1.391131	6.859672	0.836648	0.142865	-1.822744	0.207126	-0.341659	-0.230084	-0.809814	0.414063	-0.448486	0.039325	-0.014028	0.068649	0.258282	-0.320795	0.021602	-0.910996	-14.494642	-34.982538	-143.752448
24140		8.371848	-0.619372	9.865097	0.071119	-2.242268	2.944994	0.253837	-0.345758	-0.255222	-0.805176	0.427002	-0.457275	0.083540	-0.006426	0.098787	0.257596	-0.322076	0.019611	-0.910784	-14.288855	-35.210341	-143.859796
24141		6.647945	-0.802856	7.030255	-0.558005	-1.576421	-0.248814	0.173349	-0.135902	-0.253665	-0.810059	0.430908	-0.462646	0.066421	-0.008174	0.070341	0.256767	-0.322488	0.018270	-0.910900	-14.108354	-35.318857	-144.003510
24142		7.479403	-1.278116	8.486767	-0.457777	-1.338662	1.483267	0.209300	-0.072976	-0.196923	-0.813965	0.433350	-0.472656	0.074750	-0.012944	0.084881	0.256330	-0.322577	0.016904	-0.911018	-13.923290	-35.385848	-144.109001
24143		6.873211	-1.089800	7.710021	-0.446602	-1.292985	0.483031	0.149518	0.069256	-0.161543	-0.814453	0.439453	-0.466797	0.068750	-0.011011	0.077068	0.255864	-0.322075	0.016083	-0.911341	-13.772041	-35.366881	-144.225378
24144		7.092053	-1.465147	7.827358	-0.710437	-1.040956	0.776130	0.137481	0.115647	-0.148153	-0.822998	0.440918	-0.471436	0.070955	-0.014758	0.078222	0.255557	-0.321391	0.015354	-0.911681	-13.629309	-35.321519	-144.324330
24145		6.363164	-1.888924	7.859364	-0.421865	-0.311467	0.461186	0.111603	0.146601	-0.117950	-0.827637	0.445313	-0.478271	0.063678	-0.018971	0.078536	0.255221	-0.320580	0.014874	-0.912069	-13.509896	-35.253152	-144.423459
24146		6.267675	-1.941231	7.756282	-0.462074	-0.228175	0.333564	0.083622	0.136353	-0.119164	-0.824463	0.447754	-0.493408	0.062718	-0.019482	0.077512	0.254975	-0.319868	0.014459	-0.912394	-13.408035	-35.191944	-144.503419
24147		5.871836	-1.792903	8.209798	0.118781	-0.102450	0.437635	0.078002	0.149533	-0.105468	-0.824951	0.448730	-0.488037	0.058770	-0.017992	0.082047	0.254642	-0.319085	0.014157	-0.912766	-13.312955	-35.119996	-144.594044
24148		4.217632	-2.305745	7.860663	0.766983	1.083679	-0.694997	0.048640	0.106206	-0.115363	-0.827148	0.458740	-0.496338	0.042205	-0.023101	0.078579	0.254392	-0.318553	0.013861	-0.913026	-13.236138	-35.074601	-144.662066
24149		5.553211	-2.389853	7.738528	-0.243949	0.515382	-0.009156	0.057373	0.031195	-0.166279	-0.838867	0.460205	-0.501953	0.055524	-0.023967	0.077370	0.253756	-0.318341	0.013405	-0.913284	-13.140226	-35.076394	-144.774886
24150		5.999017	-2.900500	8.323561	-0.437547	0.843153	0.807124	0.067443	0.025734	-0.200230	-0.843994	0.466553	-0.498535	0.059972	-0.029093	0.083218	0.253183	-0.318157	0.012779	-0.913516	-13.027131	-35.086420	-144.884076
24151		6.972552	-1.543841	7.469560	-0.981111	-0.903801	0.434986	-0.042847	0.038253	-0.177373	-0.853516	0.470215	-0.504883	0.069726	-0.015484	0.074686	0.252336	-0.318039	0.012773	-0.913791	-12.983623	-35.085410	-145.005597
24152		6.120509	-1.790138	8.084339	-0.163965	-0.200061	0.480750	-0.052745	0.034709	-0.147354	-0.853027	0.470947	-0.506836	0.061206	-0.017925	0.080837	0.251831	-0.317962	0.012786	-0.913957	-12.959454	-35.083334	-145.077765
24153		6.377193	-2.004037	7.530005	-0.758371	-0.202795	0.225712	-0.042337	-0.048242	-0.178801	-0.853271	0.470215	-0.510986	0.063736	-0.020081	0.075320	0.250984	-0.318239	0.012666	-0.914095	-12.922841	-35.130694	-145.186724
24154		6.157924	-1.537168	7.701021	-0.295789	-0.475235	0.151011	-0.036688	-0.061627	-0.168977	-0.870605	0.474609	-0.519287	0.061543	-0.015410	0.077032	0.250424	-0.318582	0.012447	-0.914133	-12.889630	-35.185008	-145.257151
24155		5.980067	-1.825622	7.950893	-0.152745	-0.095386	0.300588	-0.027468	-0.105298	-0.154702	-0.873779	0.478760	-0.508789	0.059745	-0.018292	0.079543	0.249714	-0.319099	0.012225	-0.914149	-12.858834	-35.261057	-145.340939
24156		5.820151	-1.500887	7.911637	0.087976	-0.297730	0.118295	-0.023043	-0.158753	-0.156590	-0.865723	0.480469	-0.503174	0.058127	-0.015045	0.079164	0.249006	-0.319873	0.011902	-0.914076	-12.828865	-35.369605	-145.417399
24157		6.206363	-1.804503	7.722641	-0.404697	-0.222156	0.247193	-0.019933	-0.192709	-0.138705	-0.883057	0.473877	-0.512939	0.061977	-0.018080	0.077288	0.248386	-0.320778	0.011562	-0.913932	-12.807591	-35.492389	-145.476888
24158		5.613737	-1.674532	7.732935	0.074785	-0.045412	-0.111725	-0.021474	-0.235792	-0.138750	-0.888184	0.482666	-0.508057	0.056035	-0.016776	0.077397	0.247766	-0.321900	0.011165	-0.913711	-12.790357	-35.641657	-145.529429
24159		5.901414	-1.983706	7.704857	-0.251639	0.106834	0.089423	-0.011059	-0.272123	-0.137990	-0.896240	0.486816	-0.510498	0.058896	-0.019873	0.077130	0.247167	-0.323156	0.010687	-0.913436	-12.771090	-35.808692	-145.576346
24160		5.427187	-2.196446	7.870535	0.094479	0.554805	-0.019464	-0.018737	-0.321727	-0.173194	-0.895996	0.483398	-0.505859	0.054126	-0.022004	0.078795	0.246398	-0.324666	0.010115	-0.913114	-12.745761	-36.010283	-145.639596
24161		5.816317	-2.028299	7.644586	-0.198430	0.222469	0.000275	-0.003478	-0.359694	-0.224383	-0.901123	0.484619	-0.501221	0.058003	-0.020347	0.076551	0.245420	-0.326315	0.009355	-0.912798	-12.694441	-36.237121	-145.733068
24162		5.650484	-2.003976	8.013409	0.173365	0.359681	0.187264	0.026002	-0.381716	-0.247949	-0.912842	0.485352	-0.501953	0.056327	-0.020120	0.080239	0.244383	-0.328046	0.008383	-0.912465	-12.617396	-36.481493	-145.839686
24163		5.597355	-2.156984	7.922915	0.116798	0.539067	0.109567	0.032426	-0.405963	-0.271835	-0.906982	0.492432	-0.501221	0.055783	-0.021659	0.079339	0.243246	-0.329861	0.007325	-0.912124	-12.528655	-36.739930	-145.960338
24164		5.917732	-2.049787	7.871828	-0.048669	0.331395	0.240891	0.041560	-0.418703	-0.326723	-0.913330	0.482666	-0.498779	0.058979	-0.020611	0.078838	0.241874	-0.331739	0.006108	-0.911816	-12.411283	-37.014398	-146.118052
24165		5.879734	-1.940646	7.906649	0.077565	0.297241	0.225135	0.018399	-0.436591	-0.334834	-0.927979	0.488770	-0.492676	0.058592	-0.019512	0.079193	0.240425	-0.333708	0.004972	-0.911488	-12.304529	-37.297335	-146.280314
24166		6.050649	-1.523944	7.725347	0.068950	-0.133255	0.116612	-0.003601	-0.452950	-0.382160	-0.928223	0.485107	-0.494873	0.060302	-0.015353	0.077390	0.238722	-0.335794	0.003827	-0.911175	-12.189663	-37.597169	-146.474434
24167		5.910062	-1.942257	7.801799	0.065840	0.352922	0.159277	-0.057119	-0.509774	-0.423086	-0.935059	0.486084	-0.482178	0.058860	-0.019525	0.078174	0.236741	-0.338183	0.002800	-0.910812	-12.091704	-37.931242	-146.690754
24168		6.117779	-2.046441	7.550274	-0.224050	0.368339	0.108773	0.043285	-0.677803	-0.469797	-0.936523	0.478516	-0.483398	0.060873	-0.020624	0.075705	0.234717	-0.341230	0.001028	-0.910203	-11.928448	-38.366842	-146.916687
24169		6.170062	-0.857272	7.954594	0.557893	-0.588990	0.258130	-0.010409	-0.796526	-0.426230	-0.949463	0.483887	-0.485107	0.061365	-0.008700	0.079791	0.232795	-0.344858	-0.000555	-0.909329	-11.823987	-38.861273	-147.096500
24170		5.927498	-1.061811	7.850880	0.633724	-0.261824	0.057879	-0.018798	-0.901737	-0.396526	-0.948242	0.482666	-0.474854	0.058899	-0.010728	0.078776	0.230989	-0.348982	-0.002181	-0.908213	-11.744622	-39.413142	-147.241043
24171		6.436030	-0.821748	7.784496	0.440965	-0.639395	0.291369	-0.035172	-0.988196	-0.366446	-0.954590	0.483887	-0.467529	0.063959	-0.008321	0.078163	0.229283	-0.353494	-0.003770	-0.906894	-11.695138	-40.007760	-147.352838
24172		6.266051	-0.623227	7.713525	0.675162	-0.699649	0.097106	-0.083032	-1.039418	-0.315285	-0.971680	0.482910	-0.458984	0.062249	-0.006299	0.077462	0.227718	-0.358298	-0.005120	-0.905395	-11.700153	-40.627208	-147.420263
24173		6.232880	-0.978350	7.606085	0.572752	-0.330838	0.047330	-0.101410	-1.112978	-0.267160	-0.973877	0.486084	-0.448975	0.061891	-0.009828	0.076411	0.226328	-0.363432	-0.006375	-0.903688	-11.746388	-41.280275	-147.441104
24174		6.871953	-0.849994	7.367331	0.167058	-0.689418	0.272914	-0.099888	-1.181765	-0.254540	-0.983398	0.490723	-0.439453	0.068272	-0.008550	0.074082	0.224989	-0.368876	-0.007701	-0.901804	-11.804751	-41.972470	-147.440962
24175		6.641069	-1.158114	7.109150	0.122170	-0.308492	-0.021178	-0.127659	-1.245634	-0.248091	-0.992432	0.488281	-0.433105	0.065952	-0.011618	0.071511	0.223615	-0.374612	-0.008951	-0.899768	-11.890598	-42.697715	-147.424761
24176		6.924773	-1.443518	6.779051	-0.278384	-0.163816	-0.020549	-0.106112	-1.321866	-0.269042	-1.001709	0.483154	-0.428467	0.068778	-0.014492	0.068254	0.222175	-0.380663	-0.010433	-0.897566	-11.962100	-43.470123	-147.410591
24177		6.736224	-1.407865	6.980959	0.105814	-0.019694	-0.010675	-0.109172	-1.359346	-0.285882	-1.010254	0.491211	-0.407471	0.066865	-0.014136	0.070273	0.220641	-0.386853	-0.011964	-0.895276	-12.032434	-44.263565	-147.401947
24178		6.372142	-1.888159	6.956373	0.233966	0.616718	-0.214574	-0.095464	-1.401390	-0.310661	-1.022705	0.489258	-0.393799	0.063202	-0.018947	0.070017	0.219009	-0.393209	-0.013660	-0.892880	-12.086506	-45.085445	-147.404317
24179		6.538513	-1.760721	6.833337	0.219459	0.485400	-0.207409	-0.054210	-1.411348	-0.357939	-1.022217	0.484375	-0.386475	0.064869	-0.017705	0.068797	0.217235	-0.399527	-0.015633	-0.890473	-12.092266	-45.916657	-147.442299
24180		6.719205	-1.872123	6.687602	0.085624	0.565902	-0.166586	-0.032275	-1.441059	-0.379580	-1.035645	0.481689	-0.375977	0.066672	-0.018837	0.067361	0.215394	-0.405943	-0.017789	-0.887975	-12.074932	-46.768953	-147.493312
24181		7.223633	-1.396164	6.198081	-0.245917	-0.071166	-0.196086	0.000141	-1.471274	-0.412620	-1.052246	0.477295	-0.353516	0.071749	-0.014110	0.062510	0.213458	-0.412420	-0.020177	-0.885403	-12.021893	-47.640264	-147.567922
24182		7.525509	-1.261898	6.109067	-0.307394	-0.234937	-0.045663	0.016404	-1.487853	-0.431036	-1.052979	0.478027	-0.345947	0.074770	-0.012786	0.061647	0.211458	-0.418938	-0.022701	-0.882757	-11.946793	-48.524793	-147.657710
24183		7.588447	-0.834565	6.179554	-0.000305	-0.541944	-0.005943	0.032125	-1.506265	-0.426559	-1.065674	0.481201	-0.330078	0.075398	-0.008517	0.062363	0.209498	-0.425485	-0.025293	-0.880019	-11.865209	-49.417240	-147.743829
24184		7.948541	-0.870326	5.693040	-0.447722	-0.653929	-0.029157	0.043899	-1.498753	-0.403129	-1.078369	0.463867	-0.311523	0.079038	-0.008875	0.057522	0.207652	-0.431975	-0.027888	-0.877212	-11.787185	-50.304406	-147.814443
24185		7.229316	-0.905758	6.334252	0.527489	-0.145304	-0.173962	0.052930	-1.472506	-0.353718	-1.078613	0.480713	-0.295654	0.071808	-0.009202	0.063870	0.206036	-0.438310	-0.030377	-0.874363	-11.731860	-51.169264	-147.849043
24186		7.662317	-0.759811	6.031842	0.248354	-0.409316	-0.043327	0.083140	-1.506475	-0.345117	-1.094482	0.464355	-0.281982	0.076153	-0.007755	0.060890	0.204505	-0.444750	-0.033023	-0.871370	-11.667584	-52.053881	-147.871688
24187		7.576811	-0.694120	5.870965	0.320292	-0.395520	-0.215960	0.074428	-1.531955	-0.317270	-1.099365	0.456299	-0.261963	0.075304	-0.007083	0.059285	0.203060	-0.451276	-0.035582	-0.868246	-11.631649	-52.947839	-147.865489
24188		7.508665	-1.020518	5.890016	0.370751	0.013591	-0.222370	0.078831	-1.567456	-0.318015	-1.104248	0.465332	-0.251465	0.074606	-0.010347	0.059482	0.201602	-0.457934	-0.038206	-0.864982	-11.596785	-53.863484	-147.854036
24189		7.884988	-1.417635	5.383114	-0.233465	0.219926	-0.166154	0.103758	-1.628695	-0.359179	-1.110840	0.449951	-0.230225	0.078382	-0.014346	0.054463	0.199999	-0.464783	-0.041082	-0.861562	-11.525154	-54.816562	-147.871232
24190		7.660655	-1.626388	5.717745	0.193196	0.661995	-0.140800	0.132261	-1.709336	-0.419133	-1.120117	0.439941	-0.215332	0.076080	-0.016462	0.057818	0.198172	-0.471914	-0.044307	-0.857940	-11.398108	-55.823352	-147.934949
24191		7.817389	-1.838744	5.546145	0.042351	0.872311	-0.092261	0.176948	-1.831356	-0.504402	-1.126709	0.445557	-0.195068	0.077615	-0.018633	0.056157	0.196041	-0.479456	-0.048032	-0.854039	-11.188276	-56.906536	-148.067346
24192		7.462629	-2.104515	6.184007	0.764778	1.511318	-0.040818	0.192410	-1.940480	-0.579816	-1.129639	0.443359	-0.164795	0.073960	-0.021320	0.062539	0.193579	-0.487394	-0.052115	-0.849858	-10.909026	-58.060592	-148.269167
24193		7.623341	-1.830285	5.988449	0.794003	1.291213	-0.064591	0.222306	-2.036302	-0.654466	-1.142334	0.427002	-0.150879	0.075558	-0.018618	0.060636	0.190828	-0.495628	-0.056586	-0.845421	-10.542485	-59.274375	-148.551245
24194		8.090489	-1.463719	5.766477	0.713504	0.909613	0.162773	0.230646	-2.172286	-0.727916	-1.142334	0.416260	-0.122314	0.080218	-0.014997	0.058521	0.187724	-0.504355	-0.061404	-0.840604	-10.095820	-60.572708	-148.916112
24195		8.132561	-1.277312	5.415014	0.652588	0.778255	-0.011867	0.217583	-2.304407	-0.791048	-1.153076	0.407227	-0.093750	0.080643	-0.013153	0.055068	0.184256	-0.513551	-0.066435	-0.835405	-9.578386	-61.948801	-149.366063
24196		7.886391	-1.469995	4.749330	0.306578	0.974789	-0.546461	0.229671	-2.480044	-0.871188	-1.146729	0.389648	-0.077637	0.078202	-0.015097	0.048449	0.180395	-0.523368	-0.071880	-0.829685	-8.945638	-63.430700	-149.931483
24197		8.152186	-1.116356	4.663609	0.456084	0.732445	-0.394460	0.258021	-2.692856	-0.960873	-1.151123	0.380615	-0.044678	0.080829	-0.011614	0.047713	0.176127	-0.533902	-0.077848	-0.823327	-8.156679	-65.036169	-150.645295
24198		8.369116	-1.296922	4.093980	0.030922	0.862950	-0.446146	0.325492	-2.892561	-1.068833	-1.143799	0.358154	-0.002197	0.083017	-0.013482	0.042122	0.171476	-0.545046	-0.084547	-0.816316	-7.117163	-66.759380	-151.581121
24199		8.626405	-1.085105	4.944160	0.977915	1.104551	0.079308	0.351874	-3.076628	-1.156505	-1.154785	0.346191	0.024170	0.085425	-0.011435	0.050740	0.166418	-0.556734	-0.091723	-0.808665	-5.808827	-68.583646	-152.779313
24200		8.178438	-0.611306	4.321597	0.995350	0.753920	-0.627442	0.398736	-3.288469	-1.210417	-1.159668	0.342041	0.061035	0.081020	-0.006693	0.044539	0.161127	-0.569060	-0.099393	-0.800206	-4.180843	-70.520466	-154.274167
24201		8.618781	-0.242713	4.027491	0.989457	0.475468	-0.360308	0.403881	-3.478167	-1.238290	-1.151611	0.319336	0.087402	0.085453	-0.003041	0.041760	0.155593	-0.581934	-0.107278	-0.790971	-2.174980	-72.548124	-156.146493
24202		8.685424	-0.190223	4.130220	1.351308	0.697335	-0.314940	0.369464	-3.705331	-1.301209	-1.150879	0.302734	0.136230	0.086054	-0.002542	0.042897	0.149530	-0.595492	-0.115353	-0.780848	0.446498	-74.682142	-158.659247
24203		10.225447	-0.179842	3.796487	0.987003	0.693272	1.028593	0.392824	-3.932894	-1.334049	-1.134766	0.292236	0.179443	0.101466	-0.002554	0.039961	0.143216	-0.609651	-0.123734	-0.769743	4.014185	-76.903810	-162.108425
24204		10.296338	-0.231736	2.990842	0.569902	0.744047	0.869861	0.436218	-4.106990	-1.385389	-1.122559	0.272705	0.217041	0.102301	-0.003096	0.032008	0.136664	-0.624146	-0.132512	-0.757763	9.242345	-79.151796	-167.197632
24205		11.681344	0.027464	3.480644	1.240606	0.965970	2.273293	0.633196	-4.333355	-1.451079	-1.113281	0.262451	0.267090	0.116020	-0.000685	0.037325	0.130260	-0.639002	-0.142324	-0.744616	17.661155	-81.378465	-175.371162
24206		10.767801	1.642184	5.496000	4.248367	0.601010	1.607078	0.485917	-4.564459	-1.279169	-1.098633	0.248047	0.315674	0.106487	0.015601	0.057438	0.123788	-0.654590	-0.151115	-0.730310	31.071386	-83.473646	171.383241
24207		11.856422	2.234099	4.996050	4.360874	0.204313	2.493196	-0.163955	-4.894770	-0.916482	-1.079834	0.233887	0.365967	0.117396	0.021844	0.052825	0.116193	-0.671667	-0.156457	-0.714761	54.181166	-85.219753	148.070022
24208		12.603368	1.164477	5.259633	4.712581	1.626971	2.953077	-0.470769	-5.385644	-0.716344	-1.049316	0.220703	0.413574	0.124598	0.011326	0.055938	0.107817	-0.690378	-0.160214	-0.697198	93.516817	-85.717563	108.348935
24209		14.830022	0.950722	6.368924	6.299036	2.698206	4.828674	-0.684792	-5.683075	-0.526747	-1.022705	0.215576	0.468018	0.146436	0.009347	0.067836	0.099043	-0.709849	-0.162600	-0.678135	127.193677	-84.242098	74.156926
24210		14.704530	1.834328	6.224477	7.255010	2.096563	4.372855	-0.977842	-5.930423	-0.378171	-0.994385	0.207275	0.516113	0.145150	0.018386	0.066478	0.089443	-0.729810	-0.163451	-0.657770	144.557230	-81.623863	56.101011
24211		17.406194	-0.729464	6.599272	7.787920	5.218017	6.282788	-1.330838	-6.237873	-0.446675	-0.948486	0.181885	0.575439	0.171874	-0.007217	0.071425	0.077996	-0.750179	-0.163367	-0.635971	153.099255	-78.426453	46.655897
24212		18.049232	-4.222660	7.201643	8.194463	9.095402	5.854761	-1.192706	-5.975618	-0.871942	-0.907959	0.173828	0.623047	0.178044	-0.042555	0.077614	0.065849	-0.768575	-0.165057	-0.614583	156.686301	-75.115208	42.269007
24213		14.491151	-4.825389	6.119016	7.108893	9.066277	1.930623	-0.579391	-5.785463	-1.588413	-0.873047	0.154053	0.660400	0.142670	-0.049207	0.065481	0.053956	-0.784882	-0.171166	-0.593085	157.848732	-71.709138	40.708440
24214		16.241679	-4.806601	5.900759	7.962545	9.749411	2.960995	-0.284198	-5.600933	-2.024974	-0.821777	0.142578	0.707520	0.160182	-0.049607	0.063585	0.042035	-0.799483	-0.179660	-0.571650	158.050173	-68.302972	40.318882
24215		12.570936	-5.375025	1.129393	2.953767	8.521565	0.522281	0.252534	-4.990088	-2.333814	-0.781982	0.122803	0.732178	0.124738	-0.055227	0.014345	0.031892	-0.811292	-0.190646	-0.551762	157.818447	-65.154126	40.726572
24216		14.411209	-2.833835	2.613710	6.095528	7.484149	1.559684	0.512760	-4.380656	-2.506217	-0.741943	0.112061	0.758057	0.143124	-0.030208	0.029204	0.022888	-0.820644	-0.202814	-0.533748	157.367286	-62.290574	41.554922
24217		31.127460	1.697870	20.137695	29.027479	13.480890	8.972855	-0.035900	-2.485149	-2.105458	-0.719238	0.105713	0.758057	0.308897	0.013755	0.205223	0.014612	-0.825039	-0.211571	-0.523770	156.344113	-60.510330	42.694669
24218		40.460425	-3.600636	27.909066	37.110396	23.731334	12.290400	-1.237054	1.092130	-1.377483	-0.733887	0.089111	0.753174	0.405868	-0.037081	0.277104	0.007072	-0.820760	-0.213870	-0.529682	153.899484	-60.751466	44.683794
24219		14.343123	-4.313263	16.850210	17.960572	12.829848	-5.228069	-1.799276	3.881085	-0.911207	-0.771729	0.071533	0.717041	0.146476	-0.042294	0.166062	0.001436	-0.809377	-0.212611	-0.547451	150.087766	-62.473788	47.841962
24220		11.879239	-4.732847	12.609822	13.086160	11.339168	-5.053556	-1.707833	4.988350	-1.104286	-0.790039	0.047607	0.671387	0.121634	-0.046933	0.123490	-0.003176	-0.794258	-0.212234	-0.569299	144.958740	-64.554176	52.474479
24221		6.568546	-3.613813	8.048117	7.724646	7.438134	-7.371070	-1.694001	5.419422	-1.276582	-0.832520	0.042969	0.634766	0.067610	-0.035892	0.078971	-0.007769	-0.777118	-0.212435	-0.592367	138.496261	-66.545642	58.503279
24222		5.978193	-3.352784	6.105947	5.710154	6.546971	-6.849666	-1.688808	5.671305	-1.292400	-0.874512	0.014160	0.575928	0.061270	-0.033413	0.059618	-0.012110	-0.758512	-0.212516	-0.615913	130.704519	-68.311860	65.887223
24223		6.447721	-2.976424	5.206058	4.819033	6.144873	-5.745986	-1.789200	5.798939	-1.107317	-0.914063	0.001465	0.523682	0.065791	-0.029670	0.050431	-0.016120	-0.739013	-0.211413	-0.639457	121.695206	-69.770916	74.432113
24224		7.096678	-3.480304	4.424060	3.695014	6.603571	-4.835559	-1.877965	5.989892	-0.769373	-0.951904	-0.012939	0.465820	0.072122	-0.034675	0.042418	-0.019154	-0.718511	-0.208565	-0.663231	111.450557	-70.924362	84.160454
24225		6.802837	-4.360638	3.407678	2.146930	7.009838	-5.001676	-1.849125	6.209491	-0.359244	-0.972656	-0.026367	0.395020	0.068973	-0.043425	0.032347	-0.020483	-0.696994	-0.204168	-0.687092	100.083367	-71.701551	95.035960
24226		5.540969	-5.012618	2.092301	0.455401	6.821001	-6.143156	-1.622432	6.283650	0.021073	-1.007080	-0.031494	0.333740	0.056044	-0.049958	0.019574	-0.019613	-0.674877	-0.198991	-0.710323	88.168253	-71.981315	106.588803
24227		3.966763	-5.100864	0.964235	-0.734217	6.091815	-7.569650	-1.242556	6.137484	0.365483	-1.036621	-0.031006	0.275635	0.040038	-0.050880	0.008734	-0.016369	-0.652991	-0.193810	-0.731965	76.707553	-71.729673	117.894331
24228		2.679809	-4.096693	0.610950	-0.803289	4.671301	-8.445333	-0.877985	5.764726	0.688910	-1.036377	-0.030762	0.204834	0.027104	-0.040849	0.005511	-0.011093	-0.632187	-0.188668	-0.751413	66.482986	-71.063782	128.144029
24229		3.030728	-2.527919	1.340245	0.037917	3.455824	-7.483475	-0.739602	5.249750	1.024527	-1.048828	-0.020508	0.158691	0.030775	-0.025075	0.012692	-0.004601	-0.613159	-0.182835	-0.768496	57.700345	-70.175817	137.000783
24230		5.045034	-0.776629	2.212657	0.553304	2.437810	-4.843192	-0.874206	4.775737	1.455424	-1.051514	-0.003174	0.097656	0.051014	-0.007303	0.020945	0.002708	-0.595898	-0.174998	-0.783757	49.864124	-69.232207	144.814934
24231		7.404152	-0.920487	3.080780	0.379040	3.118603	-2.377815	-1.109149	4.480057	1.947445	-1.061035	0.012451	0.060791	0.074791	-0.008314	0.029186	0.010980	-0.579872	-0.164696	-0.797811	42.462814	-68.259950	152.070930
24232		9.056536	-1.821209	3.274747	-0.504469	4.038883	-0.897840	-1.138659	4.393279	2.370478	-1.063477	0.025879	0.014404	0.091463	-0.016952	0.030844	0.020779	-0.564145	-0.152919	-0.811125	35.346112	-67.152273	159.050684
24233		10.265754	-2.168482	3.345175	-1.331495	4.207093	0.275862	-0.900147	4.396352	2.689269	-1.057861	0.052246	-0.034912	0.103639	-0.020152	0.031274	0.032528	-0.548270	-0.141137	-0.823664	28.737515	-65.833872	165.691228
24234		10.941119	-1.420191	3.397065	-1.814126	3.160284	1.139720	-0.545402	4.413547	2.925557	-1.057129	0.074463	-0.069824	0.110317	-0.012504	0.031578	0.046216	-0.532024	-0.130036	-0.835407	22.789206	-64.280997	171.899795
24235		11.407843	-0.014175	3.801494	-1.784043	1.484675	1.984308	-0.274786	4.370169	3.130866	-1.053955	0.116211	-0.116699	0.114856	0.001702	0.035509	0.061415	-0.515674	-0.119467	-0.846189	17.527638	-62.547002	177.603784
24236		11.821146	1.092330	4.133097	-1.854474	0.014526	2.618718	-0.157894	4.273841	3.282775	-1.044189	0.131104	-0.154053	0.118858	0.012902	0.038786	0.077459	-0.499383	-0.108912	-0.856011	12.869520	-60.671737	-177.210946
24237		11.727367	1.472584	4.595486	-1.719064	-0.745532	2.728147	-0.108886	4.139902	3.348755	-1.036865	0.168945	-0.201172	0.117922	0.016721	0.043509	0.093776	-0.483350	-0.098408	-0.864809	8.808737	-58.700926	-172.582705
24238		11.548198	1.588012	5.267502	-1.413313	-1.182658	2.844356	-0.081283	4.001116	3.303206	-1.013184	0.185303	-0.239502	0.116221	0.017816	0.050348	0.109832	-0.467518	-0.088100	-0.872698	5.330865	-56.653006	-168.528695
24239		11.583745	1.691169	6.112971	-1.085229	-1.570595	3.253890	-0.091094	3.912351	3.166405	-1.006592	0.218018	-0.263428	0.116716	0.018782	0.058844	0.125154	-0.451739	-0.078090	-0.879869	2.404731	-54.536899	-165.048519
24240		11.751188	1.714818	6.975104	-0.866553	-1.899512	3.799498	-0.152291	3.890586	2.971382	-0.976563	0.242920	-0.303955	0.118566	0.018957	0.067437	0.139397	-0.435710	-0.068188	-0.886609	-0.052670	-52.337135	-162.103751
24241		11.897152	1.268818	7.591768	-1.004894	-1.847618	4.199083	-0.225854	3.904897	2.761584	-0.951416	0.263672	-0.332764	0.120232	0.014427	0.073563	0.152470	-0.419369	-0.058396	-0.893013	-2.105866	-50.068395	-159.638317
24242		11.945493	0.646411	7.990423	-1.346661	-1.668810	4.411456	-0.264781	3.931904	2.563575	-0.927734	0.284668	-0.352539	0.120898	0.008111	0.077527	0.164501	-0.402614	-0.048764	-0.899146	-3.816715	-47.736560	-157.575257
24243		12.256837	0.146934	8.568433	-1.724388	-1.642898	4.950775	-0.264136	3.939914	2.416131	-0.901367	0.289063	-0.384277	0.124194	0.003074	0.083245	0.175780	-0.385594	-0.039427	-0.904911	-5.244037	-45.374798	-155.820752
24244		12.548120	-0.217865	8.984739	-2.200919	-1.800645	5.356431	-0.272505	3.960332	2.338432	-0.882324	0.304443	-0.397705	0.127240	-0.000578	0.087341	0.186603	-0.368239	-0.030137	-0.910314	-6.479116	-42.974517	-154.278316
24245		12.813561	-0.600111	9.437723	-2.676637	-1.957665	5.762248	-0.301958	3.965386	2.306838	-0.855957	0.305176	-0.414551	0.130030	-0.004369	0.091819	0.197128	-0.350716	-0.020776	-0.915263	-7.581470	-40.555643	-152.886151
24246		13.773595	-0.971621	9.894790	-3.649925	-2.423783	6.598182	-0.348763	3.975964	2.317814	-0.839355	0.320557	-0.435547	0.139766	-0.007935	0.096198	0.208365	-0.332930	-0.011322	-0.919572	-8.617959	-38.099232	-151.485327
24247		14.762823	-1.375351	10.063341	-4.882409	-2.993270	7.165179	-0.418715	4.029101	2.380999	-0.821777	0.319824	-0.455322	0.149764	-0.011772	0.097657	0.218819	-0.314878	-0.001202	-0.923563	-9.598995	-35.601551	-150.252931
24248		14.899746	-1.629084	9.653060	-5.807493	-3.504859	6.672687	-0.476518	4.055363	2.459498	-0.794922	0.324219	-0.467773	0.151098	-0.014216	0.093516	0.229620	-0.296558	0.009324	-0.926952	-10.551767	-33.059459	-149.034406
24249		14.942308	-1.784259	8.804940	-6.823958	-4.107892	5.694901	-0.527436	4.000784	2.498905	-0.787354	0.332031	-0.492920	0.151350	-0.015732	0.085078	0.240203	-0.278414	0.020094	-0.929723	-11.458785	-30.533551	-147.890343
24250		15.032618	-1.828354	7.815908	-7.829636	-4.795739	4.541996	-0.595467	3.865885	2.465198	-0.773682	0.338623	-0.519043	0.152008	-0.016190	0.075282	0.250025	-0.260806	0.031038	-0.931936	-12.319815	-28.072487	-146.872850
24251		15.230640	-1.532573	6.575091	-8.791019	-5.791227	3.098067	-0.692921	3.661731	2.367565	-0.750000	0.353516	-0.533936	0.153642	-0.013291	0.062994	0.259560	-0.244171	0.041952	-0.933407	-13.157578	-25.724429	-145.902948
24252		15.454429	-0.701142	5.406478	-9.383586	-7.157681	1.555621	-0.867604	3.364129	2.273637	-0.744141	0.362305	-0.551270	0.155489	-0.005020	0.051479	0.267782	-0.229023	0.053250	-0.934348	-14.024584	-23.544179	-145.078829
24253		15.179411	1.353998	4.477825	-8.772493	-9.209719	-0.299982	-1.146135	2.974815	2.218321	-0.731934	0.373047	-0.572266	0.152272	0.015475	0.042431	0.276026	-0.216017	0.065144	-0.934292	-15.018605	-21.572814	-144.204513
24254		15.454674	3.900157	3.323238	-8.296059	-11.848806	-2.339188	-1.568543	2.537635	2.215566	-0.717529	0.392578	-0.581543	0.154503	0.040962	0.030956	0.283841	-0.205543	0.078397	-0.933295	-16.235756	-19.825744	-143.312181
24255		15.005977	4.643701	1.087919	-8.514335	-12.416530	-5.204136	-1.884726	2.109499	2.160107	-0.704346	0.414063	-0.593018	0.149646	0.048145	0.008851	0.291148	-0.197484	0.092420	-0.931500	-17.606666	-18.306353	-142.427050
24256		14.632908	4.816316	-1.334670	-9.094670	-12.374607	-8.012567	-1.857601	1.620666	1.978991	-0.694092	0.432129	-0.594238	0.145727	0.049473	-0.014985	0.297780	-0.191680	0.105409	-0.929234	-18.925345	-17.064828	-141.598285
24257		15.620639	4.974846	-3.512693	-10.573617	-13.007395	-10.110496	-1.508691	1.100580	1.692626	-0.683350	0.451660	-0.593994	0.155582	0.050796	-0.036365	0.303630	-0.187894	0.115698	-0.926887	-20.002850	-16.144103	-140.859013
24258		16.916405	5.572731	-5.240708	-11.850495	-14.154248	-11.788135	-0.962534	0.646574	1.332234	-0.677490	0.451172	-0.590088	0.168618	0.056597	-0.053224	0.308548	-0.185565	0.122418	-0.924866	-20.724090	-15.527513	-140.245022
24259		17.352714	6.990356	-6.068123	-11.673257	-15.486059	-13.086588	-0.489603	0.233653	0.948249	-0.677002	0.460449	-0.598877	0.173122	0.070576	-0.061056	0.312367	-0.184644	0.125947	-0.923293	-21.133856	-15.205271	-139.764066
24260		16.922049	7.634398	-6.006277	-10.903905	-15.766817	-13.449566	-0.248516	-0.172360	0.542358	-0.675049	0.471680	-0.601318	0.169064	0.076728	-0.060012	0.314784	-0.185477	0.127351	-0.922112	-21.367654	-15.181948	-139.422519
24261		16.277443	6.548308	-5.154759	-10.604954	-14.662450	-12.449734	-0.127199	-0.523102	0.095651	-0.677246	0.475830	-0.595947	0.162877	0.065528	-0.051163	0.315474	-0.188015	0.127229	-0.921379	-21.487387	-15.437766	-139.251858
24262		15.195425	4.711158	-3.839005	-10.226956	-12.738058	-10.804424	0.022730	-0.784614	-0.358852	-0.683105	0.457031	-0.588867	0.152187	0.046843	-0.037788	0.314374	-0.191819	0.125569	-0.921198	-21.469672	-15.929610	-139.275009
24263		14.521729	2.900204	-2.317709	-10.054548	-11.072530	-8.829944	0.245778	-0.999358	-0.734674	-0.692627	0.465820	-0.580322	0.145436	0.028496	-0.022416	0.311883	-0.196481	0.122186	-0.921518	-21.278335	-16.613074	-139.461690
24264		14.327510	1.468922	-0.905022	-10.062570	-9.934189	-6.930525	0.461724	-1.165123	-0.963436	-0.708008	0.451416	-0.575928	0.143393	0.014018	-0.008182	0.308636	-0.201718	0.117307	-0.922113	-20.932471	-17.433720	-139.744010
24265		14.428948	0.243972	0.350035	-10.218883	-9.068376	-5.153196	0.625192	-1.284084	-1.006977	-0.706787	0.450684	-0.565430	0.144273	0.001700	0.004433	0.305400	-0.207244	0.111451	-0.922691	-20.487222	-18.322829	-140.033340
24266		13.961247	-0.431211	1.261583	-9.795524	-8.220612	-4.054337	0.727425	-1.392080	-0.891825	-0.713867	0.436279	-0.560303	0.139499	-0.004983	0.013570	0.302839	-0.213056	0.105054	-0.922962	-20.004091	-19.247872	-140.243072
24267		12.735795	-0.368550	1.767565	-8.597036	-7.467093	-3.830211	0.772647	-1.534724	-0.706037	-0.725342	0.446045	-0.544922	0.127203	-0.004205	0.018637	0.301233	-0.219318	0.098436	-0.922751	-19.534819	-20.209162	-140.327081
24268		-11.030492	-0.690451	32.935506	23.168883	5.503476	15.480925	-1.284032	-1.587756	-0.435765	-0.728516	0.456055	-0.532227	-0.112927	-0.004549	0.328500	0.298615	-0.228797	0.101497	-0.920967	-20.301901	-21.150083	-140.241405
24269		-11.046167	-15.481153	18.829173	9.359522	18.035201	7.604031	-0.685152	-0.773809	-0.840194	-0.734619	0.447021	-0.530029	-0.111838	-0.153698	0.188389	0.294383	-0.233793	0.102561	-0.920956	-20.581555	-21.730565	-140.555204
24270		-11.067214	-9.175745	-4.390429	1.306676	14.071474	-14.933525	0.640952	-2.031568	-2.569785	-0.751465	0.434814	-0.513672	-0.111382	-0.090186	-0.045324	0.284336	-0.243497	0.093617	-0.922550	-19.810728	-23.330768	-141.611101
24271		5.030804	-5.266928	3.961489	-4.064503	1.476027	-2.739282	1.164226	-3.532304	-2.821029	-0.763916	0.423096	-0.496826	0.048850	-0.053598	0.040176	0.274353	-0.259377	0.079795	-0.922544	-18.755593	-25.771899	-142.548908
24272		21.560706	-6.993796	15.122244	-10.469431	-5.713318	14.684917	0.700417	-3.281653	-1.229894	-0.774414	0.406982	-0.477295	0.212652	-0.071789	0.154479	0.270889	-0.274009	0.070475	-0.920093	-18.322575	-27.777919	-142.622386
24273		11.202167	-2.066395	8.912308	-3.866575	-3.980789	3.543145	0.720041	-2.534908	-0.666420	-0.789063	0.409180	-0.460205	0.110810	-0.021359	0.090457	0.269713	-0.284894	0.062840	-0.917683	-17.962709	-29.274081	-142.515771
24274		5.467350	3.335959	9.235117	2.984249	-5.271882	-0.346824	0.477697	-2.686271	-0.949238	-0.796143	0.407715	-0.445313	0.053583	0.032882	0.093155	0.266536	-0.296845	0.055751	-0.915278	-17.660683	-30.908785	-142.609499
24275		12.931652	0.117304	11.456989	-2.032220	-6.035948	6.247262	0.237619	-2.633082	-1.049568	-0.802979	0.395996	-0.427002	0.127797	0.000362	0.116260	0.262827	-0.308831	0.049622	-0.912734	-17.455911	-32.525683	-142.743416
24276		24.125424	-6.884277	12.191375	-11.911894	-5.335699	14.838208	0.435561	-2.012987	-0.763296	-0.809814	0.401855	-0.416748	0.239746	-0.070028	0.124180	0.260250	-0.317625	0.043883	-0.910746	-17.157491	-33.759620	-142.863100
24277		16.288590	-3.739505	9.114075	-6.936996	-4.125490	7.427523	0.342977	-0.780783	-0.213398	-0.810303	0.403320	-0.417236	0.162488	-0.037726	0.091711	0.260026	-0.320768	0.040997	-0.909843	-16.975399	-34.220321	-142.840512
24278		5.378970	-1.968074	7.966935	0.406549	-0.218669	-0.011407	0.499596	-0.556711	-0.281402	-0.802979	0.409424	-0.414795	0.053540	-0.019955	0.079769	0.259440	-0.322723	0.037617	-0.909464	-16.647071	-34.575435	-142.942345
24279		7.284878	-1.044755	9.127438	0.285654	-1.763852	1.775134	0.507551	-0.416572	-0.442788	-0.814941	0.407227	-0.425537	0.072635	-0.010840	0.091399	0.258356	-0.324030	0.034086	-0.909447	-16.239261	-34.873374	-143.150896
24280		8.224528	-1.736202	7.308966	-1.745585	-1.738381	1.050496	0.478528	-0.215553	-0.408791	-0.810303	0.416016	-0.426758	0.082131	-0.017705	0.073136	0.257194	-0.324478	0.031016	-0.909727	-15.833558	-35.058995	-143.397086
24281		7.867055	-2.097543	7.757683	-1.415242	-1.135442	1.285933	0.476894	-0.102578	-0.342314	-0.809326	0.422852	-0.443115	0.078594	-0.021295	0.077567	0.256459	-0.324375	0.028191	-0.910063	-15.443537	-35.165733	-143.603236
24282		7.320346	-1.722394	8.233893	-0.623992	-1.083614	1.268251	0.421463	0.034968	-0.345919	-0.817383	0.429443	-0.438965	0.073188	-0.017524	0.082289	0.255572	-0.323741	0.025777	-0.910610	-15.067563	-35.199675	-143.840810
24283		6.742645	-2.055531	8.450720	-0.292750	-0.445272	1.179080	0.324931	0.103575	-0.312150	-0.815674	0.435059	-0.450439	0.067438	-0.020798	0.084439	0.254696	-0.322885	0.023956	-0.911209	-14.753654	-35.185676	-144.065562
