// General information: 
//  MT Manager version: 2019.2.0 
//  XDA version: 2019.2.0 build 3853 rev 94535 built on 2019-09-09
// Device information: 
//  DeviceId: 00B47786
//  ProductCode: MTW2-3A7G6
//  Firmware Version: 4.6.0
//  Hardware Version: 2.0.0
// Device settings: 
//  Filter Profile: human(46.1)
//  Option Flags: Orientation Smoother Disabled, AHS Disabled, ICC Disabled
// Coordinate system: ENU
PacketCounter	SampleTimeFine	Acc_X	Acc_Y	Acc_Z	FreeAcc_E	FreeAcc_N	FreeAcc_U	Gyr_X	Gyr_Y	Gyr_Z	Mag_X	Mag_Y	Mag_Z	VelInc_X	VelInc_Y	VelInc_Z	Quat_q0	Quat_q1	Quat_q2	Quat_q3	Roll	Pitch	Yaw
23745		9.467418	0.272256	-2.348841	0.002854	0.010891	-0.054457	-0.012289	0.005205	-0.009204	-0.749512	0.041748	0.554199	0.094674	0.002717	-0.023491	0.024423	-0.785871	-0.054685	-0.615483	173.159755	-75.942448	13.302188
23746		9.501918	0.246022	-2.316115	0.039964	0.042572	-0.029644	-0.013655	0.003523	-0.010039	-0.754150	0.041260	0.547607	0.095019	0.002454	-0.023163	0.024366	-0.785891	-0.054637	-0.615464	173.155143	-75.939177	13.298247
23747		9.458052	0.227341	-2.323074	0.021336	0.058404	-0.071063	-0.009804	0.001658	-0.014697	-0.768311	0.036377	0.541504	0.094580	0.002265	-0.023232	0.024313	-0.785916	-0.054620	-0.615436	173.143405	-75.934334	13.304271
23748		9.473779	0.257679	-2.333543	0.019073	0.028631	-0.052404	-0.003086	0.003116	-0.014173	-0.767578	0.039063	0.543945	0.094738	0.002570	-0.023337	0.024285	-0.785935	-0.054620	-0.615413	173.135577	-75.930549	13.309888
23749		9.473793	0.259196	-2.333318	0.020016	0.027717	-0.052403	-0.001003	0.001525	-0.016854	-0.754639	0.037354	0.539795	0.094738	0.002584	-0.023334	0.024258	-0.785956	-0.054639	-0.615386	173.123024	-75.926118	13.321767
23750		9.443146	0.262719	-2.317372	0.029259	0.024894	-0.085881	-0.002683	0.001160	-0.016986	-0.757568	0.032959	0.539063	0.094432	0.002619	-0.023174	0.024222	-0.785980	-0.054652	-0.615355	173.109591	-75.921027	13.333401
23751		9.473722	0.262457	-2.333245	0.022004	0.025911	-0.052403	0.003526	-0.002377	-0.017302	-0.759277	0.039551	0.550781	0.094738	0.002617	-0.023331	0.024206	-0.786013	-0.054683	-0.615311	173.099498	-75.914167	13.344744
23752		9.491774	0.299739	-2.377836	-0.011457	-0.014044	-0.023030	-0.002370	-0.000158	-0.017691	-0.759766	0.041748	0.550293	0.094918	0.002989	-0.023778	0.024170	-0.786041	-0.054699	-0.615275	173.085027	-75.908277	13.357634
23753		9.486793	0.287974	-2.310478	0.051968	0.005375	-0.044486	-0.005100	-0.003524	-0.019362	-0.757813	0.035645	0.543945	0.094869	0.002870	-0.023103	0.024119	-0.786079	-0.054717	-0.615227	173.066671	-75.900364	13.373359
23754		9.490873	0.243924	-2.372516	-0.011072	0.043774	-0.026832	-0.014849	0.000556	-0.015093	-0.750977	0.036133	0.544189	0.094909	0.002430	-0.023726	0.024042	-0.786107	-0.054685	-0.615197	173.050761	-75.895057	13.380361
23755		9.475914	0.276150	-2.367221	-0.005136	0.012090	-0.041671	-0.011667	0.002563	-0.010614	-0.754639	0.043457	0.542480	0.094759	0.002755	-0.023674	0.023989	-0.786129	-0.054642	-0.615175	173.046059	-75.891295	13.377234
23756		9.468977	0.236601	-2.375704	-0.018906	0.050364	-0.047516	-0.006313	0.002343	-0.010925	-0.747803	0.042236	0.551270	0.094690	0.002360	-0.023758	0.023958	-0.786152	-0.054620	-0.615149	173.043984	-75.887294	13.375014
23757		9.445326	0.280574	-2.350907	0.005115	0.008338	-0.075153	-0.006452	0.002385	-0.014438	-0.760498	0.031494	0.549316	0.094453	0.002798	-0.023510	0.023923	-0.786173	-0.054616	-0.615123	173.034871	-75.883046	13.380958
23758		9.482930	0.321257	-2.357711	0.012721	-0.029857	-0.035831	-0.011947	0.002647	-0.017640	-0.742188	0.042969	0.546143	0.094829	0.003203	-0.023579	0.023849	-0.786194	-0.054603	-0.615101	173.014307	-75.878750	13.394473
23759		9.451614	0.265454	-2.336091	0.020296	0.026999	-0.073095	-0.013401	0.001601	-0.016368	-0.759277	0.042236	0.552246	0.094516	0.002645	-0.023362	0.023772	-0.786218	-0.054578	-0.615075	172.996242	-75.873872	13.404291
23760		9.457880	0.248179	-2.321643	0.034450	0.046567	-0.071037	-0.014576	0.000469	-0.008072	-0.759766	0.033936	0.549072	0.094579	0.002476	-0.023217	0.023718	-0.786248	-0.054520	-0.615043	172.996412	-75.869005	13.394873
23761		9.442915	0.280182	-2.316269	0.040378	0.014877	-0.085900	-0.012127	0.003922	-0.013424	-0.748291	0.041992	0.541260	0.094429	0.002794	-0.023165	0.023658	-0.786266	-0.054489	-0.615026	172.985162	-75.865758	13.398739
23762		9.454046	0.276659	-2.369364	-0.007856	0.014098	-0.062346	-0.005281	-0.002244	-0.015150	-0.749756	0.038574	0.545410	0.094541	0.002759	-0.023693	0.023617	-0.786301	-0.054487	-0.614982	172.975430	-75.858853	13.405024
23763		9.495334	0.291583	-2.328655	0.044096	0.006499	-0.031734	-0.006418	-0.004608	-0.014583	-0.755859	0.038818	0.546143	0.094954	0.002908	-0.023284	0.023577	-0.786344	-0.054483	-0.614930	172.967626	-75.850701	13.409282
23764		9.468828	0.249213	-2.375007	-0.010735	0.043027	-0.047468	-0.007734	0.000066	-0.017385	-0.753418	0.037598	0.544922	0.094688	0.002483	-0.023750	0.023520	-0.786372	-0.054482	-0.614896	172.950821	-75.844952	13.421412
23765		9.475711	0.291607	-2.366179	0.005049	0.002912	-0.041664	-0.004235	0.000756	-0.013609	-0.758545	0.044922	0.546875	0.094757	0.002909	-0.023662	0.023491	-0.786398	-0.054478	-0.614865	172.944622	-75.839972	13.424922
23766		9.451335	0.276050	-2.335990	0.027378	0.020602	-0.073097	-0.005916	0.000389	-0.013741	-0.761719	0.034668	0.547852	0.094513	0.002753	-0.023360	0.023452	-0.786425	-0.054469	-0.614832	172.936996	-75.834662	13.428661
23767		9.467012	0.306674	-2.346237	0.025101	-0.009228	-0.054487	-0.013362	0.007956	-0.018336	-0.758057	0.040527	0.550781	0.094669	0.003056	-0.023466	0.023377	-0.786428	-0.054457	-0.614832	172.913103	-75.833521	13.445459
23768		9.473329	0.289815	-2.331601	0.039262	0.010332	-0.052428	-0.015997	-0.001813	-0.014534	-0.759277	0.043945	0.543213	0.094734	0.002889	-0.023315	0.023296	-0.786464	-0.054420	-0.614793	172.898549	-75.826902	13.450386
23769		9.469350	0.317369	-2.379848	-0.004081	-0.021259	-0.043730	-0.020950	-0.003552	-0.017039	-0.761475	0.038818	0.546875	0.094694	0.003163	-0.023797	0.023196	-0.786503	-0.054384	-0.614750	172.876875	-75.819304	13.460968
23770		9.468682	0.259968	-2.374437	-0.004695	0.037497	-0.047441	-0.025491	0.000343	-0.016592	-0.755127	0.035400	0.548584	0.094687	0.002589	-0.023745	0.023072	-0.786533	-0.054325	-0.614722	172.851669	-75.813764	13.471272
23771		9.446696	0.251903	-2.378156	-0.013587	0.045014	-0.068103	-0.022722	-0.003283	-0.015065	-0.756836	0.034668	0.540771	0.094468	0.002509	-0.023780	0.022963	-0.786572	-0.054270	-0.614680	172.832674	-75.806405	13.476960
23772		9.461669	0.223226	-2.383397	-0.017458	0.074868	-0.053196	-0.016777	0.000865	-0.016638	-0.751465	0.031738	0.549316	0.094617	0.002222	-0.023835	0.022874	-0.786599	-0.054239	-0.614652	172.812233	-75.801157	13.487499
23773		9.457747	0.250723	-2.431384	-0.060799	0.043333	-0.044479	-0.007514	-0.000609	-0.015986	-0.748779	0.039307	0.546631	0.094578	0.002499	-0.024314	0.022818	-0.786629	-0.054229	-0.614616	172.798657	-75.795233	13.495829
23774		9.448938	0.264458	-2.412004	-0.041749	0.032133	-0.057311	-0.005659	-0.001512	-0.020074	-0.739502	0.035645	0.551270	0.094490	0.002634	-0.024119	0.022761	-0.786661	-0.054245	-0.614576	172.777570	-75.788384	13.513606
23775		9.492704	0.286919	-2.404631	-0.020906	0.014318	-0.015986	-0.012111	0.002693	-0.021160	-0.750488	0.031250	0.548584	0.094927	0.002858	-0.024048	0.022677	-0.786681	-0.054245	-0.614553	172.749740	-75.783650	13.534581
23776		9.497514	0.303188	-2.471933	-0.082255	-0.006935	0.005578	-0.013388	0.000374	-0.024110	-0.753662	0.021973	0.552002	0.094975	0.003019	-0.024720	0.022578	-0.786707	-0.054253	-0.614523	172.714674	-75.777577	13.562212
23777		9.146387	0.466257	-2.944314	-0.599223	-0.235112	-0.214332	0.023614	-0.068913	-0.039018	-0.748291	0.027832	0.555176	0.091475	0.004648	-0.029411	0.022546	-0.786939	-0.054429	-0.614212	172.686301	-75.730926	13.602739
23778		8.639638	0.989279	-3.342171	-1.034788	-0.820284	-0.590515	0.065725	-0.128639	-0.086307	-0.746826	0.025146	0.553955	0.086422	0.009866	-0.033363	0.022532	-0.787335	-0.054940	-0.613660	172.595349	-75.646967	13.734836
23779		8.515954	1.075666	-3.365864	-1.062125	-0.908362	-0.699273	0.003133	-0.195011	-0.088852	-0.746338	0.014404	0.556396	0.085197	0.010719	-0.033575	0.022232	-0.787942	-0.055263	-0.612861	172.482760	-75.524747	13.850174
23780		9.153172	0.726953	-3.305558	-0.872047	-0.508160	-0.106142	-0.077203	-0.177404	-0.074664	-0.750488	0.024170	0.563477	0.091564	0.007223	-0.032977	0.021677	-0.788505	-0.055294	-0.612154	172.352933	-75.413845	13.937964
23781		9.999811	0.307697	-3.139021	-0.538324	-0.013700	0.658911	-0.070757	-0.112424	-0.063660	-0.741699	0.027100	0.552246	0.100017	0.003034	-0.031335	0.021180	-0.788874	-0.055277	-0.611698	172.231555	-75.340297	14.017823
23782		9.963301	0.382895	-2.956826	-0.356865	-0.064534	0.580834	0.011761	-0.009629	-0.076500	-0.744873	0.025391	0.557373	0.099636	0.003793	-0.029563	0.021017	-0.788913	-0.055570	-0.611626	172.101350	-75.324387	14.158747
23783		9.461146	0.782696	-2.500131	0.003362	-0.441205	-0.005452	-0.004481	0.048697	-0.057378	-0.737305	0.022461	0.564697	0.094608	0.007799	-0.025025	0.020859	-0.788781	-0.055727	-0.611787	171.985494	-75.342893	14.274385
23784		9.241329	0.717699	-2.277162	0.153029	-0.364709	-0.276111	-0.149544	0.029020	-0.001516	-0.743896	0.018066	0.562012	0.092410	0.007159	-0.022790	0.020300	-0.788739	-0.055227	-0.611906	171.913793	-75.354791	14.259301
23785		9.299114	0.313547	-2.462018	-0.057107	0.023708	-0.188263	-0.214141	-0.010722	0.031466	-0.745850	0.018066	0.557617	0.092992	0.003124	-0.024619	0.019567	-0.788836	-0.054393	-0.611879	171.888446	-75.346529	14.156536
23786		9.216854	-0.001810	-2.552395	-0.197236	0.324576	-0.256492	-0.142357	-0.016707	0.014663	-0.747070	0.022705	0.560791	0.092171	-0.000030	-0.025516	0.019072	-0.788937	-0.053856	-0.611813	171.870024	-75.333804	14.090635
23787		9.202863	-0.059939	-2.463187	-0.117450	0.393408	-0.294547	-0.058952	-0.046338	-0.045359	-0.741943	0.021973	0.569580	0.092034	-0.000628	-0.024610	0.018712	-0.789104	-0.053809	-0.611612	171.778486	-75.299372	14.149057
23788		9.384010	-0.120248	-2.561756	-0.166567	0.463067	-0.097004	0.010598	-0.112462	-0.113656	-0.743652	0.025635	0.565674	0.093854	-0.001254	-0.025565	0.018403	-0.789448	-0.054254	-0.611138	171.601112	-75.221788	14.338111
23789		9.569049	0.213798	-2.652149	-0.160211	0.145590	0.117037	0.134081	-0.123604	-0.158563	-0.747070	0.023926	0.563232	0.095709	0.002080	-0.026461	0.018440	-0.789802	-0.055254	-0.610590	171.404219	-75.133843	14.620440
23790		9.603189	0.699944	-2.596114	-0.033190	-0.319194	0.154657	0.161311	-0.088641	-0.134089	-0.741943	0.020752	0.557861	0.096048	0.006956	-0.025913	0.018670	-0.790052	-0.056238	-0.610169	171.265831	-75.067692	14.858649
23791		9.747723	0.964254	-2.754373	-0.110618	-0.580415	0.345331	0.056972	-0.073683	-0.073647	-0.727295	0.019531	0.558350	0.097491	0.009614	-0.027505	0.018676	-0.790282	-0.056663	-0.609831	171.192443	-75.015223	14.967697
23792		9.804100	1.057909	-2.878388	-0.199692	-0.678196	0.435475	-0.033955	-0.022011	-0.015506	-0.732666	0.008301	0.569580	0.098045	0.010567	-0.028775	0.018515	-0.790380	-0.056577	-0.609718	171.173183	-74.997049	14.966861
23793		9.756595	0.707327	-2.900899	-0.272287	-0.334712	0.381453	-0.144475	0.021279	0.031976	-0.740479	0.016602	0.566895	0.097562	0.007068	-0.029024	0.018070	-0.790370	-0.055957	-0.609802	171.176675	-75.007509	14.876135
23794		9.649179	0.181164	-2.873702	-0.333434	0.184212	0.249744	-0.185635	0.027015	0.020836	-0.735596	0.020264	0.563721	0.096488	0.001795	-0.028752	0.017435	-0.790341	-0.055260	-0.609920	171.131266	-75.020293	14.812403
23795		9.415347	-0.114902	-2.735672	-0.293696	0.477611	-0.023331	-0.110591	0.035963	0.004505	-0.733887	0.013672	0.561279	0.094149	-0.001162	-0.027373	0.017047	-0.790275	-0.054854	-0.610055	171.091441	-75.036699	14.787140
23796		9.136771	-0.015063	-2.641173	-0.262911	0.370324	-0.312669	-0.005167	0.008640	-0.025376	-0.734863	0.012451	0.555908	0.091367	-0.000163	-0.026416	0.016978	-0.790273	-0.054891	-0.610055	171.057710	-75.034997	14.818356
23797		9.075278	0.368108	-2.529465	-0.128177	-0.000936	-0.385178	0.056310	-0.023227	-0.071761	-0.745361	0.016846	0.559570	0.090757	0.003656	-0.025283	0.017000	-0.790352	-0.055299	-0.609916	170.971842	-75.011096	14.939519
23798		9.086298	0.693802	-2.535113	-0.091489	-0.318979	-0.359707	0.034806	-0.051000	-0.080325	-0.736328	0.016113	0.565918	0.090872	0.006906	-0.025327	0.016905	-0.790514	-0.055681	-0.609673	170.865289	-74.970660	15.069848
23799		9.287418	0.775187	-2.495024	0.012085	-0.375956	-0.172112	-0.020325	-0.063004	-0.071845	-0.736084	0.012695	0.567383	0.092885	0.007716	-0.024922	0.016613	-0.790720	-0.055860	-0.609398	170.749867	-74.924132	15.176420
23800		9.366013	0.703729	-2.600265	-0.071724	-0.303206	-0.071962	-0.046683	-0.047722	-0.053615	-0.745605	0.011230	0.566162	0.093668	0.007006	-0.025982	0.016279	-0.790886	-0.055888	-0.609189	170.652806	-74.887895	15.248610
23801		9.360906	0.496856	-2.631950	-0.121292	-0.095998	-0.077357	-0.045508	-0.042950	-0.038678	-0.725342	0.010986	0.571777	0.093616	0.004944	-0.026301	0.015993	-0.791041	-0.055857	-0.608997	170.586403	-74.855697	15.289271
23802		9.213546	0.469372	-2.650084	-0.175151	-0.076556	-0.216014	-0.013138	-0.024951	-0.042984	-0.731934	0.010742	0.571777	0.092140	0.004672	-0.026490	0.015830	-0.791138	-0.055942	-0.608868	170.523479	-74.833280	15.346028
23803		9.109877	0.462330	-2.661080	-0.209144	-0.074109	-0.313439	0.016206	-0.036314	-0.050416	-0.733643	0.013672	0.569580	0.091105	0.004602	-0.026594	0.015754	-0.791266	-0.056144	-0.608686	170.466078	-74.803681	15.413913
23804		9.069436	0.646625	-2.787596	-0.316927	-0.267453	-0.311555	0.031715	-0.037859	-0.069756	-0.727539	0.018311	0.574463	0.090702	0.006439	-0.027858	0.015683	-0.791390	-0.056473	-0.608495	170.378162	-74.771386	15.523216
23805		9.111224	0.673631	-2.785198	-0.296062	-0.285361	-0.270339	0.014956	-0.056856	-0.079147	-0.732666	0.009033	0.567139	0.091123	0.006702	-0.027826	0.015511	-0.791572	-0.056789	-0.608234	170.268458	-74.727372	15.644920
23806		9.165720	0.644710	-2.864943	-0.357040	-0.253624	-0.198003	-0.005306	-0.040501	-0.076568	-0.732910	0.010742	0.575195	0.091665	0.006411	-0.028631	0.015272	-0.791705	-0.057032	-0.608043	170.147206	-74.692814	15.766834
23807		9.296517	0.535563	-2.832800	-0.300966	-0.126599	-0.084881	-0.003416	-0.032608	-0.067106	-0.734863	0.004639	0.575195	0.092972	0.005324	-0.028313	0.015069	-0.791818	-0.057241	-0.607882	170.044194	-74.663535	15.870463
23808		9.504027	0.501041	-2.991601	-0.401990	-0.086102	0.155173	-0.007144	-0.012959	-0.072432	-0.733643	0.003662	0.571533	0.095044	0.004975	-0.029910	0.014844	-0.791869	-0.057460	-0.607801	169.921335	-74.644803	15.992984
23809		9.531041	0.432835	-2.935705	-0.348180	-0.005261	0.163544	-0.022304	0.005724	-0.061706	-0.730957	0.007813	0.570313	0.095311	0.004296	-0.029360	0.014592	-0.791868	-0.057585	-0.607796	169.805163	-74.637560	16.098797
23810		9.358015	0.373877	-2.851048	-0.318586	0.053283	-0.028192	-0.018885	0.027993	-0.051732	-0.734375	0.007324	0.565918	0.093577	0.003712	-0.028524	0.014394	-0.791801	-0.057684	-0.607879	169.703253	-74.643898	16.192623
23811		9.254964	0.457799	-2.607878	-0.103519	-0.011305	-0.186987	0.013086	0.014983	-0.051349	-0.738037	0.001709	0.572266	0.092549	0.004556	-0.026085	0.014318	-0.791772	-0.057877	-0.607900	169.625286	-74.642839	16.280125
23812		9.347801	0.546025	-2.585492	-0.047972	-0.085586	-0.099055	0.014507	-0.020015	-0.068385	-0.729736	0.010986	0.580566	0.093482	0.005430	-0.025845	0.014189	-0.791844	-0.058147	-0.607784	169.526461	-74.620321	16.390600
23813		9.473787	0.681070	-2.394303	0.184845	-0.185888	-0.020831	-0.009522	-0.020127	-0.086865	-0.733643	0.008789	0.574219	0.094743	0.006768	-0.023934	0.013904	-0.791913	-0.058413	-0.607675	169.376459	-74.595660	16.539292
23814		9.475161	0.589773	-2.275858	0.291005	-0.076241	-0.054842	-0.046600	-0.020418	-0.081655	-0.734375	-0.000488	0.572021	0.094756	0.005854	-0.022750	0.013492	-0.791986	-0.058550	-0.607575	169.216433	-74.571361	16.676958
23815		9.488908	0.422307	-2.350327	0.207187	0.091871	-0.030541	-0.050128	-0.032048	-0.071699	-0.731689	0.002930	0.570801	0.094894	0.004183	-0.023489	0.013090	-0.792098	-0.058633	-0.607430	169.079656	-74.541432	16.787812
23816		9.425968	0.538440	-2.474982	0.087848	-0.033226	-0.052795	0.016729	-0.041877	-0.069609	-0.732910	0.005371	0.568848	0.094267	0.005354	-0.024730	0.012959	-0.792236	-0.058916	-0.607226	168.989774	-74.506208	16.890384
23817		9.329563	0.706621	-2.555229	0.009158	-0.209573	-0.116026	0.006996	-0.044317	-0.063314	-0.733398	0.010498	0.577393	0.093304	0.007038	-0.025531	0.012805	-0.792383	-0.059142	-0.607015	168.908454	-74.470206	16.977789
23818		9.503196	0.647817	-2.777594	-0.160655	-0.152029	0.106813	-0.047192	-0.067537	-0.060579	-0.731445	0.008057	0.575195	0.095043	0.006443	-0.027745	0.012440	-0.792605	-0.059196	-0.606727	168.811299	-74.421473	17.049933
23819		9.486636	0.468162	-2.982678	-0.375781	0.013036	0.135700	-0.059989	-0.046026	-0.057302	-0.731201	0.005371	0.577393	0.094875	0.004645	-0.029806	0.012040	-0.792764	-0.059196	-0.606528	168.705345	-74.385095	17.123384
23820		9.415216	0.342680	-3.000368	-0.420897	0.136737	0.065069	-0.044738	-0.029845	-0.056528	-0.729492	0.002441	0.574463	0.094158	0.003393	-0.029990	0.011709	-0.792872	-0.059240	-0.606389	168.603516	-74.357923	17.201869
23821		9.164979	0.507749	-2.963385	-0.428609	-0.038015	-0.176758	0.008851	-0.032448	-0.067822	-0.728516	0.006836	0.575439	0.091656	0.005048	-0.029619	0.011553	-0.792982	-0.059488	-0.606224	168.511134	-74.327896	17.301981
23822		9.012822	0.797074	-2.895631	-0.367075	-0.325487	-0.325312	0.012958	-0.049472	-0.077198	-0.732178	0.002686	0.581787	0.090138	0.007938	-0.028933	0.011382	-0.793140	-0.059790	-0.605990	168.409717	-74.287265	17.414399
23823		9.111020	0.936462	-2.901669	-0.327933	-0.449263	-0.221131	-0.065370	-0.042651	-0.073017	-0.721191	0.000977	0.574707	0.091120	0.009322	-0.029000	0.010913	-0.793284	-0.059835	-0.605807	168.269554	-74.250794	17.520093
23824		9.292557	0.815089	-2.958782	-0.346575	-0.310342	-0.037518	-0.181521	-0.024858	-0.052012	-0.730713	-0.002441	0.581055	0.092931	0.008100	-0.029584	0.010054	-0.793385	-0.059447	-0.605727	168.097716	-74.226777	17.589940
23825		9.253824	0.632299	-2.984762	-0.401167	-0.125175	-0.077943	-0.214468	0.000031	-0.038692	-0.731689	0.011963	0.572510	0.092539	0.006273	-0.029854	0.009109	-0.793416	-0.058900	-0.605755	167.923219	-74.218133	17.642348
23826		9.189830	0.482937	-2.950077	-0.401954	0.029163	-0.157288	-0.221902	0.016166	-0.026070	-0.730469	0.000244	0.574951	0.091897	0.004785	-0.029514	0.008181	-0.793401	-0.058284	-0.605848	167.762739	-74.220111	17.676355
23827		9.194232	0.313025	-2.933781	-0.405416	0.207344	-0.167399	-0.246111	0.027123	-0.018940	-0.724121	-0.010010	0.572754	0.091939	0.003085	-0.029354	0.007182	-0.793355	-0.057566	-0.605989	167.597805	-74.228976	17.700596
23828		9.123018	0.376163	-2.992866	-0.477271	0.141930	-0.216841	-0.204487	0.021378	-0.036810	-0.729492	0.000732	0.581543	0.091228	0.003714	-0.029942	0.006292	-0.793318	-0.057045	-0.606097	167.423677	-74.232485	17.759152
23829		9.055133	0.628054	-2.796528	-0.284005	-0.089645	-0.319440	-0.165153	0.016117	-0.063226	-0.731934	-0.009766	0.570801	0.090551	0.006229	-0.027978	0.005473	-0.793288	-0.056745	-0.606171	167.222099	-74.229553	17.869159
23830		9.197247	0.802706	-2.644236	-0.085563	-0.229380	-0.212389	-0.210254	-0.010412	-0.070083	-0.731689	-0.003418	0.570068	0.091977	0.007967	-0.026446	0.004450	-0.793337	-0.056340	-0.606154	166.993240	-74.210941	17.981159
23831		9.404209	0.789448	-2.657787	-0.046698	-0.187991	-0.010204	-0.264932	-0.020504	-0.069300	-0.732178	-0.011963	0.573242	0.094048	0.007827	-0.026579	0.003208	-0.793417	-0.055763	-0.606110	166.739671	-74.186563	18.085939
23832		9.511490	0.788980	-2.601534	0.033919	-0.161998	0.078294	-0.279526	0.000425	-0.062536	-0.730469	-0.012451	0.579834	0.095117	0.007824	-0.026027	0.001936	-0.793434	-0.055117	-0.606153	166.481752	-74.174730	18.186913
23833		9.408715	0.721174	-2.569277	0.029323	-0.089443	-0.033304	-0.309827	0.014508	-0.047960	-0.725342	-0.019287	0.572510	0.094087	0.007149	-0.025711	0.000589	-0.793411	-0.054318	-0.606258	166.228596	-74.172450	18.264391
23834		9.418088	0.511189	-2.618695	-0.037873	0.128108	-0.024869	-0.342838	0.023963	-0.039402	-0.730713	-0.012695	0.573242	0.094179	0.005048	-0.026207	-0.000857	-0.793359	-0.053388	-0.606408	165.968779	-74.176647	18.329636
23835		9.383608	0.196374	-2.750397	-0.203477	0.441538	-0.044424	-0.350603	0.024948	-0.038632	-0.723633	-0.030518	0.572754	0.093833	0.001897	-0.027519	-0.002334	-0.793302	-0.052428	-0.606562	165.705432	-74.181291	18.393453
23836		9.154345	0.133639	-2.955371	-0.468215	0.484439	-0.215803	-0.305312	0.025973	-0.056677	-0.737793	-0.021240	0.572754	0.091540	0.001265	-0.029568	-0.003684	-0.793236	-0.051680	-0.606707	165.432098	-74.183972	18.495090
23837		8.953013	0.206941	-3.072875	-0.629826	0.400843	-0.374231	-0.250912	0.006876	-0.079194	-0.729248	-0.016113	0.578857	0.089530	0.001995	-0.030734	-0.004895	-0.793221	-0.051181	-0.606759	165.155655	-74.172525	18.631582
23838		9.011414	0.419170	-3.180854	-0.702619	0.203960	-0.275192	-0.219572	-0.027763	-0.111105	-0.731934	-0.026367	0.576172	0.090121	0.004107	-0.031801	-0.006083	-0.793302	-0.050908	-0.606665	164.853474	-74.137124	18.814286
23839		9.168004	0.629912	-3.214507	-0.677760	0.023624	-0.100726	-0.189791	-0.024101	-0.141277	-0.731934	-0.024902	0.578857	0.091688	0.006204	-0.032140	-0.007246	-0.793365	-0.050842	-0.606575	164.509125	-74.098744	19.058306
23840		9.358352	0.812004	-3.038261	-0.446037	-0.113135	0.049226	-0.204337	0.000781	-0.144643	-0.739502	-0.025391	0.578857	0.093589	0.008021	-0.030391	-0.008468	-0.793350	-0.050749	-0.606588	164.137575	-74.073305	19.322283
23841		9.489860	1.002202	-2.859013	-0.229611	-0.263412	0.142897	-0.210460	0.035673	-0.139136	-0.730713	-0.022949	0.580078	0.094900	0.009926	-0.028618	-0.009690	-0.793229	-0.050615	-0.606739	163.754811	-74.067316	19.594026
23842		9.527144	1.240727	-2.595307	0.043075	-0.468278	0.128154	-0.227737	0.067792	-0.118336	-0.737549	-0.031250	0.576172	0.095270	0.012321	-0.025999	-0.010909	-0.793013	-0.050349	-0.607023	163.383845	-74.082018	19.843468
23843		9.606038	1.256173	-2.403175	0.239805	-0.453005	0.155584	-0.280934	0.074066	-0.092324	-0.731689	-0.033447	0.572754	0.096057	0.012484	-0.024085	-0.012258	-0.792781	-0.049818	-0.607344	163.028396	-74.103869	20.044921
23844		9.573177	1.252631	-2.309622	0.310927	-0.435372	0.100077	-0.302948	0.070676	-0.075197	-0.733643	-0.032959	0.571777	0.095728	0.012455	-0.023149	-0.013643	-0.792559	-0.049153	-0.607658	162.694363	-74.126586	20.211110
23845		9.529807	1.084682	-2.315751	0.274304	-0.260440	0.046997	-0.289926	0.057202	-0.067368	-0.736572	-0.037109	0.574707	0.095295	0.010781	-0.023200	-0.014957	-0.792380	-0.048494	-0.607913	162.390421	-74.142885	20.353525
23846		9.552798	0.889207	-2.311793	0.266269	-0.051660	0.052273	-0.255938	0.024514	-0.078832	-0.732178	-0.044189	0.579102	0.095529	0.008825	-0.023141	-0.016177	-0.792298	-0.047982	-0.608030	162.103604	-74.139289	20.498608
23847		9.519210	0.720451	-2.378944	0.180626	0.123426	0.023263	-0.173402	0.004365	-0.103581	-0.740234	-0.043213	0.575195	0.095195	0.007135	-0.023798	-0.017154	-0.792277	-0.047815	-0.608043	161.829401	-74.119958	20.679292
23848		9.414557	0.710919	-2.353661	0.177294	0.136404	-0.084946	-0.080736	-0.005735	-0.124833	-0.731201	-0.038818	0.580566	0.094151	0.007041	-0.023537	-0.017828	-0.792289	-0.048016	-0.607993	161.574652	-74.091255	20.895432
23849		9.427386	0.754266	-2.363252	0.175036	0.106416	-0.066534	-0.029376	-0.020053	-0.124720	-0.731445	-0.049316	0.565674	0.094281	0.007480	-0.023624	-0.018303	-0.792349	-0.048370	-0.607872	161.359643	-74.054394	21.100623
23850		9.477842	0.937750	-2.368644	0.195648	-0.060229	-0.000582	0.025571	-0.027823	-0.124654	-0.737549	-0.041992	0.568359	0.094788	0.009321	-0.023672	-0.018560	-0.792437	-0.048891	-0.607708	161.182090	-74.013294	21.299900
23851		9.460302	1.228377	-2.311990	0.265991	-0.339418	-0.006284	0.048265	-0.036089	-0.117850	-0.733154	-0.051270	0.562744	0.094614	0.012234	-0.023100	-0.018711	-0.792554	-0.049451	-0.607506	161.036629	-73.968729	21.478975
23852		9.457583	1.398722	-2.307409	0.284424	-0.499089	0.005481	0.008406	-0.049360	-0.118090	-0.734863	-0.041504	0.574951	0.094590	0.013932	-0.023050	-0.019022	-0.792706	-0.049892	-0.607261	160.877512	-73.916892	21.648925
23853		9.491243	1.382197	-2.282476	0.321874	-0.467899	0.030143	-0.050414	-0.058092	-0.107443	-0.731445	-0.047363	0.570068	0.094926	0.013765	-0.022801	-0.019538	-0.792883	-0.050110	-0.606996	160.711347	-73.862102	21.790828
23854		9.447531	1.221375	-2.337998	0.254104	-0.303039	-0.011799	-0.085155	-0.070177	-0.107224	-0.725098	-0.047363	0.576904	0.094490	0.012153	-0.023352	-0.020191	-0.793091	-0.050221	-0.606693	160.534760	-73.800805	21.923249
23855		9.381234	1.040250	-2.364809	0.207468	-0.119384	-0.085165	-0.069846	-0.066474	-0.105905	-0.732422	-0.057373	0.571533	0.093826	0.010345	-0.023621	-0.020781	-0.793291	-0.050373	-0.606399	160.368050	-73.741504	22.054229
23856		9.428482	0.884420	-2.326201	0.255357	0.051590	-0.064774	-0.030547	-0.074412	-0.094380	-0.735107	-0.046875	0.577637	0.094298	0.008796	-0.023228	-0.021181	-0.793521	-0.050599	-0.606066	160.251402	-73.680202	22.156881
23857		9.423468	0.872354	-2.412386	0.179375	0.069678	-0.048195	0.034022	-0.098509	-0.108170	-0.725098	-0.045410	0.575439	0.094251	0.008677	-0.024076	-0.021375	-0.793827	-0.051070	-0.605618	160.163019	-73.603067	22.268203
23858		9.332431	1.077524	-2.352780	0.235972	-0.134152	-0.131922	0.115852	-0.111208	-0.110882	-0.733643	-0.052246	0.578125	0.093343	0.010737	-0.023470	-0.021252	-0.794179	-0.051801	-0.605099	160.125930	-73.518641	22.375440
23859		9.429564	1.182136	-2.280864	0.350754	-0.217803	-0.048161	0.103930	-0.139503	-0.112118	-0.727783	-0.046143	0.581299	0.094318	0.011780	-0.022737	-0.021190	-0.794614	-0.052497	-0.604469	160.099114	-73.418593	22.464696
23860		9.602375	1.248436	-2.362725	0.337175	-0.258683	0.145527	0.087112	-0.145527	-0.116549	-0.723389	-0.044922	0.574707	0.096048	0.012439	-0.023552	-0.021207	-0.795063	-0.053160	-0.603820	160.059359	-73.314540	22.557638
23861		9.704079	1.310178	-2.502709	0.249142	-0.304145	0.286554	0.080499	-0.141098	-0.111844	-0.730225	-0.050049	0.578369	0.097066	0.013058	-0.024953	-0.021236	-0.795500	-0.053785	-0.603189	160.022247	-73.213670	22.643966
23862		9.547302	1.218844	-2.621495	0.102891	-0.225479	0.159641	0.040649	-0.135637	-0.110051	-0.725342	-0.045898	0.580811	0.095497	0.012141	-0.026148	-0.021416	-0.795914	-0.054283	-0.602590	159.962676	-73.116175	22.729896
23863		9.416141	0.996327	-2.810227	-0.113020	-0.016962	0.063581	0.006870	-0.132011	-0.076839	-0.722412	-0.060059	0.579102	0.094184	0.009928	-0.028040	-0.021630	-0.796323	-0.054547	-0.602018	159.940799	-73.027059	22.756188
23864		9.336953	0.874294	-2.968094	-0.279552	0.095635	0.019166	0.044731	-0.132372	-0.053864	-0.723633	-0.052979	0.584961	0.093391	0.008724	-0.029617	-0.021624	-0.796743	-0.054834	-0.601437	159.981398	-72.942340	22.739891
23865		9.455729	0.905291	-2.970660	-0.232970	0.082041	0.136894	0.069757	-0.145290	-0.062915	-0.724365	-0.056641	0.588623	0.094582	0.009034	-0.029635	-0.021553	-0.797201	-0.055227	-0.600796	160.028125	-72.848752	22.731517
23866		9.607490	0.960726	-2.912169	-0.117296	0.050921	0.271519	0.039655	-0.125498	-0.071483	-0.727295	-0.055176	0.583984	0.096097	0.009579	-0.029059	-0.021618	-0.797594	-0.055569	-0.600241	160.030310	-72.764281	22.752371
23867		9.677834	0.913268	-2.865664	-0.043154	0.114171	0.321002	-0.009516	-0.120632	-0.076522	-0.722900	-0.056885	0.589600	0.096799	0.009094	-0.028599	-0.021897	-0.797965	-0.055781	-0.599717	159.992470	-72.681317	22.785075
23868		9.552740	1.012518	-2.944181	-0.134070	0.006642	0.233715	-0.037085	-0.120415	-0.078307	-0.721924	-0.056641	0.590088	0.095549	0.010082	-0.029386	-0.022287	-0.798331	-0.055921	-0.599202	159.936252	-72.598234	22.821070
23869		9.333257	1.076906	-3.016153	-0.247338	-0.076397	0.051367	-0.068285	-0.125060	-0.073547	-0.724609	-0.056885	0.590820	0.093355	0.010724	-0.030107	-0.022792	-0.798710	-0.055945	-0.598677	159.873475	-72.513424	22.844642
23870		9.307627	0.877751	-2.905907	-0.149324	0.130555	-0.024566	-0.168219	-0.126633	-0.046087	-0.721680	-0.044434	0.584473	0.093097	0.008732	-0.029007	-0.023611	-0.799087	-0.055562	-0.598176	159.801813	-72.433337	22.818074
23871		9.473460	0.589817	-2.816818	-0.023949	0.447320	0.078122	-0.193834	-0.119347	-0.040230	-0.720459	-0.054932	0.592529	0.094753	0.005852	-0.028117	-0.024513	-0.799441	-0.055082	-0.597712	159.721146	-72.358276	22.785640
23872		9.492766	0.638373	-2.923419	-0.106311	0.407317	0.131622	-0.128104	-0.122975	-0.054087	-0.721924	-0.061035	0.590576	0.094947	0.006339	-0.029180	-0.025194	-0.799808	-0.054851	-0.597213	159.657117	-72.278585	22.775161
23873		9.371567	0.870434	-2.945603	-0.135529	0.171649	0.046960	-0.082365	-0.137442	-0.087577	-0.718018	-0.055664	0.593262	0.093740	0.008651	-0.029395	-0.025799	-0.800216	-0.054888	-0.596638	159.572389	-72.184333	22.813618
23874		9.597915	1.176943	-2.943533	-0.037716	-0.093729	0.294701	-0.057186	-0.156989	-0.122707	-0.718750	-0.056641	0.593262	0.096009	0.011702	-0.029363	-0.026411	-0.800673	-0.055140	-0.595973	159.456563	-72.072637	22.900244
23875		9.672491	1.197221	-2.955169	-0.011139	-0.090143	0.371377	-0.119899	-0.158644	-0.135867	-0.716064	-0.058350	0.586426	0.096756	0.011889	-0.029482	-0.027313	-0.801124	-0.055257	-0.595316	159.285649	-71.957231	23.007075
23876		9.528254	0.825577	-2.900161	-0.007284	0.278231	0.177439	-0.181392	-0.123352	-0.105437	-0.723633	-0.068115	0.594482	0.095305	0.008179	-0.028950	-0.028362	-0.801467	-0.055074	-0.594822	159.108971	-71.866918	23.082959
23877		9.415561	0.442485	-2.827593	0.019916	0.658331	0.006174	-0.117482	-0.108683	-0.070288	-0.711182	-0.060303	0.596680	0.094172	0.004375	-0.028227	-0.029048	-0.801785	-0.054940	-0.594373	159.017906	-71.791579	23.107024
23878		9.216953	0.607372	-2.848707	-0.036407	0.477874	-0.158333	0.032881	-0.130919	-0.081368	-0.719238	-0.062500	0.598145	0.092191	0.006041	-0.028426	-0.029168	-0.802187	-0.055296	-0.593791	159.009321	-71.702083	23.135254
23879		8.988152	1.178868	-2.845216	-0.052225	-0.110385	-0.312323	0.120632	-0.171438	-0.120828	-0.711670	-0.070068	0.603516	0.089913	0.011751	-0.028368	-0.029064	-0.802711	-0.056065	-0.593015	159.012850	-71.582715	23.203728
23880		9.210892	1.384467	-2.860045	0.029622	-0.276864	-0.073100	0.022935	-0.211545	-0.139162	-0.718994	-0.062012	0.600830	0.092149	0.013784	-0.028501	-0.029418	-0.803333	-0.056612	-0.592103	158.956175	-71.438217	23.276696
23881		9.568416	1.182325	-3.031154	-0.019085	-0.020490	0.293723	-0.092007	-0.218816	-0.134888	-0.718018	-0.066650	0.597168	0.095725	0.011745	-0.030212	-0.030225	-0.803959	-0.056799	-0.591193	158.846062	-71.290555	23.336291
23882		9.595097	0.939664	-3.087850	-0.059153	0.237882	0.307764	-0.067184	-0.178664	-0.131509	-0.706055	-0.064697	0.594238	0.095985	0.009323	-0.030796	-0.030909	-0.804470	-0.057053	-0.590438	158.732292	-71.165128	23.415148
23883		9.231847	0.967507	-3.026302	-0.089527	0.177898	-0.051444	-0.011395	-0.160653	-0.121615	-0.703125	-0.068848	0.595947	0.092349	0.009617	-0.030189	-0.031334	-0.804938	-0.057434	-0.589741	158.656074	-71.051368	23.488103
23884		8.977748	1.139505	-3.102824	-0.210591	-0.015483	-0.248100	0.038587	-0.197008	-0.134314	-0.700195	-0.068359	0.602051	0.089816	0.011341	-0.030938	-0.031606	-0.805517	-0.058008	-0.588879	158.611694	-70.915499	23.557780
23885		9.024126	1.295229	-3.081643	-0.145684	-0.151844	-0.191635	0.064175	-0.238191	-0.148011	-0.704834	-0.071777	0.608643	0.090287	0.012895	-0.030705	-0.031829	-0.806216	-0.058705	-0.587841	158.586541	-70.754687	23.622446
23886		9.339054	1.303407	-3.000095	0.051326	-0.104554	0.081945	0.012973	-0.229785	-0.135267	-0.710205	-0.067383	0.603271	0.093434	0.012973	-0.029893	-0.032216	-0.806883	-0.059203	-0.586853	158.547183	-70.601111	23.671379
23887		9.571704	1.065448	-2.951870	0.176223	0.175656	0.257281	-0.023458	-0.202186	-0.119632	-0.701416	-0.072266	0.607422	0.095753	0.010594	-0.029423	-0.032697	-0.807468	-0.059534	-0.585988	158.494902	-70.465486	23.711799
23888		9.416379	0.994878	-2.991688	0.106623	0.235744	0.114104	0.011834	-0.185794	-0.120344	-0.702881	-0.072266	0.614746	0.094197	0.009894	-0.029829	-0.033032	-0.808008	-0.059975	-0.585179	158.452658	-70.338468	23.763185
23889		9.033346	1.094428	-3.084995	-0.075034	0.094835	-0.205313	0.036798	-0.188088	-0.134959	-0.706787	-0.068359	0.619629	0.090370	0.010889	-0.030763	-0.033311	-0.808555	-0.060546	-0.584349	158.405018	-70.207024	23.835286
23890		8.845219	0.961621	-3.052076	-0.089334	0.213059	-0.409265	0.027250	-0.227416	-0.144688	-0.706543	-0.069092	0.616699	0.088494	0.009556	-0.030419	-0.033667	-0.809210	-0.061124	-0.583360	158.361311	-70.052671	23.897708
23891		8.926176	0.610809	-3.072680	-0.080635	0.583572	-0.371080	0.040257	-0.265182	-0.142676	-0.695313	-0.069336	0.613525	0.089307	0.006051	-0.030607	-0.033974	-0.809977	-0.061726	-0.582214	158.351016	-69.878587	23.932882
23892		9.064323	0.454192	-3.077541	-0.024433	0.769123	-0.260343	0.151305	-0.279982	-0.158107	-0.694580	-0.072266	0.615234	0.090690	0.004493	-0.030645	-0.033884	-0.810798	-0.062709	-0.580970	158.390303	-69.693397	23.982744
23893		9.011568	0.870544	-3.023962	0.065676	0.360171	-0.274531	0.331830	-0.302150	-0.197601	-0.685059	-0.074463	0.619141	0.090170	0.008666	-0.030089	-0.033181	-0.811698	-0.064374	-0.579570	158.489203	-69.488079	24.079553
23894		9.017814	1.513678	-2.914617	0.248905	-0.263012	-0.222279	0.378319	-0.335063	-0.227452	-0.689209	-0.073975	0.625977	0.090244	0.015089	-0.028966	-0.032388	-0.812686	-0.066288	-0.578012	158.590561	-69.259033	24.202204
23895		9.223723	1.807818	-2.826393	0.458031	-0.508903	-0.021628	0.246553	-0.347622	-0.216717	-0.684570	-0.072266	0.630371	0.092306	0.018013	-0.028081	-0.032106	-0.813689	-0.067773	-0.576443	158.639034	-69.025382	24.300442
23896		9.335776	1.661835	-2.909489	0.441975	-0.334920	0.090641	0.111148	-0.321573	-0.186064	-0.688232	-0.071533	0.631104	0.093420	0.016548	-0.028936	-0.032274	-0.814599	-0.068749	-0.575030	158.638979	-68.812248	24.368093
23897		9.195400	1.552849	-2.931235	0.398889	-0.233933	-0.048215	0.056983	-0.290099	-0.154761	-0.684570	-0.073242	0.631348	0.092008	0.015466	-0.029175	-0.032563	-0.815420	-0.069446	-0.573766	158.634815	-68.622271	24.406809
23898		8.958575	1.372152	-2.982913	0.287485	-0.078913	-0.276038	0.038994	-0.301285	-0.144929	-0.680420	-0.070068	0.632324	0.089640	0.013662	-0.029691	-0.032901	-0.816270	-0.070050	-0.572464	158.639735	-68.428547	24.424871
23899		8.972365	1.196992	-3.029231	0.266742	0.109573	-0.271770	0.012429	-0.349714	-0.163446	-0.677490	-0.066895	0.634766	0.089786	0.011898	-0.030135	-0.033416	-0.817245	-0.070645	-0.570967	158.630448	-68.205058	24.441908
23900		9.071443	1.031028	-3.135972	0.222885	0.302570	-0.166597	0.026799	-0.386618	-0.177861	-0.674072	-0.074707	0.637451	0.090784	0.010234	-0.031183	-0.033927	-0.818319	-0.071334	-0.569311	158.629425	-67.958927	24.458900
23901		9.272956	0.909421	-3.115090	0.340718	0.471796	-0.005562	0.054940	-0.404814	-0.182878	-0.674072	-0.076660	0.640381	0.092801	0.009018	-0.030961	-0.034341	-0.819444	-0.072121	-0.567565	158.647884	-67.701987	24.472630
23902		9.365122	1.067780	-3.067924	0.470244	0.348197	0.082528	0.108307	-0.410227	-0.190712	-0.673340	-0.080566	0.646240	0.093724	0.010605	-0.030481	-0.034563	-0.820586	-0.073089	-0.565775	158.688863	-67.440581	24.494767
23903		9.253490	1.275726	-2.977460	0.574908	0.144475	-0.026562	0.112677	-0.422866	-0.195351	-0.667725	-0.085449	0.648193	0.092610	0.012684	-0.029572	-0.034787	-0.821759	-0.074084	-0.563927	158.732425	-67.171410	24.516460
23904		9.060763	1.334481	-2.903725	0.623266	0.074896	-0.225423	0.070394	-0.436743	-0.193253	-0.666992	-0.076660	0.650635	0.090684	0.013267	-0.028835	-0.035181	-0.822959	-0.074950	-0.562035	158.761162	-66.895329	24.528386
23905		9.002772	1.184342	-2.968680	0.573552	0.229984	-0.279399	0.045011	-0.470205	-0.190025	-0.661377	-0.078125	0.661377	0.090108	0.011764	-0.029472	-0.035686	-0.824245	-0.075722	-0.560011	158.795097	-66.601972	24.518277
23906		9.022734	1.034703	-2.952721	0.629696	0.399308	-0.292040	0.078821	-0.500535	-0.190608	-0.655273	-0.073730	0.651611	0.090311	0.010273	-0.029297	-0.036061	-0.825616	-0.076589	-0.557846	158.861592	-66.292362	24.494334
23907		8.987938	1.127035	-3.014613	0.618573	0.318316	-0.291295	0.160288	-0.544158	-0.207310	-0.643555	-0.072754	0.657227	0.089973	0.011201	-0.029892	-0.036161	-0.827110	-0.077744	-0.555461	158.974053	-65.955900	24.471408
23908		8.998373	1.359393	-2.904642	0.800252	0.111466	-0.294154	0.212582	-0.576734	-0.223149	-0.647217	-0.079834	0.660889	0.090082	0.013524	-0.028772	-0.036103	-0.828690	-0.079102	-0.552913	159.109949	-65.598817	24.455279
23909		9.022062	1.623121	-2.864682	0.929819	-0.124390	-0.254542	0.199138	-0.617155	-0.236684	-0.645508	-0.073975	0.673096	0.090328	0.016153	-0.028352	-0.036152	-0.830364	-0.080471	-0.550194	159.238781	-65.217242	24.438650
23910		9.123884	1.905928	-2.923054	1.005203	-0.365909	-0.103035	0.147164	-0.651680	-0.235726	-0.637695	-0.081787	0.671631	0.091356	0.018973	-0.028919	-0.036429	-0.832113	-0.081686	-0.547346	159.351420	-64.817419	24.406729
23911		9.339859	2.002485	-3.028276	1.067204	-0.403571	0.142772	0.054312	-0.654649	-0.211732	-0.632080	-0.083740	0.675293	0.093518	0.019934	-0.029971	-0.037027	-0.833854	-0.082545	-0.544521	159.437698	-64.420746	24.345157
23912		9.465828	1.918449	-3.135367	1.076187	-0.277898	0.280729	-0.042250	-0.665604	-0.191516	-0.622803	-0.082520	0.679443	0.094780	0.019087	-0.031042	-0.037977	-0.835604	-0.083055	-0.541688	159.493240	-64.022298	24.255912
23913		9.360339	1.696489	-3.194969	1.022874	-0.055748	0.169901	-0.120404	-0.670679	-0.172121	-0.622803	-0.083740	0.683105	0.093724	0.016865	-0.031646	-0.039206	-0.837352	-0.083266	-0.538861	159.525134	-63.624802	24.142365
23914		9.123933	1.359064	-3.156778	0.992064	0.258201	-0.116955	-0.173882	-0.672961	-0.154672	-0.621582	-0.093262	0.686035	0.091355	0.013493	-0.031272	-0.040609	-0.839091	-0.083262	-0.536046	159.544019	-63.229739	24.009169
23915		8.978707	1.062013	-3.137676	0.983909	0.547314	-0.308895	-0.176586	-0.695191	-0.144268	-0.619385	-0.079834	0.697021	0.089903	0.010528	-0.031074	-0.042009	-0.840881	-0.083198	-0.533134	159.578141	-62.824875	23.855966
23916		8.951963	1.038561	-3.265694	0.921393	0.585978	-0.289651	-0.117616	-0.748296	-0.160892	-0.613037	-0.083008	0.693848	0.089649	0.010294	-0.032328	-0.043222	-0.842807	-0.083352	-0.529962	159.646653	-62.388030	23.702211
23917		8.996669	1.357206	-3.447545	0.879973	0.302467	-0.127583	-0.052835	-0.809425	-0.198634	-0.599609	-0.093750	0.695068	0.090119	0.013474	-0.034114	-0.044278	-0.844879	-0.083826	-0.526491	159.734365	-61.911185	23.569385
23918		9.158266	1.667626	-3.460035	1.047932	0.054582	0.062781	-0.084298	-0.863859	-0.210484	-0.592773	-0.087891	0.707275	0.091748	0.016565	-0.034211	-0.045529	-0.847066	-0.084250	-0.522788	159.807374	-61.402193	23.430856
23919		9.542286	1.670727	-3.419605	1.337278	0.154088	0.371983	-0.175138	-0.880335	-0.190468	-0.585449	-0.097412	0.709473	0.095588	0.016587	-0.033790	-0.047118	-0.849267	-0.084345	-0.519048	159.850527	-60.888265	23.266349
23920		9.776414	1.591596	-3.469758	1.475857	0.305248	0.573777	-0.235781	-0.876725	-0.146604	-0.579102	-0.097168	0.716553	0.097927	0.015804	-0.034287	-0.048849	-0.851445	-0.084097	-0.515348	159.895688	-60.384829	23.058821
23921		9.559668	1.597658	-3.261468	1.645825	0.283527	0.276278	-0.253084	-0.844603	-0.107955	-0.567383	-0.094727	0.723145	0.095742	0.015884	-0.032231	-0.050541	-0.853535	-0.083643	-0.511789	159.951797	-59.906021	22.825858
23922		9.079943	1.741581	-3.172026	1.594810	0.070726	-0.169489	-0.264169	-0.853331	-0.088033	-0.567139	-0.093750	0.722412	0.090941	0.017334	-0.031355	-0.052231	-0.855635	-0.083074	-0.508193	160.018102	-59.426467	22.572961
23923		8.877727	1.672818	-3.141184	1.599133	0.119510	-0.383620	-0.304658	-0.907138	-0.090307	-0.563965	-0.102295	0.723633	0.088926	0.016641	-0.031034	-0.054111	-0.857843	-0.082399	-0.504370	160.073261	-58.917172	22.306017
23924		8.860845	1.441583	-3.219133	1.585111	0.366308	-0.415446	-0.316880	-0.958824	-0.104628	-0.544189	-0.098633	0.726563	0.088769	0.014319	-0.031789	-0.056109	-0.860148	-0.081736	-0.500316	160.118297	-58.377302	22.039959
23925		8.809947	1.103432	-3.049593	1.766063	0.708550	-0.619701	-0.296085	-1.003069	-0.119510	-0.546875	-0.107666	0.740479	0.088258	0.010937	-0.030070	-0.058064	-0.862541	-0.081176	-0.496047	160.171539	-57.810938	21.777603
23926		8.873428	0.820276	-2.859936	2.028810	1.016854	-0.733097	-0.264559	-1.040223	-0.117471	-0.535400	-0.112305	0.743652	0.088886	0.008113	-0.028148	-0.059899	-0.865011	-0.080670	-0.491590	160.249020	-57.224418	21.505334
23927		9.081911	0.437693	-2.799731	2.251138	1.451720	-0.683879	-0.222302	-1.100377	-0.119602	-0.531006	-0.109131	0.738281	0.090974	0.004292	-0.027502	-0.061577	-0.867614	-0.080256	-0.486840	160.360381	-56.604848	21.219785
23928		9.305034	0.150970	-2.894306	2.366161	1.799511	-0.531231	-0.143825	-1.150785	-0.148755	-0.518311	-0.108887	0.755371	0.093216	0.001420	-0.028408	-0.063006	-0.870323	-0.080142	-0.481814	160.499548	-55.952079	20.952656
23929		9.368572	-0.146652	-2.302433	2.986121	2.103445	-0.882384	-0.054020	-1.186698	-0.175714	-0.504395	-0.112061	0.750244	0.093819	-0.001555	-0.022468	-0.064111	-0.873103	-0.080350	-0.476576	160.671885	-55.275160	20.706765
23930		9.351052	-0.610743	-1.718473	3.539832	2.550721	-1.343298	-0.021158	-1.238831	-0.187072	-0.490479	-0.119873	0.759277	0.093609	-0.006197	-0.016604	-0.065128	-0.875982	-0.080664	-0.471070	160.859025	-54.566671	20.462529
23931		9.483796	-1.205070	-1.470084	3.884519	3.165928	-1.539739	0.027079	-1.374089	-0.205554	-0.479004	-0.110840	0.762695	0.094924	-0.012146	-0.014051	-0.066029	-0.879149	-0.081122	-0.464926	161.086053	-53.781129	20.200673
23932		9.550820	-1.786713	-1.303207	4.133445	3.758375	-1.756859	0.144254	-1.506732	-0.242843	-0.470459	-0.120850	0.779785	0.095581	-0.017974	-0.012325	-0.066551	-0.882601	-0.081971	-0.458113	161.374727	-52.915909	19.943122
23933		9.731631	-2.046305	-1.394421	4.268331	4.072523	-1.686785	0.306872	-1.644709	-0.314541	-0.458740	-0.108643	0.774902	0.097394	-0.020596	-0.013175	-0.066571	-0.886334	-0.083454	-0.450573	161.725776	-51.962263	19.721282
23934		10.050108	-2.257779	-1.080908	4.824463	4.358570	-1.750707	0.485714	-1.785410	-0.436972	-0.449219	-0.120361	0.784668	0.100543	-0.022773	-0.009967	-0.066129	-0.890320	-0.085833	-0.442255	162.112778	-50.908953	19.581483
23935		10.726629	-2.223539	-1.012306	5.429863	4.506215	-1.372507	0.631610	-1.937779	-0.616177	-0.421631	-0.113770	0.794678	0.107289	-0.022536	-0.009154	-0.065490	-0.894521	-0.089268	-0.433098	162.484946	-49.741707	19.567189
23936		10.794129	-1.665261	-1.651738	5.189699	4.061155	-0.947917	0.764936	-2.131295	-0.812123	-0.406006	-0.108887	0.802734	0.108041	-0.017031	-0.015431	-0.064759	-0.898984	-0.093798	-0.422889	162.838816	-48.434130	19.678086
23937		11.039914	-1.166562	-2.412830	5.001860	3.736042	-0.321641	0.694531	-2.272898	-0.959405	-0.376709	-0.102539	0.813721	0.110607	-0.012115	-0.022914	-0.064711	-0.903514	-0.098773	-0.411970	163.086367	-47.025582	19.880088
23938		11.269257	-1.283236	-3.197556	4.749055	4.023395	0.193296	0.569076	-2.278512	-1.027888	-0.360596	-0.104248	0.820313	0.112980	-0.013324	-0.030727	-0.065365	-0.907833	-0.103789	-0.400991	163.225690	-45.602123	20.137471
23939		11.379643	-1.601992	-3.873436	4.489610	4.481538	0.522658	0.654488	-2.218418	-1.047014	-0.335938	-0.094971	0.827393	0.114132	-0.016493	-0.037523	-0.065624	-0.911900	-0.109058	-0.390177	163.399074	-44.210140	20.422009
23940		10.858911	-1.327698	-5.075043	3.528129	4.221419	0.918608	0.905115	-2.293161	-1.117022	-0.314941	-0.090332	0.831055	0.109086	-0.013659	-0.049563	-0.064909	-0.916002	-0.115099	-0.378788	163.695018	-42.765415	20.744654
23941		10.553803	-0.406201	-6.365040	2.797934	3.384974	1.709810	1.088040	-2.353152	-1.275204	-0.292725	-0.087646	0.850830	0.106250	-0.004396	-0.062426	-0.063673	-0.920002	-0.122165	-0.366902	164.030408	-41.265137	21.174431
23942		10.328103	0.625377	-7.350664	2.410113	2.450844	2.404941	1.217476	-2.213743	-1.380146	-0.262207	-0.075195	0.848389	0.104128	0.005980	-0.072320	-0.061940	-0.923536	-0.129974	-0.355459	164.378264	-39.825935	21.711470
23943		9.918229	1.275045	-7.802953	2.210088	1.803948	2.546026	1.323744	-2.023482	-1.330433	-0.244629	-0.068115	0.856201	0.100049	0.012598	-0.076936	-0.059488	-0.926610	-0.137771	-0.344781	164.795114	-38.503596	22.251668
23944		9.490889	1.936652	-8.041051	2.145034	1.113208	2.542069	1.260511	-1.835869	-1.142659	-0.229736	-0.064453	0.847656	0.095751	0.019324	-0.079412	-0.056870	-0.929314	-0.144625	-0.335001	165.241818	-37.314665	22.699111
23945		8.810897	2.000330	-8.239889	1.768686	0.892705	2.253780	1.017878	-1.632146	-0.880646	-0.219971	-0.052979	0.863525	0.088865	0.020030	-0.081574	-0.054781	-0.931669	-0.149888	-0.326383	165.640952	-36.280606	23.005539
23946		7.842447	1.664820	-9.023610	0.681914	0.940092	2.201863	0.830964	-1.416813	-0.668181	-0.198730	-0.054443	0.863281	0.079117	0.016758	-0.089608	-0.053055	-0.933694	-0.153907	-0.318925	165.997381	-35.396111	23.208903
23947		6.661933	1.714432	-10.194062	-0.719804	0.516818	2.453177	0.953775	-1.294560	-0.464443	-0.184814	-0.047363	0.867920	0.067317	0.017473	-0.101424	-0.050327	-0.935642	-0.157185	-0.311985	166.491354	-34.610216	23.299436
23948		5.502938	2.336476	-10.652036	-1.522594	-0.492736	2.296939	1.234523	-1.137440	-0.290511	-0.171631	-0.029297	0.867920	0.055668	0.023940	-0.106058	-0.045892	-0.937487	-0.160122	-0.305569	167.193743	-33.933933	23.307135
23949		4.605125	2.930501	-10.744930	-1.920464	-1.431744	1.998626	1.452195	-0.953090	-0.286471	-0.154541	-0.018799	0.870850	0.046605	0.030017	-0.107012	-0.040276	-0.939032	-0.163394	-0.299831	168.001812	-33.362961	23.349033
23950		4.631263	3.164683	-9.385655	-0.883110	-1.711014	0.950396	1.717998	-0.770785	-0.510403	-0.151367	-0.006348	0.866699	0.046755	0.032332	-0.093401	-0.033599	-0.940095	-0.168148	-0.294651	168.861177	-32.867661	23.576676
23951		5.131471	3.611909	-8.197887	0.453841	-1.996963	0.305989	1.648991	-0.541865	-0.908476	-0.137207	0.002930	0.874756	0.051701	0.036558	-0.081539	-0.027633	-0.940382	-0.174688	-0.290521	169.519899	-32.462451	24.105722
23952		5.033528	3.000846	-7.821132	0.502194	-1.479002	-0.165334	1.255766	-0.161779	-1.024219	-0.138428	0.019287	0.866211	0.050553	0.030240	-0.077981	-0.023354	-0.939888	-0.181245	-0.288471	169.887949	-32.262197	24.761167
23953		4.716388	2.232819	-7.771585	0.083955	-0.902837	-0.495767	1.097778	0.225063	-0.942749	-0.137939	0.031738	0.874512	0.047182	0.022532	-0.077646	-0.019344	-0.938833	-0.187221	-0.288385	170.170975	-32.292933	25.407876
23954		4.752463	1.776596	-7.649326	0.035426	-0.501633	-0.647467	1.100795	0.461166	-0.757269	-0.147949	0.043213	0.870117	0.047416	0.018007	-0.076504	-0.014834	-0.937567	-0.192349	-0.289397	170.506184	-32.476354	25.958451
23955		4.926987	1.446845	-7.793964	-0.037844	-0.206288	-0.481557	1.068422	0.642310	-0.511205	-0.149658	0.046631	0.865967	0.049057	0.014760	-0.078019	-0.009942	-0.936225	-0.196276	-0.291305	170.899333	-32.789382	26.363453
23956		4.791782	1.430899	-8.148195	-0.369718	-0.361935	-0.266324	1.084563	0.912405	-0.232157	-0.158447	0.057129	0.862549	0.047563	0.014696	-0.081620	-0.004305	-0.934723	-0.198929	-0.294451	171.386920	-33.281093	26.607807
23957		4.338542	1.520306	-8.492536	-0.915227	-0.768783	-0.230048	1.154320	1.217165	0.008075	-0.167969	0.061768	0.859375	0.042867	0.015696	-0.085098	0.002317	-0.932954	-0.200553	-0.298950	171.988552	-33.968848	26.714530
23958		3.886199	1.667439	-8.497621	-1.264750	-1.215248	-0.484578	1.178190	1.477230	0.159739	-0.177734	0.073730	0.874023	0.038220	0.017206	-0.085160	0.009535	-0.930876	-0.201489	-0.304601	172.652444	-34.815386	26.733223
23959		3.648964	1.642112	-8.362015	-1.456108	-1.410921	-0.767187	1.106820	1.715751	0.150070	-0.192627	0.080811	0.860840	0.035758	0.016912	-0.083836	0.016646	-0.928336	-0.202322	-0.311417	173.266125	-35.798363	26.766693
23960		3.665404	1.504452	-8.549026	-1.708497	-1.460220	-0.662282	1.057962	1.944319	0.046929	-0.210205	0.094238	0.857422	0.035818	0.015506	-0.085760	0.023599	-0.925238	-0.203525	-0.319305	173.804111	-36.903681	26.880714
23961		3.966335	1.579554	-8.624797	-1.633265	-1.589790	-0.463081	1.041519	2.130108	-0.055050	-0.228027	0.105957	0.851563	0.038747	0.016235	-0.086580	0.030498	-0.921618	-0.205115	-0.328050	174.284327	-38.110887	27.070200
23962		4.347575	1.893624	-8.214356	-1.139736	-1.816385	-0.573605	0.960402	2.317461	-0.129029	-0.252686	0.104004	0.858398	0.042533	0.019304	-0.082548	0.037090	-0.917493	-0.206865	-0.337694	174.677823	-39.420680	27.319625
23963		4.625293	2.098595	-7.775529	-0.760418	-1.958886	-0.766328	0.779502	2.515974	-0.116700	-0.268799	0.111816	0.838623	0.045283	0.021264	-0.078247	0.043072	-0.912927	-0.208172	-0.348388	174.963748	-40.846759	27.567034
23964		4.971524	2.376070	-7.683391	-0.536724	-2.209002	-0.635340	0.588162	2.654242	-0.004260	-0.288330	0.119141	0.838135	0.048691	0.023987	-0.077414	0.048512	-0.908116	-0.208575	-0.359816	175.188073	-42.356888	27.735817
23965		5.187664	2.682089	-7.497530	-0.351363	-2.506448	-0.652599	0.360811	2.809092	0.130883	-0.307373	0.120605	0.833252	0.050800	0.026990	-0.075645	0.053314	-0.903048	-0.207867	-0.372092	175.346011	-43.963421	27.805012
23966		5.053852	2.781295	-7.036223	-0.316005	-2.656715	-1.116623	0.032140	3.012365	0.252359	-0.332520	0.119141	0.819824	0.049436	0.027887	-0.071108	0.057059	-0.897624	-0.205912	-0.385506	175.374986	-45.690569	27.789165
23967		4.794396	2.421897	-6.850538	-0.740077	-2.481348	-1.501816	-0.398620	3.133341	0.367553	-0.358887	0.109375	0.808838	0.046818	0.024168	-0.069293	0.059199	-0.891993	-0.202512	-0.399791	175.219166	-47.493338	27.686689
23968		4.898888	2.052978	-6.915806	-1.131068	-2.226192	-1.458047	-0.798398	3.177075	0.462903	-0.385742	0.115234	0.801514	0.047834	0.020363	-0.070006	0.059781	-0.886256	-0.197835	-0.414533	174.889586	-49.324939	27.514869
23969		5.347026	1.916884	-7.190100	-1.405711	-2.120696	-1.010360	-1.183301	3.227403	0.534920	-0.406250	0.098877	0.784180	0.052249	0.018880	-0.072863	0.058833	-0.880346	-0.191956	-0.429747	174.377815	-51.190944	27.296028
23970		5.884165	1.657620	-7.554532	-1.794359	-1.892231	-0.451524	-1.557162	3.340937	0.657026	-0.439453	0.090576	0.773438	0.057514	0.016173	-0.076640	0.056596	-0.874133	-0.184654	-0.445635	173.720269	-53.129165	26.998067
23971		6.445095	0.874642	-7.481634	-2.077477	-1.056291	-0.177537	-1.758436	3.486694	0.828612	-0.473145	0.085449	0.764893	0.063098	0.008345	-0.075999	0.053970	-0.867484	-0.176030	-0.462139	173.055521	-55.164622	26.572480
23972		7.060075	-0.284699	-7.442847	-2.494229	0.128799	0.140850	-1.813042	3.538054	0.978107	-0.491943	0.064697	0.738770	0.069285	-0.003188	-0.075634	0.051482	-0.860509	-0.166560	-0.478676	172.475605	-57.241666	26.019500
23973		7.635617	-1.297709	-7.548109	-2.977862	1.116205	0.523497	-1.592481	3.501349	1.117196	-0.513672	0.064453	0.729004	0.075094	-0.013163	-0.076699	0.050217	-0.853328	-0.156948	-0.494648	172.166020	-59.311781	25.308402
23974		7.863542	-1.455120	-7.329925	-3.065139	1.263847	0.515812	-1.096673	3.465121	1.176104	-0.546875	0.054932	0.712402	0.077436	-0.014500	-0.074568	0.051172	-0.845834	-0.148272	-0.509865	172.248986	-61.365746	24.489175
23975		7.741914	-0.670573	-6.818417	-2.759059	0.482871	0.138291	-0.742165	3.447316	1.155696	-0.567139	0.059326	0.697021	0.076267	-0.006519	-0.069481	0.053535	-0.837978	-0.140524	-0.524576	172.593065	-63.407384	23.618457
23976		7.575553	0.302094	-6.316722	-2.415128	-0.498034	-0.258083	-0.681836	3.429817	1.124659	-0.593018	0.048828	0.673584	0.074640	0.003224	-0.064464	0.056047	-0.829847	-0.133036	-0.538994	173.038510	-65.433196	22.690913
23977		7.881570	0.876641	-6.067927	-2.224138	-1.079049	-0.138703	-0.765098	3.393167	1.103895	-0.619629	0.054688	0.656494	0.077722	0.008962	-0.062038	0.058104	-0.821546	-0.125359	-0.553147	173.534183	-67.434169	21.669062
23978		8.542517	1.131549	-5.761274	-1.963976	-1.296586	0.281759	-0.885411	3.368357	1.107430	-0.641846	0.053955	0.628662	0.084375	0.011525	-0.059090	0.059652	-0.813078	-0.117316	-0.567083	174.113953	-69.416582	20.499553
23979		9.075350	1.199329	-5.594106	-1.953352	-1.400764	0.642194	-0.975783	3.382029	1.175580	-0.658447	0.056641	0.614014	0.089718	0.012245	-0.057523	0.061002	-0.804362	-0.108681	-0.580921	174.937894	-71.405841	19.028886
23980		9.272757	1.204969	-5.353186	-2.013570	-1.481040	0.667394	-1.036399	3.401213	1.270077	-0.686035	0.051025	0.582031	0.091721	0.012351	-0.055161	0.062383	-0.795380	-0.099462	-0.594631	176.176408	-73.400499	17.106206
23981		9.192769	1.253329	-5.114680	-2.144785	-1.633683	0.432135	-1.143024	3.410488	1.357910	-0.705322	0.052979	0.571289	0.090950	0.012855	-0.052776	0.063571	-0.786158	-0.089522	-0.608194	177.969095	-75.387777	14.562332
23982		9.135027	1.045843	-4.906629	-2.345696	-1.536732	0.224334	-1.313895	3.399727	1.431696	-0.726807	0.055664	0.538330	0.090421	0.010779	-0.050679	0.064295	-0.776762	-0.078759	-0.621534	-179.481953	-77.341872	11.164649
23983		9.383049	0.477939	-4.693330	-2.536360	-1.066864	0.322132	-1.459273	3.389027	1.477747	-0.750488	0.059570	0.517822	0.092980	0.005118	-0.048550	0.064554	-0.767161	-0.067321	-0.634638	-175.821747	-79.243717	6.570316
23984		9.853587	-0.174450	-4.419603	-2.634968	-0.505955	0.648959	-1.490812	3.365816	1.530718	-0.766113	0.059082	0.492920	0.097785	-0.001332	-0.045835	0.064840	-0.757359	-0.055577	-0.647390	-170.285384	-81.048706	0.084377
23985		10.234440	-0.818828	-4.167947	-2.763271	0.022074	0.917582	-1.383278	3.318093	1.578984	-0.784424	0.063965	0.467041	0.101697	-0.007679	-0.043316	0.065637	-0.747393	-0.043976	-0.659668	-161.675667	-82.673289	-9.415368
23986		10.310253	-1.080381	-3.856222	-2.801777	0.168839	0.885440	-1.144365	3.213045	1.568879	-0.799805	0.056885	0.443359	0.102548	-0.010225	-0.040153	0.067260	-0.737419	-0.033236	-0.671256	-148.704329	-83.968824	-23.134427
23987		10.351271	-0.913250	-3.315338	-2.543490	-0.081781	0.793362	-0.932451	3.087726	1.492067	-0.813721	0.076172	0.424805	0.103050	-0.008522	-0.034706	0.069346	-0.727533	-0.023502	-0.682154	-130.940324	-84.771458	-41.523069
23988		10.456645	-0.848780	-2.680375	-2.191325	-0.227689	0.788408	-0.857386	2.958156	1.417305	-0.821533	0.082031	0.396973	0.104212	-0.007868	-0.028312	0.071431	-0.717837	-0.014353	-0.692388	-110.549728	-84.934538	-62.488223
23989		10.517847	-0.990459	-2.370044	-2.176770	-0.208332	0.790764	-0.775746	2.801522	1.323067	-0.840820	0.086670	0.375732	0.104896	-0.009306	-0.025134	0.073434	-0.708452	-0.005860	-0.701904	-92.316484	-84.496800	-81.247611
23990		10.399488	-1.163390	-2.499990	-2.588068	-0.182314	0.628305	-0.646179	2.625332	1.219723	-0.850586	0.092529	0.359863	0.103724	-0.011084	-0.026326	0.075529	-0.699467	0.001732	-0.710660	-78.761139	-83.671056	-95.247301
23991		10.317307	-1.084212	-2.053586	-2.378956	-0.336089	0.485896	-0.421252	2.478651	1.125901	-0.853027	0.099121	0.337402	0.102967	-0.010307	-0.021791	0.078042	-0.690775	0.008159	-0.718799	-69.152622	-82.650340	-105.170871
23992		10.130656	-1.056450	-1.003919	-1.556294	-0.363723	0.296430	-0.286722	2.365146	1.020076	-0.865967	0.105713	0.328125	0.101231	-0.010064	-0.011222	0.080651	-0.682321	0.013673	-0.726461	-62.200520	-81.553919	-112.355526
23993		9.833045	-1.189327	-0.504072	-1.266187	-0.262740	0.019950	-0.236555	2.144922	0.957560	-0.868164	0.116699	0.304688	0.098324	-0.011429	-0.006082	0.083184	-0.674545	0.018720	-0.733293	-57.414783	-80.457994	-117.341863
23994		9.391839	-1.117549	-0.087856	-0.995461	-0.338439	-0.412978	-0.074501	1.915116	0.891981	-0.881348	0.122803	0.286133	0.093953	-0.010757	-0.001774	0.086056	-0.667468	0.022834	-0.739297	-54.016070	-79.414953	-120.837485
23995		8.986755	-0.872091	0.222643	-0.781279	-0.583851	-0.833919	0.014199	1.666875	0.813346	-0.884521	0.128662	0.273193	0.089916	-0.008355	0.001477	0.088931	-0.661211	0.026267	-0.744447	-51.597568	-78.464508	-123.297382
23996		8.736500	-0.780601	0.475870	-0.623401	-0.692794	-1.078158	0.004774	1.415420	0.727232	-0.891846	0.125244	0.257813	0.087423	-0.007488	0.004140	0.091504	-0.655858	0.029319	-0.748744	-49.912492	-77.627180	-125.017593
23997		8.604251	-0.980636	0.858129	-0.355029	-0.512717	-1.132759	0.027612	1.159751	0.605476	-0.889160	0.137451	0.255371	0.086119	-0.009547	0.008081	0.093729	-0.651434	0.031769	-0.752223	-48.703807	-76.929343	-126.241178
23998		8.579053	-1.244431	1.025190	-0.295757	-0.291610	-1.093360	0.091194	0.851877	0.461783	-0.896240	0.135986	0.240234	0.085862	-0.012251	0.009881	0.095666	-0.648140	0.033364	-0.754751	-47.891853	-76.405947	-127.022547
23999		8.391247	-1.087026	0.608641	-0.719960	-0.480003	-1.373723	0.271361	0.512032	0.324074	-0.898438	0.154541	0.246582	0.083945	-0.010742	0.005857	0.097722	-0.646054	0.033672	-0.756261	-47.396334	-76.069811	-127.373361
24000		8.128990	-0.647859	0.397618	-0.873685	-0.897839	-1.744923	0.422229	0.212796	0.163093	-0.901855	0.143555	0.244629	0.081299	-0.006421	0.003876	0.099707	-0.645047	0.032741	-0.756902	-47.083518	-75.917441	-127.447064
24001		8.012414	-0.408434	0.092791	-1.139381	-1.140554	-1.952970	0.389546	-0.002925	-0.005633	-0.902832	0.145752	0.248291	0.080124	-0.004088	0.000921	0.100954	-0.644897	0.031302	-0.756926	-46.888701	-75.920220	-127.422296
24002		8.233994	-0.467870	-0.558058	-1.813041	-1.175767	-1.834001	0.301906	-0.155646	-0.105383	-0.897705	0.146484	0.244141	0.082342	-0.004714	-0.005524	0.101592	-0.645383	0.029776	-0.756487	-46.844576	-76.024323	-127.290116
24003		8.754013	-0.617126	-0.789480	-2.123232	-1.140177	-1.337505	0.292196	-0.141026	-0.167790	-0.900879	0.143311	0.249512	0.087540	-0.006233	-0.007842	0.101961	-0.645826	0.028093	-0.756124	-46.683072	-76.148663	-127.284733
24004		9.424178	-0.853779	-0.779725	-2.233395	-1.023643	-0.641203	0.294341	-0.041155	-0.158449	-0.896973	0.147461	0.244385	0.094237	-0.008601	-0.007790	0.102358	-0.645887	0.026483	-0.756076	-46.364093	-76.229883	-127.440176
24005		9.725814	-1.121659	-0.536072	-2.075110	-0.787051	-0.262222	0.292346	0.083981	-0.105774	-0.894287	0.144043	0.244385	0.097250	-0.011260	-0.005418	0.102931	-0.645468	0.025115	-0.756403	-45.918240	-76.239353	-127.727462
24006		9.572592	-1.117875	0.013309	-1.528928	-0.703045	-0.323093	0.356313	0.178350	-0.101402	-0.885986	0.146729	0.246094	0.095720	-0.011227	0.000028	0.103714	-0.644656	0.023566	-0.757038	-45.284814	-76.208620	-128.170083
24007		9.422041	-0.931129	0.513286	-1.014208	-0.800335	-0.419280	0.364671	0.199291	-0.111671	-0.897949	0.142578	0.241943	0.094220	-0.009373	0.005022	0.104452	-0.643760	0.021984	-0.757747	-44.596674	-76.172776	-128.668276
24008		9.438750	-0.532359	0.916546	-0.590539	-1.143766	-0.402242	0.309517	0.186580	-0.092752	-0.902100	0.153320	0.246094	0.094394	-0.005381	0.009069	0.105116	-0.642935	0.020645	-0.758392	-43.996339	-76.132814	-129.104565
24009		9.363098	-0.117964	1.164702	-0.299892	-1.503769	-0.502115	0.220928	0.194817	-0.026612	-0.904053	0.142578	0.239746	0.093642	-0.001205	0.011554	0.105713	-0.642118	0.019879	-0.759022	-43.546273	-76.062761	-129.442579
24010		9.060110	0.089205	1.353811	-0.058436	-1.633253	-0.798510	0.056697	0.216379	0.065343	-0.898193	0.144775	0.237061	0.090615	0.000918	0.013440	0.106161	-0.641295	0.020022	-0.759651	-43.314762	-75.946554	-129.648329
24011		8.631777	-0.007812	1.471137	0.093230	-1.458141	-1.179208	-0.107500	0.202660	0.129732	-0.894531	0.140137	0.235840	0.086333	-0.000014	0.014624	0.106328	-0.640605	0.020989	-0.760184	-43.308655	-75.810738	-129.718803
24012		8.348298	-0.319429	1.563761	0.174456	-1.107248	-1.387428	-0.204866	0.145664	0.142924	-0.898926	0.144287	0.236572	0.083497	-0.003119	0.015580	0.106239	-0.640179	0.022337	-0.760516	-43.467851	-75.693404	-129.676295
24013		8.311250	-0.546825	1.504113	0.086110	-0.900216	-1.397200	-0.254587	0.076297	0.114063	-0.896240	0.157227	0.230957	0.083121	-0.005402	0.015016	0.105888	-0.640047	0.023745	-0.760634	-43.714198	-75.616332	-129.573222
24014		8.569059	-0.807361	1.469594	-0.022879	-0.711261	-1.110166	-0.294108	0.030958	0.064510	-0.896729	0.148682	0.234619	0.085695	-0.008024	0.014695	0.105228	-0.640111	0.025121	-0.760627	-43.971526	-75.577440	-129.482158
24015		8.993426	-1.119758	1.482714	-0.113693	-0.494698	-0.643371	-0.327127	-0.000824	0.008171	-0.904541	0.150146	0.234863	0.089935	-0.011170	0.014846	0.104221	-0.640320	0.026443	-0.760545	-44.204729	-75.574575	-129.439474
24016		9.288204	-1.291448	1.390226	-0.266261	-0.395814	-0.344650	-0.308391	-0.019295	-0.037803	-0.896973	0.156982	0.244873	0.092878	-0.012911	0.013931	0.103132	-0.640593	0.027519	-0.760425	-44.383956	-75.597053	-129.437495
24017		9.394072	-1.369107	1.354845	-0.319168	-0.343023	-0.234634	-0.282869	-0.045533	-0.057653	-0.897949	0.150879	0.236572	0.093934	-0.013699	0.013589	0.102022	-0.640954	0.028439	-0.760237	-44.556832	-75.638834	-129.431003
24018		9.404270	-1.501625	1.493806	-0.189738	-0.200131	-0.176787	-0.270760	-0.077666	-0.088433	-0.901367	0.145020	0.233887	0.094030	-0.015038	0.014995	0.100869	-0.641434	0.029180	-0.759958	-44.726242	-75.705488	-129.416906
24019		9.183078	-1.690974	1.459202	-0.196856	0.030780	-0.363991	-0.209007	-0.131488	-0.110599	-0.899902	0.145264	0.239990	0.091812	-0.016945	0.014670	0.099805	-0.642090	0.029607	-0.759528	-44.909781	-75.803599	-129.355827
24020		8.912506	-1.815009	1.560245	-0.051096	0.222400	-0.587220	-0.110148	-0.212607	-0.147121	-0.896729	0.150391	0.237305	0.089095	-0.018207	0.015707	0.098964	-0.643008	0.029481	-0.758866	-45.111914	-75.948670	-129.213107
24021		8.775792	-1.984235	1.665662	0.078906	0.439429	-0.673392	-0.033981	-0.310763	-0.210601	-0.903809	0.150635	0.246094	0.087711	-0.019932	0.016796	0.098110	-0.644269	0.028832	-0.757932	-45.330542	-76.159672	-129.012474
24022		8.892566	-2.111558	1.592629	0.007585	0.562081	-0.552197	0.073900	-0.437971	-0.287336	-0.898438	0.147217	0.239014	0.088860	-0.021249	0.016113	0.097362	-0.645966	0.027447	-0.756634	-45.582794	-76.452301	-128.709898
24023		9.009426	-1.866818	1.561242	0.028424	0.334736	-0.486431	0.227166	-0.577910	-0.365668	-0.900879	0.138428	0.247803	0.090014	-0.018851	0.015851	0.096802	-0.648123	0.025177	-0.754939	-45.869219	-76.833294	-128.286046
24024		9.128666	-1.465905	1.579914	0.127389	-0.031812	-0.433998	0.267639	-0.703459	-0.431227	-0.890381	0.139404	0.259277	0.091198	-0.014877	0.016100	0.096169	-0.650731	0.022464	-0.752859	-46.269778	-77.290052	-127.718349
24025		9.158218	-1.241225	1.346287	-0.016825	-0.225909	-0.475979	0.237192	-0.830501	-0.477797	-0.893555	0.135254	0.263672	0.091495	-0.012647	0.013828	0.095243	-0.653824	0.019671	-0.750370	-46.883586	-77.815713	-126.955177
24026		9.070263	-0.896038	0.875410	-0.354390	-0.539003	-0.679123	0.249655	-0.948570	-0.501266	-0.889648	0.131592	0.271240	0.090637	-0.009199	0.009173	0.094309	-0.657338	0.016679	-0.747485	-47.752696	-78.394319	-125.921458
24027		9.113358	-0.511823	0.735147	-0.368918	-0.880217	-0.705333	0.203730	-1.017784	-0.513208	-0.889648	0.124268	0.275879	0.091081	-0.005360	0.007810	0.093152	-0.661113	0.013804	-0.744353	-48.876803	-79.001271	-124.660591
24028		9.239106	-0.452046	0.330011	-0.685553	-0.942499	-0.630365	0.060137	-1.063030	-0.526090	-0.881836	0.124023	0.287109	0.092359	-0.004765	0.003790	0.091503	-0.665101	0.011382	-0.741039	-50.308568	-79.624334	-123.169141
24029		9.368565	-0.515610	-0.073451	-1.011182	-0.883886	-0.526327	-0.040159	-1.066705	-0.515044	-0.874023	0.120361	0.304443	0.093674	-0.005397	-0.000234	0.089528	-0.669125	0.009385	-0.737678	-52.015312	-80.236702	-121.463610
24030		9.420958	-0.594794	-0.126451	-0.985103	-0.761927	-0.454681	-0.115541	-1.016552	-0.511365	-0.865967	0.107666	0.307129	0.094199	-0.006189	-0.000782	0.087340	-0.672974	0.007682	-0.734452	-53.858121	-80.819808	-119.663101
24031		9.386772	-0.816250	-0.241977	-1.032883	-0.494113	-0.457242	-0.191920	-0.991305	-0.511450	-0.872559	0.112061	0.317383	0.093857	-0.008405	-0.001947	0.084859	-0.676743	0.006288	-0.731286	-55.909687	-81.385008	-117.702504
24032		9.152719	-0.833946	-0.282719	-0.972391	-0.393143	-0.677771	-0.168074	-0.960062	-0.524746	-0.866455	0.118164	0.322510	0.091517	-0.008582	-0.002381	0.082438	-0.680365	0.004757	-0.728207	-58.090849	-81.934476	-115.596011
24033		8.835616	-0.569185	-0.136445	-0.696611	-0.542393	-1.001873	-0.127175	-0.941291	-0.546252	-0.864014	0.106689	0.330322	0.088345	-0.005934	-0.000945	0.080048	-0.683884	0.003027	-0.725180	-60.439388	-82.477279	-113.303117
24034		8.654316	-0.350064	-0.215619	-0.663911	-0.690299	-1.201752	-0.205977	-0.924825	-0.536845	-0.867676	0.104004	0.340820	0.086542	-0.003735	-0.001752	0.077447	-0.687352	0.001606	-0.722182	-63.141765	-82.995919	-110.698507
24035		8.528087	-0.186011	-0.538338	-0.887566	-0.819703	-1.351460	-0.264911	-0.878061	-0.494118	-0.858643	0.095459	0.340820	0.085298	-0.002078	-0.005006	0.074769	-0.690656	0.000578	-0.719308	-66.167427	-83.464647	-107.808463
24036		8.381719	-0.143750	-0.613697	-0.885481	-0.806091	-1.493065	-0.317714	-0.801588	-0.451782	-0.855225	0.087402	0.347168	0.083837	-0.001636	-0.005798	0.072084	-0.693684	-0.000100	-0.716663	-69.366080	-83.874366	-104.773992
24037		9.217309	-0.517131	1.840255	1.549581	-0.236655	-0.530703	-0.455592	-0.532605	-0.423088	-0.851318	0.087891	0.352051	0.092112	-0.005324	0.018660	0.068996	-0.695787	-0.000072	-0.714926	-71.678162	-84.201382	-102.715930
24038		11.760043	-2.394877	3.072428	2.583208	1.518811	2.207873	-0.955799	-0.234760	-0.374856	-0.850586	0.083008	0.345215	0.117519	-0.024021	0.030977	0.064366	-0.696980	0.001998	-0.714193	-72.929453	-84.442504	-102.009427
24039		13.145415	-3.977703	1.527564	0.928532	2.848104	3.677432	-0.654570	-0.224435	-0.271735	-0.848633	0.073975	0.357910	0.131383	-0.039905	0.015554	0.061129	-0.698026	0.003370	-0.713451	-74.207035	-84.624399	-101.106373
24040		11.919947	-1.602051	1.220746	0.885726	0.615663	2.227998	0.120234	-0.325104	-0.345867	-0.848633	0.080078	0.353516	0.119151	-0.016234	0.012391	0.060356	-0.699186	0.001674	-0.712386	-75.606629	-84.859556	-99.632309
24041		10.132923	0.800813	2.222687	2.147453	-1.488584	0.258564	-0.288909	-0.402721	-0.408727	-0.850098	0.075439	0.359863	0.101300	0.007833	0.022419	0.057907	-0.700743	0.001206	-0.711059	-77.800557	-85.136287	-97.599664
24042		9.107640	0.062178	2.506725	2.421319	-0.624884	-0.703174	-1.168329	-0.449925	-0.347553	-0.847900	0.068359	0.357178	0.091021	0.000611	0.025268	0.052615	-0.702701	0.004052	-0.709525	-81.164053	-85.373968	-94.896939
24043		10.024726	-2.199492	2.037937	1.857046	1.522174	0.371602	-1.402082	-0.581339	-0.244284	-0.843018	0.060059	0.367432	0.100160	-0.021972	0.020825	0.046849	-0.705151	0.008066	-0.707462	-86.017366	-85.545271	-90.837388
24044		11.853241	-2.552037	1.370609	1.275955	1.712450	2.201008	-0.762691	-0.878935	-0.318410	-0.836914	0.051758	0.372559	0.118430	-0.025655	0.014324	0.043103	-0.708471	0.009476	-0.704358	-93.109528	-85.725569	-84.163536
24045		13.179159	-0.184209	0.173602	0.352101	-0.741921	3.343174	-0.123699	-1.356585	-0.595736	-0.831787	0.050293	0.388428	0.131770	-0.002233	0.002631	0.040646	-0.713317	0.007562	-0.699621	-104.518925	-85.938276	-72.798411
24046		12.833290	2.905050	-1.355973	-0.856265	-3.771726	2.836737	-0.352950	-1.594809	-0.790185	-0.825928	0.046143	0.389160	0.128549	0.028520	-0.012586	0.036717	-0.719001	0.005696	-0.694015	-119.244707	-86.010566	-58.239948
24047		10.995478	3.795293	-2.672521	-2.044907	-4.495105	1.052705	-1.181635	-1.490259	-0.796781	-0.823975	0.017822	0.413818	0.110301	0.037358	-0.026126	0.029762	-0.724406	0.006710	-0.688698	-133.458723	-85.863248	-44.672110
24048		9.057394	2.622389	-3.672317	-3.083743	-3.140229	-0.700789	-1.802797	-1.297851	-0.631655	-0.809326	0.021973	0.424316	0.090892	0.025608	-0.036367	0.021133	-0.729148	0.010479	-0.683949	-144.599169	-85.529588	-34.536842
24049		7.890313	0.772332	-4.157085	-3.593066	-1.130306	-1.692012	-1.970557	-1.124361	-0.453047	-0.804932	0.007324	0.425293	0.079152	0.007137	-0.041199	0.012470	-0.733208	0.015502	-0.679713	-152.518333	-85.107036	-27.727556
24050		7.518784	-0.919201	-4.341875	-3.708856	0.683434	-1.938394	-1.793954	-0.991993	-0.358957	-0.802002	-0.010254	0.434570	0.075385	-0.009714	-0.042960	0.004784	-0.736711	0.020264	-0.675887	-158.245294	-84.668118	-23.010374
24051		8.003067	-2.143810	-4.060106	-3.257396	1.975621	-1.409459	-1.392709	-0.869767	-0.374769	-0.800781	-0.007324	0.441162	0.080165	-0.021869	-0.040101	-0.001511	-0.739727	0.023624	-0.672491	-162.813846	-84.262489	-19.225499
24052		9.375012	-2.696849	-4.046759	-2.989671	2.559124	-0.012100	-0.898000	-0.793098	-0.433130	-0.794922	-0.023438	0.436035	0.093850	-0.027352	-0.039973	-0.006161	-0.742453	0.025092	-0.669400	-166.739899	-83.882169	-15.796280
24053		10.321418	-2.133531	-4.370629	-3.141477	2.053820	0.962183	-0.360258	-0.764225	-0.578804	-0.785645	-0.024658	0.444580	0.103318	-0.021712	-0.043273	-0.009324	-0.745094	0.024229	-0.666454	-170.629638	-83.510958	-12.093704
24054		10.483291	-0.363375	-4.385683	-3.135419	0.352524	1.110200	0.099447	-0.745928	-0.755786	-0.784668	-0.026855	0.451172	0.104981	-0.004009	-0.043467	-0.011348	-0.747695	0.021161	-0.663607	-174.662818	-83.136131	-7.976288
24055		10.390784	1.667101	-3.985331	-2.760743	-1.623365	0.974919	0.189433	-0.671837	-0.771022	-0.780273	-0.028564	0.454590	0.104104	0.016307	-0.039488	-0.013110	-0.750039	0.017745	-0.661025	-178.272241	-82.772754	-4.233104
24056		10.072100	2.644258	-3.982966	-2.765777	-2.532935	0.686704	-0.024635	-0.615144	-0.625937	-0.776611	-0.026611	0.459229	0.100925	0.026122	-0.039523	-0.015184	-0.752149	0.015565	-0.658634	178.984854	-82.417020	-1.482012
24057		9.570716	2.835006	-4.056972	-2.852800	-2.661493	0.230835	-0.248256	-0.532436	-0.489976	-0.781494	-0.043213	0.466064	0.095884	0.028065	-0.040350	-0.017671	-0.753950	0.014634	-0.656532	176.902313	-82.096273	0.473587
24058		9.245069	2.140304	-3.807899	-2.579766	-1.923188	-0.107118	-0.578748	-0.367256	-0.415824	-0.777588	-0.035156	0.469238	0.092565	0.021101	-0.037970	-0.021158	-0.755158	0.015045	-0.655028	175.035561	-81.864681	2.023269
24059		9.338998	0.429122	-3.424165	-2.074654	-0.170617	-0.076558	-0.960307	-0.237404	-0.390577	-0.767334	-0.046143	0.467773	0.093438	0.003945	-0.034150	-0.026029	-0.755886	0.016795	-0.653970	173.083252	-81.700767	3.437175
24060		9.863080	-1.437170	-3.393496	-1.827454	1.764270	0.405376	-0.911978	-0.189756	-0.447285	-0.772217	-0.059570	0.468506	0.098630	-0.014747	-0.033775	-0.030889	-0.756445	0.018157	-0.653075	170.985613	-81.553114	5.028627
24061		10.164281	-2.017393	-3.122692	-1.442963	2.395448	0.642596	-0.401487	-0.171650	-0.530735	-0.771484	-0.066650	0.466309	0.101615	-0.020506	-0.031099	-0.034108	-0.757021	0.017543	-0.652264	168.915226	-81.398134	6.886797
24062		10.048082	-1.062962	-2.551409	-0.937715	1.456871	0.463570	0.093314	-0.200946	-0.570795	-0.771973	-0.058838	0.477539	0.100476	-0.010905	-0.025418	-0.035566	-0.757768	0.015159	-0.651377	167.080323	-81.213536	8.796481
24063		9.644179	0.411616	-2.302572	-0.824584	0.007066	0.076761	0.323550	-0.326666	-0.566338	-0.767334	-0.066406	0.467285	0.096490	0.003880	-0.022862	-0.036142	-0.758962	0.012073	-0.650019	165.581757	-80.950297	10.498412
24064		9.586745	1.666370	-2.195063	-0.765898	-1.210783	0.058879	0.376886	-0.386689	-0.553907	-0.763916	-0.074951	0.481689	0.095955	0.016439	-0.021734	-0.036456	-0.760344	0.008863	-0.648436	164.306381	-80.650328	12.008526
24065		9.693798	2.595495	-2.188212	-0.750895	-2.093664	0.214625	0.302730	-0.332540	-0.507296	-0.767822	-0.070801	0.481689	0.097040	0.025742	-0.021682	-0.036919	-0.761530	0.006071	-0.647049	163.170751	-80.381619	13.332972
24066		9.812606	3.109950	-2.259279	-0.789997	-2.558145	0.380198	0.173598	-0.248748	-0.464286	-0.765625	-0.074219	0.488525	0.098226	0.030891	-0.022444	-0.037721	-0.762408	0.003834	-0.645985	162.081405	-80.162905	14.538490
24067		9.881460	3.150259	-2.532156	-1.018188	-2.537585	0.507339	-0.022245	-0.216709	-0.434657	-0.770752	-0.078369	0.491699	0.098910	0.031285	-0.025218	-0.039189	-0.763144	0.002345	-0.645034	160.985443	-79.962078	15.635621
24068		9.984750	2.685960	-2.948125	-1.363954	-1.999034	0.663205	-0.243446	-0.162232	-0.415505	-0.761719	-0.067383	0.486572	0.099927	0.026616	-0.029433	-0.041425	-0.763652	0.001624	-0.644295	159.807322	-79.791685	16.690050
24069		9.726400	1.775595	-3.160620	-1.556756	-1.044446	0.396650	-0.361907	-0.042944	-0.356146	-0.769531	-0.077393	0.486328	0.097302	0.017526	-0.031617	-0.043935	-0.763751	0.001492	-0.644012	158.634117	-79.692369	17.669451
24070		9.537478	0.776569	-3.183864	-1.553939	-0.016868	0.151669	-0.345006	0.052933	-0.277259	-0.762451	-0.083984	0.484863	0.095377	0.007579	-0.031877	-0.046114	-0.763535	0.001580	-0.644116	157.607735	-79.658676	18.511166
24071		9.564950	0.017975	-3.165246	-1.490461	0.769924	0.121750	-0.175932	0.112952	-0.212425	-0.766113	-0.081299	0.487305	0.095632	0.000050	-0.031707	-0.047452	-0.763167	0.001362	-0.644456	156.794806	-79.667461	19.232940
24072		9.658817	-0.195282	-3.570622	-1.870371	1.038227	0.262231	0.103223	0.138888	-0.203082	-0.768311	-0.093750	0.479980	0.096561	-0.002032	-0.035774	-0.047682	-0.762774	0.000269	-0.644904	156.136594	-79.691548	19.961460
24073		9.644291	0.323159	-3.771006	-2.115334	0.547326	0.314653	0.416796	0.171412	-0.239282	-0.768555	-0.082275	0.490967	0.096414	0.003195	-0.037786	-0.046847	-0.762355	-0.001975	-0.645459	155.506573	-79.721398	20.842221
24074		9.728160	1.269028	-3.560813	-1.961473	-0.395279	0.430519	0.584748	0.198320	-0.317305	-0.772461	-0.089355	0.476807	0.097266	0.012640	-0.035668	-0.045608	-0.761874	-0.005070	-0.646097	154.710546	-79.745730	21.991055
24075		9.861262	1.918727	-3.259927	-1.687131	-1.036456	0.561917	0.459449	0.222748	-0.377129	-0.775879	-0.087891	0.493896	0.098612	0.019076	-0.032665	-0.045053	-0.761283	-0.007989	-0.646804	153.632550	-79.763024	23.351850
24076		9.787247	1.661056	-3.048814	-1.492105	-0.770207	0.435477	0.201950	0.210496	-0.397648	-0.770264	-0.084961	0.478516	0.097873	0.016447	-0.030574	-0.045530	-0.760660	-0.010155	-0.647472	152.364870	-79.765117	24.756978
24077		9.678050	0.996394	-2.321571	-0.782863	-0.123556	0.158213	0.088303	0.279724	-0.380513	-0.774414	-0.080322	0.477783	0.096767	0.009790	-0.023347	-0.046394	-0.759791	-0.011899	-0.648401	150.972181	-79.799554	26.221362
24078		9.630974	0.327002	-1.820397	-0.295622	0.543344	-0.025264	0.136924	0.350902	-0.324446	-0.784668	-0.085693	0.477051	0.096283	0.003126	-0.018371	-0.046874	-0.758694	-0.013610	-0.649616	149.638593	-79.880577	27.655262
24079		9.604266	0.080805	-0.939875	0.546226	0.765967	-0.208178	0.303525	0.382039	-0.280767	-0.788818	-0.089111	0.474365	0.096025	0.000688	-0.009581	-0.046586	-0.757540	-0.015701	-0.650935	148.446927	-79.982784	29.040733
24080		9.589570	0.564403	-0.021513	1.399984	0.263222	-0.312715	0.467679	0.383795	-0.277765	-0.791016	-0.083008	0.480225	0.095903	0.005512	-0.000386	-0.045657	-0.756405	-0.018317	-0.652251	147.328693	-80.083248	30.447534
24081		9.596998	1.286316	0.872135	2.232263	-0.467247	-0.361965	0.454962	0.371042	-0.245636	-0.781494	-0.085693	0.481689	0.096002	0.012726	0.008572	-0.044682	-0.755311	-0.020766	-0.653512	146.290308	-80.181715	31.764596
24082		9.463477	1.313552	1.307231	2.617752	-0.499775	-0.545045	0.279501	0.304186	-0.170614	-0.783691	-0.085938	0.469238	0.094666	0.013037	0.012947	-0.044121	-0.754392	-0.022344	-0.654559	145.460331	-80.270244	32.768666
24083		9.103313	0.755838	1.909192	3.156988	0.017890	-1.030907	0.195594	0.203668	-0.135481	-0.788574	-0.078125	0.470215	0.091058	0.007478	0.019007	-0.043782	-0.753790	-0.023491	-0.655234	144.858026	-80.319576	33.491867
24084		8.680884	0.015894	2.236163	3.428065	0.720273	-1.561144	0.229254	0.064501	-0.153652	-0.791504	-0.085205	0.471680	0.086816	0.000067	0.022334	-0.043383	-0.753642	-0.024788	-0.655383	144.491413	-80.298085	33.996411
24085		8.554518	-0.341929	2.107644	3.293901	1.091718	-1.707311	0.411072	-0.141662	-0.252684	-0.789795	-0.085205	0.477051	0.085526	-0.003571	0.021130	-0.042655	-0.754199	-0.027010	-0.654702	144.365360	-80.146012	34.362185
24086		8.861738	-0.095034	1.844544	3.094698	0.920591	-1.355924	0.612538	-0.364768	-0.423177	-0.782227	-0.069824	0.481201	0.088581	-0.001195	0.018604	-0.041749	-0.755492	-0.030485	-0.653115	144.336380	-79.834176	34.747365
24087		9.068366	0.352983	1.476594	2.798257	0.556530	-1.071996	0.697250	-0.537309	-0.563100	-0.784912	-0.083008	0.489258	0.090653	0.003222	0.015021	-0.041009	-0.757333	-0.034731	-0.650814	144.330115	-79.394289	35.159031
24088		9.306606	0.746373	0.832658	2.255366	0.261538	-0.718319	0.726187	-0.648729	-0.623555	-0.782227	-0.075195	0.488770	0.093061	0.007143	0.008655	-0.040370	-0.759504	-0.039275	-0.648059	144.403847	-78.883350	35.506984
24089		9.606347	1.303800	0.109582	1.665737	-0.190190	-0.263756	0.774275	-0.734324	-0.631777	-0.775635	-0.084229	0.495850	0.096099	0.012729	0.001498	-0.039594	-0.761938	-0.043988	-0.644940	144.637248	-78.329048	35.720627
24090		10.144697	1.875572	-0.641439	1.109270	-0.633196	0.444588	0.715264	-0.768626	-0.599239	-0.769775	-0.082275	0.511230	0.101526	0.018473	-0.005958	-0.038941	-0.764445	-0.048377	-0.641691	144.959392	-77.770518	35.809608
24091		10.666858	2.149292	-1.427163	0.525513	-0.788380	1.120722	0.551125	-0.758526	-0.532107	-0.772217	-0.075928	0.517822	0.106778	0.021247	-0.013808	-0.038700	-0.766883	-0.051984	-0.638507	145.304208	-77.237986	35.778891
24092		10.501989	2.331218	-1.872998	0.152255	-0.945454	1.064659	0.388198	-0.685164	-0.474585	-0.769531	-0.079590	0.511719	0.105138	0.023099	-0.018325	-0.038876	-0.769046	-0.054863	-0.635647	145.556723	-76.759594	35.747369
24093		9.948830	2.275565	-2.334416	-0.328289	-0.927301	0.610303	0.229255	-0.630147	-0.411741	-0.758057	-0.076172	0.525146	0.099608	0.022577	-0.023005	-0.039449	-0.771011	-0.057008	-0.633037	145.759262	-76.326718	35.673790
24094		9.424990	2.135076	-2.638640	-0.664965	-0.827845	0.148410	0.106770	-0.624706	-0.359026	-0.759766	-0.083496	0.526611	0.094370	0.021195	-0.026080	-0.040323	-0.772934	-0.058559	-0.630490	145.976867	-75.914109	35.512016
24095		9.223091	2.056934	-2.569188	-0.577731	-0.744980	-0.065485	0.060036	-0.605131	-0.341790	-0.754639	-0.077637	0.534668	0.092343	0.020419	-0.025406	-0.041319	-0.774785	-0.059904	-0.628022	146.165024	-75.515352	35.353034
24096		9.387102	1.967629	-2.407137	-0.330481	-0.599582	0.052123	0.005545	-0.587267	-0.301004	-0.748047	-0.088867	0.536621	0.093971	0.019536	-0.023795	-0.042391	-0.776569	-0.060917	-0.625646	146.364958	-75.138784	35.149002
24097		9.821247	1.738396	-2.154484	0.055508	-0.275897	0.387370	-0.052363	-0.570944	-0.275473	-0.756348	-0.089844	0.538330	0.098297	0.017243	-0.021269	-0.043603	-0.778292	-0.061659	-0.623345	146.548167	-74.777068	34.927964
24098		10.022476	1.352951	-1.755662	0.527469	0.168999	0.436983	-0.101776	-0.538657	-0.272039	-0.739746	-0.084473	0.536621	0.100290	0.013384	-0.017293	-0.044985	-0.779893	-0.062234	-0.621184	146.663431	-74.432588	34.747282
24099		9.556209	1.025880	-1.391455	0.817476	0.451721	-0.146399	-0.093752	-0.510066	-0.256151	-0.746338	-0.086182	0.545166	0.095610	0.010130	-0.013676	-0.046278	-0.781409	-0.062785	-0.619125	146.772167	-74.105867	34.578340
24100		9.031783	0.825794	-1.530972	0.604547	0.591428	-0.653899	-0.013593	-0.543684	-0.239318	-0.744629	-0.089600	0.543945	0.090369	0.008149	-0.015065	-0.047216	-0.783043	-0.063503	-0.616914	146.984655	-73.768994	34.348469
24101		8.923675	0.855981	-2.025793	0.156875	0.565819	-0.640808	0.133759	-0.682070	-0.284443	-0.730713	-0.093506	0.557373	0.089317	0.008446	-0.019948	-0.047757	-0.785117	-0.064826	-0.614091	147.342792	-73.350397	34.055067
24102		9.248053	1.074323	-2.646530	-0.287813	0.425963	-0.147289	0.278225	-0.781904	-0.355946	-0.733398	-0.090332	0.565186	0.092602	0.010615	-0.026089	-0.047984	-0.787493	-0.066842	-0.610806	147.753510	-72.861769	33.791780
24103		9.747269	0.917705	-3.315570	-0.737429	0.689066	0.474445	0.286035	-0.827552	-0.390527	-0.721191	-0.093262	0.566650	0.097626	0.009034	-0.032739	-0.048300	-0.789985	-0.069011	-0.607313	148.140900	-72.339158	33.557489
24104		10.045815	0.607994	-3.758661	-1.018341	1.075067	0.827899	0.302671	-0.796958	-0.413997	-0.712158	-0.097656	0.573486	0.100619	0.005928	-0.037177	-0.048610	-0.792358	-0.071323	-0.603919	148.457005	-71.824755	33.406877
24105		10.038530	0.658219	-4.010499	-1.176032	1.054709	0.901479	0.472440	-0.727842	-0.440083	-0.718750	-0.091309	0.574951	0.100545	0.006455	-0.039724	-0.048300	-0.794540	-0.074271	-0.600714	148.757851	-71.335322	33.374879
24106		10.019607	0.978032	-3.797574	-0.878154	0.767317	0.883582	0.581677	-0.659019	-0.429581	-0.706787	-0.094238	0.585693	0.100341	0.009675	-0.037617	-0.047499	-0.796523	-0.077516	-0.597735	149.068199	-70.883524	33.398457
24107		9.974764	1.363540	-3.508924	-0.513654	0.409730	0.828531	0.547107	-0.598757	-0.379933	-0.698486	-0.088379	0.593018	0.099878	0.013541	-0.034753	-0.046660	-0.798322	-0.080478	-0.595002	149.372167	-70.475205	33.408599
24108		9.871443	1.523497	-3.353031	-0.313783	0.257832	0.715558	0.422053	-0.547418	-0.286736	-0.698242	-0.094971	0.596680	0.098827	0.015164	-0.033228	-0.046024	-0.799960	-0.082701	-0.592542	149.684929	-70.120131	33.332584
24109		9.660917	1.525519	-3.002012	0.023313	0.241279	0.415389	0.337412	-0.517277	-0.208768	-0.696289	-0.093018	0.602539	0.096702	0.015205	-0.029744	-0.045480	-0.801515	-0.084372	-0.590242	150.024965	-69.801473	33.176395
24110		9.665769	1.729640	-2.753567	0.337130	0.063177	0.379610	0.309730	-0.531975	-0.209969	-0.701416	-0.085938	0.599609	0.096749	0.017237	-0.027252	-0.045059	-0.803095	-0.085957	-0.587894	150.350821	-69.475671	33.017448
24111		9.850886	1.795629	-2.476203	0.721261	0.059564	0.476711	0.247981	-0.548369	-0.225395	-0.691406	-0.084473	0.614258	0.098596	0.017876	-0.024470	-0.044935	-0.804697	-0.087424	-0.585492	150.626573	-69.136272	32.874697
24112		9.941779	1.401549	-2.417705	0.831402	0.488351	0.469262	0.211025	-0.598094	-0.273613	-0.687012	-0.099121	0.619873	0.099509	0.013905	-0.023865	-0.045124	-0.806403	-0.088958	-0.582893	150.847880	-68.759081	32.766451
24113		9.914547	1.186948	-2.351892	0.933697	0.725015	0.377530	0.351669	-0.669437	-0.369712	-0.679199	-0.089355	0.627441	0.099245	0.011727	-0.023166	-0.045056	-0.808297	-0.091278	-0.579909	151.072347	-68.318502	32.741680
24114		9.955465	1.086048	-2.050048	1.295793	0.874828	0.289218	0.478802	-0.709425	-0.378644	-0.678711	-0.091797	0.627441	0.099647	0.010720	-0.020121	-0.044519	-0.810312	-0.093986	-0.576697	151.379922	-67.856114	32.705182
24115		10.062194	0.895457	-1.741834	1.677530	1.125738	0.237268	0.476793	-0.734642	-0.337220	-0.671143	-0.091797	0.626953	0.100700	0.008826	-0.017027	-0.043880	-0.812404	-0.096518	-0.573375	151.746776	-67.391541	32.603857
24116		9.601601	1.108363	-1.467808	1.886203	0.862418	-0.259073	0.581743	-0.762468	-0.336159	-0.663086	-0.077881	0.637939	0.096089	0.010964	-0.014280	-0.042825	-0.814577	-0.099333	-0.569880	152.182548	-66.913633	32.492004
24117		9.013691	1.697506	-1.306882	1.988714	0.198865	-0.766090	0.609892	-0.801801	-0.342056	-0.655029	-0.079346	0.648926	0.090217	0.016860	-0.012656	-0.041688	-0.816845	-0.102247	-0.566191	152.641093	-66.413261	32.373365
24118		8.985131	2.150988	-1.307726	2.118300	-0.218347	-0.727875	0.477157	-0.913994	-0.368763	-0.659180	-0.073730	0.649170	0.089949	0.021375	-0.012615	-0.041228	-0.819363	-0.104862	-0.562093	153.047409	-65.848967	32.227332
24119		9.381475	2.326655	-1.526417	2.170771	-0.274680	-0.275048	0.340672	-1.032042	-0.432597	-0.641846	-0.087402	0.656738	0.093942	0.023089	-0.014740	-0.041562	-0.822126	-0.107336	-0.557549	153.359715	-65.206958	32.099142
24120		9.852683	2.044473	-1.624759	2.314934	0.146511	0.112709	0.175698	-1.076735	-0.425453	-0.640137	-0.086182	0.666504	0.098656	0.020249	-0.015699	-0.042581	-0.824953	-0.109299	-0.552895	153.599232	-64.544107	31.945102
24121		9.983637	1.335753	-1.441243	2.542702	0.922264	-0.003642	0.011553	-1.092611	-0.384105	-0.631592	-0.085205	0.671387	0.099939	0.013166	-0.013866	-0.044170	-0.827786	-0.110635	-0.548252	153.787863	-63.882885	31.742819
24122		9.643601	0.944965	-1.651208	2.274799	1.257508	-0.333167	0.047462	-1.134613	-0.362676	-0.616943	-0.092285	0.685791	0.096545	0.009278	-0.015962	-0.045574	-0.830723	-0.111963	-0.543403	154.030108	-63.205598	31.501923
24123		9.206838	0.980693	-2.033844	1.869933	1.144906	-0.590134	0.124798	-1.204535	-0.381469	-0.616943	-0.090088	0.686768	0.092207	0.009644	-0.019777	-0.046743	-0.833826	-0.113564	-0.538194	154.319298	-62.486714	31.257187
24124		9.243974	1.145175	-2.522475	1.578353	1.018632	-0.347218	0.116190	-1.287551	-0.434790	-0.601563	-0.096436	0.694824	0.092624	0.011265	-0.024622	-0.048139	-0.837082	-0.115335	-0.532610	154.576874	-61.711569	31.040362
24125		9.533617	0.829086	-2.846689	1.481411	1.434696	-0.044049	0.027382	-1.328573	-0.456892	-0.594727	-0.097656	0.707520	0.095541	0.008077	-0.027832	-0.049985	-0.840374	-0.116951	-0.526873	154.769293	-60.909100	30.838760
24126		9.970588	-0.091370	-3.165587	1.374661	2.478775	0.257371	-0.044501	-1.346916	-0.434911	-0.583740	-0.096680	0.708984	0.099914	-0.001138	-0.030983	-0.052085	-0.843667	-0.118270	-0.521081	154.938287	-60.102436	30.614602
24127		9.868178	-0.939669	-3.202745	1.305308	3.326261	-0.027395	0.085652	-1.341607	-0.427387	-0.566650	-0.095947	0.711914	0.098873	-0.009594	-0.031369	-0.053608	-0.846942	-0.119896	-0.515210	155.175352	-59.299792	30.396752
24128		9.466118	-1.263464	-2.983017	1.401044	3.589146	-0.579284	0.305284	-1.365030	-0.422846	-0.555176	-0.091553	0.719971	0.094835	-0.012790	-0.029203	-0.054203	-0.850294	-0.122052	-0.509083	155.538387	-58.485640	30.176320
24129		8.996914	-0.706457	-2.976018	1.405196	2.970645	-0.896447	0.574312	-1.471051	-0.502846	-0.553711	-0.087402	0.729004	0.090167	-0.007207	-0.029118	-0.053915	-0.853888	-0.125202	-0.502288	156.013172	-57.596458	30.004732
24130		8.909740	0.285006	-2.748900	1.853969	2.046733	-0.902419	0.665970	-1.565481	-0.618109	-0.530762	-0.085938	0.746094	0.089317	0.002664	-0.026781	-0.053585	-0.857607	-0.129034	-0.494964	156.464077	-56.630460	29.921441
24131		9.064797	0.744683	-2.474754	2.383011	1.713447	-0.855420	0.534453	-1.614747	-0.645791	-0.520752	-0.096436	0.763672	0.090867	0.007218	-0.023995	-0.053907	-0.861323	-0.132641	-0.487465	156.822441	-55.632096	29.859157
24132		9.506822	0.804898	-2.645581	2.613827	1.836695	-0.441536	0.460958	-1.678237	-0.636700	-0.508789	-0.079834	0.760010	0.095311	0.007806	-0.025639	-0.054568	-0.865108	-0.135996	-0.479703	157.154827	-54.601960	29.775180
24133		10.120345	0.633204	-2.713340	2.993874	2.241161	-0.004758	0.463270	-1.706143	-0.608579	-0.487305	-0.092041	0.766846	0.101449	0.006085	-0.026254	-0.055160	-0.868904	-0.139220	-0.471785	157.506996	-53.563255	29.668362
24134		10.709443	0.013775	-2.270909	3.711897	3.085272	0.013267	0.407521	-1.655218	-0.515867	-0.479980	-0.091797	0.784180	0.107277	-0.000094	-0.021822	-0.055742	-0.872556	-0.141907	-0.464112	157.865616	-52.571097	29.511059
24135		11.020228	-0.947511	-1.529315	4.455481	4.174292	-0.463720	0.412248	-1.649496	-0.399748	-0.452637	-0.081543	0.782715	0.110304	-0.009665	-0.014403	-0.056020	-0.876210	-0.144091	-0.456460	158.291986	-51.606590	29.269947
24136		10.920531	-1.643396	-0.756646	5.037287	4.873971	-1.245377	0.578619	-1.672349	-0.315600	-0.449707	-0.091553	0.790771	0.109238	-0.016586	-0.006701	-0.055395	-0.879955	-0.146267	-0.448572	158.857999	-50.645861	28.967975
24137		11.117361	-1.779924	1.644349	7.180034	5.180801	-2.666271	0.754784	-1.716746	-0.271892	-0.422852	-0.075684	0.803955	0.111003	-0.018015	0.017329	-0.053917	-0.883803	-0.148621	-0.440338	159.543851	-49.668914	28.637957
24138		12.389022	-1.950213	3.678923	9.598917	5.846483	-3.141826	0.626106	-1.863880	-0.282762	-0.413574	-0.074463	0.801025	0.123513	-0.019794	0.037880	-0.053143	-0.887850	-0.150686	-0.431501	160.160373	-48.607655	28.296304
24139		13.871224	-1.832531	3.730311	10.666627	6.239276	-2.264766	0.506102	-2.116274	-0.286017	-0.400391	-0.074951	0.820801	0.138281	-0.018620	0.038721	-0.053084	-0.892306	-0.152423	-0.421592	160.738249	-47.408368	27.909161
24140		14.826255	-1.497894	3.269004	11.137461	6.245204	-1.464511	0.314230	-2.306700	-0.294329	-0.374023	-0.062012	0.821533	0.147850	-0.015250	0.034373	-0.054046	-0.896993	-0.153722	-0.410916	161.214426	-46.100904	27.501804
24141		14.774573	-2.411819	2.575949	10.581773	7.103702	-1.548798	-0.081984	-2.492861	-0.303145	-0.351563	-0.065430	0.826416	0.147373	-0.024331	0.027608	-0.056925	-0.901811	-0.154175	-0.399659	161.471875	-44.690748	27.074904
24142		15.319596	-3.752248	0.941928	9.651991	8.554540	-0.685779	-0.217191	-2.674346	-0.453696	-0.328857	-0.067627	0.827881	0.152966	-0.037858	0.011507	-0.060858	-0.906686	-0.154957	-0.387563	161.584331	-43.151934	26.732516
24143		15.551911	-3.064478	-1.603986	8.411599	8.043767	1.066224	-0.009864	-2.868751	-0.762743	-0.298340	-0.070313	0.849854	0.155609	-0.031239	-0.013807	-0.064569	-0.911570	-0.157458	-0.374270	161.680106	-41.453564	26.583629
24144		14.327367	-0.613826	-4.547718	6.433696	5.477223	2.634041	0.050336	-2.973046	-1.100460	-0.276367	-0.074951	0.852783	0.143892	-0.006918	-0.043343	-0.068723	-0.916194	-0.161533	-0.360239	161.661149	-39.635151	26.656199
24145		12.898924	1.432653	-6.025700	5.283422	3.274583	3.074935	0.009705	-2.761287	-1.248438	-0.246582	-0.079102	0.855469	0.129891	0.013520	-0.058467	-0.073121	-0.920075	-0.166256	-0.347095	161.529643	-37.907898	26.877521
24146		11.581175	2.410506	-6.953919	4.300409	2.107506	3.045954	-0.171114	-2.473281	-1.056460	-0.219727	-0.081543	0.850586	0.116785	0.023431	-0.068119	-0.077784	-0.923367	-0.169843	-0.335404	161.343887	-36.368747	27.021757
24147		10.156605	2.751702	-7.466769	3.298243	1.446152	2.577019	-0.283273	-2.076144	-0.645548	-0.195068	-0.092529	0.859375	0.102422	0.027083	-0.073646	-0.081907	-0.926152	-0.171482	-0.325774	161.210445	-35.123471	26.974618
24148		8.843944	3.051202	-8.459455	2.006250	0.837166	2.611391	-0.415723	-1.776044	-0.161197	-0.174072	-0.089844	0.857178	0.089211	0.030265	-0.083868	-0.085609	-0.928721	-0.170760	-0.317788	161.143304	-34.127438	26.672491
24149		7.628803	2.901106	-9.809579	0.406253	0.672129	2.924019	-0.424687	-1.468055	0.278510	-0.167480	-0.093750	0.858154	0.076965	0.028910	-0.097594	-0.088374	-0.931101	-0.168090	-0.311427	161.187687	-33.382796	26.153999
24150		6.920038	3.602108	-9.994438	0.086334	-0.200170	2.864143	-0.011934	-1.134267	0.573441	-0.158936	-0.093994	0.862061	0.069662	0.036214	-0.099552	-0.088484	-0.933348	-0.164840	-0.306365	161.523977	-32.868964	25.524987
24151		6.193685	4.931465	-12.071061	-1.216641	-1.571814	4.485486	0.176746	-1.482838	0.539537	-0.149658	-0.092285	0.859131	0.062696	0.049589	-0.120204	-0.088037	-0.936131	-0.161863	-0.299513	161.987047	-32.158709	24.851310
24152		6.947156	6.672896	-12.164358	-0.051206	-2.912513	5.427808	0.176883	-1.600454	0.231380	-0.130371	-0.092773	0.861572	0.070364	0.066917	-0.121024	-0.088151	-0.938784	-0.160278	-0.291932	162.344316	-31.323190	24.363678
24153		5.846576	7.028720	-11.241109	-0.094587	-3.666023	4.205043	-0.088030	-1.459313	0.167717	-0.110107	-0.099609	0.856689	0.059225	0.070287	-0.112012	-0.089473	-0.941003	-0.158646	-0.285202	162.504881	-30.554807	23.952699
24154		4.897687	5.310473	-10.370502	-0.643732	-2.399980	2.579253	-0.560243	-1.251252	0.323410	-0.104980	-0.102295	0.847168	0.049539	0.052894	-0.103545	-0.092635	-0.942791	-0.155704	-0.279858	162.416656	-29.923833	23.489265
24155		5.166885	3.680919	-9.850730	-0.449395	-0.763761	1.870494	-0.599906	-1.004283	0.473305	-0.098877	-0.108398	0.856445	0.052076	0.036637	-0.098357	-0.095568	-0.944285	-0.152098	-0.275788	162.324088	-29.457201	22.981558
24156		5.806228	2.746087	-9.132296	0.306104	0.293746	1.344006	-0.322077	-0.718070	0.522391	-0.081787	-0.111084	0.858398	0.058318	0.027466	-0.091158	-0.096910	-0.945528	-0.148785	-0.272851	162.373335	-29.152691	22.502652
24157		6.081883	2.619980	-8.570699	0.854063	0.436341	0.975754	0.021598	-0.393435	0.599313	-0.086670	-0.122314	0.848145	0.060908	0.026391	-0.085584	-0.096270	-0.946532	-0.145721	-0.271246	162.610061	-29.040611	22.040727
24158		5.626909	3.027626	-8.226948	0.786361	-0.184024	0.572813	0.404782	-0.029575	0.643799	-0.090820	-0.111084	0.855957	0.056183	0.030624	-0.082199	-0.093499	-0.947249	-0.143150	-0.271081	163.044427	-29.130057	21.623001
24159		4.591473	3.499903	-7.964349	0.187944	-1.073347	-0.036513	0.715765	0.357172	0.607102	-0.090576	-0.103027	0.849121	0.045665	0.035423	-0.079599	-0.089016	-0.947539	-0.141342	-0.272524	163.612849	-29.425406	21.298762
24160		3.670956	3.950721	-7.735972	-0.365726	-1.910338	-0.585272	0.785690	0.724370	0.541746	-0.093506	-0.101563	0.850342	0.036322	0.039910	-0.077335	-0.084039	-0.947287	-0.140108	-0.275598	164.170978	-29.906849	21.079388
24161		2.965923	4.287542	-7.840646	-0.976279	-2.539076	-0.798580	0.645955	1.037112	0.542793	-0.100830	-0.095215	0.854004	0.029136	0.043208	-0.078419	-0.079490	-0.946505	-0.138794	-0.280262	164.627026	-30.562161	20.908157
24162		2.443413	4.480625	-8.199769	-1.639489	-2.951516	-0.763858	0.496838	1.321633	0.616851	-0.122314	-0.094727	0.847900	0.023753	0.045084	-0.082044	-0.075351	-0.945271	-0.137034	-0.286369	165.001248	-31.382003	20.732944
24163		1.961560	4.384755	-8.310027	-2.222450	-3.091837	-1.001945	0.383177	1.601727	0.695158	-0.122559	-0.086182	0.844482	0.018797	0.044073	-0.083169	-0.071432	-0.943576	-0.134830	-0.293909	165.318739	-32.370268	20.546821
24164		1.669864	3.768930	-7.836412	-2.450087	-2.705017	-1.745486	0.268484	1.949407	0.735475	-0.144531	-0.091553	0.842529	0.015795	0.037854	-0.078470	-0.067762	-0.941272	-0.132387	-0.303132	165.559186	-33.553647	20.386499
24165		1.552747	2.758056	-7.157903	-2.508361	-1.882687	-2.642336	0.099038	2.354891	0.782675	-0.170410	-0.086182	0.842041	0.014575	0.027674	-0.071741	-0.064532	-0.938199	-0.129577	-0.314371	165.688678	-34.970921	20.256557
24166		1.512962	1.716929	-6.573892	-2.563055	-0.986956	-3.416884	-0.035050	2.738680	0.851416	-0.189453	-0.091553	0.832031	0.014154	0.017219	-0.065940	-0.061571	-0.934360	-0.126342	-0.327443	165.734968	-36.608273	20.142013
24167		1.550421	0.665586	-6.019698	-2.562756	-0.048861	-4.110909	0.016629	3.041124	0.925147	-0.216797	-0.090088	0.838623	0.014556	0.006730	-0.060423	-0.058036	-0.929869	-0.122904	-0.341862	165.815954	-38.426311	20.023960
24168		1.780712	-0.151577	-5.781959	-2.560393	0.721624	-4.377125	0.270023	3.246961	0.999717	-0.243896	-0.097412	0.819580	0.016872	-0.001352	-0.058100	-0.053061	-0.924900	-0.119586	-0.356992	166.061289	-40.366424	19.880242
24169		2.446422	-0.616872	-5.689520	-2.279585	1.247640	-4.157674	0.660330	3.391231	1.088613	-0.274902	-0.083252	0.810303	0.023527	-0.005850	-0.057319	-0.046011	-0.919540	-0.116547	-0.372487	166.575340	-42.400445	19.674396
24170		3.256087	-0.652281	-5.910407	-2.067756	1.356418	-3.500818	1.019692	3.495584	1.123956	-0.302490	-0.075195	0.807861	0.031556	-0.006040	-0.059693	-0.037175	-0.913776	-0.114007	-0.388115	167.332011	-44.493123	19.422888
24171		4.361484	-0.497619	-6.644778	-2.050663	1.291107	-2.226978	1.174375	3.604824	1.063770	-0.329590	-0.063477	0.795410	0.042432	-0.004355	-0.067247	-0.027665	-0.907448	-0.112012	-0.404013	168.173368	-46.639144	19.186500
24172		4.879441	-0.161545	-7.023343	-2.201685	0.878407	-1.594831	1.089416	3.805954	1.084094	-0.372070	-0.053955	0.782959	0.047453	-0.000970	-0.071151	-0.018383	-0.900352	-0.109744	-0.420695	169.000397	-48.895560	18.911872
24173		5.524364	0.060997	-7.970432	-2.797894	0.544109	-0.543836	0.773658	4.065533	1.113897	-0.398682	-0.045166	0.773926	0.053603	0.001223	-0.080801	-0.010302	-0.892297	-0.106644	-0.438552	169.687918	-51.300831	18.593099
24174		6.066853	0.215799	-8.757875	-3.446014	0.213175	0.267595	0.975712	4.471317	1.222714	-0.438965	-0.031250	0.758789	0.058674	0.002952	-0.088892	-0.000867	-0.882972	-0.103477	-0.457878	170.584848	-53.940637	18.167346
24175		6.676328	1.156258	-8.395018	-3.062905	-0.846143	0.495728	1.512035	4.778057	1.307329	-0.473145	-0.016846	0.734131	0.064654	0.012632	-0.085419	0.011296	-0.872442	-0.101094	-0.478014	171.931722	-56.757968	17.583046
24176		7.540301	1.598290	-7.784395	-2.464702	-1.374535	0.771096	1.404331	4.908178	1.222337	-0.513916	-0.006592	0.706787	0.073363	0.016990	-0.079544	0.022836	-0.860979	-0.098756	-0.498438	173.283724	-59.632379	16.938631
24177		7.870780	2.283864	-7.842505	-2.693594	-2.308708	0.960165	1.185406	5.120108	1.231953	-0.548584	0.015625	0.693115	0.076524	0.023787	-0.080264	0.033553	-0.848403	-0.095729	-0.519541	174.692706	-62.621001	16.105122
24178		7.832260	2.534267	-7.943001	-3.239264	-2.865359	0.776162	0.954109	5.232147	1.170130	-0.588379	0.020264	0.667725	0.076060	0.026177	-0.081316	0.043151	-0.834929	-0.092283	-0.540847	176.137301	-65.658041	15.107075
24179		7.826292	3.700216	-7.964655	-3.525902	-4.278792	0.560611	0.752451	5.391422	1.035835	-0.615479	0.031006	0.634766	0.075887	0.037704	-0.081573	0.051566	-0.820374	-0.088719	-0.562545	177.592525	-68.771480	13.992173
24180		7.649374	5.390462	-8.038678	-3.824177	-6.196265	0.144046	0.274056	5.567336	0.989659	-0.658203	0.030029	0.596680	0.073950	0.054387	-0.082395	0.057944	-0.804789	-0.083914	-0.584736	179.098506	-71.971417	12.559944
24181		7.501477	6.262295	-7.271487	-3.514457	-7.101164	-0.563459	-0.414579	5.718816	1.066753	-0.695801	0.034668	0.565186	0.072558	0.062861	-0.074943	0.061771	-0.788326	-0.076645	-0.607332	-179.034258	-75.244120	10.361984
24182		7.494848	5.793673	-6.256657	-3.200102	-6.597175	-1.147448	-1.040110	5.729887	1.224802	-0.722900	0.041016	0.523682	0.072755	0.058053	-0.064974	0.063584	-0.771404	-0.066813	-0.629626	-175.987272	-78.489566	6.621974
24183		8.890785	4.363665	-5.741254	-3.268942	-5.205936	-0.157468	-1.588697	5.520359	1.543686	-0.756104	0.047852	0.485840	0.086934	0.043842	-0.060178	0.064135	-0.754738	-0.054008	-0.650646	-169.638179	-81.518072	-0.751301
24184		11.753792	2.086213	-6.186150	-4.297593	-3.227427	2.509500	-1.759159	5.390058	2.000236	-0.790771	0.040771	0.448975	0.115598	0.021461	-0.065182	0.065459	-0.738003	-0.038944	-0.670485	-154.320273	-84.119834	-17.201163
24185		13.881608	-1.122904	-6.247038	-5.311068	-0.409299	4.489509	-1.577094	5.392572	2.507584	-0.808838	0.068359	0.407715	0.137197	-0.010014	-0.066102	0.069069	-0.720613	-0.022562	-0.689520	-120.046935	-85.465783	-52.517336
24186		13.049558	-3.908069	-6.193822	-6.317859	2.074095	3.591207	-1.090110	5.324444	2.565574	-0.839844	0.073242	0.365723	0.129279	-0.037766	-0.065183	0.074588	-0.702634	-0.007672	-0.707590	-82.425497	-84.561034	-90.897758
24187		10.775042	-3.541010	-5.406478	-6.050619	1.700122	1.065560	0.025178	5.043492	2.497817	-0.855713	0.086426	0.325684	0.106773	-0.034065	-0.056770	0.083684	-0.684632	0.002955	-0.724063	-62.248423	-82.281047	-111.191710
24188		8.931838	-3.016184	-4.319320	-5.263935	1.241380	-0.966216	0.774642	4.512425	2.402668	-0.868896	0.118164	0.288818	0.088664	-0.028921	-0.045312	0.094975	-0.667743	0.010299	-0.738236	-52.746561	-79.720239	-120.360402
24189		8.348060	-3.364410	-3.324388	-4.631110	1.527305	-1.550410	1.475079	3.919140	1.925768	-0.880371	0.130127	0.254883	0.083122	-0.032588	-0.035118	0.106820	-0.652334	0.013182	-0.750251	-46.967545	-77.424957	-125.393579
24190		8.050156	-2.805758	-1.930173	-3.458565	0.995622	-1.847804	2.428334	3.208753	1.144732	-0.892090	0.143311	0.226318	0.080332	-0.027350	-0.020926	0.118837	-0.638818	0.009553	-0.760064	-42.172270	-75.653578	-128.893695
24191		6.599849	-0.578363	-0.608815	-1.795135	-0.823524	-3.459742	3.084817	2.309706	0.271182	-0.898926	0.161865	0.211670	0.065929	-0.005592	-0.006937	0.129629	-0.628111	0.000106	-0.767250	-37.693688	-74.538358	-131.699859
24192		4.645954	1.972992	0.318215	-0.129942	-2.764722	-5.579702	3.011131	1.281554	-0.525827	-0.898438	0.169678	0.202393	0.046532	0.019560	0.003179	0.137089	-0.621194	-0.012233	-0.771476	-33.600468	-74.117860	-134.159831
24193		3.598386	4.489989	0.476242	0.827819	-4.907458	-6.886005	2.488088	0.141958	-0.977750	-0.906494	0.160889	0.193604	0.036206	0.044660	0.005293	0.141082	-0.618863	-0.024732	-0.772329	-30.370529	-74.346466	-136.035632
24194		3.355824	6.641056	-0.157132	0.907776	-7.005821	-7.471313	1.747005	-0.870684	-1.032028	-0.903076	0.155273	0.205078	0.033905	0.066246	-0.000845	0.142424	-0.620866	-0.035253	-0.770064	-28.410951	-75.072919	-137.030035
24195		3.497642	6.881489	-1.455134	-0.191230	-7.521665	-7.556029	0.554699	-1.579356	-0.823910	-0.904541	0.152100	0.217529	0.035372	0.068709	-0.014082	0.140727	-0.626418	-0.041036	-0.765580	-28.177386	-76.095008	-136.943776
24196		4.199883	5.365518	-3.202813	-2.329756	-6.569896	-6.967811	-0.698554	-2.142817	-0.541222	-0.886963	0.140869	0.229492	0.042485	0.053429	-0.031762	0.136055	-0.634997	-0.041530	-0.759304	-29.991899	-77.320398	-135.491316
24197		5.663983	3.784537	-4.813738	-4.464486	-5.597227	-5.533466	-1.237921	-2.648840	-0.408836	-0.881592	0.139893	0.254150	0.057350	0.037433	-0.047613	0.130044	-0.645780	-0.039894	-0.751309	-33.571088	-78.735685	-132.558463
24198		7.520036	3.094236	-6.074616	-5.992563	-5.388382	-3.642322	-1.049964	-3.008794	-0.526073	-0.865967	0.123291	0.288818	0.076185	0.030427	-0.059766	0.124097	-0.657613	-0.039566	-0.742010	-38.376089	-80.309598	-128.284923
24199		8.898666	3.202687	-8.239347	-8.036825	-6.013230	-2.291674	-0.966452	-3.292695	-0.851488	-0.861084	0.116699	0.308838	0.090463	0.031250	-0.081064	0.117123	-0.670197	-0.040785	-0.731748	-44.694431	-82.047862	-122.452670
24200		9.965999	4.748465	-9.023875	-8.330014	-7.611031	-1.097050	-1.129264	-3.323639	-1.040102	-0.856689	0.112793	0.337158	0.101387	0.046456	-0.088828	0.108871	-0.682730	-0.042043	-0.721290	-53.880360	-83.745154	-113.849593
24201		9.105362	5.408297	-6.979128	-5.983563	-7.531960	-1.547035	-1.445706	-2.907088	-0.917525	-0.838867	0.093994	0.347656	0.092304	0.053161	-0.068842	0.100032	-0.693752	-0.041507	-0.712024	-66.912053	-85.030513	-101.589196
24202		13.215906	5.879169	5.727590	6.541959	-5.694314	3.102691	-2.322614	-0.920869	-1.593703	-0.838623	0.073730	0.362549	0.132362	0.058402	0.057205	0.086133	-0.697822	-0.039185	-0.709993	-70.379194	-86.069305	-99.447106
24203		26.259132	2.800135	11.041344	10.864622	-2.824407	16.516813	-5.267310	1.237369	-0.680132	-0.834961	0.052734	0.354248	0.263364	0.029973	0.108013	0.065582	-0.695346	-0.022284	-0.715329	-61.661869	-86.135281	-111.209793
24204		22.501908	-12.578125	-6.900206	-8.613879	10.123454	13.326535	-4.721388	-0.418519	2.312868	-0.835205	0.049805	0.349365	0.226605	-0.124742	-0.065576	0.057406	-0.698442	0.002550	-0.713356	-73.805478	-84.992188	-101.744324
24205		13.911519	4.219079	-5.037559	-4.976670	-5.679797	3.591700	-0.523469	0.292335	-1.092670	-0.837891	0.044678	0.351807	0.139269	0.041298	-0.050688	0.051667	-0.697588	0.000739	-0.714633	-69.917793	-85.533509	-105.951577
24206		5.374790	7.048402	2.799737	3.015981	-7.284571	-4.889881	-4.044114	1.297497	0.096703	-0.843506	0.032227	0.336670	0.053888	0.071052	0.026215	0.037927	-0.693873	0.015901	-0.718922	-64.152042	-85.187879	-114.061534
24207		-2.420628	-0.647074	-1.505189	-1.412383	0.852558	-12.225209	-6.077891	0.864814	1.752546	-0.848145	0.026611	0.332764	-0.024210	-0.007134	-0.014737	0.023044	-0.691460	0.044031	-0.720703	-67.295627	-84.068317	-114.407330
24208		8.684663	-7.082766	-3.044491	-3.044212	6.300192	-0.545200	-4.682885	-0.210087	1.901001	-0.842285	0.020264	0.325439	0.087550	-0.070683	-0.028697	0.013782	-0.692148	0.067479	-0.718462	-74.236924	-83.074779	-110.123080
24209		19.077738	-16.998097	-3.232563	-2.495311	14.835214	11.091975	-2.974274	-0.241503	1.120471	-0.846436	0.031006	0.325928	0.191764	-0.169362	-0.029573	0.007627	-0.692790	0.082048	-0.716416	-78.262874	-82.480453	-107.783151
24210		16.241582	-13.091984	-4.461576	-3.588588	11.400763	7.857385	-0.709749	-1.217594	-0.415665	-0.845459	0.027588	0.331543	0.162409	-0.131412	-0.043161	0.004218	-0.697359	0.083143	-0.711870	-83.774582	-82.819540	-102.636517
24211		9.733768	-3.463967	-2.227952	-2.025719	2.571923	0.236499	0.459962	-1.440366	-2.115998	-0.835938	0.002441	0.350830	0.097122	-0.035618	-0.021661	-0.001106	-0.703329	0.074146	-0.706986	-90.188411	-84.071602	-95.920221
24212		7.271555	0.308516	-2.883108	-2.904830	-0.670017	-2.574457	0.524480	-1.726604	-2.562499	-0.832275	-0.006104	0.363525	0.072993	0.002226	-0.028195	-0.007641	-0.710328	0.063324	-0.700975	-102.414131	-85.423600	-83.343069
24213		6.768492	1.567989	-3.942933	-3.935345	-1.633516	-3.055660	0.553627	-2.069219	-2.596433	-0.825439	-0.027588	0.376709	0.068285	0.014904	-0.038683	-0.014116	-0.718357	0.052292	-0.693563	-125.695661	-86.310904	-59.690076
24214		8.410965	2.064050	-4.146893	-3.946072	-2.062013	-1.305555	0.424930	-2.091065	-2.214630	-0.811279	-0.036865	0.402100	0.084759	0.019791	-0.040542	-0.019685	-0.726162	0.043050	-0.685892	-152.420990	-86.226860	-32.666706
24215		10.380263	2.667420	-4.239293	-3.788297	-2.581892	0.761526	0.231279	-1.507793	-1.619791	-0.804443	-0.055420	0.408447	0.104330	0.025879	-0.041577	-0.024073	-0.731695	0.036580	-0.680224	-168.802109	-85.706978	-16.117520
24216		12.222778	3.341673	-4.484573	-3.803607	-3.146628	2.689437	0.417500	-0.776218	-1.142543	-0.796143	-0.058594	0.417480	0.122589	0.032810	-0.044301	-0.026254	-0.734605	0.031118	-0.677272	-177.477496	-85.336397	-7.176401
24217		12.143836	4.344950	-4.605883	-3.905899	-4.055390	2.671793	0.661877	-0.406268	-0.733915	-0.798096	-0.057861	0.412598	0.121690	0.043155	-0.045669	-0.026248	-0.736209	0.026295	-0.675733	177.912605	-85.098216	-2.174952
24218		10.182280	4.444133	-4.227215	-3.634510	-4.140305	0.720421	0.390379	-0.296013	-0.413057	-0.796875	-0.056396	0.430176	0.101977	0.044313	-0.042035	-0.026133	-0.737341	0.023539	-0.674604	175.617421	-84.910469	0.352876
24219		9.302220	2.990072	-4.411255	-3.752457	-2.655279	-0.127677	0.009297	-0.271351	-0.272972	-0.804688	-0.055908	0.426025	0.093123	0.029776	-0.043985	-0.026992	-0.738328	0.022595	-0.673523	174.107261	-84.734985	1.869750
24220		9.605803	1.419358	-4.577323	-3.755927	-1.053985	0.188310	0.018558	-0.155987	-0.256260	-0.785400	-0.065674	0.420654	0.096112	0.014075	-0.045697	-0.027734	-0.738914	0.021653	-0.672880	172.734865	-84.624751	3.258136
24221		9.972811	0.348361	-4.372529	-3.428632	0.021457	0.528556	0.284904	-0.079123	-0.302226	-0.787842	-0.051758	0.435303	0.099751	0.003395	-0.043681	-0.027697	-0.739292	0.019648	-0.672529	171.204375	-84.549050	4.954249
24222		10.029672	0.274389	-4.115888	-3.148091	0.092077	0.564747	0.577280	-0.153623	-0.371683	-0.791016	-0.059082	0.429199	0.100333	0.002676	-0.041074	-0.026764	-0.739951	0.016400	-0.671929	169.585363	-84.422464	6.912454
24223		9.912656	1.273150	-4.045347	-3.119554	-0.897466	0.468814	0.808419	-0.264915	-0.495357	-0.796631	-0.052979	0.435547	0.099211	0.012649	-0.040271	-0.025419	-0.741023	0.011943	-0.670892	167.607139	-84.210978	9.361191
24224		10.021559	2.508566	-3.314877	-2.405589	-2.140177	0.548075	0.679459	-0.204130	-0.679486	-0.798828	-0.053955	0.441162	0.100334	0.024857	-0.032962	-0.025135	-0.741857	0.007218	-0.670049	164.677324	-84.000382	12.697307
24225		10.281131	2.937019	-2.447607	-1.507180	-2.541482	0.750798	0.135041	-0.040405	-0.805747	-0.791260	-0.061523	0.435791	0.102934	0.028972	-0.024436	-0.027336	-0.742076	0.003838	-0.669747	160.737286	-83.834792	16.732876
24226		10.308176	2.529974	-1.551649	-0.593418	-2.091820	0.691517	-0.253232	0.082439	-0.816316	-0.798584	-0.064453	0.439941	0.103177	0.024859	-0.015591	-0.030977	-0.741805	0.001692	-0.669897	156.514914	-83.705529	20.833726
24227		10.062531	1.747862	-0.719477	0.230862	-1.279633	0.342899	-0.367049	0.154212	-0.702667	-0.811523	-0.068604	0.437988	0.100680	0.017112	-0.007304	-0.034698	-0.741277	0.000346	-0.670302	152.750575	-83.607472	24.405129
24228		9.744893	0.576489	-0.217554	0.735265	-0.091809	-0.076499	-0.351945	0.200163	-0.466868	-0.799805	-0.080078	0.431396	0.097460	0.005533	-0.002283	-0.037535	-0.740574	-0.000194	-0.670926	150.040076	-83.578386	26.929113
24229		9.480214	-0.930458	0.194257	1.173697	1.405938	-0.462626	-0.102086	0.266697	-0.164561	-0.802002	-0.078125	0.439697	0.094797	-0.009382	0.001821	-0.038466	-0.739703	-0.000458	-0.671832	148.623226	-83.657064	28.291900
24230		9.075669	-1.845330	0.963651	1.916680	2.263428	-0.986321	0.470621	0.312162	0.017324	-0.805176	-0.068848	0.428955	0.090773	-0.018468	0.009451	-0.036634	-0.738774	-0.001988	-0.672954	148.190406	-83.813342	28.997957
24231		8.886969	-1.499796	1.950666	2.832240	1.871538	-1.238987	1.042044	0.183956	-0.015586	-0.811768	-0.065674	0.440186	0.088886	-0.015106	0.019346	-0.032830	-0.738380	-0.005535	-0.673562	148.271212	-83.893949	29.513830
24232		8.961777	-0.196598	2.470273	3.297370	0.588251	-1.138849	1.243527	-0.072239	-0.193047	-0.815674	-0.061768	0.440186	0.089607	-0.002206	0.024722	-0.028858	-0.738839	-0.010378	-0.673183	148.387540	-83.799387	30.112816
24233		8.868574	0.869793	2.631860	3.446404	-0.430214	-1.194592	1.129359	-0.293848	-0.415858	-0.805664	-0.058350	0.437256	0.088665	0.008364	0.026497	-0.026092	-0.740000	-0.015624	-0.671919	148.077801	-83.526757	31.072671
24234		8.557975	1.131587	2.403554	3.231383	-0.637485	-1.479166	0.929956	-0.494455	-0.603527	-0.807129	-0.057617	0.451904	0.085553	0.010945	0.024299	-0.024685	-0.741754	-0.020871	-0.669892	147.473239	-83.101500	32.217212
24235		8.432003	0.934914	2.164778	3.040526	-0.372611	-1.610584	0.823622	-0.678087	-0.726491	-0.803955	-0.044189	0.453125	0.084279	0.008953	0.021971	-0.024123	-0.744080	-0.026193	-0.667141	146.900507	-82.545700	33.267645
24236		8.720922	0.571086	1.643625	2.621108	0.089881	-1.315466	0.760488	-0.832875	-0.793222	-0.795166	-0.061279	0.465088	0.087161	0.005302	0.016820	-0.024016	-0.746861	-0.031534	-0.663798	146.531736	-81.896317	34.078977
24237		9.276057	0.443164	1.079109	2.205233	0.339282	-0.733773	0.713598	-0.936624	-0.816993	-0.796387	-0.055420	0.464600	0.092726	0.004013	0.011240	-0.024193	-0.749951	-0.036798	-0.660026	146.365412	-81.187069	34.658973
24238		9.746020	0.686625	0.229184	1.520990	0.208508	-0.161231	0.687099	-0.993593	-0.800467	-0.779541	-0.068604	0.470947	0.097474	0.006467	0.002799	-0.024410	-0.753179	-0.041899	-0.656026	146.396452	-80.458086	35.025680
24239		10.240657	1.235272	-0.605409	0.883588	-0.229551	0.479476	0.645285	-0.995261	-0.716071	-0.789795	-0.062500	0.492432	0.102478	0.012004	-0.005505	-0.024521	-0.756396	-0.046546	-0.651994	146.652640	-79.752888	35.139210
24240		10.809593	1.639797	-1.419106	0.287684	-0.526632	1.195885	0.539830	-0.939077	-0.595675	-0.776611	-0.063965	0.487793	0.108209	0.016113	-0.013639	-0.024610	-0.759404	-0.050396	-0.648198	147.050777	-79.114726	35.048209
24241		11.181852	1.771893	-2.035260	-0.148393	-0.578738	1.674593	0.421631	-0.861864	-0.491574	-0.768799	-0.058105	0.500488	0.111948	0.017486	-0.019833	-0.024802	-0.762157	-0.053479	-0.644703	147.484724	-78.543761	34.850752
24242		10.760779	1.776046	-2.206813	-0.288925	-0.588208	1.295348	0.281354	-0.759118	-0.434179	-0.766846	-0.057861	0.507813	0.107729	0.017557	-0.021635	-0.025303	-0.764547	-0.055899	-0.641640	147.794337	-78.042051	34.698555
24243		9.868550	1.602619	-2.226167	-0.389415	-0.478051	0.411389	0.134382	-0.676465	-0.427057	-0.763428	-0.070557	0.508545	0.098794	0.015830	-0.021917	-0.026328	-0.766651	-0.057837	-0.638911	147.904280	-77.580432	34.664176
24244		9.184278	1.406543	-2.184512	-0.412748	-0.323920	-0.282438	0.072543	-0.677746	-0.428345	-0.765869	-0.064209	0.516846	0.091946	0.013876	-0.021529	-0.027585	-0.768729	-0.059574	-0.636197	147.973490	-77.119854	34.635202
24245		8.942429	1.588911	-2.021631	-0.220070	-0.488503	-0.523389	0.126423	-0.726890	-0.446938	-0.757080	-0.069092	0.525391	0.089532	0.015702	-0.019881	-0.028719	-0.770960	-0.061552	-0.633251	148.093811	-76.627574	34.585035
24246		8.876678	1.874374	-1.774519	0.098394	-0.729264	-0.597729	0.151480	-0.804568	-0.472370	-0.754883	-0.062500	0.527588	0.088881	0.018547	-0.017374	-0.029850	-0.773408	-0.063689	-0.629994	148.267665	-76.091930	34.494803
24247		9.233568	1.928094	-1.350006	0.664802	-0.673096	-0.330962	0.037039	-0.831407	-0.488070	-0.753662	-0.068604	0.533447	0.092437	0.019058	-0.013112	-0.031487	-0.775910	-0.065529	-0.626640	148.368917	-75.536344	34.411854
24248		9.913391	1.396129	-1.135030	1.059373	0.005838	0.206782	-0.163469	-0.809411	-0.456426	-0.740234	-0.075928	0.544922	0.099210	0.013726	-0.010960	-0.033789	-0.778295	-0.066612	-0.623440	148.383732	-75.003058	34.299045
24249		10.217742	0.777630	-1.263361	1.040348	0.707380	0.435220	-0.168987	-0.807959	-0.423873	-0.742432	-0.078857	0.545654	0.102244	0.007549	-0.012227	-0.036015	-0.780677	-0.067559	-0.620228	148.446474	-74.478184	34.133274
24250		9.746457	0.534711	-1.503985	0.766979	0.915985	-0.008947	0.004872	-0.821434	-0.419946	-0.738525	-0.080811	0.544922	0.097536	0.005143	-0.014639	-0.037549	-0.783107	-0.069016	-0.616903	148.620705	-73.949855	33.954466
24251		9.214500	0.368355	-1.722920	0.503883	1.034224	-0.502107	0.126389	-0.899584	-0.416661	-0.722656	-0.076660	0.553711	0.092229	0.003502	-0.016812	-0.038628	-0.785793	-0.070829	-0.613206	148.935283	-73.382050	33.701813
24252		9.331140	0.177838	-1.992841	0.346835	1.274900	-0.361409	0.215546	-1.003279	-0.457013	-0.725098	-0.083008	0.564697	0.093414	0.001586	-0.019458	-0.039511	-0.788768	-0.073042	-0.609055	149.315747	-72.752922	33.432555
24253		9.862686	0.226265	-2.183217	0.398523	1.354962	0.192027	0.368403	-1.070836	-0.523977	-0.715576	-0.086670	0.570557	0.098747	0.002044	-0.021300	-0.040020	-0.791935	-0.075978	-0.604536	149.717822	-72.068613	33.232185
24254		10.358934	0.276350	-2.105416	0.714797	1.443304	0.638211	0.401838	-1.084165	-0.551495	-0.709717	-0.081299	0.580322	0.103709	0.002519	-0.020487	-0.040482	-0.795099	-0.079109	-0.599933	150.087553	-71.371238	33.084624
24255		10.485579	0.399808	-1.906327	1.062222	1.404762	0.705787	0.352558	-1.068908	-0.532703	-0.705811	-0.080811	0.589111	0.104966	0.003752	-0.018496	-0.041077	-0.798190	-0.082027	-0.595379	150.425857	-70.684747	32.940421
24256		10.197413	0.638662	-1.651547	1.357236	1.178777	0.379950	0.342114	-1.083990	-0.491563	-0.694580	-0.081787	0.597656	0.102077	0.006163	-0.015952	-0.041594	-0.801303	-0.084734	-0.590765	150.810087	-70.003783	32.739904
24257		9.831556	1.233786	-1.158491	1.887039	0.592952	-0.034653	0.378395	-1.150631	-0.486115	-0.688477	-0.081055	0.612549	0.098410	0.012120	-0.010996	-0.041976	-0.804596	-0.087519	-0.585836	151.252621	-69.288866	32.499501
24258		9.732496	1.825701	-0.421519	2.728889	0.070744	-0.284886	0.269976	-1.230765	-0.511899	-0.675781	-0.088135	0.623291	0.097395	0.018013	-0.003592	-0.042903	-0.808047	-0.090060	-0.580611	151.633801	-68.527565	32.256080
24259		9.942722	1.899227	-0.191509	3.141898	0.102585	-0.188880	-0.002884	-1.356563	-0.505519	-0.667969	-0.090332	0.626221	0.099485	0.018741	-0.001241	-0.044968	-0.811773	-0.091760	-0.574963	151.931448	-67.702483	31.933690
24260		9.852837	1.511478	-0.169939	3.222528	0.516493	-0.392565	-0.219385	-1.407379	-0.443774	-0.653564	-0.086426	0.627686	0.098570	0.014895	-0.001022	-0.047756	-0.815575	-0.092562	-0.569200	152.190418	-66.869168	31.516011
24261		9.311855	1.310302	-0.667751	2.683577	0.636254	-0.797960	-0.181335	-1.486697	-0.443134	-0.644775	-0.089600	0.639404	0.093194	0.012891	-0.005997	-0.050420	-0.819569	-0.093455	-0.563055	152.495325	-65.993703	31.070249
24262		9.137364	1.690648	-1.249128	2.254506	0.267035	-0.715775	-0.033106	-1.634875	-0.545125	-0.635742	-0.106934	0.652344	0.091517	0.016655	-0.011746	-0.052830	-0.823909	-0.095129	-0.556178	152.828678	-65.016286	30.682408
24263		9.547553	1.958234	-1.905738	1.976451	0.147984	-0.081747	-0.114885	-1.763018	-0.648819	-0.621094	-0.097900	0.667236	0.095701	0.019261	-0.018226	-0.055923	-0.828471	-0.096971	-0.548731	153.048092	-63.944535	30.366367
24264		10.338672	1.431935	-2.537099	1.816231	0.909646	0.734625	-0.321209	-1.801490	-0.669404	-0.621338	-0.110352	0.674805	0.103657	0.013933	-0.024461	-0.059939	-0.832990	-0.098303	-0.541176	153.129453	-62.848596	30.068850
24265		10.716466	0.292705	-3.010497	1.603955	2.189012	0.986542	-0.395986	-1.754505	-0.590305	-0.594727	-0.114502	0.683838	0.107431	0.002552	-0.029169	-0.064023	-0.837324	-0.099119	-0.533821	153.206845	-61.795970	29.725581
24266		10.535668	-0.473061	-3.405435	1.280253	2.971137	0.786890	-0.223750	-1.702022	-0.539396	-0.581055	-0.125977	0.690918	0.105628	-0.005053	-0.033151	-0.067220	-0.841524	-0.100179	-0.526576	153.388720	-60.783936	29.371341
24267		10.179275	-0.418074	-3.629210	1.113003	2.905620	0.544870	0.032466	-1.733059	-0.588537	-0.572021	-0.114990	0.710693	0.102089	-0.004475	-0.035409	-0.069479	-0.845800	-0.102109	-0.519007	153.667048	-59.741867	29.072068
24268		10.018707	-0.072901	-3.676031	1.217238	2.604297	0.464741	0.077721	-1.804557	-0.670490	-0.553955	-0.118164	0.714844	0.100510	-0.001052	-0.035855	-0.071789	-0.850158	-0.104462	-0.511044	153.912261	-58.642529	28.837700
24269		10.034723	-0.277560	-3.457805	1.581796	2.879814	0.283356	-0.022015	-1.857238	-0.677945	-0.544189	-0.129639	0.722900	0.100652	-0.003120	-0.033644	-0.074558	-0.854531	-0.106572	-0.502853	154.100454	-57.513117	28.601697
24270		10.231815	-0.688628	-2.958451	2.256114	3.394100	0.051534	0.017756	-1.923641	-0.681896	-0.529053	-0.127197	0.733887	0.102572	-0.007233	-0.028599	-0.077200	-0.858995	-0.108754	-0.494308	154.318539	-56.348651	28.352864
24271		10.722022	-0.919575	-2.363077	3.178357	3.802885	0.027198	0.084224	-1.982127	-0.645904	-0.505859	-0.125000	0.742188	0.107417	-0.009533	-0.022571	-0.079487	-0.863558	-0.110919	-0.485435	154.607051	-55.161788	28.062528
24272		11.346407	-1.260406	-1.537941	4.358496	4.340089	-0.073221	0.092722	-2.023381	-0.603090	-0.486816	-0.132324	0.746338	0.113573	-0.012940	-0.014237	-0.081651	-0.868151	-0.112884	-0.476344	154.926070	-53.963611	27.735433
24273		12.034874	-1.660714	-0.339021	5.881208	4.933538	-0.390518	0.165285	-2.053122	-0.617653	-0.473145	-0.134277	0.759521	0.120323	-0.016977	-0.002169	-0.083536	-0.872738	-0.115066	-0.467022	155.265964	-52.745297	27.430316
24274		12.548502	-1.972504	1.016823	7.442200	5.382353	-0.979384	0.243155	-2.110661	-0.629707	-0.457031	-0.131104	0.766113	0.125306	-0.020133	0.011467	-0.085139	-0.877380	-0.117438	-0.457345	155.638886	-51.493113	27.133582
24275		13.336685	-2.395555	2.611235	9.323644	6.000353	-1.597981	0.275067	-2.256036	-0.654582	-0.434082	-0.140381	0.777344	0.132982	-0.024428	0.027580	-0.086725	-0.882236	-0.119919	-0.446943	156.035826	-50.158355	26.825344
24276		14.452783	-3.458365	4.384943	11.441238	7.303945	-2.342082	0.155437	-2.361749	-0.613705	-0.415283	-0.136963	0.792480	0.143890	-0.035061	0.045524	-0.088806	-0.887174	-0.121885	-0.436096	156.395503	-48.775905	26.468493
24277		14.699039	-4.391678	4.485133	11.725769	8.291368	-2.797608	0.181551	-2.526075	-0.541091	-0.393311	-0.138916	0.798828	0.146289	-0.044355	0.046662	-0.090690	-0.892382	-0.123494	-0.424476	156.831122	-47.323206	26.022872
24278		14.220917	-3.290852	4.130495	11.511417	7.149610	-2.995016	0.426308	-2.807539	-0.632223	-0.362793	-0.135254	0.813232	0.141506	-0.033447	0.043224	-0.091840	-0.898075	-0.125877	-0.411318	157.390892	-45.697865	25.587188
24279		14.097337	-1.608959	2.530955	10.694288	5.659744	-1.982594	0.350088	-3.191093	-0.839106	-0.343018	-0.140137	0.818359	0.140477	-0.016727	0.027525	-0.093964	-0.904166	-0.128825	-0.396306	157.849279	-43.823786	25.221752
24280		14.685125	-0.798422	-0.217111	9.469156	5.344587	0.091084	0.017294	-3.434757	-1.084431	-0.304932	-0.138184	0.827148	0.146813	-0.008780	0.000350	-0.098221	-0.910160	-0.132071	-0.380157	158.017260	-41.763931	24.988194
24281		15.243602	-0.598207	-3.297641	8.047992	5.718726	2.274388	-0.107680	-3.503980	-1.318600	-0.270752	-0.140869	0.828613	0.152939	-0.007006	-0.030296	-0.103488	-0.915754	-0.136064	-0.363554	158.006840	-39.619839	24.910450
24282		15.083512	-0.159221	-6.141972	6.473336	5.716220	3.995031	-0.139500	-3.359631	-1.446151	-0.245117	-0.142578	0.842773	0.151821	-0.002729	-0.058873	-0.109014	-0.920675	-0.140613	-0.347421	157.896358	-37.522029	24.958432
24283		13.923771	0.807652	-8.042858	4.978263	4.848653	4.709547	0.109841	-2.994981	-1.546777	-0.209473	-0.142090	0.841797	0.140478	0.007037	-0.078327	-0.113255	-0.924734	-0.146215	-0.332657	157.836734	-35.599732	25.166402
