// General information: 
//  MT Manager version: 2019.2.0 
//  XDA version: 2019.2.0 build 3853 rev 94535 built on 2019-09-09
// Device information: 
//  DeviceId: 00B47793
//  ProductCode: MTW2-3A7G6
//  Firmware Version: 4.6.0
//  Hardware Version: 2.0.0
// Device settings: 
//  Filter Profile: human(46.1)
//  Option Flags: Orientation Smoother Disabled, AHS Disabled, ICC Disabled
// Coordinate system: ENU
PacketCounter	SampleTimeFine	Acc_X	Acc_Y	Acc_Z	FreeAcc_E	FreeAcc_N	FreeAcc_U	Gyr_X	Gyr_Y	Gyr_Z	Mag_X	Mag_Y	Mag_Z	VelInc_X	VelInc_Y	VelInc_Z	Quat_q0	Quat_q1	Quat_q2	Quat_q3	Roll	Pitch	Yaw
54359		4.170068	-2.933290	8.408505	-0.017537	0.018035	0.020724	0.003954	0.000014	-0.008596	-0.843994	0.565674	-0.726318	0.041699	-0.029336	0.084084	-0.429793	-0.126704	0.236461	-0.862155	-19.242112	-24.944138	131.301065
54360		4.158568	-2.934014	8.441105	-0.009675	-0.006225	0.043998	0.004806	0.000803	-0.007043	-0.836426	0.565186	-0.729492	0.041585	-0.029344	0.084410	-0.429810	-0.126691	0.236462	-0.862147	-19.242328	-24.943226	131.298665
54361		4.153381	-2.947838	8.401856	0.003813	0.017653	0.012341	0.003812	-0.002496	-0.008268	-0.840576	0.561279	-0.734619	0.041532	-0.029482	0.084019	-0.429806	-0.126695	0.236471	-0.862147	-19.243204	-24.944041	131.299435
54362		4.175906	-2.944840	8.428378	-0.011556	0.017753	0.043649	0.006712	-0.000445	-0.011178	-0.843994	0.566162	-0.731445	0.041757	-0.029454	0.084283	-0.429808	-0.126702	0.236457	-0.862148	-19.241340	-24.944116	131.298908
54363		4.171132	-2.930423	8.408977	-0.020746	0.017105	0.020720	0.000369	0.002295	-0.005376	-0.845215	0.567627	-0.726563	0.041711	-0.029306	0.084089	-0.429799	-0.126675	0.236472	-0.862153	-19.244496	-24.941794	131.300405
54364		4.171412	-2.929853	8.409037	-0.021552	0.016850	0.020718	0.005605	-0.003638	-0.009880	-0.843506	0.572021	-0.721924	0.041711	-0.029303	0.084090	-0.429803	-0.126690	0.236475	-0.862148	-19.244082	-24.943645	131.299932
54365		4.171370	-2.957415	8.389250	0.000312	0.041145	0.011999	0.002135	-0.001463	-0.009182	-0.838379	0.565430	-0.728516	0.041712	-0.029577	0.083892	-0.429805	-0.126688	0.236488	-0.862143	-19.245599	-24.944075	131.299942
54366		4.188934	-2.940920	8.396134	-0.023455	0.040750	0.020371	0.002135	-0.001464	-0.009182	-0.843018	0.570313	-0.728027	0.041887	-0.029412	0.083961	-0.429797	-0.126688	0.236502	-0.862144	-19.247364	-24.944596	131.301307
54367		4.160238	-2.957628	8.421851	0.007289	0.016639	0.035276	0.004946	0.003310	-0.007375	-0.843994	0.568604	-0.726318	0.041603	-0.029580	0.084217	-0.429795	-0.126669	0.236493	-0.862150	-19.247306	-24.942102	131.301400
54368		4.160792	-2.928743	8.441840	-0.016213	-0.008169	0.043988	0.002161	0.001152	-0.006988	-0.843506	0.566162	-0.729004	0.041607	-0.029290	0.084418	-0.429785	-0.126654	0.236503	-0.862154	-19.249336	-24.940813	131.302921
54369		4.138257	-2.958662	8.395758	0.020220	0.015850	0.003979	0.001564	0.002761	-0.011395	-0.841553	0.567627	-0.735107	0.041382	-0.029590	0.083957	-0.429802	-0.126635	0.236507	-0.862148	-19.250252	-24.939376	131.300730
54370		4.138903	-2.929898	8.415655	-0.003269	-0.008911	0.012687	0.001195	0.000468	-0.006018	-0.845703	0.568604	-0.733643	0.041388	-0.029301	0.084156	-0.429789	-0.126619	0.236521	-0.862152	-19.252894	-24.938098	131.302653
54371		4.144188	-2.942926	8.435293	0.004278	-0.008735	0.035621	0.007539	-0.002274	-0.011823	-0.842285	0.572998	-0.724854	0.041439	-0.029435	0.084352	-0.429798	-0.126635	0.236511	-0.862148	-19.250722	-24.939465	131.301256
54372		4.156150	-2.940706	8.402986	-0.005176	0.015001	0.012345	0.003013	0.001942	-0.005436	-0.845459	0.565674	-0.729492	0.041562	-0.029409	0.084029	-0.429779	-0.126618	0.236515	-0.862159	-19.252582	-24.937394	131.303996
54373		4.156245	-2.940173	8.403126	-0.005989	0.014766	0.012345	0.002276	0.001042	-0.009514	-0.850098	0.572754	-0.735596	0.041561	-0.029405	0.084031	-0.429785	-0.126605	0.236521	-0.862156	-19.253715	-24.936532	131.303286
54374		4.144829	-2.940956	8.435665	0.001828	-0.009482	0.035621	0.003102	-0.000784	-0.010155	-0.843994	0.568359	-0.729736	0.041446	-0.029413	0.084356	-0.429796	-0.126603	0.236529	-0.862149	-19.254386	-24.936870	131.301865
54375		4.173477	-2.951369	8.390331	-0.007875	0.038693	0.012005	0.000343	-0.000326	-0.007573	-0.849854	0.569824	-0.732666	0.041734	-0.029515	0.083903	-0.429794	-0.126590	0.236548	-0.862147	-19.257235	-24.936380	131.302597
54376		4.173729	-2.950851	8.390388	-0.008682	0.038438	0.012006	0.003954	0.000007	-0.008602	-0.838867	0.569336	-0.736816	0.041736	-0.029512	0.083903	-0.429798	-0.126584	0.236552	-0.862145	-19.257775	-24.936013	131.302110
54377		4.140699	-2.925539	8.416288	-0.008953	-0.010617	0.012682	0.002988	-0.000676	-0.007632	-0.848877	0.567871	-0.726807	0.041406	-0.029258	0.084163	-0.429793	-0.126578	0.236560	-0.862146	-19.259124	-24.935724	131.302880
54378		4.162686	-2.951082	8.422937	-0.001698	0.013968	0.035283	0.002849	-0.003185	-0.007302	-0.843262	0.574951	-0.733154	0.041624	-0.029514	0.084230	-0.429781	-0.126583	0.236574	-0.862147	-19.260883	-24.936707	131.304852
54379		4.180381	-2.934414	8.429796	-0.025455	0.013589	0.043630	0.005608	-0.003644	-0.009885	-0.843262	0.572021	-0.728027	0.041801	-0.029349	0.084298	-0.429781	-0.126599	0.236576	-0.862144	-19.260426	-24.938449	131.304897
54380		4.146358	-2.965755	8.416105	0.019576	0.013619	0.026938	0.000368	0.002290	-0.005380	-0.847168	0.568848	-0.734619	0.041464	-0.029659	0.084161	-0.429752	-0.126576	0.236590	-0.862158	-19.263869	-24.936080	131.309080
54381		4.163806	-2.949290	8.423011	-0.004182	0.013238	0.035283	0.004642	-0.004328	-0.008915	-0.844727	0.567871	-0.730713	0.041635	-0.029497	0.084230	-0.429748	-0.126591	0.236598	-0.862156	-19.264269	-24.938009	131.309846
54382		4.159370	-2.934762	8.403471	-0.013328	0.012591	0.012341	0.004781	-0.001820	-0.009245	-0.851074	0.570068	-0.734619	0.041592	-0.029352	0.084034	-0.429751	-0.126595	0.236601	-0.862153	-19.264253	-24.938673	131.309407
54383		4.164657	-2.947888	8.423082	-0.005805	0.012766	0.035283	0.001309	0.000354	-0.008546	-0.846680	0.567139	-0.733398	0.041645	-0.029481	0.084231	-0.429753	-0.126583	0.236614	-0.862150	-19.266244	-24.937999	131.309417
54384		4.153405	-2.948686	8.455540	0.002015	-0.011474	0.058561	0.003078	-0.003407	-0.012354	-0.845703	0.568115	-0.732910	0.041531	-0.029491	0.084556	-0.429776	-0.126592	0.236626	-0.862134	-19.266515	-24.940169	131.306544
54385		4.165602	-2.946539	8.423086	-0.007415	0.012291	0.035283	0.003102	-0.000789	-0.010159	-0.843750	0.565674	-0.733398	0.041654	-0.029469	0.084231	-0.429783	-0.126590	0.236632	-0.862129	-19.267173	-24.940419	131.305830
54386		4.161028	-2.932054	8.403595	-0.016550	0.011660	0.012337	0.004781	-0.001822	-0.009247	-0.846680	0.569336	-0.731201	0.041608	-0.029324	0.084036	-0.429787	-0.126595	0.236634	-0.862126	-19.267083	-24.941031	131.305313
54387		4.144381	-2.947300	8.396733	0.005585	0.011578	0.004004	0.002964	-0.003299	-0.009830	-0.846436	0.565674	-0.736328	0.041441	-0.029476	0.083968	-0.429789	-0.126603	0.236647	-0.862121	-19.268123	-24.942575	131.305318
54388		4.149937	-2.960278	8.416269	0.013114	0.011762	0.026952	0.005609	-0.003649	-0.009889	-0.850586	0.574219	-0.730957	0.041496	-0.029607	0.084163	-0.429796	-0.126617	0.236649	-0.862114	-19.267558	-24.944337	131.304409
54389		4.162047	-2.958248	8.383816	0.003688	0.035528	0.003674	0.000343	-0.000332	-0.007577	-0.841797	0.568848	-0.739258	0.041619	-0.029584	0.083838	-0.429793	-0.126604	0.236668	-0.862112	-19.270406	-24.943852	131.305140
54390		4.162935	-2.929446	8.403561	-0.019803	0.010731	0.012332	0.002964	-0.003300	-0.009831	-0.848389	0.570313	-0.726563	0.041627	-0.029298	0.084036	-0.429787	-0.126613	0.236680	-0.862111	-19.271495	-24.945308	131.306244
54391		4.129170	-2.960736	8.389808	0.025286	0.010816	-0.004317	0.003816	-0.002507	-0.008277	-0.846924	0.574951	-0.733154	0.041289	-0.029611	0.083898	-0.429782	-0.126618	0.236688	-0.862110	-19.272369	-24.946131	131.307011
54392		4.163479	-2.956425	8.383748	0.001219	0.034788	0.003678	0.002964	-0.003301	-0.009832	-0.845459	0.571533	-0.728516	0.041632	-0.029568	0.083838	-0.429780	-0.126628	0.236703	-0.862106	-19.273650	-24.947825	131.307643
54393		4.174439	-2.954938	8.442602	-0.005620	0.010797	0.058228	0.002250	-0.001588	-0.011717	-0.849854	0.573486	-0.729492	0.041742	-0.029553	0.084426	-0.429793	-0.126629	0.236713	-0.862096	-19.274474	-24.948801	131.306167
54394		4.131256	-2.930277	8.409539	0.000171	-0.014551	0.004336	0.005724	-0.003763	-0.012418	-0.837158	0.572510	-0.728760	0.041309	-0.029308	0.084095	-0.429800	-0.126650	0.236716	-0.862089	-19.273580	-24.951262	131.305269
54395		4.187213	-2.951841	8.410186	-0.015872	0.034277	0.034948	0.004667	-0.001715	-0.006725	-0.846436	0.571289	-0.729980	0.041870	-0.029522	0.084102	-0.429789	-0.126651	0.236719	-0.862093	-19.274287	-24.951363	131.306797
54396		4.153845	-2.954718	8.416295	0.006525	0.009781	0.026960	0.004896	-0.001939	-0.011778	-0.855225	0.564941	-0.729736	0.041536	-0.029552	0.084163	-0.429780	-0.126664	0.236719	-0.862096	-19.273867	-24.952475	131.307990
54397		4.166019	-2.952578	8.383842	-0.002897	0.033547	0.003682	0.002850	-0.003193	-0.007308	-0.847168	0.560547	-0.733643	0.041658	-0.029528	0.083839	-0.429771	-0.126668	0.236733	-0.862096	-19.275598	-24.953485	131.309479
54398		4.133068	-2.927386	8.409656	-0.003037	-0.015515	0.004334	0.002988	-0.000684	-0.007639	-0.841553	0.566895	-0.732910	0.041329	-0.029277	0.084096	-0.429805	-0.126656	0.236746	-0.862077	-19.276621	-24.953517	131.305119
54399		4.171806	-2.965082	8.403438	0.003857	0.033479	0.026637	0.003930	-0.002623	-0.010807	-0.841553	0.565430	-0.724365	0.041715	-0.029655	0.084034	-0.429812	-0.126664	0.236752	-0.862071	-19.276803	-24.954881	131.304401
54400		4.150585	-2.938306	8.396821	-0.004960	0.008425	0.004008	0.004667	-0.001716	-0.006726	-0.845459	0.572510	-0.725342	0.041504	-0.029386	0.083968	-0.429800	-0.126666	0.236756	-0.862076	-19.277511	-24.954988	131.306096
54401		4.172532	-2.963785	8.403535	0.002227	0.033008	0.026639	0.001308	0.000345	-0.008553	-0.844482	0.574951	-0.729004	0.041724	-0.029640	0.084035	-0.429801	-0.126653	0.236769	-0.862073	-19.279501	-24.954321	131.306104
54402		4.156684	-2.922542	8.436231	-0.020971	-0.016279	0.035590	0.005496	-0.003543	-0.007368	-0.848877	0.569336	-0.735352	0.041564	-0.029229	0.084362	-0.429776	-0.126669	0.236774	-0.862082	-19.280124	-24.955649	131.309723
54403		4.145102	-2.951555	8.448918	0.009472	-0.015930	0.050244	0.002965	-0.003308	-0.009836	-0.841309	0.576660	-0.726318	0.041448	-0.029519	0.084489	-0.429778	-0.126677	0.236787	-0.862077	-19.281164	-24.957201	131.309727
54404		4.157170	-2.949577	8.416456	0.000025	0.007814	0.026964	0.001307	0.000344	-0.008554	-0.849854	0.579346	-0.733398	0.041571	-0.029498	0.084164	-0.429765	-0.126667	0.236799	-0.862081	-19.283392	-24.956522	131.311704
54405		4.162537	-2.962968	8.435954	0.007504	0.007986	0.049923	-0.002325	-0.002613	-0.009718	-0.855713	0.571533	-0.732666	0.041623	-0.029631	0.084360	-0.429770	-0.126661	0.236833	-0.862070	-19.287431	-24.957675	131.311634
54406		4.174873	-2.961183	8.403289	-0.001920	0.031706	0.026643	0.000298	-0.005583	-0.011975	-0.851318	0.565186	-0.722656	0.041745	-0.029614	0.084034	-0.429779	-0.126677	0.236863	-0.862055	-19.289892	-24.961048	131.311096
54407		4.192172	-2.973007	8.390244	-0.003047	0.055880	0.026324	0.001171	-0.002166	-0.008224	-0.841309	0.565430	-0.736328	0.041920	-0.029732	0.083903	-0.429776	-0.126674	0.236882	-0.862051	-19.292265	-24.961676	131.311825
54408		4.164299	-2.961447	8.435618	0.005084	0.007224	0.049925	0.004896	-0.001945	-0.011784	-0.850098	0.576660	-0.730713	0.041640	-0.029619	0.084356	-0.429804	-0.126680	0.236884	-0.862036	-19.291461	-24.963022	131.308117
54409		4.176238	-2.959223	8.403302	-0.004332	0.030992	0.026645	0.005655	0.001587	-0.005506	-0.839355	0.569824	-0.731445	0.041762	-0.029596	0.084032	-0.429792	-0.126668	0.236878	-0.862046	-19.291619	-24.961106	131.309684
54410		4.176856	-2.930152	8.423230	-0.027829	0.006140	0.035252	0.004066	-0.000120	-0.011143	-0.843750	0.564941	-0.726807	0.041767	-0.029306	0.084232	-0.429785	-0.126670	0.236877	-0.862049	-19.291653	-24.961130	131.310502
54411		4.159944	-2.945294	8.416586	-0.005680	0.006093	0.026964	0.008300	0.001239	-0.005566	-0.844971	0.572754	-0.734131	0.041599	-0.029458	0.084164	-0.429771	-0.126665	0.236860	-0.862062	-19.290311	-24.959414	131.312105
54412		4.194018	-2.940667	8.410710	-0.029780	0.030071	0.034930	0.004896	-0.001948	-0.011786	-0.841797	0.570313	-0.728027	0.041938	-0.029411	0.084107	-0.429780	-0.126674	0.236860	-0.862056	-19.289667	-24.960609	131.310879
54413		4.172294	-2.942053	8.384421	-0.015909	0.029620	0.003682	0.006598	-0.000355	-0.008677	-0.849854	0.571045	-0.728027	0.041722	-0.029425	0.083843	-0.429778	-0.126676	0.236852	-0.862059	-19.288658	-24.960344	131.310959
54414		4.165886	-2.956326	8.436631	0.000145	0.005750	0.049927	0.006484	-0.000241	-0.006149	-0.853760	0.568848	-0.732666	0.041658	-0.029567	0.084365	-0.429763	-0.126675	0.236846	-0.862068	-19.288531	-24.959684	131.312935
54415		4.172851	-2.940401	8.384724	-0.017542	0.029111	0.003681	0.004782	-0.001835	-0.009259	-0.844482	0.572754	-0.730957	0.041726	-0.029408	0.083847	-0.429763	-0.126680	0.236848	-0.862067	-19.288546	-24.960330	131.312977
54416		4.139448	-2.943392	8.390846	0.004945	0.004640	-0.004281	0.004668	-0.001721	-0.006731	-0.845215	0.567383	-0.725830	0.041393	-0.029437	0.083908	-0.429757	-0.126681	0.236854	-0.862068	-19.289307	-24.960569	131.313899
54417		4.144896	-2.956386	8.410452	0.012404	0.004812	0.018686	0.005498	-0.003548	-0.007373	-0.843018	0.578369	-0.727295	0.041446	-0.029568	0.084104	-0.429746	-0.126693	0.236858	-0.862070	-19.289537	-24.961783	131.315424
54418		4.162037	-2.968020	8.397560	0.011234	0.028937	0.018373	0.002137	-0.001490	-0.009200	-0.841309	0.570068	-0.725586	0.041618	-0.029683	0.083976	-0.429733	-0.126694	0.236871	-0.862073	-19.291408	-24.962337	131.317462
54419		4.146251	-2.926788	8.430176	-0.011894	-0.020319	0.027272	0.002967	-0.003317	-0.009842	-0.847168	0.569336	-0.730469	0.041460	-0.029271	0.084302	-0.429735	-0.126702	0.236884	-0.862067	-19.292446	-24.963894	131.317466
54420		4.158083	-2.952930	8.377951	0.001333	0.028037	-0.004592	0.005613	-0.003664	-0.009903	-0.845459	0.569336	-0.726807	0.041578	-0.029534	0.083779	-0.429732	-0.126719	0.236887	-0.862066	-19.292126	-24.965737	131.318002
54421		4.164090	-2.937481	8.417266	-0.013857	0.003592	0.026957	0.003932	-0.002636	-0.010817	-0.843994	0.571289	-0.735107	0.041638	-0.029379	0.084173	-0.429738	-0.126728	0.236893	-0.862059	-19.292307	-24.967110	131.317283
54422		4.164264	-2.964969	8.397535	0.007957	0.027968	0.018379	0.004046	-0.002752	-0.013346	-0.847412	0.567627	-0.735596	0.041640	-0.029654	0.083975	-0.429750	-0.126741	0.236898	-0.862051	-19.291873	-24.969007	131.315844
54423		4.165096	-2.935787	8.417359	-0.015497	0.003114	0.026955	0.004917	0.000669	-0.009595	-0.840332	0.568115	-0.724854	0.041650	-0.029362	0.084173	-0.429754	-0.126736	0.236894	-0.862050	-19.291505	-24.968362	131.315163
54424		4.160345	-2.921274	8.397933	-0.024565	0.002474	0.003982	0.004066	-0.000129	-0.011150	-0.843994	0.576904	-0.734619	0.041602	-0.029217	0.083979	-0.429766	-0.126734	0.236894	-0.862045	-19.291287	-24.968443	131.313575
54425		4.148611	-2.950149	8.410811	0.005851	0.002855	0.018693	0.005031	0.000552	-0.012125	-0.847412	0.572021	-0.731934	0.041485	-0.029506	0.084107	-0.429781	-0.126733	0.236888	-0.862039	-19.290227	-24.968340	131.311410
54426		4.182791	-2.945661	8.404807	-0.018314	0.026809	0.026641	0.002854	-0.003205	-0.007316	-0.846436	0.566162	-0.732178	0.041825	-0.029459	0.084048	-0.429753	-0.126741	0.236901	-0.862048	-19.292171	-24.969243	131.315517
54427		4.149364	-2.948909	8.410874	0.004186	0.002379	0.018694	0.001306	0.000332	-0.008562	-0.844971	0.570068	-0.723389	0.041493	-0.029491	0.084108	-0.429754	-0.126729	0.236914	-0.862046	-19.294162	-24.968584	131.315524
54428		4.166863	-2.932190	8.417738	-0.019590	0.001899	0.026948	0.005614	-0.003668	-0.009907	-0.843262	0.567383	-0.732178	0.041666	-0.029326	0.084177	-0.429761	-0.126743	0.236918	-0.862039	-19.293754	-24.970516	131.314729
54429		4.166814	-2.959782	8.398099	0.002230	0.026291	0.018387	0.003121	0.001812	-0.007981	-0.843994	0.577148	-0.719727	0.041668	-0.029601	0.083980	-0.429761	-0.126728	0.236920	-0.862041	-19.294721	-24.968948	131.314772
54430		4.184083	-2.943152	8.405043	-0.021590	0.025786	0.026637	0.002988	-0.000697	-0.007649	-0.845215	0.570801	-0.733398	0.041839	-0.029434	0.084050	-0.429742	-0.126726	0.236929	-0.862048	-19.296410	-24.968782	131.317513
54431		4.172311	-2.972265	8.417873	0.008816	0.026177	0.041365	0.003952	-0.000016	-0.008624	-0.840820	0.568359	-0.728027	0.041722	-0.029726	0.084178	-0.429742	-0.126720	0.236932	-0.862048	-19.296900	-24.968324	131.317555
54432		4.150827	-2.945595	8.411313	0.000091	0.001131	0.018695	0.003952	-0.000016	-0.008624	-0.844727	0.567627	-0.730225	0.041507	-0.029459	0.084113	-0.429735	-0.126716	0.236933	-0.862052	-19.297441	-24.967793	131.318490
54433		4.167724	-2.957117	8.398586	-0.001071	0.025305	0.018390	0.004199	0.002374	-0.011487	-0.849121	0.567139	-0.733398	0.041677	-0.029575	0.083985	-0.429750	-0.126705	0.236927	-0.862048	-19.296858	-24.966584	131.316325
54434		4.150960	-2.972484	8.391845	0.021118	0.025299	0.010149	0.002855	-0.003207	-0.007318	-0.846680	0.572510	-0.734375	0.041507	-0.029728	0.083919	-0.429754	-0.126707	0.236943	-0.862041	-19.298461	-24.967680	131.316190
54435		4.168252	-2.955795	8.398790	-0.002676	0.024838	0.018391	0.004935	0.003290	-0.007403	-0.847168	0.562988	-0.730469	0.041683	-0.029562	0.083986	-0.429752	-0.126688	0.236934	-0.862047	-19.298404	-24.965202	131.316269
54436		4.190974	-2.924274	8.445086	-0.040848	0.000148	0.058151	0.004898	-0.001963	-0.011798	-0.847900	0.562500	-0.731445	0.041907	-0.029247	0.084451	-0.429773	-0.126695	0.236935	-0.862036	-19.297599	-24.966446	131.313425
54437		4.174440	-2.939549	8.438264	-0.018682	0.000139	0.049911	0.002970	-0.003327	-0.009849	-0.845459	0.568115	-0.728027	0.041742	-0.029399	0.084383	-0.429775	-0.126703	0.236948	-0.862030	-19.298636	-24.968010	131.313428
54438		4.191615	-2.951151	8.425373	-0.019812	0.024308	0.049607	0.003102	-0.000819	-0.010182	-0.843506	0.571289	-0.729736	0.041914	-0.029515	0.084253	-0.429801	-0.126698	0.236957	-0.862015	-19.299129	-24.968453	131.310083
54439		4.170112	-2.924496	8.418806	-0.028503	-0.000743	0.026926	0.004802	0.000780	-0.007072	-0.852051	0.575928	-0.727539	0.041700	-0.029248	0.084187	-0.429794	-0.126689	0.236955	-0.862020	-19.299453	-24.967270	131.310884
54440		4.157946	-2.981952	8.411958	0.024504	0.024248	0.033144	0.002988	-0.000701	-0.007653	-0.841309	0.566406	-0.733398	0.041578	-0.029822	0.084119	-0.429782	-0.126686	0.236965	-0.862024	-19.301100	-24.967164	131.312817
54441		4.175733	-2.937038	8.438499	-0.021923	-0.000865	0.049905	0.001174	-0.002183	-0.008233	-0.845703	0.570801	-0.726074	0.041755	-0.029373	0.084385	-0.429779	-0.126683	0.236984	-0.862021	-19.303471	-24.967804	131.313545
54442		4.159165	-2.952621	8.431599	0.000242	-0.000868	0.041676	0.003574	-0.004919	-0.005432	-0.844482	0.563965	-0.724365	0.041589	-0.029529	0.084316	-0.429758	-0.126695	0.237000	-0.862025	-19.305441	-24.969388	131.316786
54443		4.183397	-2.920866	8.386296	-0.040359	0.022261	0.003631	0.002970	-0.003330	-0.009851	-0.841309	0.566162	-0.729980	0.041831	-0.029212	0.083863	-0.429760	-0.126703	0.237013	-0.862020	-19.306477	-24.970954	131.316788
54444		4.171846	-2.949951	8.399060	-0.009945	0.022660	0.018391	0.004670	-0.001729	-0.006740	-0.843018	0.576172	-0.723633	0.041717	-0.029503	0.083990	-0.429760	-0.126703	0.237018	-0.862018	-19.307104	-24.971178	131.316850
54445		4.193917	-2.975391	8.405775	-0.002905	0.047237	0.041079	0.000342	-0.000358	-0.007592	-0.843506	0.563232	-0.723633	0.041938	-0.029756	0.084058	-0.429758	-0.126690	0.237037	-0.862016	-19.309952	-24.970709	131.317578
54446		4.143703	-2.966468	8.424770	0.019983	-0.001632	0.033457	0.002988	-0.000703	-0.007654	-0.846436	0.570557	-0.733154	0.041436	-0.029668	0.084247	-0.429749	-0.126686	0.237048	-0.862018	-19.311579	-24.970655	131.318980
54447		4.177763	-2.962091	8.418755	-0.004185	0.022300	0.041378	0.002988	-0.000704	-0.007655	-0.844727	0.574707	-0.724609	0.041776	-0.029624	0.084187	-0.429744	-0.126681	0.237056	-0.862019	-19.312926	-24.970385	131.319744
54448		4.150902	-2.950253	8.372813	0.001546	0.021470	-0.012814	0.003707	-0.002411	-0.005766	-0.844482	0.564453	-0.730713	0.041507	-0.029505	0.083728	-0.429719	-0.126685	0.237067	-0.862028	-19.314727	-24.970747	131.323441
54449		4.178307	-2.961067	8.418845	-0.005838	0.021794	0.041378	0.000473	0.002149	-0.007926	-0.841309	0.577881	-0.732422	0.041783	-0.029613	0.084188	-0.429721	-0.126662	0.237080	-0.862027	-19.317195	-24.968986	131.323446
54450		4.173639	-2.946827	8.399266	-0.014888	0.021165	0.018388	0.003804	-0.005160	-0.010496	-0.847900	0.569580	-0.724609	0.041733	-0.029472	0.083993	-0.429709	-0.126683	0.237091	-0.862026	-19.317840	-24.971523	131.325223
54451		4.140351	-2.950032	8.405317	0.007659	-0.003230	0.010473	0.001306	0.000321	-0.008569	-0.849365	0.579590	-0.730957	0.041402	-0.029503	0.084053	-0.429711	-0.126670	0.237104	-0.862024	-19.319831	-24.970872	131.325227
54452		4.162775	-2.947288	8.431683	-0.007957	-0.003379	0.041673	0.000097	-0.002749	-0.004730	-0.848145	0.571533	-0.733887	0.041626	-0.029474	0.084317	-0.429684	-0.126667	0.237133	-0.862030	-19.324099	-24.971376	131.329436
54453		4.163133	-2.946848	8.431660	-0.008772	-0.003615	0.041672	0.004671	-0.001731	-0.006743	-0.845215	0.569092	-0.726318	0.041630	-0.029472	0.084316	-0.429674	-0.126668	0.237137	-0.862034	-19.324803	-24.971489	131.330959
54454		4.141264	-2.948637	8.405357	0.005212	-0.004014	0.010475	0.003838	0.000096	-0.006101	-0.839844	0.573486	-0.729004	0.041412	-0.029489	0.084053	-0.429665	-0.126659	0.237142	-0.862038	-19.326029	-24.970583	131.332212
54455		4.180424	-2.957861	8.418921	-0.010774	0.020306	0.041377	0.003821	-0.002533	-0.008299	-0.844482	0.563232	-0.722656	0.041802	-0.029582	0.084189	-0.429661	-0.126664	0.237150	-0.862037	-19.326899	-24.971424	131.332974
54456		4.175793	-2.943462	8.399375	-0.019788	0.019644	0.018383	0.004785	-0.001853	-0.009275	-0.846436	0.569824	-0.732178	0.041756	-0.029439	0.083993	-0.429660	-0.126670	0.237153	-0.862036	-19.327023	-24.972176	131.333200
54457		4.147456	-2.960282	8.425099	0.010965	-0.004340	0.033470	0.002988	-0.000707	-0.007657	-0.845215	0.570557	-0.726074	0.041473	-0.029606	0.084251	-0.429655	-0.126664	0.237162	-0.862036	-19.328370	-24.971908	131.333962
54458		4.176447	-2.942205	8.399490	-0.021415	0.019152	0.018380	0.001419	0.000198	-0.011103	-0.848389	0.573730	-0.746338	0.041763	-0.029425	0.083995	-0.429669	-0.126656	0.237174	-0.862028	-19.329740	-24.971899	131.332392
54459		4.181740	-2.955237	8.419189	-0.014040	0.019318	0.041375	0.006370	-0.000129	-0.003632	-0.842773	0.576172	-0.727051	0.041817	-0.029556	0.084191	-0.429645	-0.126650	0.237169	-0.862041	-19.330112	-24.970555	131.335435
54460		4.159945	-2.956759	8.392951	-0.000089	0.018973	0.010186	0.007545	-0.002320	-0.011871	-0.840332	0.570068	-0.736328	0.041597	-0.029573	0.083929	-0.429633	-0.126670	0.237155	-0.862048	-19.328007	-24.971671	131.336808
54461		4.148705	-2.957256	8.425547	0.007668	-0.005270	0.033473	0.003952	-0.000028	-0.008635	-0.840088	0.566162	-0.723877	0.041486	-0.029576	0.084255	-0.429633	-0.126664	0.237157	-0.862049	-19.328496	-24.971221	131.336846
54462		4.182804	-2.952610	8.419582	-0.016547	0.018661	0.041373	0.005749	-0.001175	-0.010254	-0.847656	0.565430	-0.735107	0.041826	-0.029531	0.084195	-0.429632	-0.126670	0.237151	-0.862050	-19.327617	-24.971536	131.336891
54463		4.149308	-2.955651	8.425813	0.006025	-0.005716	0.033474	0.004801	0.000774	-0.007079	-0.843506	0.564453	-0.725342	0.041492	-0.029560	0.084257	-0.429626	-0.126662	0.237149	-0.862055	-19.327940	-24.970358	131.337690
54464		4.182948	-2.979403	8.400209	0.004475	0.042878	0.032898	0.004915	0.000652	-0.009612	-0.845947	0.567627	-0.729736	0.041828	-0.029798	0.084001	-0.429653	-0.126652	0.237147	-0.862044	-19.327323	-24.969840	131.334020
54465		4.149681	-2.954140	8.426159	0.004438	-0.006175	0.033474	0.004801	0.000773	-0.007080	-0.842041	0.564209	-0.727783	0.041496	-0.029545	0.084261	-0.429646	-0.126643	0.237145	-0.862049	-19.327646	-24.968662	131.334818
54466		4.200730	-2.933425	8.427024	-0.042744	0.017455	0.049549	0.004066	-0.000152	-0.011169	-0.840576	0.563232	-0.724854	0.042006	-0.029338	0.084270	-0.429670	-0.126640	0.237147	-0.862037	-19.327315	-24.968855	131.331577
54467		4.150511	-2.952549	8.426308	0.002834	-0.006645	0.033474	0.003921	-0.005292	-0.013034	-0.833252	0.576660	-0.722656	0.041501	-0.029530	0.084264	-0.429683	-0.126662	0.237157	-0.862024	-19.327179	-24.972085	131.330092
54468		4.174162	-2.949057	8.361414	-0.015156	0.041111	-0.013101	0.002284	0.003625	-0.007353	-0.847656	0.571045	-0.735107	0.041742	-0.029493	0.083613	-0.429661	-0.126641	0.237159	-0.862038	-19.328941	-24.969357	131.333163
54469		4.179698	-2.933582	8.400889	-0.030407	0.016590	0.018361	0.006713	-0.000498	-0.011233	-0.843994	0.566895	-0.737305	0.041795	-0.029341	0.084008	-0.429670	-0.126646	0.237148	-0.862036	-19.327235	-24.969654	131.331749
54470		4.129157	-2.952634	8.400371	0.015191	-0.007453	0.002298	0.004195	0.002353	-0.011505	-0.846680	0.572266	-0.731201	0.041291	-0.029530	0.084003	-0.429689	-0.126633	0.237141	-0.862030	-19.326427	-24.968292	131.328945
54471		4.180238	-2.931837	8.401230	-0.032028	0.016162	0.018357	0.004787	-0.001860	-0.009281	-0.848389	0.570068	-0.725830	0.041800	-0.029322	0.084012	-0.429689	-0.126638	0.237143	-0.862029	-19.326437	-24.968955	131.328981
54472		4.168691	-2.960805	8.414109	-0.001667	0.016566	0.033191	0.004066	-0.000156	-0.011172	-0.840088	0.573242	-0.727539	0.041685	-0.029612	0.084141	-0.429702	-0.126637	0.237145	-0.862022	-19.326379	-24.969261	131.327319
54473		4.169136	-2.960010	8.414169	-0.002482	0.016331	0.033191	0.003938	-0.002665	-0.010838	-0.837646	0.574463	-0.725342	0.041689	-0.029604	0.084142	-0.429708	-0.126646	0.237152	-0.862015	-19.326554	-24.970655	131.326594
54474		4.169423	-2.959199	8.414312	-0.003363	0.016068	0.033191	0.005044	0.003155	-0.009952	-0.840088	0.567627	-0.724365	0.041694	-0.029596	0.084142	-0.429684	-0.126638	0.237140	-0.862032	-19.326228	-24.968608	131.329606
54475		4.152968	-2.946320	8.427278	-0.003774	-0.008577	0.033473	0.000328	-0.003003	-0.009799	-0.843506	0.567139	-0.728027	0.041527	-0.029465	0.084273	-0.429688	-0.126639	0.237163	-0.862024	-19.328763	-24.969987	131.329573
54476		4.165179	-2.944257	8.394750	-0.013146	0.015178	0.010183	0.005622	-0.003691	-0.009926	-0.850098	0.570801	-0.733643	0.041649	-0.029447	0.083947	-0.429691	-0.126654	0.237166	-0.862019	-19.328346	-24.971857	131.329237
54477		4.175410	-2.999159	8.414373	0.024951	0.040443	0.047760	0.002396	0.003496	-0.009890	-0.845947	0.567627	-0.730469	0.041754	-0.029995	0.084143	-0.429701	-0.126632	0.237167	-0.862017	-19.329099	-24.969739	131.327789
54478		4.153722	-2.972509	8.407856	0.016411	0.015395	0.025033	0.005030	0.000520	-0.012153	-0.846191	0.566895	-0.729004	0.041536	-0.029730	0.084078	-0.429727	-0.126629	0.237162	-0.862006	-19.327947	-24.969761	131.324209
54479		4.165977	-2.941930	8.395170	-0.015564	0.014469	0.010181	0.003104	-0.000841	-0.010199	-0.843506	0.578613	-0.737061	0.041658	-0.029423	0.083951	-0.429733	-0.126627	0.237169	-0.862001	-19.328600	-24.970047	131.323484
54480		4.149530	-2.928946	8.408165	-0.015992	-0.010171	0.010459	0.004915	0.000644	-0.009620	-0.845947	0.573975	-0.729248	0.041494	-0.029294	0.084081	-0.429725	-0.126625	0.237163	-0.862007	-19.328327	-24.969301	131.324516
54481		4.183410	-2.952616	8.382491	-0.017630	0.038411	0.009901	0.003939	-0.002670	-0.010842	-0.841797	0.570068	-0.736084	0.041831	-0.029530	0.083825	-0.429731	-0.126633	0.237170	-0.862001	-19.328501	-24.970697	131.323790
54482		4.149936	-2.955713	8.388721	0.004957	0.014074	0.002028	0.005043	0.003151	-0.009956	-0.839600	0.566406	-0.730713	0.041499	-0.029561	0.083886	-0.429728	-0.126620	0.237158	-0.862008	-19.327828	-24.968645	131.323983
54483		4.171943	-2.980814	8.395637	0.011871	0.038649	0.024764	0.003953	-0.000038	-0.008644	-0.844971	0.569824	-0.735107	0.041718	-0.029812	0.083956	-0.429728	-0.126615	0.237160	-0.862008	-19.328315	-24.968202	131.324018
54484		4.189471	-2.963764	8.402491	-0.011962	0.038147	0.032912	0.005853	-0.003946	-0.014998	-0.848633	0.577393	-0.726563	0.041891	-0.029643	0.084025	-0.429750	-0.126637	0.237157	-0.861994	-19.326333	-24.970917	131.320971
54485		4.156158	-2.966645	8.408723	0.010654	0.013804	0.025044	0.005157	0.003023	-0.012492	-0.837891	0.569580	-0.730713	0.041561	-0.029671	0.084086	-0.429770	-0.126626	0.237145	-0.861989	-19.324891	-24.969548	131.318071
54486		4.168204	-2.935923	8.396167	-0.021349	0.012835	0.010172	0.005878	0.001320	-0.010601	-0.847656	0.574707	-0.738281	0.041681	-0.029364	0.083961	-0.429759	-0.126626	0.237135	-0.861998	-19.323963	-24.968738	131.319280
54487		4.168505	-2.935000	8.396340	-0.022162	0.012599	0.010171	0.005752	-0.001189	-0.010266	-0.842773	0.563721	-0.729248	0.041683	-0.029355	0.083963	-0.429764	-0.126631	0.237130	-0.861996	-19.323113	-24.969224	131.318589
54488		4.190684	-2.959927	8.403239	-0.015261	0.037193	0.032911	0.005878	0.001319	-0.010602	-0.840820	0.564209	-0.734375	0.041906	-0.029604	0.084031	-0.429776	-0.126626	0.237120	-0.861993	-19.321773	-24.968344	131.316687
54489		4.179308	-2.960457	8.435891	-0.007522	0.012948	0.056201	0.005637	-0.001064	-0.007732	-0.843018	0.575439	-0.726318	0.041791	-0.029609	0.084358	-0.429770	-0.126627	0.237117	-0.861997	-19.321615	-24.968283	131.317481
54490		4.157886	-2.933701	8.429255	-0.016059	-0.012093	0.033457	0.005018	-0.002124	-0.014360	-0.848877	0.575928	-0.720703	0.041576	-0.029342	0.084292	-0.429784	-0.126641	0.237115	-0.861988	-19.320301	-24.969971	131.315522
54491		4.191994	-2.957304	8.403509	-0.017729	0.036489	0.032909	0.002979	-0.003357	-0.009869	-0.839844	0.570557	-0.719482	0.041917	-0.029576	0.084035	-0.429786	-0.126650	0.237128	-0.861983	-19.321330	-24.971554	131.315521
54492		4.175476	-2.944501	8.416466	-0.018137	0.011733	0.033181	0.002280	0.003613	-0.007363	-0.848145	0.567871	-0.725342	0.041755	-0.029448	0.084164	-0.429770	-0.126629	0.237133	-0.861992	-19.323339	-24.969295	131.317755
54493		4.180489	-2.985855	8.416582	0.011759	0.036622	0.047799	0.005638	-0.001065	-0.007734	-0.844482	0.571045	-0.730713	0.041803	-0.029863	0.084165	-0.429764	-0.126631	0.237131	-0.861996	-19.323181	-24.969235	131.318549
54494		4.159200	-2.931013	8.429541	-0.019322	-0.013181	0.033449	0.001180	-0.002210	-0.008249	-0.845947	0.562012	-0.730713	0.041590	-0.029312	0.084296	-0.429767	-0.126629	0.237152	-0.861989	-19.325623	-24.970094	131.318592
54495		4.164491	-2.972389	8.429518	0.010571	0.011709	0.048073	0.004067	-0.000172	-0.011184	-0.842773	0.567383	-0.723389	0.041643	-0.029728	0.084295	-0.429778	-0.126627	0.237152	-0.861983	-19.325417	-24.970205	131.317140
54496		4.176528	-2.970252	8.397100	0.001243	0.035470	0.024783	0.003827	-0.002553	-0.008313	-0.846924	0.574951	-0.727295	0.041763	-0.029706	0.083971	-0.429794	-0.126629	0.237164	-0.861972	-19.326149	-24.971270	131.315125
54497		4.138237	-2.931587	8.403274	-0.006819	-0.013981	0.002300	0.002991	-0.000725	-0.007671	-0.843262	0.571289	-0.727783	0.041381	-0.029319	0.084032	-0.429790	-0.126623	0.237172	-0.861973	-19.327493	-24.971013	131.315884
54498		4.182619	-2.954176	8.436452	-0.014883	0.010622	0.056195	0.004790	-0.001874	-0.009293	-0.841309	0.573486	-0.729980	0.041824	-0.029546	0.084364	-0.429777	-0.126632	0.237175	-0.861977	-19.327792	-24.971804	131.317673
54499		4.160972	-2.955889	8.410130	-0.000789	0.010311	0.025054	0.004904	-0.002002	-0.011829	-0.844482	0.579346	-0.723633	0.041607	-0.029563	0.084101	-0.429788	-0.126641	0.237175	-0.861970	-19.327106	-24.973027	131.316220
54500		4.183439	-2.952515	8.436627	-0.016575	0.010095	0.056193	0.003230	0.001654	-0.010544	-0.847900	0.571289	-0.731445	0.041834	-0.029529	0.084365	-0.429767	-0.126636	0.237175	-0.861981	-19.327879	-24.972041	131.319051
54501		4.161475	-2.954551	8.410351	-0.002476	0.009788	0.025054	0.001191	0.000423	-0.006051	-0.844482	0.565186	-0.725830	0.041614	-0.029547	0.084103	-0.429758	-0.126620	0.237190	-0.861984	-19.330561	-24.970857	131.320537
54502		4.161691	-2.954089	8.410407	-0.003267	0.009533	0.025054	0.002991	-0.000727	-0.007673	-0.835693	0.562500	-0.729736	0.041615	-0.029544	0.084104	-0.429765	-0.126613	0.237200	-0.861979	-19.331880	-24.970780	131.319886
54503		4.150420	-2.954806	8.442946	0.004466	-0.014713	0.048346	0.004790	-0.001876	-0.009295	-0.845703	0.564453	-0.730469	0.041502	-0.029552	0.084429	-0.429765	-0.126618	0.237202	-0.861978	-19.331887	-24.971454	131.319918
54504		4.167554	-2.966334	8.430136	0.003232	0.009497	0.048081	0.002991	-0.000727	-0.007673	-0.839111	0.569824	-0.724854	0.041674	-0.029666	0.084301	-0.429778	-0.126609	0.237211	-0.861970	-19.332947	-24.971139	131.318229
54505		4.157611	-2.938556	8.390948	-0.013785	0.008466	0.002026	0.002143	-0.001536	-0.009231	-0.841553	0.573730	-0.736084	0.041574	-0.029388	0.083909	-0.429780	-0.126607	0.237224	-0.861966	-19.334456	-24.971617	131.318228
54506		4.185109	-2.977181	8.417359	0.001111	0.033444	0.047817	0.007438	-0.002219	-0.009360	-0.846436	0.574951	-0.735107	0.041849	-0.029777	0.084173	-0.429760	-0.126622	0.237213	-0.861976	-19.333107	-24.972301	131.320729
54507		4.175306	-2.949015	8.378234	-0.015899	0.032413	0.001760	0.004905	-0.002007	-0.011833	-0.838623	0.568604	-0.736816	0.041750	-0.029495	0.083782	-0.429771	-0.126631	0.237213	-0.861969	-19.332420	-24.973528	131.319275
54508		4.163860	-2.977773	8.391250	0.014379	0.032958	0.016689	0.008524	0.000967	-0.010677	-0.842041	0.573486	-0.735107	0.041637	-0.029784	0.083911	-0.429766	-0.126635	0.237189	-0.861978	-19.329642	-24.972617	131.319510
54509		4.181414	-2.932211	8.417809	-0.032042	0.007635	0.033150	0.003943	-0.002688	-0.010855	-0.840088	0.568115	-0.727539	0.041811	-0.029326	0.084178	-0.429772	-0.126644	0.237196	-0.861972	-19.329812	-24.974026	131.318782
54510		4.176474	-2.946099	8.378678	-0.018400	0.031764	0.001758	0.007562	0.000287	-0.009699	-0.848145	0.565918	-0.736328	0.041763	-0.029466	0.083786	-0.429763	-0.126648	0.237179	-0.861980	-19.328007	-24.973442	131.319657
54511		4.165195	-2.946578	8.411307	-0.010669	0.007518	0.025050	0.004791	-0.001881	-0.009298	-0.838135	0.575195	-0.726563	0.041650	-0.029470	0.084113	-0.429764	-0.126653	0.237182	-0.861979	-19.328012	-24.974119	131.319688
54512		4.148718	-2.961990	8.404574	0.011535	0.007634	0.016958	0.003944	-0.002690	-0.010856	-0.846924	0.575439	-0.735107	0.041484	-0.029624	0.084046	-0.429764	-0.126663	0.237187	-0.861975	-19.328221	-24.975456	131.319705
54513		4.149404	-2.932798	8.424237	-0.011852	-0.017356	0.025309	0.003220	-0.000993	-0.012751	-0.845215	0.569824	-0.732910	0.041492	-0.029332	0.084242	-0.429781	-0.126665	0.237192	-0.861965	-19.328179	-24.976307	131.317491
54514		4.171792	-2.957791	8.431042	-0.005057	0.007220	0.048082	0.004791	-0.001882	-0.009300	-0.839600	0.568359	-0.730957	0.041716	-0.029582	0.084310	-0.429774	-0.126672	0.237193	-0.861968	-19.328228	-24.976909	131.318563
54515		4.155352	-2.973157	8.424316	0.017160	0.007334	0.039995	0.005630	-0.003712	-0.009943	-0.840088	0.570557	-0.722900	0.041550	-0.029736	0.084243	-0.429774	-0.126688	0.237195	-0.861965	-19.327752	-24.978698	131.318593
54516		4.167583	-2.942571	8.411527	-0.014789	0.006337	0.025046	0.003953	-0.000054	-0.008658	-0.848633	0.563721	-0.725830	0.041675	-0.029429	0.084115	-0.429766	-0.126684	0.237197	-0.861969	-19.328390	-24.978247	131.319768
54517		4.168042	-2.941836	8.411556	-0.015604	0.006101	0.025045	0.003097	-0.003504	-0.012416	-0.846191	0.563965	-0.733154	0.041677	-0.029422	0.084116	-0.429778	-0.126697	0.237208	-0.861958	-19.328724	-24.980392	131.318280
54518		4.151589	-2.957254	8.404824	0.006680	0.006214	0.016963	0.004067	-0.000187	-0.011197	-0.844971	0.573242	-0.728516	0.041514	-0.029577	0.084048	-0.429821	-0.126689	0.237212	-0.861936	-19.328237	-24.980779	131.312491
54519		4.168683	-2.968457	8.392156	0.005400	0.030388	0.016707	0.006952	0.001849	-0.014138	-0.844238	0.571533	-0.740479	0.041686	-0.029690	0.083920	-0.429846	-0.126689	0.237194	-0.861929	-19.325456	-24.980357	131.308855
54520		4.185826	-2.979425	8.379549	0.004094	0.054579	0.016451	0.007791	0.000018	-0.014782	-0.854492	0.568359	-0.737793	0.041856	-0.029801	0.083794	-0.429859	-0.126701	0.237174	-0.861926	-19.322228	-24.980887	131.306673
54521		4.152534	-2.953822	8.405564	0.004216	0.005528	0.016965	0.007799	0.002657	-0.012582	-0.838867	0.566650	-0.739502	0.041525	-0.029544	0.084054	-0.429876	-0.126697	0.237151	-0.861924	-19.319282	-24.979733	131.303797
54522		4.169623	-2.964546	8.393072	0.002954	0.029760	0.016710	0.010791	0.001919	-0.020264	-0.845947	0.571777	-0.732666	0.041694	-0.029654	0.083929	-0.429939	-0.126708	0.237111	-0.861903	-19.312398	-24.980261	131.294527
54523		4.170161	-2.962981	8.393357	0.002139	0.029526	0.016710	0.007060	-0.000930	-0.018882	-0.846680	0.565430	-0.726563	0.041698	-0.029637	0.083933	-0.429980	-0.126725	0.237096	-0.861884	-19.308605	-24.982239	131.288643
54524		4.154009	-2.921110	8.426028	-0.020755	-0.019909	0.025290	0.006106	0.001031	-0.015702	-0.844238	0.571777	-0.732422	0.041538	-0.029217	0.084259	-0.430017	-0.126727	0.237084	-0.861868	-19.306004	-24.982715	131.283327
54525		4.171062	-2.960600	8.393749	0.000525	0.029034	0.016712	0.005144	0.000351	-0.014722	-0.838379	0.566895	-0.728516	0.041709	-0.029611	0.083937	-0.430043	-0.126730	0.237076	-0.861857	-19.304243	-24.983212	131.279656
54526		4.181994	-2.958154	8.452803	-0.006756	0.004824	0.071116	0.006221	0.000894	-0.018243	-0.847900	0.568115	-0.726074	0.041818	-0.029588	0.084527	-0.430075	-0.126739	0.237059	-0.861844	-19.301004	-24.983987	131.274963
54527		4.166806	-2.944536	8.374543	-0.009183	0.028174	-0.006329	0.007907	-0.000125	-0.017329	-0.845215	0.567871	-0.729736	0.041665	-0.029452	0.083744	-0.430110	-0.126753	0.237039	-0.861830	-19.297044	-24.985234	131.269836
54528		4.189314	-2.940577	8.401175	-0.024961	0.027931	0.024776	0.006953	0.001837	-0.014148	-0.840576	0.575684	-0.729248	0.041892	-0.029412	0.084010	-0.430143	-0.126752	0.237023	-0.861818	-19.294319	-24.985060	131.265083
54529		4.178069	-2.940860	8.433856	-0.017245	0.003683	0.048070	0.005871	-0.001350	-0.012829	-0.842285	0.568604	-0.729980	0.041778	-0.029414	0.084338	-0.430158	-0.126761	0.237017	-0.861811	-19.292768	-24.986117	131.262896
54530		4.173270	-2.954685	8.394736	-0.003592	0.027814	0.016715	0.004299	-0.000468	-0.016285	-0.842041	0.566406	-0.735596	0.041730	-0.029552	0.083947	-0.430169	-0.126772	0.237013	-0.861805	-19.291431	-24.987260	131.261349
54531		4.190512	-2.937435	8.401676	-0.027451	0.027207	0.024771	0.005151	0.002985	-0.012527	-0.838135	0.572754	-0.730225	0.041905	-0.029379	0.084015	-0.430188	-0.126761	0.237001	-0.861801	-19.289987	-24.985916	131.258438
54532		4.111561	-2.974353	8.427019	0.049850	-0.020298	0.024154	0.006106	0.001020	-0.015711	-0.841797	0.567383	-0.734619	0.041114	-0.029749	0.084269	-0.430205	-0.126766	0.236985	-0.861796	-19.287403	-24.985992	131.255830
54533		4.191321	-2.935162	8.402067	-0.029115	0.026762	0.024767	0.006827	-0.003318	-0.016016	-0.843506	0.570557	-0.736572	0.041909	-0.029358	0.084020	-0.430231	-0.126790	0.236977	-0.861782	-19.284674	-24.988717	131.252154
54534		4.208631	-2.946055	8.389415	-0.030434	0.050972	0.024516	0.007913	0.002508	-0.015136	-0.841553	0.567383	-0.731934	0.042085	-0.029467	0.083892	-0.430255	-0.126790	0.236950	-0.861777	-19.280943	-24.987894	131.248419
54535		4.158268	-2.936749	8.408711	-0.007228	0.002299	0.016964	0.007799	0.002643	-0.012597	-0.843506	0.569336	-0.730957	0.041582	-0.029373	0.084085	-0.430273	-0.126786	0.236928	-0.861775	-19.277995	-24.986747	131.245538
54536		4.180672	-2.932803	8.435371	-0.023058	0.002085	0.048059	0.007794	-0.000002	-0.014799	-0.844238	0.581299	-0.733887	0.041805	-0.029334	0.084353	-0.430293	-0.126796	0.236909	-0.861768	-19.274750	-24.987388	131.242363
54537		4.159082	-2.962760	8.389522	0.013691	0.026625	0.008671	0.005868	-0.004002	-0.015037	-0.846436	0.570068	-0.729248	0.041587	-0.029633	0.083895	-0.430315	-0.126820	0.236907	-0.861754	-19.272878	-24.990297	131.239412
54538		4.159771	-2.933374	8.409146	-0.009727	0.001565	0.016962	0.004796	-0.001900	-0.009314	-0.846191	0.569092	-0.727051	0.041596	-0.029338	0.084091	-0.430286	-0.126832	0.236908	-0.861767	-19.273259	-24.990954	131.243332
54539		4.160232	-2.932638	8.409174	-0.010541	0.001330	0.016962	0.002263	-0.001699	-0.011789	-0.849121	0.560303	-0.724609	0.041600	-0.029330	0.084092	-0.430299	-0.126834	0.236919	-0.861757	-19.274068	-24.992003	131.241840
54540		4.166013	-2.973946	8.409135	0.019281	0.026234	0.031728	0.001299	-0.005021	-0.013008	-0.842529	0.569336	-0.728027	0.041656	-0.029743	0.084092	-0.430335	-0.126847	0.236945	-0.861730	-19.275394	-24.995493	131.237436
54541		4.161496	-2.931252	8.409032	-0.012119	0.000809	0.016960	0.004796	-0.001901	-0.009315	-0.844238	0.567383	-0.728027	0.041613	-0.029316	0.084090	-0.430336	-0.126852	0.236947	-0.861728	-19.275394	-24.996183	131.237461
54542		4.162115	-2.930598	8.408954	-0.012937	0.000549	0.016959	0.001911	-0.006578	-0.008570	-0.840820	0.574463	-0.731201	0.041617	-0.029309	0.084091	-0.430326	-0.126872	0.236973	-0.861723	-19.277774	-24.999358	131.239309
54543		4.151123	-2.959827	8.421719	0.017327	0.001100	0.031979	0.002990	-0.003394	-0.009893	-0.843994	0.564453	-0.724121	0.041508	-0.029602	0.084217	-0.430328	-0.126881	0.236986	-0.861717	-19.278795	-25.000965	131.239301
54544		4.168613	-2.942941	8.428372	-0.006557	0.000447	0.040011	0.002029	-0.004072	-0.008910	-0.845947	0.573975	-0.728516	0.041683	-0.029432	0.084284	-0.430316	-0.126891	0.237005	-0.861717	-19.280869	-25.002804	131.241319
54545		4.180779	-2.912505	8.415441	-0.038448	-0.000578	0.024984	0.003108	-0.000888	-0.010233	-0.848145	0.568359	-0.727539	0.041806	-0.029128	0.084154	-0.430322	-0.126890	0.237012	-0.861712	-19.281515	-25.003120	131.240585
54546		4.164409	-2.956624	8.389044	0.006336	0.024335	0.008685	0.001912	-0.006581	-0.008572	-0.847900	0.572998	-0.723633	0.041640	-0.029569	0.083892	-0.430309	-0.126911	0.237038	-0.861708	-19.284000	-25.006406	131.242966
54547		4.181994	-2.939745	8.395639	-0.017533	0.023703	0.016711	0.002990	-0.003396	-0.009895	-0.849609	0.571289	-0.720459	0.041817	-0.029401	0.083957	-0.430311	-0.126920	0.237051	-0.861702	-19.285021	-25.008015	131.242958
54548		4.148917	-2.915022	8.421200	-0.017331	-0.025457	0.017192	-0.001579	-0.004414	-0.007862	-0.845703	0.570801	-0.740234	0.041486	-0.029151	0.084213	-0.430298	-0.126925	0.237090	-0.861697	-19.289712	-25.010279	131.245557
54549		4.188517	-2.924049	8.434519	-0.033692	-0.001292	0.048028	0.002757	-0.005766	-0.007014	-0.845459	0.558594	-0.724365	0.041882	-0.029243	0.084346	-0.430285	-0.126940	0.237111	-0.861696	-19.291802	-25.012625	131.247764
54550		4.167128	-2.926401	8.407933	-0.019434	-0.001498	0.016948	-0.000737	-0.006245	-0.008506	-0.851074	0.572266	-0.722656	0.041667	-0.029265	0.084081	-0.430299	-0.126947	0.237148	-0.861678	-19.295316	-25.015543	131.246649
54551		4.184680	-2.966687	8.375215	0.001788	0.047485	0.008450	-0.000737	-0.006246	-0.008506	-0.844238	0.565918	-0.732422	0.041843	-0.029668	0.083754	-0.430294	-0.126958	0.237184	-0.861668	-19.299074	-25.018430	131.248066
54552		4.168645	-2.897428	8.426977	-0.043593	-0.026824	0.025199	-0.001579	-0.004416	-0.007863	-0.840576	0.569580	-0.738037	0.041683	-0.028975	0.084271	-0.430293	-0.126960	0.237222	-0.861658	-19.303428	-25.020451	131.248993
54553		4.152403	-2.941978	8.400385	0.001197	-0.001842	0.008929	-0.001697	-0.006924	-0.007524	-0.841553	0.565674	-0.728760	0.041520	-0.029421	0.084006	-0.430283	-0.126971	0.237264	-0.861650	-19.308045	-25.023519	131.251137
54554		4.175277	-2.939105	8.426412	-0.014685	-0.002047	0.040002	-0.000237	-0.007662	-0.001524	-0.843262	0.565918	-0.727295	0.041749	-0.029391	0.084266	-0.430243	-0.126980	0.237303	-0.861658	-19.313294	-25.025600	131.257475
54555		4.175725	-2.967641	8.406545	0.007043	0.022534	0.031754	-0.005186	-0.002112	-0.004610	-0.849365	0.571533	-0.733154	0.041756	-0.029675	0.084067	-0.430229	-0.126960	0.237352	-0.861655	-19.320219	-25.025512	131.260353
54556		4.204863	-2.949994	8.380431	-0.025342	0.045894	0.016464	-0.001814	-0.009433	-0.007186	-0.848877	0.563721	-0.733643	0.042044	-0.029501	0.083807	-0.430219	-0.126980	0.237401	-0.861643	-19.325208	-25.029953	131.262713
54557		4.194048	-2.951336	8.412556	-0.017641	0.021643	0.039762	-0.002654	-0.004957	-0.004339	-0.847900	0.568604	-0.729492	0.041938	-0.029513	0.084127	-0.430199	-0.126977	0.237445	-0.861641	-19.331003	-25.031352	131.266349
54558		4.183151	-2.952730	8.444709	-0.009902	-0.002604	0.063060	-0.002657	-0.007604	-0.006543	-0.842773	0.571533	-0.735840	0.041827	-0.029528	0.084449	-0.430204	-0.126984	0.237495	-0.861624	-19.336276	-25.034738	131.266606
54559		4.161740	-2.983880	8.398404	0.026888	0.022003	0.023756	-0.001811	-0.006788	-0.004984	-0.848389	0.571777	-0.728516	0.041614	-0.029839	0.083986	-0.430184	-0.126991	0.237539	-0.861621	-19.341589	-25.037249	131.270240
54560		4.213108	-2.963120	8.398702	-0.020591	0.045349	0.039524	0.001912	-0.006586	-0.008578	-0.847656	0.572510	-0.732666	0.042127	-0.029634	0.083988	-0.430168	-0.127011	0.237563	-0.861619	-19.343912	-25.040258	131.272897
54561		4.191805	-2.908786	8.411241	-0.051419	-0.004511	0.024924	-0.003500	-0.005775	-0.005899	-0.843018	0.571533	-0.728027	0.041915	-0.029088	0.084114	-0.430155	-0.127012	0.237611	-0.861612	-19.349872	-25.042394	131.275773
54562		4.197625	-2.950856	8.410941	-0.021723	0.020458	0.039756	-0.003613	-0.005636	-0.003357	-0.843262	0.574463	-0.725098	0.041973	-0.029508	0.084111	-0.430119	-0.127010	0.237661	-0.861617	-19.356663	-25.043953	131.281562
54563		4.164581	-2.955382	8.416634	0.001049	-0.003765	0.031993	-0.007338	-0.008487	-0.001967	-0.848145	0.572021	-0.721924	0.041642	-0.029551	0.084169	-0.430088	-0.127009	0.237734	-0.861612	-19.366056	-25.046808	131.287354
54564		4.199252	-2.923202	8.429473	-0.045914	-0.004916	0.047978	-0.006381	-0.010457	-0.005155	-0.848877	0.570557	-0.729980	0.041987	-0.029230	0.084298	-0.430053	-0.127027	0.237807	-0.861607	-19.374661	-25.051575	131.293573
54565		4.161081	-2.942589	8.395876	-0.008584	-0.004697	0.008925	-0.003843	-0.008007	-0.000477	-0.845947	0.573975	-0.723877	0.041607	-0.029424	0.083961	-0.430013	-0.127030	0.237865	-0.861610	-19.382387	-25.053886	131.300155
54566		4.183888	-2.968780	8.402083	-0.001948	0.019824	0.031762	-0.009987	-0.008154	-0.001899	-0.847412	0.563721	-0.729736	0.041835	-0.029684	0.084024	-0.429979	-0.127023	0.237950	-0.861605	-19.393479	-25.056723	131.306619
54567		4.213150	-2.951778	8.375639	-0.034344	0.043178	0.016449	-0.007568	-0.010860	0.000912	-0.845459	0.566650	-0.731934	0.042127	-0.029514	0.083760	-0.429932	-0.127029	0.238032	-0.861605	-19.403945	-25.060309	131.314630
54568		4.185674	-2.941801	8.420311	-0.026074	-0.005455	0.039977	-0.010103	-0.010664	-0.001563	-0.848389	0.565674	-0.733398	0.041852	-0.029414	0.084207	-0.429921	-0.127026	0.238123	-0.861585	-19.414911	-25.064319	131.317932
54569		4.203515	-2.954837	8.406600	-0.027423	0.018716	0.039745	-0.011291	-0.013715	0.002300	-0.856201	0.563721	-0.726074	0.042030	-0.029543	0.084071	-0.429868	-0.127034	0.238227	-0.861582	-19.428117	-25.069180	131.327372
54570		4.187590	-2.943801	8.418660	-0.027626	-0.005932	0.039972	-0.012018	-0.009376	0.002607	-0.845459	0.567383	-0.725830	0.041872	-0.029432	0.084190	-0.429858	-0.127014	0.238330	-0.861562	-19.441067	-25.071976	131.330812
54571		4.166210	-2.947739	8.391524	-0.013346	-0.006128	0.008919	-0.013824	-0.010873	0.002029	-0.850098	0.569824	-0.728027	0.041658	-0.029471	0.083920	-0.429810	-0.127004	0.238439	-0.861557	-19.455405	-25.075350	131.339496
54572		4.194505	-2.959784	8.436604	-0.021258	-0.006032	0.063040	-0.013823	-0.010875	0.002028	-0.849365	0.574951	-0.735840	0.041941	-0.029592	0.084370	-0.429777	-0.126993	0.238550	-0.861544	-19.469671	-25.078923	131.346270
54573		4.168044	-2.950361	8.389692	-0.014944	-0.006615	0.008916	-0.015858	-0.014745	0.004328	-0.844238	0.571289	-0.727783	0.041675	-0.029496	0.083902	-0.429716	-0.126993	0.238677	-0.861539	-19.486103	-25.083946	131.357143
54574		4.179744	-2.978865	8.427849	0.000168	-0.006056	0.055063	-0.014786	-0.014205	0.000801	-0.842041	0.574951	-0.726807	0.041792	-0.029782	0.084284	-0.429665	-0.126998	0.238795	-0.861531	-19.500958	-25.089251	131.366474
54575		4.187216	-2.936851	8.394298	-0.039652	-0.007505	0.016884	-0.015857	-0.014749	0.004324	-0.848633	0.571533	-0.726074	0.041867	-0.029361	0.083948	-0.429605	-0.126998	0.238923	-0.861526	-19.517393	-25.094271	131.377350
54576		4.210610	-2.964172	8.399760	-0.033054	0.017037	0.039731	-0.018737	-0.019439	0.005062	-0.851807	0.579346	-0.725586	0.042099	-0.029633	0.084004	-0.429530	-0.127013	0.239073	-0.861519	-19.536211	-25.101717	131.390559
54577		4.189949	-2.968625	8.372071	-0.018761	0.016850	0.008685	-0.018625	-0.019579	0.002516	-0.848877	0.573730	-0.730225	0.041892	-0.029678	0.083728	-0.429473	-0.127030	0.239222	-0.861504	-19.554213	-25.109686	131.401384
54578		4.179726	-2.971973	8.403274	-0.011079	-0.007437	0.031985	-0.018955	-0.016526	0.012350	-0.848877	0.574463	-0.723145	0.041792	-0.029709	0.084039	-0.429373	-0.127023	0.239372	-0.861513	-19.574783	-25.114248	131.418072
54579		4.197866	-2.957989	8.408563	-0.034970	-0.008113	0.039947	-0.024372	-0.021022	0.010611	-0.841553	0.575928	-0.723877	0.041971	-0.029567	0.084094	-0.429283	-0.127025	0.239554	-0.861507	-19.598261	-25.121433	131.434036
54580		4.160239	-2.979240	8.374004	0.002393	-0.007887	0.000942	-0.019075	-0.021694	0.010467	-0.848389	0.577148	-0.733643	0.041595	-0.029782	0.083747	-0.429180	-0.127043	0.239714	-0.861511	-19.618948	-25.129092	131.451373
54581		4.178494	-2.993541	8.359553	0.001031	0.016287	0.000720	-0.023413	-0.020351	0.009621	-0.843994	0.575684	-0.727783	0.041778	-0.029924	0.083603	-0.429094	-0.127045	0.239889	-0.861505	-19.641572	-25.136094	131.466613
54582		4.185224	-3.009378	8.377611	0.008147	0.016468	0.023800	-0.020764	-0.020689	0.009547	-0.843506	0.576904	-0.726318	0.041845	-0.030083	0.083784	-0.428996	-0.127055	0.240052	-0.861507	-19.662675	-25.143099	131.483233
54583		4.186799	-3.011477	8.376069	0.007329	0.016235	0.023801	-0.019190	-0.024221	0.010787	-0.844482	0.580566	-0.729004	0.041859	-0.030104	0.083769	-0.428898	-0.127081	0.240218	-0.861506	-19.683532	-25.151955	131.500000
54584		4.166442	-2.987890	8.367835	-0.000926	-0.008785	0.000942	-0.021728	-0.024027	0.008310	-0.842285	0.577637	-0.726074	0.041656	-0.029868	0.083687	-0.428791	-0.127108	0.240390	-0.861507	-19.705362	-25.160973	131.518172
54585		4.179857	-2.960366	8.353250	-0.032765	-0.009860	-0.014188	-0.024602	-0.026080	0.011249	-0.844727	0.567627	-0.721191	0.041789	-0.029591	0.083542	-0.428692	-0.127130	0.240584	-0.861499	-19.729616	-25.170730	131.535622
54586		4.192636	-2.989972	8.390448	-0.017683	-0.009307	0.031974	-0.021345	-0.033279	0.011183	-0.850098	0.575928	-0.722900	0.041914	-0.029888	0.083915	-0.428588	-0.127188	0.240779	-0.861488	-19.752565	-25.184363	131.553908
54587		4.194905	-2.992509	8.388410	-0.018501	-0.009542	0.031972	-0.025051	-0.030857	0.016982	-0.848877	0.580322	-0.718994	0.041939	-0.029911	0.083894	-0.428459	-0.127223	0.240989	-0.861488	-19.778976	-25.195571	131.575810
54588		4.180351	-3.011718	8.379452	0.003768	-0.009372	0.024024	-0.029630	-0.037195	0.014580	-0.854980	0.574707	-0.722900	0.041790	-0.030102	0.083807	-0.428335	-0.127279	0.241232	-0.861473	-19.808172	-25.210902	131.597725
54589		4.194795	-2.985187	8.364001	-0.028068	-0.010453	0.008884	-0.033576	-0.042457	0.018819	-0.846924	0.572021	-0.723145	0.041933	-0.029834	0.083654	-0.428190	-0.127343	0.241504	-0.861460	-19.841014	-25.227985	131.623231
54590		4.152395	-3.051050	8.360608	0.048349	-0.008934	0.008139	-0.031044	-0.045322	0.019062	-0.845703	0.576904	-0.720947	0.041508	-0.030494	0.083620	-0.428064	-0.127420	0.241774	-0.861435	-19.872518	-25.246797	131.646075
54591		4.155719	-3.054270	8.357779	0.047532	-0.009166	0.008143	-0.029139	-0.046616	0.014873	-0.852783	0.578125	-0.721436	0.041540	-0.030527	0.083592	-0.427927	-0.127516	0.242034	-0.861416	-19.902224	-25.266866	131.670155
54592		4.192906	-3.053184	8.348584	0.023090	0.014532	0.015868	-0.029988	-0.047447	0.013298	-0.848633	0.572266	-0.722656	0.041911	-0.030517	0.083500	-0.427805	-0.127615	0.242299	-0.861388	-19.932089	-25.287820	131.692483
54593		4.190717	-3.070785	8.306532	0.036862	0.038780	-0.015369	-0.026371	-0.044462	0.014450	-0.850586	0.579834	-0.721924	0.041891	-0.030694	0.083079	-0.427671	-0.127708	0.242542	-0.861372	-19.959932	-25.306788	131.715876
54594		4.272759	-3.035787	8.369639	-0.040401	0.037484	0.062549	-0.022044	-0.048473	0.013054	-0.843994	0.571045	-0.725586	0.042709	-0.030346	0.083710	-0.427552	-0.127827	0.242774	-0.861348	-19.985109	-25.328258	131.737126
54595		4.236812	-3.056995	8.334149	-0.002983	0.037786	0.023592	-0.022647	-0.041616	0.013052	-0.848389	0.586670	-0.719971	0.042353	-0.030558	0.083354	-0.427425	-0.127917	0.242994	-0.861336	-20.010224	-25.345949	131.759096
54596		4.246032	-3.015881	8.299414	-0.042744	0.036348	-0.014654	-0.020206	-0.041703	0.018051	-0.854004	0.573975	-0.719238	0.042446	-0.030147	0.083006	-0.427271	-0.128007	0.243204	-0.861339	-20.035104	-25.362524	131.784460
54597		4.242924	-3.033745	8.349106	-0.027151	0.012478	0.031737	-0.023690	-0.039550	0.018773	-0.852295	0.570313	-0.721924	0.042416	-0.030324	0.083503	-0.427123	-0.128080	0.243428	-0.861339	-20.062105	-25.377962	131.809411
54598		4.223570	-3.010756	8.340322	-0.035235	-0.012527	0.008858	-0.022100	-0.040454	0.022208	-0.848877	0.578369	-0.717529	0.042222	-0.030094	0.083415	-0.427003	-0.128147	0.243652	-0.861325	-20.088635	-25.393462	131.830472
54599		4.248140	-3.039530	8.344348	-0.028701	0.012029	0.031733	-0.024832	-0.037360	0.027033	-0.852783	0.578369	-0.714844	0.042470	-0.030379	0.083455	-0.426823	-0.128197	0.243880	-0.861342	-20.118217	-25.406073	131.859888
54600		4.249939	-3.071198	8.322236	-0.006963	0.036650	0.023595	-0.027462	-0.034393	0.029318	-0.846680	0.574951	-0.713379	0.042490	-0.030694	0.083234	-0.426656	-0.128224	0.244118	-0.861354	-20.149510	-25.416847	131.887613
54601		4.195792	-3.081089	8.300331	0.031044	0.012560	-0.015129	-0.021312	-0.034258	0.030718	-0.843994	0.578125	-0.716797	0.041948	-0.030796	0.083014	-0.426461	-0.128264	0.244327	-0.861385	-20.177745	-25.427034	131.918564
54602		4.202976	-3.097780	8.317790	0.038167	0.012730	0.007967	-0.020237	-0.031058	0.029411	-0.851563	0.590820	-0.717529	0.042021	-0.030963	0.083188	-0.426285	-0.128292	0.244525	-0.861411	-20.204521	-25.435770	131.946576
54603		4.204881	-3.100433	8.315838	0.037347	0.012496	0.007971	-0.015817	-0.035194	0.025466	-0.845947	0.583496	-0.719238	0.042038	-0.030992	0.083168	-0.426108	-0.128354	0.244709	-0.861438	-20.228368	-25.447474	131.974621
54604		4.224023	-3.086526	8.320591	0.013406	0.011792	0.015890	-0.013906	-0.033826	0.023502	-0.847412	0.578125	-0.716797	0.042230	-0.030855	0.083215	-0.425924	-0.128421	0.244879	-0.861471	-20.250634	-25.458704	132.003382
54605		4.271451	-3.054495	8.299504	-0.042078	0.034629	0.008414	-0.010204	-0.033602	0.019901	-0.857910	0.587891	-0.715820	0.042704	-0.030536	0.083004	-0.425769	-0.128495	0.245032	-0.861493	-20.269707	-25.470637	132.027780
54606		4.261642	-3.086383	8.310625	-0.011869	0.035242	0.023595	-0.016192	-0.025936	0.022617	-0.856934	0.580078	-0.710938	0.042609	-0.030852	0.083114	-0.425631	-0.128517	0.245198	-0.861510	-20.292073	-25.478070	132.050038
54607		4.245381	-3.132740	8.282801	0.032917	0.060365	0.007566	-0.009486	-0.018466	0.017993	-0.849854	0.581055	-0.714355	0.042449	-0.031320	0.082833	-0.425502	-0.128530	0.245314	-0.861539	-20.308823	-25.482234	132.069979
54608		4.269439	-3.074149	8.256364	-0.029829	0.058382	-0.022807	-0.003638	-0.011804	0.011811	-0.850098	0.579590	-0.716064	0.042691	-0.030737	0.082567	-0.425436	-0.128529	0.245392	-0.861549	-20.319827	-25.484407	132.080589
54609		4.208439	-3.068555	8.308119	0.002072	-0.014214	-0.006994	-0.003615	-0.009159	0.014033	-0.848877	0.575195	-0.718750	0.042083	-0.030681	0.083084	-0.425332	-0.128519	0.245461	-0.861582	-20.331319	-25.484351	132.096123
54610		4.259624	-3.021070	8.327716	-0.067965	-0.015833	0.016720	-0.005901	-0.001250	0.013164	-0.855957	0.586670	-0.722168	0.042598	-0.030205	0.083278	-0.425271	-0.128466	0.245522	-0.861603	-20.342619	-25.480244	132.105631
54611		4.275864	-3.034172	8.314369	-0.069363	0.008334	0.016507	-0.004089	0.000251	0.013747	-0.854492	0.587646	-0.716797	0.042761	-0.030337	0.083144	-0.425180	-0.128415	0.245573	-0.861641	-20.353414	-25.475184	132.118917
54612		4.228441	-3.153650	8.274279	0.052058	0.059695	-0.000315	0.000513	0.006589	0.016160	-0.849854	0.581543	-0.720703	0.042290	-0.031533	0.082741	-0.425098	-0.128340	0.245593	-0.861687	-20.361440	-25.466319	132.130358
54613		4.227251	-3.154032	8.274742	0.051235	0.059462	-0.000310	0.002859	0.012777	0.008498	-0.852295	0.581787	-0.717529	0.042279	-0.031540	0.082744	-0.425040	-0.128257	0.245584	-0.861731	-20.365718	-25.455574	132.137752
54614		4.231904	-3.139355	8.314693	0.035837	0.034761	0.030899	0.008986	0.010272	0.007680	-0.849121	0.588379	-0.718262	0.042325	-0.031396	0.083143	-0.425000	-0.128193	0.245553	-0.861769	-20.366094	-25.446348	132.142388
54615		4.242902	-3.080675	8.322502	-0.018489	0.008772	0.023796	0.010897	0.011650	0.005725	-0.857422	0.577881	-0.718506	0.042435	-0.030810	0.083221	-0.424948	-0.128135	0.245510	-0.861815	-20.365161	-25.436761	132.148380
54616		4.281407	-3.061763	8.355924	-0.057565	0.007965	0.062683	0.005264	0.007390	0.009049	-0.850342	0.584473	-0.715088	0.042819	-0.030618	0.083557	-0.424907	-0.128073	0.245504	-0.861846	-20.368382	-25.428949	132.153705
54617		4.275116	-3.048259	8.336848	-0.066274	0.007344	0.039575	-0.002577	0.008273	0.006743	-0.841553	0.585693	-0.712402	0.042756	-0.030480	0.083367	-0.424855	-0.127999	0.245526	-0.861876	-20.375747	-25.420972	132.161045
54618		4.234364	-3.097187	8.375520	-0.004548	-0.015572	0.070201	-0.021344	0.005566	0.007915	-0.851807	0.584717	-0.722412	0.042347	-0.030961	0.083757	-0.424804	-0.127897	0.245636	-0.861886	-20.394414	-25.414231	132.170063
54619		4.266892	-3.124166	8.348522	-0.006541	0.033002	0.069795	-0.039573	0.007543	0.000838	-0.849854	0.582031	-0.723145	0.042672	-0.031225	0.083490	-0.424800	-0.127755	0.245816	-0.861857	-20.421534	-25.407823	132.174048
54620		4.232877	-3.103704	8.373860	-0.006152	-0.015982	0.070200	-0.051629	0.012298	-0.002617	-0.847900	0.594971	-0.714844	0.042334	-0.031016	0.083744	-0.424842	-0.127567	0.246034	-0.861802	-20.453731	-25.399445	132.172623
54621		4.214876	-3.152651	8.345852	0.038640	0.009165	0.054230	-0.065686	0.005086	-0.013020	-0.843994	0.589600	-0.719727	0.042149	-0.031502	0.083468	-0.424912	-0.127397	0.246322	-0.861711	-20.492509	-25.397127	132.168909
54622		4.221381	-3.115093	8.403000	0.000621	-0.040474	0.093505	-0.072712	0.001463	-0.018238	-0.843994	0.586426	-0.718506	0.042212	-0.031124	0.084041	-0.424979	-0.127240	0.246642	-0.861609	-20.534492	-25.397600	132.166177
54623		4.233114	-3.146929	8.348029	0.013845	0.008215	0.062116	-0.073952	-0.009592	-0.021110	-0.846436	0.587891	-0.713379	0.042324	-0.031443	0.083494	-0.425071	-0.127125	0.246993	-0.861481	-20.577346	-25.404790	132.160924
54624		4.223843	-3.124337	8.306559	-0.002722	0.007253	0.015903	-0.066967	-0.011302	-0.020380	-0.844727	0.581055	-0.709961	0.042231	-0.031220	0.083078	-0.425147	-0.127034	0.247314	-0.861364	-20.616405	-25.412615	132.157234
54625		4.253466	-3.140216	8.349530	-0.010910	0.007283	0.069995	-0.058411	-0.016551	-0.018433	-0.851318	0.598877	-0.716797	0.042525	-0.031382	0.083508	-0.425208	-0.126979	0.247614	-0.861256	-20.651708	-25.423002	132.155136
54626		4.283625	-3.126306	8.321187	-0.043301	0.030573	0.054560	-0.053314	-0.016993	-0.013517	-0.857666	0.586182	-0.714844	0.042827	-0.031244	0.083224	-0.425243	-0.126932	0.247896	-0.861165	-20.685389	-25.432649	132.156211
54627		4.263181	-3.132658	8.292501	-0.028889	0.030457	0.023576	-0.055560	-0.023335	-0.008427	-0.842529	0.592529	-0.712646	0.042621	-0.031305	0.082939	-0.425251	-0.126900	0.248204	-0.861076	-20.722268	-25.444647	132.161588
54628		4.254437	-3.138612	8.322288	-0.021232	0.006204	0.046882	-0.056340	-0.026920	-0.014778	-0.849854	0.588867	-0.715820	0.042531	-0.031366	0.083237	-0.425292	-0.126888	0.248519	-0.860967	-20.758191	-25.459910	132.162743
54629		4.267900	-3.169313	8.266618	-0.008008	0.054904	0.015507	-0.065132	-0.026777	-0.016144	-0.848389	0.594971	-0.709229	0.042665	-0.031670	0.082682	-0.425335	-0.126860	0.248871	-0.860848	-20.798930	-25.475314	132.164334
54630		4.231747	-3.135988	8.270765	-0.015497	0.005486	-0.007210	-0.062984	-0.020353	-0.018722	-0.852783	0.586426	-0.717773	0.042306	-0.031338	0.082722	-0.425393	-0.126813	0.249198	-0.860732	-20.837137	-25.487780	132.163247
54631		4.250517	-3.181922	8.325893	0.007253	0.006392	0.062125	-0.061312	-0.024037	-0.020075	-0.851074	0.587891	-0.715576	0.042492	-0.031798	0.083274	-0.425454	-0.126787	0.249525	-0.860611	-20.874427	-25.502517	132.161910
54632		4.219765	-3.190328	8.329297	0.030187	-0.017678	0.054459	-0.062405	-0.029928	-0.021055	-0.849365	0.583008	-0.714355	0.042182	-0.031882	0.083309	-0.425534	-0.126780	0.249867	-0.860473	-20.912144	-25.520547	132.158365
54633		4.239962	-3.206236	8.312666	0.028758	0.006498	0.054266	-0.057916	-0.036800	-0.029803	-0.845215	0.591309	-0.709473	0.042380	-0.032045	0.083144	-0.425618	-0.126827	0.250200	-0.860328	-20.946257	-25.544106	132.154174
54634		4.271616	-3.219789	8.263362	0.018902	0.054758	0.030764	-0.057796	-0.034298	-0.030128	-0.854980	0.592773	-0.711182	0.042697	-0.032180	0.082650	-0.425713	-0.126864	0.250525	-0.860181	-20.979593	-25.566262	132.148429
54635		4.247743	-3.183094	8.234980	0.002976	0.029366	-0.015268	-0.049527	-0.030331	-0.033507	-0.839111	0.589111	-0.714111	0.042460	-0.031818	0.082364	-0.425816	-0.126906	0.250806	-0.860042	-21.007324	-25.587125	132.140596
54636		4.273220	-3.211467	8.238214	0.009389	0.053986	0.007654	-0.046646	-0.025609	-0.034197	-0.854248	0.590576	-0.716309	0.042716	-0.032103	0.082395	-0.425914	-0.126937	0.251060	-0.859915	-21.032504	-25.605314	132.132758
54637		4.276653	-3.185505	8.255972	-0.013944	0.028840	0.015702	-0.038569	-0.021406	-0.032484	-0.852051	0.591797	-0.700684	0.042753	-0.031846	0.082570	-0.426017	-0.126963	0.251275	-0.859797	-21.053341	-25.621200	132.123513
54638		4.290502	-3.215281	8.292321	0.000947	0.029376	0.061935	-0.040472	-0.022823	-0.030555	-0.860596	0.590820	-0.714844	0.042891	-0.032143	0.082935	-0.426124	-0.126986	0.251504	-0.859673	-21.075724	-25.637532	132.113916
54639		4.254888	-3.207682	8.276978	0.015993	0.004877	0.031162	-0.042021	-0.038839	-0.030354	-0.845459	0.593262	-0.709229	0.042528	-0.032066	0.082785	-0.426198	-0.127077	0.251772	-0.859545	-21.100811	-25.662306	132.109933
54640		4.287725	-3.191639	8.247856	-0.016380	0.028209	0.015700	-0.039206	-0.053554	-0.027091	-0.858643	0.597656	-0.709961	0.042851	-0.031906	0.082496	-0.426242	-0.127231	0.252060	-0.859416	-21.126295	-25.694134	132.110671
54641		4.303662	-3.249289	8.262777	0.020969	0.053658	0.053900	-0.030410	-0.053705	-0.025756	-0.850098	0.592285	-0.716797	0.043010	-0.032486	0.082644	-0.426270	-0.127405	0.252314	-0.859302	-21.147396	-25.725905	132.112845
54642		4.314276	-3.234325	8.207781	0.003848	0.077137	0.007473	-0.019896	-0.052223	-0.021274	-0.852783	0.592285	-0.713135	0.043118	-0.032340	0.082092	-0.426268	-0.127590	0.252518	-0.859215	-21.163252	-25.755707	132.118039
54643		4.319024	-3.234286	8.205300	0.003017	0.076909	0.007475	-0.002729	-0.045808	-0.023583	-0.853271	0.582764	-0.705811	0.043168	-0.032347	0.082063	-0.426278	-0.127786	0.252637	-0.859146	-21.168276	-25.782808	132.119706
54644		4.311763	-3.235403	8.236367	0.010675	0.052718	0.030787	0.004777	-0.029387	-0.017269	-0.855469	0.592041	-0.712646	0.043103	-0.032360	0.082369	-0.426292	-0.127916	0.252691	-0.859104	-21.168508	-25.799714	132.119433
54645		4.275585	-3.223821	8.222959	0.025744	0.028229	0.000021	0.024157	-0.030765	-0.016226	-0.855225	0.596924	-0.703369	0.042741	-0.032252	0.082232	-0.426273	-0.128095	0.252667	-0.859094	-21.158524	-25.817255	132.122009
54646		4.301416	-3.190728	8.268803	-0.012874	0.002945	0.039006	0.030444	-0.025402	-0.012854	-0.853760	0.598389	-0.708496	0.043002	-0.031923	0.082689	-0.426239	-0.128261	0.252606	-0.859104	-21.145198	-25.831151	132.125749
54647		4.314455	-3.213386	8.215944	0.000349	0.051674	0.007671	0.034989	-0.024316	-0.014881	-0.854736	0.588135	-0.705566	0.043132	-0.032151	0.082159	-0.426215	-0.128435	0.252522	-0.859115	-21.128708	-25.844969	132.127635
54648		4.300529	-3.169941	8.249738	-0.022363	0.002126	0.015880	0.036074	-0.018439	-0.013905	-0.847900	0.586914	-0.710693	0.042995	-0.031717	0.082496	-0.426189	-0.128584	0.252421	-0.859135	-21.111198	-25.855357	132.129400
54649		4.313338	-3.164490	8.217408	-0.031636	0.025923	-0.007433	0.034198	-0.017205	-0.009717	-0.850830	0.594238	-0.710693	0.043125	-0.031661	0.082172	-0.426153	-0.128719	0.252329	-0.859160	-21.095784	-25.864310	132.132715
54650		4.303500	-3.191396	8.230357	-0.001541	0.026670	0.007861	0.035828	-0.015466	-0.004034	-0.856201	0.590820	-0.708496	0.043028	-0.031930	0.082301	-0.426075	-0.128845	0.252225	-0.859210	-21.080507	-25.870795	132.141316
54651		4.287454	-3.231749	8.204296	0.043245	0.051909	-0.007976	0.049551	-0.012317	-0.012661	-0.858154	0.589111	-0.708496	0.042867	-0.032341	0.082038	-0.426048	-0.128995	0.252054	-0.859251	-21.055044	-25.877742	132.141757
54652		4.260856	-3.217332	8.251689	0.051509	0.003263	0.015528	0.049820	-0.001957	-0.008764	-0.850098	0.599121	-0.710449	0.042606	-0.032196	0.082509	-0.426027	-0.129093	0.251864	-0.859302	-21.029214	-25.878375	132.140669
54653		4.289457	-3.194228	8.227283	0.019118	0.026529	0.000041	0.057079	-0.003966	-0.015677	-0.849365	0.578857	-0.706299	0.042890	-0.031969	0.082265	-0.426018	-0.129227	0.251642	-0.859352	-20.997819	-25.881476	132.137402
54654		4.324436	-3.156441	8.242233	-0.027965	0.025267	0.015682	0.058666	-0.007536	-0.014501	-0.854248	0.585693	-0.702393	0.043239	-0.031592	0.082415	-0.425987	-0.129380	0.251418	-0.859410	-20.966061	-25.886036	132.137229
54655		4.314214	-3.180922	8.256389	0.002139	0.025949	0.030991	0.060454	-0.008689	-0.016168	-0.853516	0.596680	-0.706299	0.043136	-0.031838	0.082556	-0.425972	-0.129542	0.251191	-0.859459	-20.933071	-25.891761	132.134742
54656		4.326077	-3.173202	8.225446	-0.007139	0.049723	0.007678	0.061737	-0.000402	-0.018055	-0.858398	0.583496	-0.714844	0.043258	-0.031761	0.082245	-0.425969	-0.129675	0.250940	-0.859514	-20.898164	-25.893504	132.129917
54657		4.304062	-3.141483	8.221705	-0.015143	0.024709	-0.015266	0.061522	0.011316	-0.023685	-0.858398	0.586914	-0.711426	0.043042	-0.031445	0.082205	-0.426011	-0.129762	0.250661	-0.859561	-20.860624	-25.890052	132.118408
54658		4.292376	-3.165318	8.236928	0.014999	0.025425	0.000051	0.065140	0.014329	-0.022517	-0.858398	0.583496	-0.712891	0.042926	-0.031685	0.082356	-0.426067	-0.129839	0.250360	-0.859610	-20.820700	-25.884755	132.104537
54659		4.308547	-3.142998	8.246325	-0.008953	0.024652	0.007863	0.058481	0.023564	-0.024168	-0.854980	0.585449	-0.710938	0.043091	-0.031459	0.082449	-0.426127	-0.129868	0.250068	-0.859660	-20.783572	-25.874827	132.089976
54660		4.268142	-3.127172	8.236739	0.006207	0.000198	-0.022894	0.064357	0.027478	-0.035146	-0.860840	0.585693	-0.705322	0.042687	-0.031306	0.082351	-0.426248	-0.129904	0.249735	-0.859692	-20.739642	-25.865054	132.066443
54661		4.255495	-3.150715	8.252603	0.036309	0.000887	-0.007567	0.056528	0.030941	-0.035223	-0.852051	0.590088	-0.713379	0.042562	-0.031538	0.082511	-0.426367	-0.129911	0.249428	-0.859721	-20.700049	-25.853394	132.043655
54662		4.276961	-3.113634	8.301730	-0.002334	-0.024486	0.031358	0.060326	0.033698	-0.039160	-0.852783	0.582275	-0.708008	0.042777	-0.031170	0.083001	-0.426504	-0.129919	0.249097	-0.859747	-20.657085	-25.841136	132.017863
54663		4.325602	-3.114718	8.284972	-0.027564	0.023544	0.038797	0.056732	0.033293	-0.038122	-0.856934	0.586426	-0.709717	0.043264	-0.031179	0.082834	-0.426638	-0.129920	0.248782	-0.859772	-20.616411	-25.828772	131.992844
54664		4.284701	-3.099133	8.275481	-0.012410	-0.000944	0.008042	0.053246	0.035422	-0.037389	-0.854492	0.582520	-0.707520	0.042856	-0.031021	0.082739	-0.426777	-0.129903	0.248479	-0.859793	-20.577778	-25.815224	131.967372
54665		4.288680	-3.106854	8.297972	-0.005443	-0.000802	0.031175	0.051535	0.033750	-0.040547	-0.865967	0.573486	-0.712402	0.042894	-0.031099	0.082964	-0.426926	-0.129894	0.248184	-0.859806	-20.539430	-25.803072	131.940830
54666		4.303831	-3.084578	8.307735	-0.029343	-0.001611	0.038971	0.051659	0.038915	-0.038639	-0.852783	0.588867	-0.704834	0.043049	-0.030876	0.083061	-0.427102	-0.129855	0.247883	-0.859811	-20.500853	-25.788078	131.910309
54667		4.295885	-3.093203	8.271721	-0.015468	0.022736	0.007859	0.048359	0.040782	-0.043006	-0.859619	0.576904	-0.704590	0.042969	-0.030961	0.082701	-0.427272	-0.129811	0.247585	-0.859820	-20.463029	-25.772612	131.880760
54668		4.265833	-3.105421	8.301054	0.015275	-0.001043	0.023381	0.047612	0.042459	-0.044909	-0.845947	0.581787	-0.713135	0.042669	-0.031084	0.082994	-0.427460	-0.129761	0.247289	-0.859819	-20.425229	-25.756935	131.848675
54669		4.280641	-3.054794	8.330940	-0.031168	-0.026787	0.039141	0.055381	0.044396	-0.037848	-0.853516	0.580811	-0.708252	0.042819	-0.030579	0.083291	-0.427607	-0.129711	0.246956	-0.859849	-20.384398	-25.738463	131.821431
54670		4.290106	-3.018582	8.321306	-0.062920	-0.027967	0.023788	0.056340	0.025657	-0.034779	-0.852051	0.580322	-0.718018	0.042906	-0.030217	0.083199	-0.427707	-0.129742	0.246660	-0.859879	-20.345760	-25.729436	131.801660
54671		4.299974	-3.096460	8.323269	-0.003212	0.022467	0.054133	0.054241	0.021861	-0.029968	-0.859375	0.580566	-0.715576	0.043004	-0.030994	0.083220	-0.427793	-0.129777	0.246386	-0.859910	-20.309806	-25.721469	131.784127
54672		4.282173	-3.106822	8.319382	0.019099	0.022784	0.046348	0.055490	0.024782	-0.036386	-0.855713	0.581787	-0.715332	0.042826	-0.031099	0.083180	-0.427911	-0.129809	0.246096	-0.859929	-20.271200	-25.713248	131.761896
54673		4.303448	-3.069115	8.276652	-0.021062	0.045650	0.007678	0.051250	0.028618	-0.037539	-0.853271	0.579834	-0.722900	0.043041	-0.030720	0.082752	-0.428040	-0.129817	0.245814	-0.859945	-20.234366	-25.703131	131.738373
54674		4.274419	-3.053095	8.325240	-0.012819	-0.003021	0.031168	0.045400	0.030658	-0.044378	-0.854736	0.581787	-0.719238	0.042750	-0.030559	0.083239	-0.428199	-0.129814	0.245549	-0.859942	-20.198958	-25.693233	131.711022
54675		4.284529	-3.017489	8.314976	-0.044549	-0.004191	0.015804	0.043599	0.029118	-0.044981	-0.849609	0.576904	-0.710449	0.042851	-0.030203	0.083137	-0.428366	-0.129813	0.245294	-0.859931	-20.164551	-25.684291	131.682966
54676		4.238267	-3.018364	8.356899	-0.013169	-0.052322	0.031513	0.039271	0.038426	-0.039119	-0.854248	0.576660	-0.717773	0.042393	-0.030208	0.083555	-0.428514	-0.129757	0.245043	-0.859937	-20.133411	-25.669230	131.657291
54677		4.213847	-3.101276	8.274291	0.068822	0.022547	-0.023251	0.035762	0.032562	-0.045085	-0.848389	0.582031	-0.719971	0.042145	-0.031037	0.082731	-0.428691	-0.129725	0.244815	-0.859920	-20.103159	-25.658428	131.628436
54678		4.206925	-3.139458	8.309407	0.106651	0.023628	0.015269	0.045814	0.035328	-0.050201	-0.853516	0.574707	-0.716553	0.042076	-0.031424	0.083079	-0.428874	-0.129711	0.244533	-0.859910	-20.065688	-25.647085	131.597507
54679		4.244595	-3.085165	8.273530	0.043367	0.045921	-0.015640	0.049071	0.042113	-0.058938	-0.847900	0.573975	-0.721680	0.042454	-0.030884	0.082719	-0.429112	-0.129682	0.244218	-0.859885	-20.023351	-25.633829	131.558323
54680		4.231569	-3.051542	8.329370	0.028487	-0.003316	0.015622	0.053179	0.049713	-0.066120	-0.852539	0.578369	-0.716309	0.042326	-0.030552	0.083275	-0.429385	-0.129640	0.243864	-0.859856	-19.976120	-25.617857	131.513687
54681		4.229244	-3.100921	8.293919	0.072621	0.046405	-0.000253	0.055286	0.056077	-0.068785	-0.857178	0.574219	-0.722656	0.042305	-0.031047	0.082919	-0.429679	-0.129577	0.243486	-0.859826	-19.926406	-25.598948	131.465628
54682		4.176257	-3.085591	8.317792	0.096259	-0.002086	-0.007669	0.062047	0.060658	-0.078305	-0.856201	0.583252	-0.718750	0.041776	-0.030898	0.083156	-0.430013	-0.129521	0.243064	-0.859787	-19.870097	-25.579498	131.411170
54683		4.234831	-3.054269	8.289981	0.040077	0.044973	-0.015622	0.064456	0.071883	-0.084209	-0.848145	0.570313	-0.717529	0.042365	-0.030587	0.082875	-0.430386	-0.129429	0.242603	-0.859744	-19.809738	-25.554985	131.350547
54684		4.225731	-3.003215	8.295121	0.009004	0.019349	-0.030833	0.065824	0.074543	-0.093268	-0.853027	0.572021	-0.719482	0.042274	-0.030079	0.082926	-0.430789	-0.129342	0.242124	-0.859690	-19.746344	-25.530834	131.285520
54685		4.244378	-3.018983	8.398370	0.016721	-0.004376	0.069687	0.069832	0.082209	-0.097969	-0.853516	0.570801	-0.722900	0.042463	-0.030240	0.083956	-0.431230	-0.129233	0.241608	-0.859631	-19.678494	-25.503289	131.214547
54686		4.151538	-3.135065	8.312453	0.168799	0.047856	-0.008097	0.070987	0.087817	-0.099715	-0.851563	0.576660	-0.725342	0.041536	-0.031401	0.083095	-0.431682	-0.129106	0.241075	-0.859573	-19.609227	-25.473106	131.141676
54687		4.235172	-2.884687	8.396920	-0.076263	-0.056540	0.023844	0.075552	0.088744	-0.101873	-0.858154	0.573486	-0.724854	0.042374	-0.028900	0.083939	-0.432143	-0.128986	0.240518	-0.859515	-19.536613	-25.442627	131.067090
54688		4.232125	-3.073385	8.357469	0.081634	0.069817	0.045929	0.071198	0.092618	-0.100579	-0.845459	0.576660	-0.727051	0.042344	-0.030785	0.083544	-0.432594	-0.128841	0.239972	-0.859462	-19.466846	-25.409810	130.994256
54689		4.110349	-3.121767	8.356775	0.197872	0.023706	0.007514	0.084239	0.097113	-0.111348	-0.848145	0.562256	-0.725830	0.041127	-0.031276	0.083535	-0.433100	-0.128716	0.239353	-0.859399	-19.386198	-25.376443	130.912363
54690		4.372219	-2.900878	8.338895	-0.129786	0.112344	0.038154	0.085237	0.114043	-0.121549	-0.845947	0.572266	-0.720215	0.043752	-0.029071	0.083352	-0.433649	-0.128535	0.238685	-0.859335	-19.301185	-25.335681	130.823593
54691		4.059087	-3.032165	8.396719	0.167339	-0.050914	-0.007358	0.088725	0.117074	-0.117981	-0.852051	0.563965	-0.729736	0.040622	-0.030383	0.083930	-0.434204	-0.128341	0.237998	-0.859274	-19.214657	-25.292553	130.733721
54692		4.163245	-2.945781	8.483355	0.043098	-0.053982	0.085431	0.096596	0.121940	-0.131231	-0.854004	0.563721	-0.739258	0.041665	-0.029526	0.084794	-0.434799	-0.128163	0.237260	-0.859204	-19.120297	-25.249252	130.637425
54693		4.075074	-3.044078	8.438757	0.180475	-0.026251	0.038809	0.099326	0.116065	-0.135911	-0.851074	0.563965	-0.736572	0.040779	-0.030510	0.084349	-0.435422	-0.128017	0.236518	-0.859115	-19.023422	-25.209763	130.537247
54694		4.058898	-3.003161	8.406908	0.164170	-0.027218	-0.007484	0.104151	0.105990	-0.149588	-0.841064	0.566162	-0.733398	0.040611	-0.030106	0.084032	-0.436079	-0.127943	0.235768	-0.858999	-18.921412	-25.178080	130.432392
54695		4.082291	-3.025471	8.532241	0.179555	-0.050579	0.116204	0.108786	0.093569	-0.160351	-0.843262	0.554199	-0.726563	0.040839	-0.030334	0.085287	-0.436774	-0.127943	0.235018	-0.858851	-18.815038	-25.154995	130.322388
54696		3.886071	-3.081834	8.484909	0.350463	-0.119989	0.008498	0.117746	0.074650	-0.172125	-0.852295	0.566406	-0.740479	0.038866	-0.030902	0.084816	-0.437466	-0.128063	0.234263	-0.858688	-18.702625	-25.144107	130.212613
54697		4.061833	-2.894410	8.524490	0.109756	-0.102166	0.062560	0.125357	0.050940	-0.194408	-0.850830	0.555420	-0.737305	0.040612	-0.029037	0.085216	-0.438245	-0.128322	0.233514	-0.858456	-18.581826	-25.150009	130.090927
54698		3.942492	-2.979854	8.555359	0.264625	-0.146868	0.062803	0.125280	0.035106	-0.200194	-0.849121	0.555176	-0.736572	0.039410	-0.029892	0.085528	-0.439006	-0.128660	0.232794	-0.858212	-18.461316	-25.165319	129.972202
54699		4.050567	-2.844722	8.547072	0.108778	-0.127046	0.062735	0.129721	0.009895	-0.211768	-0.839111	0.552490	-0.731445	0.040480	-0.028546	0.085450	-0.439808	-0.129125	0.232104	-0.857918	-18.336978	-25.196209	129.848229
54700		4.050584	-2.839271	8.603122	0.124048	-0.150960	0.109217	0.130560	-0.007821	-0.218210	-0.846191	0.548340	-0.732422	0.040471	-0.028493	0.086014	-0.440587	-0.129680	0.231444	-0.857613	-18.212374	-25.237581	129.727734
54701		4.073110	-2.717259	8.578472	0.031317	-0.178528	0.063092	0.132635	-0.038810	-0.219315	-0.851563	0.545410	-0.735352	0.040685	-0.027274	0.085775	-0.441362	-0.130368	0.230843	-0.857272	-18.088263	-25.295847	129.608596
54702		4.193157	-2.649511	8.639439	-0.070546	-0.156707	0.147875	0.125906	-0.061856	-0.217686	-0.849854	0.544922	-0.727539	0.041876	-0.026595	0.086391	-0.442087	-0.131143	0.230322	-0.856920	-17.970563	-25.366195	129.497466
54703		4.146201	-2.814977	8.446383	0.109666	-0.006123	0.007921	0.120034	-0.078831	-0.212622	-0.855469	0.541260	-0.732666	0.041399	-0.028244	0.084463	-0.442794	-0.131966	0.229867	-0.856551	-17.858322	-25.444656	129.389775
54704		4.300937	-2.815072	8.422185	0.043564	0.114140	0.053463	0.129625	-0.101675	-0.217027	-0.851318	0.544434	-0.736328	0.042936	-0.028252	0.084225	-0.443466	-0.132919	0.229419	-0.856176	-17.741556	-25.536297	129.286362
54705		4.201933	-2.885844	8.395833	0.182363	0.093209	0.007310	0.138852	-0.107969	-0.225651	-0.849365	0.542236	-0.736084	0.041941	-0.028964	0.083961	-0.444181	-0.133924	0.228939	-0.855777	-17.617029	-25.632532	129.175890
54706		4.157825	-3.018824	8.313263	0.341434	0.170525	-0.047165	0.162652	-0.118374	-0.243216	-0.858154	0.539063	-0.733398	0.041492	-0.030306	0.083133	-0.444917	-0.135050	0.228366	-0.855371	-17.475218	-25.737109	129.059970
54707		4.222376	-2.938987	8.424069	0.272535	0.120141	0.053530	0.206890	-0.116542	-0.257698	-0.849121	0.533691	-0.735107	0.042137	-0.029531	0.084235	-0.445711	-0.136278	0.227590	-0.854969	-17.303275	-25.843013	128.930937
54708		4.181666	-2.835294	8.370640	0.242262	0.069616	-0.038783	0.238846	-0.136307	-0.262363	-0.856201	0.528564	-0.729004	0.041722	-0.028508	0.083701	-0.446467	-0.137670	0.226719	-0.854583	-17.113248	-25.960120	128.804048
54709		4.129609	-2.954679	8.506127	0.412576	0.026317	0.085138	0.292599	-0.167430	-0.254744	-0.864746	0.531982	-0.730225	0.041187	-0.029724	0.085052	-0.447129	-0.139303	0.225691	-0.854244	-16.896214	-26.092629	128.685259
54710		4.145013	-2.440537	8.720682	0.028089	-0.326695	0.141205	0.296133	-0.201294	-0.249462	-0.859375	0.522705	-0.737061	0.041332	-0.024586	0.087212	-0.447722	-0.141083	0.224728	-0.853896	-16.680946	-26.242502	128.575889
54711		4.125960	-2.408444	8.848968	0.060933	-0.423058	0.234478	0.292822	-0.252091	-0.245066	-0.869141	0.523193	-0.728027	0.041118	-0.024264	0.088506	-0.448243	-0.143066	0.223894	-0.853512	-16.472071	-26.419119	128.477059
54712		4.169178	-2.399511	8.883879	0.075511	-0.422568	0.280803	0.237327	-0.304269	-0.253453	-0.862061	0.517578	-0.723633	0.041526	-0.024153	0.088873	-0.448779	-0.145156	0.223407	-0.853005	-16.296333	-26.625508	128.381744
54713		4.225120	-2.441164	8.734718	0.117506	-0.300017	0.187422	0.239825	-0.364302	-0.248541	-0.863037	0.508789	-0.718994	0.042062	-0.024569	0.087395	-0.449223	-0.147501	0.223045	-0.852463	-16.124536	-26.863847	128.299253
54714		4.306923	-2.341394	8.811951	0.040871	-0.350861	0.264871	0.228071	-0.423273	-0.231864	-0.867432	0.506348	-0.722900	0.042855	-0.023564	0.088184	-0.449536	-0.150051	0.222878	-0.851896	-15.968238	-27.131842	128.236559
54715		4.382482	-2.485347	8.622163	0.157881	-0.152828	0.171112	0.221315	-0.472314	-0.231977	-0.870117	0.509766	-0.727539	0.043592	-0.025000	0.086297	-0.449796	-0.152794	0.222848	-0.851279	-15.818948	-27.426691	128.181531
54716		4.420254	-2.456604	8.638757	0.165461	-0.177114	0.194441	0.224596	-0.516301	-0.233099	-0.874756	0.504150	-0.715088	0.043951	-0.024714	0.086474	-0.450006	-0.155732	0.222900	-0.850622	-15.670370	-27.745872	128.132456
54717		4.613037	-2.370745	8.575870	0.038263	-0.083298	0.209156	0.239149	-0.547382	-0.232591	-0.883301	0.494873	-0.710693	0.045868	-0.023864	0.085856	-0.450163	-0.158833	0.222958	-0.849950	-15.515298	-28.081983	128.088058
54718		4.659586	-2.327840	8.535292	0.029737	-0.083935	0.185987	0.226522	-0.574778	-0.237845	-0.886475	0.497803	-0.710938	0.046323	-0.023430	0.085460	-0.450318	-0.162025	0.223125	-0.849221	-15.367444	-28.433948	128.043910
54719		4.679229	-2.521776	8.480695	0.234362	0.019638	0.193362	0.237491	-0.591828	-0.251511	-0.890869	0.493408	-0.702393	0.046509	-0.025377	0.084915	-0.450497	-0.165329	0.223270	-0.848451	-15.209687	-28.797269	127.992923
54720		4.851390	-2.339459	8.386668	0.039199	0.062220	0.154230	0.212515	-0.598261	-0.278074	-0.898926	0.490234	-0.702881	0.048230	-0.023551	0.083986	-0.450798	-0.168631	0.223512	-0.847577	-15.057799	-29.168023	127.924895
54721		4.848350	-2.233005	8.399526	0.010415	-0.036667	0.139347	0.194448	-0.607954	-0.293361	-0.895020	0.488037	-0.687988	0.048195	-0.022483	0.084120	-0.451162	-0.171948	0.223835	-0.846631	-14.911178	-29.546227	127.847495
54722		4.864401	-2.168486	8.380412	0.003346	-0.086120	0.116471	0.174513	-0.613481	-0.302030	-0.897461	0.487793	-0.684326	0.048354	-0.021831	0.083934	-0.451569	-0.175252	0.224246	-0.845628	-14.772651	-29.928618	127.764080
54723		4.912205	-2.110192	8.404998	-0.011520	-0.135472	0.147621	0.168873	-0.624537	-0.304385	-0.904785	0.477295	-0.682861	0.048827	-0.021247	0.084185	-0.451972	-0.178590	0.224701	-0.844593	-14.636270	-30.317281	127.679675
54724		5.039826	-2.126819	8.323152	-0.015279	-0.038146	0.147028	0.154751	-0.648890	-0.303474	-0.906006	0.481934	-0.687744	0.050095	-0.021409	0.083378	-0.452351	-0.181995	0.225268	-0.843511	-14.509223	-30.719169	127.598512
54725		5.075788	-2.075725	8.286764	-0.023065	-0.063194	0.123998	0.152997	-0.665282	-0.304206	-0.914307	0.475830	-0.673340	0.050450	-0.020898	0.083020	-0.452710	-0.185464	0.225876	-0.842400	-14.383060	-31.130081	127.518271
54726		5.070206	-2.002600	8.310157	-0.020990	-0.161095	0.124578	0.155069	-0.678584	-0.299054	-0.914795	0.473389	-0.669678	0.050390	-0.020166	0.083257	-0.453024	-0.188986	0.226507	-0.841278	-14.257449	-31.547515	127.442139
54727		5.156806	-1.956570	8.248635	-0.053398	-0.137992	0.108927	0.134032	-0.689788	-0.303191	-0.921631	0.461914	-0.667725	0.051253	-0.019699	0.082650	-0.453356	-0.192509	0.227245	-0.840100	-14.142165	-31.971596	127.363820
54728		5.236780	-2.148341	8.110978	0.110459	0.037454	0.077364	0.138197	-0.697874	-0.304013	-0.922607	0.468506	-0.655273	0.052052	-0.021619	0.081277	-0.453672	-0.196073	0.227979	-0.838906	-14.023758	-32.400167	127.284871
54729		5.289211	-2.050321	8.092497	0.057077	-0.013302	0.069830	0.139985	-0.711722	-0.306799	-0.938477	0.458984	-0.650879	0.052572	-0.020641	0.081098	-0.453975	-0.199700	0.228731	-0.837681	-13.903208	-32.836664	127.204951
54730		5.332653	-2.099935	8.052086	0.132654	0.013133	0.069858	0.157366	-0.724187	-0.311596	-0.926025	0.459961	-0.645996	0.053002	-0.021146	0.080697	-0.454259	-0.203421	0.229431	-0.836439	-13.770791	-33.280621	127.122304
54731		5.415802	-1.932675	8.056793	0.010503	-0.063998	0.085460	0.173299	-0.726529	-0.302614	-0.939453	0.450928	-0.635010	0.053836	-0.019478	0.080747	-0.454480	-0.207174	0.230074	-0.835220	-13.631223	-33.724480	127.044385
54732		5.384317	-2.103474	7.981123	0.224356	-0.009226	0.039360	0.164353	-0.743152	-0.312061	-0.940674	0.452881	-0.633545	0.053513	-0.021184	0.079993	-0.454723	-0.210984	0.230779	-0.833939	-13.493360	-34.178723	126.961077
54733		5.382928	-2.307050	7.965115	0.461186	0.046672	0.062839	0.193736	-0.750174	-0.321456	-0.940430	0.448730	-0.627197	0.053493	-0.023234	0.079830	-0.454958	-0.214897	0.231364	-0.832649	-13.334026	-34.637933	126.870709
54734		5.514048	-2.049084	7.994107	0.247080	-0.057515	0.109220	0.218347	-0.773429	-0.331469	-0.954590	0.443604	-0.614258	0.054797	-0.020669	0.080131	-0.455173	-0.218970	0.231884	-0.831324	-13.157079	-35.111218	126.775070
54735		5.505387	-2.147720	8.010482	0.408948	-0.077157	0.132963	0.219595	-0.799648	-0.346913	-0.950684	0.439453	-0.613770	0.054696	-0.021660	0.080300	-0.455412	-0.223170	0.232437	-0.829921	-12.973581	-35.600875	126.670667
54736		5.591566	-2.031669	8.007445	0.340038	-0.128242	0.156248	0.223375	-0.829942	-0.368118	-0.958252	0.437012	-0.610352	0.055545	-0.020509	0.080283	-0.455690	-0.227523	0.233016	-0.828422	-12.779962	-36.109883	126.553753
54737		5.670927	-1.973006	8.034707	0.332779	-0.177276	0.210571	0.227857	-0.871598	-0.397654	-0.969971	0.430420	-0.600098	0.056319	-0.019934	0.080570	-0.456027	-0.232088	0.233631	-0.826796	-12.572741	-36.645551	126.419876
54738		5.641671	-1.984547	8.110933	0.451246	-0.295853	0.250217	0.247517	-0.918405	-0.414574	-0.970215	0.426514	-0.594727	0.056002	-0.020062	0.081342	-0.456344	-0.236906	0.234247	-0.825078	-12.348469	-37.209085	126.277890
54739		5.675307	-1.947260	8.211412	0.507847	-0.416048	0.336015	0.265325	-0.981524	-0.427550	-0.976807	0.418945	-0.583496	0.056307	-0.019702	0.082365	-0.456607	-0.242033	0.234910	-0.823254	-12.110634	-37.809078	126.132464
54740		5.664849	-1.974705	8.144854	0.615931	-0.437799	0.274752	0.268641	-1.048323	-0.445716	-0.983887	0.413086	-0.578125	0.056176	-0.019982	0.081717	-0.456847	-0.247456	0.235684	-0.821285	-11.865272	-38.448162	125.979743
54741		5.686052	-1.992257	8.096803	0.708504	-0.459838	0.244338	0.284235	-1.115510	-0.466198	-0.988525	0.412354	-0.571777	0.056361	-0.020170	0.081255	-0.457057	-0.253206	0.236513	-0.819175	-11.603398	-39.126804	125.817313
54742		6.029533	-1.791520	8.097554	0.481726	-0.417237	0.420958	0.314117	-1.192748	-0.490596	-0.992188	0.400879	-0.557861	0.059767	-0.018190	0.081305	-0.457219	-0.259358	0.237355	-0.816913	-11.315219	-39.850942	125.642672
54743		6.147891	-1.834995	8.030765	0.564135	-0.366025	0.444163	0.325364	-1.272642	-0.524414	-1.006104	0.394775	-0.544189	0.060918	-0.018641	0.080666	-0.457388	-0.265891	0.238279	-0.814445	-11.005704	-40.623065	125.447882
54744		6.049081	-1.624797	8.175761	0.573697	-0.707983	0.446068	0.338159	-1.355315	-0.552671	-1.000977	0.399902	-0.531982	0.059890	-0.016553	0.082137	-0.457532	-0.272809	0.239291	-0.811775	-10.675563	-41.443862	125.235778
54745		6.097093	-1.577128	8.331969	0.670946	-0.900025	0.571004	0.305156	-1.454119	-0.590690	-1.006592	0.381104	-0.514648	0.060316	-0.016078	0.083735	-0.457730	-0.280083	0.240595	-0.808796	-10.345792	-42.323410	124.999630
54746		5.981495	-1.936616	8.255676	1.148109	-0.861802	0.464544	0.329872	-1.557198	-0.615445	-1.012451	0.379150	-0.505127	0.059110	-0.019685	0.082987	-0.457839	-0.287839	0.241985	-0.805590	-9.988734	-43.262448	124.748066
54747		6.244121	-1.803872	8.081611	1.020675	-0.768237	0.479078	0.357981	-1.676799	-0.661655	-1.015869	0.365723	-0.488770	0.061700	-0.018389	0.081303	-0.457913	-0.296176	0.243450	-0.802077	-9.589747	-44.272356	124.463850
54748		6.281804	-2.008816	7.949091	1.303271	-0.686915	0.410356	0.402635	-1.795856	-0.720620	-1.028809	0.354248	-0.466064	0.062028	-0.020473	0.080009	-0.457970	-0.305137	0.244899	-0.798235	-9.128393	-45.353386	124.132541
54749		6.582863	-2.291726	7.940316	1.597198	-0.506058	0.619159	0.470126	-1.905393	-0.794695	-1.034424	0.348877	-0.444092	0.064976	-0.023364	0.079970	-0.458039	-0.314749	0.246190	-0.794055	-8.575732	-46.500949	123.734452
54750		6.627088	-2.018867	7.815281	1.485471	-0.656969	0.503801	0.526017	-2.003403	-0.868284	-1.031738	0.336914	-0.430420	0.065395	-0.020680	0.078757	-0.458136	-0.324930	0.247340	-0.789528	-7.930094	-47.707041	123.260651
54751		6.948893	-2.408665	7.516154	1.818810	-0.231539	0.541755	0.568845	-2.098194	-0.965071	-1.048584	0.321533	-0.406738	0.068578	-0.024634	0.075815	-0.458368	-0.335661	0.248347	-0.784572	-7.174032	-48.970372	122.681294
54752		7.441421	-2.420269	7.562706	1.882682	-0.130275	0.904554	0.707017	-2.171607	-1.084096	-1.059326	0.316650	-0.380615	0.073454	-0.024872	0.076341	-0.458675	-0.347093	0.248744	-0.779275	-6.223027	-50.277392	121.960946
54753		7.495386	-1.751001	7.773659	1.566867	-0.701728	0.991133	0.704630	-2.205708	-1.100718	-1.053711	0.303955	-0.353271	0.073992	-0.018195	0.078493	-0.458935	-0.358618	0.249159	-0.773751	-5.210129	-51.596787	121.172947
54754		7.180386	-1.231688	6.957961	1.166745	-0.669810	0.170916	0.617636	-2.289049	-1.193803	-1.066162	0.283447	-0.344727	0.070925	-0.012958	0.070355	-0.459529	-0.370319	0.249894	-0.767626	-4.122407	-52.958604	120.241567
54755		7.830579	-1.982692	6.877235	1.840809	-0.085103	0.634442	0.582274	-2.344604	-1.296936	-1.069580	0.273682	-0.307861	0.077361	-0.020533	0.069624	-0.460432	-0.382217	0.250654	-0.760977	-2.902302	-54.344275	119.137644
54756		8.136198	-2.290088	6.810676	2.250385	0.099103	0.805498	0.601873	-2.351384	-1.374497	-1.066162	0.255615	-0.281250	0.080393	-0.023662	0.068985	-0.461496	-0.394206	0.251161	-0.754016	-1.516871	-55.720106	117.864337
54757		8.782217	-1.950154	6.541705	1.940043	0.310630	1.135177	0.637265	-2.331314	-1.501931	-1.073730	0.237305	-0.257080	0.086901	-0.020367	0.066370	-0.462905	-0.406287	0.251186	-0.746696	0.108007	-57.065939	116.348639
54758		10.071780	-1.728759	5.947786	1.485219	1.130296	1.862641	0.602437	-2.231993	-1.484133	-1.075684	0.230957	-0.232910	0.099913	-0.018212	0.060542	-0.464353	-0.417812	0.251100	-0.739431	1.820743	-58.329827	114.727252
54759		9.322708	-1.131554	5.627459	1.257157	0.605821	1.045828	0.478251	-2.093362	-1.486635	-1.075439	0.212891	-0.214844	0.092543	-0.012141	0.057217	-0.466160	-0.428467	0.251100	-0.732160	3.588408	-59.487640	112.979990
54760		8.716236	-1.305821	5.056769	1.542832	0.707872	0.205405	0.309492	-1.972354	-1.476812	-1.076416	0.191895	-0.188721	0.086558	-0.013778	0.051402	-0.468371	-0.438202	0.251418	-0.724843	5.368609	-60.548093	111.126050
54761		8.677475	-1.212302	4.740081	1.548411	0.779959	-0.003188	0.160911	-1.794825	-1.486999	-1.073975	0.181885	-0.167725	0.086251	-0.012804	0.048166	-0.471098	-0.446898	0.251798	-0.717598	7.180415	-61.477434	109.157156
54762		8.253625	-0.283986	4.517915	0.878093	0.268176	-0.444215	0.003513	-1.593783	-1.538403	-1.061035	0.161133	-0.160889	0.082148	-0.003474	0.045835	-0.474555	-0.454505	0.252125	-0.710391	9.042380	-62.257352	107.044567
54763		8.654124	-0.242768	3.648386	0.606311	1.040822	-0.495507	-0.213076	-1.370650	-1.551072	-1.068848	0.147217	-0.145996	0.086266	-0.003058	0.037079	-0.478775	-0.460774	0.252631	-0.703306	10.855591	-62.877890	104.861089
54764		8.340132	-0.066578	2.924372	0.351811	1.347340	-1.084985	-0.287906	-1.268664	-1.558461	-1.059814	0.135742	-0.133301	0.083205	-0.001272	0.029773	-0.483273	-0.466462	0.253116	-0.696271	12.696154	-63.407846	102.609604
54765		6.454032	-1.486210	10.174045	4.867342	-4.784218	0.226930	-0.545942	-0.631233	-1.319725	-1.052002	0.118408	-0.134033	0.064120	-0.015008	0.101984	-0.488308	-0.468971	0.253492	-0.690915	14.013394	-63.585867	100.785114
54766		9.199592	-9.073799	14.000914	13.064722	-3.733190	3.542695	-1.121875	0.815555	-0.324967	-1.050781	0.115723	-0.143799	0.092420	-0.090102	0.140139	-0.493064	-0.463785	0.254646	-0.690614	13.495515	-63.088365	100.641758
54767		3.900879	-12.086620	9.332605	14.343647	-1.161861	-3.385786	-0.984068	1.847082	0.464242	-1.045166	0.122314	-0.159668	0.040152	-0.120314	0.093552	-0.496047	-0.454337	0.254588	-0.694766	11.968485	-62.115382	101.723503
54768		2.062852	-10.903918	6.457827	12.253807	-0.066585	-5.980149	-0.269493	2.285879	1.025671	-1.050049	0.126221	-0.178711	0.021924	-0.108842	0.064479	-0.495949	-0.444354	0.252204	-0.702124	10.270889	-60.943716	103.474880
54769		2.498780	-6.605479	6.256488	8.096772	-1.192925	-5.118714	0.199223	2.456467	1.460063	-1.049316	0.146484	-0.203369	0.026235	-0.065928	0.062182	-0.493407	-0.434311	0.248666	-0.711399	8.521941	-59.691939	105.616031
54770		2.351912	-3.238144	5.816103	4.778610	-2.077180	-5.049240	0.192639	2.502087	1.809998	-1.043457	0.165283	-0.239990	0.024536	-0.032218	0.057827	-0.489583	-0.423550	0.245750	-0.721471	6.590028	-58.406685	107.992784
54771		2.291629	-1.693396	5.955459	3.336292	-2.707057	-4.800252	-0.064472	2.432423	2.023516	-1.029541	0.190918	-0.245117	0.023808	-0.016677	0.059274	-0.485327	-0.412053	0.244317	-0.731423	4.498076	-57.131345	110.418658
54772		2.882653	-1.338347	6.282734	2.905403	-2.692431	-3.992064	-0.329933	2.330078	2.078617	-1.020752	0.206299	-0.271240	0.029692	-0.012975	0.062506	-0.481171	-0.400106	0.244161	-0.740794	2.379176	-55.869134	112.728135
54773		3.610494	-1.402448	6.635863	2.783435	-2.447987	-3.082688	-0.495716	2.304882	2.030309	-1.015381	0.217041	-0.298340	0.037005	-0.013488	0.065969	-0.477375	-0.387824	0.244518	-0.749611	0.364584	-54.576261	114.831480
54774		4.570740	-1.494895	7.100912	2.610916	-2.130762	-1.926829	-0.570048	2.401897	1.927533	-1.016602	0.244873	-0.314941	0.046696	-0.014301	0.070494	-0.474112	-0.375021	0.244668	-0.758099	-1.469076	-53.188022	116.692148
54775		5.041388	-1.285069	7.586348	2.243970	-2.187804	-1.164504	-0.604721	2.540895	1.832442	-1.008057	0.263184	-0.346191	0.051486	-0.012154	0.075251	-0.471324	-0.361642	0.244375	-0.766388	-3.113593	-51.690616	118.325951
54776		5.220052	-0.872470	7.905495	1.689101	-2.349937	-0.750444	-0.669532	2.652127	1.783493	-0.991699	0.281738	-0.369141	0.053316	-0.007989	0.078380	-0.468855	-0.347637	0.243920	-0.774485	-4.636089	-50.103619	119.788441
54777		5.528094	-0.879441	7.902136	1.343726	-2.017578	-0.437581	-0.759016	2.695726	1.796055	-0.983887	0.288818	-0.388916	0.056414	-0.007993	0.078297	-0.466416	-0.333156	0.243660	-0.782364	-6.102355	-48.468560	121.145319
54778		5.689231	-1.110495	7.743363	1.180948	-1.558330	-0.340156	-0.791807	2.665641	1.868579	-0.967041	0.311523	-0.412842	0.058016	-0.010262	0.076707	-0.463583	-0.318521	0.243656	-0.790106	-7.533108	-46.822748	122.462178
54779		6.005216	-1.541096	7.549683	1.119705	-0.900187	-0.150236	-0.709613	2.544273	1.975397	-0.953369	0.330566	-0.437500	0.061153	-0.014544	0.074776	-0.459919	-0.304351	0.243706	-0.797780	-8.892774	-45.217007	123.782670
54780		6.620503	-1.711256	7.558349	0.749549	-0.323529	0.346696	-0.564430	2.393350	2.109142	-0.941406	0.352051	-0.453369	0.067278	-0.016195	0.074829	-0.455194	-0.290859	0.243666	-0.805498	-10.171259	-43.661987	125.141227
54781		7.093062	-1.648645	7.872394	0.283196	-0.140531	0.906235	-0.429691	2.263212	2.241414	-0.927734	0.362061	-0.474365	0.071993	-0.015516	0.077947	-0.449462	-0.277973	0.243504	-0.813278	-11.372204	-42.146615	126.539460
54782		7.489157	-1.641405	8.115437	-0.144874	0.067623	1.350070	-0.333866	2.156074	2.355258	-0.918945	0.381836	-0.494629	0.075946	-0.015389	0.080366	-0.442888	-0.265514	0.243292	-0.821073	-12.510569	-40.655971	127.965712
54783		7.792615	-1.672753	8.331001	-0.525000	0.252309	1.701637	-0.274219	2.069028	2.426234	-0.898193	0.407715	-0.508301	0.078977	-0.015660	0.082519	-0.435722	-0.253403	0.243056	-0.828768	-13.583850	-39.185610	129.388916
54784		8.148755	-1.729843	8.495525	-0.938525	0.509218	2.037144	-0.206249	1.999962	2.468409	-0.883057	0.425781	-0.532227	0.082536	-0.016197	0.084150	-0.428101	-0.241597	0.242683	-0.836340	-14.577867	-37.727031	130.791112
54785		8.309909	-1.559987	8.675895	-1.450933	0.517913	2.202976	-0.151020	1.947759	2.470876	-0.869385	0.446045	-0.543945	0.084122	-0.014500	0.085954	-0.420231	-0.230077	0.242129	-0.843709	-15.483198	-36.280258	132.146845
54786		8.302439	-1.187998	8.862667	-2.032761	0.304020	2.214587	-0.102308	1.862119	2.436547	-0.854980	0.460938	-0.553467	0.083981	-0.010816	0.087853	-0.412245	-0.218993	0.241454	-0.850762	-16.300423	-34.868679	133.444449
54787		8.285980	-0.574235	9.085825	-2.778317	-0.086335	2.179193	-0.083868	1.767210	2.361048	-0.837646	0.482178	-0.565918	0.083718	-0.004719	0.090123	-0.404350	-0.208404	0.240756	-0.857383	-17.037571	-33.508709	134.665774
54788		8.267358	0.002257	9.174653	-3.486901	-0.402676	2.027766	-0.081188	1.640810	2.239216	-0.819092	0.501221	-0.580566	0.083415	0.000991	0.091064	-0.396740	-0.198455	0.240127	-0.863454	-17.700573	-32.225203	135.795147
54789		8.512374	0.213247	8.999006	-4.079326	-0.226994	1.883044	-0.060103	1.499091	2.077391	-0.799805	0.506104	-0.589355	0.085767	0.003048	0.089348	-0.389565	-0.189330	0.239482	-0.868931	-18.274654	-31.038669	136.818799
54790		8.850999	0.170399	8.667606	-4.533621	0.221693	1.715072	0.012667	1.330674	1.895169	-0.774414	0.520264	-0.589844	0.089063	0.002541	0.086085	-0.382854	-0.181256	0.238643	-0.873853	-18.737638	-29.967735	137.738493
54791		8.830988	0.404819	8.299521	-4.942860	0.304080	1.255503	0.098834	1.153773	1.665160	-0.764893	0.530518	-0.597412	0.088749	0.004745	0.082486	-0.376811	-0.174385	0.237526	-0.878171	-19.075890	-29.031101	138.534825
54792		8.553989	0.641166	8.023108	-5.128870	0.173580	0.752100	0.120015	0.961006	1.377294	-0.749023	0.525635	-0.595947	0.085877	0.006954	0.079823	-0.371753	-0.168716	0.236410	-0.881728	-19.321051	-28.248372	139.182974
54793		8.635981	0.575741	8.043211	-5.256406	0.266700	0.765719	0.057593	0.791701	1.051550	-0.741211	0.533691	-0.601807	0.086646	0.006189	0.080091	-0.367962	-0.164063	0.235593	-0.884411	-19.514605	-27.618140	139.660749
54794		8.927220	0.230965	8.374513	-5.268345	0.487441	1.227557	-0.083566	0.700267	0.728237	-0.720703	0.536133	-0.608643	0.089555	0.002670	0.083431	-0.365596	-0.159920	0.235296	-0.886229	-19.701733	-27.097005	139.956951
54795		9.211365	-0.340618	8.558010	-5.124636	0.932603	1.635989	-0.231795	0.691022	0.458394	-0.710693	0.534668	-0.606445	0.092416	-0.003096	0.085265	-0.364524	-0.155871	0.235451	-0.887349	-19.896896	-26.633372	140.088873
54796		8.788773	-0.975751	8.323141	-4.492516	1.244289	1.400586	-0.350286	0.737042	0.232676	-0.715332	0.534912	-0.602783	0.088205	-0.009510	0.082924	-0.364594	-0.151657	0.235868	-0.887940	-20.093445	-26.187883	140.072734
54797		8.141609	-1.433826	7.827433	-3.846217	1.457326	0.802986	-0.424715	0.740729	0.057100	-0.698730	0.527588	-0.602539	0.081709	-0.014149	0.078002	-0.365498	-0.147502	0.236471	-0.888108	-20.285384	-25.776082	139.949141
54798		7.353847	-1.690329	7.208164	-3.239694	1.521902	-0.010559	-0.472332	0.672920	-0.076360	-0.695313	0.519775	-0.617432	0.073774	-0.016762	0.071873	-0.366942	-0.143710	0.237307	-0.887911	-20.477231	-25.426918	139.759936
54799		6.575961	-2.001204	6.676483	-2.571376	1.564477	-0.715228	-0.491866	0.517344	-0.168028	-0.690918	0.518555	-0.596680	0.065915	-0.019903	0.066644	-0.368617	-0.140687	0.238445	-0.887397	-20.672126	-25.181030	139.550159
54800		6.347747	-2.399420	6.555944	-2.168011	1.747656	-0.797318	-0.491626	0.299149	-0.222692	-0.688721	0.514648	-0.605225	0.063549	-0.023904	0.065523	-0.370270	-0.138689	0.239943	-0.886619	-20.874501	-25.063101	139.356381
54801		7.296689	-2.708491	7.147349	-2.577833	2.177547	0.201064	-0.504813	0.129596	-0.200671	-0.685059	0.512939	-0.602539	0.072986	-0.026978	0.071494	-0.371628	-0.137397	0.241827	-0.885739	-21.106047	-25.032716	139.213649
54802		8.575962	-3.217145	7.674957	-3.077490	2.947055	1.351807	-0.514777	0.124198	-0.073327	-0.684082	0.507813	-0.594971	0.085796	-0.032005	0.076779	-0.372420	-0.135950	0.243851	-0.885075	-21.375823	-24.978734	139.147081
54803		8.640214	-3.833251	7.657138	-2.714911	3.349778	1.562149	-0.463451	0.225963	0.114363	-0.680420	0.503174	-0.590088	0.086510	-0.038106	0.076562	-0.372468	-0.133924	0.245584	-0.884885	-21.652502	-24.831970	139.167031
54804		7.890865	-4.009935	7.208924	-2.150533	3.243001	0.919125	-0.308523	0.303805	0.307256	-0.684082	0.509033	-0.598877	0.079079	-0.039867	0.072031	-0.371651	-0.131599	0.246614	-0.885290	-21.879917	-24.602231	139.280980
54805		6.937717	-3.535722	6.799382	-1.914131	2.611797	0.004603	-0.125903	0.274775	0.467577	-0.686279	0.499023	-0.594971	0.069553	-0.035152	0.067921	-0.369966	-0.129549	0.246993	-0.886192	-22.043196	-24.353706	139.494336
54806		6.249369	-2.902192	6.519722	-1.956981	1.972292	-0.742724	0.019368	0.149606	0.588328	-0.685303	0.506836	-0.589111	0.062627	-0.028844	0.065148	-0.367495	-0.128167	0.247037	-0.887408	-22.163324	-24.144716	139.806453
54807		6.159868	-2.333010	6.472906	-2.344562	1.592027	-1.023274	0.106808	-0.018830	0.672672	-0.679443	0.503174	-0.593506	0.061671	-0.023157	0.064722	-0.364380	-0.127592	0.247053	-0.888770	-22.268163	-24.006636	140.206744
54808		6.373295	-2.139481	6.516425	-2.661504	1.557169	-0.972349	0.168909	-0.178594	0.715852	-0.667969	0.501465	-0.592773	0.063751	-0.021222	0.065203	-0.360833	-0.127781	0.247110	-0.890173	-22.362435	-23.942888	140.669449
54809		6.384842	-2.003814	6.467483	-2.790266	1.479017	-1.058451	0.235480	-0.308539	0.714764	-0.673096	0.505127	-0.586426	0.063820	-0.019886	0.064750	-0.357081	-0.128672	0.247098	-0.891560	-22.430347	-23.947939	141.162455
54810		6.446179	-1.857935	6.586508	-2.941427	1.327411	-0.982448	0.296848	-0.408051	0.669609	-0.665527	0.506348	-0.574951	0.064389	-0.018462	0.065969	-0.353363	-0.130167	0.246959	-0.892862	-22.462726	-24.014931	141.653159
54811		6.724721	-1.522505	6.809359	-3.362168	1.118550	-0.793164	0.312238	-0.471154	0.601322	-0.676025	0.503418	-0.581543	0.067132	-0.015130	0.068228	-0.349854	-0.132055	0.246813	-0.894006	-22.476936	-24.130345	142.119875
54812		7.010034	-1.236497	7.171252	-3.736464	0.862757	-0.464389	0.256571	-0.463948	0.527408	-0.681152	0.508301	-0.579590	0.069966	-0.012272	0.071859	-0.346717	-0.133901	0.246851	-0.894942	-22.506062	-24.257833	142.542362
54813		7.256896	-1.165653	7.455393	-3.937975	0.759063	-0.142104	0.157494	-0.418650	0.462773	-0.679932	0.498291	-0.573730	0.072440	-0.011548	0.074697	-0.343987	-0.135453	0.247207	-0.895664	-22.572838	-24.375372	142.917016
54814		7.290651	-1.296521	7.563715	-3.863220	0.761483	0.012784	0.060903	-0.334778	0.396061	-0.676758	0.501709	-0.576172	0.072805	-0.012844	0.075755	-0.341721	-0.136543	0.247805	-0.896200	-22.671510	-24.462712	143.233035
54815		7.333545	-1.655981	7.640432	-3.648006	0.939662	0.222669	0.002279	-0.224126	0.318700	-0.686523	0.509033	-0.572754	0.073276	-0.016444	0.076486	-0.339977	-0.137134	0.248421	-0.896603	-22.774319	-24.508241	143.477630
54816		7.189515	-1.756490	7.607670	-3.485458	0.919841	0.170121	-0.018564	-0.096656	0.230799	-0.681396	0.507568	-0.570557	0.071879	-0.017475	0.076113	-0.338800	-0.137226	0.248854	-0.896914	-22.855235	-24.505668	143.640145
54817		6.695185	-1.773084	7.410656	-3.137323	0.758561	-0.196610	-0.008236	0.007156	0.143682	-0.686768	0.506592	-0.575684	0.066967	-0.017680	0.074105	-0.338134	-0.136979	0.249003	-0.897162	-22.898588	-24.467490	143.726747
54818		6.108576	-1.710733	7.136106	-2.778399	0.548408	-0.694296	-0.001644	0.049099	0.051291	-0.688721	0.512451	-0.576172	0.061108	-0.017091	0.071346	-0.337931	-0.136670	0.248990	-0.897289	-22.911734	-24.427879	143.749418
54819		5.670103	-1.689308	6.887636	-2.493105	0.433944	-1.092626	-0.012416	0.019855	-0.052065	-0.680420	0.502686	-0.576660	0.056703	-0.016904	0.068872	-0.338162	-0.136602	0.249003	-0.897209	-22.909166	-24.426614	143.719381
54820		5.543799	-1.781980	6.819170	-2.339455	0.462747	-1.168437	-0.040631	-0.042586	-0.142835	-0.676514	0.502930	-0.570801	0.055411	-0.017846	0.068207	-0.338742	-0.136881	0.249187	-0.896897	-22.907325	-24.478755	143.651977
54821		5.623457	-2.031310	6.865447	-2.216375	0.637881	-1.005609	-0.090818	-0.093890	-0.216906	-0.683838	0.500244	-0.573486	0.056180	-0.020343	0.068690	-0.339623	-0.137396	0.249630	-0.896361	-22.921504	-24.574294	143.554185
54822		5.681583	-2.364387	6.886218	-2.017760	0.864345	-0.842056	-0.130792	-0.133746	-0.272761	-0.681152	0.504150	-0.571777	0.056737	-0.023676	0.068916	-0.340733	-0.138093	0.250283	-0.895651	-22.948953	-24.703638	143.433685
54823		5.649091	-2.706280	6.948694	-1.739651	1.020197	-0.677410	-0.156057	-0.161356	-0.302891	-0.689697	0.502930	-0.572266	0.056394	-0.027094	0.069554	-0.341959	-0.138905	0.251073	-0.894836	-22.986101	-24.854074	143.302446
54824		5.568297	-3.060672	7.012124	-1.414268	1.153132	-0.527560	-0.161237	-0.184920	-0.322025	-0.689209	0.503906	-0.564941	0.055569	-0.030640	0.070197	-0.343243	-0.139841	0.251914	-0.893962	-23.023609	-25.021631	143.165812
54825		5.556921	-3.303293	7.105258	-1.210971	1.233258	-0.363435	-0.150765	-0.195163	-0.308963	-0.688721	0.503906	-0.567383	0.055449	-0.033065	0.071132	-0.344447	-0.140821	0.252733	-0.893114	-23.059039	-25.191407	143.039275
54826		5.435824	-3.599876	7.187516	-0.890680	1.292711	-0.236510	-0.118243	-0.199590	-0.289040	-0.690918	0.501709	-0.560059	0.054234	-0.036035	0.071951	-0.345534	-0.141853	0.253428	-0.892333	-23.080881	-25.359484	142.925335
54827		5.198357	-3.754943	7.215377	-0.587905	1.229088	-0.256128	-0.078273	-0.204447	-0.240373	-0.698242	0.504395	-0.554688	0.051865	-0.037584	0.072222	-0.346366	-0.142912	0.253986	-0.891683	-23.092216	-25.518833	142.840942
54828		5.086595	-3.896825	7.314408	-0.379690	1.187028	-0.168726	-0.032054	-0.219783	-0.188098	-0.691162	0.511475	-0.557373	0.050749	-0.039004	0.073206	-0.346914	-0.144055	0.254402	-0.891167	-23.091675	-25.674949	142.790779
54829		5.070509	-3.985188	7.367291	-0.281014	1.190179	-0.098100	0.023950	-0.235116	-0.123820	-0.684814	0.511963	-0.560059	0.050594	-0.039892	0.073728	-0.347113	-0.145278	0.254640	-0.890823	-23.076884	-25.824277	142.782014
54830		4.893463	-3.955717	7.482538	-0.144191	0.998968	-0.088322	0.069461	-0.237506	-0.061089	-0.697754	0.501953	-0.563232	0.048834	-0.039598	0.074870	-0.346998	-0.146515	0.254726	-0.890641	-23.052312	-25.961232	142.810476
54831		4.646912	-3.830517	7.471051	-0.035495	0.781990	-0.248669	0.104504	-0.254493	-0.011878	-0.694580	0.509521	-0.564453	0.046372	-0.038347	0.074750	-0.346614	-0.147821	0.254720	-0.890576	-23.022205	-26.095672	142.872075
54832		4.450281	-3.662266	7.507548	0.011863	0.538613	-0.363340	0.117417	-0.280684	0.016131	-0.690918	0.507568	-0.555176	0.044400	-0.036663	0.075116	-0.346064	-0.149234	0.254723	-0.890553	-22.995026	-26.238148	142.956592
54833		4.361618	-3.536423	7.608439	0.017633	0.343064	-0.362804	0.106317	-0.303981	0.029632	-0.697021	0.513672	-0.554443	0.043506	-0.035398	0.076132	-0.345429	-0.150711	0.254824	-0.890522	-22.980468	-26.389450	143.054991
54834		4.307338	-3.408446	7.823216	0.008417	0.098375	-0.254258	0.080067	-0.318701	0.034218	-0.695557	0.513184	-0.559326	0.042954	-0.034108	0.078287	-0.344776	-0.152205	0.255072	-0.890450	-22.984153	-26.547976	143.159810
54835		4.344486	-3.414514	7.922483	0.015812	0.049695	-0.153680	0.056495	-0.314206	0.021414	-0.706055	0.514404	-0.551270	0.043324	-0.034163	0.079283	-0.344201	-0.153651	0.255405	-0.890329	-22.997723	-26.706506	143.256198
54836		4.434809	-3.404137	8.140242	-0.015059	-0.048909	0.062359	0.028820	-0.298132	0.005523	-0.707520	0.512451	-0.551758	0.044228	-0.034052	0.081464	-0.343739	-0.155001	0.255822	-0.890153	-23.021494	-26.860566	143.339280
54837		4.576904	-3.386259	8.228230	-0.102299	-0.051881	0.192579	0.011785	-0.254238	-0.016411	-0.707275	0.517090	-0.554199	0.045662	-0.033871	0.082338	-0.343442	-0.156150	0.256221	-0.889952	-23.044348	-26.995892	143.398606
54838		4.599110	-3.253783	8.337358	-0.183612	-0.201489	0.245946	-0.020016	-0.195774	-0.042587	-0.704346	0.508545	-0.552979	0.045903	-0.032539	0.083422	-0.343363	-0.157022	0.256641	-0.889709	-23.071920	-27.106725	143.427763
54839		4.533066	-3.170046	8.287462	-0.188428	-0.275543	0.145648	-0.059432	-0.139923	-0.075478	-0.703613	0.515869	-0.545898	0.045261	-0.031693	0.082916	-0.343530	-0.157616	0.257114	-0.889402	-23.106766	-27.195019	143.423502
54840		4.502711	-3.102380	8.248433	-0.209797	-0.325711	0.075978	-0.103218	-0.103140	-0.118506	-0.707275	0.516357	-0.550537	0.044966	-0.031008	0.082524	-0.343972	-0.158030	0.257685	-0.888993	-23.150855	-27.274097	143.384429
54841		4.573784	-3.178463	8.204489	-0.206467	-0.228192	0.098975	-0.136200	-0.069979	-0.162983	-0.709229	0.519775	-0.547607	0.045683	-0.031766	0.082083	-0.344678	-0.158294	0.258309	-0.888491	-23.197798	-27.345286	143.310687
54842		4.701915	-3.212785	8.173335	-0.272815	-0.133050	0.144283	-0.163074	-0.029881	-0.196716	-0.706543	0.516113	-0.546875	0.046975	-0.032107	0.081767	-0.345609	-0.158380	0.258957	-0.887926	-23.246237	-27.403517	143.206702
54843		4.667471	-3.261176	8.087519	-0.220405	-0.082927	0.075338	-0.175164	-0.004380	-0.226227	-0.713623	0.528809	-0.551270	0.046636	-0.032594	0.080905	-0.346711	-0.158366	0.259590	-0.887313	-23.290410	-27.454599	143.078779
54844		4.673180	-3.352749	7.960061	-0.170424	0.040354	0.006245	-0.178685	0.010807	-0.247497	-0.715088	0.522217	-0.551514	0.046695	-0.033514	0.079628	-0.347930	-0.158310	0.260196	-0.886668	-23.328919	-27.503078	142.934281
54845		4.541408	-3.427938	7.852662	-0.031623	0.068910	-0.115590	-0.172590	0.006430	-0.254160	-0.714600	0.522705	-0.544922	0.045373	-0.034269	0.078555	-0.349166	-0.158288	0.260776	-0.886016	-23.362464	-27.554970	142.786982
54846		4.466800	-3.514690	7.811838	0.083030	0.096789	-0.152776	-0.152422	-0.009699	-0.250768	-0.715332	0.528809	-0.548340	0.044620	-0.035143	0.078147	-0.350351	-0.158372	0.261298	-0.885379	-23.387185	-27.615127	142.645723
54847		4.383692	-3.612455	7.857182	0.221552	0.076849	-0.120067	-0.132403	-0.034700	-0.234811	-0.711426	0.523682	-0.547852	0.043781	-0.036124	0.078603	-0.351415	-0.158577	0.261785	-0.884777	-23.407611	-27.684362	142.520365
54848		4.396141	-3.738940	7.853753	0.310291	0.152899	-0.072693	-0.107250	-0.066516	-0.209280	-0.716064	0.530029	-0.552734	0.043896	-0.037393	0.078572	-0.352305	-0.158936	0.262239	-0.884224	-23.424351	-27.765032	142.418228
54849		4.465942	-3.834691	7.915536	0.344885	0.202865	0.043533	-0.083722	-0.086537	-0.177063	-0.714355	0.525391	-0.553223	0.044591	-0.038353	0.079191	-0.353005	-0.159380	0.262648	-0.883743	-23.438758	-27.848428	142.340411
54850		4.483846	-3.901784	7.981948	0.397028	0.204453	0.129186	-0.051940	-0.108727	-0.138515	-0.715332	0.530762	-0.548828	0.044768	-0.039028	0.079854	-0.353482	-0.159931	0.262987	-0.883352	-23.448284	-27.935195	142.291131
54851		4.444670	-3.914270	7.981280	0.443535	0.181280	0.114438	-0.029017	-0.109101	-0.090719	-0.720215	0.542969	-0.549805	0.044385	-0.039151	0.079843	-0.353728	-0.160457	0.263262	-0.883076	-23.457945	-28.010787	142.270444
54852		4.359268	-3.856958	7.951826	0.469560	0.108355	0.030007	0.006811	-0.125508	-0.053816	-0.725342	0.541504	-0.551514	0.043532	-0.038584	0.079544	-0.353761	-0.161074	0.263440	-0.882897	-23.459440	-28.087062	142.275893
54853		4.353276	-3.823362	8.066083	0.471092	0.010527	0.107431	0.023791	-0.133637	-0.022012	-0.722168	0.536621	-0.547607	0.043475	-0.038248	0.080685	-0.353628	-0.161711	0.263580	-0.882792	-23.461080	-28.159880	142.302480
54854		4.354736	-3.790367	8.147041	0.464427	-0.063265	0.161538	0.041720	-0.141051	0.008799	-0.718994	0.533936	-0.549805	0.043492	-0.037919	0.081493	-0.353336	-0.162376	0.263681	-0.882757	-23.462147	-28.230029	142.349302
54855		4.299168	-3.745242	8.162035	0.481989	-0.136316	0.131034	0.054153	-0.143748	0.032937	-0.727295	0.533691	-0.547119	0.042939	-0.037467	0.081641	-0.352923	-0.163039	0.263750	-0.882780	-23.463233	-28.295626	142.411335
54856		4.215892	-3.671320	8.206042	0.501309	-0.258221	0.100610	0.066019	-0.148675	0.050207	-0.724609	0.532959	-0.544678	0.042107	-0.036730	0.082080	-0.352417	-0.163725	0.263790	-0.882842	-23.463180	-28.360321	142.484918
54857		4.176131	-3.594661	8.330728	0.497140	-0.405162	0.154829	0.071256	-0.156295	0.054543	-0.729980	0.542725	-0.547607	0.041706	-0.035965	0.083327	-0.351877	-0.164445	0.263823	-0.882914	-23.462313	-28.427583	142.563190
54858		4.241598	-3.489005	8.442667	0.398328	-0.506551	0.238565	0.067660	-0.153484	0.050747	-0.725342	0.543457	-0.549316	0.042360	-0.034908	0.084447	-0.351362	-0.165154	0.263865	-0.882975	-23.462266	-28.494665	142.638438
54859		4.301439	-3.454242	8.537418	0.351660	-0.557211	0.330661	0.063038	-0.135047	0.038079	-0.725098	0.531982	-0.550049	0.042963	-0.034561	0.085392	-0.350929	-0.165787	0.263882	-0.883023	-23.458972	-28.554517	142.701439
54860		4.256734	-3.392694	8.591595	0.354304	-0.655227	0.330823	0.061529	-0.112021	0.022146	-0.722412	0.547119	-0.551758	0.042523	-0.033949	0.085929	-0.350598	-0.166339	0.263854	-0.883059	-23.449265	-28.606318	142.748880
54861		4.156054	-3.432883	8.531018	0.454976	-0.652183	0.247302	0.052349	-0.091958	-0.003095	-0.728760	0.545410	-0.544922	0.041521	-0.034352	0.085320	-0.350413	-0.166818	0.263809	-0.883056	-23.435039	-28.652922	142.776074
54862		4.162752	-3.440796	8.582157	0.469861	-0.676403	0.293880	0.042448	-0.080140	-0.030055	-0.729248	0.550293	-0.543945	0.041588	-0.034432	0.085831	-0.350371	-0.167265	0.263765	-0.883001	-23.417349	-28.699851	142.783978
54863		4.246851	-3.433626	8.650026	0.421469	-0.678291	0.385879	0.027030	-0.062414	-0.048666	-0.729736	0.543701	-0.547852	0.042433	-0.034358	0.086509	-0.350446	-0.167628	0.263742	-0.882909	-23.400851	-28.741309	142.776174
54864		4.266731	-3.486678	8.635340	0.449637	-0.628811	0.401686	0.002786	-0.033055	-0.060398	-0.733154	0.547607	-0.544434	0.042643	-0.034881	0.086360	-0.350633	-0.167838	0.263766	-0.882788	-23.391241	-28.770361	142.753642
54865		4.310084	-3.539939	8.644455	0.461885	-0.579795	0.448166	-0.010914	-0.002849	-0.073351	-0.739014	0.540771	-0.542969	0.043087	-0.035410	0.086447	-0.350928	-0.167904	0.263785	-0.882653	-23.381894	-28.786106	142.715548
54866		4.262561	-3.569088	8.546048	0.507010	-0.529864	0.356134	-0.016396	0.021202	-0.087561	-0.728271	0.544678	-0.560791	0.042619	-0.035703	0.085459	-0.351322	-0.167876	0.263775	-0.882504	-23.368617	-28.792768	142.662628
54867		4.173165	-3.555538	8.491197	0.554678	-0.553074	0.264219	-0.029519	0.036643	-0.096159	-0.730957	0.551270	-0.543945	0.041730	-0.035563	0.084910	-0.351785	-0.167766	0.263787	-0.882337	-23.358391	-28.792909	142.600594
54868		4.253795	-3.555700	8.403212	0.489203	-0.458075	0.232341	-0.036662	0.042512	-0.101121	-0.735107	0.547119	-0.551270	0.042538	-0.035563	0.084030	-0.352284	-0.167626	0.263818	-0.882155	-23.350137	-28.791401	142.534012
54869		4.339710	-3.582199	8.387520	0.446679	-0.386567	0.270307	-0.041962	0.036841	-0.103024	-0.725830	0.539307	-0.542480	0.043394	-0.035827	0.083875	-0.352788	-0.167502	0.263879	-0.881959	-23.345031	-28.792982	142.467806
54870		4.420550	-3.680018	8.354591	0.456346	-0.264391	0.316717	-0.046492	0.042974	-0.098277	-0.738037	0.548584	-0.546387	0.044205	-0.036802	0.083545	-0.353283	-0.167339	0.263954	-0.881769	-23.343171	-28.790555	142.402815
54871		4.454709	-3.708913	8.292619	0.445560	-0.191843	0.293384	-0.040243	0.050184	-0.084979	-0.734863	0.550293	-0.541016	0.044552	-0.037091	0.082922	-0.353723	-0.167135	0.263999	-0.881618	-23.340640	-28.781015	142.343988
54872		4.390515	-3.725357	8.209564	0.491565	-0.166259	0.201431	-0.025452	0.053792	-0.073230	-0.732422	0.545410	-0.550537	0.043914	-0.037259	0.082089	-0.354104	-0.166928	0.263983	-0.881509	-23.332639	-28.767188	142.291240
54873		4.259697	-3.699461	8.146633	0.556031	-0.213295	0.078925	-0.010517	0.043909	-0.059061	-0.732422	0.547607	-0.545410	0.042604	-0.037003	0.081459	-0.354397	-0.166770	0.263929	-0.881437	-23.321373	-28.755056	142.249609
54874		4.245724	-3.628626	8.107957	0.510758	-0.239751	0.016539	-0.006156	0.023038	-0.046102	-0.738037	0.556885	-0.544189	0.042458	-0.036294	0.081076	-0.354602	-0.166697	0.263905	-0.881376	-23.314006	-28.751226	142.221114
54875		4.341133	-3.609887	8.182381	0.439017	-0.242510	0.115884	-0.005477	0.015908	-0.029285	-0.735596	0.550293	-0.551514	0.043413	-0.036103	0.081821	-0.354722	-0.166632	0.263904	-0.881340	-23.311941	-28.747067	142.204603
54876		4.399346	-3.607825	8.195676	0.398212	-0.219850	0.153899	0.000683	0.007004	-0.013268	-0.738281	0.546875	-0.549561	0.043994	-0.036081	0.081955	-0.354755	-0.166598	0.263906	-0.881333	-23.312134	-28.744210	142.199963
54877		4.441779	-3.604453	8.276780	0.373835	-0.245388	0.238512	0.005619	0.024361	-0.001090	-0.741455	0.546875	-0.544922	0.044428	-0.036047	0.082761	-0.354753	-0.166478	0.263864	-0.881369	-23.310800	-28.729210	142.198188
54878		4.436191	-3.532057	8.329507	0.329133	-0.320619	0.253334	0.015915	0.040472	0.012903	-0.733154	0.539063	-0.552734	0.044381	-0.035324	0.083283	-0.354702	-0.166289	0.263761	-0.881456	-23.305658	-28.702795	142.200602
54879		4.404487	-3.447873	8.306867	0.284722	-0.371453	0.190928	0.018251	0.061207	0.020300	-0.730713	0.559326	-0.557617	0.044074	-0.034482	0.083052	-0.354644	-0.166001	0.263616	-0.881577	-23.298678	-28.663557	142.202142
54880		4.338503	-3.406171	8.296759	0.294234	-0.420382	0.137062	0.023619	0.086638	0.024437	-0.734863	0.549072	-0.559326	0.043425	-0.034066	0.082945	-0.354597	-0.165607	0.263407	-0.881733	-23.286721	-28.610219	142.199563
54881		4.252366	-3.323853	8.229276	0.281669	-0.470125	0.013361	0.022505	0.099478	0.023006	-0.736816	0.552734	-0.548828	0.042568	-0.033243	0.082268	-0.354573	-0.165154	0.263177	-0.881895	-23.273365	-28.550227	142.192872
54882		4.198244	-3.296189	8.205724	0.290336	-0.494639	-0.040531	0.021217	0.099151	0.016841	-0.729492	0.544189	-0.560303	0.042026	-0.032967	0.082033	-0.354578	-0.164710	0.262950	-0.882044	-23.259085	-28.492005	142.182554
54883		4.216652	-3.281191	8.180866	0.258062	-0.471702	-0.056467	0.022193	0.095783	0.008308	-0.734863	0.548096	-0.553955	0.042207	-0.032819	0.081785	-0.354614	-0.164293	0.262716	-0.882177	-23.242198	-28.437279	142.168055
54884		4.342929	-3.317882	8.270479	0.199234	-0.425197	0.089317	0.014112	0.111068	0.006718	-0.736572	0.555420	-0.557617	0.043476	-0.033183	0.082678	-0.354685	-0.163797	0.262490	-0.882308	-23.227682	-28.375049	142.148667
54885		4.401653	-3.388087	8.205128	0.194045	-0.303563	0.089231	0.020592	0.129770	0.007160	-0.729492	0.544922	-0.552002	0.044071	-0.033888	0.082019	-0.354772	-0.163228	0.262202	-0.882465	-23.207299	-28.302680	142.124812
54886		4.386424	-3.402782	8.140516	0.200081	-0.254874	0.035289	0.021166	0.144609	0.006362	-0.727783	0.548584	-0.563232	0.043924	-0.034035	0.081370	-0.354882	-0.162597	0.261885	-0.882631	-23.184644	-28.222843	142.096695
54887		4.377924	-3.375928	8.041447	0.168146	-0.207552	-0.057863	0.024042	0.143405	0.008244	-0.724609	0.545898	-0.560303	0.043838	-0.033767	0.080379	-0.354979	-0.161972	0.261558	-0.882804	-23.161046	-28.143030	142.070099
54888		4.440962	-3.416878	7.995867	0.140578	-0.111169	-0.050569	0.027071	0.135163	0.010035	-0.733887	0.553223	-0.554443	0.044465	-0.034177	0.079924	-0.355055	-0.161388	0.261235	-0.882976	-23.137297	-28.067312	142.046706
54889		4.642767	-3.470343	7.929723	0.023716	0.079751	0.009336	0.031329	0.127295	0.018001	-0.732422	0.541504	-0.560791	0.046481	-0.034712	0.079262	-0.355082	-0.160834	0.260912	-0.883161	-23.114306	-27.993773	142.030153
54890		4.709646	-3.495058	7.956055	-0.010705	0.127044	0.070568	0.036587	0.136274	0.022256	-0.726318	0.552490	-0.562988	0.047155	-0.034960	0.079522	-0.355098	-0.160246	0.260554	-0.883368	-23.088494	-27.914703	142.013872
54891		4.757808	-3.479133	7.924766	-0.067167	0.173517	0.061946	0.049605	0.141174	0.035783	-0.727539	0.547363	-0.567383	0.047640	-0.034802	0.079205	-0.355049	-0.159641	0.260140	-0.883619	-23.058428	-27.829842	142.004497
54892		4.791267	-3.494458	7.784978	-0.101736	0.294010	-0.031248	0.060084	0.139304	0.042112	-0.727783	0.547363	-0.564209	0.047974	-0.034958	0.077806	-0.354962	-0.159055	0.259688	-0.883893	-23.024413	-27.744711	141.999399
54893		4.799305	-3.422731	7.743757	-0.171089	0.291129	-0.086427	0.061970	0.144692	0.054839	-0.725586	0.551025	-0.559326	0.048058	-0.034238	0.077392	-0.354823	-0.158430	0.259228	-0.884195	-22.992208	-27.653718	142.000609
54894		4.678951	-3.465949	7.692453	-0.070187	0.294414	-0.169679	0.070862	0.133847	0.060453	-0.720459	0.550049	-0.567383	0.046851	-0.034673	0.076881	-0.354638	-0.157864	0.258752	-0.884510	-22.957790	-27.567367	142.007924
54895		4.675626	-3.463799	7.667276	-0.079208	0.318179	-0.192970	0.085035	0.108434	0.063245	-0.720703	0.559082	-0.568359	0.046809	-0.034656	0.076633	-0.354397	-0.157430	0.258261	-0.884828	-22.918956	-27.493630	142.023390
54896		4.715712	-3.457948	7.722595	-0.111879	0.316654	-0.131726	0.090908	0.089205	0.067200	-0.725830	0.542969	-0.565674	0.047203	-0.034599	0.077189	-0.354109	-0.157087	0.257781	-0.885144	-22.880121	-27.429354	142.046050
54897		4.770965	-3.466442	7.763275	-0.145473	0.339542	-0.070495	0.088516	0.072511	0.067384	-0.723389	0.549805	-0.571289	0.047749	-0.034683	0.077600	-0.353800	-0.156813	0.257341	-0.885444	-22.844582	-27.373679	142.073076
54898		4.730317	-3.505663	7.780614	-0.092394	0.341127	-0.061861	0.079901	0.066800	0.078819	-0.719482	0.550781	-0.568848	0.047343	-0.035069	0.077776	-0.353439	-0.156535	0.256958	-0.885748	-22.817797	-27.318685	142.108311
54899		4.726073	-3.532413	7.734802	-0.079042	0.390138	-0.092482	0.095542	0.050081	0.072629	-0.729736	0.545898	-0.569580	0.047293	-0.035344	0.077319	-0.353072	-0.156365	0.256530	-0.886049	-22.782208	-27.273719	142.144101
