// General information: 
//  MT Manager version: 2019.2.0 
//  XDA version: 2019.2.0 build 3853 rev 94535 built on 2019-09-09
// Device information: 
//  DeviceId: 00B47795
//  ProductCode: MTW2-3A7G6
//  Firmware Version: 4.6.0
//  Hardware Version: 2.0.0
// Device settings: 
//  Filter Profile: human(46.1)
//  Option Flags: Orientation Smoother Disabled, AHS Disabled, ICC Disabled
// Coordinate system: ENU
PacketCounter	SampleTimeFine	Acc_X	Acc_Y	Acc_Z	FreeAcc_E	FreeAcc_N	FreeAcc_U	Gyr_X	Gyr_Y	Gyr_Z	Mag_X	Mag_Y	Mag_Z	VelInc_X	VelInc_Y	VelInc_Z	Quat_q0	Quat_q1	Quat_q2	Quat_q3	Roll	Pitch	Yaw
11328		9.701943	-0.288973	-1.290911	0.000000	0.000000	-0.020974	-0.002752	0.007308	0.000170	-0.811768	0.121094	0.477783	0.097019	-0.002890	-0.012913	0.078228	-0.749294	-0.067045	-0.654174	-167.385158	-82.233573	-0.795559
11329		9.658299	-0.248547	-1.284439	0.000000	0.000000	-0.066185	0.001821	0.005582	-0.001139	-0.806885	0.122559	0.477783	0.096583	-0.002486	-0.012847	0.080801	-0.748715	-0.073017	-0.653884	-169.048659	-82.284315	1.565472
11330		9.687696	-0.279131	-1.259793	0.026141	0.016210	-0.039484	0.005634	0.007037	-0.004071	-0.810791	0.127686	0.479980	0.096876	-0.002793	-0.012601	0.079543	-0.748994	-0.070082	-0.654041	-168.222492	-82.262078	0.396944
11331		9.668561	-0.280995	-1.287785	-0.004567	0.012028	-0.054703	0.004192	0.005647	0.001787	-0.805176	0.123291	0.478027	0.096685	-0.002809	-0.012881	0.079567	-0.748975	-0.070086	-0.654060	-168.207849	-82.265036	0.384590
11332		9.687608	-0.273404	-1.300573	-0.013226	0.000832	-0.034354	0.003515	0.003976	-0.000165	-0.805664	0.133057	0.471191	0.096876	-0.002734	-0.013008	0.079627	-0.748956	-0.070082	-0.654074	-168.165222	-82.267199	0.346531
11333		9.664346	-0.304141	-1.261600	0.014523	0.039082	-0.061689	0.000170	0.004759	-0.002275	-0.806396	0.135010	0.470703	0.096643	-0.003042	-0.012618	0.079622	-0.748940	-0.070090	-0.654093	-168.170404	-82.270135	0.351858
11334		9.645195	-0.305773	-1.289804	-0.016411	0.031662	-0.076897	-0.001481	0.003937	-0.003412	-0.806396	0.128662	0.476807	0.096452	-0.003059	-0.012900	0.079777	-0.748900	-0.070042	-0.654124	-168.040344	-82.274144	0.230638
11335		9.697877	-0.305308	-1.304014	-0.023376	0.028579	-0.022840	0.000468	0.002238	-0.005042	-0.809814	0.121582	0.478271	0.096979	-0.003055	-0.013041	0.079763	-0.748891	-0.070062	-0.654134	-168.058952	-82.275997	0.249687
11336		9.654197	-0.264623	-1.297843	-0.015179	-0.010357	-0.068068	0.002796	0.004731	-0.001953	-0.804199	0.125244	0.478027	0.096542	-0.002647	-0.012981	0.079805	-0.748869	-0.070065	-0.654154	-168.031393	-82.279014	0.225721
11337		9.673247	-0.256749	-1.310678	-0.023857	-0.020695	-0.047724	0.006395	0.003854	-0.002445	-0.801758	0.129150	0.477295	0.096732	-0.002568	-0.013109	0.079822	-0.748853	-0.070093	-0.654167	-168.034459	-82.281465	0.232513
11338		9.668753	-0.273657	-1.326900	-0.044198	-0.008359	-0.049577	0.006906	0.003665	-0.007650	-0.806885	0.120850	0.480957	0.096687	-0.002740	-0.013271	0.079881	-0.748829	-0.070125	-0.654184	-168.012152	-82.284594	0.217617
11339		9.678143	-0.244556	-1.251424	0.035823	-0.020653	-0.050996	0.006140	0.003948	0.000159	-0.808838	0.128418	0.477051	0.096781	-0.002445	-0.012516	0.079906	-0.748814	-0.070143	-0.654196	-168.004508	-82.286788	0.213453
11340		9.654413	-0.263787	-1.296411	-0.015183	-0.011798	-0.068069	0.012663	0.000522	-0.002777	-0.801514	0.120117	0.473633	0.096544	-0.002638	-0.012965	0.079965	-0.748804	-0.070189	-0.654195	-167.991999	-82.287302	0.209451
11341		9.673423	-0.255840	-1.309556	-0.023859	-0.022140	-0.047727	0.009319	0.001304	-0.004887	-0.796387	0.127197	0.478027	0.096734	-0.002560	-0.013096	0.079984	-0.748795	-0.070237	-0.654199	-168.005737	-82.288615	0.228703
11342		9.649882	-0.280667	-1.312930	-0.035448	0.001341	-0.069920	0.008174	-0.002605	-0.001797	-0.795166	0.127441	0.479736	0.096499	-0.002807	-0.013128	0.080023	-0.748800	-0.070268	-0.654185	-167.999059	-82.287061	0.227725
11343		9.669090	-0.278522	-1.284343	-0.004742	0.005522	-0.054697	0.009319	0.001303	-0.004887	-0.805664	0.127441	0.473633	0.096691	-0.002787	-0.012844	0.080042	-0.748790	-0.070316	-0.654189	-168.012795	-82.288374	0.246975
11344		9.668891	-0.272384	-1.326160	-0.044078	-0.009978	-0.049578	0.005762	-0.000246	-0.004559	-0.801025	0.121582	0.476563	0.096689	-0.002726	-0.013262	0.080102	-0.748783	-0.070337	-0.654187	-167.985927	-82.288533	0.226671
11345		9.669118	-0.277855	-1.284279	-0.004696	0.004547	-0.054697	0.000255	-0.000095	-0.002602	-0.806152	0.126465	0.480225	0.096691	-0.002780	-0.012843	0.080094	-0.748782	-0.070348	-0.654188	-167.996633	-82.288790	0.237623
11346		9.658770	-0.239215	-1.321806	-0.034008	-0.041131	-0.061104	0.004618	-0.004154	-0.001468	-0.808838	0.125488	0.477295	0.096588	-0.002393	-0.013216	0.080115	-0.748797	-0.070368	-0.654166	-167.996714	-82.285841	0.241066
11347		9.649642	-0.273603	-1.355230	-0.074648	-0.014319	-0.064800	0.006736	-0.001096	-0.005372	-0.807861	0.123535	0.477783	0.096496	-0.002738	-0.013552	0.080122	-0.748796	-0.070410	-0.654162	-168.016043	-82.285866	0.264466
11348		9.658752	-0.238530	-1.322060	-0.033773	-0.041372	-0.061104	-0.000464	0.000659	-0.004391	-0.803711	0.119873	0.478271	0.096587	-0.002387	-0.013221	0.080122	-0.748798	-0.070422	-0.654158	-168.023329	-82.285389	0.272716
11349		9.687869	-0.263019	-1.339822	-0.052382	-0.020726	-0.029236	0.005042	0.000508	-0.006346	-0.805664	0.129883	0.470459	0.096879	-0.002633	-0.013399	0.080120	-0.748793	-0.070462	-0.654160	-168.046251	-82.286428	0.298764
11350		9.649686	-0.272202	-1.355192	-0.074126	-0.014948	-0.064797	0.006736	-0.001097	-0.005371	-0.801270	0.124268	0.472656	0.096497	-0.002724	-0.013551	0.080153	-0.748799	-0.070501	-0.654145	-168.048656	-82.284773	0.307007
11351		9.654463	-0.260190	-1.296761	-0.014425	-0.013825	-0.068071	0.011268	-0.000398	-0.006512	-0.808838	0.124268	0.475098	0.096545	-0.002604	-0.012968	0.080174	-0.748793	-0.070563	-0.654142	-168.069492	-82.285321	0.334548
11352		9.673239	-0.246327	-1.351886	-0.062098	-0.038948	-0.042608	0.015544	0.000396	-0.005050	-0.803711	0.125000	0.475098	0.096732	-0.002465	-0.013519	0.080234	-0.748795	-0.070631	-0.654126	-168.070258	-82.283919	0.345876
11353		9.697003	-0.226810	-1.306640	-0.011069	-0.048172	-0.025544	0.013637	-0.000331	-0.003585	-0.803955	0.126465	0.480713	0.096970	-0.002269	-0.013066	0.080273	-0.748789	-0.070689	-0.654121	-168.077563	-82.284158	0.361133
11354		9.701348	-0.203252	-1.331848	-0.029371	-0.076303	-0.018577	0.008854	0.001957	-0.009273	-0.802002	0.120117	0.478271	0.097013	-0.002036	-0.013320	0.080296	-0.748799	-0.070753	-0.654100	-168.100395	-82.281938	0.391061
11355		9.658855	-0.235698	-1.321818	-0.032350	-0.042202	-0.061103	0.008851	-0.000933	0.000159	-0.805908	0.130127	0.469727	0.096589	-0.002356	-0.013218	0.080329	-0.748799	-0.070782	-0.654093	-168.095475	-82.281393	0.391214
11356		9.654570	-0.258643	-1.296273	-0.013035	-0.014347	-0.068070	-0.000551	0.005510	-0.004065	-0.806885	0.123535	0.466797	0.096545	-0.002588	-0.012965	0.080331	-0.748787	-0.070801	-0.654104	-168.104239	-82.283455	0.401642
11357		9.669072	-0.267696	-1.325791	-0.042027	-0.011292	-0.049571	0.004323	0.001258	-0.008132	-0.806641	0.128906	0.474365	0.096691	-0.002681	-0.013259	0.080321	-0.748778	-0.070846	-0.654111	-168.134309	-82.285119	0.434487
11358		9.679269	-0.299678	-1.329957	-0.051995	0.019319	-0.038038	0.004236	0.006110	-0.007807	-0.803223	0.128174	0.473389	0.096792	-0.003000	-0.013303	0.080343	-0.748749	-0.070892	-0.654136	-168.142415	-82.289678	0.448200
11359		9.669025	-0.260546	-1.366716	-0.081438	-0.026205	-0.044447	0.004235	0.006110	-0.007806	-0.809814	0.124512	0.479004	0.096690	-0.002609	-0.013670	0.080336	-0.748725	-0.070932	-0.654161	-168.166983	-82.294032	0.475445
11360		9.688314	-0.257856	-1.337605	-0.049688	-0.022204	-0.029225	0.004279	0.003683	-0.007968	-0.809570	0.126465	0.467529	0.096883	-0.002582	-0.013378	0.080351	-0.748741	-0.070980	-0.654135	-168.186088	-82.290948	0.499642
11361		9.659080	-0.226227	-1.361150	-0.070463	-0.057378	-0.055973	0.000171	0.007642	-0.011706	-0.807861	0.127197	0.476074	0.096590	-0.002268	-0.013615	0.080316	-0.748711	-0.071021	-0.654169	-168.227855	-82.296610	0.541892
11362		9.701905	-0.198599	-1.328490	-0.027658	-0.077269	-0.018579	-0.002758	0.007306	0.000163	-0.809570	0.125244	0.476807	0.097019	-0.001986	-0.013288	0.080340	-0.748700	-0.071015	-0.654179	-168.208188	-82.298180	0.523717
11363		9.659547	-0.230730	-1.317627	-0.030654	-0.043167	-0.061101	-0.004192	0.011698	-0.012842	-0.804932	0.121582	0.476318	0.096595	-0.002314	-0.013182	0.080286	-0.748659	-0.071045	-0.654230	-168.253686	-82.306259	0.567212
11364		9.659703	-0.229766	-1.316650	-0.029469	-0.042601	-0.061095	-0.003941	0.008713	-0.006013	-0.798340	0.124023	0.475098	0.096596	-0.002301	-0.013171	0.080244	-0.748671	-0.071073	-0.654218	-168.297819	-82.304849	0.610230
11365		9.698000	-0.219473	-1.300480	-0.007421	-0.048764	-0.025543	-0.005847	0.007987	-0.004550	-0.813232	0.124756	0.471191	0.096979	-0.002197	-0.013009	0.080211	-0.748645	-0.071068	-0.654252	-168.313206	-82.309868	0.622377
11366		9.679152	-0.226479	-1.286312	0.001909	-0.038050	-0.045886	-0.006354	0.011067	-0.008775	-0.802246	0.123779	0.478271	0.096791	-0.002269	-0.012868	0.080162	-0.748631	-0.071099	-0.654271	-168.359457	-82.313164	0.667202
11367		9.674795	-0.242820	-1.301882	-0.018418	-0.024649	-0.047721	-0.008004	0.010243	-0.009911	-0.802490	0.125000	0.482666	0.096747	-0.002434	-0.013024	0.080104	-0.748597	-0.071106	-0.654316	-168.396535	-82.320068	0.699987
11368		9.694123	-0.239921	-1.272304	0.014201	-0.019844	-0.032516	-0.012792	0.009639	-0.006172	-0.811279	0.124268	0.474609	0.096941	-0.002403	-0.012728	0.080031	-0.748634	-0.071106	-0.654283	-168.447332	-82.314938	0.744942
11369		9.679616	-0.223693	-1.283302	0.003817	-0.037432	-0.045884	-0.016181	0.012842	-0.008119	-0.802734	0.119873	0.480713	0.096795	-0.002242	-0.012839	0.079949	-0.748596	-0.071078	-0.654339	-168.479581	-82.323041	0.768121
11370		9.656094	-0.242021	-1.327533	-0.046100	-0.027307	-0.062908	-0.027825	0.009038	-0.006329	-0.802979	0.121338	0.474365	0.096560	-0.002425	-0.013279	0.079802	-0.748616	-0.071040	-0.654338	-168.554040	-82.322141	0.827456
11371		9.690091	-0.254216	-1.285883	-0.004983	-0.005517	-0.034348	-0.028332	0.012115	-0.010548	-0.798340	0.122559	0.478271	0.096900	-0.002549	-0.012864	0.079665	-0.748585	-0.070982	-0.654398	-168.604276	-82.330094	0.861747
11372		9.660963	-0.221968	-1.308723	-0.024825	-0.039941	-0.061071	-0.034346	0.015338	-0.012812	-0.797607	0.113770	0.477783	0.096608	-0.002228	-0.013094	0.079482	-0.748577	-0.070942	-0.654432	-168.697473	-82.334535	0.936634
11373		9.675834	-0.235848	-1.295423	-0.014420	-0.022340	-0.047709	-0.033840	0.012251	-0.008584	-0.802002	0.123535	0.473389	0.096757	-0.002365	-0.012960	0.079331	-0.748548	-0.070859	-0.654493	-168.742859	-82.342301	0.962836
11374		9.684656	-0.188318	-1.344925	-0.051759	-0.077003	-0.033718	-0.026638	0.010501	-0.009559	-0.790283	0.130127	0.487549	0.096846	-0.001890	-0.013454	0.079162	-0.748551	-0.070843	-0.654512	-168.842502	-82.344732	1.047408
11375		9.666000	-0.200743	-1.288694	-0.003720	-0.052105	-0.059234	-0.022409	0.013723	-0.007928	-0.804688	0.124756	0.474609	0.096659	-0.002013	-0.012893	0.079056	-0.748513	-0.070794	-0.654574	-168.877813	-82.353218	1.070032
11376		9.690741	-0.235966	-1.363691	-0.079938	-0.032774	-0.024004	-0.012369	0.014284	-0.011016	-0.797607	0.124268	0.482178	0.096906	-0.002366	-0.013644	0.079010	-0.748534	-0.070794	-0.654555	-168.909789	-82.350315	1.098207
11377		9.671975	-0.242587	-1.349038	-0.071258	-0.022421	-0.044358	-0.003564	0.015790	-0.010691	-0.805176	0.116699	0.482178	0.096719	-0.002431	-0.013498	0.078966	-0.748481	-0.070816	-0.654618	-168.944017	-82.360167	1.130650
11378		9.685630	-0.189720	-1.297663	-0.008216	-0.061441	-0.038870	0.010539	0.014825	-0.009884	-0.797119	0.116211	0.480957	0.096855	-0.001901	-0.012984	0.078944	-0.748499	-0.070916	-0.654590	-169.017284	-82.357315	1.210319
11379		9.685702	-0.183190	-1.338084	-0.047536	-0.075969	-0.033689	0.010280	0.014919	-0.007283	-0.802002	0.120850	0.484619	0.096856	-0.001835	-0.013388	0.078964	-0.748445	-0.070971	-0.654643	-169.030376	-82.366221	1.229419
11380		9.671391	-0.173095	-1.306708	-0.016486	-0.077457	-0.052207	0.003077	0.016659	-0.006302	-0.795166	0.118896	0.486572	0.096713	-0.001734	-0.013075	0.078907	-0.748464	-0.071042	-0.654621	-169.109083	-82.363773	1.309355
11381		9.638100	-0.170636	-1.261905	0.021179	-0.070152	-0.091107	-0.002938	0.019879	-0.008567	-0.798828	0.112549	0.490967	0.096380	-0.001711	-0.012629	0.078874	-0.748399	-0.071057	-0.654697	-169.131642	-82.375513	1.330332
11382		9.677779	-0.227376	-1.282347	-0.004260	-0.016246	-0.047687	-0.008447	0.020018	-0.006615	-0.789551	0.121094	0.488525	0.096776	-0.002278	-0.012833	0.078741	-0.748448	-0.071096	-0.654653	-169.245346	-82.369086	1.436362
11383		9.659013	-0.234401	-1.267467	0.004461	-0.005873	-0.068053	-0.008354	0.015169	-0.006949	-0.798828	0.115967	0.490479	0.096589	-0.002348	-0.012682	0.078690	-0.748403	-0.071089	-0.654712	-169.268858	-82.377831	1.455112
11384		9.649114	-0.206738	-1.219565	0.056884	-0.020841	-0.084799	-0.013604	0.015213	-0.007597	-0.796875	0.121826	0.497559	0.096490	-0.002072	-0.012203	0.078561	-0.748469	-0.071091	-0.654651	-169.359565	-82.368316	1.535460
11385		9.677003	-0.151667	-1.281956	0.010314	-0.086988	-0.050355	-0.015205	0.011963	-0.008903	-0.794189	0.119873	0.489990	0.096769	-0.001522	-0.012825	0.078477	-0.748438	-0.071070	-0.654700	-169.398298	-82.375257	1.565568
11386		9.596256	-0.175786	-1.412624	-0.129173	-0.089185	-0.112692	-0.022482	0.004101	-0.005999	-0.790527	0.124023	0.498535	0.095962	-0.001762	-0.014128	0.078322	-0.748568	-0.071021	-0.654575	-169.483073	-82.355259	1.633775
11387		9.589329	-0.068943	-1.269945	0.030529	-0.162260	-0.140796	-0.019560	-0.007572	-0.016099	-0.792725	0.122803	0.486572	0.095894	-0.000698	-0.012696	0.078190	-0.748600	-0.071020	-0.654553	-169.569967	-82.351692	1.709932
11388		9.681236	-0.118484	-1.349584	-0.040658	-0.127502	-0.038035	-0.033781	-0.013799	-0.014812	-0.792480	0.118896	0.500732	0.096813	-0.001194	-0.013489	0.077982	-0.748774	-0.070961	-0.654385	-169.686312	-82.324940	1.804629
11389		9.681195	-0.122597	-1.308929	-0.001089	-0.112916	-0.043291	-0.018796	-0.010753	-0.014478	-0.791260	0.118408	0.493896	0.096813	-0.001234	-0.013084	0.077858	-0.748819	-0.070957	-0.654349	-169.767921	-82.319130	1.875896
11390		9.678212	-0.217508	-1.280786	0.010494	-0.010724	-0.047684	-0.012157	-0.009875	-0.010091	-0.796143	0.120605	0.494141	0.096783	-0.002181	-0.012803	0.077697	-0.748989	-0.070988	-0.654170	-169.903807	-82.291927	2.001293
11391		9.612095	-0.268685	-1.317501	-0.043470	0.032574	-0.107152	0.001016	-0.012401	-0.008644	-0.794678	0.119385	0.492188	0.096122	-0.002691	-0.013169	0.077665	-0.749035	-0.071028	-0.654117	-169.950903	-82.284312	2.049151
11392		9.654490	-0.240662	-1.286734	0.001402	0.014456	-0.069866	0.016663	-0.016808	-0.014023	-0.785645	0.126221	0.490967	0.096546	-0.002412	-0.012859	0.077621	-0.749166	-0.071167	-0.653957	-170.069242	-82.261764	2.175362
11393		9.691092	-0.162375	-1.234722	0.074397	-0.049391	-0.042314	0.007043	-0.012729	-0.015788	-0.793457	0.115479	0.498291	0.096912	-0.001631	-0.012341	0.077588	-0.749209	-0.071254	-0.653902	-170.142543	-82.254506	2.253140
11394		9.699671	-0.120659	-1.244747	0.077727	-0.089694	-0.033450	0.003997	-0.017368	-0.011251	-0.793213	0.126221	0.494629	0.096998	-0.001212	-0.012439	0.077518	-0.749334	-0.071331	-0.653759	-170.240269	-82.233502	2.351543
11395		9.670067	-0.088869	-1.270631	0.057152	-0.124842	-0.060060	-0.016497	-0.020293	-0.009618	-0.793701	0.119873	0.495850	0.096702	-0.000894	-0.012696	0.077415	-0.749414	-0.071320	-0.653681	-170.306441	-82.221194	2.408511
11396		9.608057	-0.116922	-1.333777	-0.014624	-0.108592	-0.112410	-0.026651	-0.028054	-0.004429	-0.792725	0.122070	0.491211	0.096082	-0.001173	-0.013324	0.077255	-0.749570	-0.071282	-0.653525	-170.398252	-82.196609	2.484398
11397		9.632799	-0.169847	-1.287353	0.025599	-0.045380	-0.092902	-0.035199	-0.029677	-0.007337	-0.787598	0.115479	0.502930	0.096330	-0.001704	-0.012859	0.077086	-0.749689	-0.071206	-0.653417	-170.471587	-82.178673	2.537791
11398		9.676405	-0.208860	-1.295792	0.018726	-0.005445	-0.047692	-0.035344	-0.022410	-0.006821	-0.784180	0.116943	0.504883	0.096765	-0.002094	-0.012947	0.076863	-0.749819	-0.071172	-0.653298	-170.602967	-82.159331	2.648399
11399		9.648422	-0.256203	-1.276397	0.026337	0.046257	-0.076977	-0.024794	-0.024914	-0.005703	-0.798828	0.119141	0.501465	0.096486	-0.002566	-0.012752	0.076740	-0.749919	-0.071122	-0.653203	-170.659860	-82.143837	2.691203
11400		9.666904	-0.241303	-1.333829	-0.020383	0.023053	-0.051262	-0.013570	-0.022846	-0.012045	-0.787354	0.120361	0.495361	0.096670	-0.002420	-0.013327	0.076574	-0.750043	-0.071170	-0.653074	-170.799400	-82.124349	2.821280
11401		9.665239	-0.173012	-1.298385	0.030497	-0.034689	-0.059203	-0.003179	-0.030103	-0.008675	-0.786377	0.119873	0.509277	0.096654	-0.001735	-0.012969	0.076520	-0.750152	-0.071204	-0.652953	-170.859005	-82.106110	2.879316
11402		9.701697	-0.094879	-1.247708	0.103865	-0.097466	-0.031664	-0.011569	-0.026971	-0.013836	-0.786621	0.123047	0.506348	0.097019	-0.000956	-0.012464	0.076380	-0.750265	-0.071262	-0.652833	-170.986301	-82.088028	3.000089
11403		9.726097	-0.136069	-1.285065	0.065417	-0.063275	-0.001542	-0.017331	-0.029651	0.000133	-0.789063	0.123535	0.500977	0.097263	-0.001362	-0.012836	0.076302	-0.750380	-0.071216	-0.652714	-171.017212	-82.069201	3.020973
11404		9.692059	-0.128032	-1.286557	0.063826	-0.069605	-0.035228	-0.017590	-0.026663	-0.006669	-0.785645	0.121338	0.505859	0.096922	-0.001285	-0.012853	0.076178	-0.750484	-0.071237	-0.652608	-171.112311	-82.052778	3.107783
11405		9.663247	-0.157877	-1.393380	-0.046621	-0.061467	-0.048527	-0.011726	-0.034640	-0.002157	-0.787842	0.118896	0.495605	0.096635	-0.001581	-0.013917	0.076111	-0.750612	-0.071219	-0.652469	-171.151980	-82.031311	3.140759
11406		9.643834	-0.165264	-1.383469	-0.038057	-0.049954	-0.068926	-0.004316	-0.034036	-0.005582	-0.793213	0.116699	0.499512	0.096441	-0.001656	-0.013818	0.076027	-0.750726	-0.071290	-0.652340	-171.249704	-82.012226	3.237504
11407		9.715256	-0.162214	-1.372428	-0.013643	-0.048634	0.000239	-0.002255	-0.028543	-0.009304	-0.789063	0.113281	0.505859	0.097154	-0.001627	-0.013710	0.075975	-0.750829	-0.071328	-0.652224	-171.308450	-81.994822	3.295226
11408		9.653609	-0.202246	-1.352036	-0.008182	-0.002790	-0.062765	0.006550	-0.027014	-0.009003	-0.783203	0.121338	0.500732	0.096538	-0.002026	-0.013507	0.075896	-0.750920	-0.071439	-0.652116	-171.422695	-81.979423	3.412212
11409		9.653242	-0.201648	-1.354740	-0.007838	-0.002714	-0.062765	0.011597	-0.029385	-0.005939	-0.786621	0.115479	0.499268	0.096534	-0.002019	-0.013533	0.075906	-0.751021	-0.071510	-0.651991	-171.459973	-81.961236	3.456270
11410		9.623380	-0.170509	-1.381149	-0.028644	-0.036858	-0.089319	0.016028	-0.023814	-0.006753	-0.787109	0.121582	0.498779	0.096235	-0.001707	-0.013800	0.075900	-0.751097	-0.071641	-0.651890	-171.538151	-81.947385	3.544706
11411		9.659936	-0.092884	-1.330288	0.044445	-0.100670	-0.061762	0.008500	-0.028718	-0.010622	-0.790771	0.118652	0.496826	0.096601	-0.000933	-0.013289	0.075884	-0.751195	-0.071719	-0.651770	-171.595081	-81.929957	3.606824
11412		9.680458	-0.163359	-1.300561	0.064004	-0.023102	-0.044126	-0.004461	-0.026775	-0.005048	-0.783447	0.114746	0.498291	0.096806	-0.001636	-0.012993	0.075817	-0.751284	-0.071783	-0.651669	-171.675393	-81.915028	3.686964
11413		9.641563	-0.166865	-1.360356	0.002789	-0.031483	-0.074251	-0.003990	-0.027437	-0.000667	-0.789307	0.117676	0.495605	0.096417	-0.001669	-0.013590	0.075787	-0.751386	-0.071782	-0.651554	-171.698515	-81.897491	3.707713
11414		9.626378	-0.151346	-1.375202	-0.007706	-0.047924	-0.087519	-0.002916	-0.033145	-0.001810	-0.787842	0.121094	0.503418	0.096266	-0.001515	-0.013736	0.075716	-0.751497	-0.071837	-0.651428	-171.776049	-81.878669	3.784115
11415		9.588070	-0.166622	-1.352209	0.009783	-0.027274	-0.128346	0.001334	-0.041489	-0.007996	-0.790527	0.119385	0.506836	0.095883	-0.001670	-0.013502	0.075677	-0.751641	-0.071887	-0.651261	-171.832909	-81.853762	3.842027
11416		9.663104	-0.084975	-1.245755	0.144490	-0.081703	-0.070657	0.004211	-0.041606	-0.010272	-0.792969	0.108887	0.500977	0.096634	-0.000854	-0.012437	0.075616	-0.751787	-0.071995	-0.651088	-171.934226	-81.828275	3.947334
11417		9.649026	-0.135822	-1.299685	0.083837	-0.041437	-0.076026	-0.002017	-0.040735	-0.010071	-0.795166	0.123535	0.507813	0.096493	-0.001363	-0.012977	0.075557	-0.751929	-0.072041	-0.650926	-171.999908	-81.803930	4.012227
11418		9.634130	-0.125426	-1.273848	0.112707	-0.043293	-0.094647	0.005234	-0.044898	-0.011236	-0.786621	0.111328	0.509033	0.096344	-0.001259	-0.012717	0.075475	-0.752073	-0.072159	-0.650756	-172.117659	-81.779026	4.133134
11419		9.644256	-0.163115	-1.241446	0.142519	0.002327	-0.088535	0.000605	-0.052827	-0.007958	-0.790039	0.123047	0.500732	0.096446	-0.001635	-0.012389	0.075430	-0.752253	-0.072211	-0.650547	-172.179199	-81.747630	4.195364
11420		9.614416	-0.137502	-1.228913	0.160924	-0.017355	-0.120426	-0.007079	-0.062520	-0.009523	-0.782959	0.119385	0.502197	0.096148	-0.001380	-0.012259	0.075311	-0.752458	-0.072286	-0.650315	-172.297433	-81.712689	4.310322
11421		9.613681	-0.136232	-1.234788	0.161264	-0.017279	-0.120432	-0.012862	-0.059415	-0.014338	-0.781250	0.116699	0.507813	0.096140	-0.001370	-0.012319	0.075191	-0.752663	-0.072320	-0.650088	-172.393715	-81.678005	4.399874
11422		9.604331	-0.175486	-1.232362	0.159817	0.024924	-0.129376	-0.022261	-0.067987	-0.007281	-0.776855	0.111816	0.505859	0.096047	-0.001760	-0.012291	0.075030	-0.752888	-0.072339	-0.649845	-172.506258	-81.640325	4.501058
11423		9.584025	-0.176371	-1.267925	0.129376	0.020762	-0.144435	-0.021091	-0.078591	-0.008715	-0.778564	0.120850	0.507324	0.095845	-0.001769	-0.012641	0.074891	-0.753160	-0.072332	-0.649546	-172.593549	-81.594274	4.576776
11424		9.598451	-0.196454	-1.222244	0.178964	0.053810	-0.136541	-0.024252	-0.087589	-0.011407	-0.781738	0.112061	0.516113	0.095990	-0.001971	-0.012180	0.074696	-0.753445	-0.072361	-0.649234	-172.731308	-81.546162	4.701357
11425		9.574583	-0.225894	-1.192607	0.206898	0.092073	-0.164129	-0.025223	-0.098387	-0.018317	-0.784668	0.119385	0.510986	0.095751	-0.002269	-0.011879	0.074503	-0.753779	-0.072384	-0.648866	-172.864883	-81.489488	4.821495
11426		9.588939	-0.245095	-1.149148	0.256368	0.125075	-0.156239	-0.030185	-0.113024	-0.019819	-0.782471	0.112549	0.509766	0.095896	-0.002462	-0.011437	0.074243	-0.754143	-0.072426	-0.648469	-173.045392	-81.428152	4.984631
11427		9.560342	-0.291268	-1.138520	0.263973	0.176731	-0.185628	-0.019239	-0.122977	-0.021776	-0.772949	0.114990	0.510498	0.095610	-0.002924	-0.011326	0.074052	-0.754552	-0.072491	-0.648006	-173.195854	-81.357621	5.125352
11428		9.546400	-0.291367	-1.037395	0.370798	0.203245	-0.214979	-0.006695	-0.141296	-0.030200	-0.782471	0.121582	0.506836	0.095471	-0.002928	-0.010306	0.073843	-0.754978	-0.072651	-0.647516	-173.401306	-81.283581	5.327501
11429		9.531710	-0.285348	-0.979778	0.439397	0.214708	-0.238989	-0.000599	-0.159150	-0.026214	-0.783203	0.113770	0.514893	0.095324	-0.002866	-0.009722	0.073695	-0.755496	-0.072807	-0.646911	-173.567356	-81.192614	5.494856
11430		9.564753	-0.295872	-0.955791	0.479375	0.236699	-0.210619	0.006677	-0.177510	-0.035171	-0.779541	0.113037	0.514404	0.095655	-0.002975	-0.009473	0.073538	-0.756012	-0.073040	-0.646300	-173.772928	-81.101130	5.707393
11431		9.586457	-0.267220	-0.970553	0.491474	0.213105	-0.188419	0.013480	-0.195721	-0.038894	-0.783691	0.108154	0.512207	0.095873	-0.002690	-0.009612	0.073388	-0.756637	-0.073302	-0.645555	-173.983310	-80.989943	5.927887
11432		9.552755	-0.329359	-0.984884	0.476773	0.278306	-0.219524	0.026428	-0.222096	-0.040654	-0.774414	0.114014	0.516602	0.095538	-0.003312	-0.009743	0.073240	-0.757276	-0.073616	-0.644786	-174.211645	-80.875421	6.170661
11433		9.550598	-0.325356	-1.006884	0.477111	0.278381	-0.219543	0.033679	-0.240613	-0.049448	-0.778320	0.111816	0.520264	0.095517	-0.003275	-0.009954	0.073116	-0.758033	-0.073999	-0.643867	-174.452210	-80.738979	6.433595
11434		9.529604	-0.328710	-1.017308	0.483975	0.288436	-0.239870	0.049706	-0.267335	-0.055965	-0.773682	0.114014	0.516113	0.095309	-0.003311	-0.010047	0.073010	-0.758797	-0.074450	-0.642926	-174.706399	-80.599927	6.717140
11435		9.573175	-0.308287	-0.928930	0.605552	0.298097	-0.213312	0.056716	-0.285905	-0.062006	-0.776123	0.106201	0.526123	0.095744	-0.003110	-0.009153	0.072916	-0.759683	-0.074971	-0.641829	-174.975352	-80.437918	7.022455
11436		9.543852	-0.351420	-0.934924	0.610637	0.349299	-0.242539	0.065207	-0.315791	-0.062351	-0.770264	0.111572	0.530029	0.095452	-0.003541	-0.009200	0.072823	-0.760576	-0.075498	-0.640720	-175.236857	-80.274149	7.320885
11437		9.504084	-0.361673	-0.938313	0.628145	0.369916	-0.283398	0.075202	-0.342040	-0.070895	-0.772217	0.116455	0.524658	0.095055	-0.003647	-0.009222	0.072749	-0.761628	-0.076133	-0.639402	-175.520080	-80.080034	7.651737
11438		9.456477	-0.479105	-0.973168	0.591096	0.488701	-0.325158	0.086047	-0.374103	-0.077772	-0.766602	0.115967	0.531006	0.094581	-0.004824	-0.009557	0.072693	-0.762679	-0.076799	-0.638074	-175.795838	-79.884842	7.979215
11439		9.494009	-0.535204	-0.991752	0.602438	0.555080	-0.287192	0.110398	-0.404123	-0.088188	-0.768311	0.113770	0.537598	0.094958	-0.005388	-0.009729	0.072674	-0.763904	-0.077634	-0.636508	-176.103569	-79.655392	8.355881
11440		9.519348	-0.455880	-1.079148	0.573448	0.474249	-0.250445	0.136443	-0.426165	-0.099600	-0.763916	0.113525	0.538574	0.095214	-0.004599	-0.010592	0.072732	-0.765079	-0.078544	-0.634977	-176.390921	-79.432559	8.724736
11441		9.525769	-0.287878	-1.184597	0.548160	0.304867	-0.229742	0.155967	-0.452225	-0.105604	-0.757568	0.117432	0.532715	0.095283	-0.002920	-0.011633	0.072813	-0.766425	-0.079607	-0.633208	-176.704795	-79.175509	9.134795
11442		9.556748	-0.128573	-1.181457	0.628890	0.166943	-0.204344	0.163059	-0.469357	-0.113125	-0.762939	0.106445	0.549316	0.095594	-0.001330	-0.011591	0.072927	-0.767697	-0.080663	-0.631519	-176.987100	-78.930713	9.515434
11443		9.481068	-0.032223	-1.225601	0.636716	0.079971	-0.274250	0.160540	-0.502148	-0.117694	-0.753174	0.122559	0.547363	0.094841	-0.000368	-0.012018	0.072965	-0.769185	-0.081803	-0.629554	-177.307770	-78.644667	9.935818
11444		9.500741	-0.070840	-1.268112	0.634085	0.127106	-0.249280	0.159905	-0.524815	-0.113681	-0.745361	0.119141	0.552734	0.095040	-0.000752	-0.012432	0.073024	-0.770623	-0.082864	-0.627648	-177.575619	-78.367586	10.298406
11445		9.552149	-0.156113	-1.421105	0.527856	0.198636	-0.170637	0.184237	-0.546347	-0.113196	-0.751465	0.115479	0.555420	0.095559	-0.001602	-0.013952	0.073148	-0.772231	-0.084076	-0.625491	-177.841071	-78.055340	10.677114
11446		9.494322	-0.194064	-1.518547	0.461749	0.229798	-0.209587	0.232522	-0.570808	-0.113028	-0.745361	0.110596	0.559814	0.094985	-0.001977	-0.014917	0.073487	-0.773768	-0.085384	-0.623372	-178.035351	-77.752218	11.010030
11447		9.446765	-0.079388	-1.642237	0.413000	0.107792	-0.233431	0.280790	-0.600456	-0.110146	-0.748047	0.105469	0.559570	0.094516	-0.000823	-0.016140	0.073971	-0.775497	-0.086905	-0.620952	-178.212387	-77.408369	11.355757
11448		9.462230	-0.076032	-1.631184	0.479142	0.125350	-0.223383	0.300041	-0.622902	-0.111917	-0.736084	0.109375	0.566406	0.094672	-0.000789	-0.016018	0.074476	-0.777142	-0.088403	-0.618619	-178.364635	-77.078301	11.676709
11449		9.517794	0.152521	-1.813454	0.429124	-0.116183	-0.132692	0.339756	-0.635308	-0.121002	-0.733643	0.113770	0.562988	0.095236	0.001498	-0.017830	0.075137	-0.778933	-0.090159	-0.616027	-178.510775	-76.714277	12.026317
11450		9.508431	0.297777	-2.072974	0.271381	-0.299303	-0.084759	0.337831	-0.643080	-0.111822	-0.733154	0.114258	0.577637	0.095152	0.002959	-0.020419	0.075798	-0.780609	-0.091792	-0.613579	-178.615252	-76.371810	12.324029
11451		9.547656	0.510029	-2.318165	0.161594	-0.541894	0.009310	0.326332	-0.651718	-0.104234	-0.729248	0.113037	0.579834	0.095554	0.005088	-0.022862	0.076448	-0.782442	-0.093445	-0.610907	-178.707017	-75.997870	12.610753
11452		9.486361	0.715495	-2.368769	0.208395	-0.739130	-0.039052	0.279312	-0.656315	-0.093428	-0.718750	0.119629	0.582031	0.094944	0.007143	-0.023366	0.076913	-0.784180	-0.094847	-0.608400	-178.794186	-75.645436	12.856757
11453		9.549878	0.786063	-2.350032	0.322492	-0.781192	0.017169	0.201958	-0.656566	-0.076425	-0.720459	0.117676	0.583740	0.095578	0.007848	-0.023179	0.077156	-0.786069	-0.096012	-0.605742	-178.877184	-75.268192	13.061714
11454		9.680919	0.631832	-2.521568	0.216234	-0.646845	0.187921	0.134141	-0.650661	-0.057882	-0.710693	0.114990	0.590332	0.096892	0.006307	-0.024896	0.077179	-0.787845	-0.096877	-0.603290	-178.960683	-74.917343	13.223979
11455		9.698802	0.418719	-2.540307	0.213961	-0.425508	0.210688	0.100002	-0.639510	-0.046382	-0.711426	0.118652	0.595703	0.097070	0.004177	-0.025091	0.077119	-0.789720	-0.097607	-0.600723	-179.024769	-74.549435	13.349475
11456		9.656670	0.214785	-2.505446	0.243653	-0.204242	0.160940	0.067189	-0.642035	-0.035497	-0.702148	0.119873	0.604248	0.096647	0.002139	-0.024744	0.076910	-0.791500	-0.098182	-0.598308	-179.102839	-74.201328	13.463766
11457		9.583493	-0.034935	-2.598688	0.137553	0.028239	0.115942	0.045914	-0.643167	-0.027209	-0.706543	0.118896	0.608887	0.095918	-0.000356	-0.025679	0.076690	-0.793400	-0.098673	-0.595734	-179.150999	-73.831081	13.540892
11458		9.513333	-0.313046	-2.737147	-0.021282	0.277369	0.087604	0.029922	-0.637112	-0.026394	-0.712891	0.114014	0.611328	0.095219	-0.003139	-0.027069	0.076374	-0.795179	-0.099104	-0.593326	-179.221926	-73.483695	13.627560
11459		9.478306	-0.401904	-3.076356	-0.307268	0.297210	0.151284	0.048400	-0.629244	-0.031261	-0.695068	0.117188	0.607422	0.094879	-0.004026	-0.030466	0.076158	-0.797018	-0.099611	-0.590796	-179.270134	-73.121396	13.706506
11460		9.368458	-0.271006	-3.091635	-0.264690	0.176176	0.051300	0.055124	-0.612479	-0.036313	-0.694580	0.113525	0.616699	0.093778	-0.002719	-0.030630	0.075913	-0.798673	-0.100135	-0.588499	-179.341398	-72.792562	13.807072
11461		9.435732	-0.010276	-3.339347	-0.351491	-0.113757	0.189692	0.030954	-0.598313	-0.036292	-0.684326	0.112305	0.612061	0.094457	-0.000115	-0.033111	0.075626	-0.800411	-0.100598	-0.586092	-179.402571	-72.448010	13.889408
11462		9.400234	0.120173	-3.422448	-0.352768	-0.244685	0.182681	-0.028707	-0.581870	-0.024551	-0.675781	0.119873	0.623779	0.094102	0.001185	-0.033951	0.075078	-0.802027	-0.100798	-0.583914	-179.492994	-72.131833	13.957392
11463		9.469760	0.256101	-3.436704	-0.256677	-0.355976	0.255083	-0.093695	-0.560782	-0.023446	-0.679199	0.122803	0.626465	0.094794	0.002534	-0.034103	0.074347	-0.803695	-0.100828	-0.581705	-179.596334	-71.808677	14.009245
11464		9.543396	0.207830	-3.425991	-0.186225	-0.281628	0.323523	-0.152436	-0.542870	-0.017552	-0.671875	0.113525	0.620850	0.095527	0.002044	-0.034002	0.073419	-0.805260	-0.100669	-0.579682	-179.723307	-71.508687	14.052386
11465		9.558158	0.073242	-3.440780	-0.177360	-0.132630	0.343760	-0.202052	-0.534060	-0.014181	-0.671875	0.118164	0.643799	0.095673	0.000691	-0.034153	0.072291	-0.806882	-0.100336	-0.577622	-179.866807	-71.200743	14.081308
11466		9.613411	-0.042893	-3.375611	-0.080421	0.021687	0.375888	-0.208197	-0.533062	-0.027459	-0.669922	0.112061	0.636719	0.096224	-0.000477	-0.033499	0.071078	-0.808425	-0.100039	-0.575664	179.955253	-70.906010	14.140309
11467		9.751543	0.091910	-3.331458	0.087496	-0.063639	0.492053	-0.189579	-0.537402	-0.063571	-0.673096	0.101318	0.648438	0.097605	0.000857	-0.033053	0.069855	-0.810015	-0.099940	-0.573593	179.744282	-70.596024	14.248375
11468		10.019274	0.146070	-3.209883	0.345781	-0.038455	0.703454	-0.204970	-0.528914	-0.097049	-0.667725	0.103271	0.645264	0.100278	0.001379	-0.031835	0.068398	-0.811493	-0.099904	-0.571681	179.453086	-70.304561	14.422030
11469		10.080909	0.066473	-3.305295	0.309487	0.051849	0.791810	-0.198194	-0.519241	-0.100030	-0.661133	0.098389	0.650635	0.100895	0.000582	-0.032792	0.067044	-0.813002	-0.099920	-0.569692	179.190089	-70.004432	14.580532
11470		10.095318	0.244550	-3.288418	0.419396	-0.086851	0.798874	-0.171357	-0.525570	-0.089936	-0.659424	0.100830	0.657715	0.101040	0.002372	-0.032621	0.065739	-0.814448	-0.099944	-0.567771	178.940803	-69.715170	14.729750
11471		10.029630	0.370496	-3.331362	0.438978	-0.197473	0.751249	-0.175389	-0.529823	-0.076402	-0.656006	0.096924	0.661621	0.100385	0.003638	-0.033051	0.064538	-0.815978	-0.099931	-0.565711	178.738879	-69.408831	14.837595
11472		10.051887	0.480893	-3.440542	0.421584	-0.299876	0.809982	-0.180542	-0.528150	-0.067416	-0.646729	0.101074	0.662598	0.100611	0.004744	-0.034144	0.063266	-0.817441	-0.099838	-0.563756	178.531257	-69.116348	14.938358
11473		9.990309	0.504441	-3.524634	0.380805	-0.321532	0.781420	-0.185359	-0.531341	-0.050497	-0.646240	0.092773	0.662354	0.099998	0.004987	-0.034985	0.062095	-0.818978	-0.099690	-0.561677	178.370739	-68.809291	14.996128
11474		9.845509	0.581512	-3.550693	0.372839	-0.391526	0.655697	-0.195814	-0.523803	-0.034173	-0.649414	0.093750	0.671143	0.098549	0.005764	-0.035255	0.060875	-0.820435	-0.099436	-0.559726	178.211976	-68.519796	15.038947
11475		9.729631	0.364261	-3.721851	0.177784	-0.205430	0.607318	-0.196492	-0.538470	-0.012313	-0.629639	0.095947	0.668945	0.097396	0.003600	-0.036960	0.059762	-0.822002	-0.099100	-0.557603	178.106094	-68.209257	15.031305
11476		9.606778	0.078466	-3.929212	-0.070314	0.039233	0.566538	-0.175901	-0.523999	-0.016665	-0.630615	0.085205	0.664307	0.096170	0.000742	-0.039041	0.058677	-0.823448	-0.098840	-0.555626	177.987566	-67.919760	15.044550
11477		9.551202	-0.102947	-4.096452	-0.231786	0.195544	0.575997	-0.132737	-0.514743	-0.009008	-0.627197	0.087891	0.677002	0.095617	-0.001061	-0.040718	0.057846	-0.824919	-0.098659	-0.553560	177.924134	-67.622886	15.030480
11478		9.485693	-0.368111	-4.240419	-0.398205	0.435510	0.567417	-0.059261	-0.490549	-0.006995	-0.632080	0.091797	0.679688	0.094960	-0.003697	-0.042170	0.057249	-0.826236	-0.098648	-0.551657	177.881094	-67.352738	15.029136
11479		9.361117	-0.557612	-4.325154	-0.514899	0.601830	0.483957	0.052623	-0.471665	0.009401	-0.626465	0.086914	0.686768	0.093713	-0.005560	-0.043032	0.057255	-0.827533	-0.098889	-0.549665	177.946899	-67.080928	14.990000
11480		9.180924	-0.660071	-4.407548	-0.634908	0.671195	0.350863	0.172083	-0.450661	0.030913	-0.614502	0.092285	0.689453	0.091909	-0.006549	-0.043874	0.057776	-0.828688	-0.099344	-0.547786	178.094426	-66.833665	14.929421
11481		8.841107	-0.624329	-4.613284	-0.894464	0.557032	0.123450	0.288241	-0.443147	0.033227	-0.616943	0.092285	0.692627	0.088514	-0.006162	-0.045946	0.058835	-0.829841	-0.100123	-0.545782	178.321583	-66.578556	14.861436
11482		8.635988	-0.536850	-4.714872	-1.000212	0.422526	-0.018842	0.370325	-0.426357	0.021372	-0.610352	0.092529	0.689941	0.086461	-0.005272	-0.046974	0.060171	-0.830895	-0.101119	-0.543846	178.572886	-66.337634	14.810259
11483		8.484321	-0.382520	-4.806544	-1.061750	0.227036	-0.114550	0.404146	-0.405786	0.026269	-0.615723	0.090332	0.693604	0.084941	-0.003717	-0.047901	0.061710	-0.831896	-0.102231	-0.541932	178.849792	-66.103579	14.760223
11484		8.254065	-0.239946	-4.961954	-1.216487	0.019578	-0.256130	0.397768	-0.374371	0.030746	-0.606934	0.101074	0.692627	0.082634	-0.002288	-0.049470	0.063179	-0.832789	-0.103226	-0.540199	179.116951	-65.893453	14.704023
11485		8.010170	-0.043665	-5.134370	-1.379439	-0.247280	-0.401931	0.378230	-0.360886	0.047916	-0.606689	0.097412	0.696533	0.080194	-0.000321	-0.051200	0.064691	-0.833675	-0.104161	-0.538471	179.399870	-65.685106	14.630914
11486		7.847160	0.116606	-5.097385	-1.335273	-0.424283	-0.560025	0.329895	-0.348756	0.046258	-0.606201	0.102539	0.692871	0.078560	0.001268	-0.050835	0.065962	-0.834536	-0.104914	-0.536835	179.648205	-65.485639	14.557015
11487		7.944590	-0.068951	-4.849632	-1.089714	-0.188847	-0.570557	0.272328	-0.293149	0.024025	-0.599121	0.103271	0.694580	0.079517	-0.000614	-0.048381	0.067003	-0.835253	-0.105642	-0.535447	179.835095	-65.315799	14.522545
11488		8.160250	0.045134	-4.064166	-0.259277	-0.107557	-0.700588	0.277780	-0.157142	0.001468	-0.601318	0.101318	0.706787	0.081634	0.000508	-0.040577	0.068070	-0.835587	-0.106422	-0.534636	179.994816	-65.224635	14.519794
11489		8.446383	-0.575445	-3.883790	-0.129821	0.556626	-0.515932	0.244877	-0.026682	-0.008399	-0.599365	0.105957	0.697021	0.084469	-0.005710	-0.038834	0.069050	-0.835579	-0.107121	-0.534383	-179.876258	-65.207432	14.531781
11490		8.414075	-1.269245	-3.993261	-0.417387	1.188115	-0.497757	0.337296	0.113704	-0.016825	-0.595215	0.106445	0.698730	0.084117	-0.012632	-0.040002	0.070404	-0.835181	-0.107983	-0.534655	-179.708010	-65.267672	14.547164
11491		8.325322	-1.383075	-4.085422	-0.579884	1.247271	-0.537855	0.512664	0.234552	-0.030382	-0.599854	0.114258	0.699463	0.083203	-0.013738	-0.040987	0.072583	-0.834363	-0.109398	-0.535353	-179.451052	-65.400257	14.587060
11492		8.332798	-1.076570	-4.053493	-0.494201	0.930445	-0.543642	0.645674	0.335312	-0.031146	-0.597412	0.109619	0.695068	0.083258	-0.010647	-0.040709	0.075380	-0.833244	-0.111079	-0.536362	-179.104171	-65.586539	14.609422
11493		8.528863	-0.571063	-3.924384	-0.200475	0.460324	-0.420344	0.745912	0.427803	-0.032198	-0.604736	0.118896	0.693848	0.085203	-0.005577	-0.039447	0.078631	-0.831799	-0.113052	-0.537724	-178.708385	-65.830016	14.643501
11494		8.561364	-0.042671	-3.460813	0.327512	0.034532	-0.584074	0.742929	0.500509	-0.006262	-0.618164	0.120850	0.688721	0.085527	-0.000300	-0.034824	0.081986	-0.830187	-0.114808	-0.539340	-178.261559	-66.110839	14.615808
11495		8.582429	0.390776	-3.076990	0.754904	-0.315914	-0.723753	0.674832	0.552943	0.026408	-0.614990	0.130127	0.689697	0.085738	0.004023	-0.030994	0.085168	-0.828436	-0.116291	-0.541218	-177.817068	-66.424994	14.552029
11496		8.605564	0.663800	-3.043278	0.829879	-0.601878	-0.718366	0.562926	0.607985	0.036359	-0.612305	0.133301	0.674072	0.085961	0.006740	-0.030675	0.087915	-0.826592	-0.117301	-0.543376	-177.404307	-66.769531	14.442986
11497		8.644813	0.588820	-3.191527	0.645723	-0.599975	-0.620946	0.429418	0.659461	0.027751	-0.616943	0.134277	0.674805	0.086341	0.005969	-0.032187	0.090144	-0.824630	-0.118062	-0.545820	-177.079508	-67.144228	14.356794
11498		8.762353	0.440456	-3.271084	0.522661	-0.500486	-0.477335	0.309218	0.694322	0.014443	-0.620605	0.136475	0.677734	0.087509	0.004462	-0.033008	0.091878	-0.822614	-0.118496	-0.548474	-176.822593	-67.538862	14.269021
11499		8.894592	0.325566	-3.259158	0.488143	-0.402662	-0.355359	0.200494	0.724768	-0.004733	-0.627930	0.147461	0.666992	0.088827	0.003286	-0.032910	0.093112	-0.820535	-0.118732	-0.551321	-176.658017	-67.951660	14.214721
11500		9.065493	0.247796	-3.265124	0.456626	-0.339313	-0.190758	0.107726	0.752386	-0.021287	-0.631836	0.140137	0.662354	0.090532	0.002486	-0.032991	0.093950	-0.818406	-0.118740	-0.554333	-176.555742	-68.380471	14.170240
11501		9.190057	0.174041	-3.239664	0.431965	-0.272552	-0.080190	0.041310	0.767622	-0.024872	-0.633545	0.131104	0.654785	0.091776	0.001736	-0.032749	0.094498	-0.816248	-0.118595	-0.557444	-176.501843	-68.818385	14.137179
11502		9.317994	0.162763	-3.252316	0.388985	-0.275116	0.046398	-0.013589	0.786911	-0.026528	-0.641602	0.126709	0.659180	0.093051	0.001613	-0.032890	0.094823	-0.814043	-0.118276	-0.560672	-176.477068	-69.269092	14.100027
11503		9.412204	0.180734	-3.280893	0.325397	-0.312691	0.146345	-0.043577	0.802099	-0.022484	-0.647949	0.132813	0.645996	0.093990	0.001790	-0.033186	0.095049	-0.811805	-0.117865	-0.563956	-176.462233	-69.726624	14.056936
11504		9.459665	0.199047	-3.281317	0.268423	-0.347433	0.192242	-0.055015	0.812480	-0.007320	-0.651367	0.143066	0.642822	0.094462	0.001978	-0.033198	0.095269	-0.809529	-0.117344	-0.567289	-176.428389	-70.191783	13.985343
11505		9.486054	0.200915	-3.204112	0.268730	-0.347262	0.192240	-0.061500	0.815070	0.007758	-0.653809	0.135986	0.637939	0.094729	0.002003	-0.032428	0.095512	-0.807255	-0.116749	-0.570602	-176.370246	-70.655625	13.885635
11506		9.520202	0.036151	-3.251447	0.109872	-0.224752	0.244366	-0.052296	0.811843	0.021028	-0.667236	0.141846	0.629150	0.095069	0.000363	-0.032901	0.095832	-0.804966	-0.116127	-0.573900	-176.280347	-71.119725	13.758494
11507		9.512425	-0.091003	-3.288323	-0.040435	-0.140516	0.251390	0.002492	0.806764	0.038416	-0.665039	0.133057	0.629639	0.094991	-0.000891	-0.033267	0.096413	-0.802675	-0.115592	-0.577109	-176.124775	-71.577539	13.595215
11508		9.522756	-0.234967	-3.315434	-0.180812	-0.038665	0.271729	0.065821	0.804343	0.039783	-0.676025	0.134521	0.619629	0.095094	-0.002320	-0.033538	0.097246	-0.800335	-0.115238	-0.580283	-175.924815	-72.036567	13.423709
11509		9.497615	-0.322167	-3.318557	-0.292295	0.011273	0.248882	0.128961	0.804360	0.038449	-0.680176	0.130127	0.611816	0.094842	-0.003182	-0.033569	0.098329	-0.797964	-0.115067	-0.583391	-175.678456	-72.492632	13.242047
11510		9.519562	-0.259088	-3.252729	-0.281513	-0.060822	0.246435	0.209960	0.789188	0.040152	-0.677734	0.135986	0.608398	0.095067	-0.002537	-0.032905	0.099722	-0.795573	-0.115135	-0.586399	-175.377060	-72.942097	13.051228
11511		9.521179	-0.173513	-3.126915	-0.212285	-0.139499	0.207070	0.268734	0.770257	0.035650	-0.684326	0.139160	0.600342	0.095091	-0.001676	-0.031638	0.101331	-0.793205	-0.115396	-0.589273	-175.035867	-73.378231	12.855034
11512		9.524064	-0.099170	-3.075775	-0.211703	-0.229240	0.191320	0.297876	0.753020	0.030351	-0.694092	0.141846	0.595947	0.095124	-0.000931	-0.031117	0.103025	-0.790850	-0.115776	-0.592062	-174.679299	-73.805548	12.660639
11513		9.532804	-0.026252	-2.984989	-0.171473	-0.304685	0.170423	0.304469	0.738211	0.025532	-0.691650	0.150391	0.595703	0.095217	-0.000205	-0.030202	0.104724	-0.788527	-0.116195	-0.594774	-174.314459	-74.223222	12.462005
11514		9.536455	0.099034	-2.879887	-0.101293	-0.424571	0.140030	0.303458	0.718938	0.025925	-0.695801	0.146484	0.586914	0.095260	0.001047	-0.029140	0.106406	-0.786245	-0.116628	-0.597406	-173.941383	-74.630227	12.255104
11515		9.549582	0.233136	-2.835763	-0.079131	-0.569165	0.135167	0.285931	0.700415	0.014889	-0.706299	0.145752	0.583008	0.095396	0.002379	-0.028688	0.107975	-0.784015	-0.117050	-0.599968	-173.587735	-75.026302	12.057849
11516		9.465337	0.318248	-2.768305	-0.073199	-0.663093	0.031701	0.268891	0.680199	0.018332	-0.706787	0.145752	0.578125	0.094558	0.003229	-0.028000	0.109464	-0.781842	-0.117436	-0.602453	-173.235885	-75.410654	11.853058
11517		9.398460	0.267218	-2.738825	-0.137162	-0.637233	-0.041382	0.221151	0.650674	0.020071	-0.710693	0.143799	0.571533	0.093895	0.002712	-0.027691	0.110763	-0.779779	-0.117667	-0.604840	-172.891853	-75.777420	11.628102
11518		9.304383	0.233348	-2.808700	-0.290538	-0.657086	-0.117415	0.152272	0.619897	0.018799	-0.705078	0.143555	0.573975	0.092956	0.002364	-0.028373	0.111753	-0.777836	-0.117741	-0.607140	-172.600515	-76.126361	11.417714
11519		9.343728	0.202876	-2.813289	-0.348225	-0.650441	-0.080452	0.091177	0.573818	0.008966	-0.715088	0.145752	0.571289	0.093356	0.002046	-0.028400	0.112465	-0.776056	-0.117663	-0.609298	-172.353582	-76.449711	11.216729
11520		9.350447	0.089800	-2.777435	-0.399286	-0.550172	-0.081771	0.045761	0.525471	0.005752	-0.720215	0.145996	0.569580	0.093431	0.000907	-0.028020	0.112943	-0.774446	-0.117524	-0.611281	-172.165377	-76.744234	11.050743
11521		9.326303	0.045177	-2.827160	-0.509685	-0.541552	-0.095611	0.024220	0.466612	0.008058	-0.722412	0.142578	0.555176	0.093197	0.000459	-0.028489	0.113328	-0.773020	-0.117303	-0.613055	-171.976484	-77.006469	10.870449
11522		9.251681	0.021803	-2.891411	-0.632100	-0.557044	-0.156376	0.022028	0.408846	0.011558	-0.716797	0.148193	0.554443	0.092457	0.000227	-0.029103	0.113662	-0.771777	-0.117142	-0.614589	-171.816319	-77.233754	10.720290
11523		9.198554	-0.036277	-2.836683	-0.646202	-0.499242	-0.221308	0.017018	0.358075	-0.003154	-0.720947	0.146973	0.554688	0.091935	-0.000362	-0.028531	0.113920	-0.770675	-0.117003	-0.615949	-171.686470	-77.435134	10.596613
11524		9.234154	-0.082414	-2.795073	-0.644891	-0.449431	-0.196510	0.004701	0.309961	-0.014879	-0.724121	0.145508	0.548340	0.092298	-0.000830	-0.028094	0.114047	-0.769733	-0.116952	-0.617111	-171.633680	-77.606911	10.546953
11525		9.245021	-0.152577	-2.756030	-0.655534	-0.376879	-0.194081	0.005833	0.263415	-0.030231	-0.725098	0.150635	0.547607	0.092414	-0.001539	-0.027682	0.114123	-0.768910	-0.116937	-0.618126	-171.611137	-77.756830	10.526716
11526		9.263102	-0.234100	-2.792730	-0.734044	-0.314397	-0.167922	0.015135	0.221825	-0.035252	-0.729492	0.146240	0.550781	0.092600	-0.002355	-0.028030	0.114174	-0.768225	-0.117050	-0.618946	-171.640070	-77.879301	10.567084
11527		9.293857	-0.226466	-2.704843	-0.663595	-0.295718	-0.157875	0.041249	0.190681	-0.044377	-0.730713	0.146973	0.546631	0.092912	-0.002280	-0.027137	0.114300	-0.767596	-0.117240	-0.619667	-171.663008	-77.989165	10.614127
11528		9.282567	-0.250805	-2.602229	-0.595246	-0.241996	-0.190440	0.075544	0.169143	-0.045722	-0.723877	0.148438	0.547119	0.092803	-0.002519	-0.026102	0.114519	-0.767039	-0.117612	-0.620245	-171.708050	-78.081327	10.706398
11529		9.258273	-0.293332	-2.599235	-0.626792	-0.204668	-0.214619	0.106280	0.160666	-0.052206	-0.724854	0.140869	0.545166	0.092561	-0.002944	-0.026068	0.114852	-0.766460	-0.118051	-0.620815	-171.728034	-78.174804	10.788461
11530		9.324290	-0.325739	-2.603952	-0.642362	-0.175099	-0.149057	0.128467	0.153630	-0.049523	-0.728516	0.141113	0.537842	0.093222	-0.003264	-0.026113	0.115253	-0.765923	-0.118611	-0.621297	-171.760655	-78.257424	10.899091
11531		9.271506	-0.342724	-2.585312	-0.655382	-0.158635	-0.205012	0.166345	0.145450	-0.056589	-0.739502	0.144287	0.537598	0.092695	-0.003432	-0.025923	0.115793	-0.765353	-0.119261	-0.621775	-171.765853	-78.342613	11.001147
11532		9.358490	-0.299103	-2.535637	-0.589741	-0.182914	-0.131831	0.196914	0.125231	-0.054806	-0.738281	0.153809	0.535400	0.093568	-0.002992	-0.025418	0.116425	-0.764863	-0.120070	-0.622104	-171.786196	-78.408955	11.139340
11533		9.396638	-0.254998	-2.427019	-0.478734	-0.191143	-0.118024	0.224155	0.115198	-0.060603	-0.730225	0.142334	0.539063	0.093952	-0.002551	-0.024327	0.117155	-0.764348	-0.120933	-0.622432	-171.782969	-78.477306	11.266551
11534		9.379632	-0.209228	-2.343345	-0.399022	-0.209779	-0.153013	0.241973	0.109798	-0.059198	-0.733643	0.149658	0.534424	0.093783	-0.002092	-0.023487	0.117937	-0.763880	-0.121906	-0.622669	-171.796024	-78.534280	11.423687
11535		9.410735	-0.164451	-2.320412	-0.366864	-0.246743	-0.128793	0.244691	0.106896	-0.058356	-0.736572	0.150879	0.538330	0.094094	-0.001644	-0.023256	0.118748	-0.763378	-0.122828	-0.622950	-171.779508	-78.597732	11.549288
11536		9.325005	-0.156128	-2.331846	-0.399567	-0.264361	-0.211226	0.243645	0.105382	-0.054667	-0.739258	0.154297	0.542236	0.093237	-0.001558	-0.023369	0.119547	-0.762925	-0.123793	-0.623161	-171.782642	-78.651385	11.697246
11537		9.314854	-0.143526	-2.292376	-0.370302	-0.267434	-0.229711	0.244214	0.107225	-0.049968	-0.740967	0.146484	0.534180	0.093136	-0.001430	-0.022975	0.120382	-0.762424	-0.124681	-0.623436	-171.743693	-78.714339	11.799639
11538		9.281354	-0.084847	-2.223164	-0.300948	-0.303616	-0.277991	0.227774	0.106403	-0.041813	-0.737305	0.150146	0.536865	0.092802	-0.000843	-0.022282	0.121159	-0.761985	-0.125547	-0.623648	-171.721196	-78.767105	11.912135
11539		9.271052	-0.072502	-2.183661	-0.271689	-0.306690	-0.296483	0.195133	0.114157	-0.033950	-0.731445	0.154541	0.529785	0.092698	-0.000719	-0.021890	0.121861	-0.761501	-0.126216	-0.623968	-171.662320	-78.832681	11.965504
11540		9.299796	-0.119871	-2.160354	-0.269426	-0.256555	-0.271761	0.168909	0.113285	-0.025776	-0.741455	0.153564	0.526367	0.092986	-0.001192	-0.021657	0.122469	-0.761086	-0.126835	-0.624230	-171.625294	-78.887767	12.028972
11541		9.247541	-0.047696	-2.146279	-0.251262	-0.325972	-0.328152	0.143197	0.118684	-0.028147	-0.737793	0.152832	0.534180	0.092463	-0.000475	-0.021518	0.122994	-0.760621	-0.127317	-0.624595	-171.577533	-78.955431	12.063322
11542		9.291687	-0.035524	-2.081512	-0.188171	-0.316166	-0.297750	0.116893	0.120399	-0.020207	-0.728760	0.159424	0.531494	0.092904	-0.000352	-0.020871	0.123425	-0.760217	-0.127749	-0.624913	-171.552505	-79.014127	12.108686
11543		9.209178	-0.046301	-1.979889	-0.124212	-0.278432	-0.397907	0.091543	0.121174	-0.013004	-0.734863	0.162354	0.533936	0.092080	-0.000460	-0.019855	0.123802	-0.759785	-0.128011	-0.625311	-171.488846	-79.081925	12.096682
11544		9.201459	-0.085873	-1.995728	-0.163101	-0.250073	-0.401630	0.068529	0.124040	-0.015026	-0.738037	0.154053	0.528809	0.092002	-0.000859	-0.020015	0.124069	-0.759405	-0.128269	-0.625666	-171.473822	-79.141746	12.124104
11545		9.201299	-0.086357	-2.026522	-0.202225	-0.264271	-0.396350	0.055045	0.122743	-0.011932	-0.739502	0.146484	0.525391	0.092000	-0.000863	-0.020322	0.124311	-0.758991	-0.128412	-0.626091	-171.426644	-79.210329	12.107595
11546		9.154552	-0.084484	-1.955903	-0.154372	-0.245582	-0.455639	0.034490	0.118693	-0.008221	-0.743896	0.153564	0.542725	0.091534	-0.000845	-0.019613	0.124462	-0.758649	-0.128545	-0.626447	-171.417444	-79.267065	12.120949
11547		9.242428	-0.111360	-1.893165	-0.100614	-0.198499	-0.380327	0.031205	0.121578	-0.013096	-0.743164	0.144043	0.526367	0.092413	-0.001117	-0.018988	0.124610	-0.758252	-0.128618	-0.626884	-171.387498	-79.335079	12.108081
11548		9.265224	-0.104574	-1.855420	-0.068256	-0.192769	-0.365144	0.024730	0.111300	-0.005171	-0.740967	0.154297	0.530518	0.092642	-0.001046	-0.018606	0.124729	-0.757943	-0.128713	-0.627214	-171.376894	-79.387121	12.114336
11549		9.325244	-0.230670	-1.903793	-0.155323	-0.092788	-0.294018	0.024092	0.099825	-0.004025	-0.738281	0.152100	0.517334	0.093243	-0.002306	-0.019085	0.124864	-0.757624	-0.128743	-0.627567	-171.333153	-79.442021	12.083291
11550		9.339422	-0.191406	-1.825286	-0.073765	-0.103806	-0.295499	0.042291	0.094591	0.004418	-0.746094	0.161621	0.517822	0.093386	-0.001908	-0.018297	0.125072	-0.757361	-0.128866	-0.627818	-171.289303	-79.484084	12.066109
11551		9.346037	-0.173032	-1.803088	-0.053179	-0.117070	-0.293605	0.051293	0.088240	0.005305	-0.740967	0.157959	0.518066	0.093452	-0.001723	-0.018073	0.125332	-0.757067	-0.128953	-0.628103	-171.206104	-79.531593	12.010794
11552		9.360811	-0.188049	-1.823666	-0.080591	-0.112345	-0.275037	0.054384	0.084952	0.000789	-0.740479	0.157959	0.522461	0.093600	-0.001875	-0.018277	0.125569	-0.756822	-0.129133	-0.628314	-171.169229	-79.568816	12.007766
11553		9.419166	-0.170500	-1.819070	-0.066842	-0.128332	-0.219052	0.044105	0.082621	-0.003442	-0.740967	0.152344	0.517334	0.094184	-0.001703	-0.018230	0.125770	-0.756544	-0.129233	-0.628587	-171.118920	-79.613890	11.981718
11554		9.472139	-0.190489	-1.757230	-0.013582	-0.087293	-0.177452	0.037363	0.081669	-0.007983	-0.742432	0.161621	0.517090	0.094714	-0.001905	-0.017611	0.125910	-0.756315	-0.129395	-0.628801	-171.122105	-79.649803	12.009170
11555		9.513414	-0.231784	-1.835864	-0.100092	-0.077309	-0.121806	0.031322	0.075441	-0.007946	-0.742432	0.149902	0.524902	0.095127	-0.002319	-0.018395	0.126044	-0.756065	-0.129477	-0.629058	-171.096292	-79.691199	12.000583
11556		9.634102	-0.247532	-1.849023	-0.101717	-0.063570	-0.000364	0.027014	0.067594	-0.006713	-0.739990	0.150391	0.523193	0.096335	-0.002476	-0.018523	0.126140	-0.755887	-0.129608	-0.629226	-171.107065	-79.719279	12.029695
11557		9.759867	-0.333891	-1.805090	-0.076165	0.035628	0.117960	0.030248	0.066472	-0.013875	-0.740967	0.147705	0.519775	0.097592	-0.003343	-0.018084	0.126246	-0.755661	-0.129715	-0.629454	-171.104764	-79.756115	12.044377
11558		9.758953	-0.333883	-1.840880	-0.114019	0.022773	0.123306	0.031080	0.063328	-0.011892	-0.748291	0.154297	0.521240	0.097583	-0.003342	-0.018440	0.126338	-0.755490	-0.129880	-0.629608	-171.131576	-79.782404	12.091977
11559		9.809276	-0.353596	-1.823012	-0.101399	0.048109	0.170183	0.035076	0.054461	-0.014392	-0.744385	0.149170	0.518555	0.098088	-0.003540	-0.018257	0.126452	-0.755298	-0.130011	-0.629787	-171.134262	-79.812477	12.114530
11560		9.831228	-0.327973	-1.861987	-0.127627	0.011540	0.197866	0.030896	0.041685	-0.013028	-0.745361	0.154053	0.516357	0.098308	-0.003283	-0.018641	0.126529	-0.755192	-0.130190	-0.629862	-171.172685	-79.826947	12.173842
11561		9.846481	-0.268049	-1.817822	-0.066429	-0.028585	0.203514	0.024081	0.029044	-0.012135	-0.742188	0.151611	0.520264	0.098462	-0.002684	-0.018193	0.126592	-0.755090	-0.130295	-0.629950	-171.187256	-79.842420	12.202068
11562		9.861494	-0.208209	-1.774756	-0.004017	-0.067504	0.209169	0.016033	0.020183	-0.008112	-0.746094	0.150879	0.527100	0.098613	-0.002085	-0.017758	0.126615	-0.755064	-0.130419	-0.629951	-171.228071	-79.844289	12.255059
11563		9.860776	-0.135900	-1.746575	0.046710	-0.125285	0.201603	-0.005942	0.003708	0.006637	-0.742676	0.156738	0.518066	0.098607	-0.001356	-0.017468	0.126608	-0.755072	-0.130375	-0.629951	-171.212995	-79.843762	12.235688
11564		9.833945	-0.109144	-1.689245	0.106064	-0.130421	0.164471	-0.041549	-0.001920	0.021310	-0.747559	0.152344	0.519287	0.098340	-0.001084	-0.016891	0.126491	-0.755171	-0.130220	-0.629888	-171.204653	-79.830697	12.205092
11565		9.790421	-0.142576	-1.715314	0.063946	-0.110829	0.127061	-0.073572	-0.006851	0.023650	-0.744141	0.161133	0.508301	0.097905	-0.001420	-0.017149	0.126275	-0.755267	-0.129905	-0.629882	-171.179880	-79.822689	12.136500
11566		9.750430	-0.229383	-1.797918	-0.046647	-0.059954	0.104482	-0.093668	-0.015756	0.034251	-0.744385	0.158936	0.516602	0.097506	-0.002286	-0.017970	0.125995	-0.755445	-0.129546	-0.629798	-171.166831	-79.801492	12.070949
11567		9.649695	-0.281616	-1.822605	-0.102299	-0.024265	0.011097	-0.098180	-0.023288	0.038036	-0.746582	0.152832	0.518555	0.096500	-0.002807	-0.018213	0.125721	-0.755617	-0.129109	-0.629737	-171.119284	-79.782893	11.964882
11568		9.626794	-0.381481	-1.851083	-0.162991	0.058656	-0.003651	-0.091115	-0.027681	0.040289	-0.748291	0.146240	0.524658	0.096271	-0.003804	-0.018496	0.125459	-0.755837	-0.128742	-0.629600	-171.092437	-79.754069	11.886467
11569		9.517957	-0.382083	-1.905512	-0.227943	0.035390	-0.101084	-0.084753	-0.033892	0.040728	-0.745361	0.150879	0.524658	0.095184	-0.003810	-0.019037	0.125237	-0.756035	-0.128344	-0.629487	-171.034700	-79.729194	11.777845
11570		9.550790	-0.391969	-1.910940	-0.224673	0.044268	-0.067408	-0.065223	-0.040729	0.043435	-0.744141	0.158203	0.525391	0.095513	-0.003905	-0.019089	0.125071	-0.756284	-0.128052	-0.629281	-170.991898	-79.692465	11.697784
11571		9.564610	-0.335662	-1.874173	-0.163463	0.004163	-0.061779	-0.050346	-0.041156	0.034786	-0.750244	0.158203	0.517334	0.095651	-0.003345	-0.018721	0.124955	-0.756479	-0.127789	-0.629123	-170.937460	-79.663972	11.612527
11572		9.529368	-0.258397	-1.849194	-0.113540	-0.060217	-0.102969	-0.035671	-0.041256	0.028672	-0.751221	0.151123	0.518311	0.095298	-0.002574	-0.018472	0.124866	-0.756698	-0.127642	-0.628907	-170.916454	-79.628760	11.572551
11573		9.463212	-0.245609	-1.808099	-0.077573	-0.060649	-0.175664	-0.024185	-0.049858	0.032596	-0.740234	0.150635	0.522217	0.094637	-0.002443	-0.018057	0.124837	-0.756902	-0.127475	-0.628701	-170.858857	-79.595516	11.499306
11574		9.498067	-0.255065	-1.772515	-0.035001	-0.037450	-0.147413	-0.024828	-0.054168	0.030886	-0.743164	0.159180	0.524658	0.094986	-0.002538	-0.017699	0.124777	-0.757156	-0.127365	-0.628430	-170.837893	-79.552936	11.464981
11575		9.484861	-0.297414	-1.847328	-0.114672	-0.024770	-0.145739	-0.017828	-0.056070	0.033011	-0.741943	0.152100	0.526123	0.094854	-0.002960	-0.018446	0.124769	-0.757376	-0.127220	-0.628195	-170.779311	-79.516116	11.394416
11576		9.465498	-0.305870	-1.837629	-0.104607	-0.013466	-0.166187	-0.003868	-0.057984	0.025065	-0.741455	0.153076	0.519531	0.094661	-0.003047	-0.018349	0.124775	-0.757629	-0.127194	-0.627894	-170.761344	-79.471169	11.375504
11577		9.463868	-0.235934	-1.815661	-0.053874	-0.071239	-0.173750	0.004429	-0.059012	0.021323	-0.745117	0.154053	0.520996	0.094644	-0.002349	-0.018129	0.124813	-0.757837	-0.127166	-0.627641	-170.727756	-79.433735	11.343317
11578		9.454557	-0.204535	-1.778805	-0.003445	-0.086789	-0.190469	0.014592	-0.059511	0.016150	-0.741455	0.152100	0.526367	0.094551	-0.002036	-0.017760	0.124857	-0.758070	-0.127235	-0.627338	-170.729218	-79.390085	11.354938
11579		9.494911	-0.174854	-1.800944	-0.000026	-0.120315	-0.147656	0.008301	-0.055816	0.015873	-0.733887	0.151367	0.517090	0.094954	-0.001740	-0.017983	0.124894	-0.758262	-0.127238	-0.627097	-170.708630	-79.354957	11.338226
11580		9.480748	-0.162870	-1.777234	0.030211	-0.122380	-0.166248	0.004451	-0.051931	0.018597	-0.742676	0.160156	0.521729	0.094812	-0.001619	-0.017748	0.124910	-0.758482	-0.127260	-0.626823	-170.705706	-79.314689	11.339126
11581		9.492960	-0.178283	-1.810864	0.001633	-0.118886	-0.147639	0.001950	-0.049648	0.015531	-0.739258	0.156982	0.526367	0.094934	-0.001775	-0.018085	0.124926	-0.758659	-0.127240	-0.626610	-170.686991	-79.283069	11.320609
11582		9.507559	-0.193101	-1.802019	0.013433	-0.100171	-0.134463	0.000930	-0.046204	0.016143	-0.741211	0.153564	0.528320	0.095080	-0.001923	-0.017998	0.124934	-0.758859	-0.127253	-0.626363	-170.684915	-79.246660	11.320926
11583		9.568683	-0.156773	-1.796066	0.047666	-0.129427	-0.076615	-0.009669	-0.043212	0.014292	-0.751709	0.147461	0.527344	0.095691	-0.001562	-0.017940	0.124906	-0.759022	-0.127198	-0.626183	-170.673572	-79.218785	11.303136
11584		9.575683	-0.209998	-1.771748	0.058100	-0.069114	-0.072629	-0.012363	-0.040609	0.013778	-0.739746	0.155029	0.515625	0.095761	-0.002094	-0.017698	0.124841	-0.759209	-0.127181	-0.625972	-170.694564	-79.186261	11.317870
11585		9.559445	-0.197758	-1.788933	0.047933	-0.086587	-0.085788	-0.019556	-0.038406	0.014253	-0.741211	0.156250	0.517090	0.095598	-0.001973	-0.017871	0.124778	-0.759363	-0.127091	-0.625816	-170.686815	-79.161103	11.297962
11586		9.584719	-0.245003	-1.779268	0.049604	-0.036799	-0.061337	-0.020634	-0.032475	0.014781	-0.736328	0.149170	0.525146	0.095850	-0.002445	-0.017777	0.124711	-0.759521	-0.127037	-0.625648	-170.694719	-79.134550	11.296336
11587		9.565979	-0.251796	-1.767070	0.058514	-0.026446	-0.081820	-0.016003	-0.029912	0.011160	-0.745117	0.155518	0.523193	0.095663	-0.002514	-0.017656	0.124657	-0.759644	-0.126965	-0.625524	-170.690031	-79.114483	11.281618
11588		9.609476	-0.292792	-1.772328	0.051842	0.013459	-0.036900	-0.014794	-0.033687	0.008012	-0.744141	0.161621	0.525635	0.096098	-0.002925	-0.017707	0.124575	-0.759809	-0.126954	-0.625343	-170.721305	-79.086188	11.305641
11589		9.577667	-0.285742	-1.731462	0.089637	0.020520	-0.076011	0.000059	-0.033501	0.011349	-0.736816	0.153564	0.523193	0.095780	-0.002852	-0.017299	0.124581	-0.759934	-0.126934	-0.625195	-170.708656	-79.064065	11.292182
11590		9.623730	-0.307758	-1.765580	0.063886	0.032318	-0.023762	0.017588	-0.036517	0.003102	-0.739502	0.148438	0.528564	0.096241	-0.003075	-0.017639	0.124619	-0.760081	-0.127039	-0.624986	-170.728207	-79.035008	11.324142
11591		9.664381	-0.295857	-1.714994	0.125818	0.041067	0.006247	0.027300	-0.033903	0.002917	-0.745117	0.153320	0.528809	0.096647	-0.002955	-0.017134	0.124702	-0.760184	-0.127137	-0.624825	-170.724767	-79.013428	11.335963
11592		9.697469	-0.303891	-1.720039	0.128889	0.049988	0.039860	0.032890	-0.032316	-0.001385	-0.734131	0.159180	0.529053	0.096977	-0.003037	-0.017185	0.124763	-0.760308	-0.127308	-0.624627	-170.759041	-78.987131	11.389916
11593		9.691785	-0.323880	-1.736742	0.108916	0.063636	0.037995	0.039310	-0.033879	-0.003724	-0.736816	0.157471	0.526855	0.096921	-0.003237	-0.017352	0.124870	-0.760399	-0.127468	-0.624462	-170.767947	-78.966165	11.421320
11594		9.714432	-0.298690	-1.741701	0.122018	0.040929	0.060325	0.049326	-0.036554	-0.006294	-0.725098	0.157227	0.531982	0.097147	-0.002986	-0.017400	0.125004	-0.760525	-0.127702	-0.624234	-170.791964	-78.937273	11.476275
11595		9.747330	-0.234178	-1.719577	0.174702	-0.009255	0.086384	0.050229	-0.035062	-0.007037	-0.731934	0.150635	0.530518	0.097476	-0.002341	-0.017179	0.125142	-0.760611	-0.127909	-0.624059	-170.804516	-78.915921	11.517779
11596		9.697530	-0.213926	-1.734217	0.163711	-0.033343	0.039594	0.052494	-0.034577	-0.001464	-0.734863	0.158203	0.530273	0.096978	-0.002135	-0.017326	0.125284	-0.760737	-0.128136	-0.623831	-170.820924	-78.886924	11.565228
11597		9.696941	-0.214474	-1.737440	0.164049	-0.033119	0.039590	0.039313	-0.033925	-0.003659	-0.735596	0.156250	0.528076	0.096972	-0.002143	-0.017358	0.125392	-0.760828	-0.128295	-0.623665	-170.829293	-78.865880	11.596097
11598		9.724916	-0.241924	-1.755941	0.146593	-0.011180	0.071352	0.029241	-0.028775	-0.001157	-0.740479	0.154053	0.533203	0.097252	-0.002417	-0.017546	0.125462	-0.760931	-0.128446	-0.623494	-170.851146	-78.843415	11.636653
11599		9.677870	-0.220854	-1.727507	0.173866	-0.021832	0.019074	0.027573	-0.022489	-0.005087	-0.737061	0.148682	0.532227	0.096781	-0.002209	-0.017264	0.125528	-0.760993	-0.128568	-0.623380	-170.864903	-78.828964	11.666163
11600		9.646555	-0.266519	-1.783184	0.103261	0.001992	0.000372	0.031895	-0.014643	-0.006344	-0.730225	0.161133	0.520508	0.096467	-0.002665	-0.017825	0.125581	-0.761048	-0.128741	-0.623266	-170.903488	-78.815082	11.723725
11601		9.664435	-0.260906	-1.799599	0.095036	-0.007902	0.020870	0.039504	-0.009760	-0.002633	-0.738281	0.160645	0.526367	0.096645	-0.002607	-0.017992	0.125708	-0.761065	-0.128882	-0.623191	-170.897515	-78.807603	11.740087
11602		9.648758	-0.248311	-1.813413	0.085248	-0.025022	0.007739	0.044417	-0.002258	0.000547	-0.731445	0.156006	0.530762	0.096488	-0.002479	-0.018134	0.125878	-0.761067	-0.129055	-0.623119	-170.884150	-78.801513	11.755204
11603		9.646130	-0.196009	-1.757340	0.155069	-0.054944	-0.007209	0.050475	0.003942	0.000500	-0.733643	0.152100	0.526123	0.096461	-0.001955	-0.017576	0.126065	-0.761036	-0.129210	-0.623087	-170.856618	-78.801504	11.756006
11604		9.659142	-0.138724	-1.757800	0.177530	-0.108466	0.003872	0.047117	0.019622	0.004629	-0.729492	0.162598	0.528564	0.096590	-0.001381	-0.017588	0.126237	-0.760983	-0.129364	-0.623084	-170.835592	-78.805636	11.761875
11605		9.628419	-0.113759	-1.782174	0.156854	-0.143651	-0.022371	0.033980	0.028049	0.011684	-0.740967	0.161133	0.528564	0.096282	-0.001129	-0.017835	0.126412	-0.760894	-0.129409	-0.623148	-170.774429	-78.818230	11.718755
11606		9.623828	-0.135201	-1.792563	0.137432	-0.129511	-0.024226	0.023849	0.035700	0.014071	-0.734863	0.154053	0.528076	0.096235	-0.001343	-0.017943	0.126561	-0.760807	-0.129440	-0.623218	-170.719496	-78.831218	11.678463
11607		9.590855	-0.129354	-1.786825	0.135815	-0.136876	-0.057853	0.016724	0.042574	0.011794	-0.731689	0.161133	0.525391	0.095905	-0.001286	-0.017889	0.126680	-0.760684	-0.129423	-0.623347	-170.660821	-78.851991	11.627811
11608		9.589105	-0.131649	-1.824509	0.097207	-0.150231	-0.052304	0.018041	0.051183	0.015207	-0.734863	0.156982	0.525635	0.095886	-0.001308	-0.018270	0.126800	-0.760553	-0.129426	-0.623482	-170.609064	-78.873903	11.585890
11609		9.571837	-0.066814	-1.776791	0.156516	-0.197863	-0.080377	0.011635	0.059875	0.014726	-0.732178	0.153809	0.525879	0.095713	-0.000660	-0.017797	0.126920	-0.760381	-0.129371	-0.623679	-170.536208	-78.904156	11.517820
11610		9.596362	-0.115219	-1.799546	0.118530	-0.162230	-0.050442	-0.003768	0.067792	0.016218	-0.736084	0.159912	0.534912	0.095958	-0.001145	-0.018028	0.126963	-0.760211	-0.129294	-0.623894	-170.490500	-78.935656	11.468707
11611		9.532944	-0.082874	-1.817681	0.095886	-0.205026	-0.110284	-0.008627	0.075156	0.019514	-0.732910	0.158936	0.531006	0.095323	-0.000820	-0.018213	0.127030	-0.760007	-0.129147	-0.624158	-170.407280	-78.974056	11.378258
11612		9.516440	-0.071817	-1.865635	0.047185	-0.236086	-0.117822	-0.010397	0.086376	0.015426	-0.736572	0.156494	0.528320	0.095156	-0.000712	-0.018697	0.127065	-0.759798	-0.129032	-0.624430	-170.350734	-79.013324	11.314404
11613		9.510519	-0.093657	-1.913107	-0.012157	-0.236835	-0.114106	-0.013410	0.087125	0.020125	-0.734619	0.154541	0.522217	0.095097	-0.000928	-0.019172	0.127124	-0.759560	-0.128861	-0.624742	-170.261380	-79.058360	11.214938
11614		9.514577	-0.094657	-1.862457	0.027745	-0.221250	-0.119641	-0.014425	0.090553	0.020753	-0.742432	0.155762	0.530518	0.095137	-0.000938	-0.018668	0.127156	-0.759323	-0.128722	-0.625052	-170.196362	-79.103046	11.140252
11615		9.552848	-0.156909	-1.911329	-0.039427	-0.183249	-0.071046	-0.018597	0.091975	0.016574	-0.727051	0.154541	0.525146	0.095520	-0.001563	-0.019157	0.127187	-0.759071	-0.128545	-0.625388	-170.116561	-79.151118	11.047512
11616		9.480061	-0.235685	-1.982111	-0.152611	-0.140240	-0.126981	-0.011209	0.089391	0.013625	-0.739502	0.150879	0.523682	0.094792	-0.002351	-0.019863	0.127205	-0.758843	-0.128440	-0.625684	-170.069975	-79.193871	10.992969
11617		9.515476	-0.244092	-1.975271	-0.150300	-0.132385	-0.093354	0.004362	0.090714	0.006763	-0.736328	0.147949	0.521240	0.095146	-0.002437	-0.019796	0.127291	-0.758573	-0.128373	-0.626006	-170.005510	-79.242158	10.929254
11618		9.486328	-0.218316	-1.994076	-0.170916	-0.166433	-0.119520	0.013591	0.081544	0.005186	-0.740967	0.156982	0.520752	0.094855	-0.002179	-0.019980	0.127363	-0.758334	-0.128390	-0.626278	-169.980438	-79.283713	10.910778
11619		9.508335	-0.212455	-1.959536	-0.139752	-0.161890	-0.104566	0.022196	0.075197	-0.000917	-0.740234	0.150635	0.515869	0.095076	-0.002123	-0.019631	0.127482	-0.758097	-0.128417	-0.626535	-169.936143	-79.323999	10.877996
11620		9.499383	-0.179878	-1.952671	-0.129510	-0.192070	-0.115787	0.026866	0.068131	-0.001614	-0.748291	0.157227	0.518555	0.094987	-0.001797	-0.019559	0.127601	-0.757883	-0.128507	-0.626751	-169.916965	-79.358980	10.875441
11621		9.490202	-0.147796	-1.946880	-0.119378	-0.222969	-0.127020	0.022864	0.053182	0.009406	-0.733887	0.157959	0.517578	0.094897	-0.001471	-0.019494	0.127741	-0.757721	-0.128512	-0.626917	-169.852605	-79.385807	10.822642
11622		9.524778	-0.156552	-1.943893	-0.116725	-0.214504	-0.093377	0.014274	0.042192	0.009102	-0.744141	0.164307	0.522705	0.095244	-0.001560	-0.019459	0.127837	-0.757610	-0.128535	-0.627028	-169.816771	-79.403895	10.796325
11623		9.554091	-0.184978	-1.955577	-0.134720	-0.193214	-0.061602	0.008173	0.028915	0.011888	-0.739746	0.159912	0.517090	0.095538	-0.001843	-0.019570	0.127914	-0.757535	-0.128500	-0.627110	-169.766101	-79.416769	10.748901
11624		9.577852	-0.161097	-1.954841	-0.122040	-0.216010	-0.039200	-0.009118	0.019631	0.020410	-0.742676	0.154297	0.522705	0.095777	-0.001602	-0.019558	0.127950	-0.757522	-0.128418	-0.627135	-169.716307	-79.419826	10.695303
11625		9.557100	-0.259879	-1.936991	-0.144542	-0.119883	-0.059618	-0.024940	0.003784	0.023299	-0.738281	0.159180	0.519775	0.095571	-0.002590	-0.019371	0.127922	-0.757554	-0.128252	-0.627136	-169.663784	-79.417340	10.626701
11626		9.557782	-0.243830	-2.008398	-0.202032	-0.160860	-0.046540	-0.029866	-0.012644	0.035048	-0.746094	0.162842	0.525635	0.095580	-0.002425	-0.020078	0.127873	-0.757672	-0.128074	-0.627040	-169.615967	-79.399948	10.560427
11627		9.547030	-0.213960	-2.010116	-0.191896	-0.191759	-0.057764	-0.032883	-0.021456	0.042587	-0.745605	0.161133	0.513916	0.095473	-0.002123	-0.020091	0.127859	-0.757801	-0.127826	-0.626938	-169.524223	-79.381201	10.447281
11628		9.504530	-0.176498	-1.969070	-0.144121	-0.215392	-0.108188	-0.043896	-0.034489	0.051466	-0.739990	0.163574	0.516113	0.095049	-0.001745	-0.019674	0.127823	-0.757990	-0.127556	-0.626771	-169.434528	-79.352128	10.332817
11629		9.503647	-0.180979	-1.972923	-0.143782	-0.215149	-0.108177	-0.065131	-0.044532	0.065453	-0.745361	0.162842	0.521729	0.095041	-0.001785	-0.019707	0.127743	-0.758226	-0.127135	-0.626587	-169.306763	-79.317900	10.164202
11630		9.453620	-0.237726	-2.016880	-0.206015	-0.181885	-0.147299	-0.079226	-0.054362	0.078972	-0.731934	0.154541	0.520752	0.094543	-0.002348	-0.020142	0.127653	-0.758520	-0.126663	-0.626345	-169.165086	-79.274106	9.976787
11631		9.406196	-0.276187	-2.090370	-0.287662	-0.176868	-0.178975	-0.090540	-0.062199	0.090347	-0.734863	0.164551	0.522949	0.094070	-0.002729	-0.020873	0.127544	-0.758843	-0.126080	-0.626094	-168.990439	-79.227077	9.745596
11632		9.435334	-0.237549	-2.042521	-0.214801	-0.198149	-0.160307	-0.097915	-0.069327	0.096330	-0.730469	0.158203	0.523682	0.094362	-0.002340	-0.020391	0.127396	-0.759235	-0.125489	-0.625767	-168.833794	-79.168090	9.528893
11633		9.441598	-0.278446	-2.091720	-0.263611	-0.181164	-0.143444	-0.102039	-0.069851	0.104448	-0.738770	0.148682	0.529785	0.094425	-0.002746	-0.020883	0.127282	-0.759597	-0.124820	-0.625485	-168.632758	-79.114900	9.264035
11634		9.427441	-0.253546	-2.140643	-0.291893	-0.224588	-0.148960	-0.109171	-0.070191	0.105112	-0.739990	0.161133	0.528564	0.094283	-0.002498	-0.021372	0.127064	-0.760010	-0.124168	-0.625158	-168.489645	-79.053959	9.049902
11635		9.389184	-0.272583	-2.116973	-0.274512	-0.204184	-0.190027	-0.112084	-0.064891	0.107218	-0.733398	0.165771	0.520508	0.093900	-0.002687	-0.021138	0.126923	-0.760364	-0.123454	-0.624897	-168.287996	-79.002910	8.778433
11636		9.364505	-0.233129	-2.094035	-0.234927	-0.238048	-0.219907	-0.114418	-0.060497	0.101617	-0.739746	0.167725	0.521729	0.093653	-0.002296	-0.020911	0.126769	-0.760719	-0.122787	-0.624628	-168.112550	-78.950905	8.536007
11637		9.352394	-0.279220	-2.127454	-0.275215	-0.210979	-0.223577	-0.112500	-0.062550	0.100382	-0.740479	0.159424	0.523926	0.093532	-0.002757	-0.021244	0.126606	-0.761060	-0.122097	-0.624380	-167.933444	-78.901645	8.287182
11638		9.317861	-0.259109	-2.202187	-0.335379	-0.260249	-0.244036	-0.099648	-0.056149	0.092895	-0.735596	0.158447	0.521240	0.093186	-0.002559	-0.021994	0.126483	-0.761362	-0.121516	-0.624151	-167.778701	-78.857147	8.075059
11639		9.308918	-0.231992	-2.164626	-0.285889	-0.276752	-0.260878	-0.086650	-0.047537	0.082723	-0.736084	0.156494	0.525879	0.093095	-0.002291	-0.021623	0.126373	-0.761628	-0.120964	-0.623955	-167.628955	-78.818198	7.871190
11640		9.313623	-0.199145	-2.226087	-0.323617	-0.330795	-0.245841	-0.079363	-0.045171	0.079586	-0.740967	0.159668	0.526367	0.093142	-0.001963	-0.022239	0.126234	-0.761888	-0.120496	-0.623756	-167.524903	-78.779804	7.717611
11641		9.310153	-0.204738	-2.272152	-0.362632	-0.344952	-0.240172	-0.068460	-0.034280	0.073316	-0.727295	0.156982	0.526855	0.093106	-0.002021	-0.022705	0.126171	-0.762096	-0.120028	-0.623606	-167.385226	-78.749280	7.534572
11642		9.310806	-0.281814	-2.261066	-0.372855	-0.270981	-0.238216	-0.048622	-0.029756	0.067791	-0.730957	0.157227	0.528809	0.093112	-0.002792	-0.022596	0.126123	-0.762298	-0.119686	-0.623435	-167.286849	-78.717849	7.404490
11643		9.245989	-0.251687	-2.287918	-0.395588	-0.313900	-0.297899	-0.029851	-0.016800	0.062717	-0.734375	0.163330	0.527100	0.092463	-0.002491	-0.022871	0.126185	-0.762419	-0.119367	-0.623334	-167.145287	-78.698282	7.242040
11644		9.229206	-0.314827	-2.330660	-0.455366	-0.272309	-0.303333	-0.007007	-0.012983	0.052426	-0.723633	0.158936	0.530273	0.092294	-0.003125	-0.023300	0.126273	-0.762542	-0.119199	-0.623199	-167.048616	-78.676274	7.139116
11645		9.202704	-0.344133	-2.372246	-0.506192	-0.262987	-0.320040	0.023456	-0.004826	0.033656	-0.730957	0.157227	0.523438	0.092028	-0.003423	-0.023721	0.126454	-0.762575	-0.119150	-0.623130	-166.950757	-78.667004	7.052362
11646		9.200672	-0.294664	-2.315764	-0.435293	-0.291382	-0.334946	0.050370	0.001967	0.015211	-0.736084	0.163330	0.531738	0.092007	-0.002934	-0.023159	0.126631	-0.762606	-0.119295	-0.623029	-166.926889	-78.656164	7.055304
11647		9.196381	-0.244375	-2.300908	-0.404844	-0.335695	-0.344281	0.068863	0.007581	0.003280	-0.731201	0.165283	0.531250	0.091963	-0.002434	-0.023013	0.126898	-0.762554	-0.119495	-0.623000	-166.879809	-78.657711	7.046857
11648		9.248955	-0.229100	-2.387506	-0.467995	-0.379225	-0.276807	0.085639	0.014838	-0.009835	-0.731934	0.161133	0.537109	0.092488	-0.002285	-0.023883	0.127182	-0.762508	-0.119827	-0.622935	-166.874340	-78.656380	7.092287
11649		9.254885	-0.210637	-2.371792	-0.447326	-0.392374	-0.274941	0.101093	0.023627	-0.017078	-0.734863	0.163086	0.526855	0.092546	-0.002102	-0.023730	0.127518	-0.762373	-0.120195	-0.622960	-166.855030	-78.669504	7.130999
11650		9.234889	-0.216836	-2.396026	-0.476485	-0.395008	-0.289659	0.119741	0.031361	-0.031591	-0.741943	0.158691	0.522217	0.092345	-0.002169	-0.023976	0.127835	-0.762248	-0.120710	-0.622949	-166.899566	-78.679664	7.244203
11651		9.235788	-0.216695	-2.392569	-0.476133	-0.394745	-0.289631	0.137868	0.037456	-0.038250	-0.732422	0.164795	0.526367	0.092353	-0.002168	-0.023944	0.128254	-0.762034	-0.121265	-0.623017	-166.909545	-78.703221	7.334260
11652		9.300916	-0.251704	-2.363628	-0.452927	-0.350049	-0.229919	0.158445	0.043656	-0.041841	-0.737549	0.158203	0.531006	0.093003	-0.002518	-0.023659	0.128709	-0.761780	-0.121957	-0.623099	-166.952920	-78.731468	7.472064
11653		9.276034	-0.277066	-2.399666	-0.503757	-0.340725	-0.246596	0.172876	0.046146	-0.045438	-0.743408	0.164551	0.524902	0.092754	-0.002771	-0.024020	0.129243	-0.761510	-0.122642	-0.623183	-166.957998	-78.760815	7.577552
11654		9.262241	-0.210012	-2.310037	-0.404892	-0.372167	-0.280267	0.180748	0.048024	-0.043988	-0.736084	0.166992	0.521973	0.092616	-0.002100	-0.023125	0.129741	-0.761251	-0.123401	-0.623247	-167.008380	-78.788030	7.731407
11655		9.300009	-0.199203	-2.335597	-0.421526	-0.391980	-0.239102	0.175110	0.048809	-0.039567	-0.738525	0.167236	0.523193	0.092994	-0.001990	-0.023380	0.130303	-0.760974	-0.124069	-0.623335	-166.994723	-78.818097	7.819063
11656		9.398205	-0.260877	-2.236114	-0.337144	-0.297995	-0.159084	0.161338	0.052874	-0.034052	-0.740479	0.165771	0.526123	0.093976	-0.002607	-0.022388	0.130844	-0.760709	-0.124726	-0.623414	-166.986762	-78.846616	7.909749
11657		10.135929	-0.707050	-1.387333	0.418067	0.437585	0.424275	0.114841	0.070338	-0.021585	-0.731934	0.171143	0.515869	0.101354	-0.007073	-0.013913	0.131247	-0.760414	-0.125123	-0.623609	-166.942879	-78.886394	7.931397
11658		11.108630	-1.298091	-0.812794	0.912420	1.217285	1.297355	0.078902	0.097387	0.001925	-0.738281	0.171631	0.515625	0.111082	-0.012977	-0.008187	0.131618	-0.760093	-0.125352	-0.623877	-166.847536	-78.933756	7.884928
11659		10.874927	-1.662833	-0.936997	0.616167	1.497954	1.109010	0.150965	0.092968	0.087173	-0.743164	0.171143	0.517822	0.108752	-0.016574	-0.009433	0.132511	-0.759771	-0.125434	-0.624063	-166.456102	-78.971785	7.573558
11660		10.555534	-0.928392	-0.924352	0.825036	0.789222	0.762379	0.245417	0.059987	0.201182	-0.740479	0.172363	0.518311	0.105562	-0.009166	-0.009286	0.134151	-0.759535	-0.125451	-0.623997	-165.699973	-78.977931	6.954456
11661		10.306302	0.215672	-0.845976	1.262636	-0.280516	0.449333	0.232378	0.042615	0.239433	-0.731445	0.173340	0.517334	0.103059	0.002290	-0.008479	0.135797	-0.759409	-0.125242	-0.623836	-164.861365	-78.964482	6.235065
11662		9.865164	1.070208	-0.798299	1.535302	-1.090482	-0.037323	0.069706	0.041951	0.196418	-0.734863	0.180664	0.515625	0.098639	0.010802	-0.008000	0.136673	-0.759389	-0.124727	-0.623772	-164.263998	-78.951539	5.667860
11663		9.753241	1.343899	-0.949789	1.474841	-1.418327	-0.135546	-0.180135	0.044633	0.124353	-0.740723	0.181396	0.523193	0.097522	0.013491	-0.009532	0.136394	-0.759463	-0.123666	-0.623954	-163.987752	-78.954462	5.280589
11664		9.631289	1.046879	-1.310640	1.011931	-1.282385	-0.173863	-0.394374	0.041935	0.077676	-0.741211	0.182861	0.516357	0.096306	0.010480	-0.013147	0.135199	-0.759684	-0.122152	-0.624244	-163.963241	-78.957684	5.031646
11665		9.593892	0.333204	-1.796815	0.300607	-0.792329	-0.083135	-0.491626	0.037439	0.055397	-0.737305	0.174316	0.519775	0.095935	0.003314	-0.017994	0.133517	-0.759944	-0.120385	-0.624633	-164.065528	-78.967364	4.848240
11666		9.663266	-0.470318	-2.153205	-0.297536	-0.163626	0.092912	-0.442745	0.027415	0.071687	-0.739014	0.170898	0.512695	0.096631	-0.004716	-0.021535	0.132116	-0.760200	-0.118767	-0.624929	-164.097627	-78.968905	4.630560
11667		9.598836	-1.170109	-2.482635	-0.853627	0.376276	0.127133	-0.280731	0.020049	0.101059	-0.738770	0.167969	0.522461	0.095992	-0.011687	-0.024820	0.131367	-0.760395	-0.117496	-0.625089	-163.963995	-78.961825	4.329929
11668		9.475009	-1.498361	-2.630675	-1.123059	0.626817	0.050738	-0.050224	0.003169	0.126501	-0.737793	0.173096	0.507080	0.094759	-0.014930	-0.026304	0.131509	-0.760490	-0.116923	-0.625052	-163.688068	-78.945112	4.018678
11669		9.357249	-1.401453	-2.652803	-1.128326	0.513717	-0.064739	0.163213	0.002733	0.133462	-0.735840	0.168945	0.516846	0.093581	-0.013930	-0.026541	0.132538	-0.760465	-0.116928	-0.624864	-163.224884	-78.922687	3.641390
11670		9.313993	-1.055674	-2.452754	-0.831765	0.241467	-0.162260	0.323313	0.003179	0.120595	-0.737549	0.177734	0.514404	0.093146	-0.010461	-0.024546	0.134133	-0.760264	-0.117554	-0.624650	-162.730274	-78.912292	3.330713
11671		9.361648	-0.666312	-2.088920	-0.350273	-0.012747	-0.204090	0.399002	0.008843	0.089780	-0.743164	0.178467	0.508057	0.093619	-0.006579	-0.020907	0.135924	-0.760033	-0.118457	-0.624373	-162.251296	-78.899579	3.074971
11672		9.404387	-0.346255	-1.838524	-0.000033	-0.237941	-0.226972	0.407076	0.018778	0.064455	-0.741943	0.179199	0.517578	0.094043	-0.003395	-0.018401	0.137716	-0.759666	-0.119551	-0.624219	-161.830273	-78.909352	2.892595
11673		9.542007	-0.122201	-1.705595	0.229386	-0.410653	-0.130094	0.370493	0.022914	0.056029	-0.739502	0.186768	0.515381	0.095418	-0.001164	-0.017069	0.139301	-0.759384	-0.120482	-0.624031	-161.449114	-78.909727	2.719913
11674		9.619034	-0.002653	-1.526306	0.452607	-0.466646	-0.095033	0.297433	0.023047	0.063311	-0.742920	0.186279	0.512939	0.096189	0.000027	-0.015274	0.140617	-0.759152	-0.121209	-0.623878	-161.115345	-78.909462	2.555375
11675		9.645505	0.011955	-1.483779	0.504119	-0.475371	-0.078347	0.203730	0.020598	0.089197	-0.733643	0.189941	0.513184	0.096453	0.000178	-0.014848	0.141671	-0.759010	-0.121496	-0.623756	-160.740432	-78.901977	2.291690
11676		9.645911	-0.071532	-1.465494	0.493186	-0.402467	-0.076612	0.101011	0.025053	0.113498	-0.735352	0.196533	0.511475	0.096458	-0.000653	-0.014667	0.142444	-0.758930	-0.121423	-0.623692	-160.359989	-78.892851	1.969388
11677		9.636033	-0.304432	-1.625295	0.263407	-0.257249	-0.042743	0.010421	0.034270	0.131189	-0.739502	0.197266	0.506104	0.096360	-0.002980	-0.016270	0.142904	-0.758908	-0.120937	-0.623708	-159.967950	-78.883908	1.575377
11678		9.577700	-0.443492	-1.812851	0.031792	-0.212459	-0.057212	-0.050769	0.045087	0.136719	-0.733398	0.189209	0.515625	0.095776	-0.004374	-0.018149	0.143371	-0.758841	-0.120301	-0.623805	-159.508154	-78.882306	1.101639
11679		9.564099	-0.551201	-1.974485	-0.156710	-0.184251	-0.034350	-0.074822	0.054787	0.137454	-0.741455	0.185547	0.514893	0.095639	-0.005454	-0.019769	0.143540	-0.758818	-0.119511	-0.623946	-159.127217	-78.881995	0.669234
11680		9.584650	-0.627979	-1.926334	-0.136190	-0.104288	-0.017729	-0.084499	0.059402	0.131437	-0.739990	0.192627	0.513916	0.095845	-0.006225	-0.019289	0.143506	-0.758830	-0.118752	-0.624084	-158.852127	-78.881644	0.328481
11681		9.612618	-0.667010	-1.935815	-0.154152	-0.082883	0.014014	-0.075144	0.059217	0.121174	-0.737793	0.187744	0.520264	0.096124	-0.006619	-0.019384	0.143625	-0.758783	-0.118020	-0.624253	-158.511202	-78.886158	-0.063371
11682		9.625349	-0.763172	-1.942785	-0.192579	-0.004380	0.034499	-0.050150	0.065238	0.110130	-0.732666	0.194824	0.521484	0.096251	-0.007584	-0.019457	0.143688	-0.758755	-0.117438	-0.624382	-158.255128	-78.888745	-0.362562
11683		9.698121	-0.788268	-1.812386	-0.070139	0.054738	0.084369	-0.000393	0.068737	0.115688	-0.743164	0.190674	0.510742	0.096980	-0.007827	-0.018157	0.144078	-0.758621	-0.116953	-0.624546	-157.875538	-78.898657	-0.750186
11684		9.723139	-0.758371	-1.920081	-0.153913	-0.023239	0.125976	0.047827	0.078023	0.101494	-0.741455	0.196777	0.503906	0.097228	-0.007530	-0.019241	0.144538	-0.758483	-0.116693	-0.624656	-157.551320	-78.906629	-1.057931
11685		9.630458	-0.652061	-1.910891	-0.128323	-0.132046	0.025426	0.091018	0.078470	0.112291	-0.746094	0.198730	0.510254	0.096301	-0.006458	-0.019150	0.145269	-0.758250	-0.116500	-0.624805	-157.116402	-78.921448	-1.448556
11686		9.572109	-0.484237	-1.919406	-0.092210	-0.306176	-0.043265	0.108218	0.070607	0.113032	-0.743408	0.196533	0.502930	0.095717	-0.004778	-0.019230	0.146149	-0.757921	-0.116452	-0.625008	-156.653106	-78.947572	-1.843409
11687		9.548959	-0.465817	-1.813216	0.005021	-0.298184	-0.086516	0.098890	0.070036	0.107980	-0.746582	0.203125	0.511719	0.095486	-0.004598	-0.018168	0.146892	-0.757705	-0.116305	-0.625123	-156.232439	-78.957861	-2.214830
11688		9.645597	-0.523031	-1.780215	0.028140	-0.246845	0.006606	0.077306	0.077039	0.099277	-0.740723	0.203613	0.509033	0.096452	-0.005176	-0.017841	0.147576	-0.757388	-0.116202	-0.625365	-155.832087	-78.987518	-2.567589
11689		9.686131	-0.593519	-1.701519	0.078982	-0.165358	0.037945	0.065828	0.081324	0.097870	-0.740723	0.204346	0.503662	0.096857	-0.005882	-0.017057	0.148169	-0.757154	-0.115982	-0.625550	-155.441456	-79.005159	-2.927630
11690		9.728936	-0.646758	-1.693603	0.071191	-0.127078	0.082643	0.049295	0.083610	0.102362	-0.742188	0.207520	0.510986	0.097286	-0.006414	-0.016978	0.148826	-0.756894	-0.115757	-0.625750	-155.014148	-79.024231	-3.319490
11691		9.697983	-0.647683	-1.642113	0.108750	-0.120140	0.043308	0.036478	0.079913	0.116754	-0.745117	0.203857	0.507324	0.096977	-0.006417	-0.016461	0.149367	-0.756695	-0.115375	-0.625932	-154.588977	-79.035546	-3.731762
11692		9.647917	-0.583751	-1.634671	0.127200	-0.189964	-0.012537	0.015221	0.077315	0.124997	-0.743652	0.207764	0.504395	0.096476	-0.005776	-0.016384	0.149898	-0.756535	-0.114947	-0.626078	-154.158228	-79.039798	-4.154063
11693		9.626943	-0.547122	-1.599612	0.166129	-0.224219	-0.042414	-0.016592	0.077854	0.121451	-0.737549	0.212402	0.496826	0.096266	-0.005414	-0.016033	0.150251	-0.756385	-0.114382	-0.626278	-153.752226	-79.047704	-4.577742
11694		9.631507	-0.595523	-1.717962	0.037471	-0.238764	-0.014037	-0.055767	0.086207	0.123737	-0.745605	0.207520	0.498291	0.096311	-0.005900	-0.017219	0.150691	-0.756154	-0.113762	-0.626563	-153.266969	-79.064841	-5.078217
11695		9.559592	-0.662330	-1.818498	-0.095523	-0.225150	-0.062222	-0.079759	0.090988	0.118171	-0.735840	0.216797	0.503418	0.095592	-0.006574	-0.018226	0.150803	-0.756007	-0.113002	-0.626851	-152.886037	-79.079105	-5.513109
11696		9.622185	-0.764595	-1.880031	-0.181366	-0.168753	0.018090	-0.078591	0.099484	0.114583	-0.746338	0.213135	0.501709	0.096217	-0.007598	-0.018845	0.151148	-0.755771	-0.112328	-0.627174	-152.415736	-79.099090	-6.011038
11697		9.619097	-0.971940	-1.935737	-0.312439	-0.008309	0.042315	-0.063111	0.105352	0.103964	-0.744141	0.207520	0.500732	0.096186	-0.009676	-0.019405	0.151287	-0.755558	-0.111662	-0.627516	-152.039672	-79.123216	-6.431125
11698		9.640310	-1.169716	-1.836819	-0.296493	0.199200	0.064059	-0.029140	0.109423	0.094028	-0.750488	0.200684	0.503174	0.096399	-0.011655	-0.018419	0.151625	-0.755225	-0.111218	-0.627914	-151.631511	-79.160876	-6.848817
11699		9.673605	-1.313113	-1.865609	-0.374980	0.309531	0.114395	0.018307	0.119266	0.080833	-0.755127	0.215820	0.498291	0.096730	-0.013090	-0.018715	0.152007	-0.754892	-0.110885	-0.628280	-151.245164	-79.197292	-7.231745
11700		9.622697	-1.371400	-1.934862	-0.481519	0.328789	0.080782	0.087907	0.123375	0.065423	-0.741699	0.208740	0.501221	0.096219	-0.013674	-0.019414	0.152549	-0.754352	-0.110921	-0.628791	-150.872987	-79.265752	-7.557236
11701		9.544562	-1.276832	-1.992502	-0.523828	0.208799	0.004696	0.163952	0.121024	0.064283	-0.749023	0.210693	0.492188	0.095438	-0.012721	-0.019993	0.153430	-0.753892	-0.111107	-0.629096	-150.437805	-79.306830	-7.904803
11702		9.519985	-1.075610	-1.828926	-0.317432	0.070986	-0.064550	0.204478	0.123027	0.052670	-0.746094	0.213379	0.495605	0.095191	-0.010712	-0.018359	0.154399	-0.753331	-0.111529	-0.629456	-150.024685	-79.363319	-8.203675
11703		9.596271	-0.956261	-1.721696	-0.172627	-0.014401	-0.017941	0.215567	0.135738	0.039787	-0.743408	0.225098	0.491699	0.095953	-0.009525	-0.017292	0.155404	-0.752768	-0.111958	-0.629805	-149.595418	-79.417843	-8.515014
11704		9.653956	-0.895781	-1.695863	-0.128247	-0.077524	0.028794	0.214919	0.143333	0.028244	-0.758789	0.220703	0.494141	0.096529	-0.008926	-0.017037	0.156650	-0.752120	-0.112502	-0.630175	-149.079833	-79.476636	-8.883373
11705		9.629302	-0.804892	-1.767279	-0.176923	-0.199814	0.006851	0.221900	0.150714	0.030616	-0.751953	0.226318	0.492188	0.096281	-0.008015	-0.017754	0.157659	-0.751497	-0.112973	-0.630582	-148.638376	-79.540259	-9.203216
11706		9.593234	-0.754009	-1.865440	-0.268449	-0.298884	-0.018959	0.215973	0.146826	0.034778	-0.751465	0.212158	0.482910	0.095920	-0.007503	-0.018733	0.158939	-0.750761	-0.113525	-0.631037	-148.072622	-79.610220	-9.618344
11707		9.568499	-0.607879	-1.841331	-0.208205	-0.436570	-0.061676	0.220960	0.146406	0.038775	-0.753174	0.225586	0.491699	0.095673	-0.006040	-0.018490	0.159968	-0.750154	-0.113965	-0.631420	-147.606429	-79.668269	-9.963660
11708		9.591265	-0.360942	-1.808932	-0.096977	-0.664916	-0.068800	0.184753	0.151975	0.045568	-0.764404	0.227051	0.486816	0.095900	-0.003571	-0.018166	0.160876	-0.749455	-0.114343	-0.631951	-147.128107	-79.745681	-10.336747
11709		9.700942	-0.249725	-1.701806	0.049880	-0.742429	0.011419	0.148458	0.160169	0.051870	-0.754639	0.229004	0.487061	0.096996	-0.002459	-0.017098	0.161683	-0.748867	-0.114494	-0.632414	-146.634647	-79.805278	-10.751819
11710		9.801342	-0.231276	-1.631694	0.123193	-0.751519	0.097016	0.098688	0.172748	0.063912	-0.751465	0.229492	0.483643	0.098000	-0.002273	-0.016403	0.162597	-0.748141	-0.114560	-0.633027	-146.002386	-79.879746	-11.304061
11711		9.778673	-0.387666	-1.606711	0.069739	-0.611195	0.085585	0.061557	0.184541	0.077454	-0.747803	0.219971	0.485352	0.097773	-0.003834	-0.016159	0.163174	-0.747559	-0.114321	-0.633610	-145.433571	-79.941179	-11.845992
11712		9.762129	-0.523133	-1.525531	0.077426	-0.469006	0.070332	0.047122	0.189882	0.090701	-0.751465	0.222900	0.474609	0.097609	-0.005183	-0.015349	0.163766	-0.747021	-0.114035	-0.634142	-144.850575	-79.992475	-12.404458
11713		9.687484	-0.734590	-1.622941	-0.117759	-0.325695	0.031139	0.041915	0.197740	0.096022	-0.755859	0.227295	0.483398	0.096862	-0.007296	-0.016327	0.164336	-0.746422	-0.113653	-0.634768	-144.205613	-80.051885	-13.034932
11714		9.555930	-0.953919	-1.592146	-0.210513	-0.122016	-0.081220	0.053274	0.197917	0.090974	-0.756836	0.230469	0.470459	0.095548	-0.009491	-0.016019	0.164903	-0.745766	-0.113396	-0.635438	-143.582115	-80.121808	-13.633834
11715		9.560929	-1.014431	-1.541138	-0.201363	-0.062817	-0.077648	0.059531	0.215741	0.084045	-0.760010	0.235840	0.471191	0.095597	-0.010100	-0.015518	0.165510	-0.745086	-0.113100	-0.636130	-142.906989	-80.191175	-14.284415
11716		9.554077	-1.117996	-1.599075	-0.315964	-0.010395	-0.066542	0.073338	0.230526	0.074854	-0.760010	0.229248	0.474609	0.095526	-0.011138	-0.016105	0.166475	-0.744127	-0.113007	-0.637017	-142.032409	-80.288211	-15.088389
11717		9.516031	-1.080557	-1.535632	-0.268528	-0.034504	-0.116953	0.092326	0.237411	0.067193	-0.765381	0.234619	0.469238	0.095146	-0.010766	-0.015474	0.167163	-0.743338	-0.112859	-0.637784	-141.314283	-80.370315	-15.763086
11718		9.584094	-0.928453	-1.463616	-0.156009	-0.166043	-0.075794	0.104535	0.239169	0.067881	-0.758057	0.228760	0.464600	0.095826	-0.009244	-0.014756	0.167996	-0.742408	-0.112857	-0.638648	-140.518491	-80.468112	-16.491566
11719		9.596232	-0.845835	-1.444212	-0.123956	-0.251490	-0.075635	0.099609	0.244115	0.070971	-0.761230	0.230225	0.463379	0.095948	-0.008417	-0.014563	0.168727	-0.741590	-0.112712	-0.639430	-139.745408	-80.548773	-17.217357
11720		9.581797	-0.600458	-1.249695	0.121509	-0.414985	-0.140764	0.090412	0.251084	0.075466	-0.761963	0.240723	0.463135	0.095804	-0.005963	-0.012620	0.169372	-0.740638	-0.112592	-0.640384	-138.934794	-80.653867	-17.986173
11721		9.617238	-0.480985	-0.977588	0.401112	-0.436060	-0.152087	0.063862	0.254110	0.082157	-0.769775	0.236084	0.464844	0.096162	-0.004767	-0.009900	0.170011	-0.739821	-0.112283	-0.641212	-138.101590	-80.731279	-18.793249
11722		9.626298	-0.518566	-0.866558	0.468249	-0.377482	-0.152271	0.032975	0.254292	0.086935	-0.769287	0.241943	0.455078	0.096254	-0.005142	-0.008789	0.170783	-0.738926	-0.111983	-0.642091	-137.161251	-80.810480	-19.695792
11723		9.689977	-0.618693	-0.822906	0.460728	-0.289517	-0.083377	0.025707	0.237166	0.098574	-0.768311	0.239014	0.458008	0.096893	-0.006138	-0.008345	0.171325	-0.738202	-0.111505	-0.642862	-136.320570	-80.870316	-20.532178
11724		9.695476	-0.735568	-0.822759	0.395869	-0.203501	-0.064760	0.027493	0.222813	0.105011	-0.770020	0.240479	0.454590	0.096949	-0.007304	-0.008337	0.172168	-0.737323	-0.111170	-0.643704	-135.319155	-80.936621	-21.492487
11725		9.665493	-0.967233	-0.818430	0.291183	-0.005710	-0.068855	0.032264	0.202875	0.110068	-0.768799	0.247559	0.454590	0.096652	-0.009618	-0.008284	0.172752	-0.736707	-0.110699	-0.644333	-134.509862	-80.973719	-22.292927
11726		9.602682	-1.191073	-0.859269	0.142787	0.165985	-0.100812	0.048610	0.183035	0.103488	-0.769531	0.251221	0.451416	0.096025	-0.011859	-0.008683	0.173718	-0.735984	-0.110473	-0.644938	-133.585403	-81.008233	-23.156649
11727		9.646836	-1.349320	-0.818251	0.113067	0.308309	-0.043155	0.064558	0.171003	0.095176	-0.770508	0.243408	0.450195	0.096468	-0.013445	-0.008269	0.174356	-0.735432	-0.110189	-0.645444	-132.865462	-81.035337	-23.847647
11728		9.660477	-1.503619	-0.905262	-0.038895	0.393983	-0.002060	0.082964	0.168665	0.079334	-0.771973	0.252686	0.457275	0.096603	-0.014994	-0.009140	0.175435	-0.734701	-0.110180	-0.645986	-131.975629	-81.067288	-24.649113
11729		9.659818	-1.460696	-0.919250	-0.047550	0.335027	-0.005741	0.103561	0.159122	0.070410	-0.769043	0.251709	0.449219	0.096596	-0.014568	-0.009277	0.176132	-0.734137	-0.110123	-0.646446	-131.315706	-81.097492	-25.256506
11730		9.597967	-1.374373	-0.881832	0.001672	0.256886	-0.080191	0.096366	0.146888	0.064464	-0.776611	0.245117	0.443115	0.095978	-0.013709	-0.008895	0.177306	-0.733589	-0.110241	-0.646728	-130.561176	-81.099109	-25.903763
11731		9.550621	-1.254902	-0.946716	-0.027831	0.113294	-0.134269	0.062851	0.132913	0.055118	-0.769043	0.252686	0.443604	0.095503	-0.012520	-0.009535	0.177790	-0.733137	-0.110131	-0.647126	-130.027017	-81.123957	-26.407304
11732		9.596203	-1.053274	-0.902745	0.083682	-0.069445	-0.117348	-0.004703	0.127820	0.054028	-0.769531	0.257813	0.444336	0.095959	-0.010507	-0.009089	0.178294	-0.732557	-0.109933	-0.647677	-129.357597	-81.160323	-27.051842
11733		9.691785	-0.981812	-0.863938	0.150540	-0.134822	-0.035153	-0.081192	0.139523	0.049958	-0.775879	0.254639	0.447021	0.096914	-0.009797	-0.008703	0.178238	-0.732207	-0.109369	-0.648184	-128.891408	-81.188317	-27.569942
11734		9.791436	-1.097338	-0.996769	-0.011584	-0.105422	0.089770	-0.147441	0.152667	0.051350	-0.777100	0.245117	0.449219	0.097910	-0.010956	-0.010034	0.178576	-0.731774	-0.108760	-0.648682	-128.204079	-81.197394	-28.279946
11735		9.761768	-1.224158	-1.146738	-0.212692	-0.056003	0.089701	-0.171388	0.158061	0.047588	-0.776855	0.240967	0.439941	0.097611	-0.012228	-0.011534	0.178194	-0.731442	-0.107895	-0.649306	-127.733940	-81.231298	-28.854131
11736		9.723222	-1.262860	-1.288135	-0.376462	-0.078826	0.068972	-0.184122	0.158987	0.045524	-0.785400	0.253418	0.445313	0.097225	-0.012618	-0.012947	0.177587	-0.731036	-0.107074	-0.650065	-127.303225	-81.291643	-29.404307
11737		9.610900	-1.295048	-1.362183	-0.482578	-0.077147	-0.031928	-0.171247	0.155120	0.038111	-0.778564	0.244141	0.446777	0.096101	-0.012944	-0.013685	0.177172	-0.730705	-0.106247	-0.650686	-126.853513	-81.327597	-29.957623
11738		9.665956	-1.225451	-1.252474	-0.361019	-0.108414	0.003576	-0.152605	0.150152	0.030073	-0.777588	0.256104	0.446777	0.096652	-0.012250	-0.012588	0.176990	-0.730284	-0.105686	-0.651299	-126.362431	-81.369667	-30.511040
11739		9.756011	-1.269942	-1.120696	-0.258288	-0.027579	0.085847	-0.143935	0.160730	0.008892	-0.779541	0.253174	0.442139	0.097552	-0.012703	-0.011276	0.176583	-0.729893	-0.105049	-0.651950	-125.935558	-81.419696	-31.025263
11740		9.802057	-1.342680	-1.016464	-0.195971	0.065698	0.130832	-0.110092	0.161931	0.002859	-0.783936	0.249023	0.444824	0.098012	-0.013431	-0.010237	0.176894	-0.729431	-0.104749	-0.652431	-125.344667	-81.442082	-31.615536
11741		9.672565	-1.402752	-0.947947	-0.186371	0.153188	0.003963	-0.076534	0.158588	-0.003762	-0.782471	0.249268	0.442139	0.096718	-0.014033	-0.009551	0.176692	-0.728981	-0.104379	-0.653048	-124.902633	-81.495837	-32.105811
11742		9.597521	-1.394397	-0.824672	-0.092666	0.193754	-0.081773	-0.064984	0.148904	-0.007800	-0.779785	0.250977	0.429688	0.095968	-0.013950	-0.008314	0.176820	-0.728509	-0.104259	-0.653559	-124.431932	-81.539409	-32.576460
11743		9.571748	-1.439329	-0.909323	-0.203522	0.200332	-0.094904	-0.071937	0.146508	-0.021313	-0.782715	0.250977	0.436523	0.095709	-0.014407	-0.009158	0.176572	-0.728083	-0.103978	-0.654145	-124.052420	-81.596427	-33.000680
11744		9.601879	-1.262838	-0.761974	-0.013669	0.086379	-0.098585	-0.088454	0.144332	-0.034853	-0.785889	0.245605	0.436279	0.096011	-0.012649	-0.007683	0.176705	-0.727472	-0.103831	-0.654812	-123.443628	-81.654186	-33.611530
11745		9.712758	-1.198978	-0.746486	0.024505	0.023949	0.002161	-0.121689	0.154523	-0.038219	-0.783691	0.247070	0.438232	0.097119	-0.012013	-0.007533	0.176225	-0.727054	-0.103442	-0.655467	-123.088834	-81.720742	-34.039315
11746		9.748063	-1.178513	-0.900944	-0.120472	-0.061082	0.046677	-0.147581	0.169065	-0.033987	-0.790283	0.245117	0.429443	0.097471	-0.011808	-0.009083	0.175923	-0.726548	-0.103101	-0.656162	-122.616778	-81.786542	-34.565691
11747		9.689585	-0.928047	-0.998006	-0.136935	-0.325869	-0.034120	-0.150600	0.179166	-0.025279	-0.791260	0.243652	0.431641	0.096886	-0.009300	-0.010060	0.175394	-0.726079	-0.102547	-0.656909	-122.153582	-81.853433	-35.119530
11748		9.675937	-0.879661	-1.083124	-0.220626	-0.407217	-0.047638	-0.185675	0.190979	-0.023207	-0.789795	0.247314	0.429932	0.096748	-0.008818	-0.010915	0.174961	-0.725365	-0.102002	-0.657898	-121.437719	-81.941415	-35.917760
11749		9.649953	-0.868547	-1.152206	-0.300683	-0.444961	-0.070248	-0.202527	0.205611	-0.016628	-0.787109	0.251465	0.427490	0.096487	-0.008705	-0.011612	0.174286	-0.724855	-0.101222	-0.658759	-120.872269	-82.010272	-36.604626
11750		9.723673	-0.813783	-1.145309	-0.286056	-0.509361	-0.005420	-0.211560	0.222131	-0.022783	-0.787842	0.243164	0.425537	0.097223	-0.008161	-0.011552	0.174197	-0.724113	-0.100612	-0.659691	-119.969297	-82.069070	-37.566341
11751		9.794651	-0.802186	-1.290465	-0.428604	-0.585506	0.072525	-0.186979	0.235254	-0.020913	-0.795654	0.237061	0.422852	0.097930	-0.008044	-0.013012	0.173580	-0.723487	-0.099872	-0.660653	-119.271431	-82.145806	-38.377524
11752		9.739574	-0.811319	-1.271466	-0.447424	-0.571926	0.016190	-0.148994	0.244138	-0.014329	-0.792725	0.248535	0.430176	0.097380	-0.008130	-0.012827	0.173283	-0.722594	-0.099328	-0.661789	-118.286533	-82.236251	-39.433290
11753		9.681832	-0.820258	-1.209475	-0.422207	-0.541184	-0.045275	-0.112407	0.252080	-0.008305	-0.801514	0.242188	0.422363	0.096803	-0.008213	-0.012212	0.172986	-0.721850	-0.098775	-0.662761	-117.422969	-82.307699	-40.368188
11754		9.664279	-0.947652	-1.211412	-0.496900	-0.435376	-0.049115	-0.085173	0.255463	-0.012595	-0.800293	0.238770	0.429688	0.096627	-0.009488	-0.012234	0.173323	-0.720926	-0.098573	-0.663707	-116.323208	-82.366635	-41.457557
11755		9.762424	-0.952987	-1.038753	-0.353788	-0.380345	0.037299	-0.055632	0.266342	-0.021220	-0.792725	0.242676	0.422607	0.097609	-0.009543	-0.010515	0.173196	-0.720076	-0.098240	-0.664712	-115.360581	-82.443799	-42.459170
11756		9.948501	-1.027784	-0.883734	-0.244549	-0.277868	0.220902	-0.024578	0.285322	-0.029138	-0.795410	0.244141	0.426270	0.099471	-0.010293	-0.008978	0.173482	-0.719140	-0.098256	-0.665648	-114.313896	-82.515258	-43.481875
11757		9.852729	-1.128901	-0.717647	-0.165886	-0.121219	0.128309	0.022020	0.297699	-0.029064	-0.796143	0.246582	0.418945	0.098515	-0.011303	-0.007324	0.173624	-0.718112	-0.098182	-0.666731	-113.153125	-82.598802	-44.638047
11758		9.658600	-1.230551	-0.473663	-0.020230	0.069628	-0.064773	0.058616	0.298586	-0.029864	-0.795654	0.237061	0.411133	0.096577	-0.012319	-0.004884	0.174500	-0.717104	-0.098497	-0.667540	-111.956336	-82.642666	-45.736870
11759		9.544245	-1.159362	-0.328476	0.102147	0.061605	-0.193419	0.065248	0.291683	-0.034588	-0.806641	0.246094	0.410156	0.095436	-0.011609	-0.003428	0.174777	-0.716053	-0.098591	-0.668581	-110.758938	-82.721488	-46.904572
11760		9.434159	-0.890964	-0.162742	0.318025	-0.121921	-0.341278	0.049931	0.270823	-0.032795	-0.806152	0.239502	0.402588	0.094338	-0.008925	-0.001757	0.175297	-0.714963	-0.098782	-0.669583	-109.474738	-82.786915	-48.130770
11761		9.573314	-0.690761	0.009798	0.539670	-0.260090	-0.233197	0.005089	0.258313	-0.026706	-0.805664	0.239014	0.409424	0.095732	-0.006920	-0.000026	0.175368	-0.714077	-0.098675	-0.670525	-108.395452	-82.848885	-49.213738
11762		9.760039	-0.663309	0.064129	0.588771	-0.290428	-0.051980	-0.033457	0.253797	-0.019852	-0.806152	0.243164	0.407959	0.097600	-0.006643	0.000519	0.175474	-0.713108	-0.098545	-0.671547	-107.186322	-82.910528	-50.425582
11763		9.725613	-0.662749	-0.113391	0.400119	-0.364156	-0.078885	-0.062722	0.241371	0.005819	-0.811279	0.236328	0.404541	0.097255	-0.006625	-0.001249	0.175405	-0.712351	-0.098109	-0.672431	-106.141170	-82.946468	-51.512995
11764		9.631893	-0.791333	-0.096341	0.340435	-0.240348	-0.156852	-0.074560	0.221219	0.022539	-0.812744	0.244385	0.408691	0.096319	-0.007903	-0.001067	0.175551	-0.711634	-0.097787	-0.673199	-105.135914	-82.966860	-52.533052
11765		9.557542	-0.957915	-0.206295	0.153224	-0.131380	-0.207168	-0.065996	0.202857	0.020190	-0.807129	0.245605	0.404053	0.095574	-0.009570	-0.002157	0.175500	-0.711015	-0.097322	-0.673934	-104.231964	-82.984588	-53.479937
11766		9.656116	-0.990081	-0.177280	0.161299	-0.111314	-0.106307	-0.026592	0.194406	0.009336	-0.809082	0.242188	0.402100	0.096560	-0.009897	-0.001865	0.175912	-0.710422	-0.097190	-0.674470	-103.390085	-82.983167	-54.298629
11767		9.712778	-1.049959	-0.180221	0.123502	-0.070483	-0.042697	0.014619	0.181658	0.000586	-0.814941	0.241455	0.392334	0.097126	-0.010499	-0.001891	0.176071	-0.709792	-0.097085	-0.675106	-102.550397	-83.005562	-55.134128
11768		9.740471	-1.090613	-0.031570	0.230151	0.012279	-0.014010	0.052701	0.164232	0.005239	-0.816162	0.240967	0.391357	0.097405	-0.010903	-0.000399	0.176492	-0.709111	-0.097141	-0.675704	-101.653212	-83.019389	-55.992013
11769		9.649795	-1.073498	0.031368	0.274036	0.022778	-0.107210	0.084788	0.150511	0.009669	-0.808350	0.247803	0.394531	0.096499	-0.010730	0.000237	0.176916	-0.708527	-0.097267	-0.676187	-100.898835	-83.030154	-56.700956
11770		9.646746	-1.021029	0.058351	0.303807	-0.023733	-0.116671	0.098532	0.134354	0.004523	-0.811035	0.239258	0.386230	0.096468	-0.010208	0.000514	0.177546	-0.707897	-0.097489	-0.676649	-100.086402	-83.032191	-57.442901
11771		9.639344	-0.945791	0.181866	0.433625	-0.049870	-0.135187	0.092492	0.119277	-0.003277	-0.821533	0.247314	0.393555	0.096394	-0.009460	0.001757	0.177939	-0.707405	-0.097715	-0.677028	-99.478312	-83.044942	-57.999934
11772		9.734403	-0.902329	0.273452	0.526926	-0.069834	-0.047184	0.076740	0.111093	-0.000032	-0.814697	0.244629	0.396973	0.097346	-0.009024	0.002677	0.178337	-0.706849	-0.097898	-0.677478	-98.774773	-83.057039	-58.655533
11773		9.668601	-0.882188	0.276011	0.523466	-0.085038	-0.114490	0.056461	0.087921	0.012246	-0.810547	0.239502	0.393066	0.096688	-0.008817	0.002715	0.178639	-0.706502	-0.097976	-0.677749	-98.318130	-83.056869	-59.080731
11774		9.616379	-0.846145	0.205620	0.464980	-0.142471	-0.169219	0.029719	0.057504	0.014865	-0.813965	0.241943	0.394531	0.096165	-0.008455	0.002027	0.178832	-0.706375	-0.098039	-0.677822	-98.152570	-83.052394	-59.225012
11775		9.590953	-0.891933	0.151983	0.393003	-0.121762	-0.187941	0.012416	0.029506	0.017208	-0.823486	0.244385	0.393066	0.095911	-0.008911	0.001505	0.178968	-0.706267	-0.098002	-0.677904	-97.990608	-83.044274	-59.378775
11776		9.708086	-0.951036	0.239746	0.457736	-0.046712	-0.066038	0.011481	0.011696	0.010457	-0.824463	0.249756	0.398438	0.097081	-0.009505	0.002391	0.179051	-0.706244	-0.098075	-0.677895	-97.972582	-83.043881	-59.383821
11777		9.756510	-1.092754	0.378348	0.534100	0.130195	-0.003277	0.028459	0.001568	0.011936	-0.819336	0.248535	0.389160	0.097566	-0.010922	0.003781	0.179211	-0.706214	-0.098135	-0.677875	-97.935133	-83.036510	-59.402884
11778		9.665295	-1.253011	0.416206	0.503220	0.299469	-0.075219	0.058293	-0.016586	0.008947	-0.817627	0.245850	0.390381	0.096653	-0.012527	0.004166	0.179624	-0.706211	-0.098409	-0.677729	-97.966388	-83.022041	-59.314617
11779		9.568588	-1.128579	0.484893	0.609549	0.222555	-0.187428	0.085001	-0.033631	-0.000588	-0.811035	0.245361	0.395752	0.095685	-0.011288	0.004860	0.179925	-0.706243	-0.098737	-0.677568	-98.067739	-83.018934	-59.161169
11780		9.564655	-0.969511	0.475081	0.665719	0.076550	-0.210645	0.083682	-0.062782	-0.012280	-0.815186	0.246582	0.394531	0.095644	-0.009703	0.004777	0.180149	-0.706430	-0.099146	-0.677254	-98.396628	-83.019362	-58.779882
11781		9.647172	-0.826783	0.458121	0.715489	-0.065585	-0.145985	0.064158	-0.086175	-0.009449	-0.822998	0.247803	0.388672	0.096469	-0.008274	0.004620	0.180320	-0.706654	-0.099482	-0.676925	-98.759077	-83.016591	-58.375408
11782		9.723662	-0.776793	0.398751	0.692132	-0.137811	-0.075441	0.027225	-0.106297	-0.005393	-0.823242	0.253662	0.392822	0.097234	-0.007771	0.004038	0.180348	-0.706964	-0.099713	-0.676561	-99.215311	-83.013003	-57.897661
11783		9.673260	-0.886757	0.215722	0.488543	-0.098846	-0.109267	0.002395	-0.134197	0.003706	-0.819824	0.251709	0.393311	0.096731	-0.008866	0.002222	0.180321	-0.707412	-0.099837	-0.676081	-99.822844	-82.997446	-57.281889
11784		9.647874	-0.952831	0.088185	0.356337	-0.081987	-0.124374	-0.013746	-0.151465	0.005884	-0.809570	0.249023	0.391846	0.096478	-0.009525	0.000956	0.180344	-0.707892	-0.099938	-0.675557	-100.454079	-82.973272	-56.640095
11785		9.553571	-1.122223	-0.044296	0.177131	0.036872	-0.195032	-0.023554	-0.169701	-0.006407	-0.817871	0.247070	0.392578	0.095536	-0.011225	-0.000361	0.180174	-0.708478	-0.100042	-0.674973	-101.240366	-82.957821	-55.859100
11786		9.638176	-1.210587	-0.092316	0.119520	0.098209	-0.099576	-0.012238	-0.188069	-0.015467	-0.815430	0.247314	0.399658	0.096382	-0.012113	-0.000832	0.179952	-0.709092	-0.100206	-0.674363	-102.084793	-82.947717	-55.019351
11787		9.757728	-1.214443	-0.056091	0.175896	0.112709	0.018264	0.004730	-0.190587	-0.025891	-0.810791	0.243408	0.399902	0.097576	-0.012157	-0.000468	0.179806	-0.709711	-0.100493	-0.673707	-102.962110	-82.937782	-54.130245
11788		9.696971	-1.171879	-0.068141	0.193548	0.086397	-0.047226	0.011766	-0.197887	-0.025750	-0.813721	0.250000	0.397217	0.096969	-0.011731	-0.000586	0.179551	-0.710391	-0.100802	-0.673012	-103.935785	-82.932252	-53.151949
11789		9.642649	-1.036810	-0.041168	0.283255	-0.011304	-0.118516	-0.000790	-0.208970	-0.031309	-0.811768	0.248291	0.400879	0.096425	-0.010383	-0.000311	0.179358	-0.711073	-0.101106	-0.672297	-104.899580	-82.919112	-52.178863
11790		9.613974	-1.024923	-0.107461	0.241988	-0.034346	-0.146729	-0.028184	-0.219455	-0.034791	-0.813965	0.254150	0.405762	0.096139	-0.010266	-0.000968	0.179018	-0.711800	-0.101322	-0.671586	-105.909431	-82.906554	-51.179098
11791		9.641310	-1.072277	-0.196377	0.163364	-0.016592	-0.111337	-0.055077	-0.237783	-0.036288	-0.821777	0.245850	0.410156	0.096413	-0.010741	-0.001846	0.178600	-0.712623	-0.101487	-0.670798	-107.029377	-82.887188	-50.079919
11792		9.680646	-0.986552	-0.177186	0.237613	-0.078177	-0.083507	-0.077111	-0.241889	-0.037815	-0.814209	0.243164	0.412842	0.096807	-0.009884	-0.001651	0.178059	-0.713488	-0.101594	-0.670006	-108.197545	-82.867837	-48.947444
11793		9.649354	-1.046791	-0.272920	0.144974	-0.044651	-0.104071	-0.090789	-0.247502	-0.035283	-0.815186	0.244873	0.414795	0.096495	-0.010486	-0.002605	0.177511	-0.714374	-0.101644	-0.669199	-109.364835	-82.840668	-47.821060
11794		9.648497	-1.011941	-0.383772	0.077769	-0.104318	-0.104556	-0.098019	-0.247277	-0.042846	-0.809814	0.246582	0.425781	0.096487	-0.010142	-0.003713	0.176760	-0.715301	-0.101694	-0.668400	-110.618388	-82.823204	-46.625315
11795		9.632841	-0.939884	-0.412530	0.098937	-0.166172	-0.127248	-0.110366	-0.256425	-0.047327	-0.798828	0.242188	0.416748	0.096331	-0.009424	-0.003997	0.176096	-0.716225	-0.101729	-0.667580	-111.837346	-82.794680	-45.458057
11796		9.563163	-0.913119	-0.402455	0.136653	-0.164391	-0.199983	-0.115761	-0.268020	-0.048477	-0.801758	0.243896	0.419922	0.095635	-0.009157	-0.003891	0.175284	-0.717293	-0.101722	-0.666647	-113.228197	-82.758513	-44.134580
11797		9.690861	-0.947216	-0.376106	0.182481	-0.119008	-0.070823	-0.108700	-0.272985	-0.051924	-0.802734	0.244873	0.420166	0.096911	-0.009499	-0.003624	0.174601	-0.718266	-0.101793	-0.665767	-114.500447	-82.721851	-42.912471
11798		9.658617	-1.183039	-0.484133	0.015122	0.074837	-0.070154	-0.098681	-0.283607	-0.049585	-0.810303	0.235596	0.427002	0.096590	-0.011857	-0.004699	0.173885	-0.719300	-0.101866	-0.664827	-115.835972	-82.678161	-41.629657
11799		9.626870	-1.146769	-0.459474	0.073010	0.069601	-0.107401	-0.067468	-0.293849	-0.055759	-0.799561	0.236816	0.427979	0.096272	-0.011496	-0.004449	0.173327	-0.720302	-0.102106	-0.663851	-117.146701	-82.631088	-40.344692
11800		9.592694	-1.005024	-0.452098	0.154276	-0.036022	-0.158202	-0.057027	-0.294901	-0.063668	-0.807373	0.242432	0.427734	0.095930	-0.010082	-0.004377	0.172586	-0.721327	-0.102394	-0.662885	-118.544546	-82.593956	-38.983890
11801		9.594176	-0.925847	-0.455266	0.206102	-0.092875	-0.165849	-0.066428	-0.309621	-0.069555	-0.803223	0.243652	0.428955	0.095945	-0.009293	-0.004401	0.171977	-0.722369	-0.102700	-0.661861	-119.911230	-82.541605	-37.641659
11802		9.691820	-0.845298	-0.538021	0.195046	-0.188358	-0.072986	-0.078742	-0.307172	-0.066436	-0.801514	0.238037	0.438965	0.096923	-0.008487	-0.005228	0.171287	-0.723401	-0.102937	-0.660875	-121.246843	-82.488482	-36.342788
11803		9.669954	-0.812548	-0.683170	0.096913	-0.255170	-0.088471	-0.084551	-0.304263	-0.058052	-0.802246	0.240234	0.439453	0.096707	-0.008156	-0.006681	0.170652	-0.724443	-0.103136	-0.659865	-122.538160	-82.424151	-35.086698
11804		9.629785	-0.837145	-0.827780	-0.023635	-0.266448	-0.114896	-0.082773	-0.308830	-0.059224	-0.797119	0.239502	0.438965	0.096308	-0.008403	-0.008126	0.169902	-0.725537	-0.103320	-0.658828	-123.890052	-82.357240	-33.780840
11805		9.590990	-0.862193	-1.014940	-0.183669	-0.294496	-0.135910	-0.075940	-0.315986	-0.066785	-0.794434	0.228027	0.437256	0.095923	-0.008658	-0.009995	0.169263	-0.726603	-0.103588	-0.657775	-125.193170	-82.285670	-32.507474
11806		9.558605	-0.794762	-1.162213	-0.271805	-0.390511	-0.162670	-0.057562	-0.330196	-0.071787	-0.788818	0.232910	0.446289	0.095602	-0.007985	-0.011462	0.168542	-0.727700	-0.103939	-0.656691	-126.570259	-82.215339	-31.160081
11807		9.671714	-0.664328	-0.979977	-0.015268	-0.430276	-0.078301	-0.045099	-0.328741	-0.073445	-0.790283	0.229248	0.449463	0.096731	-0.006681	-0.009639	0.167985	-0.728774	-0.104344	-0.655578	-127.865350	-82.134541	-29.876539
11808		9.803024	-0.823023	-1.087144	-0.129834	-0.313026	0.078905	-0.041842	-0.320378	-0.070581	-0.790283	0.234619	0.447998	0.098045	-0.008267	-0.010713	0.167295	-0.729873	-0.104710	-0.654472	-129.190019	-82.053664	-28.577537
11809		9.709436	-0.922925	-1.021018	-0.090954	-0.171357	-0.008112	-0.021979	-0.316813	-0.068260	-0.785400	0.225830	0.455322	0.097107	-0.009264	-0.010055	0.166844	-0.730887	-0.105161	-0.653383	-130.367649	-81.967231	-27.398730
11810		9.659300	-1.015986	-1.065428	-0.146455	-0.079333	-0.043265	-0.007689	-0.314578	-0.078857	-0.786377	0.231201	0.449951	0.096606	-0.010198	-0.010502	0.166275	-0.731912	-0.105672	-0.652297	-131.606865	-81.885792	-26.163128
11811		9.562791	-0.959132	-1.085861	-0.131017	-0.115137	-0.142347	0.006261	-0.316991	-0.083185	-0.791260	0.225342	0.461670	0.095641	-0.009631	-0.010707	0.165878	-0.732891	-0.106269	-0.651200	-132.758397	-81.798838	-24.993858
11812		9.660464	-0.856168	-1.114974	-0.082220	-0.206557	-0.053013	0.007333	-0.311096	-0.086747	-0.778809	0.229004	0.464600	0.096618	-0.008603	-0.011000	0.165335	-0.733863	-0.106868	-0.650145	-133.943837	-81.718669	-23.802638
11813		9.647066	-0.886725	-1.172465	-0.123489	-0.180871	-0.056725	-0.004112	-0.307077	-0.084612	-0.790527	0.224609	0.459961	0.096485	-0.008908	-0.011576	0.164899	-0.734815	-0.107427	-0.649088	-135.029180	-81.629696	-22.705778
11814		9.651471	-0.860942	-1.272413	-0.180732	-0.222654	-0.043919	-0.006215	-0.297961	-0.083543	-0.781250	0.230713	0.465576	0.096530	-0.008650	-0.012580	0.164313	-0.735774	-0.107946	-0.648063	-136.143223	-81.544144	-21.596048
11815		9.581126	-0.907636	-1.414243	-0.314046	-0.211957	-0.092696	-0.002827	-0.299368	-0.080196	-0.779785	0.234375	0.463135	0.095829	-0.009115	-0.013999	0.163900	-0.736698	-0.108487	-0.647027	-137.149354	-81.450732	-20.578045
11816		9.539748	-0.910240	-1.500025	-0.374942	-0.221879	-0.122717	0.013478	-0.306612	-0.087996	-0.779053	0.225342	0.457275	0.095416	-0.009143	-0.014855	0.163489	-0.737649	-0.109092	-0.645945	-138.179293	-81.352272	-19.530568
11817		9.609740	-0.828471	-1.444950	-0.260051	-0.261225	-0.066642	0.035546	-0.305117	-0.096858	-0.782715	0.227051	0.473877	0.096115	-0.008329	-0.014304	0.163159	-0.738547	-0.109822	-0.644877	-139.179594	-81.257398	-18.495689
11818		9.689164	-0.781839	-1.473617	-0.234780	-0.299167	0.011671	0.062048	-0.300879	-0.096677	-0.775879	0.224854	0.477539	0.096910	-0.007861	-0.014593	0.162851	-0.739390	-0.110650	-0.643846	-140.165203	-81.169358	-17.465638
11819		9.704548	-0.643019	-1.434319	-0.121112	-0.394882	0.009651	0.088927	-0.297029	-0.092051	-0.776611	0.224609	0.468018	0.097064	-0.006469	-0.014202	0.162738	-0.740218	-0.111527	-0.642772	-141.059855	-81.071120	-16.506212
11820		9.604115	-0.534067	-1.436942	-0.074586	-0.472951	-0.098793	0.097881	-0.291904	-0.093726	-0.780518	0.223633	0.476807	0.096059	-0.005379	-0.014232	0.162545	-0.741039	-0.112430	-0.641716	-141.978677	-80.976247	-15.527048
11821		9.644239	-0.493193	-1.267859	0.124466	-0.430013	-0.083269	0.096178	-0.292961	-0.087812	-0.777344	0.213867	0.475098	0.096459	-0.004968	-0.012540	0.162474	-0.741846	-0.113311	-0.640646	-142.808050	-80.873827	-14.629006
11822		9.726573	-0.502608	-1.393610	0.039933	-0.453181	0.015535	0.079960	-0.284010	-0.089045	-0.770020	0.222412	0.483643	0.097283	-0.005064	-0.013800	0.162153	-0.742624	-0.114160	-0.639675	-143.701887	-80.786405	-13.689897
11823		9.725851	-0.548395	-1.433215	0.008745	-0.409536	0.024953	0.075172	-0.276911	-0.082052	-0.776855	0.229980	0.480713	0.097276	-0.005519	-0.014200	0.162030	-0.743396	-0.114939	-0.638668	-144.456791	-80.685414	-12.879041
11824		9.664313	-0.681997	-1.497703	-0.087995	-0.292371	-0.014019	0.068850	-0.273086	-0.072546	-0.764160	0.230713	0.486084	0.096661	-0.006850	-0.014847	0.161836	-0.744191	-0.115645	-0.637664	-145.203665	-80.581130	-12.087932
11825		9.551865	-0.742335	-1.647794	-0.243631	-0.276312	-0.098334	0.068193	-0.275114	-0.067229	-0.768555	0.217773	0.491455	0.095539	-0.007450	-0.016349	0.161735	-0.744969	-0.116344	-0.636653	-145.883480	-80.472880	-11.356764
11826		9.542258	-0.630403	-1.648076	-0.179831	-0.362445	-0.117097	0.062844	-0.270062	-0.078298	-0.767090	0.228027	0.489258	0.095442	-0.006336	-0.016354	0.161457	-0.745804	-0.117021	-0.635621	-146.638648	-80.361945	-10.566573
11827		9.543315	-0.605697	-1.702054	-0.198243	-0.390888	-0.109772	0.053068	-0.265153	-0.075049	-0.767090	0.226563	0.497803	0.095453	-0.006088	-0.016896	0.161280	-0.746555	-0.117693	-0.634660	-147.298622	-80.257940	-9.863864
11828		9.655214	-0.570046	-1.729512	-0.168768	-0.421494	0.002256	0.034331	-0.255928	-0.073297	-0.760986	0.217773	0.495361	0.096572	-0.005733	-0.017173	0.160964	-0.747359	-0.118244	-0.633690	-147.972556	-80.148437	-9.168454
11829		9.597253	-0.561579	-1.823327	-0.240211	-0.449587	-0.040928	0.037084	-0.251491	-0.065746	-0.770020	0.219482	0.497803	0.095994	-0.005644	-0.018114	0.160764	-0.748083	-0.118818	-0.632779	-148.563332	-80.045606	-8.544833
11830		9.584523	-0.522435	-1.847821	-0.229363	-0.477607	-0.052067	0.036536	-0.246275	-0.067111	-0.763428	0.220947	0.490479	0.095866	-0.005253	-0.018361	0.160356	-0.748844	-0.119374	-0.631877	-149.238116	-79.944514	-7.856052
11831		9.678355	-0.490078	-1.817332	-0.153967	-0.483459	0.033934	0.029117	-0.231542	-0.071037	-0.766113	0.222900	0.501465	0.096803	-0.004933	-0.018062	0.160120	-0.749506	-0.119926	-0.631047	-149.790767	-79.850763	-7.275432
11832		9.741043	-0.628081	-1.878568	-0.233915	-0.366277	0.118199	0.027003	-0.217219	-0.070545	-0.760986	0.210205	0.503662	0.097429	-0.006313	-0.018681	0.159795	-0.750126	-0.120474	-0.630288	-150.357222	-79.766723	-6.688974
11833		9.738638	-0.746207	-1.895348	-0.277798	-0.250515	0.129660	0.034273	-0.210108	-0.070651	-0.762451	0.226318	0.506592	0.097404	-0.007493	-0.018852	0.159592	-0.750714	-0.121024	-0.629533	-150.852895	-79.681655	-6.162941
11834		9.662884	-0.866635	-1.965735	-0.383800	-0.149290	0.077554	0.059686	-0.212115	-0.080200	-0.760010	0.217285	0.507324	0.096646	-0.008699	-0.019557	0.159246	-0.751358	-0.121654	-0.628731	-151.452208	-79.593009	-5.538396
11835		9.547896	-1.011555	-1.892419	-0.377598	0.028400	-0.033966	0.084845	-0.213817	-0.087200	-0.763916	0.222900	0.503906	0.095495	-0.010149	-0.018826	0.159178	-0.751905	-0.122428	-0.627943	-151.952193	-79.508772	-4.978248
11836		9.608612	-0.983655	-1.745287	-0.207203	0.075806	0.000075	0.096464	-0.209188	-0.101257	-0.755371	0.217041	0.504150	0.096099	-0.009877	-0.017357	0.158977	-0.752455	-0.123274	-0.627170	-152.531260	-79.429199	-4.344077
11837		9.610393	-0.900810	-1.696714	-0.116428	0.034150	-0.012933	0.090787	-0.211351	-0.112519	-0.763672	0.215576	0.510010	0.096117	-0.009054	-0.016870	0.158853	-0.752972	-0.124159	-0.626406	-153.076128	-79.350912	-3.734516
11838		9.628396	-0.703306	-1.554147	0.106016	-0.072246	-0.035186	0.064794	-0.207021	-0.113600	-0.759277	0.216553	0.509521	0.096296	-0.007083	-0.015444	0.158456	-0.753519	-0.124970	-0.625686	-153.708368	-79.276796	-3.066470
11839		9.579563	-0.542752	-1.506695	0.216094	-0.183330	-0.104320	0.012949	-0.208149	-0.115246	-0.760986	0.222412	0.516113	0.095808	-0.005482	-0.014968	0.158031	-0.754084	-0.125619	-0.624983	-154.283819	-79.198535	-2.470886
11840		9.535746	-0.418068	-1.543283	0.238001	-0.292439	-0.151179	-0.035106	-0.212959	-0.110038	-0.761719	0.221924	0.510010	0.095371	-0.004236	-0.015331	0.157306	-0.754747	-0.126071	-0.624274	-154.924626	-79.112843	-1.851051
11841		9.496424	-0.344521	-1.550736	0.267391	-0.344066	-0.194184	-0.077506	-0.223938	-0.111894	-0.753418	0.209961	0.518066	0.094980	-0.003504	-0.015400	0.156540	-0.755432	-0.126437	-0.623563	-155.544423	-79.023174	-1.262754
11842		9.526792	-0.357333	-1.460413	0.365459	-0.275889	-0.178865	-0.109971	-0.229864	-0.100877	-0.753906	0.214600	0.515625	0.095283	-0.003629	-0.014493	0.155552	-0.756189	-0.126662	-0.622848	-156.209419	-78.927686	-0.659349
11843		9.484914	-0.482347	-1.533607	0.260281	-0.170001	-0.197518	-0.136873	-0.247097	-0.103171	-0.753418	0.211426	0.517822	0.094865	-0.004883	-0.015216	0.154573	-0.756995	-0.126827	-0.622078	-156.846194	-78.821365	-0.088035
11844		9.473776	-0.578282	-1.483940	0.284343	-0.039790	-0.210270	-0.127809	-0.262041	-0.110156	-0.764160	0.212646	0.522949	0.094754	-0.005844	-0.014712	0.153483	-0.757853	-0.127065	-0.621253	-157.555647	-78.708156	0.552962
11845		9.500252	-0.592779	-1.482477	0.304527	-0.004018	-0.184028	-0.122218	-0.271085	-0.119944	-0.754639	0.206543	0.530518	0.095019	-0.005994	-0.014692	0.152492	-0.758709	-0.127358	-0.620393	-158.230074	-78.590126	1.171684
11846		9.499438	-0.506746	-1.483817	0.355803	-0.058379	-0.191475	-0.112346	-0.289301	-0.124721	-0.749512	0.209229	0.519287	0.095013	-0.005135	-0.014698	0.151299	-0.759636	-0.127678	-0.619483	-158.997645	-78.463970	1.869370
11847		9.500125	-0.365139	-1.389699	0.516710	-0.128679	-0.219288	-0.129738	-0.311521	-0.124111	-0.749756	0.197754	0.529053	0.095020	-0.003719	-0.013747	0.150239	-0.760616	-0.127993	-0.618474	-159.698712	-78.322057	2.511431
11848		9.492261	-0.244316	-1.352559	0.616623	-0.198779	-0.243347	-0.165251	-0.327610	-0.123028	-0.743408	0.204834	0.538086	0.094943	-0.002513	-0.013368	0.148882	-0.761655	-0.128247	-0.617469	-160.493358	-78.176764	3.217427
11849		9.503154	-0.244153	-1.370941	0.626722	-0.180927	-0.230235	-0.202681	-0.334053	-0.114720	-0.746826	0.206543	0.536133	0.095053	-0.002510	-0.013548	0.147558	-0.762759	-0.128317	-0.616409	-161.198515	-78.017589	3.821630
11850		9.481137	-0.342942	-1.499074	0.496808	-0.112091	-0.221166	-0.236001	-0.350194	-0.113967	-0.740723	0.210449	0.535156	0.094835	-0.003501	-0.014821	0.145962	-0.764031	-0.128218	-0.615233	-161.956561	-77.834895	4.442787
11851		9.403747	-0.438120	-1.653406	0.332437	-0.057288	-0.260607	-0.255755	-0.365623	-0.115911	-0.742188	0.201416	0.540771	0.094065	-0.004457	-0.016356	0.144410	-0.765263	-0.128151	-0.614081	-162.683963	-77.655500	5.039421
11852		9.443458	-0.606536	-1.887897	0.095801	0.038260	-0.163845	-0.261907	-0.382650	-0.117464	-0.732666	0.195313	0.541992	0.094467	-0.006145	-0.018690	0.142860	-0.766571	-0.128070	-0.612828	-163.392976	-77.459887	5.617258
11853		9.499174	-0.642973	-2.099410	-0.067386	0.023350	-0.063328	-0.221224	-0.381241	-0.134211	-0.740723	0.184326	0.545654	0.095027	-0.006517	-0.020806	0.141373	-0.767806	-0.128189	-0.611600	-164.118274	-77.271701	6.232917
11854		9.480132	-0.555780	-2.278539	-0.172402	-0.091266	-0.048706	-0.176497	-0.385815	-0.141162	-0.732666	0.188721	0.563232	0.094841	-0.005645	-0.022598	0.139820	-0.769040	-0.128488	-0.610343	-164.908074	-77.080956	6.922710
11855		9.388208	-0.489429	-2.394395	-0.243502	-0.168173	-0.116121	-0.157393	-0.393851	-0.144536	-0.733643	0.187012	0.559570	0.093925	-0.004981	-0.023755	0.138536	-0.770254	-0.128848	-0.609027	-165.590043	-76.883849	7.532339
11856		9.411935	-0.370786	-2.549305	-0.301777	-0.300229	-0.063862	-0.155815	-0.389195	-0.151767	-0.739014	0.185791	0.557373	0.094166	-0.003799	-0.025307	0.136914	-0.771622	-0.129100	-0.607608	-166.355717	-76.665079	8.189072
11857		9.487016	-0.325674	-2.707598	-0.382561	-0.366880	0.044266	-0.163795	-0.374567	-0.155524	-0.739502	0.185791	0.571777	0.094918	-0.003353	-0.026896	0.135583	-0.772767	-0.129469	-0.606371	-167.016869	-76.476722	8.774499
11858		9.520246	-0.219030	-2.889672	-0.473482	-0.497178	0.115140	-0.156438	-0.360483	-0.158104	-0.732178	0.183594	0.559082	0.095253	-0.002288	-0.028723	0.134039	-0.773901	-0.129795	-0.605198	-167.728669	-76.293228	9.389323
11859		9.525444	0.002326	-2.911799	-0.386551	-0.680530	0.117065	-0.162839	-0.334296	-0.152648	-0.725586	0.187988	0.568115	0.095303	-0.000073	-0.028959	0.132744	-0.774919	-0.130127	-0.604108	-168.329737	-76.123965	9.914315
11860		9.578931	0.149173	-2.978211	-0.357723	-0.809002	0.180578	-0.197351	-0.309405	-0.146258	-0.731445	0.170166	0.570068	0.095836	0.001392	-0.029635	0.131326	-0.775894	-0.130318	-0.603125	-168.922785	-75.965464	10.409080
11861		9.530261	0.158563	-3.016046	-0.380024	-0.803834	0.145068	-0.254330	-0.284649	-0.145781	-0.722900	0.180908	0.574707	0.095347	0.001478	-0.030027	0.129729	-0.776821	-0.130314	-0.602278	-169.513771	-75.820847	10.870360
11862		9.624230	0.084447	-3.038435	-0.387301	-0.705292	0.248003	-0.282161	-0.249247	-0.141123	-0.723633	0.173096	0.575684	0.096281	0.000734	-0.030265	0.127833	-0.777706	-0.130153	-0.601575	-170.160145	-75.689925	11.349019
11863		9.610300	-0.200139	-3.103193	-0.536177	-0.434282	0.264592	-0.287771	-0.219053	-0.139519	-0.727783	0.164307	0.569092	0.096135	-0.002113	-0.030924	0.126167	-0.778455	-0.129980	-0.600995	-170.711803	-75.579406	11.750419
11864		9.533593	-0.253879	-3.115725	-0.574840	-0.361354	0.197333	-0.265401	-0.196765	-0.133643	-0.721191	0.168457	0.581055	0.095365	-0.002644	-0.031060	0.124427	-0.779095	-0.129880	-0.600549	-171.305098	-75.487154	12.193067
