// General information: 
//  MT Manager version: 2019.2.0 
//  XDA version: 2019.2.0 build 3853 rev 94535 built on 2019-09-09
// Device information: 
//  DeviceId: 00B4778E
//  ProductCode: MTW2-3A7G6
//  Firmware Version: 4.6.0
//  Hardware Version: 2.0.0
// Device settings: 
//  Filter Profile: human(46.1)
//  Option Flags: Orientation Smoother Disabled, AHS Disabled, ICC Disabled
// Coordinate system: ENU
PacketCounter	SampleTimeFine	Acc_X	Acc_Y	Acc_Z	FreeAcc_E	FreeAcc_N	FreeAcc_U	Gyr_X	Gyr_Y	Gyr_Z	Mag_X	Mag_Y	Mag_Z	VelInc_X	VelInc_Y	VelInc_Z	Quat_q0	Quat_q1	Quat_q2	Quat_q3	Roll	Pitch	Yaw
11328		4.127926	-0.367900	8.795263	0.000000	0.000000	-0.089942	0.003847	0.007080	-0.001040	-0.471436	0.119385	-0.476074	0.041282	-0.003681	0.087951	0.174663	-0.217509	-0.019854	-0.960098	-2.396529	-25.125075	-158.844649
11329		4.149397	-0.374080	8.787505	0.000000	0.000000	-0.087582	0.003847	0.007080	-0.001040	-0.465332	0.119873	-0.477051	0.041497	-0.003743	0.087874	0.180824	-0.218554	-0.021151	-0.958692	-2.438866	-25.258341	-158.090756
11330		4.148768	-0.373861	8.787811	-0.010542	-0.001299	-0.087588	0.002661	0.007108	0.004277	-0.471436	0.123535	-0.475830	0.041491	-0.003739	0.087877	0.177718	-0.218016	-0.020484	-0.959409	-2.418516	-25.189559	-158.470846
11331		4.144864	-0.359923	8.768203	-0.011244	-0.015394	-0.107510	0.003715	0.008653	-0.001863	-0.463867	0.120117	-0.476563	0.041452	-0.003601	0.087680	0.177714	-0.217971	-0.020496	-0.959420	-2.415788	-25.184651	-158.472255
11332		4.147388	-0.373332	8.788485	-0.010526	-0.001352	-0.087588	0.000886	0.007077	-0.002815	-0.463867	0.127930	-0.481445	0.041477	-0.003734	0.087883	0.177704	-0.217937	-0.020495	-0.959429	-2.414803	-25.180641	-158.473953
11333		4.149927	-0.386766	8.808758	-0.009824	0.012744	-0.067666	0.004351	0.008140	0.000775	-0.464844	0.134277	-0.481934	0.041503	-0.003869	0.088086	0.177713	-0.217894	-0.020508	-0.959437	-2.412426	-25.175963	-158.473680
11334		4.110993	-0.371530	8.765651	0.009876	0.006505	-0.123787	0.003476	0.004450	-0.002033	-0.468994	0.125977	-0.478516	0.041112	-0.003717	0.087656	0.177708	-0.217869	-0.020522	-0.959443	-2.409863	-25.173489	-158.475073
11335		4.123614	-0.365794	8.797374	0.013685	0.000781	-0.089952	0.002433	0.006293	-0.001516	-0.468018	0.118408	-0.477295	0.041239	-0.003659	0.087972	0.177704	-0.217837	-0.020530	-0.959451	-2.407990	-25.169923	-158.476199
11336		4.135242	-0.391137	8.778066	-0.013632	0.018461	-0.101501	0.003848	0.007082	-0.001040	-0.463623	0.122559	-0.475586	0.041356	-0.003913	0.087779	0.177704	-0.217799	-0.020543	-0.959460	-2.405445	-25.165857	-158.477037
11337		4.144655	-0.371600	8.789848	-0.010525	-0.001359	-0.087588	0.005023	0.003666	-0.000734	-0.462158	0.128906	-0.475342	0.041448	-0.003718	0.087898	0.177706	-0.217777	-0.020565	-0.959464	-2.402328	-25.163776	-158.477599
11338		4.131060	-0.376690	8.758611	-0.014325	0.004350	-0.121423	0.001390	0.008137	-0.001001	-0.463135	0.118164	-0.476563	0.041314	-0.003768	0.087584	0.177704	-0.217737	-0.020564	-0.959473	-2.401284	-25.159162	-158.478399
11339		4.121428	-0.364433	8.798454	0.013690	0.000761	-0.089952	0.003345	0.006023	-0.002856	-0.467529	0.124268	-0.479004	0.041217	-0.003646	0.087983	0.177694	-0.217705	-0.020578	-0.959482	-2.398532	-25.155783	-158.480365
11340		4.165108	-0.377334	8.782611	-0.034711	-0.003527	-0.085224	0.002792	0.005538	0.005099	-0.459229	0.114990	-0.479980	0.041654	-0.003774	0.087825	0.177723	-0.217677	-0.020580	-0.959483	-2.398375	-25.152504	-158.477230
11341		4.139194	-0.357039	8.770999	-0.011208	-0.015487	-0.107510	0.000479	0.008408	0.000338	-0.454834	0.125000	-0.477539	0.041396	-0.003571	0.087708	0.177726	-0.217636	-0.020575	-0.959492	-2.398097	-25.147683	-158.477239
11342		4.141610	-0.370565	8.791327	-0.010456	-0.001393	-0.087588	0.002171	0.009439	-0.003163	-0.453369	0.122070	-0.474365	0.041420	-0.003707	0.087911	0.177714	-0.217591	-0.020580	-0.959504	-2.396023	-25.142628	-158.479436
11343		4.149790	-0.382260	8.752202	-0.038470	0.002196	-0.119059	0.003309	0.009985	0.001290	-0.462402	0.123779	-0.479004	0.041502	-0.003824	0.087520	0.177725	-0.217540	-0.020585	-0.959514	-2.394362	-25.136881	-158.478884
11344		4.139859	-0.370021	8.792174	-0.010357	-0.001395	-0.087588	0.002674	0.010499	-0.001349	-0.459961	0.119873	-0.477539	0.041403	-0.003702	0.087920	0.177722	-0.217492	-0.020589	-0.959525	-2.392596	-25.131439	-158.479910
11345		4.132336	-0.402486	8.800994	-0.012762	0.032519	-0.081579	0.003718	0.008656	-0.001864	-0.465088	0.122803	-0.476318	0.041327	-0.004027	0.088008	0.177718	-0.217447	-0.020601	-0.959536	-2.389869	-25.126528	-158.481317
11346		4.160333	-0.376225	8.784921	-0.034441	-0.003568	-0.085223	-0.002256	0.009221	0.004353	-0.469238	0.125244	-0.477539	0.041607	-0.003760	0.087847	0.177738	-0.217411	-0.020575	-0.959541	-2.392742	-25.121733	-158.478589
11347		4.137342	-0.369679	8.793373	-0.010235	-0.001433	-0.087588	0.004724	0.010775	0.001766	-0.466797	0.121338	-0.475342	0.041378	-0.003699	0.087931	0.177753	-0.217355	-0.020586	-0.959550	-2.390389	-25.115523	-158.477757
11348		4.126499	-0.388423	8.782300	-0.013169	0.018357	-0.101500	0.004091	0.011289	-0.000873	-0.464600	0.118164	-0.477295	0.041270	-0.003886	0.087821	0.177755	-0.217306	-0.020593	-0.959561	-2.388279	-25.109968	-158.478355
11349		4.157743	-0.375685	8.786171	-0.034267	-0.003597	-0.085223	0.000743	0.005265	0.001983	-0.463379	0.128418	-0.483154	0.041580	-0.003757	0.087861	0.177766	-0.217280	-0.020590	-0.959565	-2.388326	-25.106907	-158.477240
11350		4.138212	-0.382812	8.814440	-0.009129	0.012584	-0.067665	0.000481	0.008410	0.000336	-0.461914	0.120605	-0.482178	0.041386	-0.003828	0.088143	0.177770	-0.217250	-0.020580	-0.959571	-2.388889	-25.103236	-158.476892
11351		4.134340	-0.368977	8.794814	-0.009832	-0.001511	-0.087587	0.002939	0.007355	0.000297	-0.469482	0.120117	-0.479980	0.041347	-0.003691	0.087947	0.177775	-0.217212	-0.020587	-0.959579	-2.387203	-25.099018	-158.476898
11352		4.133795	-0.368795	8.795078	-0.009585	-0.001571	-0.087587	0.001655	0.004994	0.000644	-0.462158	0.121582	-0.477783	0.041340	-0.003689	0.087950	0.177781	-0.217198	-0.020585	-0.959581	-2.387324	-25.097371	-158.476219
11353		4.152153	-0.361617	8.767370	-0.034494	-0.017801	-0.105143	0.001115	0.007898	0.002974	-0.461914	0.125732	-0.475342	0.041525	-0.003616	0.087672	0.177798	-0.217160	-0.020580	-0.959586	-2.387394	-25.092779	-158.474548
11354		4.154842	-0.375399	8.787555	-0.033490	-0.003742	-0.085220	-0.000541	0.002904	0.002330	-0.459717	0.119141	-0.478027	0.041550	-0.003753	0.087875	0.177809	-0.217161	-0.020568	-0.959584	-2.389232	-25.092629	-158.472751
11355		4.154304	-0.375405	8.787809	-0.033490	-0.003742	-0.085220	0.001896	0.009200	0.000812	-0.467529	0.125000	-0.479980	0.041547	-0.003755	0.087876	0.177816	-0.217115	-0.020568	-0.959593	-2.388262	-25.087344	-158.472480
11356		4.140487	-0.380553	8.756681	-0.036915	0.001968	-0.119053	0.003721	0.008658	-0.001865	-0.467773	0.120361	-0.484863	0.041409	-0.003808	0.087565	0.177813	-0.217089	-0.020576	-0.959600	-2.386552	-25.084532	-158.473456
11357		4.164945	-0.400497	8.769029	-0.060414	0.013928	-0.096763	0.003312	0.009989	0.001288	-0.466064	0.129150	-0.479736	0.041654	-0.004006	0.087688	0.177823	-0.217039	-0.020581	-0.959609	-2.384889	-25.078783	-158.472905
11358		4.129660	-0.367930	8.797057	-0.008350	-0.001674	-0.087586	0.004094	0.011291	-0.000875	-0.464111	0.128906	-0.483154	0.041302	-0.003681	0.087968	0.177826	-0.217007	-0.020584	-0.959616	-2.383801	-25.075216	-158.473065
11359		4.160708	-0.354998	8.801048	-0.029445	-0.023630	-0.071305	0.004224	0.009719	-0.000051	-0.467041	0.120850	-0.476074	0.041611	-0.003552	0.088008	0.177831	-0.216957	-0.020596	-0.959626	-2.381261	-25.069654	-158.473351
11360		4.146746	-0.360009	8.769995	-0.032692	-0.017914	-0.105137	0.003462	0.011805	-0.003514	-0.467529	0.128662	-0.489014	0.041473	-0.003602	0.087697	0.177820	-0.216925	-0.020600	-0.959635	-2.379631	-25.066086	-158.475276
11361		4.126707	-0.366767	8.798491	-0.007779	-0.001685	-0.087585	0.003051	0.013137	-0.000361	-0.464111	0.124512	-0.478027	0.041273	-0.003669	0.087982	0.177823	-0.216859	-0.020603	-0.959649	-2.377647	-25.058576	-158.475845
11362		4.151087	-0.386694	8.810887	-0.030668	0.010269	-0.065291	0.003853	0.007087	-0.001042	-0.466309	0.123047	-0.475830	0.041514	-0.003869	0.088107	0.177824	-0.216851	-0.020611	-0.959651	-2.376563	-25.057852	-158.476063
11363		4.147184	-0.372342	8.791302	-0.031377	-0.003827	-0.085213	0.007746	0.010209	-0.006228	-0.463623	0.119385	-0.477295	0.041476	-0.003728	0.087911	0.177803	-0.216795	-0.020646	-0.959666	-2.370357	-25.052153	-158.480257
11364		4.165259	-0.364444	8.763789	-0.055652	-0.019980	-0.102759	0.006553	0.010239	-0.000913	-0.460205	0.123291	-0.479736	0.041657	-0.003648	0.087636	0.177807	-0.216772	-0.020667	-0.959670	-2.367301	-25.049995	-158.480642
11365		4.126443	-0.378164	8.820156	-0.005821	0.012479	-0.067663	0.003594	0.010234	-0.002692	-0.472900	0.122559	-0.482666	0.041269	-0.003784	0.088199	0.177799	-0.216720	-0.020678	-0.959684	-2.364414	-25.044208	-158.482607
11366		4.141398	-0.356889	8.772650	-0.030716	-0.017791	-0.105130	0.005139	0.009450	-0.001390	-0.462646	0.123535	-0.477539	0.041418	-0.003571	0.087724	0.177799	-0.216706	-0.020692	-0.959686	-2.362401	-25.042958	-158.483138
11367		4.140541	-0.356421	8.773073	-0.030714	-0.017790	-0.105130	0.003594	0.010234	-0.002692	-0.461670	0.121582	-0.469971	0.041410	-0.003566	0.087729	0.177791	-0.216654	-0.020703	-0.959699	-2.359511	-25.037173	-158.485106
11368		4.142779	-0.369559	8.793496	-0.029304	-0.003599	-0.085206	0.005923	0.010753	-0.003553	-0.470703	0.122559	-0.476563	0.041432	-0.003699	0.087933	0.177782	-0.216632	-0.020724	-0.959706	-2.356134	-25.035147	-158.487152
11369		4.132103	-0.388078	8.782361	-0.032415	0.016221	-0.099118	0.004638	0.008391	-0.003206	-0.465820	0.118652	-0.470459	0.041325	-0.003883	0.087822	0.177772	-0.216587	-0.020742	-0.959717	-2.352532	-25.030441	-158.489395
11370		4.169815	-0.342371	8.777974	-0.050178	-0.039461	-0.088834	0.002140	0.013412	0.000972	-0.469727	0.119141	-0.476318	0.041704	-0.003424	0.087777	0.177779	-0.216569	-0.020740	-0.959720	-2.352486	-25.028253	-158.488694
11371		4.108063	-0.380891	8.791269	-0.007278	0.018547	-0.101495	0.003725	0.008663	-0.001868	-0.465088	0.123779	-0.478760	0.041084	-0.003811	0.087911	0.177775	-0.216524	-0.020753	-0.959731	-2.349753	-25.023395	-158.490111
11372		4.157957	-0.360556	8.767417	-0.052374	-0.019466	-0.102740	0.008495	0.015481	-0.004250	-0.468506	0.109619	-0.476807	0.041586	-0.003610	0.087671	0.177764	-0.216489	-0.020785	-0.959740	-2.344710	-25.020022	-158.492740
11373		4.148575	-0.316738	8.858435	0.006831	-0.046456	-0.025927	0.003354	0.006029	-0.002859	-0.473389	0.122803	-0.480225	0.041488	-0.003169	0.088583	0.177755	-0.216457	-0.020799	-0.959748	-2.341947	-25.016711	-158.494721
11374		4.136716	-0.397733	8.745100	-0.057618	0.020695	-0.130558	0.003726	0.008664	-0.001869	-0.466064	0.126465	-0.464355	0.041371	-0.003979	0.087449	0.177746	-0.216465	-0.020828	-0.959748	-2.338379	-25.018338	-158.496465
11375		4.143330	-0.333262	8.788110	-0.024045	-0.036611	-0.091206	0.006055	0.009183	-0.002730	-0.481445	0.128174	-0.477051	0.041437	-0.003336	0.087879	0.177740	-0.216416	-0.020852	-0.959759	-2.334027	-25.013247	-158.498481
11376		4.151393	-0.404909	8.797332	-0.051589	0.029190	-0.076798	0.003355	0.006029	-0.002859	-0.473145	0.125732	-0.471191	0.041517	-0.004051	0.087972	0.177727	-0.216458	-0.020857	-0.959752	-2.334156	-25.018149	-158.499667
11377		4.129067	-0.337777	8.757225	-0.026405	-0.030773	-0.125033	0.003727	0.008664	-0.001870	-0.484375	0.116699	-0.473145	0.041294	-0.003380	0.087570	0.177723	-0.216414	-0.020869	-0.959762	-2.331418	-25.013413	-158.501108
11378		4.077592	-0.356945	8.781843	0.021244	0.007891	-0.123806	0.005943	0.003402	-0.002069	-0.481934	0.118652	-0.472656	0.040777	-0.003572	0.087818	0.177713	-0.216479	-0.020905	-0.959749	-2.328431	-25.021681	-158.502386
11379		4.143524	-0.375893	8.758202	-0.051321	0.001508	-0.116628	0.008013	0.007068	-0.004580	-0.485596	0.117920	-0.466064	0.041438	-0.003763	0.087580	0.177700	-0.216440	-0.020943	-0.959759	-2.322524	-25.018019	-158.505518
11380		4.149153	-0.402481	8.798499	-0.047976	0.030416	-0.076783	0.006185	0.007611	-0.001905	-0.482178	0.118408	-0.467041	0.041495	-0.004028	0.087983	0.177690	-0.216499	-0.020986	-0.959747	-2.318563	-25.025748	-158.507133
11381		4.161941	-0.336235	8.781947	-0.043121	-0.037384	-0.088792	0.005685	0.006549	-0.003720	-0.486328	0.112549	-0.466797	0.041622	-0.003366	0.087818	0.177678	-0.216465	-0.021012	-0.959756	-2.314198	-25.022506	-158.509750
11382		4.117038	-0.322508	8.798183	0.007226	-0.032249	-0.093585	0.004642	0.008394	-0.003209	-0.475342	0.116943	-0.463135	0.041174	-0.003228	0.087980	0.177660	-0.216525	-0.021056	-0.959745	-2.309926	-25.030456	-158.512346
11383		4.134796	-0.374899	8.819053	-0.018550	0.013684	-0.065264	0.007471	0.009976	-0.002255	-0.487793	0.114990	-0.463867	0.041352	-0.003753	0.088188	0.177657	-0.216475	-0.021087	-0.959756	-2.304845	-25.025375	-158.514184
11384		4.150027	-0.353437	8.771463	-0.042505	-0.015920	-0.102685	0.005815	0.004977	-0.002895	-0.488281	0.123779	-0.454590	0.041502	-0.003538	0.087713	0.177643	-0.216539	-0.021134	-0.959743	-2.300306	-25.033743	-158.516417
11385		4.184697	-0.353928	8.795269	-0.062729	-0.023702	-0.066446	0.006444	0.004465	-0.000255	-0.483643	0.117920	-0.465820	0.041849	-0.003542	0.087952	0.177647	-0.216518	-0.021163	-0.959747	-2.296377	-25.031921	-158.516898
11386		4.184120	-0.353343	8.795567	-0.060653	-0.023221	-0.066432	0.006687	0.008675	-0.000092	-0.484375	0.123047	-0.456299	0.041845	-0.003536	0.087954	0.177642	-0.216578	-0.021190	-0.959733	-2.294482	-25.039512	-158.517399
11387		4.914410	-1.284076	8.373679	-1.174454	0.555438	-0.105426	-0.005327	-0.004323	0.025074	-0.485107	0.123291	-0.467041	0.049144	-0.012832	0.083738	0.177754	-0.216614	-0.021143	-0.959706	-2.304182	-25.042302	-158.501666
11388		3.846517	-0.137434	8.877567	0.336283	-0.105346	-0.143065	0.000071	0.009752	0.003476	-0.487793	0.120361	-0.457764	0.038470	-0.001374	0.088774	0.177773	-0.216721	-0.021078	-0.959679	-2.315346	-25.053165	-158.496292
11389		4.383207	-0.322720	8.727201	-0.242866	-0.128244	-0.045126	-0.000456	0.005303	0.007291	-0.485840	0.117920	-0.463867	0.043835	-0.003225	0.087271	0.177806	-0.216705	-0.021065	-0.959677	-2.317422	-25.050943	-158.492037
11390		4.066178	-0.263403	8.847074	0.096065	-0.064421	-0.073050	0.006946	0.005527	0.001560	-0.491943	0.119629	-0.462158	0.040664	-0.002637	0.088470	0.177824	-0.216797	-0.021071	-0.959653	-2.319477	-25.061705	-158.488755
11391		4.093291	-0.328031	8.828382	0.042297	-0.014878	-0.076109	0.004359	0.008155	0.000768	-0.489502	0.119873	-0.461182	0.040937	-0.003282	0.088282	0.177830	-0.216763	-0.021086	-0.959659	-2.317010	-25.058055	-158.488709
11392		4.115331	-0.274244	8.772296	0.020995	-0.079074	-0.119512	0.001658	0.005000	0.000639	-0.485352	0.123779	-0.464111	0.041156	-0.002743	0.087722	0.177837	-0.216838	-0.021073	-0.959641	-2.320644	-25.066454	-158.486613
11393		4.111232	-0.320507	8.800971	0.019532	-0.030974	-0.093598	0.002444	0.006302	-0.001524	-0.491211	0.117920	-0.460693	0.041115	-0.003206	0.088008	0.177830	-0.216815	-0.021083	-0.959647	-2.318679	-25.063944	-158.487975
11394		4.224480	-0.366980	8.781533	-0.099076	-0.027421	-0.061500	-0.000171	0.005544	0.003313	-0.493408	0.127930	-0.464111	0.042247	-0.003669	0.087814	0.177845	-0.216870	-0.021064	-0.959633	-2.322817	-25.069819	-158.484874
11395		4.263975	-0.457779	8.743335	-0.180185	0.039807	-0.076009	0.001530	0.006574	-0.000187	-0.491455	0.119873	-0.462646	0.042643	-0.004579	0.087432	0.177845	-0.216845	-0.021068	-0.959638	-2.321732	-25.067127	-158.485397
11396		4.175935	-0.340304	8.777963	-0.049453	-0.037108	-0.086277	-0.002129	0.007661	0.005160	-0.493896	0.122803	-0.464600	0.041763	-0.003401	0.087778	0.177867	-0.216902	-0.021031	-0.959622	-2.328161	-25.072794	-158.480942
11397		4.117858	-0.332828	8.762691	-0.004811	-0.027058	-0.124988	0.001360	0.012119	0.003125	-0.487305	0.115967	-0.454102	0.041184	-0.003328	0.087624	0.177882	-0.216852	-0.021026	-0.959631	-2.328004	-25.066855	-158.479512
11398		4.095367	-0.295142	8.822097	0.052324	-0.048134	-0.082144	0.000073	0.009755	0.003474	-0.484131	0.121582	-0.454834	0.040958	-0.002951	0.088219	0.177899	-0.216889	-0.021007	-0.959620	-2.331666	-25.070738	-158.476467
11399		4.173263	-0.340708	8.779218	-0.047453	-0.036768	-0.086266	-0.000427	0.008692	0.001659	-0.497559	0.120605	-0.455322	0.041736	-0.003407	0.087790	0.177905	-0.216857	-0.020998	-0.959626	-2.332175	-25.066797	-158.475878
11400		4.165637	-0.373683	8.788079	-0.048299	-0.002606	-0.080259	-0.000969	0.011601	0.003984	-0.487549	0.120361	-0.463379	0.041662	-0.003736	0.087878	0.177921	-0.216881	-0.020976	-0.959618	-2.335858	-25.068999	-158.472932
11401		4.149208	-0.334491	8.788037	-0.021557	-0.034314	-0.088709	-0.000054	0.011330	0.002647	-0.486572	0.124023	-0.452393	0.041497	-0.003344	0.087878	0.177933	-0.216836	-0.020965	-0.959626	-2.336390	-25.063528	-158.471787
11402		4.173578	-0.354708	8.800519	-0.043518	-0.022080	-0.066338	0.001404	0.008149	-0.001014	-0.488281	0.124756	-0.453857	0.041739	-0.003548	0.088003	0.177927	-0.216869	-0.020964	-0.959620	-2.337141	-25.067435	-158.472020
11403		4.201080	-0.359688	8.733505	-0.096460	-0.034663	-0.115159	0.000702	0.009245	0.006113	-0.489746	0.123535	-0.462402	0.042015	-0.003596	0.087333	0.177956	-0.216834	-0.020955	-0.959623	-2.338192	-25.063075	-158.468629
11404		4.240846	-0.419449	8.746519	-0.144959	0.009401	-0.084316	-0.000553	0.010268	0.000832	-0.485840	0.124512	-0.451660	0.042413	-0.004194	0.087463	0.177957	-0.216862	-0.020943	-0.959616	-2.340362	-25.066011	-158.467833
11405		4.264888	-0.471058	8.707856	-0.199504	0.044842	-0.107219	-0.001458	0.003181	0.003660	-0.491455	0.122559	-0.465332	0.042650	-0.004709	0.087078	0.177971	-0.216857	-0.020931	-0.959615	-2.342061	-25.065181	-158.465835
11406		4.170833	-0.355196	8.801801	-0.039992	-0.021386	-0.066321	0.001117	0.007911	0.002963	-0.499756	0.117920	-0.459473	0.041712	-0.003552	0.088016	0.177985	-0.216904	-0.020922	-0.959602	-2.344768	-25.070377	-158.463229
11407		4.167044	-0.341557	8.782139	-0.040612	-0.035415	-0.086230	0.001118	0.007911	0.002962	-0.493164	0.118408	-0.458252	0.041674	-0.003415	0.087820	0.177999	-0.216875	-0.020919	-0.959606	-2.344753	-25.066856	-158.461795
11408		4.184774	-0.394733	8.803014	-0.064749	0.010773	-0.057848	-0.001340	0.008967	0.002994	-0.486816	0.123779	-0.461914	0.041852	-0.003946	0.088028	0.178010	-0.216917	-0.020900	-0.959595	-2.348387	-25.071285	-158.459375
11409		4.108497	-0.334052	8.767037	0.005633	-0.025083	-0.124983	0.001661	0.005002	0.000639	-0.487305	0.118164	-0.464355	0.041087	-0.003341	0.087669	0.178013	-0.216900	-0.020905	-0.959598	-2.347469	-25.069486	-158.459336
11410		4.142945	-0.335189	8.790964	-0.013086	-0.032664	-0.088688	0.000203	0.008184	0.004298	-0.492188	0.121094	-0.463623	0.041433	-0.003351	0.087908	0.178032	-0.216939	-0.020892	-0.959586	-2.350533	-25.073585	-158.456119
11411		4.081391	-0.374224	8.803969	0.029929	0.025404	-0.101554	-0.002128	0.007666	0.005156	-0.496338	0.122803	-0.465820	0.040817	-0.003740	0.088038	0.178053	-0.216913	-0.020872	-0.959589	-2.352966	-25.070152	-158.453293
11412		4.129185	-0.309751	8.811095	0.015868	-0.050007	-0.077249	0.003737	0.008670	-0.001873	-0.487549	0.121826	-0.463867	0.041296	-0.003100	0.088109	0.178046	-0.216941	-0.020883	-0.959583	-2.352075	-25.073606	-158.454122
11413		4.187423	-0.393340	8.745225	-0.090250	0.000982	-0.109078	-0.000051	0.011333	0.002644	-0.496582	0.121094	-0.463623	0.041879	-0.003933	0.087450	0.178057	-0.216896	-0.020872	-0.959592	-2.352605	-25.068135	-158.452979
11414		4.253019	-0.413291	8.721922	-0.161477	-0.005126	-0.101621	-0.001212	0.007394	0.003819	-0.492920	0.121582	-0.459229	0.042533	-0.004132	0.087218	0.178072	-0.216931	-0.020856	-0.959581	-2.355788	-25.071864	-158.450289
11415		4.116885	-0.329123	8.800685	0.014389	-0.029759	-0.091163	0.000077	0.009760	0.003471	-0.497070	0.122803	-0.457275	0.041173	-0.003291	0.088005	0.178087	-0.216894	-0.020846	-0.959587	-2.356484	-25.067274	-158.448583
11416		4.119114	-0.342976	8.821067	0.016585	-0.015354	-0.071258	-0.001338	0.008969	0.002992	-0.502441	0.112061	-0.462158	0.041195	-0.003429	0.088209	0.178097	-0.216924	-0.020830	-0.959579	-2.359508	-25.070347	-158.446478
11417		4.080218	-0.328496	8.777762	0.036165	-0.021560	-0.127471	-0.002254	0.009242	0.004328	-0.497803	0.126465	-0.458252	0.040806	-0.003283	0.087776	0.178114	-0.216891	-0.020808	-0.959584	-2.361774	-25.066036	-158.444217
11418		4.205910	-0.369997	8.790316	-0.078786	-0.023478	-0.061304	-0.002506	0.012391	0.002674	-0.495605	0.116455	-0.455078	0.042065	-0.003698	0.087901	0.178122	-0.216898	-0.020786	-0.959581	-2.364850	-25.066322	-158.442592
11419		4.182244	-0.394823	8.747636	-0.085775	0.002105	-0.109037	0.000078	0.009761	0.003470	-0.495361	0.126953	-0.463867	0.041827	-0.003948	0.087474	0.178137	-0.216860	-0.020776	-0.959587	-2.365545	-25.061735	-158.440888
11420		4.149418	-0.407497	8.744358	-0.063507	0.024334	-0.125433	0.000078	0.009761	0.003470	-0.490479	0.124268	-0.465332	0.041499	-0.004074	0.087442	0.178151	-0.216878	-0.020767	-0.959580	-2.367550	-25.063567	-158.438620
11421		4.158330	-0.388548	8.756349	-0.060165	0.004605	-0.111518	-0.001463	0.010545	0.002164	-0.489990	0.122803	-0.458252	0.041588	-0.003884	0.087561	0.178159	-0.216838	-0.020750	-0.959588	-2.368770	-25.058562	-158.437761
11422		4.189189	-0.376252	8.760555	-0.079943	-0.017083	-0.095100	-0.000590	0.014247	0.004965	-0.487793	0.116455	-0.461670	0.041898	-0.003761	0.087603	0.178181	-0.216834	-0.020729	-0.959586	-2.371743	-25.057615	-158.434557
11423		4.200530	-0.402273	8.741565	-0.107148	0.000675	-0.106516	-0.002752	0.008180	0.002512	-0.488525	0.125000	-0.460449	0.042009	-0.004021	0.087414	0.178188	-0.216807	-0.020708	-0.959591	-2.373820	-25.053956	-158.433416
11424		4.187211	-0.376790	8.761478	-0.078499	-0.016744	-0.095087	0.000327	0.013976	0.003629	-0.490234	0.117188	-0.451416	0.041878	-0.003767	0.087612	0.178204	-0.216805	-0.020694	-0.959589	-2.375935	-25.053437	-158.431034
11425		4.132491	-0.351668	8.817204	-0.001760	-0.015972	-0.068767	-0.000047	0.011338	0.002642	-0.494141	0.124268	-0.457031	0.041330	-0.003516	0.088170	0.178216	-0.216760	-0.020683	-0.959597	-2.376461	-25.047967	-158.429895
11426		4.093816	-0.305777	8.825055	0.050266	-0.045366	-0.079761	-0.000297	0.014488	0.000987	-0.490967	0.118408	-0.459229	0.040945	-0.003057	0.088248	0.178218	-0.216757	-0.020669	-0.959598	-2.378147	-25.047231	-158.429268
11427		4.073547	-0.313196	8.853445	0.075444	-0.029044	-0.062363	-0.004210	0.011366	0.006167	-0.483398	0.121094	-0.459717	0.040741	-0.003129	0.088532	0.178242	-0.216715	-0.020634	-0.959603	-2.382002	-25.041664	-158.425903
11428		4.145213	-0.332098	8.770870	-0.025092	-0.045687	-0.106065	-0.006666	0.012424	0.006196	-0.493408	0.126953	-0.464600	0.041458	-0.003317	0.087706	0.178262	-0.216717	-0.020589	-0.959600	-2.388088	-25.040806	-158.422163
11429		4.070874	-0.345686	8.803370	0.045286	-0.005304	-0.107598	-0.002502	0.012397	0.002670	-0.493164	0.119141	-0.457520	0.040714	-0.003455	0.088031	0.178271	-0.216669	-0.020565	-0.959610	-2.390016	-25.034731	-158.421036
11430		4.146080	-0.346925	8.791845	-0.023095	-0.031189	-0.086158	-0.007164	0.011361	0.004381	-0.491455	0.118164	-0.458252	0.041466	-0.003465	0.087916	0.178282	-0.216674	-0.020521	-0.959608	-2.395749	-25.034315	-158.418541
11431		4.204343	-0.431338	8.726059	-0.129250	0.019796	-0.117866	-0.003167	0.009520	0.005659	-0.496582	0.116211	-0.464355	0.042048	-0.004311	0.087259	0.178304	-0.216641	-0.020493	-0.959612	-2.398890	-25.029816	-158.415450
11432		4.368287	-0.458980	8.683083	-0.294389	-0.014569	-0.086349	-0.004208	0.011369	0.006166	-0.488281	0.121826	-0.460938	0.043688	-0.004587	0.086828	0.178326	-0.216644	-0.020462	-0.959608	-2.403253	-25.029433	-158.411878
11433		4.300707	-0.439752	8.707175	-0.221649	-0.008107	-0.093883	-0.002917	0.013735	0.005818	-0.490234	0.120361	-0.460205	0.043013	-0.004395	0.087069	0.178350	-0.216590	-0.020432	-0.959616	-2.406242	-25.022519	-158.408801
11434		4.119716	-0.342640	8.801587	0.003681	-0.028303	-0.088666	-0.004955	0.013457	0.002696	-0.490967	0.123535	-0.461670	0.041203	-0.003424	0.088013	0.178355	-0.216594	-0.020395	-0.959615	-2.410982	-25.022110	-158.407057
11435		4.096227	-0.336470	8.810042	0.028039	-0.026097	-0.091182	-0.002248	0.016615	0.002828	-0.492188	0.114258	-0.455566	0.040970	-0.003363	0.088097	0.178366	-0.216525	-0.020368	-0.959629	-2.412758	-25.013618	-158.405945
11436		4.084877	-0.356143	8.799140	0.026008	-0.005972	-0.105102	-0.006537	0.018220	0.005523	-0.489502	0.122559	-0.455322	0.040857	-0.003557	0.087988	0.178383	-0.216504	-0.020319	-0.959631	-2.418604	-25.010111	-158.402800
11437		4.152758	-0.390293	8.796331	-0.045564	0.001847	-0.077643	-0.004703	0.017675	0.002854	-0.493896	0.126465	-0.462891	0.041535	-0.003900	0.087960	0.178391	-0.216433	-0.020280	-0.959647	-2.421779	-25.001014	-158.401703
11438		4.113501	-0.344659	8.804415	0.006276	-0.027565	-0.088665	-0.000580	0.021624	0.003466	-0.487305	0.124023	-0.455811	0.041145	-0.003446	0.088040	0.178406	-0.216387	-0.020256	-0.959655	-2.423876	-24.995143	-158.399843
11439		4.012885	-0.337442	8.825142	0.100012	0.000822	-0.112675	-0.000157	0.027656	-0.001179	-0.494141	0.126221	-0.454590	0.040141	-0.003375	0.088246	0.178400	-0.216263	-0.020234	-0.959684	-2.423262	-24.980431	-158.401557
11440		4.099063	-0.364114	8.794959	0.004232	-0.007409	-0.102583	-0.005860	0.028472	0.001034	-0.491211	0.124023	-0.458008	0.041003	-0.003638	0.087944	0.178398	-0.216183	-0.020184	-0.959704	-2.427269	-24.970081	-158.401583
11441		4.210493	-0.411198	8.776957	-0.115712	-0.003840	-0.070054	-0.002362	0.025567	0.000500	-0.485840	0.129883	-0.468994	0.042116	-0.004111	0.087764	0.178398	-0.216072	-0.020151	-0.959730	-2.428392	-24.956527	-158.402180
11442		4.258549	-0.423092	8.703187	-0.192241	-0.018408	-0.116172	-0.003814	0.036126	0.002656	-0.496826	0.116455	-0.452881	0.042601	-0.004229	0.087024	0.178408	-0.215949	-0.020101	-0.959757	-2.431552	-24.941311	-158.401321
11443		4.236449	-0.430380	8.732400	-0.167045	-0.002082	-0.098799	0.000227	0.030307	-0.000197	-0.488770	0.134033	-0.460205	0.042378	-0.004304	0.087318	0.178408	-0.215813	-0.020078	-0.959788	-2.430953	-24.925057	-158.402484
11444		4.132435	-0.378344	8.784428	-0.041790	-0.010963	-0.097520	-0.001476	0.036651	0.001798	-0.487061	0.130615	-0.458252	0.041340	-0.003782	0.087837	0.178414	-0.215696	-0.020040	-0.959814	-2.432762	-24.910766	-158.402203
11445		4.173660	-0.391725	8.770311	-0.090000	-0.015135	-0.092455	0.000187	0.034292	0.003933	-0.492432	0.128906	-0.458252	0.041752	-0.003917	0.087696	0.178434	-0.215541	-0.020008	-0.959845	-2.433240	-24.892135	-158.400868
11446		4.116341	-0.397793	8.775752	-0.043751	0.009156	-0.111433	-0.001591	0.038236	0.000965	-0.489746	0.123535	-0.456787	0.041180	-0.003977	0.087750	0.178438	-0.215414	-0.019966	-0.959874	-2.435094	-24.876607	-158.400985
11447		4.103416	-0.385808	8.816782	-0.015350	0.005681	-0.080152	0.000624	0.040336	-0.000718	-0.495850	0.118652	-0.460938	0.041052	-0.003859	0.088160	0.178437	-0.215229	-0.019936	-0.959916	-2.434020	-24.854630	-158.402745
11448		3.988643	-0.352541	8.857399	0.106619	0.016616	-0.092840	0.002476	0.047169	-0.004885	-0.488037	0.120605	-0.459717	0.039907	-0.003527	0.088565	0.178416	-0.215053	-0.019917	-0.959960	-2.431353	-24.834037	-158.407086
11449		4.054931	-0.325499	8.807671	0.035728	-0.037727	-0.111101	0.000946	0.047962	-0.006201	-0.487793	0.122070	-0.466309	0.040570	-0.003257	0.088067	0.178390	-0.214830	-0.019887	-0.960015	-2.428556	-24.807830	-158.412509
11450		4.132598	-0.384445	8.787038	-0.062528	-0.012050	-0.094964	0.000528	0.049308	-0.003059	-0.490967	0.119141	-0.457520	0.041348	-0.003845	0.087860	0.178378	-0.214637	-0.019853	-0.960061	-2.427395	-24.784893	-158.415690
11451		4.150405	-0.390860	8.781379	-0.086548	-0.014095	-0.092422	0.000414	0.050893	-0.003893	-0.488770	0.122070	-0.460205	0.041526	-0.003910	0.087803	0.178362	-0.214401	-0.019816	-0.960118	-2.425484	-24.756948	-158.419733
11452		4.180319	-0.423062	8.756532	-0.137186	0.001725	-0.101246	-0.001898	0.057762	-0.004552	-0.482910	0.124268	-0.464111	0.041828	-0.004231	0.087553	0.178340	-0.214174	-0.019765	-0.960174	-2.425347	-24.729740	-158.424126
11453		4.121076	-0.428596	8.762731	-0.091844	0.025854	-0.120251	0.005115	0.059329	-0.007103	-0.489502	0.124268	-0.462646	0.041237	-0.004290	0.087615	0.178315	-0.213893	-0.019746	-0.960241	-2.419807	-24.697047	-158.430415
11454		4.138015	-0.434388	8.757557	-0.115111	0.023901	-0.117697	0.006420	0.061711	-0.007456	-0.483887	0.121582	-0.461914	0.041407	-0.004348	0.087563	0.178290	-0.213638	-0.019729	-0.960303	-2.414650	-24.667332	-158.436364
11455		4.068713	-0.427383	8.803253	-0.041525	0.044478	-0.105440	0.006192	0.064882	-0.009124	-0.486084	0.121826	-0.459961	0.040715	-0.004278	0.088019	0.178257	-0.213329	-0.019713	-0.960378	-2.407914	-24.631505	-158.444060
11456		4.114472	-0.406788	8.782191	-0.086591	0.006496	-0.106313	0.006748	0.061976	-0.011447	-0.482178	0.125488	-0.459473	0.041172	-0.004073	0.087809	0.178213	-0.213073	-0.019703	-0.960444	-2.401498	-24.601983	-158.452618
11457		4.010131	-0.367193	8.854873	0.038577	0.011522	-0.085245	0.009728	0.069382	-0.011164	-0.487061	0.124512	-0.457031	0.040132	-0.003678	0.088535	0.178174	-0.212739	-0.019702	-0.960525	-2.392167	-24.563628	-158.461702
11458		3.915208	-0.339520	8.888163	0.136325	0.020139	-0.095457	0.009365	0.066750	-0.012158	-0.498779	0.121338	-0.461426	0.039182	-0.003402	0.088868	0.178130	-0.212460	-0.019696	-0.960595	-2.384545	-24.531444	-158.470598
11459		3.995534	-0.350905	8.840277	0.038887	-0.002405	-0.105144	0.009493	0.065183	-0.011336	-0.481934	0.125732	-0.468506	0.039984	-0.003516	0.088390	0.178090	-0.212146	-0.019698	-0.960672	-2.375372	-24.495499	-158.479659
11460		4.119118	-0.435433	8.825735	-0.106878	0.033083	-0.063953	0.011118	0.067812	-0.015666	-0.489258	0.121582	-0.461426	0.041221	-0.004362	0.088243	0.178030	-0.211853	-0.019708	-0.960747	-2.365115	-24.462077	-158.491147
11461		4.114573	-0.373818	8.780114	-0.106082	-0.029016	-0.109711	0.011535	0.065492	-0.008222	-0.479980	0.117432	-0.469971	0.041174	-0.003745	0.087787	0.178007	-0.211536	-0.019716	-0.960821	-2.355596	-24.425881	-158.498240
11462		4.057484	-0.391932	8.806328	-0.059282	0.009354	-0.108844	0.012788	0.065473	-0.013535	-0.474121	0.124756	-0.464111	0.040603	-0.003928	0.088050	0.177959	-0.211249	-0.019736	-0.960893	-2.344698	-24.393390	-158.508364
11463		4.058652	-0.357489	8.800688	-0.056766	-0.024493	-0.114815	0.013404	0.064974	-0.010897	-0.482178	0.134033	-0.466064	0.040615	-0.003583	0.087993	0.177925	-0.210933	-0.019756	-0.960968	-2.333430	-24.357548	-158.517110
11464		4.102984	-0.396377	8.828405	-0.102607	-0.000553	-0.069906	0.011886	0.065774	-0.012225	-0.484131	0.121826	-0.471680	0.041059	-0.003972	0.088270	0.177888	-0.210644	-0.019757	-0.961038	-2.325089	-24.324437	-158.525328
11465		4.005577	-0.355059	8.841095	-0.006557	-0.006110	-0.100036	0.008371	0.061306	-0.010213	-0.485352	0.128906	-0.453125	0.040083	-0.003556	0.088399	0.177852	-0.210350	-0.019755	-0.961109	-2.316951	-24.290668	-158.533522
11466		4.066552	-0.342499	8.872118	-0.046675	-0.035674	-0.047178	0.007829	0.064243	-0.007913	-0.482910	0.124512	-0.462646	0.040694	-0.003430	0.088708	0.177825	-0.210083	-0.019742	-0.961173	-2.311126	-24.259687	-158.539826
11467		3.914785	-0.307515	8.887971	0.094533	-0.017189	-0.096366	0.007726	0.065839	-0.008756	-0.489990	0.116943	-0.457520	0.039177	-0.003080	0.088867	0.177796	-0.209768	-0.019732	-0.961248	-2.303704	-24.223297	-158.547205
11468		3.908699	-0.275316	8.941506	0.126927	-0.040245	-0.051206	0.008562	0.062173	-0.004447	-0.488037	0.119141	-0.462402	0.039115	-0.002758	0.089403	0.177783	-0.209509	-0.019727	-0.961306	-2.297426	-24.193436	-158.551863
11469		3.980520	-0.306483	8.882079	0.026272	-0.042990	-0.074758	0.001949	0.051868	-0.003556	-0.486328	0.117920	-0.460693	0.039828	-0.003066	0.088810	0.177771	-0.209267	-0.019696	-0.961362	-2.294802	-24.164936	-158.555620
11470		4.135128	-0.397062	8.801046	-0.172893	-0.020081	-0.082062	0.002442	0.052947	-0.001747	-0.488525	0.123779	-0.457275	0.041375	-0.003972	0.087999	0.177764	-0.209050	-0.019670	-0.961411	-2.292407	-24.139418	-158.558457
11471		4.130647	-0.396851	8.803160	-0.172720	-0.020002	-0.082059	0.001258	0.048990	-0.000570	-0.487061	0.119873	-0.460693	0.041328	-0.003969	0.088021	0.177765	-0.208822	-0.019635	-0.961461	-2.290973	-24.112504	-158.560272
11472		4.081804	-0.383515	8.820017	-0.123486	-0.015562	-0.087184	0.002303	0.047140	-0.001066	-0.480957	0.126465	-0.462158	0.040839	-0.003836	0.088191	0.177764	-0.208638	-0.019606	-0.961502	-2.289761	-24.090696	-158.562051
11473		4.102668	-0.403470	8.834574	-0.146623	-0.003475	-0.064720	0.001823	0.046076	-0.002884	-0.481689	0.116699	-0.464355	0.041047	-0.004036	0.088336	0.177754	-0.208424	-0.019579	-0.961551	-2.287446	-24.065510	-158.565240
11474		4.029109	-0.369518	8.838608	-0.074191	-0.011080	-0.092316	0.007068	0.044201	-0.006864	-0.492432	0.124023	-0.460205	0.040310	-0.003700	0.088377	0.177731	-0.208243	-0.019582	-0.961594	-2.282011	-24.044816	-158.570396
11475		4.027954	-0.382298	8.860447	-0.073141	0.003129	-0.072425	0.007777	0.042109	-0.003382	-0.473389	0.123779	-0.466797	0.040298	-0.003827	0.088596	0.177725	-0.208043	-0.019587	-0.961638	-2.276203	-24.021908	-158.573792
11476		3.932300	-0.341521	8.871673	0.023553	-0.002365	-0.102608	0.007188	0.042628	-0.006036	-0.478516	0.118408	-0.473389	0.039342	-0.003420	0.088708	0.177705	-0.207873	-0.019590	-0.961679	-2.271183	-24.002515	-158.578334
11477		3.902788	-0.288800	8.911749	0.078535	-0.037636	-0.079916	0.013521	0.046306	-0.012031	-0.480469	0.123291	-0.464355	0.039048	-0.002896	0.089108	0.177664	-0.207647	-0.019628	-0.961734	-2.259846	-23.977400	-158.587244
11478		4.038873	-0.385123	8.858414	-0.095681	0.001427	-0.069836	0.011956	0.039687	-0.011831	-0.485352	0.127197	-0.464844	0.040406	-0.003859	0.088576	0.177621	-0.207477	-0.019666	-0.961778	-2.249929	-23.958845	-158.595610
11479		4.169466	-0.422995	8.815862	-0.240616	-0.011223	-0.054369	0.012069	0.038107	-0.010998	-0.483643	0.118896	-0.463379	0.041711	-0.004238	0.088150	0.177582	-0.207291	-0.019704	-0.961825	-2.239776	-23.938391	-158.603659
11480		4.176610	-0.433469	8.778187	-0.267981	-0.007490	-0.085578	0.014261	0.032808	-0.011138	-0.475098	0.127686	-0.461670	0.041780	-0.004343	0.087775	0.177543	-0.207167	-0.019755	-0.961858	-2.229482	-23.925320	-158.611298
11481		4.014123	-0.340646	8.861897	-0.067887	-0.030031	-0.078370	0.017989	0.031719	-0.016436	-0.479004	0.122070	-0.460938	0.040155	-0.003418	0.088612	0.177483	-0.207007	-0.019832	-0.961902	-2.214631	-23.908649	-158.622586
11482		3.994177	-0.359280	8.910765	-0.041034	0.000447	-0.041169	0.015198	0.032544	-0.012468	-0.476807	0.119873	-0.468262	0.039956	-0.003602	0.089101	0.177442	-0.206881	-0.019886	-0.961935	-2.204004	-23.895427	-158.630563
11483		3.931406	-0.304673	8.925685	0.034032	-0.027039	-0.054883	0.018073	0.027723	-0.020556	-0.485107	0.116699	-0.462646	0.039326	-0.003059	0.089251	0.177362	-0.206739	-0.019971	-0.961979	-2.188115	-23.881130	-158.644319
11484		3.884407	-0.289300	8.941418	0.083199	-0.022481	-0.060055	0.016428	0.025102	-0.016236	-0.482178	0.125488	-0.464844	0.038855	-0.002903	0.089409	0.177298	-0.206644	-0.020052	-0.962009	-2.174312	-23.872161	-158.655494
11485		3.927106	-0.300410	8.927722	0.035006	-0.026645	-0.054886	0.013230	0.020846	-0.018195	-0.483643	0.120361	-0.465820	0.039280	-0.003014	0.089273	0.177224	-0.206540	-0.020118	-0.962044	-2.161862	-23.861745	-158.667606
11486		3.971039	-0.342767	8.862932	-0.044037	-0.007383	-0.094858	0.016835	0.016344	-0.017837	-0.483887	0.118652	-0.470703	0.039717	-0.003439	0.088626	0.177154	-0.206488	-0.020203	-0.962066	-2.148515	-23.857772	-158.678981
11487		4.166779	-0.446013	8.826235	-0.262963	0.021672	-0.045714	0.014226	0.011574	-0.017143	-0.481445	0.117920	-0.472412	0.041673	-0.004470	0.088260	0.177085	-0.206427	-0.020281	-0.962090	-2.135858	-23.852643	-158.690208
11488		4.160847	-0.416850	8.786474	-0.264076	-0.006312	-0.085470	0.013962	0.007329	-0.017280	-0.487061	0.114990	-0.460693	0.041611	-0.004178	0.087863	0.177013	-0.206413	-0.020367	-0.962105	-2.123268	-23.853059	-158.701547
11489		4.035621	-0.356448	8.842377	-0.115574	-0.013304	-0.087083	0.013483	0.006257	-0.019096	-0.480225	0.116455	-0.468506	0.040359	-0.003574	0.088422	0.176933	-0.206378	-0.020448	-0.962125	-2.110584	-23.851005	-158.713877
11490		3.852931	-0.257113	8.931817	0.109486	-0.033438	-0.082557	0.017569	0.002830	-0.016921	-0.478027	0.117676	-0.466309	0.038530	-0.002582	0.089317	0.176862	-0.206398	-0.020556	-0.962132	-2.096194	-23.855793	-158.725179
11491		3.757117	-0.170541	8.971881	0.236140	-0.076479	-0.087563	0.009726	0.004931	-0.018756	-0.479004	0.120605	-0.468506	0.037573	-0.001713	0.089718	0.176780	-0.206374	-0.020620	-0.962151	-2.085751	-23.854496	-158.737275
11492		3.801663	-0.182339	8.957390	0.188411	-0.080591	-0.082388	0.006426	-0.000322	-0.010104	-0.477051	0.114502	-0.467529	0.038016	-0.001828	0.089574	0.176737	-0.206401	-0.020662	-0.962152	-2.080242	-23.858653	-158.743235
11493		4.011546	-0.312366	8.901213	-0.057913	-0.033852	-0.044516	0.003863	0.002322	-0.010951	-0.476074	0.117432	-0.465820	0.040116	-0.003128	0.089012	0.176687	-0.206395	-0.020692	-0.962162	-2.075161	-23.858679	-158.750381
11494		4.044111	-0.330406	8.854836	-0.109891	-0.032170	-0.073129	0.002105	0.001281	-0.007464	-0.488037	0.113281	-0.468750	0.040442	-0.003307	0.088548	0.176650	-0.206414	-0.020717	-0.962164	-2.071658	-23.861468	-158.755364
11495		4.019010	-0.309820	8.842093	-0.086432	-0.044105	-0.095608	0.002584	0.002355	-0.005650	-0.480713	0.120850	-0.466309	0.040191	-0.003100	0.088420	0.176623	-0.206409	-0.020735	-0.962169	-2.068646	-23.861356	-158.759196
11496		3.955199	-0.334791	8.833281	-0.043709	0.000059	-0.128647	0.001651	0.002628	-0.004327	-0.476074	0.119873	-0.472900	0.039553	-0.003349	0.088332	0.176597	-0.206438	-0.020754	-0.962167	-2.066435	-23.865184	-158.762577
11497		3.951322	-0.289741	8.864254	-0.012891	-0.037324	-0.103396	-0.003368	0.006328	-0.005180	-0.477295	0.119385	-0.471191	0.039516	-0.002897	0.088641	0.176567	-0.206419	-0.020739	-0.962177	-2.066912	-23.862797	-158.766208
11498		3.938355	-0.295411	8.832799	-0.016683	-0.031659	-0.137205	-0.000842	0.015112	-0.001767	-0.472656	0.114746	-0.463623	0.039390	-0.002954	0.088325	0.176564	-0.206364	-0.020722	-0.962190	-2.067541	-23.856046	-158.766803
11499		3.929146	-0.296765	8.892728	0.012701	-0.020978	-0.086112	0.002464	0.017790	0.001028	-0.479492	0.124268	-0.466064	0.039299	-0.002969	0.088924	0.176571	-0.206285	-0.020719	-0.962206	-2.066150	-23.846944	-158.766798
11500		4.007531	-0.341947	8.852584	-0.086580	-0.009585	-0.089627	-0.001164	0.019873	-0.004288	-0.476074	0.118408	-0.464844	0.040084	-0.003420	0.088522	0.176553	-0.206225	-0.020699	-0.962222	-2.066678	-23.839564	-158.769264
11501		4.073244	-0.361858	8.831370	-0.158955	-0.015864	-0.081817	-0.007773	0.011939	0.001568	-0.475342	0.110840	-0.467529	0.040738	-0.003615	0.088311	0.176551	-0.206184	-0.020651	-0.962233	-2.071352	-23.833800	-158.768781
11502		4.062647	-0.381561	8.820128	-0.161676	0.004334	-0.095734	-0.003186	0.014585	-0.000936	-0.479004	0.109375	-0.459473	0.040633	-0.003814	0.088198	0.176537	-0.206145	-0.020638	-0.962244	-2.071554	-23.829147	-158.770666
11503		3.999224	-0.389336	8.882847	-0.087154	0.039047	-0.063779	-0.001988	0.018561	-0.002126	-0.480469	0.115479	-0.465820	0.040000	-0.003893	0.088825	0.176524	-0.206067	-0.020617	-0.962263	-2.071905	-23.819664	-158.772655
11504		3.944124	-0.304152	8.888696	-0.009006	-0.021773	-0.083505	0.000360	0.019092	-0.002958	-0.479980	0.123779	-0.468018	0.039450	-0.003042	0.088883	0.176494	-0.206027	-0.020627	-0.962277	-2.068853	-23.815434	-158.777160
11505		3.830752	-0.271339	8.925685	0.112075	-0.011101	-0.096543	0.001032	0.014573	-0.004416	-0.475586	0.118652	-0.465576	0.038314	-0.002715	0.089254	0.176473	-0.205965	-0.020626	-0.962294	-2.066911	-23.808305	-158.780511
11506		3.969644	-0.368591	8.872099	-0.062002	0.027642	-0.086256	0.003644	0.019352	-0.005114	-0.482666	0.125000	-0.472412	0.039705	-0.003689	0.088717	0.176461	-0.205904	-0.020618	-0.962310	-2.066062	-23.801180	-158.782450
11507		4.236819	-0.446302	8.785659	-0.352007	0.002308	-0.054936	0.003010	0.012442	-0.006222	-0.475098	0.114258	-0.462646	0.042374	-0.004466	0.087854	0.176433	-0.205850	-0.020630	-0.962326	-2.062574	-23.795306	-158.786864
11508		4.083500	-0.353443	8.808452	-0.180512	-0.030909	-0.099028	0.010375	0.009272	-0.006195	-0.484619	0.120850	-0.468018	0.040839	-0.003540	0.088082	0.176417	-0.205836	-0.020673	-0.962331	-2.056700	-23.794598	-158.790094
11509		4.065361	-0.373238	8.856395	-0.154338	-0.000432	-0.061874	0.005116	0.011146	-0.002237	-0.479248	0.109619	-0.469482	0.040659	-0.003735	0.088562	0.176411	-0.205787	-0.020692	-0.962342	-2.053036	-23.789385	-158.791974
11510		3.863715	-0.222568	8.924379	0.096192	-0.066377	-0.085986	0.006508	0.009527	-0.006697	-0.473877	0.114014	-0.468750	0.038641	-0.002230	0.089242	0.176373	-0.205781	-0.020739	-0.962350	-2.046271	-23.789726	-158.797909
11511		3.791418	-0.248688	8.974991	0.167495	-0.011873	-0.067999	0.004638	0.010072	-0.004052	-0.476563	0.120117	-0.469482	0.037919	-0.002490	0.089748	0.176357	-0.205737	-0.020758	-0.962362	-2.042417	-23.785175	-158.800915
11512		3.893297	-0.300000	8.927288	0.043660	-0.002585	-0.068852	0.003547	0.004508	-0.002021	-0.481934	0.119385	-0.471436	0.038935	-0.003002	0.089272	0.176354	-0.205728	-0.020775	-0.962364	-2.040044	-23.784490	-158.801795
11513		4.107443	-0.383923	8.843241	-0.201218	-0.003888	-0.056618	0.004589	0.002648	-0.002503	-0.475342	0.127930	-0.467285	0.041076	-0.003842	0.088432	0.176344	-0.205720	-0.020800	-0.962367	-2.036675	-23.784137	-158.803662
11514		4.165389	-0.422246	8.809676	-0.276163	0.009060	-0.062672	0.002649	-0.006654	-0.003259	-0.477539	0.122070	-0.466309	0.041651	-0.004224	0.088098	0.176348	-0.205786	-0.020793	-0.962352	-2.039267	-23.791574	-158.802204
11515		4.022613	-0.310438	8.843567	-0.102071	-0.043899	-0.092907	0.007979	0.001320	-0.003816	-0.481689	0.120850	-0.465576	0.040227	-0.003109	0.088435	0.176336	-0.205782	-0.020836	-0.962354	-2.033677	-23.792003	-158.804830
11516		4.006913	-0.270379	8.842541	-0.074394	-0.075835	-0.101472	0.005524	0.002376	-0.003826	-0.479492	0.118896	-0.465576	0.040070	-0.002707	0.088425	0.176330	-0.205822	-0.020848	-0.962346	-2.033022	-23.796906	-158.805438
11517		3.931688	-0.251962	8.923632	0.027582	-0.058800	-0.058271	0.000955	0.002150	0.003628	-0.480957	0.114502	-0.467773	0.039318	-0.002519	0.089236	0.176346	-0.205820	-0.020848	-0.962344	-2.033356	-23.796726	-158.803406
11518		3.894381	-0.237723	8.879019	0.047596	-0.064692	-0.114582	-0.002650	0.006654	0.003259	-0.472412	0.112549	-0.461670	0.038947	-0.002375	0.088789	0.176349	-0.205841	-0.020841	-0.962339	-2.034852	-23.798924	-158.802701
11519		3.989472	-0.322932	8.839665	-0.078695	-0.021487	-0.109431	-0.006868	0.006668	0.006735	-0.476318	0.115479	-0.462158	0.039898	-0.003225	0.088395	0.176372	-0.205825	-0.020796	-0.962339	-2.040403	-23.796108	-158.798835
11520		4.008742	-0.316731	8.812519	-0.103084	-0.037118	-0.126676	-0.007345	0.005593	0.004920	-0.480225	0.116699	-0.462402	0.040090	-0.003163	0.088124	0.176374	-0.205847	-0.020774	-0.962335	-2.043669	-23.798083	-158.797812
11521		3.987283	-0.293329	8.891027	-0.046211	-0.044095	-0.064315	-0.008387	0.007453	0.005402	-0.479004	0.111572	-0.469727	0.039876	-0.002928	0.088909	0.176390	-0.205828	-0.020723	-0.962337	-2.049726	-23.794855	-158.794816
11522		3.939123	-0.267621	8.885718	0.002014	-0.053205	-0.089444	-0.006603	0.010919	0.006866	-0.473633	0.115234	-0.470947	0.039396	-0.002672	0.088855	0.176396	-0.205829	-0.020705	-0.962336	-2.052148	-23.794518	-158.793554
11523		3.806340	-0.243014	8.949668	0.148196	-0.026284	-0.085346	-0.010118	0.011414	0.002386	-0.471680	0.119141	-0.467285	0.038069	-0.002425	0.089495	0.176396	-0.205793	-0.020646	-0.962345	-2.058372	-23.789100	-158.792557
11524		3.972586	-0.301945	8.860259	-0.049559	-0.037583	-0.098114	-0.011776	0.008785	0.006712	-0.474609	0.118408	-0.472168	0.039730	-0.003013	0.088601	0.176426	-0.205754	-0.020577	-0.962349	-2.066473	-23.783044	-158.787575
11525		4.124207	-0.395210	8.838411	-0.220040	-0.004239	-0.053878	-0.010840	0.008513	0.005389	-0.471924	0.122070	-0.468994	0.041246	-0.003946	0.088383	0.176440	-0.205732	-0.020514	-0.962353	-2.073892	-23.779183	-158.784630
11526		4.153760	-0.401318	8.772223	-0.273522	-0.017393	-0.102304	-0.008969	0.007969	0.002744	-0.477783	0.116943	-0.463867	0.041541	-0.004009	0.087721	0.176466	-0.205696	-0.020444	-0.962357	-2.082061	-23.773494	-158.780134
11527		4.122682	-0.397244	8.839032	-0.219900	-0.004582	-0.053875	-0.009426	0.009317	0.005881	-0.477051	0.119629	-0.464844	0.041231	-0.003967	0.088389	0.176483	-0.205669	-0.020386	-0.962361	-2.088805	-23.769118	-158.776878
11528		3.849506	-0.274874	8.956953	0.102132	-0.016367	-0.060223	-0.005313	0.010890	0.001566	-0.471191	0.121582	-0.464844	0.038500	-0.002746	0.089568	0.176481	-0.205684	-0.020351	-0.962359	-2.093333	-23.770044	-158.776123
11529		3.788433	-0.223182	8.970612	0.177165	-0.043874	-0.074074	-0.007926	0.006110	0.002262	-0.471924	0.115479	-0.464355	0.037887	-0.002228	0.089705	0.176482	-0.205671	-0.020307	-0.962362	-2.098341	-23.767604	-158.775057
11530		3.941330	-0.347854	8.897750	-0.024671	0.012605	-0.074912	-0.016364	0.006141	0.009208	-0.473633	0.116699	-0.471436	0.039416	-0.003469	0.088977	0.176519	-0.205676	-0.020206	-0.962356	-2.111520	-23.765971	-158.767860
11531		4.076046	-0.419518	8.803726	-0.201182	0.023286	-0.104200	-0.004623	0.008790	0.005062	-0.482178	0.117676	-0.469727	0.040764	-0.004192	0.088036	0.176538	-0.205648	-0.020173	-0.962360	-2.115329	-23.761921	-158.765092
11532		4.027217	-0.362132	8.849177	-0.121828	-0.009495	-0.084244	-0.006320	0.001315	-0.000516	-0.479736	0.126221	-0.469727	0.040273	-0.003619	0.088492	0.176520	-0.205667	-0.020160	-0.962359	-2.116893	-23.763845	-158.766814
11533		3.892566	-0.323438	8.892637	0.023413	0.003277	-0.100061	-0.003123	0.005582	0.001444	-0.472168	0.113037	-0.463135	0.038928	-0.003233	0.088925	0.176522	-0.205652	-0.020140	-0.962363	-2.118943	-23.761696	-158.766247
11534		3.833220	-0.253700	8.977250	0.131642	-0.033506	-0.048953	-0.003123	0.005582	0.001444	-0.474121	0.123779	-0.469238	0.038335	-0.002535	0.089771	0.176532	-0.205668	-0.020110	-0.962358	-2.123231	-23.762938	-158.764073
11535		3.938995	-0.350845	8.898666	-0.023016	0.013223	-0.074909	-0.003847	0.002678	0.004446	-0.475830	0.117920	-0.465332	0.039391	-0.003506	0.088986	0.176547	-0.205668	-0.020086	-0.962356	-2.126496	-23.762393	-158.761548
11536		4.153559	-0.435792	8.814600	-0.267445	0.011498	-0.062432	-0.004485	-0.004235	0.003338	-0.476318	0.125000	-0.461426	0.041534	-0.004355	0.088147	0.176575	-0.205720	-0.020045	-0.962340	-2.133422	-23.767353	-158.756526
11537		4.209340	-0.461213	8.760749	-0.343996	0.010854	-0.088309	0.001463	-0.008214	0.002880	-0.477539	0.116699	-0.466553	0.042090	-0.004612	0.087609	0.176587	-0.205767	-0.020058	-0.962328	-2.133379	-23.773068	-158.754704
11538		4.107206	-0.409221	8.808481	-0.218376	0.001534	-0.087552	0.003389	-0.001332	-0.001310	-0.475830	0.115723	-0.464355	0.041071	-0.004094	0.088085	0.176591	-0.205843	-0.020058	-0.962311	-2.135298	-23.781737	-158.753324
11539		3.832607	-0.272079	8.905812	0.101689	-0.024594	-0.113953	0.003494	-0.002920	-0.000470	-0.471436	0.120850	-0.469482	0.038325	-0.002722	0.089059	0.176590	-0.205863	-0.020079	-0.962306	-2.133228	-23.784523	-158.753702
11540		3.851542	-0.233521	8.929360	0.108462	-0.064070	-0.086100	0.002578	-0.000226	0.005803	-0.477295	0.121338	-0.468750	0.038515	-0.002335	0.089294	0.176623	-0.205876	-0.020089	-0.962297	-2.133257	-23.786139	-158.749712
11541		4.000036	-0.329863	8.815993	-0.095495	-0.035735	-0.126593	0.000919	-0.002857	0.010127	-0.471436	0.119629	-0.462158	0.039999	-0.003297	0.088160	0.176670	-0.205899	-0.020087	-0.962284	-2.135334	-23.788642	-158.743459
11542		4.025074	-0.350536	8.828805	-0.117956	-0.023982	-0.104062	-0.003988	-0.000738	0.010104	-0.464844	0.127686	-0.464844	0.040251	-0.003502	0.088288	0.176729	-0.205943	-0.020039	-0.962264	-2.143667	-23.792545	-158.734496
11543		3.967150	-0.312663	8.862323	-0.041992	-0.037354	-0.098078	-0.007587	0.003771	0.009733	-0.468506	0.128418	-0.460449	0.039673	-0.003121	0.088623	0.176767	-0.205942	-0.019990	-0.962259	-2.150482	-23.791259	-158.728624
11544		3.816785	-0.235028	8.904794	0.130203	-0.058923	-0.122588	-0.003453	0.007764	0.010372	-0.475830	0.119873	-0.462646	0.038171	-0.002347	0.089046	0.176904	-0.205915	-0.019840	-0.962242	-2.171521	-23.784671	-158.708087
11545		3.793736	-0.229625	8.912271	0.154553	-0.056763	-0.125240	-0.011432	0.006452	0.014178	-0.473877	0.110596	-0.468750	0.037940	-0.002288	0.089122	0.176960	-0.205905	-0.019765	-0.962236	-2.181759	-23.781706	-158.699394
11546		4.054633	-0.342523	8.834226	-0.137583	-0.047045	-0.087474	-0.011038	0.011538	0.020103	-0.472656	0.118164	-0.448975	0.040552	-0.003416	0.088340	0.177008	-0.205888	-0.019734	-0.962231	-2.186292	-23.779044	-158.692928
11547		4.132025	-0.407674	8.722976	-0.269961	-0.026522	-0.155744	-0.017916	0.015796	0.021880	-0.474609	0.109131	-0.468750	0.041328	-0.004064	0.087227	0.177095	-0.205839	-0.019612	-0.962228	-2.202044	-23.770563	-158.679683
11548		4.039773	-0.352580	8.803476	-0.140257	-0.039601	-0.121247	-0.014714	0.020065	0.023839	-0.474609	0.124023	-0.458252	0.040407	-0.003515	0.088031	0.177138	-0.205843	-0.019565	-0.962220	-2.208953	-23.769837	-158.673152
11549		3.925787	-0.322055	8.840395	-0.019196	-0.028956	-0.134521	-0.015024	0.024834	0.021317	-0.463623	0.119385	-0.472412	0.039269	-0.003210	0.088399	0.177226	-0.205748	-0.019449	-0.962227	-2.222757	-23.756247	-158.660535
11550		3.785540	-0.240109	8.915480	0.156546	-0.054450	-0.125259	-0.017577	0.027489	0.020462	-0.476318	0.129883	-0.470947	0.037868	-0.002389	0.089150	0.177343	-0.205625	-0.019287	-0.962235	-2.242225	-23.738265	-158.643527
11551		4.017910	-0.393906	8.873872	-0.112920	0.004303	-0.064272	-0.019921	0.026967	0.021286	-0.468018	0.123291	-0.467773	0.040191	-0.003926	0.088734	0.177426	-0.205524	-0.019146	-0.962244	-2.258827	-23.723405	-158.630961
11552		4.031918	-0.466820	8.824991	-0.170843	0.057810	-0.100725	-0.014286	0.027750	0.018310	-0.470215	0.125732	-0.467773	0.040332	-0.004658	0.088245	0.177565	-0.205400	-0.018962	-0.962248	-2.281523	-23.704867	-158.610573
11553		3.977304	-0.365903	8.902285	-0.060905	-0.012816	-0.055657	-0.014592	0.032523	0.015789	-0.467773	0.117920	-0.467529	0.039788	-0.003649	0.089017	0.177628	-0.205267	-0.018847	-0.962267	-2.293697	-23.686899	-158.601530
11554		3.882451	-0.327741	8.912129	0.034546	-0.018902	-0.086160	-0.011680	0.030115	0.012665	-0.470703	0.127686	-0.470703	0.038838	-0.003270	0.089116	0.177700	-0.205113	-0.018736	-0.962289	-2.305120	-23.666689	-158.591739
11555		3.940086	-0.381912	8.899884	-0.040143	0.008694	-0.072236	-0.013821	0.026414	0.015167	-0.465332	0.119141	-0.460205	0.039413	-0.003810	0.088994	0.177761	-0.205008	-0.018631	-0.962302	-2.316761	-23.652182	-158.582924
11556		4.072167	-0.423178	8.857753	-0.184971	-0.004772	-0.056296	-0.013615	0.023237	0.016844	-0.467773	0.118164	-0.462646	0.040732	-0.004222	0.088573	0.177861	-0.204914	-0.018494	-0.962306	-2.333442	-23.638159	-158.568282
11557		4.127924	-0.463669	8.825214	-0.260606	0.008672	-0.062243	-0.009770	0.020552	0.012404	-0.464844	0.114258	-0.466553	0.041289	-0.004630	0.088248	0.177912	-0.204833	-0.018416	-0.962316	-2.342157	-23.627039	-158.561022
11558		4.030470	-0.379927	8.865525	-0.134586	-0.033284	-0.067569	-0.004135	0.021330	0.009436	-0.469727	0.120850	-0.465088	0.040314	-0.003796	0.088651	0.177913	-0.204724	-0.018421	-0.962339	-2.338768	-23.614551	-158.562394
11559		3.916743	-0.347781	8.902110	-0.013552	-0.022642	-0.080848	-0.004989	0.017593	0.006644	-0.466797	0.118164	-0.466309	0.039175	-0.003474	0.089018	0.177941	-0.204652	-0.018375	-0.962350	-2.343269	-23.605231	-158.558699
11560		3.937669	-0.355059	8.895569	-0.037615	-0.024330	-0.078190	-0.005365	0.014929	0.005668	-0.468262	0.119141	-0.469971	0.039383	-0.003547	0.088953	0.177952	-0.204595	-0.018349	-0.962360	-2.345266	-23.598089	-158.557371
11561		4.039089	-0.407821	8.848379	-0.161613	-0.015114	-0.078828	-0.005061	0.010159	0.008186	-0.463623	0.116699	-0.464600	0.040396	-0.004074	0.088482	0.177986	-0.204559	-0.018308	-0.962362	-2.350250	-23.592973	-158.552536
11562		3.968694	-0.375139	8.850085	-0.090796	-0.022273	-0.106682	-0.004502	0.007220	0.005891	-0.469482	0.117432	-0.458252	0.039690	-0.003748	0.088500	0.177992	-0.204496	-0.018309	-0.962375	-2.348670	-23.585777	-158.552635
11563		3.844449	-0.299516	8.976215	0.090258	-0.038461	-0.043741	-0.001952	0.004564	0.006747	-0.463623	0.125977	-0.467285	0.038447	-0.002993	0.089761	0.178022	-0.204484	-0.018289	-0.962372	-2.351527	-23.583849	-158.548580
11564		3.789654	-0.305527	8.978894	0.136151	-0.014635	-0.062989	0.004416	0.008244	0.000785	-0.469971	0.121094	-0.463623	0.037900	-0.003057	0.089787	0.178045	-0.204478	-0.018287	-0.962369	-2.352234	-23.583076	-158.545717
11565		3.956668	-0.363620	8.889839	-0.061328	-0.025926	-0.075529	-0.001771	-0.001041	0.003477	-0.466553	0.128174	-0.473633	0.039566	-0.003635	0.088899	0.178059	-0.204492	-0.018276	-0.962364	-2.354249	-23.584435	-158.543545
11566		4.146589	-0.428696	8.793388	-0.283047	-0.040397	-0.085411	-0.003084	-0.003430	0.003820	-0.464600	0.131836	-0.464844	0.041464	-0.004285	0.087935	0.178121	-0.204505	-0.018218	-0.962351	-2.363221	-23.584513	-158.534181
11567		4.070176	-0.428291	8.802871	-0.213651	-0.014214	-0.107304	0.002092	-0.001307	0.003990	-0.468750	0.122070	-0.466064	0.040701	-0.004283	0.088029	0.178142	-0.204517	-0.018225	-0.962344	-2.363195	-23.585975	-158.531642
11568		3.885161	-0.317182	8.870872	0.010301	-0.050493	-0.123271	-0.000835	-0.001315	0.002158	-0.472168	0.114258	-0.462158	0.038851	-0.003171	0.088709	0.178226	-0.204546	-0.018141	-0.962324	-2.376152	-23.587281	-158.518766
11569		3.832091	-0.305702	8.944447	0.088124	-0.035611	-0.077571	0.000855	0.003739	0.002791	-0.466797	0.118652	-0.462402	0.038323	-0.003057	0.089444	0.178241	-0.204535	-0.018138	-0.962324	-2.376563	-23.585860	-158.517039
11570		4.030905	-0.351525	8.860110	-0.129405	-0.066974	-0.073484	-0.002429	0.003490	0.004932	-0.464355	0.127686	-0.464844	0.040311	-0.003513	0.088600	0.178189	-0.204588	-0.018192	-0.962321	-2.370107	-23.593352	-158.524127
11571		4.252449	-0.526922	8.714877	-0.435725	0.006509	-0.111134	-0.006826	-0.002330	0.009095	-0.468262	0.125244	-0.470703	0.042524	-0.005264	0.087149	0.178225	-0.204614	-0.018152	-0.962310	-2.376496	-23.595297	-158.518361
11572		4.002461	-0.410191	8.824497	-0.139028	-0.009283	-0.115250	-0.000080	0.004015	0.004109	-0.474609	0.122070	-0.470703	0.040026	-0.004101	0.088244	0.178320	-0.204581	-0.018072	-0.962300	-2.387772	-23.589488	-158.504952
11573		3.885349	-0.301172	8.942383	0.044376	-0.059401	-0.058337	0.003105	0.005854	0.001129	-0.466064	0.118164	-0.466309	0.038856	-0.003013	0.089423	0.178329	-0.204557	-0.018080	-0.962304	-2.386461	-23.586888	-158.504313
11574		3.705470	-0.248476	8.999901	0.237860	-0.041613	-0.079643	-0.000838	0.010136	0.004724	-0.465088	0.126709	-0.462646	0.037059	-0.002484	0.089997	0.178327	-0.204521	-0.018096	-0.962312	-2.383488	-23.583129	-158.505497
11575		4.025432	-0.430808	8.838250	-0.161901	0.003551	-0.092701	-0.001373	0.004050	0.009401	-0.464355	0.122070	-0.460693	0.040256	-0.004306	0.088382	0.178371	-0.204510	-0.018076	-0.962306	-2.386795	-23.581353	-158.499668
11576		4.112199	-0.443890	8.789736	-0.258480	-0.020073	-0.101897	-0.001593	0.004806	0.002773	-0.465332	0.123047	-0.469238	0.041124	-0.004438	0.087896	0.178428	-0.204532	-0.018011	-0.962292	-2.396696	-23.582311	-158.490662
11577		4.031606	-0.398553	8.830404	-0.158369	-0.031344	-0.098643	0.001334	0.004814	0.004605	-0.468506	0.124512	-0.468262	0.040318	-0.003985	0.088303	0.178452	-0.204515	-0.018007	-0.962291	-2.397300	-23.580214	-158.487806
11578		3.769197	-0.286601	8.908258	0.133716	-0.040434	-0.136607	0.001870	0.010902	-0.000071	-0.461914	0.121582	-0.466064	0.037697	-0.002867	0.089080	0.178489	-0.204437	-0.017981	-0.962301	-2.399494	-23.570541	-158.483487
11579		3.882604	-0.333335	8.893041	0.013921	-0.036937	-0.103396	-0.001772	0.010413	0.006042	-0.457031	0.122559	-0.472168	0.038831	-0.003331	0.088928	0.178518	-0.204395	-0.017956	-0.962305	-2.402197	-23.565156	-158.479857
11580		4.076302	-0.425865	8.837328	-0.208398	-0.023173	-0.073489	-0.002150	0.007748	0.005066	-0.467041	0.129883	-0.469482	0.040767	-0.004257	0.088372	0.178581	-0.204230	-0.017913	-0.962330	-2.404829	-23.545089	-158.472975
11581		4.073164	-0.412714	8.817557	-0.209230	-0.037314	-0.093369	-0.002030	0.008583	0.010854	-0.464355	0.125000	-0.464355	0.040736	-0.004124	0.088174	0.178632	-0.204197	-0.017883	-0.962328	-2.408898	-23.540509	-158.466272
11582		3.889638	-0.315411	8.905926	0.015442	-0.059610	-0.089493	0.001614	0.009072	0.004741	-0.465576	0.122070	-0.464844	0.038900	-0.003154	0.089057	0.178748	-0.204160	-0.017794	-0.962316	-2.421724	-23.534020	-158.450140
11583		4.013692	-0.374418	8.851610	-0.132774	-0.052644	-0.087436	-0.002706	0.010691	0.007359	-0.475342	0.118652	-0.464355	0.040142	-0.003742	0.088514	0.178783	-0.204117	-0.017762	-0.962319	-2.425365	-23.528284	-158.445608
11584		4.128319	-0.452922	8.785413	-0.282820	-0.024490	-0.099240	-0.002965	0.008860	0.012170	-0.461426	0.122559	-0.477783	0.041287	-0.004525	0.087852	0.178790	-0.204169	-0.017773	-0.962306	-2.425558	-23.534476	-158.444330
11585		4.040316	-0.440729	8.834374	-0.185061	-0.001835	-0.090018	-0.000157	0.008033	0.008216	-0.463623	0.125244	-0.474365	0.040407	-0.004406	0.088342	0.178831	-0.204137	-0.017755	-0.962306	-2.427950	-23.530292	-158.439224
11586		3.856538	-0.343182	8.922792	0.035696	-0.023566	-0.086175	0.003788	0.015204	0.007188	-0.458496	0.119385	-0.468750	0.038572	-0.003432	0.089225	0.178928	-0.203879	-0.017726	-0.962343	-2.427476	-23.499858	-158.429575
11587		3.750450	-0.277527	8.950715	0.159001	-0.046836	-0.105437	-0.001768	0.010417	0.006039	-0.468506	0.123047	-0.470947	0.037509	-0.002773	0.089505	0.178957	-0.203835	-0.017701	-0.962347	-2.430218	-23.494198	-158.425866
11588		4.043153	-0.377667	8.878527	-0.155816	-0.060370	-0.051026	-0.002865	0.007272	0.013008	-0.468506	0.130859	-0.468018	0.040435	-0.003773	0.088784	0.179013	-0.203731	-0.017685	-0.962359	-2.430963	-23.481756	-158.419837
11589		4.016425	-0.449316	8.863275	-0.164631	0.013120	-0.072877	-0.001190	0.009902	0.008693	-0.460205	0.127686	-0.472168	0.040169	-0.004491	0.088631	0.179056	-0.203689	-0.017660	-0.962361	-2.434009	-23.476253	-158.414467
11590		3.872821	-0.337832	8.897136	0.009138	-0.042518	-0.103413	-0.000352	0.011218	0.006535	-0.463379	0.119385	-0.465332	0.038733	-0.003377	0.088969	0.179223	-0.203601	-0.017529	-0.962350	-2.451829	-23.462851	-158.391543
11591		3.789372	-0.278820	8.917806	0.108258	-0.067916	-0.120009	0.000682	0.009351	0.006057	-0.467773	0.124268	-0.467529	0.037898	-0.002787	0.089176	0.179255	-0.203559	-0.017515	-0.962354	-2.453252	-23.457660	-158.387716
11592		3.972512	-0.359493	8.901372	-0.082912	-0.056254	-0.058997	-0.003919	0.006715	0.008537	-0.458496	0.127197	-0.469238	0.039728	-0.003591	0.089012	0.179272	-0.203554	-0.017501	-0.962352	-2.455202	-23.456767	-158.385368
11593		4.179348	-0.478354	8.826770	-0.330215	-0.023977	-0.040378	-0.004278	0.006476	0.012509	-0.460938	0.129395	-0.469971	0.041797	-0.004779	0.088266	0.179330	-0.203531	-0.017460	-0.962347	-2.461082	-23.453061	-158.377451
11594		4.180003	-0.510130	8.775982	-0.363246	-0.003623	-0.085480	0.000977	0.004578	0.008576	-0.449707	0.126221	-0.465332	0.041802	-0.005100	0.087759	0.179506	-0.203412	-0.017343	-0.962341	-2.476708	-23.436378	-158.354178
11595		3.923485	-0.334017	8.896286	-0.036714	-0.069093	-0.084220	0.002936	0.011465	0.004397	-0.455566	0.119873	-0.466309	0.039240	-0.003341	0.088961	0.179534	-0.203357	-0.017339	-0.962348	-2.476471	-23.429906	-158.351372
11596		3.832830	-0.307572	8.925187	0.057174	-0.062027	-0.094815	0.001065	0.012019	0.007031	-0.461914	0.129883	-0.464355	0.038334	-0.003075	0.089250	0.179613	-0.203144	-0.017283	-0.962379	-2.479920	-23.403976	-158.342788
11597		4.025234	-0.417888	8.798712	-0.195300	-0.038296	-0.129978	-0.002025	0.008592	0.010847	-0.457764	0.126953	-0.464600	0.040256	-0.004176	0.087985	0.179666	-0.203107	-0.017251	-0.962377	-2.484167	-23.398848	-158.335847
11598		4.038593	-0.426636	8.851119	-0.189485	-0.032384	-0.076281	-0.001567	0.007240	0.007715	-0.466064	0.126709	-0.461182	0.040389	-0.004264	0.088510	0.179828	-0.203083	-0.017120	-0.962354	-2.503433	-23.392836	-158.312905
11599		3.823352	-0.341568	8.934356	0.055584	-0.030729	-0.088832	0.000783	0.007762	0.006895	-0.460205	0.121826	-0.463135	0.038237	-0.003415	0.089342	0.179866	-0.203047	-0.017106	-0.962355	-2.505199	-23.388248	-158.308323
11600		3.863869	-0.310299	8.951373	0.039858	-0.072536	-0.058406	-0.001089	0.008317	0.009529	-0.455811	0.130127	-0.472168	0.038643	-0.003101	0.089512	0.179921	-0.203101	-0.017065	-0.962334	-2.512830	-23.393444	-158.299814
11601		4.137878	-0.448925	8.855606	-0.280010	-0.046912	-0.031853	-0.002884	0.004851	0.008057	-0.461914	0.133057	-0.471436	0.041381	-0.004486	0.088555	0.179960	-0.203082	-0.017035	-0.962331	-2.517042	-23.390533	-158.294414
11602		4.123285	-0.441403	8.803711	-0.286768	-0.059516	-0.085618	-0.002765	0.005689	0.013842	-0.457031	0.126953	-0.466553	0.041236	-0.004410	0.088036	0.180220	-0.202936	-0.016846	-0.962317	-2.542590	-23.368891	-158.259499
11603		3.863268	-0.343184	8.901083	0.006642	-0.053471	-0.103465	0.001263	0.008839	0.008709	-0.456787	0.123779	-0.472412	0.038637	-0.003431	0.089009	0.180268	-0.202894	-0.016830	-0.962317	-2.544663	-23.363548	-158.253686
11604		3.809528	-0.258152	8.906324	0.081690	-0.116220	-0.123437	-0.004013	0.008313	0.007693	-0.453857	0.131104	-0.470703	0.038099	-0.002578	0.089062	0.180343	-0.202732	-0.016752	-0.962338	-2.551927	-23.343098	-158.244417
11605		3.998393	-0.397950	8.879248	-0.139714	-0.053904	-0.067733	-0.005309	0.008353	0.012980	-0.464600	0.133057	-0.470703	0.039988	-0.003975	0.088791	0.180405	-0.202697	-0.016700	-0.962335	-2.558840	-23.337808	-158.235897
11606		4.148554	-0.509276	8.787042	-0.343768	-0.015710	-0.088308	-0.003340	0.006207	0.011186	-0.457520	0.123779	-0.467285	0.041489	-0.005089	0.087869	0.180650	-0.202594	-0.016518	-0.962314	-2.584336	-23.321218	-158.202424
11607		3.975840	-0.423897	8.835876	-0.147978	-0.032368	-0.115432	-0.000149	0.008042	0.008211	-0.455322	0.133789	-0.470947	0.039762	-0.004237	0.088357	0.180695	-0.202555	-0.016495	-0.962314	-2.587237	-23.316129	-158.196758
11608		3.833601	-0.294703	8.940604	0.057124	-0.096722	-0.081032	-0.001181	0.009912	0.008687	-0.458008	0.129883	-0.471191	0.038341	-0.002945	0.089404	0.180840	-0.202410	-0.016378	-0.962320	-2.601349	-23.296538	-158.177783
11609		3.990735	-0.372943	8.840329	-0.143761	-0.088772	-0.107641	-0.002020	0.008599	0.010843	-0.454346	0.124268	-0.471924	0.039911	-0.003726	0.088402	0.180896	-0.202370	-0.016342	-0.962318	-2.606027	-23.290958	-158.170425
11610		4.065407	-0.465878	8.828588	-0.247801	-0.031418	-0.085090	-0.006168	0.004613	0.010189	-0.460938	0.129883	-0.464844	0.040656	-0.004654	0.088285	0.180992	-0.202210	-0.016244	-0.962335	-2.616229	-23.270211	-158.158163
11611		3.946755	-0.374530	8.875209	-0.097079	-0.072226	-0.093025	0.003330	0.014137	0.005371	-0.456055	0.130371	-0.465088	0.039474	-0.003746	0.088749	0.181028	-0.202137	-0.016234	-0.962344	-2.616451	-23.261478	-158.154336
11612		3.798263	-0.308767	8.937211	0.076642	-0.078936	-0.097556	0.002947	0.011470	0.004396	-0.458740	0.129883	-0.468018	0.037988	-0.003088	0.089370	0.181176	-0.202116	-0.016135	-0.962322	-2.631638	-23.256518	-158.133843
11613		3.951894	-0.342104	8.867915	-0.093482	-0.108518	-0.099094	-0.005785	0.007283	0.011161	-0.455811	0.122559	-0.477539	0.039522	-0.003416	0.088678	0.181231	-0.202085	-0.016081	-0.962319	-2.638673	-23.251545	-158.126140
11614		4.014802	-0.440640	8.824178	-0.201745	-0.044620	-0.110305	-0.006264	0.006207	0.009347	-0.459473	0.125732	-0.468018	0.040151	-0.004402	0.088241	0.181283	-0.201925	-0.016016	-0.962344	-2.643724	-23.231631	-158.120176
11615		3.911547	-0.388992	8.871771	-0.077614	-0.053694	-0.109547	-0.002593	0.009117	0.008187	-0.447754	0.127930	-0.468750	0.039120	-0.003887	0.088716	0.181327	-0.201880	-0.015979	-0.962346	-2.648167	-23.225573	-158.114366
11616		3.798735	-0.356172	8.907487	0.041405	-0.044119	-0.122646	-0.001657	0.008839	0.006871	-0.456055	0.129395	-0.468750	0.037991	-0.003560	0.089073	0.181391	-0.201734	-0.015909	-0.962366	-2.654461	-23.207040	-158.106626
11617		4.107987	-0.405187	8.839714	-0.266324	-0.112449	-0.060934	-0.004943	0.008599	0.009004	-0.450439	0.124268	-0.469971	0.041084	-0.004048	0.088395	0.181437	-0.201693	-0.015860	-0.962366	-2.660474	-23.201159	-158.100261
11618		4.245203	-0.491011	8.766622	-0.444296	-0.089475	-0.070455	-0.008614	0.005690	0.010162	-0.459717	0.129150	-0.473389	0.042455	-0.004904	0.087665	0.181507	-0.201554	-0.015761	-0.962384	-2.670593	-23.182808	-158.090929
11619		4.018063	-0.411614	8.817608	-0.203487	-0.081841	-0.116483	-0.003238	0.013658	0.009637	-0.459473	0.123047	-0.475586	0.040187	-0.004113	0.088173	0.181558	-0.201487	-0.015714	-0.962389	-2.675735	-23.173910	-158.084291
11620		3.731569	-0.261806	8.952887	0.142947	-0.110737	-0.111418	-0.005109	0.014216	0.012267	-0.462646	0.130371	-0.471924	0.037322	-0.002613	0.089526	0.181606	-0.201328	-0.015676	-0.962414	-2.677486	-23.154775	-158.079395
11621		3.914141	-0.343433	8.937000	-0.048795	-0.100338	-0.050722	-0.005972	0.010472	0.009478	-0.450684	0.133301	-0.472412	0.039146	-0.003430	0.089368	0.181654	-0.201278	-0.015620	-0.962416	-2.684162	-23.147624	-158.072770
11622		4.017080	-0.428220	8.839039	-0.205491	-0.070939	-0.096635	-0.010005	0.007327	0.014604	-0.458984	0.137207	-0.469971	0.040174	-0.004275	0.088389	0.181875	-0.201179	-0.015447	-0.962398	-2.707988	-23.131733	-158.042448
11623		3.928962	-0.416480	8.887672	-0.108013	-0.048304	-0.087107	-0.006812	0.009160	0.011632	-0.456543	0.131348	-0.473145	0.039294	-0.004159	0.088875	0.181933	-0.201135	-0.015385	-0.962397	-2.715762	-23.125190	-158.034370
11624		3.870376	-0.378365	8.921122	-0.032015	-0.064967	-0.081082	-0.005875	0.008882	0.010317	-0.458008	0.126221	-0.470947	0.038708	-0.003779	0.089210	0.182192	-0.201071	-0.015204	-0.962364	-2.742313	-23.113080	-157.998763
11625		4.091220	-0.432585	8.830780	-0.274709	-0.101373	-0.075021	-0.008682	0.009720	0.014262	-0.449707	0.134521	-0.471680	0.040917	-0.004319	0.088306	0.182261	-0.201026	-0.015129	-0.962362	-2.751904	-23.106084	-157.988969
11626		4.082257	-0.484232	8.768071	-0.311201	-0.060176	-0.133953	-0.009909	0.005740	0.015440	-0.463379	0.135010	-0.470703	0.040825	-0.004835	0.087680	0.182412	-0.200911	-0.014989	-0.962360	-2.769528	-23.089280	-157.968438
11627		3.888068	-0.375061	8.894890	-0.058793	-0.083763	-0.098454	-0.006060	0.012069	0.008637	-0.458008	0.134277	-0.478760	0.038886	-0.003746	0.088947	0.182457	-0.200851	-0.014929	-0.962364	-2.776254	-23.081001	-157.962167
11628		3.801195	-0.271887	8.946328	0.071398	-0.148992	-0.089905	-0.009616	0.010003	0.015574	-0.455811	0.136230	-0.479248	0.038017	-0.002712	0.089462	0.182720	-0.200795	-0.014754	-0.962329	-2.802377	-23.069875	-157.926135
11629		4.112285	-0.458271	8.845202	-0.299541	-0.094997	-0.052578	-0.009614	0.010004	0.015574	-0.460205	0.135010	-0.471436	0.041128	-0.004575	0.088450	0.182795	-0.200749	-0.014672	-0.962326	-2.812941	-23.062537	-157.915411
11630		4.010229	-0.438442	8.841649	-0.207638	-0.083739	-0.096783	-0.010842	0.006024	0.016752	-0.449707	0.130615	-0.474365	0.040105	-0.004376	0.088416	0.183075	-0.200664	-0.014473	-0.962293	-2.841601	-23.047474	-157.877040
11631		3.922301	-0.426864	8.890122	-0.110212	-0.061059	-0.087203	-0.008970	0.005466	0.014121	-0.450195	0.140625	-0.469238	0.039226	-0.004262	0.088900	0.183145	-0.200638	-0.014399	-0.962286	-2.851588	-23.042691	-157.866991
11632		3.884190	-0.382029	8.896287	-0.061255	-0.094646	-0.098569	-0.009542	0.005983	0.011468	-0.449219	0.130127	-0.469727	0.038845	-0.003814	0.088962	0.183381	-0.200483	-0.014179	-0.962277	-2.879926	-23.019255	-157.834441
11633		4.118327	-0.462367	8.786863	-0.331433	-0.113815	-0.103900	-0.009449	0.004391	0.012306	-0.453613	0.123047	-0.467285	0.041185	-0.004617	0.087868	0.183442	-0.200462	-0.014104	-0.962271	-2.889861	-23.015008	-157.825384
11634		3.985766	-0.437428	8.849353	-0.187068	-0.085661	-0.099480	-0.012162	0.003639	0.017088	-0.454102	0.134521	-0.469238	0.039860	-0.004365	0.088493	0.183404	-0.200390	-0.014049	-0.962294	-2.893582	-23.005643	-157.829765
11635		3.822810	-0.333431	8.909777	0.011984	-0.121811	-0.112471	-0.008697	0.007298	0.009313	-0.450684	0.140381	-0.473877	0.038232	-0.003329	0.089097	0.183452	-0.200354	-0.013979	-0.962293	-2.902278	-22.999763	-157.822685
11636		3.856258	-0.336355	8.934989	-0.008424	-0.133953	-0.076165	-0.014123	0.005794	0.018876	-0.453857	0.144287	-0.473877	0.038565	-0.003354	0.089349	0.183767	-0.200277	-0.013729	-0.962253	-2.938101	-22.984375	-157.778737
11637		4.018114	-0.443813	8.874883	-0.207762	-0.098548	-0.063180	-0.014602	0.004720	0.017060	-0.457275	0.135010	-0.474854	0.040184	-0.004428	0.088748	0.183846	-0.200259	-0.013623	-0.962243	-2.952211	-22.979658	-157.766652
11638		3.836181	-0.378227	8.911372	-0.015173	-0.098808	-0.103830	-0.012915	0.007347	0.012754	-0.453369	0.134277	-0.478027	0.038365	-0.003774	0.089113	0.184175	-0.200192	-0.013380	-0.962197	-2.987769	-22.965481	-157.720994
11639		3.829768	-0.321586	8.922568	0.014703	-0.150645	-0.098787	-0.017227	0.008987	0.015357	-0.455811	0.130371	-0.471924	0.038302	-0.003205	0.089224	0.184245	-0.200155	-0.013259	-0.962193	-3.003039	-22.958298	-157.709992
11640		4.168314	-0.469422	8.786083	-0.380365	-0.147890	-0.085205	-0.018340	0.005847	0.022312	-0.458252	0.135010	-0.471924	0.041686	-0.004682	0.087860	0.184350	-0.200055	-0.013123	-0.962196	-3.019313	-22.943485	-157.695103
11641		4.067004	-0.555272	8.799545	-0.319690	-0.033990	-0.108179	-0.016468	0.005288	0.019683	-0.447021	0.131348	-0.474365	0.040673	-0.005541	0.087995	0.184441	-0.200035	-0.013005	-0.962184	-3.035236	-22.938210	-157.681284
11642		4.032658	-0.433841	8.828733	-0.236772	-0.135759	-0.100706	-0.019091	0.009556	0.017981	-0.451660	0.134277	-0.471924	0.040331	-0.004326	0.088286	0.184541	-0.199933	-0.012850	-0.962188	-3.053614	-22.922656	-157.666623
11643		3.877116	-0.402692	8.898461	-0.066915	-0.106262	-0.098727	-0.013907	0.011661	0.018169	-0.451904	0.138184	-0.471436	0.038777	-0.004017	0.088983	0.184628	-0.199879	-0.012739	-0.962184	-3.067628	-22.913707	-157.653937
11644		4.076351	-0.434639	8.886517	-0.253220	-0.152340	-0.030643	-0.023308	0.009609	0.021417	-0.442139	0.134277	-0.471436	0.040768	-0.004332	0.088864	0.184826	-0.199812	-0.012513	-0.962163	-3.097864	-22.900347	-157.624877
11645		4.004292	-0.494615	8.884954	-0.214234	-0.074576	-0.057179	-0.017669	0.010358	0.018477	-0.448975	0.136230	-0.477295	0.040048	-0.004935	0.088848	0.184912	-0.199768	-0.012384	-0.962158	-3.114176	-22.892073	-157.611905
11646		3.839999	-0.408515	8.874437	-0.050788	-0.103140	-0.135142	-0.017758	0.011954	0.017638	-0.455322	0.139160	-0.467041	0.038406	-0.004074	0.088742	0.185033	-0.199537	-0.012186	-0.962185	-3.134859	-22.860688	-157.595302
11647		3.940088	-0.432393	8.878730	-0.143538	-0.118509	-0.091142	-0.016822	0.011675	0.016324	-0.450195	0.140625	-0.469971	0.039406	-0.004313	0.088785	0.185109	-0.199484	-0.012062	-0.962183	-3.150167	-22.851580	-157.583671
11648		4.128889	-0.500493	8.783650	-0.363230	-0.135903	-0.101853	-0.018146	0.009290	0.016658	-0.448975	0.137695	-0.462891	0.041293	-0.004994	0.087835	0.185382	-0.199526	-0.011837	-0.962124	-3.185017	-22.850345	-157.543980
11649		3.954594	-0.507127	8.829151	-0.200090	-0.066581	-0.127367	-0.013745	0.006053	0.014893	-0.453613	0.138428	-0.471924	0.039549	-0.005062	0.088291	0.185455	-0.199497	-0.011734	-0.962117	-3.198391	-22.844498	-157.532966
11650		3.799760	-0.353155	8.952924	0.035724	-0.147062	-0.081560	-0.012116	0.012704	0.014699	-0.456543	0.133301	-0.477783	0.038004	-0.003523	0.089527	0.185639	-0.199507	-0.011573	-0.962082	-3.222451	-22.841369	-157.506229
11651		3.991869	-0.465765	8.826807	-0.216988	-0.124756	-0.117233	-0.016154	0.009570	0.019808	-0.449463	0.141357	-0.474365	0.039923	-0.004647	0.088267	0.185733	-0.199464	-0.011449	-0.962074	-3.238405	-22.833354	-157.492236
11652		4.127407	-0.522119	8.804946	-0.362253	-0.125761	-0.081905	-0.014284	0.009008	0.017181	-0.454590	0.133789	-0.469238	0.041278	-0.005211	0.088048	0.185871	-0.199371	-0.011317	-0.962068	-3.255133	-22.819159	-157.473351
11653		3.954991	-0.437442	8.853426	-0.166512	-0.141696	-0.108633	-0.016454	0.005311	0.019663	-0.458008	0.139648	-0.473877	0.039553	-0.004363	0.088534	0.185964	-0.199348	-0.011197	-0.962056	-3.271294	-22.813520	-157.459275
11654		3.863408	-0.381911	8.932970	-0.036611	-0.155967	-0.073895	-0.021027	0.011744	0.019751	-0.450439	0.139648	-0.477295	0.038640	-0.003806	0.089328	0.186091	-0.199389	-0.011062	-0.962025	-3.291558	-22.814646	-157.439849
11655		4.076595	-0.471151	8.850970	-0.281836	-0.159504	-0.062026	-0.020454	0.011227	0.022401	-0.451904	0.140869	-0.477051	0.040771	-0.004698	0.088508	0.186194	-0.199342	-0.010914	-0.962016	-3.310598	-22.805554	-157.424281
11656		3.875200	-0.443990	8.863469	-0.097344	-0.117537	-0.130120	-0.021474	0.013107	0.022875	-0.453613	0.139160	-0.471924	0.038758	-0.004426	0.088633	0.186404	-0.199208	-0.010701	-0.962006	-3.337725	-22.784646	-157.395071
11657		3.770439	-0.363193	8.962218	0.058339	-0.149814	-0.084192	-0.023733	0.011007	0.024517	-0.446045	0.141602	-0.484619	0.037710	-0.003617	0.089621	0.186515	-0.199165	-0.010534	-0.961995	-3.359187	-22.775519	-157.378140
11658		4.010338	-0.487352	8.913174	-0.211316	-0.129467	-0.029867	-0.025057	0.008625	0.024847	-0.450928	0.142578	-0.481445	0.040108	-0.004857	0.089131	0.186709	-0.199027	-0.010313	-0.961988	-3.386810	-22.753966	-157.350719
11659		3.895792	-0.442780	8.928372	-0.091442	-0.132348	-0.062651	-0.023888	0.001131	0.021097	-0.450439	0.142090	-0.476318	0.038959	-0.004413	0.089284	0.186803	-0.199031	-0.010158	-0.961971	-3.407702	-22.750497	-157.335511
11660		3.776366	-0.339959	8.954511	0.057261	-0.188585	-0.090499	-0.029705	-0.003026	0.029656	-0.448975	0.137451	-0.476807	0.037763	-0.003381	0.089546	0.187056	-0.198975	-0.009908	-0.961936	-3.442301	-22.737452	-157.299079
11661		3.921270	-0.396533	8.873057	-0.116261	-0.199348	-0.106427	-0.034751	0.002343	0.027928	-0.441162	0.141113	-0.476318	0.039214	-0.003944	0.088731	0.187172	-0.198983	-0.009692	-0.961914	-3.471078	-22.732958	-157.279629
11662		4.174813	-0.547850	8.804286	-0.414280	-0.160922	-0.063476	-0.036745	-0.004537	0.032071	-0.446533	0.147461	-0.479980	0.041747	-0.005456	0.088045	0.187306	-0.198887	-0.009443	-0.961910	-3.501653	-22.715747	-157.258546
11663		4.215494	-0.538200	8.749854	-0.464371	-0.193970	-0.098434	-0.034477	-0.002428	0.030425	-0.450928	0.145752	-0.468018	0.042155	-0.005361	0.087500	0.187435	-0.198916	-0.009230	-0.961881	-3.530938	-22.713769	-157.237347
11664		3.902199	-0.447429	8.848244	-0.125555	-0.164883	-0.134061	-0.035096	0.002125	0.031880	-0.450195	0.146973	-0.477783	0.039024	-0.004453	0.088483	0.187791	-0.198924	-0.008900	-0.961813	-3.579281	-22.705732	-157.185443
11665		4.060530	-0.513345	8.818844	-0.294204	-0.167726	-0.096271	-0.037439	0.001627	0.032682	-0.446777	0.145020	-0.475830	0.040607	-0.005110	0.088189	0.187928	-0.198937	-0.008667	-0.961786	-3.610834	-22.701287	-157.162916
11666		3.997982	-0.555828	8.828788	-0.252552	-0.112067	-0.108875	-0.033618	0.011976	0.030025	-0.446777	0.143066	-0.482666	0.039986	-0.005537	0.088286	0.188212	-0.198847	-0.008368	-0.961752	-3.651049	-22.683061	-157.122129
11667		3.846894	-0.448821	8.921665	-0.049325	-0.153555	-0.087970	-0.034322	0.005053	0.028888	-0.447998	0.141357	-0.475586	0.038472	-0.004467	0.089216	0.188334	-0.198840	-0.008150	-0.961731	-3.679909	-22.676707	-157.102031
11668		3.958074	-0.486815	8.886505	-0.172435	-0.166188	-0.075339	-0.029620	0.006067	0.027273	-0.445313	0.144775	-0.489502	0.039584	-0.004850	0.088865	0.188451	-0.198718	-0.007952	-0.961735	-3.703158	-22.657717	-157.084683
11669		4.199227	-0.643208	8.785494	-0.472060	-0.121135	-0.066169	-0.032998	0.000826	0.035844	-0.440186	0.139893	-0.477051	0.041994	-0.006410	0.087856	0.188608	-0.198729	-0.007736	-0.961704	-3.732969	-22.653420	-157.060100
11670		3.917944	-0.539575	8.889101	-0.159106	-0.112007	-0.085423	-0.025987	-0.000086	0.028480	-0.444824	0.147949	-0.480225	0.039180	-0.005379	0.088892	0.188703	-0.198513	-0.007552	-0.961731	-3.751439	-22.624031	-157.047154
11671		3.788101	-0.424669	8.954758	0.019160	-0.169797	-0.081884	-0.026469	-0.001152	0.026661	-0.448730	0.144287	-0.485107	0.037881	-0.004230	0.089548	0.188823	-0.198526	-0.007380	-0.961706	-3.775317	-22.621043	-157.028171
11672		4.026611	-0.536065	8.884739	-0.251647	-0.163541	-0.047981	-0.027139	-0.005650	0.030464	-0.450439	0.147461	-0.473145	0.040264	-0.005342	0.088849	0.189038	-0.198446	-0.007174	-0.961682	-3.803025	-22.606280	-156.997851
11673		3.960102	-0.519139	8.905450	-0.179414	-0.157036	-0.055531	-0.023959	-0.010456	0.034799	-0.445801	0.148438	-0.477051	0.039597	-0.005174	0.089057	0.189200	-0.198501	-0.007013	-0.961640	-3.827563	-22.608191	-156.973412
11674		3.936787	-0.501841	8.891870	-0.155133	-0.170226	-0.078087	-0.026302	-0.017398	0.026542	-0.448975	0.146484	-0.479248	0.039361	-0.005001	0.088923	0.189445	-0.198634	-0.006819	-0.961566	-3.860381	-22.617822	-156.936663
11675		4.062591	-0.565545	8.836481	-0.303796	-0.164971	-0.076755	-0.032365	-0.016752	0.032586	-0.440674	0.149414	-0.478760	0.040619	-0.005635	0.088369	0.189588	-0.198727	-0.006626	-0.961520	-3.889365	-22.623386	-156.913279
11676		4.074570	-0.581188	8.796437	-0.333324	-0.163092	-0.108075	-0.024661	-0.017368	0.033647	-0.442383	0.155029	-0.476074	0.040739	-0.005794	0.087969	0.189822	-0.198753	-0.006436	-0.961469	-3.918482	-22.621002	-156.879462
11677		3.784494	-0.465198	8.938979	0.012226	-0.156513	-0.095717	-0.029435	-0.016763	0.034421	-0.447998	0.156738	-0.483398	0.037838	-0.004632	0.089394	0.189977	-0.198843	-0.006255	-0.961421	-3.946256	-22.626414	-156.854893
11678		3.892543	-0.445163	8.914205	-0.078648	-0.223569	-0.078370	-0.033107	-0.019634	0.035544	-0.441406	0.151611	-0.475342	0.038917	-0.004430	0.089147	0.190400	-0.198915	-0.005943	-0.961325	-3.995778	-22.625562	-156.794324
11679		4.040796	-0.516619	8.851447	-0.251494	-0.220822	-0.074565	-0.035802	-0.020363	0.040300	-0.447021	0.144531	-0.472656	0.040400	-0.005142	0.088520	0.190577	-0.199028	-0.005729	-0.961268	-4.028766	-22.632702	-156.765852
11680		3.843671	-0.473634	8.934190	-0.033176	-0.186034	-0.077074	-0.037970	-0.024040	0.042755	-0.444580	0.153564	-0.475586	0.038427	-0.004711	0.089347	0.190778	-0.199180	-0.005508	-0.961198	-4.064157	-22.643976	-156.733660
11681		3.808620	-0.432322	8.939551	0.017541	-0.215682	-0.088427	-0.041234	-0.024237	0.044862	-0.441406	0.144287	-0.466797	0.038076	-0.004296	0.089401	0.190972	-0.199317	-0.005266	-0.961132	-4.101435	-22.653097	-156.702161
11682		4.049146	-0.546758	8.867524	-0.250447	-0.208425	-0.054546	-0.049976	-0.041389	0.049747	-0.439697	0.153809	-0.468994	0.040474	-0.005435	0.088685	0.191199	-0.199586	-0.004996	-0.961033	-4.146544	-22.676508	-156.663917
11683		4.035074	-0.604536	8.861144	-0.256788	-0.155246	-0.061938	-0.044780	-0.039312	0.049945	-0.444580	0.146729	-0.473877	0.040335	-0.006015	0.088621	0.191413	-0.199799	-0.004747	-0.960947	-4.187373	-22.693987	-156.628547
11684		3.977371	-0.543627	8.852901	-0.182057	-0.196424	-0.095839	-0.052648	-0.048701	0.061744	-0.446045	0.155273	-0.481445	0.039754	-0.005401	0.088540	0.191699	-0.200091	-0.004457	-0.960830	-4.236986	-22.719264	-156.582064
11685		4.225012	-0.612839	8.751798	-0.448904	-0.237096	-0.088361	-0.053677	-0.059847	0.060405	-0.449463	0.158203	-0.474854	0.042226	-0.006092	0.087532	0.191954	-0.200411	-0.004174	-0.960714	-4.285842	-22.747966	-156.539202
11686		4.080342	-0.613757	8.858683	-0.277225	-0.180220	-0.045763	-0.054730	-0.066972	0.063181	-0.446777	0.154541	-0.481201	0.040776	-0.006100	0.088602	0.192345	-0.200788	-0.003864	-0.960558	-4.342969	-22.781863	-156.477945
11687		3.796349	-0.530968	8.949153	0.036663	-0.149758	-0.078328	-0.053198	-0.067754	0.064491	-0.450195	0.159668	-0.470947	0.037935	-0.005274	0.089506	0.192621	-0.201146	-0.003586	-0.960430	-4.392790	-22.814811	-156.432057
11688		3.943847	-0.547128	8.895154	-0.104925	-0.198835	-0.069665	-0.053732	-0.077817	0.064952	-0.445068	0.158691	-0.470947	0.039406	-0.005435	0.088968	0.192987	-0.201597	-0.003308	-0.960262	-4.447669	-22.858012	-156.373333
11689		4.133385	-0.668806	8.821923	-0.328802	-0.167217	-0.054490	-0.056620	-0.084350	0.070336	-0.443848	0.159424	-0.478271	0.041299	-0.006649	0.088239	0.193287	-0.202038	-0.003024	-0.960110	-4.501297	-22.900097	-156.322892
11690		3.865913	-0.625394	8.912732	-0.041375	-0.105949	-0.078200	-0.049961	-0.089511	0.062770	-0.444824	0.161133	-0.468506	0.038621	-0.006220	0.089146	0.193645	-0.202508	-0.002762	-0.959940	-4.554609	-22.945838	-156.265170
11691		4.087318	-0.615765	8.808186	-0.254458	-0.209702	-0.088453	-0.054345	-0.095215	0.066818	-0.448486	0.161377	-0.468262	0.040833	-0.006120	0.088103	0.193930	-0.202998	-0.002503	-0.959780	-4.606445	-22.994180	-156.216215
11692		4.121759	-0.658177	8.836292	-0.275560	-0.185388	-0.045813	-0.050627	-0.096321	0.061539	-0.449219	0.162598	-0.473633	0.041177	-0.006547	0.088384	0.194299	-0.203580	-0.002249	-0.959582	-4.662517	-23.052653	-156.155371
11693		3.916162	-0.592753	8.845996	-0.063150	-0.172204	-0.122194	-0.051660	-0.103414	0.064282	-0.442627	0.168945	-0.481689	0.039118	-0.005892	0.088482	0.194574	-0.204107	-0.002012	-0.959415	-4.712543	-23.105731	-156.107397
11694		4.077815	-0.574526	8.873500	-0.169983	-0.251915	-0.034892	-0.053955	-0.103841	0.065057	-0.451660	0.161377	-0.479004	0.040734	-0.005708	0.088758	0.194971	-0.204620	-0.001728	-0.959226	-4.771172	-23.155487	-156.043301
11695		4.329106	-0.675758	8.715973	-0.468447	-0.269444	-0.072363	-0.061309	-0.114482	0.073669	-0.439697	0.171875	-0.474609	0.043244	-0.006715	0.087187	0.195282	-0.205209	-0.001446	-0.959037	-4.829430	-23.214308	-155.988720
11696		4.087261	-0.609759	8.851225	-0.173945	-0.233969	-0.048637	-0.065072	-0.124673	0.076198	-0.450439	0.167969	-0.472412	0.040820	-0.006053	0.088540	0.195688	-0.205842	-0.001135	-0.958819	-4.895015	-23.276880	-155.920781
11697		4.120216	-0.625956	8.838139	-0.198398	-0.237006	-0.046155	-0.069413	-0.130319	0.080217	-0.447021	0.161621	-0.474365	0.041147	-0.006212	0.088410	0.196021	-0.206514	-0.000823	-0.958607	-4.960077	-23.344275	-155.861051
11698		4.075570	-0.595968	8.866667	-0.122059	-0.249770	-0.039974	-0.076327	-0.146249	0.081528	-0.457275	0.158936	-0.470947	0.040693	-0.005909	0.088699	0.196376	-0.207310	-0.000518	-0.958363	-5.028665	-23.425662	-155.796631
11699		3.832886	-0.503041	8.962690	0.171040	-0.241230	-0.056335	-0.082462	-0.151277	0.088158	-0.458008	0.173096	-0.471924	0.038263	-0.004977	0.089658	0.196734	-0.208095	-0.000156	-0.958119	-5.103880	-23.504482	-155.730547
11700		3.949100	-0.582222	8.925890	0.048985	-0.218904	-0.037436	-0.088713	-0.162681	0.085686	-0.445068	0.163086	-0.467285	0.039421	-0.005766	0.089294	0.197085	-0.209041	0.000174	-0.957841	-5.179953	-23.602350	-155.663275
11701		4.259240	-0.653971	8.811880	-0.262691	-0.284883	-0.011268	-0.105356	-0.188059	0.095572	-0.452393	0.165039	-0.473877	0.042513	-0.006473	0.088162	0.197454	-0.210024	0.000617	-0.957550	-5.271306	-23.701633	-155.590145
11702		4.196195	-0.725912	8.860374	-0.195092	-0.195523	0.014056	-0.106652	-0.208213	0.100228	-0.451904	0.166992	-0.467041	0.041873	-0.007191	0.088651	0.197811	-0.211126	0.001001	-0.957233	-5.359008	-23.815848	-155.517584
11703		4.034600	-0.624446	8.924699	0.028250	-0.228049	-0.001198	-0.108308	-0.226982	0.107985	-0.447266	0.179932	-0.468262	0.040248	-0.006174	0.089296	0.198236	-0.212299	0.001433	-0.956885	-5.456551	-23.936443	-155.433946
11704		4.251054	-0.688844	8.824599	-0.189362	-0.264331	0.001268	-0.114522	-0.252197	0.113993	-0.463623	0.175537	-0.463623	0.042403	-0.006814	0.088303	0.198735	-0.213637	0.001867	-0.956483	-5.561686	-24.075435	-155.337689
11705		4.120654	-0.624916	8.919376	0.011188	-0.271473	0.028637	-0.131169	-0.274139	0.122135	-0.458740	0.181152	-0.461182	0.041088	-0.006166	0.089254	0.199202	-0.215057	0.002377	-0.956067	-5.677782	-24.221839	-155.241621
11706		3.906975	-0.890846	8.996780	0.153440	0.055892	0.034817	-0.147211	-0.305027	0.114834	-0.457275	0.166992	-0.467041	0.038938	-0.008820	0.090034	0.199672	-0.216752	0.002907	-0.955584	-5.805281	-24.398950	-155.139264
11707		4.367810	-0.862015	8.932357	-0.206694	-0.157040	0.164302	-0.147793	-0.357349	0.104818	-0.455566	0.180664	-0.455811	0.043523	-0.008531	0.089408	0.200039	-0.218584	0.003394	-0.955088	-5.929574	-24.593447	-155.047711
11708		4.056325	-1.342298	8.982038	-0.069934	0.408303	0.125159	-0.117494	-0.423068	0.101371	-0.468750	0.183105	-0.456787	0.040380	-0.013350	0.089914	0.200408	-0.220746	0.003620	-0.954513	-6.033314	-24.832022	-154.955520
11709		3.732932	-0.562512	9.260618	0.656978	-0.157610	0.164967	-0.088210	-0.488544	0.102959	-0.458496	0.185547	-0.451416	0.037106	-0.005565	0.092699	0.200832	-0.223144	0.003689	-0.953866	-6.127836	-25.101073	-154.855210
11710		3.994795	-0.945803	9.119590	0.289939	0.090620	0.183677	-0.094878	-0.561800	0.106598	-0.460693	0.186279	-0.451416	0.039697	-0.009394	0.091312	0.201317	-0.225982	0.003710	-0.953095	-6.232990	-25.421328	-154.738931
11711		4.042789	-0.874131	9.219233	0.380680	0.025434	0.284669	-0.087969	-0.638550	0.099742	-0.458008	0.176270	-0.444824	0.040138	-0.008681	0.092325	0.201724	-0.229091	0.003623	-0.952266	-6.332706	-25.775711	-154.628626
11712		3.944691	-0.911972	9.225933	0.516393	0.113798	0.248629	-0.092973	-0.718680	0.085279	-0.464111	0.177734	-0.451660	0.039119	-0.009060	0.092405	0.202072	-0.232621	0.003434	-0.951337	-6.433037	-26.181420	-154.518854
11713		4.346523	-0.956293	9.087992	0.187484	0.005257	0.304754	-0.093178	-0.809927	0.080309	-0.470947	0.186279	-0.432373	0.043101	-0.009503	0.091059	0.202379	-0.236545	0.003177	-0.950305	-6.538114	-26.634272	-154.406346
11714		4.376094	-1.000374	9.094214	0.234182	0.058123	0.326186	-0.083127	-0.912084	0.071920	-0.478271	0.187500	-0.439453	0.043349	-0.009950	0.091145	0.202655	-0.240983	0.002720	-0.949131	-6.636673	-27.151648	-154.290472
11715		4.215978	-0.803736	9.219051	0.588672	-0.021814	0.339331	-0.082041	-1.017535	0.079009	-0.482910	0.188965	-0.433350	0.041693	-0.007983	0.092407	0.202963	-0.245872	0.002198	-0.947812	-6.745294	-27.722370	-154.160319
11716		4.385029	-0.702159	9.183019	0.581057	-0.151621	0.370025	-0.086524	-1.126034	0.081765	-0.484863	0.184814	-0.417236	0.043335	-0.006964	0.092078	0.203291	-0.251324	0.001562	-0.946312	-6.862196	-28.361030	-154.015626
11717		4.574456	-0.606123	9.289815	0.634522	-0.267629	0.537100	-0.111054	-1.225336	0.084384	-0.492676	0.187256	-0.417725	0.045177	-0.005990	0.093179	0.203577	-0.257209	0.000973	-0.944669	-7.001584	-29.049092	-153.861317
11718		4.331427	-0.744809	9.273161	0.892440	-0.010654	0.410294	-0.143394	-1.347981	0.086554	-0.493652	0.186035	-0.410156	0.042691	-0.007363	0.093026	0.203816	-0.263769	0.000374	-0.942807	-7.165657	-29.815871	-153.692975
11719		4.817958	-0.788425	9.141361	0.571830	-0.131400	0.533935	-0.137928	-1.486016	0.103033	-0.502197	0.185059	-0.403564	0.047503	-0.007796	0.091774	0.204138	-0.270888	-0.000329	-0.940716	-7.344634	-30.649996	-153.497733
11720		4.891198	-0.661996	9.223780	0.762682	-0.219346	0.618416	-0.150263	-1.640374	0.119701	-0.508545	0.197021	-0.388916	0.048157	-0.006521	0.092640	0.204484	-0.278771	-0.001159	-0.938335	-7.542940	-31.576407	-153.276812
11721		4.886737	-0.743950	9.256958	0.923920	-0.087526	0.640096	-0.148548	-1.794874	0.142119	-0.525146	0.192871	-0.376953	0.048039	-0.007336	0.093009	0.204945	-0.287315	-0.002073	-0.935651	-7.767750	-32.581748	-153.016849
11722		5.044016	-0.614944	9.093986	0.955970	-0.227946	0.558020	-0.128495	-1.945297	0.185459	-0.527100	0.199219	-0.374268	0.049558	-0.006045	0.091429	0.205629	-0.296609	-0.003200	-0.932593	-8.013948	-33.679545	-152.702207
11723		5.288550	-0.530605	9.183766	1.058515	-0.325192	0.740113	-0.127485	-2.077599	0.234641	-0.535156	0.192871	-0.355469	0.051934	-0.005186	0.092384	0.206509	-0.306397	-0.004368	-0.929223	-8.296017	-34.835796	-152.333806
11724		5.130180	-0.582816	9.094795	1.320478	-0.163601	0.560294	-0.175873	-2.228920	0.268053	-0.544434	0.199463	-0.344238	0.050292	-0.005680	0.091517	0.207432	-0.316969	-0.005454	-0.925458	-8.639763	-36.082261	-151.914160
11725		5.638093	-0.981357	8.571598	0.726609	-0.001499	0.467901	-0.176452	-2.376051	0.305095	-0.550293	0.208252	-0.325928	0.055372	-0.009653	0.086386	0.208504	-0.328114	-0.006592	-0.921316	-9.029407	-37.397620	-151.434562
11726		5.803073	-1.056439	8.441600	0.746169	0.054847	0.458000	-0.135471	-2.516488	0.348248	-0.561279	0.212891	-0.308350	0.056981	-0.010407	0.085144	0.209819	-0.339906	-0.008019	-0.916720	-9.448025	-38.796957	-150.882843
11727		5.658589	-0.740739	8.352145	1.159489	-0.116540	0.235343	-0.071055	-2.608499	0.389449	-0.570313	0.207275	-0.292236	0.055504	-0.007269	0.084253	0.211380	-0.351905	-0.009740	-0.911804	-9.880795	-40.229833	-150.269277
11728		6.809619	-0.614776	8.071137	0.526274	-0.632888	0.732840	-0.028371	-2.635702	0.431762	-0.578125	0.216797	-0.270264	0.067038	-0.005991	0.081600	0.213180	-0.364046	-0.011631	-0.906581	-10.346240	-41.684911	-149.586804
11729		6.717337	-0.000757	8.241606	1.206125	-1.047315	0.698669	-0.088940	-2.596816	0.466140	-0.579346	0.218994	-0.258789	0.066096	0.000184	0.083279	0.214980	-0.375890	-0.013120	-0.901287	-10.890998	-43.095083	-148.856865
11730		6.683581	-0.877809	7.385118	0.561127	-0.329215	0.164899	-0.169848	-2.512523	0.495641	-0.593262	0.216064	-0.244873	0.065922	-0.008551	0.074691	0.216749	-0.387490	-0.014122	-0.895920	-11.531243	-44.462381	-148.073138
11731		7.670487	-1.609029	6.652015	-0.589742	-0.125708	0.449179	-0.123886	-2.441790	0.502272	-0.590088	0.227539	-0.226807	0.075925	-0.015857	0.067460	0.218588	-0.398551	-0.015211	-0.890587	-12.177677	-45.769462	-147.263370
11732		7.816191	-1.938776	6.348645	-0.789898	0.112364	0.410627	0.062855	-2.287564	0.475554	-0.597168	0.234375	-0.207764	0.077475	-0.019223	0.064369	0.220640	-0.408719	-0.017057	-0.885424	-12.717962	-46.995997	-146.466865
11733		6.593069	-1.760565	6.144863	0.029478	0.431057	-0.640021	0.269004	-2.201329	0.447804	-0.606934	0.231201	-0.193115	0.065289	-0.017542	0.062146	0.222988	-0.418164	-0.019732	-0.880355	-13.150700	-48.164802	-145.674174
11734		7.125099	-1.855572	6.159465	-0.119745	0.392661	-0.222178	0.543522	-2.082033	0.434316	-0.612061	0.224609	-0.176270	0.070645	-0.018571	0.062282	0.225825	-0.426763	-0.023549	-0.875398	-13.427852	-49.271608	-144.889509
11735		7.979235	-1.669413	5.171861	-1.065901	-0.250053	-0.220913	0.769750	-1.970039	0.442793	-0.615723	0.225586	-0.175049	0.079315	-0.016719	0.052437	0.229177	-0.434529	-0.028168	-0.870557	-13.594958	-50.306796	-144.095351
11736		8.019649	-1.067898	5.354777	-0.545826	-0.678755	-0.149984	0.881524	-1.841033	0.430422	-0.623535	0.239502	-0.162598	0.079722	-0.010745	0.054236	0.232682	-0.441578	-0.033192	-0.865891	-13.686149	-51.275402	-143.325133
11737		7.726165	-0.347246	5.672005	0.291473	-1.043732	-0.283294	0.850194	-1.703179	0.402035	-0.624023	0.229004	-0.153076	0.076782	-0.003561	0.057360	0.236023	-0.447994	-0.037936	-0.861485	-13.780686	-52.165614	-142.586258
11738		7.985577	-0.724009	4.900652	-0.454058	-0.945011	-0.474099	0.769782	-1.530569	0.409565	-0.621094	0.246582	-0.142822	0.079493	-0.007267	0.049588	0.239208	-0.453745	-0.042157	-0.857390	-13.908971	-52.962530	-141.867515
11739		7.252164	-0.791450	6.385673	1.095796	-0.116099	-0.180363	0.747787	-1.273529	0.403394	-0.623779	0.243652	-0.140625	0.072129	-0.008009	0.064287	0.242375	-0.458369	-0.045940	-0.853840	-14.022139	-53.611799	-141.193915
11740		5.746015	1.165062	9.282977	4.957980	-0.322107	-0.021799	0.742238	-0.745153	0.238781	-0.625488	0.239502	-0.136963	0.057100	0.011374	0.093086	0.244917	-0.460705	-0.049484	-0.851656	-13.916255	-53.994694	-140.796215
11741		6.610642	2.320171	9.688437	5.424656	-1.451999	0.742597	0.623186	-0.079271	-0.038217	-0.627441	0.241455	-0.136719	0.066072	0.022887	0.096982	0.246185	-0.460254	-0.052293	-0.851366	-13.549534	-54.040961	-140.810152
11742		4.472760	3.644762	8.712008	6.244520	-2.084410	-1.697901	0.331334	0.485232	-0.314680	-0.626221	0.240723	-0.152588	0.044996	0.036233	0.087071	0.245720	-0.457679	-0.053858	-0.852790	-13.024002	-53.811180	-141.222459
11743		3.060505	3.049220	7.578441	5.704569	-1.407461	-3.364928	-0.062378	0.788931	-0.532232	-0.626953	0.235840	-0.150635	0.030985	0.030434	0.075653	0.243535	-0.454230	-0.053811	-0.855261	-12.525123	-53.434755	-141.888458
11744		2.504659	1.678872	6.825865	4.704275	-0.270569	-4.026459	-0.300506	0.899130	-0.718999	-0.631592	0.227295	-0.157715	0.025413	0.016800	0.068120	0.239995	-0.450505	-0.053105	-0.858270	-12.000138	-53.015622	-142.753647
11745		2.828633	0.319511	6.569231	3.676615	0.694902	-3.708818	-0.282920	0.975313	-0.887925	-0.629150	0.224365	-0.160645	0.028620	0.003161	0.065549	0.235818	-0.446399	-0.052691	-0.861592	-11.361781	-52.568396	-143.760659
11746		3.234795	-0.222274	6.782918	3.324732	1.072769	-3.155659	-0.089922	1.085535	-1.026404	-0.635010	0.215820	-0.174805	0.032704	-0.002360	0.067653	0.231451	-0.441482	-0.053357	-0.865261	-10.499242	-52.063547	-144.909805
11747		3.451152	0.086437	6.938131	3.384846	0.761132	-2.883174	0.098628	1.212293	-1.113278	-0.636230	0.205811	-0.177979	0.034935	0.000637	0.069171	0.227186	-0.435797	-0.054808	-0.869174	-9.496739	-51.487308	-146.115944
11748		3.597428	0.642391	7.149889	3.605908	0.276045	-2.643659	0.178165	1.339081	-1.143803	-0.635986	0.198730	-0.187988	0.036488	0.006153	0.071261	0.222938	-0.429362	-0.056592	-0.873352	-8.428353	-50.823329	-147.350397
11749		3.896609	0.963005	7.341864	3.605877	-0.061208	-2.262448	0.145664	1.470241	-1.150419	-0.632568	0.195801	-0.197510	0.039559	0.009350	0.073136	0.218651	-0.422421	-0.058029	-0.877716	-7.418333	-50.076981	-148.554010
11750		4.254744	0.978320	7.495562	3.387846	-0.160777	-1.829081	0.072941	1.608019	-1.151610	-0.631104	0.177979	-0.212646	0.043204	0.009508	0.074614	0.214184	-0.414829	-0.059064	-0.882357	-6.459987	-49.231624	-149.749484
11751		4.536353	0.702762	7.644702	3.064380	0.020096	-1.438885	0.027417	1.744219	-1.161841	-0.636230	0.162598	-0.222656	0.046068	0.006751	0.076048	0.209637	-0.406724	-0.059696	-0.887166	-5.573897	-48.304745	-150.908803
11752		4.760020	0.587865	7.755782	2.793295	0.063706	-1.132475	0.034467	1.871535	-1.186052	-0.632080	0.163574	-0.225098	0.048357	0.005580	0.077109	0.204962	-0.397890	-0.060340	-0.892207	-4.687193	-47.284858	-152.071630
11753		5.009908	0.670481	7.904732	2.594832	-0.069838	-0.796476	0.053964	1.972251	-1.226661	-0.638672	0.147705	-0.240234	0.050915	0.006373	0.078550	0.200197	-0.388625	-0.060970	-0.897315	-3.826520	-46.207386	-153.212888
11754		5.298708	0.937111	8.005063	2.386944	-0.393908	-0.475725	0.055333	2.052580	-1.270930	-0.635254	0.136963	-0.245605	0.053863	0.009009	0.079503	0.195187	-0.378815	-0.061674	-0.902550	-2.966221	-45.062336	-154.363331
11755		5.674342	1.127526	8.171944	2.112384	-0.656979	-0.047868	0.031651	2.120008	-1.334025	-0.624023	0.128662	-0.262695	0.057679	0.010880	0.081113	0.189885	-0.368761	-0.062245	-0.907791	-2.149438	-43.880296	-155.505392
11756		6.068433	1.153346	8.284951	1.694557	-0.783934	0.351228	-0.002355	2.173979	-1.390261	-0.624023	0.120117	-0.269775	0.061658	0.011108	0.082183	0.184203	-0.358290	-0.062777	-0.913103	-1.351741	-42.643846	-156.661575
11757		6.420987	1.167788	8.389205	1.272143	-0.885999	0.702176	-0.024160	2.227791	-1.454757	-0.618652	0.113525	-0.291748	0.065222	0.011216	0.083168	0.178221	-0.347637	-0.063191	-0.918364	-0.599306	-41.379155	-157.808594
11758		6.779527	1.112534	8.485167	0.788282	-0.918055	1.037529	-0.032633	2.253478	-1.504030	-0.616211	0.090820	-0.310547	0.068827	0.010624	0.084078	0.171927	-0.336662	-0.063695	-0.923603	0.141849	-40.074720	-158.962096
11759		7.051326	0.979084	8.516748	0.285816	-0.859521	1.250210	-0.028195	2.258273	-1.532504	-0.621338	0.085693	-0.321045	0.071541	0.009257	0.084362	0.165527	-0.325722	-0.064173	-0.928649	0.834645	-38.770802	-160.080654
11760		7.479209	0.892584	8.646022	-0.273029	-0.851126	1.618976	-0.004455	2.252322	-1.540352	-0.613281	0.065186	-0.341797	0.075825	0.008346	0.085610	0.159047	-0.314590	-0.064848	-0.933559	1.516360	-37.445359	-161.177086
11761		7.910001	0.870744	8.827594	-0.797360	-0.881647	2.012373	0.024172	2.244315	-1.527203	-0.608398	0.057617	-0.350342	0.080147	0.008087	0.087381	0.152691	-0.303554	-0.065549	-0.938213	2.149827	-36.129593	-162.214033
11762		8.200976	0.847415	8.893571	-1.298066	-0.889119	2.211723	0.040389	2.222819	-1.499985	-0.602539	0.049805	-0.367432	0.083052	0.007836	0.088018	0.146405	-0.292427	-0.066372	-0.942681	2.758028	-34.803561	-163.208727
11763		8.442944	0.649737	8.792687	-1.903820	-0.747926	2.221651	0.060271	2.186289	-1.451483	-0.600098	0.033203	-0.383301	0.085428	0.005853	0.086998	0.140387	-0.281553	-0.067150	-0.946842	3.307630	-33.506174	-164.128538
11764		8.637734	0.279933	8.590237	-2.568607	-0.441833	2.090296	0.090438	2.118307	-1.384054	-0.594971	0.031738	-0.395996	0.087297	0.002159	0.084982	0.134640	-0.270832	-0.068097	-0.950729	3.833426	-32.229576	-164.986978
11765		8.886090	-0.203823	8.317050	-3.319601	-0.045275	1.898392	0.133442	2.018723	-1.284890	-0.576660	0.024658	-0.412354	0.089679	-0.002668	0.082266	0.129412	-0.260671	-0.069087	-0.954217	4.308312	-31.021144	-165.749345
11766		9.052711	-0.897842	7.995585	-4.058695	0.571230	1.583907	0.220983	1.896173	-1.150588	-0.574951	0.011963	-0.428711	0.091226	-0.009590	0.079083	0.124841	-0.250941	-0.070471	-0.957328	4.780893	-29.871749	-166.416474
11767		9.249096	-1.294251	7.646491	-4.716724	0.894375	1.261503	0.324062	1.751679	-0.967836	-0.573242	0.000732	-0.445068	0.093091	-0.013515	0.075630	0.121248	-0.241981	-0.072119	-0.959970	5.224893	-28.821173	-166.946255
11768		9.258610	-1.530522	7.343313	-5.123975	1.108519	0.887822	0.416198	1.608591	-0.741450	-0.567627	-0.003662	-0.458740	0.093115	-0.015801	0.072653	0.118758	-0.233625	-0.074091	-0.962199	5.652894	-27.851784	-167.330550
11769		9.153352	-1.485977	7.093043	-5.304624	1.072076	0.531971	0.469163	1.455618	-0.491740	-0.551270	-0.004150	-0.467041	0.092009	-0.015251	0.070226	0.117499	-0.226135	-0.076036	-0.963989	6.020199	-26.991083	-167.547250
11770		9.145761	-1.507985	6.925709	-5.528496	1.081470	0.294158	0.488976	1.309948	-0.230181	-0.544678	-0.014160	-0.484375	0.091891	-0.015354	0.068619	0.117436	-0.219362	-0.077930	-0.965410	6.332412	-26.222150	-167.605098
11771		9.103972	-1.579651	6.774495	-5.705416	1.128277	0.058731	0.512795	1.163475	0.031691	-0.547119	-0.009277	-0.484863	0.091434	-0.015955	0.067173	0.118626	-0.213434	-0.079666	-0.966451	6.578273	-25.559456	-167.498242
11772		8.884962	-1.616566	6.491578	-5.749117	1.133752	-0.359783	0.569568	1.028953	0.269299	-0.532227	-0.016113	-0.486084	0.089204	-0.016230	0.064411	0.120950	-0.208178	-0.081558	-0.967151	6.804999	-24.986685	-167.252941
11773		8.695494	-1.413621	6.350928	-5.677955	0.920207	-0.600883	0.635317	0.883099	0.477975	-0.525635	-0.023682	-0.497559	0.087268	-0.014129	0.063080	0.124304	-0.203695	-0.083579	-0.967508	7.012878	-24.515004	-166.883073
11774		8.801114	-1.276319	6.298761	-5.834104	0.720160	-0.636258	0.698831	0.747036	0.651935	-0.519287	-0.019775	-0.501221	0.088287	-0.012695	0.062614	0.128495	-0.199895	-0.085860	-0.967553	7.225342	-24.134747	-166.416981
11775		8.702116	-0.984760	6.199029	-5.765943	0.398419	-0.772823	0.738119	0.636835	0.782760	-0.524414	-0.015869	-0.507568	0.087256	-0.009734	0.061677	0.133314	-0.196653	-0.088219	-0.967353	7.427005	-23.827741	-165.875736
11776		8.304687	-0.536683	6.062634	-5.379932	-0.013507	-1.033896	0.731474	0.515728	0.864359	-0.518311	-0.015625	-0.504395	0.083226	-0.005229	0.060393	0.138462	-0.194058	-0.090586	-0.966935	7.615669	-23.601238	-165.295001
11777		7.877035	-0.156710	5.965001	-4.950988	-0.339691	-1.267186	0.668323	0.366982	0.905675	-0.510986	-0.010498	-0.513916	0.078886	-0.001409	0.059500	0.143677	-0.192209	-0.092664	-0.966347	7.759770	-23.460014	-164.699964
11778		7.555666	0.183368	6.003074	-4.558448	-0.612830	-1.327201	0.562687	0.195006	0.890521	-0.508545	-0.013184	-0.518555	0.075606	0.002001	0.059963	0.148638	-0.191309	-0.094406	-0.965606	7.857708	-23.423370	-164.129366
11779		7.441527	0.476252	6.184790	-4.296686	-0.850309	-1.171500	0.440231	0.039356	0.816478	-0.500977	-0.008301	-0.514648	0.074408	0.004930	0.061844	0.153042	-0.191156	-0.095702	-0.964820	7.905026	-23.462941	-163.617443
11780		7.447180	0.597796	6.416968	-4.164523	-0.936421	-0.937154	0.323732	-0.086717	0.690773	-0.504639	-0.006348	-0.514893	0.074423	0.006131	0.064212	0.156676	-0.191714	-0.096690	-0.964028	7.923674	-23.574058	-163.193686
11781		7.206489	0.809057	6.588814	-3.798400	-1.047923	-0.841932	0.187487	-0.187696	0.533482	-0.511475	-0.005615	-0.517822	0.071981	0.008221	0.065963	0.159360	-0.192711	-0.097210	-0.963336	7.902370	-23.720438	-162.875868
11782		6.836221	1.045780	6.624487	-3.347780	-1.172047	-0.917185	0.035720	-0.285262	0.359227	-0.515137	0.003174	-0.512695	0.068249	0.010569	0.066344	0.161025	-0.194309	-0.097285	-0.962731	7.843213	-23.920335	-162.673313
11783		6.596214	1.031609	6.761421	-3.058998	-1.067410	-0.879935	-0.120628	-0.393459	0.193255	-0.513428	-0.000732	-0.512207	0.065819	0.010421	0.067738	0.161670	-0.196376	-0.096815	-0.962251	7.736135	-24.156496	-162.583168
11784		6.646325	0.834881	6.948401	-3.060868	-0.854609	-0.699430	-0.245932	-0.484750	0.035790	-0.504150	0.002686	-0.510254	0.066293	0.008446	0.069634	0.161407	-0.199018	-0.096013	-0.961832	7.603298	-24.446194	-162.597109
11785		6.578314	0.685799	7.202366	-2.915715	-0.633921	-0.500592	-0.335981	-0.543081	-0.115558	-0.519531	0.002686	-0.508057	0.065591	0.006941	0.072190	0.160279	-0.201827	-0.094931	-0.961543	7.456818	-24.743808	-162.710664
11786		6.443279	0.649549	7.383935	-2.691906	-0.513937	-0.381383	-0.410450	-0.580212	-0.236868	-0.523438	0.000488	-0.497559	0.064226	0.006571	0.074012	0.158493	-0.204940	-0.093689	-0.961302	7.304389	-25.069418	-162.901440
11787		6.238065	0.570661	7.532644	-2.433005	-0.344098	-0.328930	-0.480426	-0.598975	-0.342127	-0.523193	-0.003906	-0.494141	0.062165	0.005781	0.075499	0.156098	-0.208020	-0.092185	-0.961178	7.138352	-25.383069	-163.160619
11788		5.939789	0.451575	7.657167	-2.110012	-0.119714	-0.344296	-0.559491	-0.620147	-0.409441	-0.530273	0.003418	-0.491943	0.059169	0.004609	0.076743	0.153306	-0.211365	-0.090433	-0.961064	6.950243	-25.721617	-163.462059
11789		5.676347	0.341798	7.784521	-1.810309	0.081157	-0.344195	-0.627586	-0.645584	-0.448939	-0.531494	0.001953	-0.487549	0.056520	0.003536	0.078017	0.150215	-0.214726	-0.088367	-0.960999	6.733249	-26.056072	-163.791439
11790		5.494572	0.193920	7.851640	-1.608653	0.279267	-0.367581	-0.673961	-0.666503	-0.482012	-0.538574	0.008057	-0.477539	0.054689	0.002072	0.078692	0.146925	-0.218345	-0.086173	-0.960892	6.504127	-26.419129	-164.141248
11791		5.343922	0.130624	8.014343	-1.367071	0.406864	-0.285389	-0.709800	-0.675898	-0.500101	-0.552979	0.001953	-0.471191	0.053171	0.001458	0.080318	0.143478	-0.221878	-0.083785	-0.960814	6.258769	-26.769992	-164.504360
11792		5.106298	0.155990	8.166258	-1.020980	0.464095	-0.245652	-0.745189	-0.668883	-0.511728	-0.549072	0.000488	-0.465088	0.050794	0.001734	0.081827	0.139957	-0.225540	-0.081277	-0.960697	6.000679	-27.135823	-164.872030
11793		4.977387	0.229679	8.296066	-0.764578	0.436582	-0.175456	-0.778641	-0.650446	-0.515336	-0.553955	0.000000	-0.462158	0.049510	0.002492	0.083113	0.136360	-0.228979	-0.078553	-0.960627	5.723014	-27.474254	-165.241941
11794		4.849843	0.329023	8.418869	-0.502439	0.376381	-0.111551	-0.811243	-0.626496	-0.504324	-0.552734	0.006592	-0.448242	0.048243	0.003510	0.084326	0.132807	-0.232473	-0.075683	-0.960516	5.426703	-27.819696	-165.600579
11795		4.837561	0.497270	8.469738	-0.355434	0.201176	-0.054690	-0.839113	-0.580364	-0.482217	-0.550293	0.001709	-0.450195	0.048142	0.005212	0.084816	0.129317	-0.235614	-0.072579	-0.960466	5.105392	-28.123320	-165.943180
11796		4.763084	0.767270	8.400940	-0.182181	-0.087510	-0.127119	-0.850247	-0.523741	-0.442039	-0.557129	0.002441	-0.447021	0.047428	0.007925	0.084100	0.126046	-0.238649	-0.069377	-0.960388	4.767327	-28.416678	-166.253623
11797		4.534467	0.873228	8.379182	0.086545	-0.183586	-0.247487	-0.827967	-0.474930	-0.396087	-0.564941	0.009521	-0.449463	0.045163	0.008990	0.083862	0.123013	-0.241294	-0.066153	-0.960348	4.424959	-28.667595	-166.532494
11798		4.334489	0.751542	8.278823	0.231463	-0.081471	-0.440867	-0.752531	-0.438295	-0.353148	-0.574707	-0.001709	-0.437012	0.043177	0.007751	0.082854	0.120306	-0.243873	-0.063258	-0.960235	4.114703	-28.918916	-166.778864
11799		4.199611	0.448870	8.223366	0.287418	0.194989	-0.574662	-0.618344	-0.414194	-0.315834	-0.568115	0.006836	-0.433105	0.041833	0.004677	0.082306	0.117927	-0.246115	-0.060904	-0.960110	3.866877	-29.140929	-167.000764
11800		4.139700	0.332229	8.276504	0.377916	0.307012	-0.565484	-0.458567	-0.399253	-0.266575	-0.582031	0.007080	-0.431885	0.041236	0.003457	0.082840	0.116003	-0.248347	-0.059289	-0.959871	3.697810	-29.374659	-167.187674
11801		4.455271	0.803966	8.556179	0.397527	-0.177482	-0.142406	-0.351924	-0.374182	-0.173080	-0.577637	0.009033	-0.433105	0.044400	0.008152	0.085631	0.114646	-0.250279	-0.058013	-0.959610	3.556864	-29.580229	-167.313495
11802		5.475396	3.232767	10.212544	0.949853	-2.461661	1.924631	-0.386876	-0.294472	-0.069228	-0.580322	0.007568	-0.419922	0.054615	0.032506	0.102143	0.113786	-0.252017	-0.056435	-0.959352	3.363438	-29.761331	-167.365813
11803		5.986892	5.648276	11.539234	1.736239	-4.727579	3.436264	-0.647043	0.169484	-0.242853	-0.583008	0.010498	-0.425049	0.060035	0.056783	0.115158	0.111875	-0.251485	-0.053522	-0.959883	3.065946	-29.654470	-167.516056
11804		1.686529	2.920221	7.272042	2.690222	-2.015511	-2.535681	-0.701408	0.186423	-0.362441	-0.577637	0.009033	-0.427246	0.016986	0.029426	0.072602	0.109338	-0.251002	-0.050549	-0.960462	2.781354	-29.551758	-167.744689
11805		3.851404	3.359939	8.083159	1.324139	-2.768595	-0.755023	-0.686997	-0.078899	-0.279137	-0.576904	0.002686	-0.428711	0.038529	0.033823	0.080731	0.107137	-0.251668	-0.047624	-0.960686	2.476661	-29.587480	-167.927357
11806		5.727726	1.693074	9.041003	-0.196180	-1.399602	0.930470	-0.683695	-0.008189	-0.109277	-0.572754	0.010010	-0.423828	0.057283	0.017208	0.090354	0.105779	-0.252154	-0.044536	-0.960857	2.125045	-29.603116	-167.996973
11807		5.167102	-0.485574	8.411393	-0.506558	0.682849	0.034300	-0.486702	0.100665	0.130342	-0.576904	0.010742	-0.420654	0.051716	-0.004617	0.084099	0.105836	-0.251939	-0.041962	-0.961023	1.799837	-29.545929	-167.905509
11808		4.898125	-0.523958	8.750265	-0.126601	0.773067	0.198282	-0.173152	0.152308	0.389655	-0.574951	0.021484	-0.426514	0.049058	-0.005068	0.087470	0.107552	-0.251489	-0.040613	-0.961008	1.577367	-29.478804	-167.643579
11809		4.558691	0.166662	9.158811	0.498673	0.186878	0.405413	0.093075	0.246937	0.603957	-0.567383	0.018311	-0.421875	0.045695	0.001762	0.091533	0.110642	-0.250357	-0.040150	-0.960972	1.430749	-29.344359	-167.238863
11810		4.224579	0.390848	8.612123	0.559174	-0.057210	-0.228716	0.291160	0.270169	0.805362	-0.571289	0.027344	-0.428711	0.042346	0.003954	0.086070	0.114960	-0.249164	-0.040441	-0.960763	1.340700	-29.214014	-166.702886
11811		4.619487	0.875951	8.659381	0.346521	-0.615611	0.015473	0.406736	0.254956	1.004110	-0.572510	0.028320	-0.424072	0.046261	0.008816	0.086553	0.120362	-0.247889	-0.040979	-0.960409	1.248346	-29.078896	-166.037224
11812		4.830734	0.747637	8.611868	0.101964	-0.558261	0.073522	0.473828	0.277007	1.150175	-0.555176	0.038086	-0.425537	0.048383	0.007551	0.086070	0.126556	-0.246608	-0.041711	-0.959910	1.156264	-28.947033	-165.277131
11813		4.786476	0.541559	8.506605	0.021857	-0.384512	-0.044495	0.533083	0.277507	1.260865	-0.564697	0.043213	-0.435059	0.047948	0.005491	0.085014	0.133342	-0.245180	-0.042520	-0.959322	1.058933	-28.799975	-164.445486
11814		4.778524	0.388954	8.605142	0.017178	-0.240324	0.034948	0.578096	0.289706	1.336578	-0.553223	0.054688	-0.432861	0.047884	0.003961	0.085993	0.140550	-0.243787	-0.043510	-0.958604	0.972252	-28.660591	-163.565930
11815		4.733077	0.171316	8.464061	-0.091271	-0.063091	-0.114269	0.614373	0.287919	1.388169	-0.554932	0.063477	-0.437988	0.047440	0.001782	0.084578	0.148033	-0.242255	-0.044540	-0.957818	0.886762	-28.506520	-162.653952
11816		4.972888	0.141603	8.397659	-0.347927	-0.129697	-0.059103	0.632491	0.266244	1.435552	-0.548096	0.059326	-0.452881	0.049830	0.001508	0.083915	0.155758	-0.240928	-0.045680	-0.956873	0.805362	-28.379174	-161.712778
11817		5.141632	0.177239	8.308517	-0.532699	-0.251883	-0.058102	0.628357	0.256800	1.460029	-0.549805	0.069824	-0.439697	0.051509	0.001887	0.083025	0.163576	-0.239521	-0.046707	-0.955872	0.711037	-28.241113	-160.757189
11818		5.146160	0.317070	8.269899	-0.516290	-0.419872	-0.089941	0.605784	0.251071	1.457910	-0.537109	0.076416	-0.441162	0.051542	0.003296	0.082644	0.171354	-0.238264	-0.047695	-0.954774	0.612046	-28.120202	-159.804107
11819		5.089700	0.302627	8.238364	-0.497120	-0.425707	-0.146311	0.560754	0.233368	1.426615	-0.534180	0.083496	-0.453125	0.050971	0.003159	0.082333	0.178905	-0.236989	-0.048453	-0.953667	0.494333	-27.992403	-158.873191
11820		5.130017	0.019511	8.167145	-0.669767	-0.218956	-0.193796	0.515814	0.206063	1.380558	-0.537598	0.090576	-0.452637	0.051382	0.000339	0.081619	0.186175	-0.235982	-0.049135	-0.952490	0.371662	-27.893917	-157.972898
11821		5.174503	-0.083384	8.322893	-0.686008	-0.144694	-0.037139	0.469251	0.201429	1.301176	-0.530518	0.090576	-0.453369	0.051834	-0.000692	0.083175	0.192993	-0.234886	-0.049627	-0.951378	0.243854	-27.780546	-157.125883
11822		4.989529	-0.242541	8.228949	-0.644553	0.015425	-0.207791	0.403730	0.198503	1.199006	-0.522705	0.101563	-0.453369	0.049991	-0.002292	0.082235	0.199248	-0.233957	-0.049989	-0.950298	0.115057	-27.682895	-156.345118
11823		4.936916	-0.084904	8.270198	-0.528850	-0.136089	-0.196128	0.304171	0.184727	1.074052	-0.523438	0.117188	-0.458252	0.049450	-0.000709	0.082655	0.204772	-0.233028	-0.049975	-0.949352	-0.035452	-27.575534	-155.647217
11824		5.017915	-0.219334	8.199540	-0.682235	-0.090611	-0.221740	0.164434	0.177683	0.902234	-0.511230	0.121338	-0.454834	0.050261	-0.002034	0.081949	0.209323	-0.232352	-0.049560	-0.948546	-0.210143	-27.486650	-155.059674
11825		5.431082	-0.532632	8.226709	-1.138831	0.005497	-0.006465	0.043358	0.172302	0.700970	-0.514648	0.113770	-0.452148	0.054400	-0.005154	0.082219	0.212762	-0.231649	-0.048752	-0.947995	-0.396129	-27.383871	-154.604541
11826		5.757406	-1.028672	8.219322	-1.620090	0.290140	0.139907	-0.039619	0.224803	0.474160	-0.512451	0.127930	-0.458740	0.057691	-0.010134	0.082130	0.215053	-0.230857	-0.047813	-0.947719	-0.558663	-27.267169	-154.294831
11827		5.242999	-1.280159	8.260968	-1.312780	0.688065	-0.056945	-0.094262	0.269060	0.241638	-0.512939	0.130127	-0.455078	0.052556	-0.012699	0.082545	0.216175	-0.229729	-0.046779	-0.947789	-0.685499	-27.109598	-154.137888
11828		4.610558	-1.274585	8.553178	-0.700033	0.957958	-0.084848	-0.112283	0.316165	0.010077	-0.505127	0.121582	-0.457275	0.046241	-0.012696	0.085466	0.216208	-0.228478	-0.045923	-0.948126	-0.753015	-26.943333	-154.127772
11829		4.354541	-1.499188	8.469158	-0.649759	1.226498	-0.272788	-0.087961	0.311057	-0.136871	-0.514893	0.122314	-0.458496	0.043667	-0.014985	0.084630	0.215552	-0.227054	-0.045308	-0.948647	-0.765062	-26.764275	-154.215135
11830		4.535501	-1.512128	8.527498	-0.800354	1.171650	-0.139936	-0.005751	0.302086	-0.215125	-0.509277	0.124023	-0.470459	0.045467	-0.015168	0.085207	0.214623	-0.225703	-0.045232	-0.949183	-0.705888	-26.607942	-154.350876
11831		4.461749	-1.184614	8.534804	-0.628265	0.909987	-0.172641	0.188064	0.265840	-0.214144	-0.512939	0.124756	-0.463379	0.044718	-0.011974	0.085277	0.213901	-0.224179	-0.046063	-0.949667	-0.538576	-26.455120	-154.486684
11832		4.226999	0.438087	8.902014	0.372564	-0.383335	0.037157	0.235467	0.223592	-0.224267	-0.507324	0.108643	-0.462891	0.042374	0.004229	0.088978	0.213189	-0.222935	-0.047214	-0.950064	-0.341580	-26.342541	-154.625386
11833		4.056087	0.742535	8.894848	0.606481	-0.577545	-0.044369	0.203491	0.187660	-0.234278	-0.510254	0.123779	-0.462646	0.040653	0.007287	0.088918	0.212369	-0.221760	-0.048223	-0.950472	-0.160957	-26.233811	-154.772448
11834		4.122476	0.856279	9.112936	0.665677	-0.649816	0.182721	0.147939	0.136722	-0.160758	-0.507568	0.112793	-0.463867	0.041294	0.008462	0.091107	0.211834	-0.221044	-0.048990	-0.950719	-0.031752	-26.171279	-154.870332
11835		4.274265	1.423248	8.933836	0.694317	-1.247453	0.090351	0.057944	0.097649	-0.064320	-0.514893	0.115234	-0.469727	0.042791	0.014193	0.089322	0.211638	-0.220491	-0.049215	-0.950879	0.017043	-26.113585	-154.908213
11836		4.558065	1.167106	8.714126	0.260769	-1.164355	0.018404	-0.024077	0.069488	-0.007476	-0.503906	0.112793	-0.470947	0.045611	0.011680	0.087124	0.211622	-0.220312	-0.049071	-0.950931	0.005088	-26.089336	-154.908627
11837		4.487975	0.654002	8.826752	0.140504	-0.659390	0.088153	-0.063509	0.070164	0.032405	-0.510254	0.109863	-0.463135	0.044910	0.006575	0.088250	0.211746	-0.220042	-0.048641	-0.950988	-0.042859	-26.047414	-154.884798
11838		4.435403	0.403173	8.637122	0.001888	-0.457297	-0.105675	-0.102499	0.058060	0.062940	-0.507568	0.113037	-0.463623	0.044378	0.004090	0.086356	0.211969	-0.220007	-0.048068	-0.950976	-0.117734	-26.028631	-154.841609
11839		4.754932	0.239669	8.705571	-0.300165	-0.433575	0.095676	-0.124812	0.066977	0.077871	-0.507324	0.117676	-0.462646	0.047578	0.002470	0.087038	0.212240	-0.219828	-0.047300	-0.950995	-0.213425	-25.988438	-154.788927
11840		4.706511	-0.018962	8.456215	-0.467526	-0.242118	-0.149253	-0.134743	0.082584	0.084249	-0.510498	0.121582	-0.466797	0.047100	-0.000113	0.084543	0.212547	-0.219733	-0.046517	-0.950987	-0.314347	-25.957315	-154.730279
11841		4.792935	-0.206490	8.516187	-0.595005	-0.112289	-0.056989	-0.127619	0.092896	0.078865	-0.503174	0.113037	-0.463379	0.047970	-0.001992	0.085141	0.212826	-0.219435	-0.045708	-0.951033	-0.411722	-25.902143	-154.677259
11842		4.530929	-0.139480	8.575070	-0.331265	-0.076955	-0.119137	-0.109752	0.119363	0.061141	-0.505127	0.119385	-0.463379	0.045361	-0.001334	0.085724	0.213056	-0.219129	-0.045030	-0.951085	-0.491430	-25.849499	-154.634080
11843		4.586248	-0.222153	8.529059	-0.435087	-0.047885	-0.136105	-0.109098	0.118043	0.054035	-0.505371	0.118164	-0.470215	0.045913	-0.002163	0.085265	0.213242	-0.218686	-0.044309	-0.951179	-0.571043	-25.779949	-154.597244
11844		4.566346	-0.148955	8.500540	-0.403465	-0.125737	-0.171408	-0.096938	0.142302	0.044334	-0.512207	0.123779	-0.462646	0.045724	-0.001438	0.084974	0.213409	-0.218248	-0.043687	-0.951271	-0.638279	-25.713591	-154.565450
11845		4.598824	-0.315284	8.406979	-0.545805	-0.019640	-0.240458	-0.097177	0.141322	0.038559	-0.505127	0.116211	-0.458984	0.046048	-0.003103	0.084039	0.213539	-0.217678	-0.043014	-0.951403	-0.706531	-25.630762	-154.538863
11846		4.517792	-0.333283	8.617737	-0.409779	0.052149	-0.085599	-0.078876	0.154411	0.026076	-0.500244	0.124756	-0.469727	0.045245	-0.003293	0.086144	0.213641	-0.217213	-0.042488	-0.951510	-0.759325	-25.563737	-154.518360
11847		4.321867	-0.192563	8.651210	-0.187486	-0.006675	-0.141915	-0.069641	0.149654	0.013571	-0.503662	0.112793	-0.465332	0.043284	-0.001893	0.086480	0.213684	-0.216569	-0.041966	-0.951670	-0.804774	-25.476339	-154.507923
11848		4.316554	-0.189240	8.748059	-0.151847	-0.000827	-0.056976	-0.052898	0.145839	0.004953	-0.498047	0.123779	-0.459961	0.043229	-0.001868	0.087450	0.213701	-0.216055	-0.041602	-0.951799	-0.834104	-25.408074	-154.503187
11849		4.148469	-0.078587	8.814505	0.047689	-0.034378	-0.070614	-0.044799	0.135646	-0.005364	-0.504395	0.126953	-0.463867	0.041544	-0.000767	0.088117	0.213677	-0.215447	-0.041233	-0.951958	-0.860141	-25.328885	-154.504754
11850		4.303660	-0.177114	8.769866	-0.145038	-0.020492	-0.043248	-0.030336	0.120970	-0.009623	-0.498291	0.133301	-0.468262	0.043090	-0.001760	0.087673	0.213691	-0.215066	-0.040983	-0.952052	-0.879463	-25.278829	-154.501634
11851		4.309823	0.000503	8.709562	-0.107067	-0.201303	-0.097799	-0.035607	0.101272	-0.004506	-0.496826	0.123779	-0.470703	0.043142	0.000020	0.087074	0.213674	-0.214612	-0.040694	-0.952171	-0.900592	-25.219373	-154.502374
11852		4.462447	-0.026170	8.650839	-0.270685	-0.253084	-0.085725	-0.034728	0.088992	0.002383	-0.495605	0.124023	-0.472412	0.044663	-0.000246	0.086489	0.213745	-0.214340	-0.040428	-0.952227	-0.926651	-25.181304	-154.490256
11853		4.358430	0.063879	8.751592	-0.114376	-0.283805	-0.040445	-0.032361	0.080659	0.004030	-0.502930	0.118652	-0.468262	0.043620	0.000654	0.087498	0.213768	-0.213983	-0.040167	-0.952314	-0.948296	-25.133606	-154.485416
11854		4.568582	-0.052985	8.630984	-0.385572	-0.284972	-0.058778	-0.039802	0.066205	0.009215	-0.497070	0.122314	-0.457520	0.045714	-0.000511	0.086295	0.213799	-0.213834	-0.039947	-0.952349	-0.971227	-25.110826	-154.477855
11855		4.319411	0.090168	8.723633	-0.089473	-0.308085	-0.083130	-0.030115	0.065039	0.007368	-0.499268	0.121338	-0.463135	0.043222	0.000916	0.087222	0.213837	-0.213549	-0.039710	-0.952415	-0.992514	-25.072074	-154.470785
11856		4.370087	-0.003553	8.664875	-0.193498	-0.257263	-0.113507	-0.050051	0.048610	0.014373	-0.506104	0.124268	-0.467529	0.043722	-0.000011	0.086638	0.213899	-0.213554	-0.039451	-0.952410	-1.025424	-25.065873	-154.456329
11857		4.362863	-0.019145	8.746768	-0.163662	-0.233257	-0.042340	-0.047632	0.029874	0.019449	-0.505127	0.125732	-0.454590	0.043642	-0.000166	0.087461	0.213969	-0.213459	-0.039155	-0.952428	-1.060123	-25.047188	-154.441268
11858		4.293287	-0.104176	8.793080	-0.120104	-0.125177	-0.028449	-0.051520	0.004259	0.012211	-0.502197	0.124756	-0.472900	0.042935	-0.001016	0.087930	0.214010	-0.213709	-0.038931	-0.952372	-1.095549	-25.069948	-154.426957
11859		4.415397	-0.095201	8.815315	-0.205028	-0.181732	0.043251	-0.045059	-0.014110	0.003215	-0.496582	0.128418	-0.461182	0.044148	-0.000931	0.088156	0.213997	-0.213818	-0.038712	-0.952360	-1.124645	-25.076689	-154.421649
11860		4.226100	-0.342222	8.831837	-0.142607	0.117874	-0.017579	-0.027456	-0.038547	-0.010299	-0.504150	0.117676	-0.466797	0.042244	-0.003412	0.088327	0.213956	-0.214154	-0.038660	-0.952295	-1.139516	-25.113872	-154.421022
11861		4.538646	-0.477436	8.595542	-0.542522	0.079922	-0.096213	-0.016871	-0.066910	-0.029965	-0.499023	0.128418	-0.457764	0.045357	-0.004774	0.085971	0.213804	-0.214477	-0.038667	-0.952256	-1.143832	-25.151269	-154.436032
11862		4.228972	-0.211259	8.821096	-0.079253	0.002726	-0.028298	-0.002610	-0.087727	-0.057499	-0.502197	0.125977	-0.459717	0.042250	-0.002124	0.088230	0.213535	-0.215032	-0.038858	-0.952184	-1.129596	-25.219973	-154.467409
11863		4.496591	-0.127729	8.690729	-0.305889	-0.192711	-0.033439	0.001445	-0.110652	-0.069643	-0.508545	0.117676	-0.468994	0.044917	-0.001294	0.086932	0.213206	-0.215537	-0.039041	-0.952136	-1.112878	-25.282909	-154.507044
11864		4.303256	-0.317772	8.851084	-0.153681	0.091333	0.032550	0.004517	-0.129480	-0.096689	-0.502197	0.124023	-0.457275	0.042974	-0.003201	0.088539	0.212743	-0.216261	-0.039352	-0.952063	-1.083473	-25.374404	-154.563907
11865		4.465230	0.048824	8.818417	-0.132381	-0.301473	0.066418	-0.066748	-0.153011	-0.142537	-0.506348	0.125000	-0.460693	0.044585	0.000486	0.088218	0.211984	-0.217025	-0.039335	-0.952059	-1.086042	-25.462410	-154.649371
11866		4.111975	-0.508758	8.951785	-0.006557	0.366532	0.044656	-0.229088	-0.161248	-0.257789	-0.497803	0.118408	-0.459717	0.041041	-0.005038	0.089557	0.210521	-0.218114	-0.038722	-0.952159	-1.149500	-25.573156	-154.804231
11867		4.418040	-1.116999	8.737378	-0.574161	0.766848	-0.004998	-0.247511	-0.189891	-0.351528	-0.502930	0.118896	-0.460693	0.044078	-0.011139	0.087429	0.208562	-0.219204	-0.038111	-0.952365	-1.198128	-25.684896	-155.021993
