// General information: 
//  MT Manager version: 2019.2.0 
//  XDA version: 2019.2.0 build 3853 rev 94535 built on 2019-09-09
// Device information: 
//  DeviceId: 00B47793
//  ProductCode: MTW2-3A7G6
//  Firmware Version: 4.6.0
//  Hardware Version: 2.0.0
// Device settings: 
//  Filter Profile: human(46.1)
//  Option Flags: Orientation Smoother Disabled, AHS Disabled, ICC Disabled
// Coordinate system: ENU
PacketCounter	SampleTimeFine	Acc_X	Acc_Y	Acc_Z	FreeAcc_E	FreeAcc_N	FreeAcc_U	Gyr_X	Gyr_Y	Gyr_Z	Mag_X	Mag_Y	Mag_Z	VelInc_X	VelInc_Y	VelInc_Z	Quat_q0	Quat_q1	Quat_q2	Quat_q3	Roll	Pitch	Yaw
11328		4.148629	-2.822125	8.460538	0.000000	-0.000000	0.023787	0.004853	0.001200	-0.010607	-0.773682	0.591064	-0.714844	0.041485	-0.028226	0.084604	0.312484	-0.255069	0.069894	-0.912364	-18.449588	-24.945101	-138.072609
11329		4.152475	-2.863947	8.418993	0.000000	-0.000000	0.001827	0.005999	-0.001736	-0.011134	-0.769531	0.593750	-0.717041	0.041522	-0.028644	0.084189	0.314400	-0.256867	0.071530	-0.911074	-18.790175	-25.028665	-137.715734
11330		4.163409	-2.837977	8.451317	0.000224	-0.012079	0.026657	0.002740	0.000581	-0.006588	-0.773682	0.598877	-0.716309	0.041633	-0.028382	0.084513	0.313303	-0.255956	0.070746	-0.911769	-18.619129	-24.987174	-137.911985
11331		4.138744	-2.844927	8.428763	0.001122	0.008404	-0.001123	0.008332	0.001790	-0.008798	-0.767090	0.597168	-0.718018	0.041387	-0.028455	0.084286	0.313273	-0.255938	0.070700	-0.911788	-18.611976	-24.987811	-137.917617
11332		4.143878	-2.811225	8.438675	0.020347	-0.020400	-0.000190	0.004251	-0.000944	-0.010705	-0.766602	0.602295	-0.725342	0.041437	-0.028116	0.084386	0.313234	-0.255938	0.070671	-0.911804	-18.607600	-24.989855	-137.923235
11333		4.178263	-2.852930	8.442368	-0.023478	-0.007214	0.029571	0.005115	-0.000251	-0.009586	-0.769287	0.608154	-0.722900	0.041781	-0.028533	0.084423	0.313197	-0.255935	0.070635	-0.911820	-18.602264	-24.991744	-137.928927
11334		4.197679	-2.836660	8.442772	-0.027990	-0.030890	0.033419	0.007491	-0.001083	-0.012583	-0.770264	0.601318	-0.719482	0.041975	-0.028372	0.084427	0.313149	-0.255933	0.070583	-0.911841	-18.594850	-24.994660	-137.936259
11335		4.173211	-2.843217	8.420262	-0.027092	-0.010407	0.005639	0.008959	0.001751	-0.011366	-0.771240	0.594727	-0.713867	0.041731	-0.028438	0.084201	0.313108	-0.255915	0.070530	-0.911864	-18.586690	-24.995785	-137.943422
11336		4.154483	-2.857304	8.420259	-0.022556	0.013299	0.001792	0.007493	-0.001085	-0.012583	-0.767822	0.594971	-0.715088	0.041543	-0.028579	0.084202	0.313061	-0.255914	0.070477	-0.911885	-18.579293	-24.998866	-137.950748
11337		4.179667	-2.848373	8.443211	-0.023454	-0.007184	0.029571	0.008358	-0.000392	-0.011464	-0.764160	0.602783	-0.717285	0.041795	-0.028490	0.084431	0.313019	-0.255906	0.070424	-0.911905	-18.571634	-25.001171	-137.957539
11338		4.160033	-2.822254	8.430396	-0.003299	-0.015357	0.002725	0.006348	0.001849	-0.012055	-0.766357	0.593262	-0.716064	0.041599	-0.028228	0.084303	0.312971	-0.255895	0.070382	-0.911928	-18.564909	-25.002658	-137.965084
11339		4.147101	-2.843967	8.452843	0.004828	0.011525	0.022809	0.007756	-0.002535	-0.011561	-0.769775	0.599609	-0.719482	0.041468	-0.028445	0.084528	0.312929	-0.255898	0.070328	-0.911946	-18.557752	-25.006143	-137.971502
11340		4.175013	-2.837503	8.421296	-0.026971	-0.010342	0.005640	0.007236	0.000361	-0.013603	-0.763916	0.591309	-0.720459	0.041748	-0.028381	0.084212	0.312876	-0.255893	0.070278	-0.911970	-18.550230	-25.008718	-137.979684
11341		4.181030	-2.843897	8.444045	-0.023356	-0.007143	0.029572	0.008598	0.000338	-0.007775	-0.759033	0.601318	-0.719482	0.041809	-0.028444	0.084439	0.312851	-0.255881	0.070230	-0.911985	-18.543305	-25.009951	-137.984413
11342		4.162236	-2.858154	8.444034	-0.018752	0.016577	0.025724	0.006611	0.000399	-0.011034	-0.758057	0.599121	-0.715332	0.041621	-0.028587	0.084439	0.312809	-0.255877	0.070186	-0.912004	-18.536905	-25.012285	-137.991015
11343		4.153993	-2.847129	8.476250	0.008582	0.014784	0.046741	0.007214	0.002540	-0.010936	-0.769043	0.598633	-0.720947	0.041539	-0.028477	0.084761	0.312767	-0.255858	0.070143	-0.912027	-18.529783	-25.012897	-137.998081
11344		4.167411	-2.823182	8.454299	0.000555	-0.012095	0.026657	0.008966	0.001746	-0.011364	-0.764404	0.593750	-0.718994	0.041673	-0.028238	0.084541	0.312726	-0.255845	0.070092	-0.912049	-18.522027	-25.014462	-138.005071
11345		4.142737	-2.829914	8.431855	0.001452	0.008388	-0.001123	0.006589	0.002578	-0.008367	-0.769287	0.597656	-0.715332	0.041427	-0.028304	0.084317	0.312695	-0.255826	0.070055	-0.912068	-18.515912	-25.014584	-138.010605
11346		4.187524	-2.845930	8.468025	-0.019455	-0.003894	0.053504	0.011582	0.001646	-0.010674	-0.771240	0.598633	-0.721924	0.041874	-0.028466	0.084678	0.312660	-0.255808	0.069992	-0.912089	-18.506799	-25.016071	-138.017179
11347		4.162703	-2.852448	8.445733	-0.018558	0.016589	0.025724	0.007299	0.007574	-0.012881	-0.772217	0.593750	-0.712646	0.041628	-0.028530	0.084455	0.312608	-0.255767	0.069954	-0.912122	-18.498708	-25.014298	-138.026422
11348		4.148599	-2.833712	8.455551	0.005300	0.011587	0.022809	0.010119	-0.001192	-0.011888	-0.766846	0.594238	-0.715820	0.041484	-0.028344	0.084554	0.312567	-0.255767	0.069893	-0.912140	-18.490634	-25.017676	-138.033043
11349		4.167798	-2.817268	8.456081	0.000788	-0.012095	0.026657	0.006330	0.004024	-0.009388	-0.768555	0.603516	-0.726563	0.041678	-0.028177	0.084559	0.312531	-0.255742	0.069859	-0.912162	-18.484285	-25.017196	-138.039479
11350		4.181909	-2.833728	8.447028	-0.022807	-0.007110	0.029573	0.008945	0.003925	-0.008698	-0.764160	0.595215	-0.722168	0.041820	-0.028343	0.084468	0.312501	-0.255719	0.069815	-0.912183	-18.477197	-25.017151	-138.045236
11351		4.148752	-2.830474	8.456561	0.005425	0.011579	0.022809	0.007481	0.001088	-0.009913	-0.773193	0.597412	-0.722412	0.041487	-0.028310	0.084564	0.312465	-0.255706	0.069770	-0.912202	-18.470305	-25.018359	-138.051399
11352		4.148940	-2.829430	8.456818	0.005569	0.011567	0.022809	0.007482	0.001087	-0.009912	-0.765137	0.595703	-0.720215	0.041488	-0.028300	0.084567	0.312428	-0.255699	0.069728	-0.912220	-18.464087	-25.020146	-138.057278
11353		4.182252	-2.830625	8.447899	-0.022662	-0.007122	0.029573	0.005470	0.003327	-0.010506	-0.764404	0.598633	-0.715332	0.041822	-0.028311	0.084478	0.312386	-0.255679	0.069695	-0.912242	-18.458006	-25.020244	-138.064246
11354		4.174088	-2.819692	8.480015	0.004839	-0.008942	0.050589	0.007403	-0.003950	-0.007965	-0.765869	0.592285	-0.717529	0.041738	-0.028202	0.084800	0.312361	-0.255695	0.069649	-0.912250	-18.452918	-25.024451	-138.067866
11355		4.144132	-2.819010	8.434822	0.002119	0.008341	-0.001123	0.007771	-0.002544	-0.011555	-0.768311	0.601807	-0.722900	0.041439	-0.028196	0.084348	0.312319	-0.255699	0.069594	-0.912267	-18.445751	-25.027928	-138.074286
11356		4.203282	-2.852657	8.461437	-0.042453	0.001028	0.056423	0.004842	0.003367	-0.007938	-0.770996	0.596191	-0.726074	0.042033	-0.028530	0.084613	0.312287	-0.255685	0.069571	-0.912284	-18.441377	-25.028108	-138.079428
11357		4.150277	-2.824679	8.457750	0.005881	0.011525	0.022809	0.006883	-0.001057	-0.010008	-0.771240	0.600586	-0.719727	0.041501	-0.028252	0.084577	0.312251	-0.255683	0.069525	-0.912300	-18.434984	-25.030496	-138.085220
11358		4.158966	-2.833656	8.426036	-0.021246	0.013293	0.001795	0.007224	0.002531	-0.010933	-0.767822	0.603516	-0.722656	0.041589	-0.028342	0.084259	0.312209	-0.255673	0.069486	-0.912321	-18.428878	-25.031911	-138.091872
11359		4.183809	-2.824639	8.449131	-0.022140	-0.007190	0.029575	0.008717	0.003184	-0.012383	-0.771729	0.596436	-0.717041	0.041838	-0.028253	0.084489	0.312162	-0.255649	0.069436	-0.912347	-18.420470	-25.032425	-138.099939
11360		4.164975	-2.838641	8.449264	-0.017331	0.016427	0.025727	0.010731	0.000944	-0.011788	-0.768799	0.601807	-0.728027	0.041648	-0.028393	0.084491	0.312122	-0.255645	0.069381	-0.912366	-18.412847	-25.035083	-138.106493
11361		4.175771	-2.811997	8.481741	0.005496	-0.009050	0.050588	0.006994	0.001791	-0.014618	-0.766357	0.597900	-0.718994	0.041756	-0.028126	0.084816	0.312063	-0.255631	0.069333	-0.912394	-18.404985	-25.036759	-138.115618
11362		4.174015	-2.846257	8.417845	-0.044437	0.018113	0.004715	0.006887	-0.001060	-0.010006	-0.772461	0.596436	-0.717773	0.041738	-0.028468	0.084178	0.312028	-0.255638	0.069296	-0.912407	-18.400096	-25.039712	-138.120693
11363		4.159994	-2.827837	8.427483	-0.020718	0.013117	0.001796	0.005475	0.003321	-0.010505	-0.768311	0.595703	-0.717285	0.041600	-0.028283	0.084273	0.311986	-0.255617	0.069263	-0.912429	-18.394021	-25.039798	-138.127650
11364		4.151639	-2.816942	8.459662	0.007034	0.011290	0.022808	0.005997	0.000429	-0.008461	-0.763428	0.597656	-0.717773	0.041515	-0.028174	0.084596	0.311953	-0.255628	0.069233	-0.912440	-18.390340	-25.042778	-138.132087
11365		4.143416	-2.806085	8.491760	0.034375	0.009496	0.043819	0.002890	0.001232	-0.013859	-0.777588	0.597168	-0.722168	0.041433	-0.028065	0.084917	0.311893	-0.255623	0.069204	-0.912464	-18.385073	-25.044625	-138.140644
11366		4.153244	-2.855468	8.472827	-0.008247	0.043058	0.045812	0.006028	-0.001757	-0.011124	-0.767578	0.596680	-0.718018	0.041530	-0.028560	0.084728	0.311851	-0.255638	0.069170	-0.912477	-18.380750	-25.048499	-138.146234
11367		4.147915	-2.847129	8.450391	-0.011863	0.039860	0.021881	0.004275	-0.000965	-0.010696	-0.762939	0.599121	-0.711914	0.041477	-0.028475	0.084504	0.311808	-0.255639	0.069135	-0.912494	-18.375680	-25.050977	-138.152457
11368		4.158811	-2.820866	8.482666	0.011281	0.014012	0.046739	0.005768	-0.000312	-0.012145	-0.773193	0.597412	-0.717041	0.041586	-0.028214	0.084826	0.311765	-0.255645	0.069115	-0.912508	-18.372476	-25.053278	-138.158190
11369		4.148836	-2.845100	8.450623	-0.011539	0.039487	0.021883	0.007553	-0.003291	-0.015235	-0.767334	0.595215	-0.712402	0.041485	-0.028457	0.084506	0.311706	-0.255654	0.069056	-0.912530	-18.364603	-25.057841	-138.166652
11370		4.155282	-2.851542	8.473150	-0.007484	0.042444	0.045815	0.002816	-0.003805	-0.011909	-0.772949	0.593018	-0.717773	0.041550	-0.028519	0.084732	0.311658	-0.255687	0.069040	-0.912539	-18.363314	-25.063037	-138.171830
11371		4.163341	-2.820375	8.428331	-0.019225	0.012364	0.001800	0.005540	-0.001054	-0.015830	-0.768799	0.596924	-0.715820	0.041631	-0.028209	0.084283	0.311593	-0.255690	0.068993	-0.912564	-18.356272	-25.066522	-138.181092
11372		4.169508	-2.826748	8.451016	-0.015232	0.015310	0.025732	0.004387	0.001880	-0.015307	-0.773193	0.583496	-0.716797	0.041694	-0.028273	0.084509	0.311529	-0.255693	0.068975	-0.912586	-18.352502	-25.068920	-138.189645
11373		4.175722	-2.833130	8.473674	-0.011591	0.018508	0.049663	0.004681	-0.001753	-0.016947	-0.775635	0.593750	-0.722168	0.041754	-0.028337	0.084736	0.311458	-0.255700	0.068929	-0.912612	-18.345724	-25.073012	-138.199449
11374		4.164553	-2.817175	8.428802	-0.018631	0.012271	0.001801	0.006111	0.003273	-0.013071	-0.767334	0.600830	-0.707764	0.041645	-0.028177	0.084286	0.311395	-0.255692	0.068887	-0.912639	-18.338683	-25.075145	-138.208801
11375		4.170542	-2.823489	8.451595	-0.014991	0.015484	0.025732	0.007267	0.000337	-0.013593	-0.784424	0.599121	-0.718018	0.041704	-0.028241	0.084515	0.311342	-0.255685	0.068837	-0.912663	-18.331024	-25.077539	-138.217074
11376		4.154551	-2.840243	8.397192	-0.040375	0.037325	-0.023046	0.008990	0.001731	-0.011357	-0.779785	0.595215	-0.712646	0.041545	-0.028409	0.083970	0.311303	-0.255710	0.068821	-0.912670	-18.329655	-25.081676	-138.221266
11377		4.201627	-2.820665	8.497351	-0.011139	-0.002236	0.077443	0.006038	-0.001762	-0.011121	-0.788330	0.585205	-0.712646	0.042014	-0.028212	0.084973	0.311260	-0.255715	0.068777	-0.912687	-18.323589	-25.084842	-138.227604
11378		4.151536	-2.795504	8.439003	0.007363	0.007431	-0.001125	0.001668	-0.000876	-0.011385	-0.785645	0.589111	-0.713379	0.041513	-0.027958	0.084390	0.311191	-0.255783	0.068747	-0.912693	-18.322009	-25.094760	-138.234310
11379		4.188273	-2.801530	8.506867	0.013794	-0.006622	0.074514	0.007794	-0.002555	-0.011547	-0.791748	0.590820	-0.708496	0.041880	-0.028021	0.085068	0.311148	-0.255790	0.068692	-0.912710	-18.314863	-25.098605	-138.240820
11380		4.170229	-2.854075	8.388310	-0.061381	0.043786	-0.020108	0.004217	0.003404	-0.005370	-0.785645	0.590332	-0.708008	0.041703	-0.028544	0.083882	0.311101	-0.255853	0.068657	-0.912711	-18.313014	-25.107689	-138.245003
11381		4.140110	-2.856196	8.474683	0.001544	0.067145	0.041962	0.003391	0.000518	-0.009149	-0.792480	0.583008	-0.706787	0.041400	-0.028565	0.084746	0.311061	-0.255853	0.068629	-0.912727	-18.308716	-25.109657	-138.250772
11382		4.194146	-2.804488	8.398469	-0.044985	-0.007493	-0.015330	0.004884	0.001171	-0.010598	-0.781738	0.590088	-0.705566	0.041940	-0.028049	0.083984	0.310987	-0.255936	0.068576	-0.912733	-18.305176	-25.122211	-138.258045
11383		4.172577	-2.816383	8.452961	-0.009373	0.017698	0.025735	0.004361	0.004060	-0.012643	-0.793701	0.586426	-0.702881	0.041726	-0.028168	0.084528	0.310929	-0.255922	0.068543	-0.912759	-18.299097	-25.123146	-138.266721
11384		4.215102	-2.751871	8.463329	0.002696	-0.057585	0.034368	0.002716	0.007695	-0.016828	-0.793213	0.591309	-0.693604	0.042152	-0.027523	0.084631	0.310821	-0.255988	0.068520	-0.912779	-18.297054	-25.133382	-138.278410
11385		4.197124	-2.806394	8.476464	-0.008209	-0.001893	0.053521	0.008472	0.004618	-0.013400	-0.787598	0.587891	-0.705322	0.041971	-0.028070	0.084762	0.310764	-0.255967	0.068468	-0.912808	-18.288400	-25.134413	-138.287718
11386		4.827965	-2.612086	8.378808	-0.379474	-0.538136	0.182465	0.007759	0.004573	-0.021790	-0.788818	0.591553	-0.697266	0.048279	-0.026129	0.083786	0.310632	-0.256065	0.068418	-0.912829	-18.284392	-25.149542	-138.301790
11387		4.111205	-2.580434	8.440447	0.152297	-0.127998	-0.078099	0.014974	0.004338	-0.017149	-0.791992	0.590820	-0.708008	0.041112	-0.025814	0.084402	0.310565	-0.256039	0.068331	-0.912866	-18.271156	-25.151703	-138.313335
11388		4.193306	-2.756535	8.387967	-0.022536	-0.036100	-0.038309	0.008476	0.004615	-0.013399	-0.791260	0.589355	-0.698975	0.041933	-0.027572	0.083878	0.310469	-0.256135	0.068260	-0.912877	-18.265585	-25.166733	-138.323351
11389		4.083734	-2.892842	8.477052	0.023892	0.142670	0.030326	0.005227	0.004753	-0.011524	-0.792236	0.587891	-0.704834	0.040838	-0.028933	0.084769	0.310415	-0.256122	0.068226	-0.912902	-18.259397	-25.167868	-138.331619
11390		4.076772	-2.844095	8.441982	0.037537	0.108746	-0.016629	0.010459	0.004567	-0.010141	-0.796387	0.589111	-0.702148	0.040768	-0.028447	0.084417	0.310344	-0.256189	0.068149	-0.912913	-18.252288	-25.179596	-138.339602
11391		4.230463	-2.799968	8.470029	-0.029386	-0.016716	0.060351	0.011095	0.004520	-0.012706	-0.796387	0.590820	-0.703613	0.042305	-0.028007	0.084698	0.310291	-0.256170	0.068085	-0.912941	-18.242479	-25.181238	-138.348569
11392		4.140240	-2.843004	8.479054	0.013967	0.073880	0.041904	0.006314	0.006196	-0.006723	-0.789795	0.597656	-0.708252	0.041404	-0.028434	0.084788	0.310234	-0.256221	0.068046	-0.912949	-18.239209	-25.189509	-138.354657
11393		4.173170	-2.844140	8.470328	-0.013985	0.055403	0.048736	0.006949	0.006148	-0.009289	-0.798096	0.588867	-0.698242	0.041733	-0.028446	0.084701	0.310191	-0.256201	0.068008	-0.912972	-18.232530	-25.189777	-138.361918
11394		4.266535	-2.725531	8.458932	-0.019930	-0.094734	0.045102	0.013453	0.005869	-0.013036	-0.799316	0.595459	-0.705078	0.042666	-0.027264	0.084586	0.310125	-0.256210	0.067953	-0.912996	-18.224914	-25.194257	-138.371181
11395		4.232612	-2.797884	8.417441	-0.057204	-0.016707	0.015483	0.006653	0.000370	-0.011019	-0.798828	0.587891	-0.702148	0.042325	-0.027984	0.084173	0.310076	-0.256217	0.067906	-0.913014	-18.218482	-25.198022	-138.378330
11396		4.274906	-2.733342	8.427818	-0.046084	-0.092300	0.024155	0.002652	0.012058	-0.011507	-0.798828	0.590820	-0.706055	0.042753	-0.027337	0.084275	0.310005	-0.256213	0.067894	-0.913040	-18.214914	-25.199407	-138.387875
11397		4.147688	-2.847973	8.449372	-0.010541	0.076868	0.020935	0.002841	0.005586	-0.008532	-0.795654	0.584961	-0.697510	0.041478	-0.028483	0.084492	0.309960	-0.256202	0.067875	-0.913060	-18.210868	-25.199924	-138.394568
11398		4.118114	-2.887980	8.417466	-0.028195	0.126374	-0.007778	0.008448	0.006798	-0.010736	-0.788086	0.588379	-0.694336	0.041182	-0.028886	0.084172	0.309908	-0.256199	0.067829	-0.913082	-18.203960	-25.202634	-138.402354
11399		4.099547	-2.826471	8.468883	0.042384	0.091105	0.011116	0.009047	0.008939	-0.010641	-0.805908	0.590576	-0.695801	0.040998	-0.028271	0.084686	0.309860	-0.256164	0.067784	-0.913111	-18.195532	-25.201716	-138.410986
11400		4.178800	-2.806416	8.428841	-0.021544	0.026870	0.004772	0.011066	0.006705	-0.010042	-0.793457	0.588379	-0.704834	0.041789	-0.028071	0.084285	0.309816	-0.256152	0.067743	-0.913132	-18.189044	-25.202970	-138.417943
11401		4.150932	-2.810677	8.461106	0.010644	0.048967	0.021841	0.006916	0.008334	-0.006627	-0.795410	0.590088	-0.693359	0.041512	-0.028111	0.084608	0.309784	-0.256122	0.067713	-0.913154	-18.182926	-25.201673	-138.424037
11402		4.118511	-2.848087	8.483676	0.023912	0.099479	0.037999	0.004602	0.004791	-0.008956	-0.793701	0.592529	-0.692871	0.041186	-0.028485	0.084835	0.309742	-0.256121	0.067700	-0.913169	-18.180306	-25.202884	-138.429741
11403		4.177982	-2.803480	8.430223	-0.020403	0.027219	0.004773	0.008493	0.004603	-0.013393	-0.799072	0.593994	-0.702393	0.041780	-0.028041	0.084300	0.309682	-0.256108	0.067648	-0.913197	-18.171865	-25.204823	-138.439168
11404		4.168355	-2.751942	8.449509	0.023088	-0.006646	0.002708	0.009017	0.001717	-0.011346	-0.794189	0.590576	-0.694092	0.041683	-0.027526	0.084493	0.309636	-0.256114	0.067614	-0.913214	-18.166999	-25.207793	-138.445528
11405		4.259706	-2.746553	8.454304	-0.033900	-0.064240	0.044221	0.008535	0.002410	-0.016052	-0.797852	0.587891	-0.708008	0.042596	-0.027473	0.084541	0.309565	-0.256112	0.067554	-0.913243	-18.158040	-25.211400	-138.456119
11406		4.065640	-2.816612	8.480974	0.073844	0.110125	0.004240	0.004906	0.001155	-0.010591	-0.805176	0.586426	-0.703613	0.040655	-0.028170	0.084809	0.309517	-0.256125	0.067531	-0.913257	-18.154754	-25.214771	-138.462218
11407		4.166800	-2.861881	8.466714	-0.026046	0.086224	0.047825	0.005806	-0.000336	-0.012132	-0.798828	0.588379	-0.697510	0.041666	-0.028624	0.084666	0.309461	-0.256138	0.067484	-0.913276	-18.148590	-25.219170	-138.469912
11408		4.133764	-2.858946	8.476080	0.002664	0.104726	0.040968	0.005504	0.003297	-0.010497	-0.792725	0.589844	-0.702393	0.041338	-0.028594	0.084759	0.309415	-0.256138	0.067467	-0.913293	-18.145346	-25.220727	-138.476211
11409		4.199208	-2.821728	8.445038	-0.037979	0.035689	0.031674	0.007786	-0.000378	-0.008874	-0.796875	0.588623	-0.706299	0.041991	-0.028222	0.084449	0.309377	-0.256147	0.067416	-0.913307	-18.138882	-25.224571	-138.481939
11410		4.208462	-2.754836	8.464472	0.000850	-0.022023	0.033483	0.008237	0.006040	-0.014416	-0.798340	0.589111	-0.705566	0.042085	-0.027555	0.084642	0.309319	-0.256126	0.067393	-0.913334	-18.133477	-25.224439	-138.490776
11411		4.100642	-2.853722	8.486258	0.031906	0.123464	0.034104	0.007222	0.004697	-0.008262	-0.805176	0.591797	-0.708252	0.041007	-0.028542	0.084861	0.309281	-0.256112	0.067353	-0.913354	-18.127067	-25.225401	-138.497135
11412		4.160310	-2.809145	8.432657	-0.012273	0.050668	0.000898	0.004952	-0.001041	-0.013248	-0.796875	0.588379	-0.706787	0.041601	-0.028096	0.084326	0.309226	-0.256129	0.067336	-0.913369	-18.124420	-25.228974	-138.503890
11413		4.247765	-2.760852	8.478815	-0.022663	-0.037396	0.064266	0.009402	0.003104	-0.014932	-0.803955	0.588623	-0.705566	0.042477	-0.027616	0.084786	0.309160	-0.256122	0.067275	-0.913398	-18.115181	-25.231992	-138.513952
11414		4.298991	-2.705753	8.457163	-0.039445	-0.111937	0.051995	0.010188	-0.001221	-0.011860	-0.801758	0.587646	-0.700684	0.042988	-0.027064	0.084571	0.309118	-0.256131	0.067233	-0.913413	-18.109712	-25.235600	-138.519982
11415		4.213279	-2.791952	8.424540	-0.043986	0.008443	0.011649	0.005508	0.003293	-0.010496	-0.806396	0.591309	-0.701172	0.042133	-0.027924	0.084244	0.309067	-0.256127	0.067196	-0.913433	-18.103824	-25.237723	-138.527413
11416		4.048413	-2.821575	8.483453	0.082206	0.133533	0.000331	0.003416	0.000499	-0.009141	-0.809082	0.582031	-0.702637	0.040483	-0.028219	0.084834	0.309025	-0.256148	0.067187	-0.913443	-18.102732	-25.241058	-138.532297
11417		4.142575	-2.819447	8.433603	-0.005861	0.074516	-0.002984	0.003416	0.000499	-0.009141	-0.808350	0.595459	-0.697754	0.041425	-0.028198	0.084335	0.308979	-0.256159	0.067157	-0.913457	-18.098629	-25.244468	-138.538362
11418		4.138745	-2.776099	8.475063	0.041205	0.043766	0.018845	-0.000218	-0.000752	-0.003682	-0.803711	0.583496	-0.696533	0.041387	-0.027762	0.084751	0.308959	-0.256182	0.067173	-0.913457	-18.101204	-25.246546	-138.539621
11419		4.173415	-2.818140	8.478894	-0.002224	0.057210	0.048735	0.000044	-0.002194	-0.002658	-0.803223	0.593018	-0.706299	0.041733	-0.028182	0.084789	0.308940	-0.256209	0.067162	-0.913456	-18.100924	-25.250273	-138.541253
11420		4.140212	-2.816112	8.488037	0.026372	0.075529	0.041866	-0.001643	0.003622	-0.004189	-0.797852	0.588867	-0.706299	0.041403	-0.028161	0.084880	0.308916	-0.256208	0.067193	-0.913462	-18.103752	-25.249342	-138.543639
11421		4.118180	-2.827121	8.410865	-0.003617	0.094767	-0.030782	-0.004638	0.002320	-0.001294	-0.798828	0.589844	-0.699951	0.041183	-0.028270	0.084109	0.308895	-0.256221	0.067213	-0.913464	-18.106127	-25.250366	-138.545338
11422		4.252791	-2.799396	8.438324	-0.065877	-0.007607	0.042451	0.000378	0.001390	-0.003588	-0.798340	0.584961	-0.703125	0.042528	-0.027995	0.084383	0.308879	-0.256224	0.067236	-0.913467	-18.108453	-25.249969	-138.546751
11423		4.223950	-2.764451	8.457105	-0.018174	-0.017423	0.036471	-0.000785	0.004323	-0.003072	-0.795410	0.593994	-0.702881	0.042241	-0.027645	0.084570	0.308855	-0.256222	0.067238	-0.913476	-18.107996	-25.250214	-138.549913
11424		4.203433	-2.739790	8.444050	0.002231	-0.026019	0.009562	-0.002327	0.005866	0.001034	-0.801514	0.583252	-0.695801	0.042037	-0.027397	0.084440	0.308854	-0.256211	0.067284	-0.913476	-18.112577	-25.247146	-138.549494
11425		4.186240	-2.836044	8.470147	-0.023950	0.061671	0.051732	-0.004392	0.010291	0.003091	-0.805908	0.593262	-0.699463	0.041867	-0.028358	0.084700	0.308851	-0.256186	0.067320	-0.913481	-18.115269	-25.243040	-138.550118
11426		4.165379	-2.811570	8.457196	-0.003440	0.053176	0.024824	-0.000829	0.006517	-0.000414	-0.800781	0.585938	-0.704346	0.041656	-0.028115	0.084571	0.308842	-0.256177	0.067355	-0.913484	-18.118520	-25.240741	-138.550885
11427		4.166063	-2.851932	8.470433	-0.018638	0.085287	0.047850	-0.003445	0.006605	-0.001107	-0.792725	0.587891	-0.701660	0.041663	-0.028518	0.084703	0.308822	-0.256169	0.067376	-0.913492	-18.119904	-25.239399	-138.553313
11428		4.172580	-2.821854	8.425918	-0.030216	0.054788	0.003904	0.001817	0.013646	0.000985	-0.801758	0.595459	-0.706055	0.041732	-0.028219	0.084256	0.308824	-0.256113	0.067415	-0.913504	-18.121297	-25.231772	-138.554450
11429		4.120472	-2.875376	8.448504	-0.012679	0.129238	0.016170	0.002197	0.015035	-0.002603	-0.802490	0.590332	-0.698975	0.041211	-0.028755	0.084482	0.308802	-0.256058	0.067421	-0.913526	-18.118353	-25.226099	-138.559440
11430		4.080271	-2.865698	8.435772	0.012331	0.144209	-0.014619	0.004814	0.014946	-0.001909	-0.802979	0.588135	-0.701660	0.040809	-0.028659	0.084354	0.308795	-0.255998	0.067451	-0.913543	-18.118273	-25.218606	-138.562128
11431		4.216747	-2.839805	8.409662	-0.081070	0.041066	0.013788	0.010733	0.012525	-0.005742	-0.807129	0.584229	-0.707275	0.042172	-0.028404	0.084092	0.308770	-0.255942	0.067410	-0.913570	-18.109851	-25.214860	-138.568507
11432		4.187004	-2.803808	8.429208	-0.033212	0.030647	0.007794	0.009952	0.016846	-0.008813	-0.800293	0.590820	-0.704346	0.041876	-0.028044	0.084287	0.308736	-0.255867	0.067406	-0.913603	-18.104287	-25.207693	-138.576100
11433		4.153953	-2.840534	8.452360	-0.020185	0.081420	0.023944	0.015874	0.014423	-0.012644	-0.801514	0.590820	-0.699707	0.041544	-0.028415	0.084518	0.308685	-0.255797	0.067336	-0.913645	-18.090985	-25.204144	-138.587013
11434		4.025788	-2.838318	8.512334	0.096927	0.158715	0.020331	0.012999	0.015950	-0.014362	-0.802979	0.591553	-0.706787	0.040263	-0.028392	0.085118	0.308633	-0.255724	0.067319	-0.913684	-18.083533	-25.198079	-138.597198
11435		4.024454	-2.912107	8.462547	0.031428	0.218096	-0.002348	0.021494	0.015632	-0.014839	-0.802490	0.584717	-0.702637	0.040249	-0.029133	0.084619	0.308579	-0.255641	0.067222	-0.913733	-18.066358	-25.194256	-138.609661
11436		4.127864	-2.882351	8.446152	-0.033665	0.132771	0.019196	0.022906	0.018352	-0.024577	-0.800293	0.589600	-0.698730	0.041283	-0.028838	0.084454	0.308492	-0.255537	0.067151	-0.913796	-18.050124	-25.187788	-138.626584
11437		4.202576	-2.817396	8.448444	-0.051437	0.038269	0.034721	0.026906	0.016083	-0.020713	-0.802490	0.595459	-0.706299	0.042030	-0.028190	0.084477	0.308419	-0.255445	0.067023	-0.913856	-18.028307	-25.184754	-138.642671
11438		4.150743	-2.867596	8.472032	-0.033671	0.111728	0.047002	0.033251	0.022256	-0.027426	-0.801270	0.593506	-0.702393	0.041513	-0.028696	0.084711	0.308333	-0.255313	0.066916	-0.913930	-18.006320	-25.176686	-138.661493
11439		4.064113	-2.950871	8.441021	-0.038216	0.232117	0.006689	0.039188	0.019825	-0.031249	-0.805664	0.594727	-0.699463	0.040645	-0.029532	0.084400	0.308225	-0.255188	0.066724	-0.914015	-17.974472	-25.173463	-138.684642
11440		4.089545	-2.900077	8.398500	-0.054099	0.177483	-0.033362	0.050569	0.025058	-0.040245	-0.803467	0.590088	-0.703125	0.040900	-0.029030	0.083973	0.308103	-0.255022	0.066530	-0.914117	-17.939737	-25.166114	-138.711455
11441		4.001930	-2.864997	8.405974	0.022621	0.206786	-0.074065	0.060637	0.030256	-0.055059	-0.797119	0.595947	-0.713867	0.040024	-0.028686	0.084045	0.307910	-0.254825	0.066226	-0.914259	-17.888655	-25.161376	-138.750964
11442		4.054678	-2.807816	8.464032	0.040584	0.136159	-0.017592	0.069224	0.027719	-0.058171	-0.809082	0.580566	-0.698242	0.040550	-0.028119	0.084625	0.307732	-0.254613	0.065932	-0.914399	-17.838282	-25.154273	-138.789003
11443		4.117602	-2.800331	8.503470	0.015573	0.100433	0.041001	0.067940	0.027661	-0.063983	-0.802002	0.599854	-0.702637	0.041179	-0.028045	0.085019	0.307509	-0.254419	0.065579	-0.914554	-17.780957	-25.152439	-138.833372
11444		4.002898	-2.844875	8.492102	0.058690	0.209681	-0.005298	0.069798	0.024641	-0.067041	-0.797852	0.593262	-0.704590	0.040030	-0.028492	0.084906	0.307288	-0.254232	0.065265	-0.914703	-17.728550	-25.149601	-138.876334
11445		4.085192	-2.897391	8.481124	-0.036625	0.209466	0.034541	0.071864	0.022386	-0.066418	-0.805176	0.588867	-0.705566	0.040852	-0.029018	0.084796	0.307060	-0.254057	0.064883	-0.914855	-17.668793	-25.151002	-138.921150
11446		4.098488	-2.865246	8.461783	-0.044466	0.181446	0.014525	0.082639	0.020421	-0.073520	-0.802490	0.585693	-0.705566	0.040983	-0.028702	0.084602	0.306831	-0.253861	0.064503	-0.915013	-17.608117	-25.149983	-138.966848
11447		4.065576	-2.777117	8.524350	0.049842	0.141113	0.030251	0.084518	0.017387	-0.076569	-0.808350	0.578125	-0.706299	0.040653	-0.027823	0.085228	0.306575	-0.253693	0.064042	-0.915178	-17.538914	-25.155777	-139.016835
11448		4.100008	-2.768624	8.518171	0.022002	0.121401	0.037153	0.081145	0.007301	-0.081698	-0.800781	0.578125	-0.706299	0.040992	-0.027738	0.085169	0.306308	-0.253562	0.063635	-0.915332	-17.477534	-25.163531	-139.065442
11449		4.001006	-2.865230	8.433694	-0.009174	0.264093	-0.051798	0.088736	0.003444	-0.078634	-0.802979	0.583252	-0.712158	0.040000	-0.028705	0.084324	0.306051	-0.253452	0.063131	-0.915483	-17.406481	-25.177199	-139.114057
11450		3.995591	-2.731290	8.581844	0.134693	0.174534	0.037395	0.093255	-0.007089	-0.092586	-0.808105	0.580811	-0.708008	0.039940	-0.027371	0.085807	0.305758	-0.253366	0.062640	-0.915639	-17.337170	-25.193568	-139.166119
11451		4.203908	-2.583822	8.521669	0.034967	-0.058421	0.034301	0.091883	-0.009994	-0.093765	-0.805664	0.580322	-0.708008	0.042023	-0.025897	0.085207	0.305440	-0.253317	0.062081	-0.915796	-17.261446	-25.217049	-139.221402
11452		4.200445	-2.602251	8.568456	0.047298	-0.029526	0.078256	0.079614	-0.021160	-0.094829	-0.798096	0.582031	-0.709961	0.041983	-0.026077	0.085679	0.305123	-0.253320	0.061626	-0.915932	-17.200343	-25.241866	-139.272171
11453		4.012705	-2.628889	8.659419	0.205169	0.117739	0.083899	0.068783	-0.029471	-0.094692	-0.806641	0.583496	-0.710205	0.040102	-0.026338	0.086591	0.304778	-0.253395	0.061143	-0.916058	-17.139092	-25.276055	-139.324453
11454		3.898821	-2.666791	8.622960	0.244188	0.223434	0.013729	0.057109	-0.045716	-0.096327	-0.801758	0.578125	-0.708496	0.038956	-0.026711	0.086231	0.304437	-0.253535	0.060753	-0.916159	-17.092164	-25.313224	-139.371516
11455		3.908062	-2.698205	8.635780	0.229024	0.255514	0.036790	0.051514	-0.066635	-0.104386	-0.803955	0.579102	-0.708008	0.039038	-0.027025	0.086364	0.304036	-0.253810	0.060280	-0.916247	-17.041152	-25.369303	-139.422851
11456		4.009942	-2.647392	8.702175	0.222140	0.169069	0.124024	0.050436	-0.090662	-0.114780	-0.802490	0.577637	-0.704346	0.040045	-0.026519	0.087033	0.303613	-0.254163	0.059827	-0.916319	-16.995979	-25.433328	-139.473482
11457		4.048828	-2.859019	8.572412	0.024260	0.326414	0.084084	0.047443	-0.114731	-0.128412	-0.807373	0.577148	-0.704834	0.040421	-0.028636	0.085741	0.303111	-0.254671	0.059269	-0.916380	-16.944685	-25.519697	-139.530648
11458		3.997717	-2.922542	8.537221	0.014914	0.421554	0.047798	0.056668	-0.135712	-0.145296	-0.822510	0.574463	-0.705322	0.039898	-0.029279	0.085391	0.302572	-0.255229	0.058685	-0.916441	-16.891855	-25.613067	-139.591410
11459		4.034393	-2.971342	8.483370	-0.055101	0.457283	0.029090	0.077325	-0.161561	-0.167197	-0.810547	0.573975	-0.708984	0.040251	-0.029780	0.084855	0.301943	-0.255917	0.057870	-0.916508	-16.816667	-25.731452	-139.663821
11460		4.237425	-2.871248	8.482896	-0.134907	0.279562	0.089987	0.098315	-0.164431	-0.190739	-0.816650	0.567871	-0.701904	0.042277	-0.028795	0.084850	0.301259	-0.256555	0.056998	-0.916610	-16.730324	-25.847618	-139.746953
11461		4.284926	-2.848534	8.446626	-0.166557	0.257906	0.072954	0.110931	-0.181277	-0.204145	-0.811035	0.566406	-0.709961	0.042744	-0.028576	0.084489	0.300509	-0.257293	0.055951	-0.916714	-16.627085	-25.982703	-139.838861
11462		4.220658	-2.766174	8.510387	-0.039822	0.258025	0.077920	0.123557	-0.190935	-0.216899	-0.807129	0.570801	-0.701660	0.042095	-0.027760	0.085127	0.299742	-0.258016	0.054898	-0.916825	-16.521478	-26.116672	-139.933949
11463		4.170063	-2.696637	8.619111	0.094683	0.266363	0.130670	0.120801	-0.208657	-0.222442	-0.816162	0.574463	-0.700684	0.041581	-0.027065	0.086218	0.298927	-0.258868	0.053741	-0.916920	-16.409079	-26.269454	-140.032883
11464		4.222102	-2.670904	8.581133	0.062877	0.242379	0.113688	0.129161	-0.232580	-0.229421	-0.818848	0.560303	-0.709473	0.042090	-0.026813	0.085843	0.298134	-0.259777	0.052605	-0.916987	-16.302376	-26.427035	-140.126557
11465		4.301554	-2.520767	8.676512	0.146573	0.113627	0.192561	0.140520	-0.270813	-0.225996	-0.824463	0.564453	-0.684326	0.042869	-0.025317	0.086805	0.297343	-0.260884	0.051261	-0.917005	-16.181775	-26.614212	-140.217463
11466		4.276514	-2.205788	8.874005	0.442594	-0.082732	0.271913	0.150287	-0.326119	-0.211426	-0.825439	0.560791	-0.694092	0.042597	-0.022170	0.088793	0.296670	-0.262188	0.049895	-0.916927	-16.072340	-26.821371	-140.286193
11467		4.026194	-1.964834	9.086724	0.870547	-0.087242	0.280565	0.054963	-0.393470	-0.203190	-0.832520	0.550537	-0.682129	0.040063	-0.019714	0.090941	0.295900	-0.263977	0.048790	-0.916722	-16.015937	-27.072194	-140.342285
11468		4.043858	-2.891459	8.832065	0.280491	0.680574	0.295558	0.041455	-0.471176	-0.215516	-0.834961	0.549072	-0.687988	0.040199	-0.028976	0.088410	0.295095	-0.266091	0.047685	-0.916428	-15.975760	-27.358936	-140.390041
11469		4.083963	-2.563805	8.986179	0.540237	0.440626	0.361640	0.042341	-0.541807	-0.233561	-0.839600	0.548340	-0.681885	0.040566	-0.025705	0.089966	0.294201	-0.268582	0.046378	-0.916056	-15.929199	-27.696184	-140.439403
11470		4.260455	-2.686496	8.888026	0.349913	0.478925	0.386016	0.040207	-0.624928	-0.245533	-0.844727	0.547852	-0.675537	0.042294	-0.026935	0.089007	0.293292	-0.271381	0.045018	-0.915590	-15.892460	-28.069414	-140.479542
11471		4.310531	-2.504968	8.913512	0.474337	0.354289	0.383156	0.035376	-0.703799	-0.268308	-0.845459	0.543457	-0.666016	0.042758	-0.025123	0.089282	0.292260	-0.274626	0.043457	-0.915028	-15.852244	-28.501317	-140.522710
11472		4.231480	-2.615348	8.868389	0.505953	0.538525	0.328673	0.000250	-0.777092	-0.299481	-0.846436	0.548096	-0.665039	0.041931	-0.026217	0.088847	0.291081	-0.278176	0.041991	-0.914400	-15.835094	-28.965518	-140.569728
11473		4.126530	-2.573264	8.929849	0.698494	0.625178	0.312167	-0.033908	-0.856577	-0.339138	-0.852051	0.540039	-0.658447	0.040839	-0.025787	0.089478	0.289652	-0.282226	0.040424	-0.913683	-15.825104	-29.492674	-140.631026
11474		4.120410	-2.716926	8.825782	0.650255	0.797197	0.246866	-0.106576	-0.969203	-0.409067	-0.869141	0.539551	-0.644775	0.040720	-0.027206	0.088470	0.287861	-0.286791	0.039024	-0.912888	-15.850953	-30.076012	-140.712832
11475		4.639437	-2.671572	8.615660	0.299118	0.522823	0.312890	-0.114738	-1.056407	-0.466757	-0.861084	0.540283	-0.647461	0.045876	-0.026774	0.086415	0.285759	-0.291880	0.037355	-0.912005	-15.863055	-30.733287	-140.819837
11476		4.902012	-2.517477	8.436816	0.194617	0.304402	0.257840	-0.138967	-1.107156	-0.516619	-0.868896	0.529297	-0.642090	0.048487	-0.025242	0.084655	0.283443	-0.297112	0.035752	-0.911102	-15.883173	-31.408202	-140.945935
11477		5.181386	-2.582110	8.343074	0.022886	0.274929	0.338347	-0.159471	-1.127859	-0.556631	-0.878662	0.530029	-0.623779	0.051270	-0.025898	0.083742	0.280858	-0.302585	0.034050	-0.910166	-15.894428	-32.118983	-141.099112
11478		5.271903	-2.872175	8.225122	-0.147632	0.533692	0.355252	-0.163332	-1.137854	-0.578057	-0.889893	0.529541	-0.614990	0.052167	-0.028806	0.082573	0.278205	-0.307974	0.032420	-0.909232	-15.906040	-32.819962	-141.262064
11479		5.287858	-3.249682	8.138328	-0.289870	0.916897	0.376918	-0.106443	-1.169267	-0.585539	-0.895996	0.518555	-0.601074	0.052306	-0.032607	0.081708	0.275554	-0.313541	0.030373	-0.908207	-15.876203	-33.558078	-141.428921
11480		5.799459	-2.558205	7.986000	-0.280246	0.132072	0.378333	-0.078613	-1.177760	-0.580937	-0.895264	0.520508	-0.591064	0.057448	-0.025718	0.080209	0.273009	-0.318989	0.028310	-0.907144	-15.840366	-34.282932	-141.587180
11481		6.036549	-2.355660	7.881445	-0.300696	-0.089075	0.385672	-0.120979	-1.135643	-0.568936	-0.904541	0.513672	-0.578369	0.059849	-0.023680	0.079170	0.270382	-0.324394	0.026398	-0.906071	-15.815856	-34.999754	-141.753150
11482		6.196243	-2.888651	7.732755	-0.650002	0.342620	0.482558	-0.150826	-1.057900	-0.551620	-0.909424	0.505615	-0.575684	0.061472	-0.028998	0.077675	0.267814	-0.329382	0.024866	-0.905078	-15.814630	-35.655691	-141.917757
11483		6.261163	-3.362881	7.394847	-1.031564	0.749033	0.364183	-0.068228	-0.953466	-0.546530	-0.920166	0.498047	-0.563477	0.062166	-0.033774	0.074257	0.265334	-0.333866	0.022995	-0.904214	-15.743097	-36.268452	-142.107020
11484		6.698397	-2.820741	6.920155	-1.277250	0.077938	0.140972	0.081234	-0.892411	-0.486823	-0.923096	0.499512	-0.557129	0.066605	-0.028398	0.069488	0.263409	-0.337792	0.020753	-0.903372	-15.613958	-36.824813	-142.261670
11485		6.893253	-2.535169	6.988148	-1.165152	-0.176339	0.256514	0.188963	-0.824580	-0.410055	-0.927002	0.490967	-0.550293	0.068591	-0.025559	0.070141	0.261951	-0.341321	0.018118	-0.902526	-15.430358	-37.344797	-142.387466
11486		6.869157	-3.080614	7.525284	-1.015128	0.453928	0.773545	0.284097	-0.681435	-0.268722	-0.932373	0.483887	-0.548340	0.068393	-0.031005	0.075442	0.261321	-0.344028	0.015608	-0.901727	-15.249185	-37.754666	-142.435215
11487		4.495565	-3.622370	8.272121	0.721741	2.237381	-0.002863	0.352992	-0.456896	-0.059021	-0.933594	0.482178	-0.546143	0.044756	-0.036383	0.082759	0.261688	-0.345645	0.013316	-0.901039	-15.075016	-38.018066	-142.390350
11488		5.237580	-5.118177	8.860125	-0.058994	3.280678	1.203821	0.204095	-0.100976	0.361794	-0.935059	0.482178	-0.534912	0.052424	-0.051177	0.088575	0.263725	-0.345786	0.013038	-0.900395	-15.146261	-38.010821	-142.105655
11489		3.627277	-5.618066	7.343685	-0.269298	4.229059	-0.829826	0.222342	0.179793	0.667248	-0.928223	0.488770	-0.541992	0.036526	-0.056141	0.073342	0.267092	-0.344652	0.013426	-0.899832	-15.285330	-37.812960	-141.672868
11490		2.708345	-4.224543	7.097660	0.760677	3.411658	-1.854020	0.341675	0.236133	0.795651	-0.919678	0.493164	-0.545410	0.027335	-0.042258	0.070872	0.271319	-0.343033	0.013805	-0.899180	-15.431463	-37.546512	-141.145130
11491		3.065386	-2.934866	7.385020	1.297766	2.155287	-1.675186	0.283821	0.231748	0.803176	-0.918457	0.504395	-0.546143	0.030857	-0.029330	0.073773	0.275390	-0.341562	0.014218	-0.898495	-15.581222	-37.297409	-140.631980
11492		3.648059	-2.966287	7.924448	1.227588	1.936267	-0.888130	0.133200	0.321799	0.768225	-0.912842	0.501709	-0.549561	0.036722	-0.029575	0.079166	0.279139	-0.339790	0.015648	-0.897986	-15.821358	-36.978623	-140.143720
11493		3.954474	-3.358317	8.079758	0.909041	2.086582	-0.484340	0.057855	0.462344	0.734733	-0.911621	0.510986	-0.550293	0.039854	-0.033460	0.080696	0.282489	-0.337587	0.017279	-0.897739	-16.036873	-36.610224	-139.729478
11494		4.054101	-3.201778	7.933043	0.792752	1.814327	-0.555284	0.034777	0.597576	0.724192	-0.916504	0.510498	-0.557617	0.040893	-0.031884	0.079203	0.285850	-0.334669	0.019485	-0.897723	-16.274135	-36.138660	-139.333578
11495		3.957808	-2.704501	7.786184	0.964823	1.362074	-0.822885	0.010871	0.672776	0.730699	-0.902100	0.525146	-0.558105	0.039938	-0.026904	0.077726	0.289071	-0.331574	0.021618	-0.897791	-16.480262	-35.652640	-138.972356
11496		4.037281	-2.249395	7.799396	1.108340	0.869855	-0.856998	-0.030417	0.682770	0.730203	-0.892822	0.528564	-0.570801	0.040720	-0.022334	0.077859	0.292333	-0.328325	0.024259	-0.897862	-16.736393	-35.127426	-138.599216
11497		4.450913	-2.153584	8.004989	0.985186	0.526855	-0.470331	-0.065413	0.691969	0.711925	-0.883545	0.532959	-0.572998	0.044862	-0.021350	0.079902	0.295326	-0.325238	0.026730	-0.897936	-16.966225	-34.631582	-138.263860
11498		4.639589	-2.045219	8.183557	0.987556	0.278826	-0.240558	-0.070410	0.714825	0.685899	-0.879395	0.534912	-0.565918	0.046758	-0.020263	0.081676	0.298301	-0.321871	0.029516	-0.898078	-17.211324	-34.091869	-137.938351
11499		4.675001	-1.824191	8.273325	1.088441	0.014966	-0.197823	-0.082676	0.752078	0.635549	-0.878174	0.550537	-0.576172	0.047118	-0.018058	0.082564	0.300899	-0.318534	0.032029	-0.898315	-17.406156	-33.573968	-137.674557
11500		4.584164	-1.700318	8.251954	1.148594	-0.118453	-0.290793	-0.100215	0.747974	0.558817	-0.869873	0.547607	-0.582764	0.046197	-0.016833	0.082356	0.303230	-0.315052	0.034773	-0.898657	-17.605623	-33.035531	-137.449817
11501		4.509748	-1.692963	8.270286	1.164306	-0.150031	-0.314114	-0.123953	0.740903	0.461161	-0.861328	0.543945	-0.585938	0.045442	-0.016774	0.082545	0.304967	-0.311842	0.037178	-0.899092	-17.756174	-32.552649	-137.304081
11502		4.512423	-1.878166	8.306774	1.040243	-0.069609	-0.231221	-0.147890	0.723744	0.356523	-0.859863	0.541016	-0.586426	0.045458	-0.018639	0.082917	0.306299	-0.308551	0.039756	-0.899665	-17.905193	-32.061615	-137.213431
11503		4.738377	-2.272849	8.408064	0.706648	0.067386	0.077166	-0.173686	0.718150	0.266202	-0.854736	0.552002	-0.595947	0.047715	-0.022592	0.083929	0.307075	-0.305546	0.042045	-0.900321	-18.016438	-31.624970	-137.192345
11504		4.910712	-2.700422	8.384836	0.313466	0.240559	0.264823	-0.198000	0.717948	0.223502	-0.846436	0.563232	-0.602051	0.049438	-0.026866	0.083698	0.307717	-0.302367	0.044615	-0.901052	-18.144842	-31.160625	-137.190308
11505		4.903898	-3.056038	8.180486	-0.029402	0.446039	0.192694	-0.211945	0.704785	0.233718	-0.842041	0.558350	-0.600830	0.049363	-0.030416	0.081664	0.308282	-0.299478	0.047006	-0.901701	-18.267346	-30.736980	-137.189424
11506		4.834918	-3.295890	7.979989	-0.268293	0.590860	0.061421	-0.206556	0.655199	0.267273	-0.843750	0.567139	-0.615479	0.048654	-0.032812	0.079675	0.309110	-0.296581	0.049577	-0.902237	-18.419774	-30.299749	-137.149227
11507		4.865249	-3.367628	7.903484	-0.402999	0.562650	0.036031	-0.192323	0.581520	0.322497	-0.830811	0.560791	-0.608398	0.048936	-0.033522	0.078925	0.310127	-0.294188	0.051820	-0.902546	-18.570763	-29.926929	-137.069152
11508		4.941700	-3.403643	7.929834	-0.486896	0.483020	0.107832	-0.180263	0.499435	0.388393	-0.833496	0.568115	-0.614258	0.049681	-0.033869	0.079205	0.311568	-0.291927	0.054210	-0.902643	-18.760847	-29.553200	-136.923237
11509		5.074522	-3.426100	7.994946	-0.570154	0.367771	0.234573	-0.174124	0.433003	0.444363	-0.827637	0.566162	-0.621094	0.050994	-0.034078	0.079869	0.313193	-0.290137	0.056318	-0.902529	-18.951663	-29.237894	-136.739020
11510		5.141675	-3.364847	8.110521	-0.536945	0.221587	0.346142	-0.160200	0.385530	0.505951	-0.815430	0.571045	-0.621094	0.051658	-0.033453	0.081033	0.315215	-0.288335	0.058609	-0.902257	-19.174930	-28.904766	-136.499449
11511		5.219744	-3.200728	8.230079	-0.447903	-0.007815	0.435414	-0.142667	0.337666	0.562985	-0.815186	0.581543	-0.623047	0.052426	-0.031801	0.082235	0.317442	-0.286884	0.060595	-0.901807	-19.389230	-28.617375	-136.225280
11512		5.212833	-3.015265	8.251491	-0.346319	-0.215286	0.394465	-0.124551	0.304930	0.608858	-0.818604	0.586182	-0.623047	0.052345	-0.029942	0.082454	0.319991	-0.285368	0.062738	-0.901241	-19.626325	-28.308457	-135.909211
11513		5.088594	-2.718980	8.214334	-0.138373	-0.432974	0.215026	-0.090954	0.268117	0.624978	-0.807129	0.595703	-0.622559	0.051081	-0.026993	0.082087	0.322585	-0.284122	0.064467	-0.900588	-19.831745	-28.044702	-135.585912
11514		4.877904	-2.343310	8.096830	0.125257	-0.661721	-0.097239	-0.075357	0.216469	0.599575	-0.805908	0.595703	-0.623291	0.048937	-0.023256	0.080924	0.325178	-0.282934	0.066216	-0.899902	-20.041304	-27.785427	-135.260573
11515		4.889995	-2.073289	8.033218	0.228458	-0.927574	-0.229867	-0.069338	0.136798	0.553949	-0.805420	0.598877	-0.624268	0.049012	-0.020569	0.080306	0.327518	-0.282261	0.067533	-0.899166	-20.223838	-27.604308	-134.954719
11516		5.185118	-2.109063	8.098263	0.061729	-1.121616	-0.032425	-0.050622	0.065608	0.494667	-0.802002	0.598389	-0.622803	0.051930	-0.020942	0.080971	0.329711	-0.281749	0.068750	-0.898433	-20.399298	-27.447188	-134.663568
11517		5.801073	-2.184941	8.345229	-0.222336	-1.467584	0.476430	-0.026364	0.042225	0.436832	-0.800781	0.598389	-0.624756	0.058076	-0.021712	0.083443	0.331614	-0.281467	0.069552	-0.897759	-20.532096	-27.338712	-134.409211
11518		6.346035	-2.118845	8.719154	-0.315489	-1.875671	1.011709	-0.020171	0.091441	0.389514	-0.787842	0.597412	-0.618896	0.063541	-0.021056	0.087165	0.333354	-0.280837	0.070495	-0.897238	-20.653558	-27.190847	-134.190198
11519		6.364837	-1.996940	8.632136	-0.308928	-2.018638	0.903761	-0.030894	0.179324	0.339633	-0.792480	0.604248	-0.620117	0.063760	-0.019848	0.086267	0.334763	-0.279978	0.071408	-0.896909	-20.746432	-27.027641	-134.026705
11520		6.058036	-1.821982	8.287980	-0.219579	-2.011964	0.415397	-0.037615	0.225165	0.281256	-0.793213	0.603516	-0.619873	0.060699	-0.018119	0.082815	0.335931	-0.278836	0.072463	-0.896744	-20.829695	-26.833847	-133.905809
11521		5.922728	-1.783384	8.058486	-0.250746	-1.996283	0.144736	-0.039739	0.219497	0.205811	-0.791016	0.600830	-0.628906	0.059334	-0.017757	0.080523	0.336712	-0.277858	0.073296	-0.896687	-20.886030	-26.676020	-133.832749
11522		6.039273	-1.781499	7.981315	-0.376496	-2.102746	0.126357	-0.038638	0.205005	0.128682	-0.781494	0.606934	-0.633545	0.060486	-0.017761	0.079755	0.337188	-0.276884	0.074072	-0.896746	-20.926840	-26.528109	-133.800765
11523		6.013666	-1.906402	7.954309	-0.457436	-2.011454	0.127853	-0.039857	0.192099	0.074490	-0.780762	0.607910	-0.628662	0.060220	-0.019026	0.079489	0.337388	-0.276076	0.074676	-0.896869	-20.950531	-26.411732	-133.800370
11524		5.923731	-2.103734	7.919221	-0.544830	-1.821646	0.117825	-0.035820	0.181782	0.030491	-0.779297	0.606201	-0.634277	0.059312	-0.021014	0.079142	0.337424	-0.275259	0.075231	-0.897061	-20.963089	-26.300525	-133.823093
11525		5.730958	-2.321990	7.851408	-0.596791	-1.546366	0.042905	-0.024929	0.163574	0.006511	-0.777100	0.611816	-0.632568	0.057375	-0.023208	0.078470	0.337350	-0.274579	0.075627	-0.897263	-20.963146	-26.213338	-133.856789
11526		5.494694	-2.558801	7.761023	-0.644016	-1.227246	-0.063241	-0.000320	0.134111	0.000688	-0.780029	0.607178	-0.629395	0.054999	-0.025588	0.077573	0.337309	-0.273949	0.075875	-0.897451	-20.950649	-26.137380	-133.887126
11527		5.099661	-2.696013	7.642178	-0.549436	-0.877791	-0.293995	0.033733	0.090869	-0.002395	-0.780273	0.605225	-0.630371	0.051031	-0.026974	0.076394	0.337303	-0.273500	0.075873	-0.897590	-20.922169	-26.090905	-133.909466
11528		4.832650	-2.830641	7.619529	-0.478759	-0.604083	-0.387714	0.066499	0.024948	0.005007	-0.772461	0.608154	-0.630859	0.048337	-0.028331	0.076180	0.337407	-0.273262	0.075630	-0.897644	-20.882874	-26.075021	-133.912583
11529		4.830713	-2.943460	7.714780	-0.493889	-0.508324	-0.272496	0.089358	-0.024969	0.014949	-0.771973	0.599121	-0.632324	0.048300	-0.029465	0.077141	0.337599	-0.273232	0.075206	-0.897617	-20.838682	-26.086999	-133.898196
11530		5.038004	-3.124253	8.020559	-0.562617	-0.484493	0.133193	0.094344	-0.036525	0.043768	-0.772217	0.599365	-0.638184	0.050372	-0.031269	0.080200	0.337935	-0.273219	0.074781	-0.897529	-20.799680	-26.097672	-133.864264
11531		5.250931	-3.239001	8.214533	-0.658555	-0.522429	0.426225	0.091072	-0.002957	0.086217	-0.782715	0.603027	-0.635742	0.052522	-0.032405	0.082131	0.338440	-0.273061	0.074485	-0.897412	-20.771004	-26.083384	-133.812370
11532		5.107014	-3.383400	8.127016	-0.704155	-0.326155	0.334981	0.091009	0.036132	0.144634	-0.778320	0.607910	-0.637695	0.051109	-0.033834	0.081246	0.339193	-0.272703	0.074331	-0.897249	-20.753306	-26.036236	-133.734667
11533		4.689088	-3.289317	7.853543	-0.546900	-0.146340	-0.108834	0.114362	0.046533	0.195183	-0.772217	0.596680	-0.629639	0.046941	-0.032892	0.078506	0.340201	-0.272241	0.074162	-0.897022	-20.734786	-25.973350	-133.629012
11534		4.500558	-3.125653	7.805893	-0.369887	-0.155981	-0.284018	0.126993	0.002038	0.228046	-0.771240	0.605957	-0.636719	0.045042	-0.031255	0.078039	0.341387	-0.271954	0.073903	-0.896680	-20.722064	-25.928719	-133.493707
11535		4.535092	-3.054789	7.849041	-0.332175	-0.234102	-0.255434	0.127164	-0.037834	0.240557	-0.770264	0.606201	-0.633301	0.045373	-0.030543	0.078480	0.342645	-0.271832	0.073594	-0.896262	-20.716164	-25.901890	-133.342053
11536		4.558413	-3.006350	7.913657	-0.285994	-0.285442	-0.206442	0.121916	-0.055289	0.242747	-0.771973	0.610107	-0.629883	0.045599	-0.030056	0.079131	0.343909	-0.271809	0.073279	-0.895811	-20.715912	-25.885675	-133.185038
11537		4.505273	-2.933998	7.954268	-0.190930	-0.305288	-0.218598	0.120748	-0.059046	0.235382	-0.773193	0.603271	-0.635010	0.045064	-0.029335	0.079538	0.345142	-0.271794	0.072956	-0.895367	-20.714321	-25.871274	-133.031734
11538		4.420568	-2.853559	8.059695	-0.036243	-0.305370	-0.192483	0.110337	-0.059040	0.212958	-0.771484	0.607422	-0.630371	0.044212	-0.028533	0.080594	0.346255	-0.271823	0.072642	-0.894954	-20.713187	-25.863726	-132.891687
11539		4.499135	-2.795199	8.111383	-0.023086	-0.399314	-0.133332	0.092203	-0.048867	0.191892	-0.763672	0.608887	-0.635010	0.044998	-0.027946	0.081112	0.347250	-0.271826	0.072405	-0.894587	-20.715595	-25.852687	-132.766602
11540		4.385831	-2.807550	8.112848	0.039357	-0.316839	-0.177636	0.073713	-0.023854	0.161015	-0.774658	0.609375	-0.634277	0.043871	-0.028070	0.081123	0.348066	-0.271780	0.072241	-0.894297	-20.718015	-25.837192	-132.665610
11541		4.339104	-2.748564	8.066830	0.075945	-0.335387	-0.255600	0.059189	-0.003494	0.131268	-0.766846	0.611572	-0.627686	0.043408	-0.027481	0.080661	0.348728	-0.271660	0.072148	-0.894083	-20.719084	-25.814121	-132.586871
11542		4.250741	-2.757517	8.035986	0.106415	-0.274463	-0.317261	0.041490	0.003194	0.105902	-0.758545	0.615234	-0.631836	0.042523	-0.027569	0.080353	0.349243	-0.271569	0.072096	-0.893914	-20.722463	-25.795545	-132.525012
11543		4.247689	-2.758960	8.037105	0.106665	-0.274320	-0.317260	0.021383	0.008641	0.080923	-0.762451	0.617920	-0.628418	0.042492	-0.027581	0.080366	0.349624	-0.271478	0.072124	-0.893790	-20.730908	-25.776172	-132.478998
11544		4.299202	-2.882684	8.034519	0.000562	-0.219181	-0.257664	0.014222	0.015201	0.064408	-0.767334	0.609375	-0.630127	0.043007	-0.028819	0.080340	0.349911	-0.271396	0.072155	-0.893700	-20.737486	-25.759664	-132.444737
11545		4.411835	-2.921047	8.070912	-0.072841	-0.266490	-0.165921	0.020539	0.028662	0.058039	-0.765381	0.602295	-0.634277	0.044138	-0.029206	0.080700	0.350182	-0.271225	0.072191	-0.893643	-20.738504	-25.734199	-132.416866
11546		4.412041	-2.969615	8.108819	-0.084125	-0.231280	-0.118509	0.018094	0.044305	0.051303	-0.767822	0.608887	-0.615967	0.044146	-0.029692	0.081076	0.350404	-0.271012	0.072236	-0.893617	-20.736378	-25.704989	-132.397067
11547		4.458776	-2.961887	8.100006	-0.116659	-0.273570	-0.108302	0.004188	0.063037	0.049869	-0.764648	0.601318	-0.631348	0.044621	-0.029609	0.080985	0.350604	-0.270719	0.072394	-0.893615	-20.741269	-25.662765	-132.381809
11548		4.480808	-3.049129	8.119400	-0.175318	-0.228301	-0.054787	-0.002696	0.081127	0.055578	-0.761963	0.614990	-0.628174	0.044849	-0.030478	0.081176	0.350803	-0.270377	0.072600	-0.893623	-20.748417	-25.613247	-132.367820
11549		4.327980	-3.060248	8.080128	-0.116031	-0.128275	-0.150645	0.005632	0.100987	0.049398	-0.754883	0.610840	-0.644287	0.043328	-0.030594	0.080779	0.350988	-0.269912	0.072818	-0.893673	-20.748638	-25.550786	-132.361402
11550		4.100626	-2.965537	7.990687	0.023535	-0.059288	-0.354540	0.006302	0.097267	0.045191	-0.765869	0.621826	-0.641846	0.041052	-0.029649	0.079886	0.351147	-0.269489	0.072997	-0.893724	-20.746402	-25.494958	-132.357213
11551		4.117235	-3.004177	7.974858	-0.023615	-0.049139	-0.348435	0.000990	0.077248	0.035755	-0.758545	0.616211	-0.640137	0.041209	-0.030035	0.079733	0.351274	-0.269143	0.073175	-0.893764	-20.748081	-25.447989	-132.353560
11552		4.173762	-3.048523	8.079052	-0.032841	-0.052569	-0.222013	0.000853	0.060453	0.029227	-0.759033	0.614746	-0.637207	0.041766	-0.030479	0.080778	0.351367	-0.268898	0.073293	-0.893791	-20.748432	-25.415056	-132.350577
11553		4.209750	-3.153285	8.088077	-0.115440	-0.002872	-0.165467	0.002218	0.055928	0.029764	-0.759521	0.609619	-0.636963	0.042125	-0.031527	0.080869	0.351476	-0.268648	0.073420	-0.893813	-20.749930	-25.380730	-132.345692
11554		4.253549	-3.222294	8.160414	-0.147494	0.019519	-0.063529	0.006101	0.046717	0.039297	-0.760498	0.619141	-0.644775	0.042561	-0.032217	0.081593	0.351627	-0.268452	0.073504	-0.893806	-20.751256	-25.353092	-132.333614
11555		4.312705	-3.226338	8.250852	-0.141509	-0.016113	0.039467	0.016875	0.048625	0.050890	-0.755127	0.607666	-0.632813	0.043155	-0.032259	0.082495	0.351853	-0.268200	0.073581	-0.893786	-20.750410	-25.318394	-132.314569
11556		4.320821	-3.202435	8.284853	-0.118076	-0.041190	0.063963	0.018850	0.046912	0.057806	-0.755127	0.609619	-0.637207	0.043237	-0.032020	0.082835	0.352103	-0.267975	0.073635	-0.893751	-20.749320	-25.286905	-132.291478
11557		4.346301	-3.248301	8.290251	-0.161506	-0.028113	0.094036	0.020892	0.035735	0.058817	-0.751221	0.607422	-0.638916	0.043487	-0.032479	0.082891	0.352375	-0.267771	0.073682	-0.893701	-20.749388	-25.257507	-132.264852
11558		4.459276	-3.246694	8.314821	-0.219067	-0.106417	0.162436	0.022860	0.027539	0.055130	-0.759521	0.611328	-0.635986	0.044613	-0.032464	0.083138	0.352626	-0.267627	0.073682	-0.893645	-20.747322	-25.236996	-132.238946
11559		4.617133	-3.261612	8.428111	-0.266676	-0.197334	0.330242	0.024474	0.023823	0.045699	-0.758545	0.611084	-0.643066	0.046189	-0.032616	0.084272	0.352847	-0.267475	0.073674	-0.893604	-20.743142	-25.216648	-132.217426
11560		4.614091	-3.265111	8.375464	-0.297127	-0.197405	0.285428	0.016483	0.026817	0.032722	-0.754883	0.612305	-0.642334	0.046157	-0.032650	0.083746	0.352989	-0.267357	0.073671	-0.893583	-20.739291	-25.201358	-132.204578
11561		4.534388	-3.239898	8.352892	-0.247793	-0.165658	0.224223	0.006654	0.019076	0.011622	-0.750000	0.611328	-0.635986	0.045354	-0.032399	0.083524	0.353037	-0.267270	0.073689	-0.893589	-20.737171	-25.190474	-132.202176
11562		4.509336	-3.209290	8.263908	-0.261925	-0.176562	0.128442	-0.002061	0.005350	-0.005294	-0.756104	0.609863	-0.632080	0.045095	-0.032093	0.082638	0.352992	-0.267297	0.073680	-0.893600	-20.736561	-25.194719	-132.206970
11563		4.481197	-3.248802	8.364181	-0.214023	-0.122292	0.214007	-0.020644	-0.008959	-0.026389	-0.752930	0.618896	-0.642090	0.044804	-0.032485	0.083647	0.352843	-0.267397	0.073720	-0.893625	-20.743172	-25.206574	-132.220791
11564		4.445271	-3.239768	8.296435	-0.219861	-0.106549	0.138577	-0.022763	-0.015904	-0.046571	-0.757813	0.612549	-0.639893	0.044439	-0.032399	0.082972	0.352593	-0.267573	0.073710	-0.893672	-20.746172	-25.230835	-132.245223
11565		4.370137	-3.254462	8.283929	-0.185978	-0.043172	0.100770	-0.034555	-0.030077	-0.067847	-0.756836	0.619629	-0.648438	0.043678	-0.032545	0.082851	0.352248	-0.267808	0.073720	-0.893737	-20.752289	-25.262427	-132.278868
11566		4.415832	-3.226895	8.279690	-0.194284	-0.089818	0.107991	-0.043330	-0.040191	-0.083128	-0.752441	0.622559	-0.638184	0.044128	-0.032269	0.082813	0.351816	-0.268144	0.073711	-0.893807	-20.760272	-25.307239	-132.319461
11567		4.375955	-3.246823	8.255277	-0.188646	-0.045154	0.076843	-0.052693	-0.046655	-0.094175	-0.759521	0.614014	-0.636963	0.043725	-0.032467	0.082572	0.351335	-0.268494	0.073737	-0.893889	-20.771647	-25.353074	-132.364997
11568		4.375445	-3.279480	8.242339	-0.206983	-0.015656	0.076325	-0.058998	-0.049728	-0.105546	-0.761230	0.606201	-0.634521	0.043717	-0.032794	0.082444	0.350784	-0.268909	0.073752	-0.893979	-20.783942	-25.407669	-132.416686
11569		4.472295	-3.323102	8.252535	-0.279457	-0.042048	0.140648	-0.054866	-0.040591	-0.106776	-0.759033	0.607666	-0.634033	0.044688	-0.033232	0.082544	0.350242	-0.269241	0.073781	-0.894090	-20.792687	-25.452839	-132.471080
11570		4.399815	-3.338177	8.238705	-0.244991	0.021933	0.102834	-0.053958	-0.030529	-0.099737	-0.759277	0.616455	-0.636230	0.043969	-0.033381	0.082403	0.349716	-0.269560	0.073816	-0.894196	-20.801819	-25.496101	-132.523620
11571		4.361306	-3.321185	8.146851	-0.255071	0.034088	0.003433	-0.042853	-0.038913	-0.086697	-0.764404	0.615967	-0.640625	0.043583	-0.033213	0.081484	0.349279	-0.269855	0.073822	-0.894278	-20.808567	-25.536306	-132.566499
11572		4.302540	-3.314765	8.110211	-0.228849	0.071373	-0.054738	-0.037854	-0.045329	-0.073402	-0.768555	0.610596	-0.640137	0.042995	-0.033148	0.081118	0.348898	-0.270204	0.073797	-0.894323	-20.816915	-25.582150	-132.599941
11573		4.277785	-3.269540	8.104291	-0.184917	0.058580	-0.084828	-0.022101	-0.056268	-0.059146	-0.758789	0.609863	-0.635498	0.042745	-0.032699	0.081059	0.348618	-0.270531	0.073716	-0.894340	-20.820468	-25.626054	-132.622561
11574		4.247068	-3.213106	8.130509	-0.112925	0.044249	-0.094041	-0.016762	-0.064846	-0.051132	-0.762207	0.617188	-0.635986	0.042436	-0.032135	0.081322	0.348373	-0.270923	0.073594	-0.894327	-20.824532	-25.677822	-132.638323
11575		4.221387	-3.204397	8.192281	-0.053267	0.063968	-0.055905	-0.009833	-0.070630	-0.041954	-0.760986	0.611328	-0.631592	0.042178	-0.032049	0.081939	0.348191	-0.271286	0.073457	-0.894299	-20.826856	-25.725923	-132.647491
11576		4.214559	-3.224892	8.212177	-0.044079	0.091274	-0.035571	-0.004055	-0.070421	-0.036948	-0.761475	0.613770	-0.637207	0.042111	-0.032255	0.082137	0.348029	-0.271674	0.073290	-0.894258	-20.828030	-25.777628	-132.653458
11577		4.183704	-3.168129	8.238791	0.027274	0.076401	-0.044806	-0.002150	-0.063319	-0.030445	-0.765137	0.615723	-0.633789	0.041806	-0.031687	0.082401	0.347907	-0.271987	0.073147	-0.894222	-20.828196	-25.819475	-132.657439
11578		4.116920	-3.190058	8.248557	0.065490	0.143158	-0.058745	0.003108	-0.054960	-0.029552	-0.761963	0.610352	-0.632324	0.041142	-0.031908	0.082496	0.347782	-0.272289	0.072985	-0.894192	-20.825643	-25.861169	-132.662522
11579		4.162385	-3.160802	8.244805	0.056668	0.095889	-0.051513	0.002337	-0.053459	-0.027985	-0.754150	0.611084	-0.638672	0.041597	-0.031615	0.082459	0.347673	-0.272549	0.072842	-0.894167	-20.822895	-25.897239	-132.667276
11580		4.179765	-3.174775	8.287500	0.064985	0.102352	-0.003631	0.004431	-0.044860	-0.025136	-0.766113	0.618896	-0.634521	0.041775	-0.031755	0.082884	0.347568	-0.272800	0.072700	-0.894143	-20.819712	-25.932271	-132.671997
11581		4.159021	-3.139311	8.251205	0.081474	0.091620	-0.054610	0.009029	-0.038636	-0.024312	-0.762451	0.615723	-0.627930	0.041570	-0.031402	0.082519	0.347478	-0.272981	0.072558	-0.894134	-20.812611	-25.959659	-132.677928
11582		4.175363	-3.152889	8.294583	0.089810	0.098048	-0.006730	0.004478	-0.031606	-0.033865	-0.763428	0.611816	-0.630371	0.041735	-0.031538	0.082952	0.347329	-0.273175	0.072428	-0.894143	-20.806035	-25.989252	-132.690824
11583		4.120065	-3.152692	8.282779	0.119123	0.137678	-0.041010	0.003519	-0.024139	-0.041676	-0.775879	0.605713	-0.629395	0.041184	-0.031537	0.082832	0.347149	-0.273307	0.072312	-0.894182	-20.796108	-26.012413	-132.710394
11584		4.122088	-3.190822	8.295191	0.104503	0.169896	-0.017619	-0.000448	-0.020110	-0.049143	-0.762939	0.613281	-0.644287	0.041205	-0.031918	0.082956	0.346920	-0.273461	0.072202	-0.894233	-20.786831	-26.038687	-132.735237
11585		4.097760	-3.235277	8.286177	0.090170	0.222492	-0.021787	-0.004413	-0.016084	-0.056609	-0.763672	0.614014	-0.638184	0.040962	-0.032363	0.082866	0.346660	-0.273575	0.072115	-0.894306	-20.776715	-26.060567	-132.765550
11586		4.047534	-3.285906	8.255601	0.077049	0.296111	-0.053536	0.001309	-0.026829	-0.053879	-0.760498	0.608887	-0.633545	0.040455	-0.032871	0.082561	0.346420	-0.273751	0.071983	-0.894356	-20.765929	-26.090379	-132.791317
11587		4.174320	-3.327915	8.311473	0.007586	0.251953	0.062383	0.001214	-0.031297	-0.045542	-0.770020	0.610840	-0.635010	0.041723	-0.033289	0.083121	0.346222	-0.273920	0.071860	-0.894390	-20.756972	-26.118154	-132.811609
11588		4.201506	-3.402748	8.304225	-0.054433	0.294071	0.091961	0.013113	-0.016166	-0.034304	-0.770996	0.617920	-0.631104	0.042003	-0.034040	0.083043	0.346079	-0.274023	0.071722	-0.894425	-20.743837	-26.138582	-132.828313
11589		4.177569	-3.406778	8.282537	-0.053361	0.314999	0.064385	0.015315	-0.018643	-0.020067	-0.764160	0.613770	-0.635742	0.041765	-0.034078	0.082827	0.346010	-0.274102	0.071593	-0.894438	-20.732222	-26.154405	-132.836277
11590		4.168034	-3.345926	8.279114	-0.013476	0.278597	0.037879	0.025242	-0.015101	-0.006984	-0.767334	0.607178	-0.629883	0.041673	-0.033471	0.082790	0.346008	-0.274169	0.071446	-0.894430	-20.719935	-26.168245	-132.836468
11591		4.124764	-3.320465	8.299887	0.038729	0.292439	0.028058	0.028652	-0.021978	-0.005879	-0.773438	0.607178	-0.627930	0.041238	-0.033218	0.082999	0.346022	-0.274235	0.071271	-0.894419	-20.704745	-26.182981	-132.835214
11592		4.237297	-3.343452	8.366594	-0.006526	0.243484	0.140901	0.027183	-0.027763	-0.002346	-0.762939	0.613281	-0.633545	0.042361	-0.033446	0.083667	0.346044	-0.274353	0.071097	-0.894388	-20.693307	-26.202838	-132.830414
11593		4.264718	-3.371556	8.455750	0.008763	0.255439	0.236670	0.029538	-0.020636	0.001529	-0.764893	0.616699	-0.631836	0.042639	-0.033728	0.084557	0.346091	-0.274408	0.070930	-0.894366	-20.679427	-26.215362	-132.825045
11594		4.186926	-3.388141	8.391961	0.011812	0.317801	0.153943	0.033663	-0.009226	0.002911	-0.755859	0.613037	-0.629639	0.041866	-0.033895	0.083916	0.346150	-0.274422	0.070776	-0.894351	-20.664674	-26.222650	-132.820090
11595		4.136430	-3.354992	8.390901	0.060265	0.328695	0.120166	0.029733	-0.013324	0.002164	-0.760742	0.603516	-0.630615	0.041359	-0.033562	0.083907	0.346198	-0.274444	0.070622	-0.894338	-20.650127	-26.231126	-132.815990
11596		4.117588	-3.366607	8.392213	0.065458	0.352538	0.116524	0.030332	-0.016322	0.004252	-0.766113	0.611572	-0.626953	0.041170	-0.033678	0.083920	0.346256	-0.274494	0.070470	-0.894312	-20.637958	-26.242112	-132.809230
11597		4.078855	-3.392223	8.394420	0.074826	0.400121	0.109249	0.032800	-0.018012	0.008538	-0.762695	0.612061	-0.628174	0.040782	-0.033934	0.083942	0.346339	-0.274530	0.070302	-0.894282	-20.623806	-26.251818	-132.800267
11598		4.047459	-3.385548	8.405559	0.103800	0.418893	0.102504	0.028857	-0.016262	0.012066	-0.774658	0.611328	-0.624512	0.040470	-0.033865	0.084054	0.346428	-0.274582	0.070173	-0.894241	-20.615202	-26.261318	-132.788758
11599		4.074626	-3.380542	8.372720	0.072084	0.397412	0.085290	0.031923	-0.020946	0.018441	-0.767334	0.608154	-0.622559	0.040741	-0.033815	0.083726	0.346555	-0.274629	0.070018	-0.894190	-20.604473	-26.270606	-132.773213
11600		4.094305	-3.405008	8.385445	0.052866	0.405429	0.112328	0.025360	-0.013837	0.019297	-0.763184	0.615967	-0.638184	0.040941	-0.034057	0.083853	0.346671	-0.274672	0.069919	-0.894140	-20.599540	-26.277129	-132.758109
11601		4.062076	-3.396001	8.451179	0.112597	0.425167	0.150358	0.021302	-0.003262	0.022402	-0.768555	0.616455	-0.632568	0.040623	-0.033964	0.084509	0.346794	-0.274657	0.069848	-0.894102	-20.594191	-26.276142	-132.744170
11602		4.060998	-3.395137	8.452045	0.113071	0.424965	0.150361	0.020742	0.010726	0.022547	-0.761230	0.613770	-0.628906	0.040618	-0.033956	0.084515	0.346920	-0.274583	0.069822	-0.894078	-20.590316	-26.266833	-132.731844
11603		4.025846	-3.393665	8.409650	0.110370	0.442937	0.098833	0.011651	0.026080	0.029689	-0.761719	0.608887	-0.634521	0.040274	-0.033936	0.084089	0.347053	-0.274451	0.069855	-0.894064	-20.589506	-26.248636	-132.720138
11604		3.964586	-3.356185	8.387034	0.155298	0.450538	0.041101	0.000207	0.034298	0.032969	-0.759766	0.614502	-0.633545	0.039666	-0.033555	0.083864	0.347184	-0.274306	0.069977	-0.894048	-20.597966	-26.224936	-132.707308
11605		3.954021	-3.353295	8.311607	0.120589	0.446867	-0.027624	-0.001314	0.036631	0.029783	-0.770996	0.617432	-0.632568	0.039560	-0.033527	0.083109	0.347296	-0.274149	0.070086	-0.894044	-20.603552	-26.201058	-132.697925
11606		3.938801	-3.296344	8.309201	0.160255	0.409919	-0.054145	-0.007666	0.031955	0.035753	-0.762939	0.609863	-0.630127	0.039407	-0.032953	0.083087	0.347430	-0.274030	0.070248	-0.894016	-20.618177	-26.177998	-132.682646
11607		3.968977	-3.259573	8.340422	0.178898	0.360587	-0.026053	-0.010467	0.029988	0.032459	-0.757568	0.618896	-0.632813	0.039708	-0.032585	0.083400	0.347544	-0.273918	0.070390	-0.893995	-20.630365	-26.157138	-132.670181
11608		3.985412	-3.244726	8.394797	0.206079	0.337414	0.022355	-0.016130	0.032607	0.036446	-0.762207	0.616211	-0.632568	0.039874	-0.032433	0.083944	0.347672	-0.273803	0.070595	-0.893965	-20.649842	-26.132793	-132.654611
11609		4.002373	-3.193780	8.381332	0.217185	0.282183	0.002563	-0.022031	0.041866	0.037353	-0.759521	0.611572	-0.632813	0.040047	-0.031921	0.083808	0.347787	-0.273656	0.070816	-0.893947	-20.668752	-26.104567	-132.641915
11610		3.978757	-3.167740	8.424359	0.268763	0.274790	0.020275	-0.026643	0.049579	0.034098	-0.763428	0.619141	-0.629395	0.039814	-0.031659	0.084238	0.347882	-0.273482	0.071091	-0.893942	-20.691408	-26.071482	-132.632089
11611		4.013217	-3.146864	8.369350	0.228716	0.226649	-0.017230	-0.028585	0.057072	0.031486	-0.757080	0.615967	-0.625732	0.040161	-0.031450	0.083687	0.347956	-0.273281	0.071360	-0.893953	-20.711007	-26.036285	-132.626351
11612		4.047304	-3.126347	8.314473	0.189029	0.177925	-0.054727	-0.037919	0.062217	0.029040	-0.760498	0.614258	-0.627930	0.040503	-0.031242	0.083138	0.348010	-0.273080	0.071710	-0.893965	-20.739122	-25.997753	-132.621603
11613		4.127291	-3.083211	8.334715	0.174896	0.086188	-0.016251	-0.050248	0.069762	0.031218	-0.757324	0.612305	-0.636475	0.041307	-0.030805	0.083340	0.348049	-0.272859	0.072097	-0.893986	-20.769796	-25.955808	-132.618924
11614		4.188918	-3.192958	8.254648	0.029236	0.113083	-0.021488	-0.060172	0.070459	0.039720	-0.762939	0.616943	-0.630127	0.041925	-0.031896	0.082541	0.348114	-0.272640	0.072562	-0.893990	-20.810024	-25.909754	-132.611146
11615		4.208234	-3.196034	8.222885	-0.002497	0.091603	-0.038676	-0.044825	0.066976	0.043536	-0.747070	0.614258	-0.631592	0.042117	-0.031933	0.082222	0.348217	-0.272418	0.072937	-0.893987	-20.841035	-25.866786	-132.600567
11616		4.295600	-3.124175	8.198038	-0.028661	-0.030329	-0.044436	-0.034724	0.060954	0.050754	-0.759277	0.617920	-0.632568	0.042989	-0.031217	0.081973	0.348375	-0.272195	0.073295	-0.893964	-20.871654	-25.823278	-132.583134
11617		4.323299	-3.093569	8.175605	-0.041256	-0.080540	-0.061103	-0.029604	0.053190	0.051414	-0.751709	0.610596	-0.635986	0.043263	-0.030912	0.081749	0.348538	-0.272005	0.073589	-0.893934	-20.897311	-25.786067	-132.564797
11618		4.441415	-3.106542	8.166566	-0.126469	-0.157660	-0.013263	-0.035097	0.044002	0.060492	-0.760986	0.615723	-0.634766	0.044442	-0.031038	0.081661	0.348741	-0.271853	0.073925	-0.893874	-20.931239	-25.749923	-132.538606
11619		4.501143	-3.121739	8.146145	-0.182662	-0.194881	0.000257	-0.039522	0.039922	0.062337	-0.756348	0.613281	-0.635498	0.045037	-0.031187	0.081459	0.348945	-0.271736	0.074255	-0.893803	-20.966661	-25.717552	-132.510822
11620		4.508753	-3.149891	8.082118	-0.237220	-0.190896	-0.041374	-0.046526	0.033079	0.068223	-0.762451	0.617432	-0.633301	0.045112	-0.031465	0.080821	0.349165	-0.271657	0.074631	-0.893709	-21.010180	-25.686622	-132.477955
11621		4.544949	-3.131894	8.025979	-0.277289	-0.239028	-0.078848	-0.039006	0.017795	0.068878	-0.749756	0.622070	-0.632813	0.045467	-0.031288	0.080262	0.349407	-0.271635	0.074928	-0.893597	-21.049121	-25.664705	-132.441309
11622		4.549806	-3.106059	8.034154	-0.257617	-0.268105	-0.078330	-0.046572	-0.000656	0.068773	-0.759521	0.628906	-0.630615	0.045508	-0.031026	0.080349	0.349650	-0.271712	0.075255	-0.893451	-21.097645	-25.651501	-132.399044
11623		4.613357	-3.119555	8.065588	-0.282560	-0.304455	-0.020045	-0.054663	-0.016771	0.060265	-0.753662	0.622070	-0.634277	0.046136	-0.031160	0.080668	0.349845	-0.271875	0.075551	-0.893300	-21.146748	-25.649783	-132.359630
11624		4.708864	-3.178136	8.098969	-0.350720	-0.328343	0.068428	-0.059565	-0.019171	0.047389	-0.755371	0.619385	-0.628906	0.047088	-0.031746	0.081004	0.349984	-0.272069	0.075877	-0.893158	-21.199648	-25.651158	-132.325260
11625		4.683136	-3.190757	8.074445	-0.349679	-0.307421	0.040869	-0.061282	-0.022453	0.026232	-0.748291	0.626709	-0.630615	0.046826	-0.031877	0.080759	0.350020	-0.272282	0.076146	-0.893057	-21.244393	-25.659470	-132.304698
11626		4.653805	-3.155041	8.014121	-0.336830	-0.321512	-0.034064	-0.070931	-0.027395	0.014143	-0.758545	0.629395	-0.630127	0.046529	-0.031519	0.080159	0.349995	-0.272542	0.076455	-0.892961	-21.294937	-25.672177	-132.288879
11627		4.641054	-3.229080	7.937101	-0.406090	-0.264759	-0.079810	-0.081637	-0.043932	-0.001340	-0.758545	0.628906	-0.633789	0.046393	-0.032259	0.079394	0.349888	-0.272897	0.076740	-0.892870	-21.346443	-25.697663	-132.279656
11628		4.664007	-3.264725	7.889812	-0.456572	-0.257787	-0.097462	-0.090245	-0.057697	-0.018256	-0.754883	0.627441	-0.635742	0.046614	-0.032616	0.078926	0.349701	-0.273348	0.077036	-0.892780	-21.403143	-25.734373	-132.275851
11629		4.712789	-3.331709	7.930813	-0.492300	-0.238753	-0.019369	-0.097858	-0.065029	-0.029754	-0.758301	0.628174	-0.629395	0.047097	-0.033285	0.079340	0.349453	-0.273836	0.077318	-0.892703	-21.458807	-25.777045	-132.278487
11630		4.783893	-3.342185	8.012084	-0.485873	-0.274491	0.083670	-0.107705	-0.062700	-0.038547	-0.746338	0.625244	-0.628906	0.047807	-0.033388	0.080154	0.349156	-0.274333	0.077648	-0.892638	-21.519114	-25.819559	-132.285926
11631		4.675407	-3.271220	7.957931	-0.396919	-0.258788	-0.031867	-0.117344	-0.052429	-0.040342	-0.751221	0.635742	-0.621826	0.046727	-0.032675	0.079611	0.348829	-0.274803	0.078024	-0.892588	-21.581962	-25.857742	-132.297680
11632		4.447597	-3.240746	7.949604	-0.233725	-0.132510	-0.147928	-0.128914	-0.055055	-0.052966	-0.750244	0.627686	-0.622803	0.044446	-0.032368	0.079529	0.348460	-0.275311	0.078469	-0.892537	-21.653928	-25.897603	-132.311403
11633		4.436945	-3.179526	7.972298	-0.166941	-0.171141	-0.153690	-0.137077	-0.058779	-0.060197	-0.757568	0.616699	-0.616455	0.044336	-0.031754	0.079758	0.348019	-0.275851	0.078895	-0.892505	-21.723645	-25.943379	-132.333301
11634		4.436181	-3.214616	8.065025	-0.122791	-0.140259	-0.064696	-0.138006	-0.054757	-0.083249	-0.759033	0.630127	-0.619629	0.044326	-0.032109	0.080685	0.347451	-0.276408	0.079301	-0.892518	-21.788608	-25.994991	-132.371353
11635		4.412261	-3.174633	8.110853	-0.047663	-0.152238	-0.050166	-0.135825	-0.052055	-0.084640	-0.755615	0.635010	-0.625977	0.044088	-0.031710	0.081142	0.346899	-0.276925	0.079699	-0.892536	-21.850565	-26.042453	-132.409222
11636		4.387527	-3.138734	8.048346	-0.034660	-0.166392	-0.125117	-0.122763	-0.038347	-0.091119	-0.762939	0.637451	-0.625000	0.043846	-0.031358	0.080511	0.346345	-0.277373	0.080078	-0.892579	-21.905957	-26.083806	-132.451157
11637		4.294631	-3.171382	8.087963	0.034972	-0.078513	-0.122008	-0.121534	-0.036272	-0.093618	-0.762207	0.629639	-0.623047	0.042917	-0.031685	0.080907	0.345767	-0.277798	0.080427	-0.892639	-21.955728	-26.124859	-132.498015
11638		4.322061	-3.120230	8.124081	0.077618	-0.133038	-0.097081	-0.109459	-0.036526	-0.092567	-0.761230	0.629883	-0.625977	0.043191	-0.031178	0.081266	0.345214	-0.278214	0.080735	-0.892696	-22.000934	-26.166385	-132.542871
11639		4.389521	-3.216721	8.068246	-0.040524	-0.107775	-0.081371	-0.100224	-0.026480	-0.079848	-0.762695	0.627441	-0.619873	0.043872	-0.032144	0.080704	0.344722	-0.278552	0.081024	-0.892754	-22.041019	-26.199342	-132.583880
11640		4.373724	-3.232766	8.119524	-0.004524	-0.082906	-0.040277	-0.087062	-0.012933	-0.072669	-0.768066	0.627930	-0.620605	0.043720	-0.032308	0.081212	0.344270	-0.278802	0.081281	-0.892828	-22.072776	-26.223783	-132.624900
11641		4.293708	-3.163201	8.059401	0.056148	-0.085908	-0.149087	-0.079883	-0.000494	-0.060509	-0.755371	0.628174	-0.619141	0.042927	-0.031613	0.080607	0.343882	-0.278981	0.081552	-0.892896	-22.103472	-26.238816	-132.660687
11642		4.224188	-3.152471	8.001849	0.077846	-0.052123	-0.231318	-0.079015	-0.004428	-0.051104	-0.759521	0.629395	-0.619873	0.042232	-0.031504	0.080032	0.343535	-0.279176	0.081823	-0.892944	-22.136388	-26.254512	-132.690386
11643		4.291298	-3.164960	7.977411	0.021657	-0.089349	-0.217749	-0.065026	-0.014523	-0.036599	-0.760254	0.636475	-0.619629	0.042901	-0.031632	0.079788	0.343280	-0.279383	0.082036	-0.892958	-22.166306	-26.271856	-132.708641
11644		4.366131	-3.143022	8.017293	0.015969	-0.155137	-0.158965	-0.056814	-0.018433	-0.016403	-0.754883	0.631592	-0.620605	0.043651	-0.031411	0.080186	0.343162	-0.279577	0.082261	-0.892922	-22.200695	-26.284116	-132.709460
11645		4.361507	-3.136246	8.047610	0.043729	-0.157077	-0.138173	-0.031205	-0.015547	0.006757	-0.760254	0.629883	-0.626221	0.043610	-0.031348	0.080484	0.343149	-0.279712	0.082382	-0.892874	-22.222716	-26.292609	-132.701785
11646		4.336628	-3.103749	8.012733	0.059079	-0.168444	-0.189193	0.001367	-0.008109	0.035035	-0.764648	0.634277	-0.615967	0.043368	-0.031030	0.080129	0.343344	-0.279691	0.082412	-0.892802	-22.230424	-26.284319	-132.676709
11647		4.253429	-3.029010	8.010466	0.151019	-0.170581	-0.253283	0.027178	-0.009497	0.050214	-0.760498	0.635498	-0.615479	0.042538	-0.030290	0.080103	0.343604	-0.279680	0.082344	-0.892712	-22.229710	-26.280140	-132.644786
11648		4.260113	-2.996651	8.020715	0.171493	-0.199541	-0.252817	0.038520	-0.013605	0.068427	-0.762207	0.634766	-0.610596	0.042606	-0.029967	0.080204	0.343974	-0.279706	0.082277	-0.892568	-22.234638	-26.276921	-132.596711
11649		4.309029	-3.069377	7.980059	0.077026	-0.179318	-0.240223	0.054374	-0.022428	0.085133	-0.766357	0.637207	-0.620117	0.043094	-0.030697	0.079797	0.344433	-0.279692	0.082114	-0.892410	-22.228894	-26.272038	-132.540991
11650		4.379216	-3.085252	7.981329	0.026001	-0.213693	-0.202714	0.072794	-0.022656	0.102165	-0.771729	0.631836	-0.625488	0.043799	-0.030859	0.079807	0.344990	-0.279702	0.081921	-0.892209	-22.224104	-26.268719	-132.471988
11651		4.389799	-3.104036	7.917945	-0.028713	-0.209403	-0.244273	0.088909	-0.024224	0.119607	-0.764160	0.639648	-0.618408	0.043907	-0.031049	0.079171	0.345652	-0.279622	0.081649	-0.892003	-22.207807	-26.257355	-132.395431
11652		4.414640	-3.098356	7.886384	-0.060135	-0.230145	-0.261387	0.100643	-0.041529	0.130205	-0.765869	0.633057	-0.618408	0.044150	-0.030995	0.078857	0.346353	-0.279624	0.081287	-0.891764	-22.187738	-26.257686	-132.311494
11653		4.536343	-3.142168	7.943529	-0.129287	-0.274270	-0.145250	0.108176	-0.041660	0.141053	-0.770264	0.639160	-0.624512	0.045369	-0.031433	0.079428	0.347144	-0.279580	0.080929	-0.891502	-22.167851	-26.250999	-132.218058
11654		4.599940	-3.148928	7.923312	-0.184770	-0.310421	-0.131594	0.115172	-0.039404	0.143529	-0.763184	0.638184	-0.623779	0.046006	-0.031502	0.079224	0.347905	-0.279562	0.080521	-0.891248	-22.143148	-26.250162	-132.128267
11655		4.764105	-3.253868	8.027147	-0.289815	-0.335609	0.062676	0.115108	-0.027042	0.144895	-0.761963	0.641357	-0.622559	0.047654	-0.032550	0.080259	0.348716	-0.279439	0.080163	-0.891002	-22.118710	-26.234988	-132.036098
11656		4.786403	-3.756144	8.215746	-0.493540	0.031695	0.398687	0.117077	0.002754	0.148809	-0.764893	0.641846	-0.621582	0.047893	-0.037574	0.082135	0.349549	-0.279191	0.079869	-0.890780	-22.093962	-26.203421	-131.945934
11657		5.453271	-6.638873	9.134114	-2.067041	1.777121	2.427165	0.208527	0.043446	0.093425	-0.757324	0.642578	-0.636230	0.054584	-0.066458	0.091260	0.350232	-0.278611	0.079146	-0.890758	-21.995022	-26.162000	-131.901126
11658		3.989048	-5.989137	8.021721	-1.458791	2.213072	0.632616	0.307886	0.230276	0.072349	-0.763184	0.644287	-0.633057	0.040004	-0.060000	0.080079	0.350930	-0.277008	0.078304	-0.891057	-21.816754	-26.021094	-131.907975
11659		2.649162	-4.599704	7.591550	-0.118363	2.065355	-0.783449	0.384551	0.110439	-0.105259	-0.766113	0.639404	-0.631348	0.026509	-0.046157	0.075812	0.350944	-0.275897	0.076638	-0.891541	-21.558415	-25.986293	-131.996407
11660		3.705648	-3.809547	9.241165	0.575931	0.892820	0.794602	0.407611	0.075282	-0.180865	-0.761230	0.632568	-0.632324	0.037057	-0.038317	0.092320	0.350666	-0.275008	0.074766	-0.892084	-21.283168	-25.990698	-132.115790
11661		3.629181	-2.377906	8.958945	1.272357	-0.107764	0.059367	0.354078	0.091659	-0.186945	-0.756592	0.632813	-0.630371	0.036311	-0.023972	0.089530	0.350278	-0.274063	0.073090	-0.892666	-21.023141	-25.982104	-132.248058
11662		3.964269	-2.087395	9.149179	1.319845	-0.511800	0.275727	0.267700	0.022021	-0.181581	-0.760498	0.633789	-0.636963	0.039634	-0.021032	0.091459	0.349856	-0.273678	0.071805	-0.893054	-20.841957	-26.013080	-132.349161
11663		4.297530	-2.119603	9.015538	1.010427	-0.696445	0.323159	0.171885	0.004457	-0.144520	-0.765381	0.633057	-0.628906	0.042962	-0.021305	0.090136	0.349438	-0.273425	0.070848	-0.893371	-20.706086	-26.041812	-132.436337
11664		4.191955	-2.271922	8.591271	0.753067	-0.527093	-0.030096	0.100093	-0.034651	-0.119805	-0.766113	0.632813	-0.637207	0.041891	-0.022787	0.085909	0.349121	-0.273636	0.070379	-0.893467	-20.657635	-26.092935	-132.477460
11665		4.360452	-2.881371	8.577110	0.284250	-0.171651	0.225858	0.058879	-0.058600	-0.096692	-0.763184	0.628662	-0.634766	0.043565	-0.028860	0.085775	0.348785	-0.273846	0.069883	-0.893574	-20.605307	-26.145665	-132.521932
11666		4.371847	-3.328789	8.289287	-0.135321	0.143199	0.130518	0.042399	-0.040588	-0.061521	-0.768311	0.624268	-0.642578	0.043691	-0.033319	0.082895	0.348671	-0.274118	0.069726	-0.893547	-20.601615	-26.183751	-132.527031
11667		4.314092	-3.462037	8.046929	-0.308921	0.273523	-0.056669	0.053799	-0.040057	-0.065193	-0.767822	0.624268	-0.631104	0.043114	-0.034656	0.080469	0.348462	-0.274243	0.069328	-0.893621	-20.558729	-26.220169	-132.556813
11668		4.335419	-3.560016	8.087647	-0.356207	0.343979	0.017592	0.080136	-0.031976	-0.060242	-0.765137	0.625000	-0.648438	0.043331	-0.035646	0.080869	0.348339	-0.274397	0.068917	-0.893654	-20.518598	-26.258368	-132.574360
11669		4.389317	-3.409873	8.069156	-0.315202	0.204609	-0.021702	0.098826	-0.013741	-0.053967	-0.761230	0.618896	-0.636230	0.043878	-0.034150	0.080678	0.348233	-0.274323	0.068379	-0.893759	-20.450291	-26.278402	-132.603348
11670		4.334263	-3.142607	8.120254	-0.104460	0.051277	-0.087114	0.110150	-0.005931	-0.040771	-0.765381	0.624268	-0.641602	0.043334	-0.031480	0.081186	0.348286	-0.274123	0.067917	-0.893835	-20.387108	-26.278371	-132.615955
11671		4.358363	-3.026869	8.258342	0.016159	-0.033134	0.003427	0.108212	0.000029	-0.026092	-0.772461	0.621582	-0.642090	0.043580	-0.030319	0.082567	0.348313	-0.273961	0.067400	-0.893913	-20.319472	-26.285330	-132.631306
11672		4.380005	-2.951796	8.410271	0.123315	-0.087847	0.117432	0.098938	0.013944	-0.015365	-0.772705	0.623291	-0.633057	0.043804	-0.029563	0.084085	0.348451	-0.273800	0.067067	-0.893934	-20.275829	-26.281331	-132.628059
11673		4.323461	-3.040534	8.344476	0.062997	0.016278	0.064722	0.083765	0.030562	-0.014348	-0.767334	0.625488	-0.637451	0.043245	-0.030443	0.083425	0.348487	-0.273540	0.066729	-0.894025	-20.222400	-26.269517	-132.643076
11674		4.306366	-3.105750	8.222403	-0.032001	0.069769	-0.025324	0.083822	0.032003	-0.031649	-0.773438	0.623047	-0.639160	0.043072	-0.031099	0.082204	0.348536	-0.273509	0.066559	-0.894028	-20.202717	-26.273268	-132.641733
11675		4.209671	-3.214527	8.268202	-0.020411	0.222980	0.004009	0.082380	0.039426	-0.036906	-0.762207	0.622803	-0.639648	0.042107	-0.032187	0.082660	0.348467	-0.273220	0.066213	-0.894169	-20.143416	-26.261194	-132.672106
11676		4.076772	-3.226882	8.329005	0.081226	0.326594	0.000156	0.091464	0.032774	-0.044388	-0.763916	0.625977	-0.639893	0.040774	-0.032316	0.083269	0.348485	-0.273075	0.065984	-0.894223	-20.109013	-26.256523	-132.681519
11677		4.172070	-3.275090	8.261003	-0.049663	0.301299	-0.000282	0.091555	0.034172	-0.061683	-0.770020	0.630615	-0.646240	0.041725	-0.032802	0.082588	0.348319	-0.272802	0.065555	-0.894402	-20.038551	-26.252117	-132.725479
11678		4.171170	-3.264195	8.265768	-0.045592	0.295761	-0.000094	0.103804	0.041160	-0.073651	-0.762939	0.621582	-0.641113	0.041717	-0.032700	0.082632	0.348315	-0.272563	0.065348	-0.894492	-20.000045	-26.237158	-132.741811
11679		4.305377	-3.054995	8.376022	0.044409	0.066039	0.087851	0.101615	0.047903	-0.066352	-0.769287	0.611572	-0.639404	0.043064	-0.030607	0.083734	0.348139	-0.272214	0.064893	-0.894700	-19.921478	-26.226156	-132.791389
11680		4.318795	-2.939056	8.383802	0.101219	-0.024579	0.064930	0.089930	0.054701	-0.059509	-0.770264	0.620605	-0.639893	0.043202	-0.029441	0.083813	0.348025	-0.271952	0.064623	-0.894843	-19.871171	-26.214162	-132.824509
11681		4.237334	-2.950362	8.324356	0.103403	0.037930	-0.017668	0.074713	0.052267	-0.053934	-0.765137	0.613770	-0.632080	0.042387	-0.029546	0.083221	0.347866	-0.271626	0.064313	-0.895027	-19.811022	-26.198322	-132.867476
11682		4.151944	-3.117690	8.375445	0.080856	0.226195	0.038657	0.075078	0.042715	-0.046068	-0.762451	0.619385	-0.636230	0.041530	-0.031218	0.083734	0.347805	-0.271536	0.064132	-0.895090	-19.783215	-26.198883	-132.883491
11683		4.030035	-3.194036	8.386148	0.108284	0.368560	0.017011	0.073292	0.044333	-0.039316	-0.768799	0.612549	-0.643555	0.040313	-0.031979	0.083841	0.347712	-0.271244	0.063835	-0.895236	-19.728671	-26.184499	-132.915852
11684		4.084508	-3.061395	8.281205	0.092412	0.228926	-0.087835	0.078303	0.020384	-0.052252	-0.768799	0.619141	-0.648193	0.040846	-0.030657	0.082796	0.347621	-0.271128	0.063560	-0.895327	-19.687618	-26.187256	-132.939258
11685		4.447538	-2.885946	8.315362	-0.014520	-0.132031	0.048188	0.081353	0.012765	-0.054735	-0.774658	0.619141	-0.643066	0.044473	-0.028905	0.083139	0.347479	-0.270968	0.063151	-0.895459	-19.627447	-26.192839	-132.974030
11686		4.312911	-2.758999	8.472047	0.221286	-0.121854	0.083020	0.066505	0.011088	-0.045491	-0.770264	0.613525	-0.651367	0.043128	-0.027628	0.084709	0.347417	-0.270889	0.062882	-0.895526	-19.590384	-26.198556	-132.991684
11687		4.317017	-2.839086	8.525396	0.195232	-0.055776	0.154167	0.046582	0.019373	-0.034384	-0.772949	0.619141	-0.639648	0.043174	-0.028418	0.085243	0.347318	-0.270754	0.062669	-0.895620	-19.554959	-26.196627	-133.015600
11688		4.202067	-2.975303	8.462245	0.149056	0.118940	0.091000	0.025411	0.028485	-0.025443	-0.770996	0.618164	-0.641602	0.042029	-0.029769	0.084613	0.347252	-0.270642	0.062612	-0.895683	-19.539539	-26.189035	-133.030685
11689		4.124948	-3.120482	8.465366	0.109397	0.279125	0.103216	0.011934	0.033334	-0.013511	-0.769287	0.615479	-0.645020	0.041261	-0.031213	0.084645	0.347195	-0.270498	0.062606	-0.895749	-19.528227	-26.175561	-133.045001
11690		4.161958	-3.139478	8.370447	0.023352	0.261018	0.044996	0.015951	0.031510	-0.016984	-0.770996	0.617676	-0.642090	0.041630	-0.031405	0.083695	0.347149	-0.270383	0.062616	-0.895801	-19.520763	-26.164185	-133.056217
11691		4.234213	-3.034253	8.330907	0.017176	0.131643	0.011855	0.013791	0.031656	-0.020237	-0.772949	0.616943	-0.643311	0.042352	-0.030353	0.083300	0.347065	-0.270246	0.062590	-0.895877	-19.506799	-26.152905	-133.074195
11692		4.199687	-3.023177	8.397256	0.078094	0.150823	0.049464	0.011223	0.023077	-0.020379	-0.773926	0.617920	-0.647705	0.042003	-0.030241	0.083966	0.346991	-0.270178	0.062588	-0.895926	-19.500029	-26.147536	-133.087199
11693		4.120535	-2.998520	8.374297	0.126979	0.182559	-0.012211	0.008150	0.025557	-0.015807	-0.766846	0.624023	-0.654785	0.041214	-0.029992	0.083736	0.346921	-0.270076	0.062583	-0.895984	-19.491071	-26.138707	-133.101196
11694		4.288583	-3.026886	8.345899	-0.009695	0.090905	0.046302	0.006390	0.015438	-0.017486	-0.772949	0.616699	-0.655518	0.042890	-0.030275	0.083455	0.346867	-0.269995	0.062593	-0.896029	-19.485510	-26.130925	-133.111853
11695		4.080242	-2.940080	8.404125	0.198615	0.166848	-0.022158	0.006517	0.017643	-0.014852	-0.762207	0.625977	-0.647705	0.040808	-0.029407	0.084037	0.346802	-0.269931	0.062583	-0.896074	-19.478493	-26.126167	-133.123577
11696		4.085303	-2.995134	8.332988	0.124382	0.199062	-0.063630	0.005297	0.010461	-0.010205	-0.770508	0.619873	-0.649170	0.040856	-0.029956	0.083327	0.346776	-0.269877	0.062596	-0.896100	-19.475851	-26.120383	-133.129175
11697		4.275384	-2.969948	8.288478	-0.001199	0.052870	-0.025166	0.006805	-0.002825	-0.009101	-0.769531	0.615234	-0.648438	0.042751	-0.029704	0.082884	0.346744	-0.269902	0.062557	-0.896107	-19.472118	-26.125566	-133.133074
11698		4.141853	-3.114379	8.333316	0.019402	0.253286	-0.002798	0.016211	-0.002070	-0.002329	-0.775879	0.611084	-0.646973	0.041417	-0.031151	0.083331	0.346752	-0.269903	0.062494	-0.896108	-19.465317	-26.128467	-133.133374
11699		4.029040	-3.248147	8.322923	0.003929	0.429327	-0.021348	0.038076	-0.017041	-0.004390	-0.781738	0.621094	-0.647461	0.040283	-0.032498	0.083226	0.346787	-0.269937	0.062297	-0.896098	-19.446245	-26.140431	-133.131420
11700		4.314356	-3.142015	8.250528	-0.147729	0.161830	0.011219	0.058556	-0.027523	-0.007035	-0.767334	0.612549	-0.646484	0.043131	-0.031446	0.082502	0.346824	-0.269999	0.061986	-0.896087	-19.416171	-26.160612	-133.130342
11701		4.402417	-3.087088	8.269406	-0.161211	0.069799	0.049543	0.066463	-0.024491	-0.003480	-0.772949	0.612549	-0.653320	0.044014	-0.030899	0.082689	0.346904	-0.270017	0.061650	-0.896074	-19.381768	-26.176443	-133.126281
11702		4.207776	-3.088987	8.401693	0.024199	0.214355	0.076151	0.074615	-0.028040	0.003231	-0.770752	0.612305	-0.649170	0.042066	-0.030921	0.084011	0.347029	-0.270012	0.061288	-0.896052	-19.344414	-26.190113	-133.117859
11703		4.085290	-3.120702	8.372904	0.062839	0.322256	0.006992	0.081600	-0.025682	0.005690	-0.770264	0.624512	-0.651611	0.040843	-0.031240	0.083722	0.347170	-0.270005	0.060894	-0.896025	-19.303876	-26.204845	-133.108044
11704		4.256460	-3.084562	8.547929	0.068140	0.202153	0.219937	0.080329	-0.022009	-0.001184	-0.783447	0.617920	-0.647949	0.042555	-0.030880	0.085472	0.347298	-0.269973	0.060535	-0.896010	-19.265131	-26.215587	-133.100534
11705		4.408579	-3.043363	8.492107	-0.033235	0.071834	0.227594	0.049318	0.001752	-0.002757	-0.775635	0.622070	-0.646973	0.044086	-0.030455	0.084913	0.347350	-0.269902	0.060322	-0.896026	-19.238294	-26.217076	-133.101599
11706		4.458366	-2.874108	8.292666	-0.071153	-0.101700	0.030606	0.041039	0.011988	0.001014	-0.775146	0.606445	-0.654297	0.044589	-0.028758	0.082918	0.347405	-0.269819	0.060193	-0.896038	-19.220152	-26.213237	-133.101051
11707		4.502035	-2.889533	8.329184	-0.090870	-0.114703	0.085373	0.029646	0.021706	0.000429	-0.774414	0.620117	-0.642578	0.045029	-0.028908	0.083283	0.347438	-0.269692	0.060107	-0.896069	-19.203595	-26.203337	-133.104383
11708		4.345245	-2.786925	8.430628	0.116297	-0.080645	0.071825	0.025967	0.016155	0.000775	-0.781006	0.616455	-0.649902	0.043459	-0.027880	0.084299	0.347467	-0.269589	0.060038	-0.896094	-19.190174	-26.195245	-133.106962
11709		4.074419	-2.871169	8.427374	0.229143	0.159676	-0.025598	0.009269	0.015451	0.010417	-0.771973	0.619385	-0.646240	0.040752	-0.028713	0.084269	0.347519	-0.269522	0.060046	-0.896093	-19.188533	-26.186846	-133.102956
11710		4.097270	-2.938183	8.532895	0.230473	0.202340	0.093714	0.004590	0.004143	0.011768	-0.768799	0.620117	-0.649170	0.040976	-0.029381	0.085327	0.347581	-0.269514	0.060079	-0.896069	-19.193519	-26.183147	-133.094595
11711		4.051931	-2.920752	8.497940	0.251159	0.215337	0.038935	-0.012834	-0.006821	0.014566	-0.766357	0.611084	-0.646484	0.040519	-0.029199	0.084983	0.347629	-0.269585	0.060153	-0.896025	-19.207717	-26.186016	-133.083408
11712		4.181416	-2.976211	8.524366	0.155208	0.172062	0.134835	-0.026150	-0.011504	0.020713	-0.765381	0.613037	-0.658691	0.041812	-0.029747	0.085250	0.347701	-0.269675	0.060309	-0.895959	-19.233092	-26.186615	-133.066355
11713		4.316573	-2.843981	8.368668	0.072306	-0.030034	0.023445	-0.031188	-0.018458	0.016271	-0.770996	0.620361	-0.645752	0.043160	-0.028423	0.083695	0.347736	-0.269829	0.060448	-0.895890	-19.259346	-26.195437	-133.051684
11714		4.116724	-3.073076	8.353638	0.055121	0.269121	-0.009677	-0.034882	-0.015083	0.029721	-0.774414	0.620605	-0.654785	0.041166	-0.030710	0.083545	0.347835	-0.269941	0.060642	-0.895804	-19.291113	-26.195933	-133.029318
11715		4.109641	-3.104856	8.398376	0.068048	0.298585	0.034556	-0.034201	-0.010869	0.018738	-0.773438	0.623779	-0.653564	0.041095	-0.031030	0.083991	0.347874	-0.270065	0.060810	-0.895740	-19.319048	-26.200157	-133.014750
11716		4.340277	-3.066020	8.240594	-0.129893	0.102918	-0.008688	-0.033747	-0.008058	0.011417	-0.771484	0.617920	-0.644531	0.043401	-0.030644	0.082413	0.347889	-0.270163	0.060990	-0.895693	-19.345791	-26.201550	-133.004403
11717		4.339488	-3.059560	8.348309	-0.066145	0.104441	0.080292	-0.032438	0.007226	0.013574	-0.775879	0.623535	-0.650635	0.043400	-0.030579	0.083486	0.347902	-0.270204	0.061175	-0.895663	-19.369656	-26.196955	-132.996769
11718		4.253998	-3.077109	8.260921	-0.067965	0.163824	-0.026143	-0.025431	0.003695	0.011831	-0.766602	0.616943	-0.650635	0.042543	-0.030758	0.082612	0.347917	-0.270253	0.061339	-0.895631	-19.391645	-26.193998	-132.988997
11719		4.306038	-3.020372	8.343307	-0.021634	0.091286	0.049694	-0.015497	0.012359	0.009183	-0.769287	0.615967	-0.650391	0.043067	-0.030195	0.083433	0.347932	-0.270244	0.061452	-0.895620	-19.404161	-26.187462	-132.985099
11720		4.149156	-2.971058	8.349168	0.106654	0.155208	-0.029241	-0.014556	0.013022	0.010280	-0.768799	0.624023	-0.645752	0.041499	-0.029702	0.083491	0.347954	-0.270201	0.061572	-0.895616	-19.415690	-26.176875	-132.981554
11721		3.989413	-3.045755	8.344103	0.158181	0.313454	-0.081664	-0.017830	0.016194	0.007492	-0.776123	0.620361	-0.646973	0.039902	-0.030449	0.083441	0.347957	-0.270179	0.061700	-0.895613	-19.428726	-26.168576	-132.979495
11722		4.159096	-2.939306	8.488757	0.194398	0.130405	0.083867	-0.019214	0.012705	0.013718	-0.774658	0.624756	-0.656738	0.041598	-0.029382	0.084888	0.347991	-0.270179	0.061863	-0.895588	-19.448135	-26.160266	-132.971496
11723		4.079834	-2.914299	8.518483	0.274844	0.162923	0.066617	-0.034976	0.009636	0.015545	-0.772461	0.620117	-0.649414	0.040805	-0.029125	0.085188	0.348009	-0.270214	0.062066	-0.895557	-19.473755	-26.153973	-132.963197
11724		4.104853	-2.964866	8.390371	0.164331	0.170944	-0.015629	-0.034571	-0.000635	0.017138	-0.771484	0.623779	-0.653809	0.041051	-0.029631	0.083909	0.348041	-0.270269	0.062265	-0.895514	-19.500494	-26.149701	-132.952126
11725		4.289178	-2.893552	8.361520	0.081641	-0.008949	0.019807	-0.040808	-0.003763	0.019447	-0.770020	0.629883	-0.648438	0.042893	-0.028914	0.083622	0.348072	-0.270373	0.062477	-0.895456	-19.531742	-26.149881	-132.938631
11726		4.227263	-3.019830	8.392217	0.065039	0.124534	0.056390	-0.049212	-0.006740	0.018499	-0.770996	0.632813	-0.651123	0.042273	-0.030174	0.083931	0.348111	-0.270484	0.062752	-0.895388	-19.570868	-26.147726	-132.922474
11727		4.092268	-3.214523	8.395229	0.038839	0.355875	0.058054	-0.050362	-0.008829	0.021066	-0.774414	0.626953	-0.649170	0.040922	-0.032120	0.083962	0.348138	-0.270626	0.063000	-0.895317	-19.608507	-26.150303	-132.906911
11728		4.204921	-3.167305	8.378435	-0.006714	0.241472	0.079380	-0.037897	-0.013583	0.014345	-0.769287	0.630859	-0.642090	0.042046	-0.031654	0.083793	0.348170	-0.270759	0.063206	-0.895250	-19.640949	-26.153787	-132.892121
11729		4.251994	-3.159169	8.288294	-0.074501	0.195356	0.021534	-0.038546	-0.007731	0.007501	-0.769531	0.629639	-0.648682	0.042518	-0.031574	0.082891	0.348152	-0.270881	0.063384	-0.895207	-19.668133	-26.158363	-132.884937
11730		4.489322	-3.073327	8.302129	-0.158038	-0.027014	0.111978	-0.036440	-0.004992	0.006039	-0.777100	0.622070	-0.653076	0.044892	-0.030717	0.083028	0.348144	-0.270978	0.063590	-0.895167	-19.697136	-26.159048	-132.877055
11731		4.489411	-3.080871	8.246726	-0.189209	-0.027781	0.067519	-0.035648	0.009471	-0.009113	-0.766113	0.633545	-0.650391	0.044897	-0.030796	0.082471	0.348050	-0.271022	0.063763	-0.895177	-19.716642	-26.157544	-132.883545
11732		4.210643	-3.231380	8.355937	-0.047987	0.273994	0.082546	-0.035057	0.006505	-0.006988	-0.766602	0.636230	-0.650635	0.042108	-0.032301	0.083564	0.347968	-0.271050	0.063941	-0.895188	-19.735969	-26.153823	-132.889235
11733		3.942259	-3.234172	8.376162	0.126792	0.451980	-0.017740	-0.029048	0.016217	-0.012438	-0.773926	0.631592	-0.648926	0.039427	-0.032332	0.083763	0.347866	-0.271054	0.064092	-0.895216	-19.750166	-26.149319	-132.899182
11734		4.159621	-3.121101	8.378050	0.062751	0.221720	0.045423	-0.032278	0.013502	-0.019425	-0.776611	0.623047	-0.644287	0.041599	-0.031202	0.083783	0.347746	-0.271060	0.064275	-0.895247	-19.767691	-26.144040	-132.910656
11735		4.259758	-3.012840	8.357879	0.056031	0.071483	0.039655	-0.033209	0.012834	-0.020520	-0.775391	0.619873	-0.651367	0.042600	-0.030119	0.083581	0.347603	-0.271089	0.064428	-0.895283	-19.782465	-26.142922	-132.924722
11736		4.323598	-3.116803	8.201829	-0.125332	0.095055	-0.032440	-0.031197	0.007485	-0.028825	-0.781982	0.634277	-0.645752	0.043235	-0.031161	0.082022	0.347399	-0.271133	0.064547	-0.895340	-19.792549	-26.146394	-132.946851
11737		4.491578	-2.879796	8.335515	-0.016125	-0.184417	0.082465	-0.030927	0.003878	-0.016753	-0.776367	0.625000	-0.644287	0.044915	-0.028789	0.083359	0.347280	-0.271197	0.064679	-0.895358	-19.807853	-26.149384	-132.956734
11738		4.213107	-3.074490	8.403913	0.079061	0.148145	0.076717	-0.032270	-0.005519	-0.014747	-0.771729	0.637207	-0.644775	0.042126	-0.030734	0.084045	0.347166	-0.271311	0.064828	-0.895356	-19.828550	-26.156710	-132.962974
11739		4.069202	-3.124137	8.427686	0.153748	0.280554	0.048457	-0.035394	-0.008155	-0.008090	-0.773438	0.635742	-0.646484	0.040687	-0.031228	0.084284	0.347083	-0.271433	0.064971	-0.895341	-19.849865	-26.164511	-132.965045
11740		4.254308	-3.095259	8.358815	0.024246	0.130394	0.063140	-0.027825	-0.014626	-0.007731	-0.776611	0.629639	-0.647705	0.042536	-0.030943	0.083596	0.347042	-0.271555	0.065115	-0.895310	-19.872421	-26.171272	-132.961666
11741		4.354019	-3.062507	8.420528	0.018849	0.044009	0.149212	-0.033922	-0.015570	-0.002790	-0.776123	0.633545	-0.644531	0.043533	-0.030611	0.084214	0.346987	-0.271706	0.065246	-0.895276	-19.895025	-26.182024	-132.958925
11742		4.315759	-3.150743	8.217466	-0.113777	0.119659	-0.012052	-0.032074	-0.017227	-0.009522	-0.773926	0.633057	-0.655518	0.043149	-0.031496	0.082183	0.346904	-0.271848	0.065374	-0.895256	-19.915969	-26.192553	-132.960268
11743		4.415814	-3.117423	8.279167	-0.119173	0.033270	0.074023	-0.022061	-0.017320	-0.011648	-0.773926	0.635254	-0.646729	0.044149	-0.031168	0.082799	0.346826	-0.271989	0.065437	-0.895238	-19.929603	-26.205970	-132.962457
11744		3.855511	-3.132120	8.243967	0.198137	0.408745	-0.198541	-0.022278	0.000259	-0.012641	-0.777344	0.631104	-0.648926	0.038553	-0.031314	0.082443	0.346752	-0.272019	0.065553	-0.895250	-19.942350	-26.205242	-132.968309
11745		4.147340	-3.534345	8.353572	-0.155498	0.527500	0.145814	-0.000814	-0.018315	-0.013749	-0.769775	0.636230	-0.645752	0.041463	-0.035346	0.083540	0.346694	-0.272128	0.065516	-0.895242	-19.943351	-26.219592	-132.971535
11746		4.177611	-3.156493	8.278807	0.008614	0.219795	-0.019519	0.002243	-0.012770	-0.025117	-0.779541	0.633057	-0.652344	0.041767	-0.031571	0.082790	0.346596	-0.272193	0.065488	-0.895262	-19.941392	-26.229838	-132.981894
11747		4.007430	-3.248826	8.296634	0.068577	0.404643	-0.051537	0.022289	-0.009964	-0.020446	-0.779785	0.633789	-0.650635	0.040067	-0.032502	0.082965	0.346536	-0.272227	0.065353	-0.895284	-19.926579	-26.240990	-132.990960
11748		4.262047	-3.011340	8.300718	0.053477	0.061973	-0.008176	0.015508	-0.008023	-0.031262	-0.777588	0.632568	-0.648193	0.042612	-0.030126	0.083007	0.346418	-0.272249	0.065256	-0.895331	-19.913535	-26.250400	-133.007563
11749		4.169299	-3.126246	8.343040	0.065195	0.215004	0.021554	0.022129	-0.006284	-0.018864	-0.772705	0.641602	-0.650879	0.041687	-0.031276	0.083428	0.346364	-0.272267	0.065130	-0.895355	-19.898874	-26.259251	-133.016490
11750		4.125286	-3.100577	8.363221	0.117401	0.227844	0.011229	0.020851	-0.010578	-0.018941	-0.771484	0.634766	-0.654541	0.041246	-0.031018	0.083631	0.346329	-0.272287	0.065041	-0.895369	-19.889045	-26.266231	-133.022093
11751		4.303739	-3.050948	8.382001	0.047257	0.077327	0.090856	0.012713	-0.009168	-0.014615	-0.780762	0.628662	-0.655029	0.043031	-0.030518	0.083820	0.346282	-0.272332	0.064959	-0.895380	-19.881191	-26.275794	-133.027837
11752		4.300798	-2.914721	8.425475	0.152156	-0.019335	0.084664	-0.006961	-0.005375	-0.011374	-0.775391	0.639648	-0.644287	0.043004	-0.029147	0.084257	0.346225	-0.272362	0.064995	-0.895390	-19.885406	-26.278473	-133.033178
11753		4.418169	-3.007550	8.257438	-0.061682	-0.038420	0.023245	-0.014563	-0.012034	-0.002853	-0.783691	0.633789	-0.649902	0.044176	-0.030070	0.082579	0.346195	-0.272463	0.065045	-0.895367	-19.896584	-26.287277	-133.031233
11754		4.473589	-2.866408	8.365624	0.047009	-0.174111	0.095917	-0.018225	-0.006600	-0.000392	-0.782471	0.633301	-0.644531	0.044733	-0.028657	0.083660	0.346175	-0.272544	0.065159	-0.895342	-19.913984	-26.290793	-133.027446
11755		4.175712	-3.076420	8.435181	0.146354	0.182551	0.086730	-0.033617	-0.008226	0.011437	-0.774414	0.638184	-0.644775	0.041755	-0.030748	0.084359	0.346182	-0.272657	0.065321	-0.895293	-19.939529	-26.294753	-133.017733
11756		3.729189	-3.266023	8.261088	0.219386	0.602275	-0.199755	-0.041945	-0.006120	0.008417	-0.772705	0.639648	-0.640137	0.037291	-0.032641	0.082619	0.346168	-0.272766	0.065550	-0.895248	-19.971726	-26.295711	-133.009471
11757		4.155904	-3.185643	8.352540	0.058103	0.267274	0.041752	-0.015811	-0.034494	0.021650	-0.774902	0.644531	-0.648926	0.041548	-0.031845	0.083535	0.346253	-0.272962	0.065601	-0.895152	-19.992342	-26.311803	-132.987878
11758		4.210838	-3.182460	8.284573	-0.005835	0.223105	0.007881	-0.019397	-0.032823	0.008896	-0.772949	0.632324	-0.649902	0.042096	-0.031815	0.082856	0.346295	-0.273140	0.065692	-0.895075	-20.015172	-26.325131	-132.971963
11759		4.482850	-3.102721	8.233129	-0.149232	-0.018105	0.060744	-0.004745	-0.032564	0.003315	-0.780518	0.644043	-0.646484	0.044816	-0.031025	0.082339	0.346312	-0.273314	0.065672	-0.895016	-20.024402	-26.343756	-132.961780
11760		4.275804	-3.097986	8.318466	0.028282	0.120399	0.039297	-0.012139	-0.018789	0.003537	-0.780029	0.635498	-0.656738	0.042751	-0.030974	0.083191	0.346319	-0.273416	0.065732	-0.894978	-20.037806	-26.351266	-132.954750
11761		3.986901	-3.233870	8.382436	0.161965	0.416807	0.006609	-0.004908	-0.017883	0.007036	-0.777588	0.636475	-0.643799	0.039863	-0.032335	0.083829	0.346349	-0.273523	0.065743	-0.894933	-20.046703	-26.361247	-132.945540
11762		4.316056	-3.085343	8.655225	0.195158	0.108017	0.336739	-0.012681	0.000288	0.001490	-0.777100	0.641113	-0.648193	0.043161	-0.030848	0.086554	0.346337	-0.273540	0.065836	-0.894926	-20.057893	-26.358984	-132.944205
11763		4.151700	-3.284365	8.001747	-0.168361	0.318183	-0.225089	-0.016467	-0.018483	-0.002963	-0.781250	0.636230	-0.645020	0.041509	-0.032838	0.080024	0.346306	-0.273674	0.065884	-0.894893	-20.070808	-26.371242	-132.940866
11764		4.317673	-2.863185	8.273981	0.124363	-0.088344	-0.051764	-0.008986	-0.013172	0.005810	-0.783691	0.642822	-0.643555	0.043172	-0.028627	0.082744	0.346329	-0.273753	0.065952	-0.894855	-20.084171	-26.375708	-132.932592
11765		4.208472	-3.131422	8.272264	0.035716	0.184457	-0.019216	-0.013112	-0.013572	0.006660	-0.774414	0.644775	-0.645020	0.042080	-0.031307	0.082728	0.346344	-0.273855	0.066007	-0.894814	-20.097264	-26.383422	-132.924543
11766		4.195586	-3.145556	8.403684	0.108168	0.211535	0.089986	-0.014135	-0.013464	0.011857	-0.780518	0.641602	-0.646729	0.041952	-0.031447	0.084042	0.346394	-0.273943	0.066111	-0.894760	-20.116039	-26.386558	-132.911607
11767		4.243573	-3.090840	8.354247	0.087153	0.134625	0.052855	-0.018304	-0.018980	0.014783	-0.786621	0.641846	-0.653320	0.042430	-0.030898	0.083549	0.346440	-0.274075	0.066191	-0.894696	-20.134820	-26.395568	-132.897477
11768		4.157712	-3.186758	8.294495	0.054362	0.256926	-0.005972	-0.022173	-0.014979	0.020911	-0.787354	0.640625	-0.651855	0.041574	-0.031854	0.082952	0.346509	-0.274171	0.066329	-0.894629	-20.158484	-26.397540	-132.880786
11769		4.275948	-3.188734	8.260323	-0.034039	0.176863	0.018501	-0.020128	-0.017341	0.021524	-0.777832	0.647217	-0.650635	0.042756	-0.031874	0.082610	0.346583	-0.274298	0.066429	-0.894555	-20.179956	-26.404319	-132.862962
11770		4.285750	-3.078336	8.239370	0.015687	0.084296	-0.028840	-0.010213	-0.014505	0.014664	-0.779297	0.641113	-0.656738	0.042854	-0.030776	0.082398	0.346646	-0.274373	0.066511	-0.894501	-20.195858	-26.406845	-132.849293
11771		4.112626	-3.249909	8.339237	0.077080	0.332901	0.031180	-0.017397	-0.012441	0.020104	-0.786133	0.648438	-0.649902	0.041124	-0.032488	0.083398	0.346715	-0.274473	0.066605	-0.894437	-20.214915	-26.411251	-132.833396
11772		4.041767	-3.239604	8.282637	0.097832	0.366126	-0.051060	-0.004639	-0.013499	0.012310	-0.778564	0.645508	-0.644775	0.040414	-0.032392	0.082830	0.346774	-0.274534	0.066662	-0.894391	-20.226926	-26.413685	-132.821423
11773		4.430563	-3.114998	8.239275	-0.087558	0.014014	0.046871	-0.005063	-0.014216	0.008615	-0.778809	0.638428	-0.648682	0.044301	-0.031146	0.082397	0.346809	-0.274625	0.066682	-0.894348	-20.236031	-26.421305	-132.812025
11774		4.520220	-2.946619	8.214424	-0.055642	-0.173494	0.013732	0.001017	-0.013260	0.003660	-0.778320	0.641846	-0.647461	0.045197	-0.029466	0.082147	0.346836	-0.274683	0.066704	-0.894318	-20.242976	-26.425714	-132.805206
11775		4.381764	-3.041178	8.276084	0.007911	-0.006728	0.033229	-0.001320	-0.009415	0.001994	-0.786865	0.648438	-0.646729	0.043814	-0.030411	0.082763	0.346845	-0.274748	0.066707	-0.894294	-20.247703	-26.432056	-132.800840
11776		4.064757	-3.214757	8.442522	0.190290	0.342738	0.085767	-0.009309	-0.005812	0.008979	-0.784668	0.648438	-0.644287	0.040647	-0.032142	0.084428	0.346880	-0.274790	0.066794	-0.894261	-20.261289	-26.431630	-132.792355
11777		3.919468	-3.311706	8.372750	0.186313	0.505341	-0.007460	-0.010585	-0.010109	0.008900	-0.781006	0.651367	-0.650146	0.039192	-0.033111	0.083731	0.346907	-0.274872	0.066847	-0.894222	-20.273248	-26.436967	-132.783685
11778		4.024003	-3.337532	8.308317	0.074564	0.450325	-0.007000	-0.004507	-0.009152	0.003944	-0.783936	0.645264	-0.653320	0.040237	-0.033373	0.083086	0.346931	-0.274919	0.066904	-0.894193	-20.283380	-26.438699	-132.777047
11779		4.039132	-3.276470	8.270347	0.081653	0.392189	-0.051129	0.003951	-0.006921	-0.001420	-0.776855	0.650635	-0.646240	0.040388	-0.032767	0.082704	0.346931	-0.274965	0.066883	-0.894181	-20.283946	-26.444360	-132.775273
11780		4.232858	-3.131623	8.182194	0.001321	0.150483	-0.083875	0.013553	-0.013600	-0.011493	-0.779297	0.647705	-0.648193	0.042321	-0.031324	0.081823	0.346910	-0.275000	0.066829	-0.894182	-20.279404	-26.451077	-132.777521
11781		4.168185	-3.152575	8.326242	0.106432	0.220798	0.014760	0.010199	-0.009651	-0.007960	-0.788818	0.648438	-0.653076	0.041677	-0.031532	0.083263	0.346891	-0.275049	0.066766	-0.894180	-20.274917	-26.459494	-132.779065
11782		4.221898	-3.145684	8.260002	0.042358	0.176797	-0.019101	0.015511	-0.013045	-0.015594	-0.785645	0.655029	-0.648926	0.042211	-0.031467	0.082600	0.346852	-0.275083	0.066698	-0.894189	-20.268258	-26.467110	-132.784007
11783		4.336457	-3.051880	8.230778	0.011928	0.031509	-0.021702	0.014191	-0.009307	-0.022458	-0.785156	0.652588	-0.650391	0.043357	-0.030530	0.082308	0.346773	-0.275128	0.066599	-0.894213	-20.257573	-26.478209	-132.794334
11784		4.212104	-3.127196	8.215183	0.035060	0.170207	-0.066909	0.014831	-0.007161	-0.022418	-0.775879	0.650146	-0.656494	0.042115	-0.031283	0.082151	0.346704	-0.275141	0.066538	-0.894241	-20.249386	-26.483900	-132.804152
11785		4.508112	-3.072500	8.254893	-0.092114	-0.059814	0.081479	0.017338	-0.001542	-0.031193	-0.783691	0.649902	-0.653564	0.045076	-0.030739	0.082547	0.346588	-0.275149	0.066426	-0.894292	-20.233793	-26.492544	-132.821449
11786		4.133782	-3.209991	8.343523	0.102060	0.297024	0.031495	0.015643	0.002304	-0.021815	-0.786133	0.649902	-0.648682	0.041335	-0.032111	0.083432	0.346518	-0.275113	0.066376	-0.894334	-20.223784	-26.492714	-132.833404
11787		4.033917	-3.318141	8.363999	0.109790	0.447163	0.037542	0.015259	0.006701	-0.027583	-0.781494	0.645264	-0.648682	0.040337	-0.033193	0.083636	0.346412	-0.275086	0.066293	-0.894389	-20.209538	-26.496194	-132.850358
11788		4.155523	-3.150993	8.329697	0.113528	0.240835	0.011268	0.020372	0.001869	-0.031558	-0.784912	0.654541	-0.649902	0.041551	-0.031525	0.083293	0.346303	-0.275052	0.066209	-0.894448	-20.194697	-26.499045	-132.868137
11789		4.141913	-3.217576	8.259384	0.043878	0.297548	-0.033362	0.023270	0.003083	-0.034562	-0.782715	0.651123	-0.655762	0.041415	-0.032193	0.082589	0.346178	-0.275030	0.066074	-0.894513	-20.174350	-26.505834	-132.888488
11790		4.451961	-3.099970	8.261989	-0.076885	0.008533	0.070846	0.028939	0.003308	-0.043209	-0.789551	0.659668	-0.651123	0.044514	-0.031021	0.082615	0.346033	-0.274975	0.065941	-0.894596	-20.151441	-26.509551	-132.913194
11791		4.242119	-3.178794	8.270010	0.007127	0.209352	0.008182	0.028300	0.012162	-0.041106	-0.796387	0.649902	-0.647461	0.042420	-0.031808	0.082693	0.345883	-0.274905	0.065791	-0.894686	-20.125563	-26.512722	-132.939484
11792		4.077266	-3.276222	8.312634	0.070973	0.396166	0.000346	0.032952	0.012495	-0.044553	-0.789307	0.645996	-0.647705	0.040771	-0.032785	0.083118	0.345730	-0.274805	0.065653	-0.894786	-20.099108	-26.512138	-132.967261
11793		4.203310	-3.197661	8.275487	0.016878	0.255843	0.001119	0.040383	0.011834	-0.053640	-0.791260	0.648926	-0.652588	0.042029	-0.032005	0.082746	0.345541	-0.274720	0.065430	-0.894902	-20.062977	-26.517918	-133.001019
11794		4.218107	-3.126327	8.294041	0.055500	0.197478	0.001353	0.044569	0.017332	-0.056565	-0.786865	0.651123	-0.640625	0.042179	-0.031294	0.082930	0.345349	-0.274579	0.065233	-0.895033	-20.026009	-26.516705	-133.037225
11795		4.343298	-3.090586	8.217098	-0.045491	0.088037	-0.018463	0.049420	0.013962	-0.061581	-0.779297	0.646240	-0.651123	0.043429	-0.030940	0.082160	0.345136	-0.274472	0.064963	-0.895168	-19.982359	-26.522846	-133.076236
11796		4.285079	-3.077634	8.317415	0.046908	0.127988	0.035893	0.050715	0.018238	-0.061500	-0.784180	0.650146	-0.652344	0.042849	-0.030811	0.083162	0.344933	-0.274318	0.064735	-0.895310	-19.940881	-26.521957	-133.115167
11797		4.107038	-3.203339	8.275822	0.055886	0.340937	-0.040328	0.048476	0.019152	-0.058451	-0.786133	0.655273	-0.655762	0.041069	-0.032065	0.082747	0.344731	-0.274188	0.064483	-0.895446	-19.898108	-26.524629	-133.153434
11798		4.284975	-3.103762	8.336438	0.032534	0.158413	0.059718	0.055126	0.020010	-0.065986	-0.797852	0.642578	-0.652832	0.042848	-0.031075	0.083352	0.344513	-0.274019	0.064232	-0.895600	-19.852562	-26.523463	-133.195588
11799		4.126742	-3.214786	8.294115	0.037033	0.347629	-0.012944	0.056838	0.025016	-0.062215	-0.788330	0.647217	-0.653320	0.041268	-0.032184	0.082927	0.344303	-0.273849	0.063947	-0.895753	-19.803421	-26.523640	-133.237398
11800		4.297966	-3.111487	8.278336	-0.022137	0.161735	0.018795	0.067008	0.024114	-0.070627	-0.796387	0.652344	-0.656494	0.042979	-0.031158	0.082768	0.344076	-0.273644	0.063643	-0.895924	-19.749342	-26.521404	-133.283638
11801		4.166769	-3.125478	8.338161	0.075744	0.268226	0.014713	0.069058	0.032742	-0.067882	-0.791992	0.652588	-0.660645	0.041671	-0.031298	0.083364	0.343855	-0.273420	0.063309	-0.896101	-19.690939	-26.518429	-133.330530
11802		3.987782	-3.289325	8.312471	0.069415	0.511736	-0.037589	0.077907	0.033437	-0.072154	-0.793213	0.649170	-0.653809	0.039880	-0.032940	0.083105	0.343636	-0.273153	0.062973	-0.896290	-19.629625	-26.511016	-133.379250
11803		4.146482	-3.081099	8.332549	0.096083	0.259348	-0.012618	0.084084	0.034326	-0.077076	-0.797363	0.651123	-0.653564	0.041467	-0.030862	0.083305	0.343393	-0.272899	0.062562	-0.896489	-19.560006	-26.508850	-133.432014
11804		4.368689	-3.000089	8.374719	0.020987	0.062948	0.097787	0.082355	0.030055	-0.074527	-0.791504	0.647705	-0.663086	0.043688	-0.030052	0.083728	0.343169	-0.272641	0.062197	-0.896679	-19.495934	-26.503576	-133.481528
11805		4.592676	-2.809101	8.264707	-0.072188	-0.228181	0.047932	0.085731	0.031958	-0.073820	-0.791260	0.640381	-0.662842	0.045930	-0.028143	0.082628	0.342945	-0.272393	0.061779	-0.896869	-19.426492	-26.501948	-133.531809
11806		4.531632	-2.877248	8.341136	-0.041812	-0.125905	0.105538	0.071927	0.043352	-0.065061	-0.786865	0.644287	-0.658936	0.045325	-0.028817	0.083391	0.342745	-0.272089	0.061496	-0.897057	-19.369487	-26.487562	-133.578504
11807		4.038517	-3.014323	8.465485	0.241479	0.311810	0.031329	0.059362	0.037854	-0.054149	-0.789307	0.640381	-0.662109	0.040393	-0.030179	0.084638	0.342570	-0.271854	0.061233	-0.897213	-19.319921	-26.478911	-133.618139
11808		4.134386	-3.059566	8.452006	0.142269	0.285959	0.076119	0.056175	0.038104	-0.052204	-0.790283	0.646729	-0.663330	0.041352	-0.030630	0.084504	0.342408	-0.271597	0.061030	-0.897367	-19.276028	-26.464905	-133.655852
11809		4.068013	-3.054453	8.367303	0.135397	0.322229	-0.026575	0.053048	0.035494	-0.045543	-0.785156	0.640869	-0.658203	0.040688	-0.030576	0.083658	0.342264	-0.271380	0.060803	-0.897503	-19.232651	-26.455837	-133.689763
11810		4.315581	-2.978381	8.321438	-0.003713	0.103654	0.022482	0.056105	0.030741	-0.052707	-0.789795	0.645508	-0.665527	0.043161	-0.029819	0.083199	0.342102	-0.271155	0.060587	-0.897647	-19.189436	-26.445701	-133.726185
11811		4.202970	-3.024802	8.339750	0.042792	0.217294	0.001423	0.059611	0.032038	-0.044668	-0.797363	0.641602	-0.657715	0.042036	-0.030282	0.083382	0.341972	-0.270943	0.060326	-0.897778	-19.142884	-26.438281	-133.758817
11812		4.169047	-3.058067	8.313658	0.024281	0.265918	-0.026047	0.069082	0.029792	-0.046791	-0.783691	0.644531	-0.657227	0.041696	-0.030619	0.083120	0.341854	-0.270698	0.060059	-0.897915	-19.093924	-26.427535	-133.791518
11813		4.153814	-3.105955	8.409941	0.050017	0.324406	0.062559	0.071212	0.032506	-0.048248	-0.793701	0.642334	-0.664795	0.041544	-0.031100	0.084082	0.341723	-0.270465	0.059742	-0.898056	-19.039743	-26.420470	-133.826392
11814		4.212515	-3.019897	8.340821	0.020131	0.220025	0.004926	0.078305	0.028981	-0.049959	-0.792236	0.646240	-0.663574	0.042130	-0.030242	0.083390	0.341604	-0.270208	0.059428	-0.898200	-18.984880	-26.410506	-133.860711
11815		4.552380	-2.862109	8.267083	-0.145232	-0.119071	0.047597	0.089360	0.029547	-0.050948	-0.793213	0.649658	-0.666016	0.045529	-0.028670	0.082651	0.341486	-0.269957	0.059021	-0.898347	-18.919875	-26.405473	-133.896579
11816		4.419640	-2.915624	8.341847	-0.062643	0.017888	0.067406	0.080669	0.036117	-0.046170	-0.791992	0.638916	-0.679443	0.044205	-0.029200	0.083399	0.341385	-0.269664	0.058714	-0.898493	-18.864046	-26.390976	-133.930077
11817		4.273647	-2.956417	8.371498	0.011990	0.150295	0.039404	0.080592	0.042019	-0.041993	-0.797119	0.641846	-0.663330	0.042748	-0.029607	0.083694	0.341292	-0.269370	0.058380	-0.898639	-18.805359	-26.377447	-133.963077
11818		4.087478	-3.021362	8.457956	0.127186	0.329773	0.048763	0.076064	0.041080	-0.031223	-0.790283	0.643066	-0.665283	0.040887	-0.030252	0.084560	0.341249	-0.269057	0.058122	-0.898765	-18.755691	-26.357473	-133.988612
11819		4.184059	-2.906961	8.386569	0.088544	0.178923	-0.001905	0.079885	0.040672	-0.035720	-0.791016	0.640625	-0.673584	0.041852	-0.029111	0.083846	0.341184	-0.268768	0.057797	-0.898898	-18.699260	-26.343454	-134.017497
11820		4.220393	-2.864839	8.442337	0.111672	0.130895	0.049486	0.075889	0.039654	-0.027542	-0.798096	0.640625	-0.670166	0.042217	-0.028686	0.084404	0.341158	-0.268461	0.057544	-0.899015	-18.650979	-26.323421	-134.040367
11821		3.936767	-2.884228	8.489843	0.294725	0.335620	-0.030314	0.070326	0.035819	-0.020484	-0.801025	0.632324	-0.672119	0.039380	-0.028876	0.084881	0.341149	-0.268205	0.057274	-0.899112	-18.604594	-26.309193	-134.058993
11822		4.124392	-2.935389	8.423907	0.107035	0.250611	0.011521	0.063360	0.028292	-0.020814	-0.794678	0.639893	-0.669922	0.041253	-0.029385	0.084224	0.341140	-0.267967	0.057066	-0.899200	-18.566251	-26.293981	-134.075564
11823		4.076347	-2.901146	8.500344	0.191104	0.264853	0.045427	0.062499	0.024767	-0.017172	-0.798584	0.648438	-0.676758	0.040771	-0.029042	0.084989	0.341139	-0.267774	0.056818	-0.899274	-18.526262	-26.285118	-134.089907
11824		4.278607	-2.892120	8.395129	0.009919	0.121827	0.042975	0.064715	0.016469	-0.020666	-0.790283	0.648438	-0.669922	0.042790	-0.028953	0.083938	0.341136	-0.267585	0.056585	-0.899345	-18.488355	-26.276072	-134.103846
11825		4.284300	-2.897658	8.366339	-0.017350	0.123935	0.022536	0.071187	0.024053	-0.017734	-0.794678	0.635010	-0.668945	0.042850	-0.029010	0.083648	0.341144	-0.267380	0.056295	-0.899422	-18.443320	-26.267669	-134.118366
11826		4.302695	-2.876473	8.368021	-0.021598	0.099061	0.026051	0.068348	0.019741	-0.023614	-0.796631	0.646484	-0.674561	0.043032	-0.028798	0.083666	0.341132	-0.267172	0.056048	-0.899504	-18.402251	-26.257397	-134.134791
11827		4.261414	-2.892982	8.427936	0.019655	0.146974	0.063400	0.072502	0.028301	-0.017677	-0.799072	0.648193	-0.668945	0.042624	-0.028964	0.084263	0.341141	-0.266945	0.055760	-0.899585	-18.356119	-26.246642	-134.150113
11828		4.168778	-2.891479	8.375928	0.044697	0.203843	-0.022285	0.074936	0.029544	-0.018067	-0.796143	0.638672	-0.671143	0.041698	-0.028950	0.083742	0.341159	-0.266680	0.055507	-0.899673	-18.311930	-26.230024	-134.165119
11829		4.316659	-2.796212	8.415642	0.022004	0.043028	0.050022	0.072006	0.028362	-0.015072	-0.803467	0.638916	-0.672363	0.043176	-0.027996	0.084140	0.341179	-0.266453	0.055225	-0.899750	-18.266799	-26.218735	-134.178848
11830		4.117438	-2.844151	8.510067	0.160836	0.217455	0.055979	0.065309	0.032646	-0.009710	-0.796875	0.642090	-0.684814	0.041187	-0.028471	0.085085	0.341221	-0.266188	0.055032	-0.899824	-18.230082	-26.198905	-134.189424
11831		3.984772	-2.867066	8.514471	0.226895	0.323370	0.007630	0.065537	0.021058	-0.004368	-0.802002	0.644775	-0.675293	0.039856	-0.028699	0.085131	0.341282	-0.266002	0.054780	-0.899871	-18.192191	-26.189647	-134.195179
11832		4.127069	-2.936278	8.482895	0.075881	0.283555	0.062928	0.056552	0.018138	-0.002747	-0.800781	0.627686	-0.677002	0.041278	-0.029387	0.084817	0.341349	-0.265813	0.054612	-0.899912	-18.163661	-26.176275	-134.198592
11833		4.205311	-2.755346	8.434094	0.103658	0.094080	0.005200	0.054065	0.006756	0.001921	-0.800781	0.647217	-0.674072	0.042056	-0.027576	0.084332	0.341427	-0.265709	0.054396	-0.899926	-18.135296	-26.173663	-134.197672
11834		4.288891	-2.817760	8.498910	0.044829	0.095057	0.114788	0.051247	-0.000361	0.000780	-0.798828	0.640381	-0.675293	0.042889	-0.028199	0.084982	0.341506	-0.265612	0.054225	-0.899935	-18.112378	-26.169694	-134.195289
11835		4.269329	-2.828118	8.501566	0.049777	0.118683	0.111298	0.046141	-0.001433	0.000506	-0.805176	0.642822	-0.679688	0.042693	-0.028301	0.085009	0.341570	-0.265559	0.054029	-0.899938	-18.088900	-26.171783	-134.193598
11836		4.257712	-2.941625	8.394622	-0.067115	0.205387	0.046534	0.044847	-0.002920	-0.004261	-0.795654	0.635986	-0.682861	0.042575	-0.029436	0.083940	0.341619	-0.265485	0.053875	-0.899951	-18.068521	-26.170080	-134.193747
11837		4.198796	-2.935630	8.438811	-0.006298	0.245552	0.056508	0.043892	-0.000811	-0.010089	-0.803955	0.639648	-0.675781	0.041986	-0.029377	0.084382	0.341632	-0.265436	0.053677	-0.899972	-18.043447	-26.173701	-134.198610
11838		4.062403	-2.953716	8.418894	0.055399	0.347689	-0.015679	0.047423	0.000218	-0.015655	-0.800537	0.640137	-0.678711	0.040622	-0.029560	0.084182	0.341633	-0.265346	0.053502	-0.900009	-18.018347	-26.172282	-134.206288
11839		4.199747	-2.886866	8.426369	0.009446	0.212800	0.032626	0.049780	0.007065	-0.025530	-0.802979	0.642334	-0.673096	0.041997	-0.028895	0.084255	0.341582	-0.265255	0.053270	-0.900069	-17.985085	-26.174329	-134.222080
11840		4.233172	-2.806773	8.387309	0.011667	0.129931	-0.008216	0.053058	0.006744	-0.027432	-0.804199	0.647217	-0.679688	0.042331	-0.028096	0.083864	0.341535	-0.265130	0.053067	-0.900135	-17.953145	-26.171357	-134.238157
11841		4.212885	-2.809722	8.444735	0.048460	0.154045	0.032637	0.050148	0.010638	-0.026585	-0.797607	0.634766	-0.680420	0.042130	-0.028124	0.084438	0.341479	-0.265023	0.052839	-0.900202	-17.919087	-26.171614	-134.255291
11842		4.134591	-2.783622	8.421319	0.096712	0.184938	-0.029106	0.046275	0.016639	-0.031572	-0.803467	0.641602	-0.680420	0.041349	-0.027862	0.084203	0.341402	-0.264865	0.052677	-0.900287	-17.889068	-26.163934	-134.275832
11843		4.218424	-2.766447	8.455898	0.068300	0.124000	0.032641	0.037603	0.017332	-0.031021	-0.804199	0.639404	-0.685059	0.042187	-0.027687	0.084550	0.341307	-0.264750	0.052511	-0.900366	-17.860443	-26.161292	-134.296969
11844		4.067475	-2.805694	8.460566	0.138564	0.252609	-0.019095	0.032905	0.022111	-0.029766	-0.812988	0.641846	-0.676758	0.040680	-0.028077	0.084597	0.341220	-0.264590	0.052422	-0.900452	-17.838099	-26.150257	-134.317486
11845		4.144313	-2.782793	8.472574	0.106049	0.188936	0.018733	0.034126	0.031958	-0.039219	-0.804932	0.636475	-0.674805	0.041451	-0.027851	0.084714	0.341080	-0.264417	0.052285	-0.900563	-17.808028	-26.141046	-134.346452
11846		4.228737	-2.777992	8.399121	0.013656	0.125950	-0.008167	0.035556	0.030257	-0.043300	-0.805664	0.641602	-0.686768	0.042294	-0.027804	0.083980	0.340932	-0.264219	0.052180	-0.900684	-17.779874	-26.127840	-134.376775
11847		4.226415	-2.766840	8.455761	0.045978	0.126290	0.036161	0.038332	0.035092	-0.044759	-0.805420	0.632568	-0.679932	0.042273	-0.027694	0.084545	0.340772	-0.264026	0.052023	-0.900810	-17.745668	-26.117847	-134.409698
11848		3.871854	-2.938315	8.506187	0.188776	0.490117	-0.029829	0.041722	0.034239	-0.039317	-0.805176	0.641113	-0.676514	0.038727	-0.029409	0.085049	0.340649	-0.263798	0.051902	-0.900930	-17.714722	-26.101715	-134.438353
11849		4.013330	-2.837345	8.522036	0.161990	0.326469	0.018367	0.044629	0.035881	-0.049626	-0.809082	0.645508	-0.677490	0.040142	-0.028402	0.085207	0.340475	-0.263592	0.051711	-0.901067	-17.675570	-26.092091	-134.474365
11850		4.123528	-2.822835	8.470594	0.069208	0.242423	0.018858	0.049443	0.033337	-0.048264	-0.806396	0.652100	-0.685059	0.041243	-0.028259	0.084692	0.340323	-0.263356	0.051544	-0.901203	-17.638016	-26.077789	-134.508233
11851		4.167515	-2.754204	8.477920	0.079875	0.166070	0.025757	0.052746	0.033003	-0.050153	-0.806396	0.638428	-0.685547	0.041682	-0.027575	0.084765	0.340158	-0.263149	0.051311	-0.901339	-17.594347	-26.069772	-134.543984
11852		4.068189	-2.820614	8.487626	0.102445	0.283550	0.008459	0.048618	0.037643	-0.051489	-0.801270	0.639404	-0.689697	0.040691	-0.028237	0.084862	0.339989	-0.262895	0.051151	-0.901486	-17.556072	-26.053563	-134.580628
11853		4.028553	-2.888616	8.454664	0.064942	0.361885	-0.018838	0.060224	0.030757	-0.055424	-0.809570	0.632324	-0.690186	0.040291	-0.028923	0.084532	0.339811	-0.262687	0.050874	-0.901630	-17.506931	-26.047623	-134.619130
11854		4.287617	-2.736757	8.478308	-0.004070	0.086010	0.074060	0.063168	0.032366	-0.065723	-0.807129	0.635254	-0.675537	0.042881	-0.027408	0.084767	0.339598	-0.262435	0.050622	-0.901797	-17.457063	-26.036583	-134.663388
11855		4.293729	-2.701847	8.434450	-0.016317	0.056702	0.029698	0.063273	0.034600	-0.063119	-0.810547	0.634033	-0.685547	0.042943	-0.027059	0.084329	0.339388	-0.262206	0.050327	-0.901960	-17.403825	-26.029788	-134.707284
11856		4.233840	-2.737587	8.441855	-0.002704	0.126672	0.019334	0.063655	0.038153	-0.064177	-0.818359	0.636230	-0.687012	0.042346	-0.027416	0.084402	0.339181	-0.261928	0.050084	-0.902132	-17.353652	-26.015308	-134.751669
11857		4.100878	-2.752950	8.500562	0.095203	0.233063	0.015441	0.061325	0.041893	-0.065923	-0.816406	0.637939	-0.674316	0.041018	-0.027569	0.084989	0.338953	-0.261670	0.049807	-0.902308	-17.300208	-26.004919	-134.798630
11858		4.041920	-2.795514	8.453778	0.076939	0.302596	-0.039209	0.057962	0.037642	-0.069195	-0.818848	0.636963	-0.694580	0.040425	-0.027994	0.084522	0.338717	-0.261404	0.049583	-0.902486	-17.252056	-25.991465	-134.845938
11859		4.078344	-2.712409	8.492809	0.115357	0.223958	-0.011953	0.062556	0.044319	-0.075795	-0.812500	0.640869	-0.687988	0.040792	-0.027166	0.084911	0.338445	-0.261135	0.049292	-0.902681	-17.195112	-25.981334	-134.899334
11860		4.153587	-2.599541	8.529111	0.144519	0.096666	0.022220	0.059491	0.041368	-0.082724	-0.818359	0.624512	-0.690918	0.041543	-0.026038	0.085275	0.338148	-0.260852	0.049050	-0.902887	-17.142244	-25.967948	-134.955543
11861		4.067042	-2.638288	8.568891	0.190661	0.189240	0.028813	0.037293	0.039723	-0.073581	-0.812744	0.640137	-0.685547	0.040678	-0.026414	0.085676	0.337855	-0.260646	0.048868	-0.903067	-17.100784	-25.959862	-135.006695
11862		4.022095	-2.780121	8.544428	0.118641	0.326568	0.025649	0.029763	0.037367	-0.073475	-0.815918	0.634277	-0.689941	0.040227	-0.027829	0.085433	0.337562	-0.260429	0.048766	-0.903244	-17.067723	-25.946979	-135.056522
11863		4.072734	-2.724736	8.519901	0.101534	0.252468	0.012078	0.023886	0.047878	-0.076590	-0.821045	0.625488	-0.696533	0.040737	-0.027273	0.085186	0.337236	-0.260209	0.048654	-0.903436	-17.032512	-25.934861	-135.111005
11864		4.157034	-2.758502	8.463270	-0.005981	0.220836	0.009146	0.019178	0.055364	-0.080113	-0.814941	0.636475	-0.692627	0.041583	-0.027610	0.084619	0.336895	-0.259929	0.048622	-0.903645	-17.002373	-25.913070	-135.168197
11865		4.172857	-2.732003	8.518900	0.021878	0.197336	0.056903	0.024310	0.051396	-0.077637	-0.817871	0.634277	-0.693848	0.041740	-0.027347	0.085175	0.336563	-0.259693	0.048513	-0.903842	-16.966406	-25.899130	-135.223937
11866		4.263743	-2.732156	8.469259	-0.066474	0.136970	0.053890	0.023281	0.038368	-0.076981	-0.808594	0.628174	-0.695313	0.042643	-0.027348	0.084681	0.336246	-0.259482	0.048438	-0.904025	-16.936245	-25.886051	-135.276002
11867		4.240734	-2.688907	8.565261	0.017279	0.129955	0.115079	0.031356	0.027786	-0.070568	-0.812500	0.631592	-0.699463	0.042410	-0.026917	0.085642	0.335961	-0.259339	0.048267	-0.904181	-16.900072	-25.883803	-135.323027
11868		4.179287	-2.774615	8.455632	-0.052069	0.227795	0.016251	0.025837	0.015367	-0.062887	-0.809814	0.633057	-0.689209	0.041791	-0.027770	0.084550	0.335715	-0.259225	0.048161	-0.904311	-16.874103	-25.880963	-135.362226
