// General information: 
//  MT Manager version: 2019.2.0 
//  XDA version: 2019.2.0 build 3853 rev 94535 built on 2019-09-09
// Device information: 
//  DeviceId: 00B47786
//  ProductCode: MTW2-3A7G6
//  Firmware Version: 4.6.0
//  Hardware Version: 2.0.0
// Device settings: 
//  Filter Profile: human(46.1)
//  Option Flags: Orientation Smoother Disabled, AHS Disabled, ICC Disabled
// Coordinate system: ENU
PacketCounter	SampleTimeFine	Acc_X	Acc_Y	Acc_Z	FreeAcc_E	FreeAcc_N	FreeAcc_U	Gyr_X	Gyr_Y	Gyr_Z	Mag_X	Mag_Y	Mag_Z	VelInc_X	VelInc_Y	VelInc_Z	Quat_q0	Quat_q1	Quat_q2	Quat_q3	Roll	Pitch	Yaw
11328		9.479653	0.597786	-2.087224	0.000000	-0.000000	-0.087582	0.006543	0.009836	-0.016657	-0.774414	0.032959	0.519287	0.094796	0.005971	-0.020877	0.037899	-0.773389	-0.095939	-0.625483	164.039697	-77.098542	26.890666
11329		9.516953	0.648409	-2.023477	0.000000	0.000000	-0.061416	0.006639	0.009482	-0.018164	-0.771973	0.037109	0.516357	0.095169	0.006476	-0.020239	0.042381	-0.769927	-0.104829	-0.628034	162.256317	-77.413124	29.766249
11330		9.515022	0.648576	-2.077011	-0.011865	-0.027774	-0.052085	0.006127	0.012401	-0.018895	-0.771973	0.039795	0.520996	0.095150	0.006477	-0.020776	0.040080	-0.771647	-0.100399	-0.626798	163.128213	-77.259893	28.344422
11331		9.512215	0.661146	-2.054362	0.010592	-0.034610	-0.058794	0.005187	0.008856	-0.019636	-0.768311	0.039551	0.519043	0.095122	0.006603	-0.020548	0.040043	-0.771608	-0.100489	-0.626833	163.077047	-77.261478	28.399927
11332		9.512311	0.662806	-2.053379	0.010662	-0.035633	-0.058798	0.004486	0.012485	-0.017355	-0.767578	0.045898	0.512939	0.095122	0.006620	-0.020540	0.040066	-0.771557	-0.100551	-0.626884	163.053166	-77.267930	28.430784
11333		9.497352	0.635810	-2.039968	0.013636	-0.007057	-0.077946	-0.000252	0.012027	-0.015743	-0.772461	0.049316	0.510986	0.094973	0.006351	-0.020405	0.040022	-0.771512	-0.100609	-0.626934	163.005929	-77.271888	28.479064
11334		9.500425	0.626518	-2.060429	-0.008826	-0.000212	-0.071236	0.002683	0.013674	-0.017686	-0.771729	0.042969	0.515869	0.095003	0.006257	-0.020611	0.039984	-0.771459	-0.100683	-0.626989	162.954075	-77.276412	28.533784
11335		9.494739	0.649833	-2.015872	0.036088	-0.013879	-0.084656	0.002940	0.012214	-0.017321	-0.774414	0.035889	0.517578	0.094947	0.006490	-0.020164	0.039947	-0.771411	-0.100757	-0.627038	162.904638	-77.280189	28.586193
11336		9.502715	0.631188	-2.003539	0.044098	0.007649	-0.080670	0.002940	0.012214	-0.017321	-0.768799	0.038574	0.519043	0.095026	0.006304	-0.020041	0.039971	-0.771356	-0.100812	-0.627095	162.881331	-77.287660	28.615980
11337		9.497930	0.642205	-2.035271	0.013547	-0.008205	-0.077947	0.004584	0.012131	-0.018863	-0.765869	0.048340	0.520264	0.094979	0.006414	-0.020358	0.039936	-0.771308	-0.100897	-0.627144	162.829088	-77.291116	28.672228
11338		9.518049	0.663085	-2.013544	0.041077	-0.020912	-0.061525	0.003037	0.011860	-0.018828	-0.767578	0.036621	0.520752	0.095180	0.006622	-0.020141	0.039894	-0.771259	-0.100978	-0.627193	162.775196	-77.294612	28.729209
11339		9.472265	0.648228	-2.010490	0.030838	-0.009127	-0.107790	0.002099	0.008314	-0.019569	-0.770752	0.041260	0.513916	0.094722	0.006473	-0.020109	0.039844	-0.771223	-0.101058	-0.627228	162.722637	-77.295837	28.784320
11340		9.523074	0.657418	-1.978912	0.071530	-0.005020	-0.064247	0.000392	0.009147	-0.021407	-0.766602	0.037842	0.514160	0.095231	0.006564	-0.019793	0.039781	-0.771180	-0.101141	-0.627271	162.661838	-77.297584	28.846771
11341		9.498232	0.649550	-2.031525	0.013403	-0.008149	-0.077947	-0.005991	0.008768	-0.018257	-0.761475	0.045898	0.515381	0.094982	0.006486	-0.020320	0.039706	-0.771144	-0.101191	-0.627312	162.607458	-77.299256	28.898997
11342		9.480280	0.633679	-1.996721	0.038667	0.013646	-0.103801	-0.002895	0.009313	-0.018326	-0.756836	0.041016	0.519531	0.094802	0.006328	-0.019972	0.039639	-0.771101	-0.101253	-0.627359	162.550947	-77.301925	28.955065
11343		9.483261	0.624724	-2.017663	0.016209	0.020478	-0.097091	-0.002188	0.005685	-0.020608	-0.769775	0.039795	0.516602	0.094833	0.006237	-0.020179	0.039569	-0.771073	-0.101324	-0.627386	162.495371	-77.301486	29.010750
11344		9.480283	0.637630	-1.995450	0.038451	0.013660	-0.103800	-0.000543	0.005603	-0.022149	-0.765137	0.036865	0.517090	0.094803	0.006366	-0.019957	0.039498	-0.771038	-0.101408	-0.627421	162.433922	-77.301795	29.073265
11345		9.506124	0.637319	-2.017654	0.021112	0.014600	-0.073958	-0.001993	0.004975	-0.023622	-0.768799	0.037842	0.518311	0.095061	0.006362	-0.020179	0.039419	-0.771011	-0.101492	-0.627446	162.371705	-77.300420	29.135872
11346		9.483137	0.631263	-2.016212	0.015719	0.020475	-0.097090	-0.004830	0.002970	-0.023188	-0.770996	0.040283	0.518799	0.094832	0.006301	-0.020164	0.039328	-0.770982	-0.101565	-0.627475	162.307280	-77.299472	29.198914
11347		9.502984	0.652741	-1.995342	0.043295	0.007751	-0.080666	-0.004571	0.001511	-0.022822	-0.771973	0.035156	0.520508	0.095030	0.006516	-0.019954	0.039240	-0.770966	-0.101639	-0.627488	162.248231	-77.296317	29.256760
11348		9.508847	0.633239	-2.038351	-0.002006	0.020501	-0.067247	-0.008375	0.004592	-0.020473	-0.767822	0.036133	0.520020	0.095089	0.006322	-0.020386	0.039192	-0.770927	-0.101677	-0.627533	162.206595	-77.299844	29.297542
11349		9.482914	0.637961	-2.015153	0.015335	0.019565	-0.097088	0.001202	0.005169	-0.025198	-0.769775	0.046143	0.510986	0.094829	0.006368	-0.020154	0.039120	-0.770897	-0.101776	-0.627557	162.142277	-77.298244	29.364179
11350		9.500842	0.658016	-2.048653	-0.010446	-0.002295	-0.071238	-0.003279	0.003244	-0.023224	-0.764404	0.037109	0.514160	0.095009	0.006569	-0.020488	0.039039	-0.770865	-0.101852	-0.627590	162.079685	-77.298026	29.426358
11351		9.546547	0.677136	-2.050488	-0.000213	-0.014085	-0.024972	0.000269	0.001624	-0.025940	-0.772705	0.036621	0.513672	0.095466	0.006759	-0.020506	0.038959	-0.770846	-0.101953	-0.627602	162.015848	-77.294330	29.491955
11352		9.531421	0.650849	-2.038051	0.002454	0.014436	-0.044114	0.003169	0.002881	-0.022995	-0.764404	0.037598	0.515137	0.095315	0.006498	-0.020382	0.038902	-0.770815	-0.102050	-0.627628	161.957155	-77.293573	29.553823
11353		9.492628	0.685134	-2.059046	-0.018845	-0.025040	-0.075229	-0.000344	0.004896	-0.025167	-0.766113	0.040771	0.518799	0.094927	0.006839	-0.020593	0.038824	-0.770787	-0.102144	-0.627652	161.892307	-77.291766	29.620097
11354		9.495557	0.676767	-2.080188	-0.041564	-0.018256	-0.068523	0.001044	0.006275	-0.027074	-0.766846	0.034668	0.518799	0.094956	0.006755	-0.020805	0.038747	-0.770745	-0.102250	-0.627691	161.820227	-77.291811	29.694485
11355		9.495527	0.679119	-2.079556	-0.041563	-0.018256	-0.068523	-0.000796	0.007063	-0.022520	-0.770020	0.043945	0.513428	0.094955	0.006780	-0.020799	0.038676	-0.770711	-0.102333	-0.627723	161.759816	-77.291622	29.755945
11356		9.506423	0.650380	-2.089386	-0.056074	0.011265	-0.057825	-0.000599	0.006355	-0.025535	-0.771484	0.037354	0.510254	0.095064	0.006492	-0.020897	0.038596	-0.770674	-0.102429	-0.627759	161.690785	-77.291205	29.826281
11357		9.495509	0.683737	-2.078124	-0.041706	-0.018251	-0.068524	0.000234	0.010256	-0.023287	-0.772217	0.043213	0.515137	0.094955	0.006826	-0.020786	0.038529	-0.770629	-0.102517	-0.627803	161.626565	-77.292585	29.892252
11358		9.498564	0.675177	-2.098838	-0.064183	-0.011418	-0.061817	0.000333	0.009902	-0.024795	-0.767822	0.043945	0.514404	0.094985	0.006740	-0.020993	0.038458	-0.770585	-0.102613	-0.627846	161.558726	-77.293572	29.962052
11359		9.495601	0.688396	-2.076169	-0.041725	-0.018249	-0.068524	-0.001472	0.011085	-0.025128	-0.771484	0.039795	0.519043	0.094956	0.006872	-0.020767	0.038379	-0.770537	-0.102703	-0.627894	161.488396	-77.295042	30.033285
11360		9.507614	0.730229	-2.065581	-0.022041	-0.053621	-0.056089	-0.003376	0.012623	-0.023955	-0.770264	0.041748	0.508545	0.095076	0.007291	-0.020662	0.038298	-0.770493	-0.102783	-0.627941	161.420354	-77.296393	30.101239
11361		9.503730	0.672897	-2.062524	-0.033433	0.004474	-0.064531	-0.005281	0.014161	-0.022781	-0.768311	0.036621	0.517334	0.095037	0.006718	-0.020632	0.038213	-0.770437	-0.102852	-0.628003	161.350997	-77.299922	30.169241
11362		9.526749	0.683785	-2.062130	-0.028085	-0.001288	-0.041398	-0.006889	0.014635	-0.026129	-0.772949	0.035645	0.520264	0.095267	0.006825	-0.020629	0.038108	-0.770387	-0.102932	-0.628058	161.272226	-77.301504	30.245986
11363		9.503989	0.677705	-2.059758	-0.033202	0.004605	-0.064531	-0.005119	0.013056	-0.020909	-0.767090	0.033936	0.519775	0.095039	0.006767	-0.020604	0.038030	-0.770336	-0.102994	-0.628115	161.208299	-77.304746	30.308516
11364		9.515140	0.648663	-2.068823	-0.047155	0.034339	-0.053831	0.002257	0.016250	-0.019934	-0.762451	0.038330	0.517578	0.095150	0.006477	-0.020696	0.037977	-0.770288	-0.103080	-0.628162	161.148794	-77.307104	30.370646
11365		9.489424	0.653111	-2.044513	-0.029812	0.033404	-0.083672	0.005131	0.018658	-0.025255	-0.779053	0.038574	0.513672	0.094893	0.006520	-0.020454	0.037927	-0.770216	-0.103190	-0.628236	161.075559	-77.312524	30.448726
11366		9.501510	0.694793	-2.033355	-0.009889	-0.002012	-0.071237	0.011580	0.018306	-0.025021	-0.764893	0.038086	0.518311	0.095014	0.006937	-0.020342	0.037905	-0.770157	-0.103318	-0.628288	161.012936	-77.315579	30.520039
11367		9.470870	0.708675	-2.041925	-0.023097	-0.018804	-0.098359	0.008488	0.017753	-0.024956	-0.765381	0.037598	0.527344	0.094708	0.007076	-0.020427	0.037868	-0.770087	-0.103437	-0.628357	160.942999	-77.320526	30.596708
11368		9.475950	0.701467	-2.007417	0.008186	-0.002867	-0.101079	0.006842	0.017830	-0.023417	-0.773438	0.037598	0.518799	0.094759	0.007004	-0.020082	0.037830	-0.770042	-0.103546	-0.628397	160.883959	-77.321781	30.661464
11369		9.494094	0.721500	-2.039778	-0.017234	-0.024614	-0.075225	-0.002078	0.014354	-0.024364	-0.764160	0.032227	0.520264	0.094940	0.007203	-0.020405	0.037753	-0.769985	-0.103630	-0.628457	160.812236	-77.324914	30.733756
11370		9.517142	0.732228	-2.039147	-0.011551	-0.030314	-0.052092	-0.007801	0.018961	-0.020846	-0.764160	0.030029	0.513916	0.095170	0.007312	-0.020401	0.037661	-0.769935	-0.103686	-0.628515	160.744931	-77.327787	30.798146
11371		9.505526	0.695009	-2.046856	-0.031023	0.005102	-0.064524	-0.007337	0.016794	-0.023495	-0.760986	0.033936	0.516357	0.095054	0.006938	-0.020477	0.037568	-0.769872	-0.103751	-0.628587	160.670131	-77.332339	30.870492
11372		9.502636	0.708048	-2.023495	-0.008103	-0.001426	-0.071235	-0.004445	0.018058	-0.020545	-0.763916	0.023193	0.513428	0.095025	0.007070	-0.020244	0.037485	-0.769821	-0.103820	-0.628643	160.602210	-77.334912	30.937303
11373		9.528820	0.707777	-2.044392	-0.025422	-0.000477	-0.041390	-0.005991	0.017780	-0.020514	-0.767334	0.032471	0.510498	0.095287	0.007067	-0.020453	0.037406	-0.769756	-0.103877	-0.628718	160.534333	-77.340497	31.003324
11374		9.506163	0.701424	-2.041704	-0.030278	0.005876	-0.064522	-0.005888	0.017426	-0.022022	-0.756592	0.039551	0.526367	0.095061	0.007003	-0.020426	0.037305	-0.769701	-0.103953	-0.628779	160.456021	-77.342955	31.079572
11375		9.522325	0.663341	-2.017511	-0.014080	0.051268	-0.056550	-0.007695	0.018606	-0.022358	-0.768555	0.036133	0.511719	0.095222	0.006622	-0.020184	0.037214	-0.769632	-0.104012	-0.628858	160.381662	-77.348585	31.151199
11376		9.529458	0.714494	-2.039074	-0.024249	-0.000136	-0.041387	-0.002952	0.019088	-0.023961	-0.760010	0.033691	0.520020	0.095293	0.007133	-0.020400	0.037146	-0.769589	-0.104084	-0.628903	160.321792	-77.350158	31.211433
11377		9.503708	0.718995	-2.014581	-0.006894	-0.001058	-0.071234	-0.003155	0.019795	-0.020947	-0.769043	0.022705	0.518555	0.095036	0.007180	-0.020155	0.037078	-0.769518	-0.104151	-0.628984	160.252518	-77.356617	31.280527
11378		9.515094	0.690128	-2.022989	-0.020474	0.028933	-0.060533	-0.005222	0.022434	-0.021650	-0.762451	0.024170	0.519287	0.095149	0.006890	-0.020241	0.036983	-0.769464	-0.104223	-0.629043	160.177997	-77.359070	31.353128
11379		9.464830	0.684539	-2.051867	-0.061246	0.024889	-0.104063	-0.001867	0.021533	-0.021346	-0.765625	0.027344	0.525635	0.094647	0.006835	-0.020529	0.036918	-0.769386	-0.104296	-0.629130	160.106719	-77.366281	31.424996
11380		9.463607	0.699144	-1.973833	0.015305	0.027674	-0.120233	-0.004025	0.016643	-0.026581	-0.761475	0.022705	0.522461	0.094635	0.006978	-0.019746	0.036803	-0.769359	-0.104393	-0.629154	160.027504	-77.362609	31.502723
11381		9.492946	0.688557	-2.016337	-0.024432	0.035494	-0.083664	-0.012588	0.019225	-0.022641	-0.763916	0.017578	0.522949	0.094928	0.006874	-0.020173	0.036691	-0.769290	-0.104437	-0.629237	159.948708	-77.368177	31.575950
11382		9.535708	0.718860	-1.994684	0.009339	0.017830	-0.044123	-0.007583	0.018252	-0.023873	-0.750732	0.024414	0.524658	0.095356	0.007176	-0.019956	0.036556	-0.769260	-0.104521	-0.629268	159.863844	-77.364965	31.656634
11383		9.471035	0.755361	-1.991845	0.005391	-0.022536	-0.105062	-0.013768	0.017133	-0.023753	-0.764893	0.020996	0.524902	0.094710	0.007541	-0.019927	0.036434	-0.769198	-0.104567	-0.629343	159.783080	-77.369007	31.731104
11384		9.510016	0.726074	-1.968736	0.028086	0.017676	-0.073981	-0.011697	0.014497	-0.023050	-0.762207	0.027832	0.531982	0.095100	0.007249	-0.019695	0.036291	-0.769190	-0.104624	-0.629351	159.710930	-77.362947	31.796346
11385		9.505308	0.737750	-2.000199	-0.002387	0.001912	-0.071232	-0.009991	0.013672	-0.021206	-0.757813	0.021240	0.524414	0.095052	0.007366	-0.020009	0.036189	-0.769141	-0.104673	-0.629409	159.641338	-77.365421	31.861524
11386		9.518247	0.710464	-1.954736	0.037884	0.041019	-0.070015	-0.011537	0.013392	-0.021177	-0.755859	0.025635	0.533447	0.095182	0.007093	-0.019554	0.036057	-0.769146	-0.104715	-0.629403	159.582066	-77.358331	31.913467
11387		9.419197	0.741764	-2.202861	-0.213732	-0.045330	-0.113391	-0.006926	0.005955	-0.022418	-0.759521	0.024414	0.520020	0.094192	0.007406	-0.022032	0.035957	-0.769121	-0.104780	-0.629429	159.518243	-77.356208	31.974492
11388		9.350524	0.732419	-2.069434	-0.099021	-0.016052	-0.208457	-0.018276	-0.009249	-0.030138	-0.758057	0.022461	0.532227	0.093507	0.007308	-0.020691	0.035766	-0.769196	-0.104836	-0.629339	159.458157	-77.335169	32.023724
11389		9.420385	0.525165	-2.285832	-0.335881	0.156876	-0.111808	0.016660	-0.016831	-0.028970	-0.755859	0.022217	0.524414	0.094207	0.005240	-0.022850	0.035725	-0.769236	-0.105004	-0.629265	159.412846	-77.319309	32.079600
11390		9.507057	0.668641	-2.042262	-0.052928	0.075409	-0.066223	0.026542	-0.010536	-0.023882	-0.759277	0.021240	0.526611	0.095072	0.006678	-0.020417	0.035725	-0.769326	-0.105178	-0.629125	159.400692	-77.296229	32.106353
11391		9.601749	0.778387	-1.917759	0.107650	0.005090	0.009006	0.020800	-0.004795	-0.028644	-0.757324	0.020264	0.522705	0.096019	0.007772	-0.019174	0.035707	-0.769328	-0.105356	-0.629094	159.347976	-77.286703	32.172214
11392		9.551628	0.914284	-1.909452	0.135910	-0.128465	-0.031044	-0.010701	-0.006754	-0.032160	-0.751221	0.024170	0.523926	0.095518	0.009126	-0.019092	0.035547	-0.769382	-0.105451	-0.629021	159.282776	-77.268104	32.232358
11393		9.511939	0.878894	-1.951423	0.080879	-0.102875	-0.063823	-0.037718	-0.007918	-0.029367	-0.756592	0.020020	0.531250	0.095121	0.008771	-0.019512	0.035298	-0.769404	-0.105449	-0.629008	159.197724	-77.256620	32.296959
11394		9.460671	0.803963	-2.003042	0.007595	-0.041587	-0.109026	-0.049869	-0.012030	-0.023871	-0.759277	0.027344	0.524170	0.094609	0.008023	-0.020027	0.035005	-0.769487	-0.105386	-0.628934	159.133791	-77.236794	32.331969
11395		9.463132	0.725793	-2.045514	-0.048501	0.030347	-0.104006	-0.043627	-0.011655	-0.020611	-0.756348	0.020020	0.526855	0.094633	0.007244	-0.020451	0.034759	-0.769527	-0.105332	-0.628908	159.069740	-77.224940	32.371548
11396		9.431528	0.669603	-2.076801	-0.094587	0.078591	-0.132808	-0.028818	-0.013842	-0.021293	-0.756348	0.022705	0.525879	0.094317	0.006683	-0.020762	0.034569	-0.769599	-0.105320	-0.628833	159.027479	-77.207740	32.397392
11397		9.466825	0.651329	-2.034960	-0.050580	0.111398	-0.108508	-0.007513	-0.015953	-0.026621	-0.753174	0.013672	0.532959	0.094671	0.006500	-0.020342	0.034440	-0.769643	-0.105403	-0.628772	158.974114	-77.192290	32.447234
11398		9.561109	0.748050	-2.041545	-0.017242	0.030152	-0.007531	0.006029	-0.011601	-0.025750	-0.745605	0.020020	0.534668	0.095613	0.007469	-0.020410	0.034362	-0.769709	-0.105524	-0.628675	158.938028	-77.173067	32.487029
11399		9.515346	0.803507	-2.020604	0.006470	-0.022862	-0.052067	0.005397	-0.008332	-0.024974	-0.761230	0.016846	0.534668	0.095155	0.008024	-0.020202	0.034291	-0.769728	-0.105641	-0.628635	158.889202	-77.161925	32.539778
11400		9.498808	0.846181	-2.043699	-0.008315	-0.068021	-0.059976	-0.004405	-0.007114	-0.025525	-0.746582	0.018555	0.526611	0.094990	0.008449	-0.020434	0.034180	-0.769787	-0.105719	-0.628557	158.848999	-77.144991	32.577474
11401		9.490119	0.798404	-2.075622	-0.050036	-0.025592	-0.065644	-0.012236	-0.008177	-0.023865	-0.751465	0.020996	0.536865	0.094903	0.007971	-0.020753	0.034045	-0.769810	-0.105776	-0.628526	158.792763	-77.134053	32.627452
11402		9.523850	0.778544	-2.087866	-0.058181	-0.001888	-0.031806	-0.015004	-0.010956	-0.020056	-0.752197	0.021729	0.539063	0.095240	0.007774	-0.020874	0.033916	-0.769870	-0.105801	-0.628455	158.760695	-77.118812	32.651115
11403		9.516924	0.731828	-2.065282	-0.046902	0.049537	-0.047026	-0.009618	-0.005448	-0.021275	-0.752930	0.020020	0.529541	0.095171	0.007307	-0.020651	0.033801	-0.769886	-0.105855	-0.628433	158.709755	-77.109813	32.697201
11404		9.485705	0.745405	-2.076168	-0.059225	0.032663	-0.074098	-0.010471	-0.009755	-0.018640	-0.747314	0.021973	0.538330	0.094859	0.007444	-0.020757	0.033700	-0.769940	-0.105886	-0.628367	158.684300	-77.096191	32.717101
11405		9.457590	0.748405	-2.109070	-0.094719	0.022877	-0.094416	-0.005046	-0.012118	-0.025911	-0.751709	0.016113	0.526123	0.094578	0.007471	-0.021085	0.033585	-0.769973	-0.105974	-0.628318	158.631441	-77.082639	32.767850
11406		9.458673	0.681812	-2.075942	-0.074648	0.096750	-0.105681	0.003583	-0.015424	-0.026477	-0.758789	0.015381	0.530518	0.094589	0.006806	-0.020752	0.033512	-0.770037	-0.106083	-0.628225	158.600270	-77.064577	32.802119
11407		9.495677	0.721581	-2.090339	-0.072187	0.062488	-0.063381	0.007744	-0.012411	-0.023918	-0.753174	0.015381	0.533691	0.094959	0.007205	-0.020897	0.033451	-0.770070	-0.106203	-0.628168	158.559839	-77.051265	32.847641
11408		9.510032	0.823057	-2.083528	-0.040400	-0.031164	-0.042497	0.004493	-0.011873	-0.025731	-0.745361	0.019287	0.529053	0.095103	0.008219	-0.020829	0.033390	-0.770122	-0.106310	-0.628089	158.529630	-77.035575	32.881772
11409		9.472110	0.787991	-2.071691	-0.042412	0.003452	-0.084795	-0.006321	-0.013864	-0.025516	-0.747803	0.015137	0.528076	0.094724	0.007867	-0.020711	0.033270	-0.770161	-0.106393	-0.628034	158.478910	-77.021142	32.929584
11410		9.500837	0.777904	-2.117096	-0.081158	0.011123	-0.048138	-0.007015	-0.009842	-0.028121	-0.750732	0.019775	0.525879	0.095011	0.007765	-0.021167	0.033158	-0.770209	-0.106471	-0.627968	158.435673	-77.005768	32.970131
11411		9.529925	0.780873	-2.031686	0.007785	0.030251	-0.037412	0.001255	-0.012492	-0.019271	-0.755859	0.019287	0.524658	0.095301	0.007800	-0.020311	0.033087	-0.770245	-0.106553	-0.627912	158.402658	-76.993365	33.004232
11412		9.514958	0.754053	-2.020400	0.011576	0.058576	-0.056588	-0.009616	-0.005456	-0.021276	-0.745850	0.014893	0.524170	0.095151	0.007529	-0.020202	0.032992	-0.770280	-0.106594	-0.627868	158.370403	-76.982533	33.032220
11413		9.498332	0.796596	-2.043237	-0.004429	0.013382	-0.064483	-0.004505	-0.006760	-0.024023	-0.756348	0.017578	0.526855	0.094985	0.007954	-0.020429	0.032887	-0.770297	-0.106676	-0.627838	158.318039	-76.972181	33.082800
11414		9.458804	0.830523	-2.065515	-0.025015	-0.026277	-0.095498	-0.007964	-0.013799	-0.023979	-0.751953	0.017090	0.533691	0.094590	0.008293	-0.020649	0.032783	-0.770356	-0.106735	-0.627762	158.286383	-76.956216	33.110959
11415		9.429127	0.775290	-2.042478	-0.018927	0.031022	-0.133850	-0.009775	-0.012626	-0.024314	-0.756104	0.017334	0.534668	0.094293	0.007740	-0.020419	0.032654	-0.770392	-0.106802	-0.627713	158.235860	-76.942668	33.156555
11416		9.521590	0.743487	-2.012971	0.021960	0.081284	-0.052645	-0.002155	-0.010846	-0.022962	-0.757568	0.007080	0.530273	0.095218	0.007424	-0.020125	0.032576	-0.770446	-0.106875	-0.627638	158.209494	-76.927678	33.182754
11417		9.535793	0.774518	-2.026086	0.019255	0.052899	-0.033471	-0.003804	-0.010781	-0.021421	-0.756836	0.019043	0.533203	0.095360	0.007735	-0.020256	0.032480	-0.770477	-0.106950	-0.627592	158.167518	-76.915706	33.223094
11418		9.473491	0.729041	-2.067535	-0.040437	0.084073	-0.089286	-0.002422	-0.009388	-0.023328	-0.750732	0.010498	0.535889	0.094737	0.007279	-0.020671	0.032401	-0.770518	-0.107025	-0.627533	158.135174	-76.902628	33.255247
11419		9.448477	0.791824	-2.101971	-0.064565	0.016196	-0.101119	-0.008122	-0.012693	-0.025857	-0.750244	0.017578	0.528076	0.094487	0.007905	-0.021014	0.032273	-0.770554	-0.107103	-0.627483	158.082459	-76.888681	33.304071
11420		9.451176	0.783683	-2.124949	-0.086121	0.022825	-0.094336	-0.007584	-0.015608	-0.025128	-0.748779	0.017822	0.527100	0.094514	0.007824	-0.021242	0.032167	-0.770619	-0.107166	-0.627397	158.052478	-76.871399	33.330648
11421		9.470233	0.805898	-2.105474	-0.058273	0.010276	-0.077991	-0.016006	-0.013019	-0.027574	-0.748779	0.016357	0.534180	0.094705	0.008044	-0.021049	0.032003	-0.770656	-0.107226	-0.627350	157.991850	-76.856885	33.382964
11422		9.469732	0.808756	-2.106631	-0.057353	0.009939	-0.077985	-0.015841	-0.014126	-0.025701	-0.745850	0.010498	0.529785	0.094700	0.008074	-0.021060	0.031869	-0.770718	-0.107261	-0.627274	157.957767	-76.840432	33.409090
11423		9.466004	0.822370	-2.086185	-0.034695	0.003266	-0.084764	-0.023456	-0.015912	-0.027053	-0.743896	0.020020	0.533936	0.094663	0.008208	-0.020855	0.031677	-0.770765	-0.107296	-0.627220	157.896994	-76.824473	33.457185
11424		9.459123	0.776353	-2.064491	-0.022658	0.054294	-0.099995	-0.022646	-0.020285	-0.025962	-0.746826	0.009277	0.541992	0.094594	0.007749	-0.020636	0.031507	-0.770851	-0.107314	-0.627120	157.862756	-76.803929	33.479251
11425		9.484473	0.777233	-2.088893	-0.039663	0.055444	-0.070094	-0.022853	-0.019584	-0.022943	-0.753906	0.018066	0.535889	0.094848	0.007759	-0.020881	0.031328	-0.770912	-0.107336	-0.627050	157.815280	-76.786882	33.514050
11426		9.524993	0.750177	-2.014673	0.035785	0.103684	-0.048716	-0.021490	-0.017023	-0.033128	-0.750244	0.008057	0.534180	0.095253	0.007484	-0.020139	0.031144	-0.770984	-0.107386	-0.626962	157.763450	-76.766382	33.555109
11427		9.527619	0.742888	-2.037811	0.013588	0.110712	-0.041933	-0.023345	-0.016262	-0.028568	-0.740234	0.012207	0.534180	0.095279	0.007413	-0.020371	0.030947	-0.771032	-0.107428	-0.626906	157.700209	-76.749846	33.605819
11428		9.530117	0.805757	-2.040559	0.025766	0.052343	-0.033483	-0.025262	-0.014743	-0.027390	-0.749756	0.018555	0.528809	0.095304	0.008042	-0.020400	0.030767	-0.771093	-0.107442	-0.626838	157.654707	-76.733084	33.637936
11429		9.453229	0.732568	-2.070233	-0.031540	0.112421	-0.108439	-0.034375	-0.016412	-0.033603	-0.752197	0.013916	0.538818	0.094535	0.007306	-0.020696	0.030512	-0.771140	-0.107468	-0.626788	157.574233	-76.715340	33.699861
11430		9.498163	0.753994	-2.073383	-0.020440	0.100085	-0.062196	-0.028573	-0.013451	-0.032587	-0.748535	0.011719	0.537109	0.094984	0.007521	-0.020729	0.030318	-0.771190	-0.107484	-0.626732	157.519540	-76.699586	33.740082
11431		9.441977	0.758972	-2.138025	-0.091715	0.080356	-0.102731	-0.028842	-0.011993	-0.032951	-0.755127	0.006836	0.531006	0.094422	0.007571	-0.021376	0.030088	-0.771223	-0.107525	-0.626697	157.439961	-76.684302	33.804362
11432		9.422894	0.801981	-2.215832	-0.160260	0.025592	-0.100958	-0.032612	-0.016821	-0.036664	-0.747314	0.012207	0.534912	0.094232	0.007999	-0.022152	0.029856	-0.771282	-0.107549	-0.626630	157.373547	-76.665383	33.853925
11433		9.363013	0.888490	-2.238839	-0.175304	-0.065935	-0.146625	-0.036590	-0.020952	-0.037357	-0.748047	0.011475	0.536621	0.093634	0.008863	-0.022380	0.029578	-0.771341	-0.107583	-0.626565	157.288361	-76.644354	33.919410
11434		9.418209	0.821366	-2.197235	-0.136624	0.018481	-0.107733	-0.038193	-0.020480	-0.040711	-0.746338	0.013184	0.532471	0.094186	0.008190	-0.021964	0.029312	-0.771421	-0.107604	-0.626476	157.218331	-76.621155	33.969586
11435		9.497184	0.821962	-2.212254	-0.135069	0.030551	-0.027647	-0.044012	-0.015171	-0.040553	-0.746094	0.004395	0.535400	0.094975	0.008195	-0.022117	0.028999	-0.771461	-0.107627	-0.626437	157.116895	-76.602421	34.047418
11436		9.540787	0.856166	-2.138687	-0.048239	0.020563	0.002142	-0.045308	-0.008646	-0.038979	-0.746338	0.008789	0.539551	0.095410	0.008538	-0.021385	0.028713	-0.771506	-0.107619	-0.626396	157.034395	-76.585427	34.106070
11437		9.459013	0.793813	-2.200269	-0.136124	0.064822	-0.069920	-0.058632	-0.005486	-0.041680	-0.747314	0.014160	0.531494	0.094592	0.007912	-0.022002	0.028345	-0.771517	-0.107599	-0.626402	156.913452	-76.571485	34.195355
11438		9.444263	0.769862	-2.188129	-0.132102	0.092893	-0.089076	-0.053212	-0.000713	-0.039511	-0.744141	0.013184	0.536621	0.094444	0.007674	-0.021883	0.028039	-0.771541	-0.107564	-0.626393	156.822681	-76.558461	34.258275
11439		9.438023	0.725646	-2.164521	-0.120831	0.144315	-0.104311	-0.051217	0.005701	-0.041019	-0.750000	0.010986	0.541260	0.094381	0.007232	-0.021650	0.027707	-0.771517	-0.107563	-0.626438	156.697286	-76.550481	34.356521
11440		9.434652	0.741207	-2.141744	-0.097128	0.136871	-0.111092	-0.045211	0.007980	-0.043022	-0.748047	0.010254	0.537598	0.094347	0.007387	-0.021423	0.027431	-0.771516	-0.107562	-0.626451	156.600009	-76.540652	34.431136
11441		9.445634	0.785992	-2.130636	-0.077380	0.101626	-0.098724	-0.049007	0.011425	-0.045554	-0.745850	0.015625	0.526855	0.094457	0.007833	-0.021314	0.027097	-0.771470	-0.107584	-0.626518	156.460796	-76.534549	34.544905
11442		9.389739	0.793168	-2.192853	-0.147869	0.080992	-0.139193	-0.061084	0.008822	-0.053227	-0.750244	0.001709	0.542480	0.093899	0.007900	-0.021935	0.026732	-0.771456	-0.107568	-0.626555	156.331370	-76.524382	34.643219
11443		9.386267	0.810072	-2.169751	-0.125215	0.074309	-0.146000	-0.059428	0.008771	-0.054777	-0.745850	0.018066	0.534668	0.093864	0.008069	-0.021704	0.026328	-0.771415	-0.107594	-0.626618	156.168889	-76.514643	34.774795
11444		9.411202	0.756425	-2.135641	-0.099500	0.141741	-0.134161	-0.070167	0.007147	-0.059464	-0.742432	0.013916	0.536621	0.094114	0.007529	-0.021362	0.025904	-0.771412	-0.107578	-0.626641	156.024024	-76.500195	34.883779
11445		9.456931	0.711364	-2.157078	-0.122622	0.195092	-0.089546	-0.071867	0.007969	-0.061312	-0.749023	0.007813	0.539063	0.094571	0.007077	-0.021577	0.025431	-0.771372	-0.107590	-0.626708	155.841478	-76.488335	35.028679
11446		9.430653	0.720862	-2.133165	-0.104050	0.193336	-0.119440	-0.074255	0.005757	-0.075234	-0.747803	0.002441	0.538574	0.094309	0.007165	-0.021337	0.024948	-0.771367	-0.107616	-0.626730	155.666244	-76.469679	35.166633
11447		9.416009	0.700465	-2.120229	-0.100910	0.222070	-0.138611	-0.080681	0.006038	-0.075482	-0.751953	-0.001709	0.535400	0.094162	0.006961	-0.021208	0.024396	-0.771325	-0.107655	-0.626795	155.450600	-76.453227	35.340411
11448		9.395442	0.760072	-2.118831	-0.093602	0.169279	-0.153285	-0.083037	0.010119	-0.076534	-0.743408	-0.001709	0.536377	0.093956	0.007556	-0.021196	0.023867	-0.771299	-0.107665	-0.626846	155.256355	-76.436641	35.492351
11449		9.439027	0.798416	-2.042412	-0.007518	0.159793	-0.123593	-0.086995	0.014681	-0.080940	-0.745850	0.001953	0.527100	0.094392	0.007937	-0.020435	0.023278	-0.771228	-0.107704	-0.626949	155.017551	-76.423066	35.686242
11450		9.445226	0.928357	-1.987411	0.069317	0.051778	-0.116479	-0.109754	0.009217	-0.085060	-0.749268	0.000732	0.536621	0.094455	0.009232	-0.019884	0.022625	-0.771202	-0.107654	-0.627014	154.794842	-76.404641	35.851563
11451		9.386586	0.880773	-2.048429	-0.013401	0.090175	-0.165330	-0.128608	0.008675	-0.091858	-0.747803	-0.002441	0.534668	0.093869	0.008751	-0.020494	0.021838	-0.771147	-0.107606	-0.627117	154.515872	-76.384899	36.062275
11452		9.376561	0.841554	-2.133367	-0.107180	0.122614	-0.161116	-0.145000	0.002042	-0.085968	-0.740479	-0.001221	0.533691	0.093769	0.008360	-0.021341	0.021048	-0.771146	-0.107450	-0.627172	154.281706	-76.362321	36.219164
11453		9.364744	0.754296	-2.087212	-0.084886	0.225284	-0.191571	-0.141296	0.001407	-0.098523	-0.748047	-0.000732	0.535400	0.093651	0.007482	-0.020878	0.020187	-0.771112	-0.107388	-0.627253	153.990249	-76.336718	36.435284
11454		9.401864	0.735073	-2.119983	-0.115105	0.254745	-0.150827	-0.132961	0.000440	-0.102882	-0.742432	-0.005371	0.537109	0.094022	0.007288	-0.021205	0.019396	-0.771108	-0.107328	-0.627293	153.735549	-76.308729	36.620530
11455		9.397714	0.757889	-2.097190	-0.092453	0.248058	-0.157661	-0.125885	-0.002278	-0.106862	-0.745850	-0.007080	0.533691	0.093981	0.007515	-0.020976	0.018566	-0.771078	-0.107347	-0.627352	153.441183	-76.278623	36.848791
11456		9.454473	0.829068	-2.033301	-0.008226	0.208797	-0.108819	-0.126279	-0.007160	-0.113742	-0.739990	-0.004639	0.538818	0.094550	0.008224	-0.020335	0.017762	-0.771092	-0.107350	-0.627358	153.177341	-76.243367	37.047378
11457		9.458668	0.892429	-2.055011	-0.019014	0.157709	-0.093601	-0.129332	-0.006504	-0.122000	-0.748535	-0.005859	0.540283	0.094593	0.008853	-0.020553	0.016869	-0.771066	-0.107417	-0.627403	152.856359	-76.206623	37.301077
11458		9.471345	0.876287	-2.011371	0.021103	0.194936	-0.092533	-0.133451	-0.009993	-0.119740	-0.759033	-0.012207	0.537109	0.094720	0.008693	-0.020115	0.016030	-0.771090	-0.107416	-0.627396	152.589169	-76.167955	37.499813
11459		9.471944	0.890535	-1.956651	0.074308	0.204073	-0.102276	-0.137689	-0.011890	-0.124248	-0.745117	-0.010742	0.530518	0.094726	0.008833	-0.019567	0.015095	-0.771079	-0.107465	-0.627423	152.267637	-76.127250	37.749241
11460		9.453128	0.945404	-1.977925	0.058723	0.157424	-0.110143	-0.135149	-0.016287	-0.124786	-0.747559	-0.015381	0.535889	0.094539	0.009382	-0.019778	0.014227	-0.771095	-0.107479	-0.627422	151.987736	-76.087076	37.959543
11461		9.423672	0.960808	-2.010299	0.023163	0.147660	-0.130348	-0.136816	-0.023386	-0.126424	-0.742676	-0.019531	0.527100	0.094245	0.009535	-0.020099	0.013283	-0.771118	-0.107540	-0.627404	151.678004	-76.039381	38.197419
11462		9.385600	0.936604	-1.999516	0.021509	0.181075	-0.172588	-0.125686	-0.030148	-0.130957	-0.734375	-0.013428	0.532471	0.093865	0.009292	-0.019987	0.012410	-0.771174	-0.107609	-0.627342	151.405428	-75.989085	38.404632
11463		9.434079	0.959955	-1.970545	0.062798	0.185252	-0.129293	-0.111310	-0.037419	-0.133681	-0.739258	-0.009766	0.534424	0.094351	0.009526	-0.019693	0.011533	-0.771234	-0.107779	-0.627255	151.114807	-75.931778	38.637973
11464		9.435375	1.034338	-1.918293	0.128321	0.134546	-0.130672	-0.116610	-0.042216	-0.135969	-0.742188	-0.021973	0.524902	0.094365	0.010268	-0.019169	0.010698	-0.771338	-0.107881	-0.627125	150.871158	-75.873220	38.822197
11465		9.387386	1.090750	-1.974236	0.076477	0.079431	-0.158767	-0.114209	-0.053398	-0.138169	-0.742920	-0.016846	0.542969	0.093887	0.010831	-0.019723	0.009788	-0.771445	-0.108060	-0.626977	150.591994	-75.806149	39.042152
11466		9.444099	1.094395	-1.936721	0.126377	0.104819	-0.111522	-0.105808	-0.055083	-0.139165	-0.742920	-0.020996	0.535400	0.094454	0.010868	-0.019347	0.008965	-0.771570	-0.108220	-0.626808	150.353834	-75.741028	39.226639
11467		9.468533	1.168861	-1.963308	0.120850	0.047802	-0.073231	-0.112607	-0.061506	-0.133155	-0.748047	-0.030762	0.542480	0.094699	0.011615	-0.019611	0.008072	-0.771703	-0.108385	-0.626627	150.098849	-75.670886	39.422722
11468		9.495117	1.173565	-2.012589	0.081948	0.054519	-0.036425	-0.116444	-0.058565	-0.130778	-0.745605	-0.029053	0.534180	0.094965	0.011662	-0.020105	0.007225	-0.771841	-0.108490	-0.626449	149.873716	-75.605383	39.587700
11469		9.536145	1.267899	-2.072213	0.051136	-0.024237	0.027865	-0.117756	-0.060012	-0.128929	-0.743652	-0.032227	0.538818	0.095376	0.012605	-0.020701	0.006326	-0.771972	-0.108622	-0.626275	149.626333	-75.536794	39.772998
11470		9.500933	1.284925	-2.217107	-0.090213	-0.053059	0.027198	-0.116481	-0.058233	-0.129327	-0.744141	-0.028809	0.542725	0.095024	0.012775	-0.022151	0.005475	-0.772100	-0.108721	-0.626109	149.400838	-75.472389	39.937445
11471		9.418154	1.352105	-2.337539	-0.208428	-0.133890	-0.018173	-0.114362	-0.061337	-0.123810	-0.741699	-0.033691	0.540771	0.094197	0.013449	-0.023354	0.004604	-0.772235	-0.108844	-0.625927	149.170384	-75.404277	40.107364
11472		9.407230	1.377318	-2.428652	-0.291095	-0.159654	-0.005492	-0.097639	-0.058044	-0.117691	-0.736816	-0.027100	0.541748	0.094087	0.013706	-0.024266	0.003869	-0.772382	-0.108961	-0.625731	148.987977	-75.340997	40.239692
11473		9.438893	1.422032	-2.575496	-0.416789	-0.205094	0.063155	-0.084992	-0.050685	-0.110998	-0.736328	-0.034912	0.538330	0.094403	0.014157	-0.025737	0.003158	-0.772490	-0.109126	-0.625573	148.789618	-75.281599	40.393926
11474		9.445999	1.473933	-2.567345	-0.396113	-0.241483	0.075458	-0.071906	-0.037484	-0.107182	-0.746826	-0.033936	0.544189	0.094473	0.014679	-0.025661	0.002564	-0.772586	-0.109280	-0.625429	148.625014	-75.229844	40.523078
11475		9.488996	1.436248	-2.648490	-0.472078	-0.197164	0.129979	-0.057865	-0.022384	-0.095765	-0.729492	-0.031738	0.537598	0.094900	0.014309	-0.026478	0.002021	-0.772613	-0.109471	-0.625365	148.440899	-75.188584	40.678737
11476		9.489637	1.445246	-2.594500	-0.417851	-0.189008	0.120240	-0.042795	-0.004358	-0.086553	-0.732910	-0.040527	0.532471	0.094903	0.014406	-0.025946	0.001620	-0.772620	-0.109643	-0.625327	148.294626	-75.157960	40.806544
11477		9.510960	1.463443	-2.594324	-0.412332	-0.194769	0.143346	-0.016955	0.015082	-0.074128	-0.737793	-0.037598	0.539063	0.095113	0.014597	-0.025952	0.001323	-0.772541	-0.109878	-0.625385	148.132623	-75.141255	40.963629
11478		9.533390	1.539764	-2.591541	-0.394576	-0.259078	0.174789	-0.008366	0.032774	-0.060229	-0.744141	-0.032227	0.539795	0.095334	0.015368	-0.025932	0.001128	-0.772442	-0.110063	-0.625475	148.001093	-75.135202	41.094437
11479		9.468588	1.626866	-2.659888	-0.462737	-0.359507	0.138819	-0.008508	0.047286	-0.052275	-0.744385	-0.039063	0.541504	0.094684	0.016243	-0.026622	0.000950	-0.772273	-0.110239	-0.625652	147.847379	-75.140578	41.247955
11480		9.404270	1.713014	-2.727028	-0.529747	-0.460663	0.102884	-0.005107	0.059837	-0.042181	-0.731445	-0.033691	0.539795	0.094038	0.017110	-0.027299	0.000863	-0.772107	-0.110371	-0.625835	147.728722	-75.152797	41.370129
11481		9.390652	1.635408	-2.634239	-0.462665	-0.371673	0.058782	-0.000067	0.072397	-0.033635	-0.733887	-0.037842	0.540527	0.093900	0.016338	-0.026376	0.000790	-0.771870	-0.110501	-0.626104	147.584524	-75.175873	41.518797
11482		9.543013	1.605410	-2.534992	-0.348482	-0.301679	0.180319	0.007381	0.088001	-0.020896	-0.738037	-0.040039	0.535889	0.095421	0.016045	-0.025391	0.000812	-0.771654	-0.110597	-0.626352	147.483099	-75.202492	41.629649
11483		9.573504	1.553875	-2.364084	-0.195487	-0.222418	0.165674	0.003750	0.103642	-0.011714	-0.743652	-0.043701	0.538818	0.095724	0.015534	-0.023690	0.000840	-0.771332	-0.110655	-0.626739	147.343792	-75.247230	41.775491
11484		9.575831	1.442589	-2.224535	-0.088348	-0.094659	0.122572	-0.003751	0.115084	-0.003329	-0.741455	-0.035645	0.534668	0.095746	0.014424	-0.022301	0.000866	-0.771021	-0.110664	-0.627120	147.216952	-75.293058	41.904695
11485		9.476348	1.432829	-2.198798	-0.094994	-0.100346	0.019391	-0.003330	0.119063	0.006969	-0.743896	-0.041016	0.535156	0.094750	0.014331	-0.022045	0.000933	-0.770660	-0.110627	-0.627570	147.087806	-75.350848	42.035762
11486		9.441957	1.400618	-2.099179	-0.020511	-0.063620	-0.039543	-0.013500	0.120471	0.015884	-0.745605	-0.039307	0.530273	0.094406	0.014012	-0.021050	0.001001	-0.770341	-0.110523	-0.627979	146.987999	-75.406541	42.132021
11487		9.407299	1.360684	-2.130887	-0.075638	-0.037922	-0.071936	-0.022242	0.116767	0.014796	-0.740723	-0.041504	0.527832	0.094060	0.013611	-0.021365	0.001018	-0.769991	-0.110397	-0.628431	146.863329	-75.465553	42.247202
11488		9.342721	1.337976	-1.987346	0.037938	-0.008805	-0.167759	-0.023819	0.102563	0.009899	-0.748535	-0.043457	0.538574	0.093416	0.013382	-0.019923	0.001006	-0.769713	-0.110288	-0.628791	146.757299	-75.511623	42.342872
11489		9.377991	1.326337	-1.913588	0.104568	0.017064	-0.150572	-0.023358	0.093694	0.005487	-0.745605	-0.039795	0.528564	0.093771	0.013264	-0.019181	0.000978	-0.769430	-0.110195	-0.629154	146.641074	-75.556557	42.448614
11490		9.462997	1.323909	-1.809320	0.213561	0.047179	-0.090195	-0.025724	0.082201	0.006352	-0.741943	-0.040771	0.531494	0.094622	0.013240	-0.018134	0.000932	-0.769223	-0.110098	-0.629423	146.553457	-75.589831	42.524231
11491		9.558445	1.300033	-1.641084	0.382436	0.108666	-0.035722	-0.034753	0.071504	0.009993	-0.742920	-0.036377	0.529541	0.095578	0.013002	-0.016447	0.000862	-0.769012	-0.109951	-0.629707	146.465266	-75.625492	42.594246
11492		9.596563	1.278877	-1.591400	0.427937	0.141326	-0.011718	-0.057351	0.072835	0.008861	-0.741943	-0.044434	0.529053	0.095959	0.012788	-0.015953	0.000710	-0.768836	-0.109735	-0.629959	146.381185	-75.656246	42.647938
11493		9.492049	1.211448	-1.680808	0.303950	0.175810	-0.103495	-0.063395	0.062259	0.017366	-0.742920	-0.039063	0.532227	0.094914	0.012117	-0.016841	0.000548	-0.768658	-0.109469	-0.630223	146.301168	-75.689781	42.692565
11494		9.346525	1.114904	-1.792893	0.148036	0.229189	-0.234558	-0.069566	0.047093	0.012504	-0.757080	-0.047119	0.529297	0.093460	0.011149	-0.017955	0.000333	-0.768561	-0.109206	-0.630387	146.241145	-75.708951	42.713247
11495		9.315557	1.065564	-1.799543	0.123436	0.270701	-0.269896	-0.052329	0.034145	0.009627	-0.753418	-0.038086	0.532227	0.093152	0.010655	-0.018014	0.000173	-0.768468	-0.109006	-0.630536	146.187753	-75.726585	42.736927
11496		9.334675	1.085247	-1.774655	0.151578	0.257958	-0.253722	-0.036725	0.022552	0.000005	-0.745850	-0.039063	0.521973	0.093345	0.010849	-0.017759	0.000044	-0.768411	-0.108889	-0.630625	146.145120	-75.735264	42.759377
11497		9.378180	1.107069	-1.827752	0.109495	0.237319	-0.197687	-0.030625	0.017584	-0.006651	-0.743408	-0.041504	0.526367	0.093781	0.011065	-0.018287	-0.000093	-0.768361	-0.108820	-0.630698	146.094267	-75.739832	42.793259
11498		9.404888	1.168487	-1.847194	0.104327	0.179830	-0.159388	-0.031013	0.012262	-0.008685	-0.742676	-0.044189	0.536133	0.094048	0.011678	-0.018480	-0.000218	-0.768335	-0.108744	-0.630743	146.059025	-75.741858	42.811995
11499		9.424303	1.182475	-1.955429	0.004001	0.156148	-0.116552	-0.026566	0.007285	-0.013805	-0.746338	-0.032715	0.532471	0.094243	0.011816	-0.019559	-0.000368	-0.768312	-0.108714	-0.630775	146.010049	-75.739251	42.846343
11500		9.445564	1.254902	-2.007876	-0.030376	0.082705	-0.075272	-0.024004	0.009168	-0.007735	-0.744629	-0.039307	0.533203	0.094455	0.012543	-0.020085	-0.000454	-0.768341	-0.108649	-0.630752	146.008733	-75.734855	42.835334
11501		9.447196	1.368996	-2.135201	-0.135613	-0.044438	-0.031973	-0.033053	0.006927	-0.009187	-0.742432	-0.050537	0.531494	0.094472	0.013682	-0.021358	-0.000614	-0.768322	-0.108582	-0.630786	145.965361	-75.733518	42.860086
11502		9.412864	1.383517	-2.253003	-0.253516	-0.078680	-0.039168	-0.030118	0.007881	-0.007688	-0.745117	-0.052490	0.536377	0.094128	0.013828	-0.022536	-0.000768	-0.768342	-0.108518	-0.630773	145.939841	-75.726869	42.867781
11503		9.407343	1.335900	-2.285513	-0.295190	-0.036217	-0.044481	-0.024596	0.012089	-0.008403	-0.748291	-0.046387	0.528564	0.094073	0.013352	-0.022862	-0.000890	-0.768308	-0.108474	-0.630822	145.896289	-75.728177	42.897706
11504		9.479555	1.296016	-2.253861	-0.258971	0.020907	0.013503	-0.013802	0.021125	-0.006781	-0.745605	-0.036133	0.531250	0.094794	0.012955	-0.022550	-0.000997	-0.768275	-0.108471	-0.630862	145.850580	-75.727568	42.934451
11505		9.557273	1.244808	-2.189078	-0.193035	0.093075	0.068464	-0.004788	0.030456	-0.002098	-0.744141	-0.043213	0.532471	0.095570	0.012447	-0.021906	-0.001014	-0.768187	-0.108465	-0.630970	145.806727	-75.739553	42.976361
11506		9.572717	1.273584	-2.141696	-0.141299	0.072763	0.077739	0.005881	0.039801	0.001050	-0.751953	-0.034424	0.523682	0.095723	0.012737	-0.021436	-0.000932	-0.768115	-0.108457	-0.631060	145.799837	-75.754457	42.989107
11507		9.452177	1.365013	-2.197969	-0.205979	-0.045358	-0.015060	0.005085	0.042497	0.006811	-0.746094	-0.045654	0.531982	0.094517	0.013654	-0.021999	-0.000876	-0.767993	-0.108448	-0.631209	145.763049	-75.775002	43.029583
11508		9.354047	1.465957	-2.254824	-0.264863	-0.170282	-0.084774	0.006274	0.036656	0.008142	-0.754150	-0.041260	0.529785	0.093536	0.014664	-0.022565	-0.000771	-0.767906	-0.108416	-0.631321	145.760075	-75.794734	43.038368
11509		9.413624	1.394030	-2.210807	-0.226621	-0.085357	-0.045976	0.007040	0.041051	0.005606	-0.752441	-0.046631	0.528076	0.094131	0.013944	-0.022127	-0.000711	-0.767788	-0.108418	-0.631464	145.723886	-75.814230	43.079393
11510		9.461651	1.350606	-2.099780	-0.120933	-0.021191	-0.027955	0.007682	0.045754	0.004593	-0.745117	-0.044189	0.526611	0.094611	0.013509	-0.021019	-0.000640	-0.767664	-0.108422	-0.631613	145.687837	-75.835101	43.121398
11511		9.615504	1.247376	-2.025031	-0.042210	0.114000	0.091849	0.018945	0.052178	0.008414	-0.747803	-0.038818	0.526123	0.096149	0.012480	-0.020274	-0.000521	-0.767513	-0.108451	-0.631792	145.649169	-75.860775	43.171999
11512		9.577579	1.275311	-1.985647	-0.009827	0.083274	0.050993	0.019506	0.056349	0.012304	-0.755615	-0.037842	0.522705	0.095769	0.012761	-0.019882	-0.000363	-0.767378	-0.108455	-0.631956	145.633498	-75.887705	43.200632
11513		9.514502	1.235898	-2.056351	-0.100870	0.099089	-0.001379	0.023843	0.057934	0.015319	-0.749023	-0.030029	0.529541	0.095138	0.012369	-0.020590	-0.000199	-0.767212	-0.108473	-0.632155	145.602974	-75.918327	43.245724
11514		9.332337	1.225661	-2.080309	-0.161785	0.070848	-0.174676	0.040745	0.053540	0.015376	-0.750000	-0.035889	0.525391	0.093317	0.012268	-0.020826	0.000119	-0.767078	-0.108505	-0.632311	145.630750	-75.951408	43.246340
11515		9.361414	1.282266	-2.042563	-0.114260	0.022759	-0.146315	0.053020	0.049020	0.012082	-0.754639	-0.037109	0.526855	0.093608	0.012834	-0.020445	0.000380	-0.766939	-0.108627	-0.632459	145.622404	-75.976830	43.285841
11516		9.444838	1.277295	-1.942371	-0.005639	0.051485	-0.086096	0.058627	0.045294	0.011535	-0.750732	-0.039551	0.528320	0.094443	0.012784	-0.019441	0.000716	-0.766832	-0.108745	-0.632568	145.652433	-76.001653	43.292757
11517		9.497901	1.281684	-1.797796	0.141692	0.073493	-0.062845	0.063480	0.045638	0.008458	-0.752930	-0.042480	0.523926	0.094974	0.012827	-0.017996	0.001005	-0.766701	-0.108915	-0.632697	145.647618	-76.024340	43.334815
11518		9.538893	1.369765	-1.825917	0.134113	-0.012147	-0.005416	0.050861	0.044002	0.013086	-0.745117	-0.043701	0.527832	0.095384	0.013709	-0.018277	0.001259	-0.766599	-0.109023	-0.632802	145.656949	-76.045003	43.355055
11519		9.445511	1.338541	-1.853802	0.082464	-0.004141	-0.094708	0.045373	0.045221	0.023763	-0.751465	-0.041260	0.531006	0.094449	0.013401	-0.018556	0.001527	-0.766477	-0.109076	-0.632940	145.671306	-76.072435	43.366653
11520		9.422804	1.266682	-1.905939	0.014697	0.051792	-0.116119	0.039917	0.039346	0.031230	-0.755859	-0.037109	0.530762	0.094222	0.012685	-0.019075	0.001763	-0.766434	-0.109094	-0.632989	145.719239	-76.089546	43.339314
11521		9.400972	1.314119	-1.955959	-0.031919	-0.009217	-0.120946	0.040345	0.037574	0.030041	-0.757080	-0.039307	0.523193	0.094004	0.013159	-0.019575	0.002026	-0.766340	-0.109107	-0.633099	145.752811	-76.115316	43.328126
11522		9.464726	1.289522	-1.932901	-0.004212	0.024033	-0.066950	0.036379	0.032858	0.034120	-0.751465	-0.037109	0.519775	0.094642	0.012915	-0.019342	0.002306	-0.766276	-0.109083	-0.633180	145.812200	-76.140000	43.289500
11523		9.537409	1.244798	-1.899303	0.031254	0.080346	-0.009034	0.032117	0.038892	0.029392	-0.750732	-0.034180	0.523438	0.095369	0.012465	-0.019010	0.002536	-0.766178	-0.109073	-0.633300	145.838286	-76.166195	43.281171
11524		9.554993	1.262661	-1.983070	-0.046357	0.049077	0.027039	0.024893	0.041786	0.034827	-0.751953	-0.038330	0.520020	0.095544	0.012646	-0.019849	0.002792	-0.766080	-0.109000	-0.633429	145.884114	-76.197438	43.250030
11525		9.475750	1.320315	-2.020621	-0.089466	-0.029623	-0.034799	0.013074	0.037453	0.033696	-0.753418	-0.030762	0.522705	0.094751	0.013220	-0.020223	0.002962	-0.765988	-0.108913	-0.633554	145.909693	-76.224359	43.231004
11526		9.367736	1.320170	-2.146414	-0.232610	-0.069863	-0.114986	0.002263	0.034697	0.038645	-0.755371	-0.033936	0.529785	0.093671	0.013220	-0.021480	0.003145	-0.765913	-0.108753	-0.633672	145.960161	-76.254152	43.182145
11527		9.373536	1.366696	-2.164235	-0.243340	-0.120991	-0.099753	0.001027	0.032918	0.038989	-0.757813	-0.031250	0.526123	0.093729	0.013685	-0.021658	0.003284	-0.765839	-0.108608	-0.633786	145.995341	-76.280643	43.146149
11528		9.447164	1.320762	-2.075706	-0.153585	-0.056712	-0.051793	0.000608	0.034692	0.040167	-0.747803	-0.031494	0.526855	0.094465	0.013227	-0.020773	0.003484	-0.765802	-0.108439	-0.633859	146.071163	-76.306368	43.072629
11529		9.645051	1.233689	-2.000183	-0.064000	0.066563	0.114105	0.002777	0.046813	0.042330	-0.752441	-0.035400	0.523193	0.096443	0.012358	-0.020024	0.003648	-0.765685	-0.108286	-0.634024	146.096192	-76.340519	43.048150
11530		9.637102	1.189737	-2.006854	-0.081533	0.101779	0.101931	0.005690	0.054867	0.047033	-0.751709	-0.034912	0.518311	0.096363	0.011921	-0.020095	0.003867	-0.765602	-0.108112	-0.634153	146.157760	-76.373974	42.989997
11531		9.490583	1.218618	-2.096795	-0.193657	0.031894	-0.019106	0.003136	0.060077	0.044151	-0.760742	-0.031738	0.519531	0.094897	0.012207	-0.020996	0.004046	-0.765445	-0.107953	-0.634369	146.169609	-76.414977	42.979313
11532		9.388492	1.085301	-2.081522	-0.223881	0.141744	-0.138796	0.018555	0.053658	0.051048	-0.761230	-0.025635	0.515869	0.093877	0.010879	-0.020839	0.004331	-0.765294	-0.107800	-0.634575	146.216913	-76.459949	42.942445
11533		9.426960	1.057585	-1.979413	-0.126625	0.183370	-0.124835	0.042267	0.054353	0.053516	-0.753662	-0.037598	0.522461	0.094261	0.010605	-0.019818	0.004686	-0.765159	-0.107729	-0.634747	146.277556	-76.501258	42.904647
11534		9.559007	1.058897	-1.899700	-0.030509	0.207246	-0.011623	0.054192	0.060014	0.046368	-0.756592	-0.025879	0.518311	0.095582	0.010616	-0.019023	0.005110	-0.764992	-0.107704	-0.634949	146.336702	-76.547559	42.877707
11535		9.583745	1.062368	-1.839956	0.028031	0.210387	0.001445	0.058618	0.062942	0.041103	-0.757568	-0.029053	0.522461	0.095829	0.010649	-0.018427	0.005493	-0.764822	-0.107731	-0.635146	146.371054	-76.589060	42.876596
11536		9.518159	1.089231	-1.888067	-0.028641	0.159566	-0.049476	0.058356	0.057299	0.037564	-0.760498	-0.023682	0.525391	0.095174	0.010916	-0.018905	0.005948	-0.764686	-0.107740	-0.635304	146.448296	-76.630370	42.836897
11537		9.408250	1.096139	-1.882319	-0.043808	0.131191	-0.156566	0.059239	0.045813	0.035399	-0.766113	-0.031250	0.520752	0.094076	0.010984	-0.018841	0.006306	-0.764567	-0.107792	-0.635436	146.494943	-76.661927	42.823556
11538		9.328962	1.032243	-1.814050	-0.003430	0.185264	-0.254889	0.060131	0.027218	0.030058	-0.760254	-0.029785	0.523926	0.093286	0.010342	-0.018150	0.006721	-0.764516	-0.107848	-0.635483	146.591641	-76.686273	42.765167
11539		9.420624	0.943578	-1.541870	0.260057	0.322676	-0.229154	0.059302	0.017383	0.022661	-0.758057	-0.027100	0.517822	0.094204	0.009451	-0.015424	0.007025	-0.764480	-0.107950	-0.635506	146.650990	-76.700243	42.738845
11540		9.511320	0.856719	-1.325161	0.471227	0.450491	-0.193424	0.052626	0.004824	0.015627	-0.762939	-0.025879	0.517090	0.095112	0.008578	-0.013252	0.007310	-0.764499	-0.108044	-0.635464	146.731981	-76.705962	42.688853
11541		9.526492	0.944215	-1.281261	0.533000	0.372814	-0.176083	0.030326	-0.015717	0.001728	-0.755615	-0.024414	0.525146	0.095266	0.009445	-0.012804	0.007418	-0.764557	-0.108135	-0.635377	146.776486	-76.697489	42.660733
11542		9.399944	0.927375	-1.381157	0.415424	0.353602	-0.282265	0.009881	-0.039053	-0.005057	-0.749512	-0.015869	0.523926	0.094002	0.009272	-0.013793	0.007499	-0.764705	-0.108157	-0.635194	146.867967	-76.679063	42.577839
11543		9.312898	0.880415	-1.461919	0.318906	0.375312	-0.357538	0.001434	-0.059229	-0.008831	-0.752197	-0.016602	0.528809	0.093134	0.008800	-0.014592	0.007440	-0.764897	-0.108198	-0.634956	146.932001	-76.646412	42.512666
11544		9.338537	0.759693	-1.328390	0.442078	0.515769	-0.374013	0.008848	-0.077522	-0.018729	-0.758057	-0.023193	0.526611	0.093391	0.007589	-0.013247	0.007596	-0.765270	-0.108233	-0.634500	147.149530	-76.598893	42.311236
11545		9.497099	0.638913	-1.252813	0.529247	0.673392	-0.250310	0.023463	-0.090811	-0.034251	-0.759033	-0.034912	0.522949	0.094978	0.006374	-0.012484	0.007526	-0.765548	-0.108442	-0.634129	147.215895	-76.543038	42.256745
11546		9.482949	0.853927	-1.412283	0.419569	0.442401	-0.206528	0.016518	-0.109025	-0.044801	-0.757080	-0.026367	0.540527	0.094839	0.008519	-0.014070	0.007400	-0.765888	-0.108667	-0.633682	147.289406	-76.474727	42.192033
11547		9.306191	1.073161	-1.658079	0.199875	0.170320	-0.302844	-0.007135	-0.124749	-0.050238	-0.758301	-0.033203	0.527344	0.093075	0.010708	-0.016523	0.007144	-0.766265	-0.108841	-0.633198	147.348670	-76.397512	42.126770
11548		9.231702	0.992514	-1.888843	-0.036685	0.210566	-0.340020	-0.012376	-0.143789	-0.058937	-0.752197	-0.021973	0.533447	0.092333	0.009897	-0.018823	0.006853	-0.766775	-0.109055	-0.632547	147.449102	-76.297151	42.021061
11549		9.361099	0.997206	-1.959011	-0.068334	0.224118	-0.199810	-0.015672	-0.143782	-0.055905	-0.747559	-0.026611	0.522705	0.093628	0.009944	-0.019524	0.006535	-0.767210	-0.109225	-0.631993	147.514656	-76.208850	41.944229
11550		9.548314	1.111903	-2.094413	-0.131837	0.127797	0.023951	-0.018340	-0.138256	-0.057291	-0.757324	-0.019531	0.523682	0.095501	0.011090	-0.020879	0.006320	-0.767675	-0.109338	-0.631412	147.635543	-76.124640	41.815856
11551		9.573898	1.108981	-2.205867	-0.223735	0.126608	0.071093	-0.020647	-0.126576	-0.060052	-0.750000	-0.025146	0.526367	0.095756	0.011059	-0.021999	0.005980	-0.768053	-0.109507	-0.630926	147.667275	-76.043337	41.770930
11552		9.506641	1.257281	-2.345253	-0.334442	-0.044838	0.053584	-0.024272	-0.124291	-0.060734	-0.751221	-0.025146	0.528809	0.095085	0.012541	-0.023395	0.005793	-0.768387	-0.109573	-0.630510	147.745635	-75.981973	41.683292
11553		9.390517	1.275315	-2.408072	-0.402590	-0.082142	-0.043439	-0.021794	-0.113623	-0.058273	-0.747803	-0.029785	0.531006	0.093923	0.012723	-0.024029	0.005462	-0.768724	-0.109731	-0.630074	147.763599	-75.907596	41.651931
11554		9.527426	1.267981	-2.334286	-0.297444	-0.036688	0.073601	-0.014851	-0.103838	-0.042652	-0.750488	-0.022705	0.527100	0.095289	0.012658	-0.023294	0.005296	-0.769050	-0.109806	-0.629665	147.841873	-75.847737	41.566771
11555		9.546985	1.282594	-2.343530	-0.291720	-0.042625	0.096661	-0.021478	-0.086140	-0.050106	-0.746094	-0.033691	0.538818	0.095483	0.012800	-0.023396	0.005008	-0.769304	-0.109932	-0.629334	147.841985	-75.789195	41.554025
11556		9.498305	1.268934	-2.404655	-0.354115	-0.041321	0.060673	-0.020674	-0.075477	-0.046097	-0.747070	-0.033691	0.537598	0.094995	0.012665	-0.024012	0.004825	-0.769556	-0.110011	-0.629014	147.881723	-75.739058	41.506352
11557		9.362270	1.274874	-2.407775	-0.374793	-0.063653	-0.069472	-0.013478	-0.071273	-0.048380	-0.740234	-0.035400	0.533447	0.093634	0.012724	-0.024045	0.004582	-0.769764	-0.110156	-0.628735	147.871913	-75.688260	41.508600
11558		9.374829	1.308336	-2.370498	-0.322563	-0.082523	-0.060377	-0.006262	-0.069229	-0.038990	-0.750244	-0.030518	0.537842	0.093759	0.013064	-0.023673	0.004367	-0.770031	-0.110296	-0.628386	147.896473	-75.630543	41.478471
11559		9.496707	1.339142	-2.259576	-0.181217	-0.071657	0.038630	-0.007639	-0.063585	-0.033924	-0.746094	-0.038574	0.532715	0.094977	0.013374	-0.022566	0.004195	-0.770223	-0.110403	-0.628132	147.908175	-75.587793	41.461941
11560		9.540775	1.301631	-2.212352	-0.128383	-0.016411	0.066501	-0.019143	-0.054667	-0.033160	-0.747314	-0.034180	0.533447	0.095416	0.012998	-0.022099	0.003983	-0.770395	-0.110467	-0.627911	147.907042	-75.548569	41.451262
11561		9.494856	1.345582	-2.215219	-0.127438	-0.062590	0.028548	-0.035335	-0.053504	-0.034017	-0.743896	-0.037109	0.539795	0.094957	0.013436	-0.022129	0.003710	-0.770556	-0.110487	-0.627712	147.890645	-75.510673	41.447341
11562		9.456053	1.310622	-2.262805	-0.181877	-0.036656	-0.003481	-0.048832	-0.050753	-0.030335	-0.744873	-0.038818	0.545654	0.094568	0.013086	-0.022607	0.003383	-0.770737	-0.110451	-0.627498	147.876877	-75.470620	41.431730
11563		9.463326	1.234272	-2.257545	-0.184805	0.044175	-0.007670	-0.047906	-0.048853	-0.022743	-0.743896	-0.030273	0.535645	0.094640	0.012327	-0.022555	0.003099	-0.770889	-0.110388	-0.627323	147.868896	-75.438380	41.411652
11564		9.534128	1.196608	-2.231251	-0.146934	0.100029	0.050291	-0.043816	-0.038181	-0.021794	-0.746338	-0.036865	0.540527	0.095347	0.011951	-0.022297	0.002868	-0.771077	-0.110334	-0.627103	147.890339	-75.402979	41.367285
11565		9.596089	1.178598	-2.214507	-0.119389	0.133472	0.104268	-0.033078	-0.029653	-0.015329	-0.744873	-0.030518	0.529053	0.095965	0.011775	-0.022133	0.002675	-0.771174	-0.110289	-0.626993	147.882278	-75.382251	41.356070
11566		9.425045	1.262168	-2.253748	-0.173154	0.019131	-0.041629	-0.025605	-0.026896	-0.017278	-0.740967	-0.023926	0.537109	0.094255	0.012611	-0.022526	0.002562	-0.771249	-0.110236	-0.626910	147.890300	-75.368954	41.334460
11567		9.297933	1.245977	-2.296060	-0.238636	0.010490	-0.157697	-0.020351	-0.028330	-0.021567	-0.745850	-0.035156	0.538330	0.092984	0.012447	-0.022949	0.002399	-0.771338	-0.110254	-0.626798	147.876416	-75.347014	41.336816
11568		9.307944	1.226951	-2.233748	-0.175813	0.039401	-0.163833	-0.005926	-0.029175	-0.017672	-0.748291	-0.039551	0.541748	0.093084	0.012261	-0.022324	0.002451	-0.771472	-0.110247	-0.626634	147.950123	-75.330323	41.266958
11569		9.512802	1.194812	-2.079528	0.009169	0.128938	-0.003065	0.000581	-0.022556	-0.015723	-0.746094	-0.035645	0.542969	0.095131	0.011941	-0.020785	0.002392	-0.771546	-0.110309	-0.626533	147.952676	-75.312996	41.264788
11570		9.502739	1.156705	-2.092724	-0.008937	0.164658	-0.015121	-0.003798	-0.017052	-0.015507	-0.744873	-0.030518	0.540039	0.095030	0.011559	-0.020919	0.002323	-0.771638	-0.110371	-0.626408	147.960193	-75.292338	41.256854
11571		9.324447	1.251114	-2.218437	-0.145833	0.026870	-0.147798	-0.007572	-0.029184	-0.016132	-0.750977	-0.029785	0.536133	0.093249	0.012503	-0.022171	0.002227	-0.771733	-0.110408	-0.626286	147.964961	-75.271624	41.247548
11572		9.219606	1.244199	-2.261513	-0.205950	0.009164	-0.240796	-0.010388	-0.030458	-0.019145	-0.752930	-0.035156	0.535645	0.092201	0.012432	-0.022602	0.002267	-0.771822	-0.110386	-0.626179	148.018436	-75.261756	41.195591
11573		9.327598	1.124614	-2.193798	-0.137543	0.155860	-0.167047	0.009288	-0.032727	-0.019550	-0.742432	-0.035645	0.544922	0.093281	0.011238	-0.021922	0.002224	-0.771925	-0.110490	-0.626034	148.030811	-75.238367	41.188473
11574		9.541800	1.072508	-2.030102	0.055754	0.267041	-0.002330	0.006437	-0.026902	-0.019351	-0.742920	-0.029541	0.543213	0.095422	0.010717	-0.020288	0.002226	-0.772012	-0.110566	-0.625914	148.053843	-75.221160	41.172036
11575		9.537351	1.084255	-2.010465	0.078463	0.260207	-0.009382	0.003078	-0.024741	-0.027940	-0.744629	-0.033691	0.546143	0.095378	0.010830	-0.020093	0.002138	-0.772085	-0.110683	-0.625803	148.038016	-75.199132	41.190414
11576		9.364068	1.169188	-2.104180	-0.025184	0.136181	-0.145156	-0.005940	-0.034097	-0.032562	-0.742188	-0.033203	0.537598	0.093646	0.011676	-0.021026	0.002134	-0.772268	-0.110769	-0.625562	148.098163	-75.166979	41.137356
11577		9.262503	1.153872	-2.170227	-0.107655	0.128415	-0.231081	-0.008293	-0.045593	-0.031684	-0.746826	-0.033691	0.540527	0.092632	0.011523	-0.021682	0.001980	-0.772405	-0.110864	-0.625377	148.093212	-75.133650	41.137804
11578		9.394993	1.164185	-2.047807	0.042008	0.159894	-0.128298	-0.008409	-0.045279	-0.030163	-0.740234	-0.036621	0.542236	0.093956	0.011627	-0.020457	0.001920	-0.772539	-0.110904	-0.625204	148.124302	-75.108681	41.105338
11579		9.545877	1.126451	-2.036172	0.079940	0.227401	0.009765	-0.005889	-0.042544	-0.027493	-0.735107	-0.035645	0.533447	0.095465	0.011251	-0.020342	0.001790	-0.772668	-0.110990	-0.625029	148.124998	-75.078155	41.101402
11580		9.470290	1.171454	-2.124144	-0.007307	0.161682	-0.038001	-0.011653	-0.043432	-0.040279	-0.744385	-0.028320	0.538818	0.094710	0.011694	-0.021222	0.001611	-0.772817	-0.111068	-0.624832	148.121105	-75.042952	41.097387
11581		9.320151	1.146567	-2.167329	-0.078348	0.159089	-0.177040	-0.000419	-0.050859	-0.041449	-0.742432	-0.033203	0.544434	0.093209	0.011446	-0.021650	0.001455	-0.772965	-0.111225	-0.624621	148.109022	-75.004153	41.109928
11582		9.314796	1.100029	-2.151299	-0.066375	0.206922	-0.192067	0.010276	-0.056199	-0.039908	-0.739990	-0.034668	0.545898	0.093156	0.010983	-0.021486	0.001523	-0.773148	-0.111345	-0.624374	148.183306	-74.973405	41.051432
11583		9.413597	1.122159	-2.094734	0.016857	0.214574	-0.106162	0.017427	-0.059584	-0.040521	-0.753418	-0.040039	0.546387	0.094144	0.011204	-0.020918	0.001435	-0.773323	-0.111554	-0.624120	148.193192	-74.930707	41.051894
11584		9.409780	1.186778	-2.154106	-0.023742	0.146493	-0.087948	0.013439	-0.062127	-0.048086	-0.738525	-0.036621	0.532959	0.094107	0.011847	-0.021511	0.001365	-0.773511	-0.111782	-0.623846	148.211127	-74.885877	41.047382
11585		9.282838	1.223354	-2.275103	-0.153096	0.077568	-0.178669	0.011590	-0.067262	-0.055005	-0.740479	-0.032471	0.537842	0.092839	0.012209	-0.022719	0.001205	-0.773702	-0.112029	-0.623565	148.200166	-74.835073	41.065984
11586		9.368242	1.216845	-2.208940	-0.069168	0.111362	-0.111817	0.015878	-0.072440	-0.053724	-0.733643	-0.039307	0.541504	0.093694	0.012145	-0.022054	0.001134	-0.773847	-0.112182	-0.623358	148.212587	-74.801066	41.060743
11587		9.481808	1.209860	-2.111243	0.052735	0.157477	-0.025031	0.009960	-0.067275	-0.053472	-0.742920	-0.037109	0.539307	0.094828	0.012074	-0.021080	0.000973	-0.774038	-0.112418	-0.623078	148.203548	-74.750840	41.076424
11588		9.550158	1.235048	-2.141828	0.046508	0.145365	0.051135	-0.000897	-0.062153	-0.048569	-0.740967	-0.026855	0.545166	0.095511	0.012327	-0.021389	0.000798	-0.774199	-0.112551	-0.622854	148.196371	-74.710518	41.080641
11589		9.371189	1.270992	-2.216530	-0.049073	0.074862	-0.099831	-0.013752	-0.068128	-0.055651	-0.735352	-0.032471	0.540527	0.093723	0.012682	-0.022134	0.000538	-0.774391	-0.112722	-0.622585	148.170941	-74.659252	41.099239
11590		9.290634	1.207508	-2.286302	-0.136806	0.114368	-0.170627	-0.007132	-0.069416	-0.053567	-0.736328	-0.040283	0.548340	0.092917	0.012049	-0.022831	0.000568	-0.774604	-0.112817	-0.622302	148.249628	-74.623448	41.031300
11591		9.443263	1.171721	-2.223481	-0.045974	0.190666	-0.042655	0.003339	-0.066487	-0.050701	-0.742188	-0.037354	0.545166	0.094443	0.011694	-0.022203	0.000392	-0.774794	-0.113021	-0.622029	148.241386	-74.574577	41.042347
11592		9.491646	1.186012	-2.198742	-0.003688	0.193418	0.000315	0.003522	-0.060014	-0.050540	-0.732178	-0.032959	0.546387	0.094926	0.011837	-0.021959	0.000271	-0.774977	-0.113207	-0.621767	148.249673	-74.530416	41.039873
11593		9.384866	1.301024	-2.241798	-0.040897	0.062600	-0.076752	-0.006392	-0.065030	-0.056134	-0.736084	-0.031738	0.546875	0.093860	0.012983	-0.022388	0.000041	-0.775159	-0.113402	-0.621505	148.224880	-74.480624	41.062324
11594		9.228581	1.338442	-2.393758	-0.204165	-0.020034	-0.187402	-0.010596	-0.074574	-0.058952	-0.724609	-0.036865	0.552246	0.092299	0.013356	-0.023904	0.000002	-0.775427	-0.113534	-0.621147	148.299007	-74.431120	40.996378
11595		9.241805	1.253564	-2.359188	-0.176631	0.076516	-0.194419	-0.002442	-0.075522	-0.056908	-0.727539	-0.044678	0.552490	0.092431	0.012509	-0.023557	-0.000220	-0.775640	-0.113743	-0.620842	148.286957	-74.376021	41.008057
11596		9.441476	1.237728	-2.244664	-0.016691	0.150465	-0.030610	-0.007669	-0.074117	-0.052586	-0.732422	-0.035400	0.553223	0.094426	0.012352	-0.022412	-0.000438	-0.776018	-0.113953	-0.620331	148.340983	-74.296717	40.954195
11597		9.460973	1.313216	-2.251242	0.000699	0.086171	0.000325	-0.011080	-0.071971	-0.061168	-0.729980	-0.033203	0.553467	0.094622	0.013102	-0.022479	-0.000705	-0.776219	-0.114153	-0.620043	148.313132	-74.241905	40.977159
11598		9.306177	1.298870	-2.272950	-0.044255	0.073598	-0.145686	-0.019577	-0.076355	-0.065255	-0.736084	-0.038818	0.556885	0.093075	0.012956	-0.022695	-0.000796	-0.776545	-0.114318	-0.619604	148.389078	-74.179019	40.907954
11599		9.344510	1.335016	-2.259511	-0.010497	0.054599	-0.106790	-0.023858	-0.079326	-0.059935	-0.729736	-0.045166	0.553955	0.093458	0.013319	-0.022560	-0.001112	-0.776770	-0.114473	-0.619293	148.364440	-74.120964	40.920076
11600		9.453086	1.280551	-2.196621	0.072132	0.142600	-0.024927	-0.024412	-0.077763	-0.052309	-0.724854	-0.036865	0.543457	0.094543	0.012778	-0.021931	-0.001350	-0.777070	-0.114624	-0.618888	148.391508	-74.055529	40.886602
11601		9.457592	1.267044	-2.247957	0.027885	0.156042	-0.010666	-0.026558	-0.075181	-0.052949	-0.731934	-0.036377	0.548096	0.094588	0.012642	-0.022446	-0.001652	-0.777286	-0.114743	-0.618594	148.373138	-74.001528	40.890612
11602		9.268270	1.314151	-2.408830	-0.151544	0.057017	-0.148110	-0.024296	-0.084334	-0.060478	-0.723633	-0.038574	0.553467	0.092697	0.013111	-0.024051	-0.001834	-0.777516	-0.114773	-0.618298	148.407818	-73.956524	40.843886
11603		9.198916	1.289769	-2.413564	-0.167646	0.075008	-0.217109	-0.009582	-0.085176	-0.064697	-0.726807	-0.045654	0.549072	0.092004	0.012867	-0.024097	-0.002111	-0.777756	-0.114990	-0.617955	148.389949	-73.894212	40.857572
11604		9.380303	1.255630	-2.322424	-0.038867	0.160060	-0.069320	0.004146	-0.082687	-0.060083	-0.722900	-0.036377	0.550293	0.093816	0.012529	-0.023185	-0.002283	-0.778044	-0.115191	-0.617554	148.422372	-73.830596	40.828262
11605		9.510578	1.322247	-2.336113	-0.005337	0.123598	0.068686	0.003395	-0.079984	-0.054310	-0.732666	-0.034424	0.555176	0.095119	0.013197	-0.023323	-0.002474	-0.778274	-0.115408	-0.617223	148.424218	-73.773910	40.829188
11606		9.355410	1.357609	-2.433141	-0.116535	0.049281	-0.052003	-0.003319	-0.077889	-0.059760	-0.724609	-0.045166	0.554688	0.093568	0.013548	-0.024295	-0.002465	-0.778531	-0.115535	-0.616875	148.505203	-73.728234	40.759987
11607		9.184222	1.372232	-2.496822	-0.204193	0.001616	-0.198876	0.001337	-0.084497	-0.058196	-0.721191	-0.036133	0.553467	0.091857	0.013696	-0.024929	-0.002677	-0.778772	-0.115760	-0.616528	148.504243	-73.668248	40.762716
11608		9.302181	1.357481	-2.424278	-0.102314	0.052364	-0.105101	-0.000287	-0.084520	-0.056645	-0.726807	-0.039795	0.553223	0.093036	0.013548	-0.024203	-0.002792	-0.779077	-0.115927	-0.616111	148.563071	-73.606887	40.708775
11609		9.458923	1.314038	-2.387253	-0.033415	0.135121	0.029950	-0.004506	-0.080202	-0.054512	-0.721191	-0.044678	0.552002	0.094602	0.013114	-0.023835	-0.003012	-0.779306	-0.116119	-0.615783	148.560636	-73.550090	40.709600
11610		9.308969	1.398806	-2.450316	-0.103937	0.021463	-0.086108	-0.018529	-0.080732	-0.064363	-0.725098	-0.037598	0.561523	0.093104	0.013956	-0.024467	-0.003260	-0.779538	-0.116232	-0.615468	148.564125	-73.496608	40.695649
11611		9.233268	1.384598	-2.486574	-0.150570	0.023597	-0.151934	-0.016675	-0.082372	-0.059168	-0.721191	-0.039551	0.563232	0.092347	0.013817	-0.024829	-0.003543	-0.779771	-0.116405	-0.615138	148.549387	-73.437395	40.702067
11612		9.310659	1.340604	-2.434051	-0.080115	0.091902	-0.096962	-0.016663	-0.082371	-0.059180	-0.725098	-0.044434	0.563232	0.093121	0.013376	-0.024303	-0.003595	-0.780116	-0.116578	-0.614668	148.638434	-73.372536	40.623751
11613		9.428281	1.386369	-2.360295	0.031397	0.086301	0.004494	-0.019253	-0.078554	-0.053688	-0.720215	-0.047607	0.553711	0.094296	0.013836	-0.023567	-0.003867	-0.780340	-0.116722	-0.614354	148.627719	-73.316794	40.624521
11614		9.368251	1.392598	-2.429487	-0.039402	0.065975	-0.035165	-0.028713	-0.078606	-0.058716	-0.726563	-0.043701	0.560791	0.093696	0.013895	-0.024260	-0.004175	-0.780588	-0.116832	-0.614016	148.621516	-73.257862	40.615213
11615		9.248484	1.357453	-2.462859	-0.097149	0.080272	-0.146927	-0.026961	-0.079411	-0.056910	-0.710205	-0.046875	0.560059	0.092498	0.013545	-0.024594	-0.004489	-0.780813	-0.116965	-0.613702	148.602135	-73.200727	40.620428
11616		9.278982	1.302099	-2.385528	-0.017243	0.156258	-0.145164	-0.016495	-0.076413	-0.054130	-0.720703	-0.045898	0.562012	0.092802	0.012994	-0.023821	-0.004693	-0.781097	-0.117102	-0.613313	148.632763	-73.139659	40.584981
11617		9.403419	1.328900	-2.356287	0.049673	0.164160	-0.029389	-0.010284	-0.075361	-0.055827	-0.717041	-0.054443	0.561279	0.094047	0.013262	-0.023528	-0.004935	-0.781310	-0.117282	-0.613005	148.620894	-73.084792	40.592359
11618		9.258159	1.453916	-2.461480	-0.052933	0.008389	-0.123344	-0.028459	-0.086536	-0.058618	-0.723145	-0.047607	0.559814	0.092596	0.014509	-0.024577	-0.005299	-0.781595	-0.117418	-0.612612	148.610144	-73.015730	40.585232
11619		9.135467	1.529940	-2.569600	-0.162738	-0.095977	-0.202036	-0.028347	-0.093624	-0.061888	-0.719971	-0.052246	0.557129	0.091371	0.015267	-0.025655	-0.005642	-0.781861	-0.117566	-0.612242	148.596165	-72.950073	40.583979
11620		9.276606	1.365516	-2.404832	0.004193	0.119990	-0.133387	-0.018748	-0.093866	-0.058437	-0.725098	-0.044922	0.562256	0.092781	0.013626	-0.024006	-0.005955	-0.782089	-0.117669	-0.611928	148.582974	-72.894046	40.580561
11621		9.502033	1.405233	-2.394803	0.079197	0.132949	0.085516	-0.026557	-0.088176	-0.053453	-0.714600	-0.044922	0.562744	0.095035	0.014024	-0.023908	-0.006261	-0.782341	-0.117788	-0.611579	148.578088	-72.833621	40.570855
11622		9.389186	1.460920	-2.492709	-0.021998	0.048354	0.010849	-0.039177	-0.088620	-0.056842	-0.720459	-0.040039	0.567627	0.093907	0.014578	-0.024888	-0.006483	-0.782603	-0.117826	-0.611234	148.610522	-72.780955	40.523998
11623		9.221272	1.405725	-2.578079	-0.143747	0.065758	-0.136458	-0.032310	-0.090466	-0.057913	-0.720459	-0.046143	0.562988	0.092228	0.014026	-0.025741	-0.006826	-0.782859	-0.117946	-0.610879	148.597609	-72.718126	40.519297
11624		9.277360	1.351425	-2.525813	-0.081911	0.139314	-0.104477	-0.016494	-0.090167	-0.051261	-0.719727	-0.053955	0.570557	0.092788	0.013488	-0.025217	-0.006865	-0.783136	-0.118034	-0.610507	148.674623	-72.668866	40.446890
11625		9.330361	1.407797	-2.547714	-0.072871	0.098094	-0.039590	-0.012120	-0.088520	-0.048339	-0.711426	-0.045654	0.564941	0.093318	0.014054	-0.025437	-0.007098	-0.783393	-0.118178	-0.610147	148.686473	-72.609902	40.428447
11626		9.226523	1.510613	-2.557567	-0.078025	-0.017620	-0.120143	-0.017254	-0.093195	-0.057050	-0.720459	-0.043701	0.568115	0.092281	0.015078	-0.025534	-0.007315	-0.783706	-0.118336	-0.609711	148.720359	-72.542131	40.390490
11627		9.140062	1.515120	-2.603914	-0.132890	-0.038112	-0.189924	-0.011448	-0.097673	-0.054382	-0.716309	-0.046875	0.562744	0.091417	0.015125	-0.025995	-0.007568	-0.783987	-0.118505	-0.609315	148.731705	-72.476860	40.372989
11628		9.330606	1.471928	-2.485362	0.024792	0.059660	-0.045415	-0.009924	-0.090549	-0.052703	-0.713623	-0.044922	0.560791	0.093321	0.014693	-0.024812	-0.007631	-0.784231	-0.118596	-0.608982	148.789692	-72.431036	40.317884
11629		9.428732	1.489692	-2.512010	0.033430	0.064316	0.057728	-0.020298	-0.094643	-0.045621	-0.718506	-0.044678	0.568115	0.094303	0.014873	-0.025077	-0.007890	-0.784507	-0.118703	-0.608602	148.806539	-72.369929	40.289351
11630		9.220837	1.520764	-2.559239	-0.046600	-0.010344	-0.123313	-0.029783	-0.094727	-0.050595	-0.708008	-0.053467	0.565674	0.092224	0.015181	-0.025551	-0.008025	-0.784754	-0.118703	-0.608281	148.859926	-72.325642	40.225463
11631		9.176981	1.427607	-2.665505	-0.166321	0.064094	-0.152036	-0.022110	-0.100307	-0.047669	-0.707520	-0.041016	0.573730	0.091787	0.014251	-0.026611	-0.008299	-0.785045	-0.118813	-0.607881	148.877675	-72.261240	40.194951
11632		9.252486	1.392319	-2.593924	-0.074899	0.126511	-0.104245	-0.007598	-0.100941	-0.044091	-0.704590	-0.050537	0.572754	0.092541	0.013902	-0.025893	-0.008367	-0.785414	-0.118932	-0.607380	148.973001	-72.194338	40.104636
11633		9.307600	1.506917	-2.561482	-0.001374	0.036163	-0.042217	-0.015092	-0.102979	-0.045397	-0.711914	-0.060547	0.579102	0.093093	0.015046	-0.025568	-0.008608	-0.785714	-0.119053	-0.606964	149.000368	-72.129259	40.068282
11634		9.184036	1.588910	-2.592539	-0.033306	-0.064614	-0.138644	-0.020293	-0.107886	-0.047649	-0.708740	-0.050537	0.575439	0.091858	0.015865	-0.025877	-0.008893	-0.786111	-0.119223	-0.606413	149.043137	-72.044213	40.017053
11635		9.198158	1.563191	-2.560324	0.005838	-0.026346	-0.137761	-0.020808	-0.105818	-0.044914	-0.706787	-0.045166	0.569092	0.091999	0.015609	-0.025556	-0.009157	-0.786420	-0.119325	-0.605988	149.070042	-71.977776	39.977694
11636		9.345677	1.541012	-2.538932	0.068298	0.030604	-0.006722	-0.025306	-0.107396	-0.039858	-0.709473	-0.039307	0.571533	0.093473	0.015388	-0.025341	-0.009273	-0.786773	-0.119353	-0.605522	149.158806	-71.916176	39.882433
11637		9.349468	1.577036	-2.614075	0.013490	-0.007694	0.022593	-0.036654	-0.107152	-0.033692	-0.712402	-0.051758	0.571045	0.093511	0.015750	-0.026094	-0.009565	-0.787092	-0.119363	-0.605102	149.194275	-71.852374	39.824545
11638		9.229096	1.538585	-2.647376	-0.044978	0.002617	-0.089004	-0.032852	-0.102893	-0.032961	-0.708008	-0.053711	0.567871	0.092307	0.015366	-0.026429	-0.009640	-0.787377	-0.119294	-0.604742	149.283025	-71.808839	39.724497
11639		9.223509	1.441115	-2.614777	-0.023076	0.105178	-0.118597	-0.018857	-0.101444	-0.026677	-0.709473	-0.053711	0.578125	0.092250	0.014396	-0.026102	-0.009836	-0.787683	-0.119330	-0.604333	149.333601	-71.749956	39.661488
11640		9.287451	1.526169	-2.649512	-0.017250	0.034112	-0.034938	-0.016086	-0.099831	-0.022191	-0.709473	-0.052002	0.572998	0.092889	0.015249	-0.026450	-0.010000	-0.787966	-0.119303	-0.603968	149.392785	-71.700048	39.587180
11641		9.165906	1.639167	-2.799153	-0.160094	-0.114950	-0.091725	-0.029132	-0.105337	-0.026012	-0.699707	-0.057617	0.577881	0.091676	0.016376	-0.027946	-0.010237	-0.788282	-0.119305	-0.603550	149.441152	-71.639438	39.520260
11642		9.080430	1.581273	-2.846598	-0.226370	-0.077460	-0.169010	-0.023694	-0.107807	-0.028635	-0.702881	-0.055664	0.577881	0.090822	0.015796	-0.028419	-0.010466	-0.788617	-0.119305	-0.603109	149.497301	-71.576447	39.446128
11643		9.171261	1.565317	-2.809917	-0.162261	-0.035043	-0.095162	-0.016907	-0.103320	-0.015103	-0.702881	-0.048828	0.579346	0.091728	0.015644	-0.028053	-0.010620	-0.788934	-0.119301	-0.602692	149.566257	-71.519959	39.364839
11644		9.325329	1.589968	-2.755884	-0.057778	-0.019052	0.040279	-0.020618	-0.101110	-0.015630	-0.693604	-0.056641	0.578857	0.093268	0.015890	-0.027513	-0.010712	-0.789278	-0.119278	-0.602244	149.661606	-71.463423	39.260744
11645		9.242274	1.631849	-2.844106	-0.145710	-0.084241	-0.007425	-0.031270	-0.096781	-0.013480	-0.697998	-0.054199	0.575195	0.092438	0.016308	-0.028399	-0.010914	-0.789576	-0.119225	-0.601861	149.718275	-71.410564	39.183711
11646		9.189608	1.563185	-2.882482	-0.197178	-0.029812	-0.057619	-0.027492	-0.092758	-0.006294	-0.701172	-0.051270	0.585938	0.091910	0.015625	-0.028784	-0.011099	-0.789911	-0.119132	-0.601436	149.796562	-71.354857	39.083219
11647		9.283037	1.486016	-2.846508	-0.144651	0.070758	0.008702	-0.020841	-0.087191	-0.002607	-0.699219	-0.051758	0.581787	0.092843	0.014856	-0.028426	-0.011222	-0.790187	-0.119067	-0.601084	149.866193	-71.309785	38.998762
11648		9.215040	1.615810	-2.888476	-0.168689	-0.073719	-0.023040	-0.026331	-0.084180	-0.004910	-0.697998	-0.053955	0.591309	0.092163	0.016152	-0.028848	-0.011252	-0.790505	-0.119011	-0.600676	149.970776	-71.261827	38.887622
11649		9.118788	1.525465	-2.922404	-0.232767	-0.007175	-0.119105	-0.019211	-0.086903	-0.010680	-0.702148	-0.054443	0.579346	0.091201	0.015247	-0.029186	-0.011392	-0.790775	-0.118983	-0.600324	150.028692	-71.214488	38.816519
11650		9.179954	1.474351	-2.794949	-0.095120	0.072087	-0.104817	0.004173	-0.084504	-0.002967	-0.703613	-0.056641	0.575439	0.091812	0.014743	-0.027910	-0.011355	-0.791084	-0.119012	-0.599911	150.134360	-71.165835	38.716936
11651		9.292273	1.526204	-2.757600	-0.013630	0.050120	-0.000589	0.002403	-0.083943	0.001695	-0.697998	-0.048096	0.583496	0.092934	0.015263	-0.027537	-0.011370	-0.791354	-0.119001	-0.599557	150.219520	-71.123402	38.630108
11652		9.210308	1.633667	-2.765872	-0.015870	-0.072407	-0.058550	-0.006528	-0.086648	-0.001024	-0.701660	-0.060547	0.587891	0.092115	0.016335	-0.027619	-0.011378	-0.791600	-0.118909	-0.599251	150.309423	-71.089748	38.532436
11653		9.057234	1.549946	-2.783333	-0.077085	-0.022855	-0.211839	-0.002105	-0.091764	0.000080	-0.705566	-0.051758	0.583008	0.090585	0.015499	-0.027792	-0.011420	-0.791891	-0.118889	-0.598869	150.395411	-71.042935	38.441985
11654		9.176691	1.540068	-2.694306	0.044764	0.022237	-0.125570	0.012098	-0.091159	0.009660	-0.696045	-0.052002	0.583984	0.091778	0.015407	-0.026900	-0.011375	-0.792164	-0.118856	-0.598515	150.498307	-71.003766	38.340556
11655		9.280381	1.550967	-2.669371	0.106445	0.035757	-0.032917	0.004861	-0.094361	0.010271	-0.696533	-0.051270	0.587158	0.092816	0.015515	-0.026650	-0.011360	-0.792469	-0.118817	-0.598119	150.604225	-70.958452	38.233192
11656		9.161335	1.557998	-2.721189	0.038449	-0.002433	-0.129672	0.002428	-0.097424	0.006083	-0.700195	-0.053223	0.589111	0.091626	0.015583	-0.027167	-0.011291	-0.792801	-0.118774	-0.597689	150.731901	-70.911523	38.108255
11657		9.219534	1.446756	-2.651636	0.110177	0.126371	-0.112380	0.014285	-0.100187	0.009929	-0.692627	-0.048340	0.578369	0.092208	0.014474	-0.026469	-0.011243	-0.793123	-0.118764	-0.597265	150.846463	-70.863064	37.997427
11658		9.325504	1.608529	-2.690209	0.139404	-0.016253	0.024482	0.016791	-0.104136	0.018767	-0.696289	-0.051270	0.583984	0.093268	0.016096	-0.026852	-0.011092	-0.793446	-0.118679	-0.596855	150.996018	-70.823526	37.853851
11659		9.279864	1.796539	-2.756478	0.108364	-0.216879	0.030219	-0.014759	-0.106151	0.022216	-0.699463	-0.050537	0.587646	0.092811	0.017974	-0.027517	-0.011126	-0.793791	-0.118533	-0.596424	151.115285	-70.775360	37.720388
11660		9.221353	1.725906	-2.849886	0.001704	-0.173457	-0.009430	-0.019034	-0.108348	0.024243	-0.693115	-0.055908	0.590332	0.092227	0.017268	-0.028451	-0.011112	-0.794113	-0.118321	-0.596039	151.247114	-70.736948	37.572787
11661		9.252891	1.654854	-2.853806	0.004361	-0.099210	0.010187	-0.020108	-0.103923	0.031302	-0.684570	-0.053223	0.589844	0.092541	0.016560	-0.028492	-0.011138	-0.794455	-0.118123	-0.595620	151.373443	-70.692260	37.428550
11662		9.236147	1.697939	-3.068774	-0.184924	-0.171463	0.063708	-0.029114	-0.099787	0.038395	-0.687988	-0.047363	0.586670	0.092374	0.016993	-0.030644	-0.011205	-0.794835	-0.117875	-0.595161	151.507644	-70.642457	37.269072
11663		9.054702	1.635597	-3.257461	-0.412681	-0.172182	-0.062103	-0.019609	-0.099393	0.044731	-0.693359	-0.048096	0.597656	0.090560	0.016373	-0.032531	-0.011187	-0.795172	-0.117625	-0.594761	151.648711	-70.603449	37.109424
11664		9.007876	1.559609	-3.241076	-0.411368	-0.110591	-0.122624	0.010303	-0.090614	0.052564	-0.693359	-0.044922	0.591064	0.090089	0.015621	-0.032369	-0.010890	-0.795524	-0.117443	-0.594332	151.851883	-70.570640	36.916136
11665		9.150895	1.478150	-3.256217	-0.392110	-0.009151	0.004283	0.029054	-0.081973	0.057188	-0.689697	-0.048828	0.591064	0.091518	0.014812	-0.032523	-0.010630	-0.795819	-0.117289	-0.593972	152.024315	-70.543468	36.752778
11666		9.177933	1.531335	-3.232427	-0.343604	-0.060000	0.031415	0.042710	-0.072076	0.058330	-0.688232	-0.051514	0.585449	0.091786	0.015347	-0.032288	-0.010196	-0.796086	-0.117152	-0.593649	152.227970	-70.527560	36.573832
11667		9.192546	1.452445	-3.154931	-0.271529	0.022986	0.010338	0.054086	-0.059317	0.060465	-0.691895	-0.048096	0.594971	0.091930	0.014561	-0.031518	-0.009813	-0.796316	-0.117061	-0.593365	152.401703	-70.512433	36.424314
11668		9.216076	1.522969	-3.084646	-0.179194	-0.039624	0.022802	0.072577	-0.049539	0.063220	-0.687256	-0.048096	0.586426	0.092164	0.015270	-0.030818	-0.009352	-0.796505	-0.116972	-0.593136	152.581604	-70.507148	36.275232
11669		9.207986	1.576218	-3.142856	-0.219737	-0.107480	0.040697	0.053949	-0.051929	0.065305	-0.684570	-0.051025	0.593994	0.092083	0.015801	-0.031400	-0.008951	-0.796715	-0.116862	-0.592881	152.756297	-70.496773	36.124595
11670		9.076741	1.555892	-3.155914	-0.263829	-0.121742	-0.082149	0.049057	-0.051510	0.065206	-0.687256	-0.046631	0.593750	0.090770	0.015596	-0.031532	-0.008622	-0.796930	-0.116700	-0.592629	152.921809	-70.485266	35.973082
11671		9.190749	1.388276	-3.056987	-0.162009	0.068740	-0.029468	0.059623	-0.042017	0.067998	-0.696777	-0.043701	0.590820	0.091909	0.013923	-0.030546	-0.008185	-0.797113	-0.116596	-0.592410	153.095989	-70.480352	35.826406
11672		9.326409	1.340932	-2.979105	-0.054542	0.142251	0.068196	0.062255	-0.039568	0.069070	-0.693848	-0.045898	0.598389	0.093265	0.013451	-0.029768	-0.007696	-0.797257	-0.116460	-0.592249	153.275848	-70.485534	35.675569
11673		9.238087	1.400984	-2.994035	-0.075609	0.056995	-0.001455	0.061162	-0.041673	0.067902	-0.689209	-0.040039	0.593018	0.092382	0.014050	-0.029917	-0.007253	-0.797438	-0.116361	-0.592031	153.450438	-70.480516	35.529407
11674		9.173195	1.301376	-2.993346	-0.103823	0.132378	-0.077551	0.076571	-0.039083	0.070519	-0.693848	-0.042725	0.596680	0.091733	0.013058	-0.029911	-0.006679	-0.797607	-0.116290	-0.591824	153.649690	-70.481193	35.371668
11675		9.178071	1.350963	-2.942354	-0.038859	0.083040	-0.080723	0.087839	-0.039287	0.072125	-0.683838	-0.038574	0.597656	0.091782	0.013556	-0.029400	-0.006115	-0.797783	-0.116252	-0.591599	153.843906	-70.478169	35.220916
11676		9.108654	1.379876	-2.916847	-0.020535	0.035512	-0.149461	0.087152	-0.049933	0.067957	-0.685303	-0.035400	0.595459	0.091089	0.013842	-0.029140	-0.005504	-0.798009	-0.116238	-0.591304	154.060289	-70.467525	35.053835
11677		9.098702	1.358816	-2.811945	0.079833	0.059859	-0.193445	0.092413	-0.051908	0.060341	-0.689453	-0.031250	0.592529	0.090990	0.013629	-0.028090	-0.004964	-0.798215	-0.116261	-0.591026	154.248761	-70.454692	34.911963
11678		9.232004	1.320495	-2.713426	0.210900	0.124911	-0.103095	0.093529	-0.056489	0.067693	-0.682861	-0.034912	0.599609	0.092323	0.013249	-0.027102	-0.004223	-0.798436	-0.116248	-0.590736	154.495763	-70.449584	34.725132
11679		9.251319	1.441864	-2.719961	0.240504	0.001882	-0.065575	0.072603	-0.062709	0.069073	-0.691895	-0.040039	0.602295	0.092517	0.014460	-0.027165	-0.003741	-0.798678	-0.116177	-0.590425	154.692850	-70.432991	34.562119
11680		9.177026	1.353396	-2.752941	0.183231	0.062167	-0.138457	0.054353	-0.073568	0.068243	-0.687500	-0.032959	0.601318	0.091776	0.013573	-0.027492	-0.003299	-0.798988	-0.116083	-0.590026	154.902210	-70.404311	34.381895
11681		9.231813	1.116652	-2.738289	0.178718	0.298010	-0.125028	0.063063	-0.076547	0.067220	-0.684326	-0.039795	0.610107	0.092325	0.011206	-0.027344	-0.002870	-0.799270	-0.115991	-0.589666	155.099847	-70.379672	34.212458
11682		9.265010	1.199679	-2.782034	0.174438	0.211272	-0.068752	0.068026	-0.084080	0.063982	-0.679688	-0.033203	0.608398	0.092658	0.012036	-0.027777	-0.002391	-0.799642	-0.115988	-0.589164	155.321595	-70.336544	34.030587
11683		9.165300	1.193485	-2.933255	0.013848	0.172306	-0.117265	0.064053	-0.094582	0.056624	-0.686035	-0.035400	0.602295	0.091663	0.011970	-0.029285	-0.001998	-0.799970	-0.115940	-0.588729	155.515311	-70.299509	33.865847
11684		9.182302	1.178376	-3.044607	-0.074779	0.169866	-0.069053	0.089599	-0.101264	0.049866	-0.684570	-0.029785	0.595459	0.091835	0.011820	-0.030394	-0.001489	-0.800383	-0.116044	-0.588148	155.739197	-70.244238	33.693352
11685		9.196213	1.232333	-3.133351	-0.131836	0.102381	-0.020906	0.103347	-0.105326	0.045811	-0.690430	-0.027344	0.606689	0.091976	0.012361	-0.031279	-0.000978	-0.800736	-0.116155	-0.587646	155.945211	-70.198585	33.539377
11686		9.192781	1.306838	-3.286134	-0.250513	0.000800	0.033680	0.109582	-0.104608	0.042379	-0.685303	-0.029053	0.599365	0.091942	0.013106	-0.032806	-0.000340	-0.801056	-0.116276	-0.587187	156.171711	-70.162794	33.375983
11687		9.255472	1.219899	-3.284337	-0.234033	0.091363	0.080525	0.132837	-0.101331	0.039847	-0.685303	-0.023438	0.612549	0.092569	0.012239	-0.032788	0.000275	-0.801393	-0.116497	-0.586684	156.381902	-70.117520	33.235492
11688		9.375868	1.172990	-3.321509	-0.230174	0.145321	0.199361	0.154408	-0.083557	0.046992	-0.681885	-0.023926	0.608643	0.093770	0.011778	-0.033167	0.001140	-0.801692	-0.116772	-0.586220	156.636004	-70.085383	33.075998
11689		9.351624	1.322762	-3.348552	-0.222353	-0.016800	0.205577	0.162492	-0.076864	0.047029	-0.681396	-0.021240	0.605225	0.093526	0.013277	-0.033439	0.001910	-0.801959	-0.117052	-0.585796	156.856954	-70.054238	32.942115
11690		9.186496	1.311358	-3.369771	-0.278928	-0.049809	0.055769	0.163806	-0.068606	0.046786	-0.680908	-0.019043	0.612549	0.091873	0.013163	-0.033655	0.002843	-0.802232	-0.117365	-0.585356	157.114963	-70.026346	32.787484
11691		9.204071	1.271022	-3.336484	-0.239809	-0.011625	0.056704	0.180861	-0.058947	0.050861	-0.683594	-0.018311	0.610840	0.092047	0.012764	-0.033326	0.003709	-0.802447	-0.117682	-0.584992	157.340169	-70.005135	32.660280
11692		9.178075	1.379019	-3.318173	-0.196693	-0.131137	0.040897	0.179763	-0.053470	0.062446	-0.682861	-0.017822	0.609375	0.091785	0.013849	-0.033145	0.004810	-0.802703	-0.118018	-0.584565	157.631530	-69.984456	32.487958
11693		9.172622	1.337355	-3.258607	-0.140998	-0.093334	0.011540	0.173241	-0.046075	0.059257	-0.677734	-0.010254	0.602783	0.091730	0.013429	-0.032553	0.005677	-0.802884	-0.118279	-0.584255	157.856381	-69.971484	32.356517
11694		9.199862	1.285868	-3.191516	-0.070852	-0.042135	0.009221	0.186319	-0.039679	0.067253	-0.683350	-0.016602	0.608154	0.092001	0.012919	-0.031885	0.006817	-0.803054	-0.118546	-0.583955	158.145177	-69.969788	32.183947
11695		9.226320	1.353834	-3.124139	0.022288	-0.104293	0.021269	0.174566	-0.044121	0.066741	-0.674316	-0.005859	0.608643	0.092266	0.013596	-0.031209	0.007713	-0.803233	-0.118781	-0.583651	158.380374	-69.959070	32.042363
11696		9.181747	1.322100	-3.124810	0.012804	-0.094732	-0.024546	0.166984	-0.045784	0.067172	-0.683105	-0.007813	0.611572	0.091820	0.013278	-0.031216	0.008764	-0.803440	-0.119017	-0.583302	158.661224	-69.948241	31.868077
11697		9.265379	1.201906	-3.075943	0.067764	0.034412	0.023341	0.172496	-0.049011	0.061361	-0.682129	-0.013184	0.611084	0.092658	0.012074	-0.030726	0.009634	-0.803628	-0.119267	-0.582979	158.889919	-69.933370	31.732195
11698		9.332581	1.311696	-2.970981	0.217528	-0.055120	0.066279	0.160100	-0.050868	0.058712	-0.685059	-0.015381	0.615234	0.093329	0.013168	-0.029676	0.010572	-0.803822	-0.119519	-0.582643	159.136840	-69.919356	31.583832
11699		9.405580	1.213369	-2.931767	0.264373	0.051367	0.110009	0.131398	-0.052199	0.046588	-0.691650	-0.001709	0.609863	0.094061	0.012175	-0.029285	0.011233	-0.804012	-0.119708	-0.582331	159.321697	-69.899423	31.469567
11700		9.461984	1.116953	-2.812702	0.379055	0.165257	0.112886	0.125303	-0.046924	0.040662	-0.677734	-0.010498	0.616211	0.094624	0.011206	-0.028098	0.011954	-0.804131	-0.119905	-0.582111	159.503624	-69.893200	31.363578
11701		9.449017	1.139961	-2.806579	0.393848	0.135502	0.101285	0.102085	-0.057553	0.038600	-0.682617	-0.008057	0.608154	0.094496	0.011432	-0.028033	0.012471	-0.804332	-0.120041	-0.581795	159.662443	-69.868612	31.259163
11702		9.311294	0.993454	-2.893597	0.250994	0.234657	-0.017690	0.077816	-0.078101	0.029194	-0.677734	-0.007568	0.614014	0.093123	0.009959	-0.028896	0.012854	-0.804592	-0.120153	-0.581403	159.805643	-69.829961	31.157536
11703		9.315679	0.760245	-2.823443	0.279164	0.469726	-0.064195	0.089337	-0.086848	0.021339	-0.677979	0.006592	0.614502	0.093168	0.007625	-0.028191	0.013252	-0.804868	-0.120323	-0.580977	159.946879	-69.786025	31.064023
11704		9.426717	0.658043	-2.725988	0.393999	0.599528	-0.003898	0.113208	-0.101118	0.004888	-0.689453	-0.000488	0.619385	0.094281	0.006598	-0.027208	0.013907	-0.805200	-0.120689	-0.580425	160.137555	-69.730566	30.958742
11705		9.372192	0.627031	-2.619791	0.482712	0.636799	-0.093844	0.127527	-0.123624	-0.023976	-0.681396	0.003662	0.619629	0.093739	0.006276	-0.026136	0.014305	-0.805551	-0.121155	-0.579831	160.252982	-69.657829	30.916082
11706		9.438689	0.389110	-2.518406	0.560609	0.895109	-0.093269	0.145584	-0.147490	-0.041388	-0.678467	-0.011963	0.612549	0.094406	0.003890	-0.025112	0.014963	-0.805938	-0.121817	-0.579138	160.413063	-69.577358	30.866570
11707		9.573675	0.221706	-2.473975	0.623129	1.092480	-0.002329	0.160644	-0.178598	-0.052296	-0.678467	0.006104	0.625000	0.095759	0.002212	-0.024652	0.015380	-0.806427	-0.122497	-0.578303	160.533602	-69.469479	30.838733
11708		9.724145	0.167277	-2.349268	0.792492	1.198489	0.088907	0.153490	-0.225627	-0.075167	-0.684082	0.003418	0.621094	0.097268	0.001654	-0.023382	0.015726	-0.807032	-0.123270	-0.577284	160.649656	-69.333397	30.817842
11709		9.896587	-0.162729	-2.205192	0.930413	1.583080	0.160272	0.149867	-0.266999	-0.097809	-0.674316	0.005859	0.627686	0.098994	-0.001659	-0.021921	0.015914	-0.807746	-0.124109	-0.576099	160.741804	-69.169064	30.813721
11710		10.055923	0.072829	-1.897932	1.341945	1.446781	0.228973	0.155763	-0.302928	-0.141215	-0.666260	0.004639	0.626709	0.100588	0.000672	-0.018826	0.016236	-0.808517	-0.125212	-0.574768	160.843314	-68.984845	30.833659
11711		9.848374	0.136959	-1.857837	1.359084	1.373489	0.022305	0.086578	-0.355311	-0.193463	-0.661865	-0.006836	0.631348	0.098518	0.001282	-0.018403	0.015838	-0.809425	-0.126262	-0.573270	160.807432	-68.754745	30.927984
11712		9.884362	-0.090749	-1.830578	1.381156	1.631661	0.010233	0.039233	-0.416657	-0.229718	-0.658691	-0.006348	0.625000	0.098880	-0.001017	-0.018100	0.015205	-0.810560	-0.127415	-0.571425	160.754470	-68.469585	31.029556
11713		9.945729	-0.177193	-1.927421	1.330566	1.741705	0.079719	0.026264	-0.479139	-0.257060	-0.658691	-0.001465	0.639893	0.099501	-0.001897	-0.019036	0.014302	-0.811777	-0.128558	-0.569461	160.660256	-68.160340	31.149837
11714		9.923063	-0.158973	-1.921222	1.379809	1.756823	0.045960	0.005597	-0.557255	-0.295156	-0.656982	-0.003174	0.632813	0.099281	-0.001736	-0.018936	0.013219	-0.813235	-0.129839	-0.567112	160.564103	-67.792856	31.269816
11715		9.965381	-0.253262	-1.864055	1.475670	1.908107	0.037630	0.013608	-0.628854	-0.348724	-0.654297	-0.003418	0.636963	0.099707	-0.002705	-0.018327	0.011908	-0.814802	-0.131326	-0.564543	160.418947	-67.385004	31.437980
11716		10.104337	-0.211591	-1.845712	1.603573	1.944388	0.147052	0.064139	-0.694650	-0.394128	-0.643555	-0.009277	0.649414	0.101102	-0.002309	-0.018107	0.010765	-0.816485	-0.133100	-0.561713	160.310122	-66.944408	31.608513
11717		10.096294	0.010436	-1.869569	1.692783	1.778899	0.157262	0.089268	-0.762888	-0.451269	-0.644775	-0.007568	0.648926	0.101033	-0.000115	-0.018310	0.009385	-0.818331	-0.135223	-0.558535	160.151326	-66.444161	31.839883
11718		10.180001	0.030216	-1.934648	1.736017	1.825774	0.238590	0.097750	-0.826429	-0.497849	-0.631104	-0.017090	0.654053	0.101879	0.000058	-0.018926	0.008021	-0.820329	-0.137595	-0.555035	160.011929	-65.899332	32.075394
11719		10.349659	0.062143	-2.225864	1.612682	1.849657	0.485412	0.124031	-0.885312	-0.522398	-0.625244	-0.021729	0.656738	0.103595	0.000365	-0.021800	0.006502	-0.822427	-0.140105	-0.551309	159.858135	-65.318729	32.325120
11720		10.463982	0.248002	-2.409667	1.614202	1.737141	0.662927	0.165477	-0.947091	-0.555485	-0.616211	-0.016357	0.666260	0.104759	0.002209	-0.023599	0.004967	-0.824676	-0.142806	-0.547258	159.726728	-64.694254	32.568690
11721		10.605934	0.198853	-2.622305	1.550387	1.857502	0.843138	0.194391	-0.984369	-0.587452	-0.616211	-0.021484	0.672363	0.106192	0.001702	-0.025699	0.003489	-0.826949	-0.145771	-0.543042	159.599707	-64.046959	32.835930
11722		10.640013	0.403033	-2.962071	1.402748	1.691552	1.018553	0.254102	-1.013389	-0.612148	-0.602539	-0.018311	0.670898	0.106560	0.003742	-0.029076	0.002283	-0.829279	-0.148994	-0.538602	159.529884	-63.378050	33.091789
11723		10.487300	0.318256	-3.272920	1.143331	1.765319	0.974889	0.314118	-1.035060	-0.655276	-0.595703	-0.025146	0.683105	0.105050	0.002889	-0.032181	0.001080	-0.831576	-0.152554	-0.534049	159.437761	-62.689546	33.399960
11724		10.502788	0.465291	-3.535757	1.052471	1.666138	1.102507	0.418287	-1.039077	-0.696329	-0.584473	-0.022217	0.685791	0.105225	0.004360	-0.034802	0.000307	-0.833834	-0.156507	-0.529363	159.403238	-61.994048	33.720991
11725		10.425268	0.663220	-4.096708	0.679216	1.447146	1.293711	0.495611	-1.022669	-0.716469	-0.576172	-0.021484	0.693848	0.104483	0.006359	-0.040417	-0.000293	-0.835978	-0.160792	-0.524677	159.367656	-61.299594	34.087037
11726		10.135798	0.893910	-4.480493	0.393704	1.162205	1.237254	0.573743	-1.010404	-0.721614	-0.568848	-0.021729	0.697754	0.101614	0.008700	-0.044267	-0.000398	-0.838095	-0.165291	-0.519881	159.418021	-60.608566	34.428496
11727		9.808300	1.257149	-4.520241	0.428709	0.794936	1.022384	0.633525	-0.974707	-0.709974	-0.559814	-0.025635	0.704346	0.098346	0.012365	-0.044684	-0.000364	-0.840041	-0.169894	-0.515234	159.467269	-59.941283	34.792795
11728		9.427994	1.543839	-4.819747	0.196347	0.429418	0.877326	0.654827	-0.929062	-0.692650	-0.550293	-0.019775	0.718506	0.094555	0.015268	-0.047708	-0.000043	-0.841893	-0.174444	-0.510672	159.567076	-59.299376	35.127378
11729		9.009977	2.116888	-4.797264	0.306462	-0.164475	0.606171	0.655377	-0.883901	-0.686451	-0.537598	-0.018555	0.718750	0.090383	0.021015	-0.047505	0.000222	-0.843552	-0.178990	-0.506343	159.632568	-58.686012	35.492165
11730		8.624496	2.371587	-4.853130	0.270255	-0.472043	0.349125	0.607293	-0.824564	-0.642560	-0.539307	-0.024170	0.715820	0.086520	0.023585	-0.048103	0.000655	-0.845160	-0.183322	-0.502092	159.742870	-58.096218	35.809214
11731		8.168141	2.652923	-5.191386	-0.038776	-0.884004	0.183475	0.501827	-0.781189	-0.591577	-0.522705	-0.016602	0.725098	0.081961	0.026417	-0.051528	0.000604	-0.846584	-0.187068	-0.498298	159.780437	-57.557306	36.107688
11732		7.745099	3.153277	-5.534438	-0.270834	-1.497351	0.099103	0.360654	-0.756781	-0.524626	-0.517334	-0.013916	0.730469	0.077742	0.031428	-0.054994	0.000206	-0.848014	-0.190134	-0.494694	159.808077	-57.044426	36.328770
11733		7.533762	3.219554	-5.391479	-0.148855	-1.550766	-0.129530	0.248935	-0.702916	-0.462393	-0.516846	-0.019043	0.735840	0.075601	0.032088	-0.053609	-0.000521	-0.849323	-0.192696	-0.491445	159.792440	-56.573238	36.521098
11734		7.404649	2.960655	-5.398002	-0.233291	-1.310933	-0.275427	0.153626	-0.627701	-0.381764	-0.511475	-0.029785	0.742188	0.074272	0.029506	-0.053724	-0.001297	-0.850513	-0.194665	-0.488603	159.782756	-56.162529	36.650647
11735		7.148550	3.053473	-5.693946	-0.511174	-1.495818	-0.307563	0.026062	-0.571527	-0.315138	-0.506104	-0.036865	0.736084	0.071696	0.030429	-0.056731	-0.002483	-0.851617	-0.196049	-0.486114	159.723694	-55.791071	36.743173
11736		6.743320	3.309220	-6.087865	-0.893255	-1.901275	-0.374872	-0.066322	-0.533315	-0.279270	-0.505615	-0.024414	0.743164	0.067641	0.032978	-0.060709	-0.003951	-0.852638	-0.196981	-0.483933	159.629074	-55.455160	36.806871
11737		6.502842	3.392439	-6.136160	-0.978232	-2.028476	-0.518809	-0.104095	-0.477420	-0.264147	-0.497559	-0.040527	0.747314	0.065219	0.033806	-0.061224	-0.005475	-0.853547	-0.197831	-0.481965	159.511408	-55.144273	36.880694
11738		6.360808	3.157681	-6.007715	-0.986596	-1.801264	-0.740456	-0.121569	-0.408322	-0.236300	-0.488770	-0.023682	0.752197	0.063768	0.031465	-0.059966	-0.006910	-0.854291	-0.198478	-0.480360	159.389541	-54.884216	36.946630
11739		6.265204	2.851830	-6.232102	-1.292836	-1.559092	-0.750542	-0.130658	-0.359500	-0.207624	-0.488281	-0.030762	0.749268	0.062793	0.028412	-0.062227	-0.008295	-0.854961	-0.199023	-0.478918	159.268837	-54.647813	37.006016
11740		6.206209	2.215639	-5.824851	-1.177967	-0.895946	-1.142936	-0.071994	-0.259134	-0.163499	-0.486572	-0.034912	0.750732	0.062156	0.022085	-0.058176	-0.009187	-0.855418	-0.199501	-0.477887	159.190902	-54.480718	37.055946
11741		6.126685	1.305866	-5.179097	-0.973734	0.038905	-1.743305	0.094298	-0.107474	-0.079106	-0.485596	-0.033936	0.751709	0.061300	0.013059	-0.051752	-0.009051	-0.855619	-0.200044	-0.477302	159.224971	-54.405387	37.083758
11742		6.565100	1.279227	-4.593793	-0.292937	0.315686	-1.709946	0.175391	0.035405	0.031771	-0.481445	-0.031006	0.745361	0.065641	0.012843	-0.045938	-0.008141	-0.855578	-0.200279	-0.477293	159.349930	-54.435581	37.055833
11743		6.831595	1.831653	-4.030019	0.475136	-0.014930	-1.686146	0.159101	0.215442	0.142646	-0.485352	-0.026855	0.751709	0.068259	0.018397	-0.040359	-0.006875	-0.855231	-0.200042	-0.478033	159.496295	-54.578190	36.991296
11744		6.708037	2.170997	-3.806168	0.698510	-0.356309	-1.838798	0.037101	0.397285	0.263044	-0.490234	-0.034180	0.751465	0.066976	0.021805	-0.038191	-0.005638	-0.854547	-0.198972	-0.479716	159.615956	-54.848836	36.873572
11745		6.692235	2.114454	-3.917448	0.549286	-0.362984	-1.802093	-0.157516	0.546964	0.391663	-0.491943	-0.030762	0.748535	0.066773	0.021244	-0.039374	-0.004798	-0.853635	-0.196920	-0.482190	159.679572	-55.219019	36.689060
11746		6.666694	1.925306	-4.109522	0.270074	-0.273178	-1.757141	-0.300566	0.689495	0.536074	-0.502441	-0.031738	0.739746	0.066473	0.019369	-0.041354	-0.004063	-0.852487	-0.193873	-0.485451	159.737267	-55.700782	36.411790
11747		6.757888	1.870982	-4.123884	0.223633	-0.244232	-1.684600	-0.385355	0.835517	0.658004	-0.510498	-0.034424	0.735596	0.067344	0.018852	-0.041557	-0.003269	-0.851094	-0.190132	-0.489364	159.804508	-56.278644	36.067523
11748		6.883328	1.984438	-4.025637	0.325881	-0.348608	-1.609310	-0.473519	0.994357	0.723053	-0.515381	-0.032471	0.729492	0.068560	0.019997	-0.040645	-0.002524	-0.849323	-0.185862	-0.494065	159.835364	-56.961334	35.707452
11749		7.040703	2.126100	-3.956954	0.410260	-0.481300	-1.485131	-0.581385	1.151280	0.773126	-0.521240	-0.023926	0.722412	0.070095	0.021416	-0.040036	-0.001983	-0.847185	-0.181137	-0.499463	159.805397	-57.731608	35.350556
11750		7.102713	2.044897	-4.024190	0.252007	-0.465883	-1.413742	-0.697348	1.289656	0.818990	-0.531982	-0.036377	0.714111	0.070681	0.020597	-0.040770	-0.001674	-0.844669	-0.175893	-0.505563	159.714214	-58.591898	34.990180
11751		7.271881	1.911637	-4.139648	0.069414	-0.381617	-1.238359	-0.779332	1.421988	0.892702	-0.552734	-0.046631	0.706055	0.072336	0.019277	-0.041987	-0.001428	-0.841836	-0.170143	-0.512213	159.605238	-59.531967	34.599732
11752		7.599931	1.741638	-4.203058	-0.027912	-0.216796	-0.957857	-0.850865	1.544291	0.981201	-0.558594	-0.032959	0.703125	0.075585	0.017607	-0.042690	-0.001147	-0.838665	-0.163788	-0.519436	159.505100	-60.562150	34.152847
11753		7.802932	1.443439	-4.241044	-0.201984	0.028991	-0.817600	-0.900286	1.663039	1.055892	-0.578613	-0.041260	0.690918	0.077596	0.014652	-0.043123	-0.000787	-0.835175	-0.157008	-0.527096	159.420783	-61.665053	33.663045
11754		7.937851	1.214068	-4.277440	-0.392653	0.183480	-0.724822	-0.911639	1.769073	1.121474	-0.593018	-0.041504	0.688965	0.078927	0.012387	-0.043530	-0.000201	-0.831333	-0.149882	-0.535183	159.376047	-62.844479	33.125871
11755		8.208451	1.115616	-4.397765	-0.582044	0.225846	-0.454772	-0.897398	1.864999	1.177368	-0.597168	-0.042236	0.670898	0.081603	0.011438	-0.044791	0.000649	-0.827184	-0.142565	-0.543546	159.383967	-64.080551	32.545261
11756		8.476873	1.049283	-4.468139	-0.735639	0.232009	-0.204156	-0.856308	1.959289	1.231907	-0.613281	-0.039307	0.663574	0.084259	0.010819	-0.045554	0.001892	-0.822677	-0.135082	-0.552224	159.470325	-65.383446	31.908227
11757		8.738287	1.103516	-4.421328	-0.773121	0.125279	0.011049	-0.820206	2.049004	1.281346	-0.628418	-0.032471	0.646973	0.086851	0.011409	-0.045151	0.003472	-0.817845	-0.127504	-0.561125	159.638612	-66.738336	31.212837
11758		8.876130	1.094762	-4.313055	-0.824190	0.049889	0.081762	-0.790157	2.118261	1.319545	-0.640381	-0.039063	0.627197	0.088224	0.011358	-0.044111	0.005342	-0.812688	-0.119805	-0.570224	159.899799	-68.142017	30.441985
11759		9.124997	1.089294	-4.167271	-0.812710	-0.011798	0.244770	-0.757972	2.174035	1.360811	-0.665771	-0.028076	0.616943	0.090713	0.011351	-0.042703	0.007477	-0.807272	-0.112034	-0.579401	160.278183	-69.577101	29.573544
11760		9.473812	1.093188	-4.009401	-0.770607	-0.077078	0.503222	-0.721537	2.217440	1.377797	-0.679688	-0.033203	0.596436	0.094208	0.011435	-0.041181	0.009833	-0.801566	-0.104242	-0.588667	160.776127	-71.042698	28.605602
11761		9.838712	1.037060	-3.892200	-0.786306	-0.099744	0.788752	-0.676660	2.252004	1.374844	-0.694092	-0.028564	0.590820	0.097867	0.010910	-0.040062	0.012374	-0.795632	-0.096609	-0.597899	161.397518	-72.517011	27.546084
11762		10.018785	0.914984	-3.702653	-0.805579	-0.084264	0.876583	-0.625431	2.257595	1.364539	-0.704102	-0.019287	0.572021	0.099696	0.009713	-0.038184	0.015070	-0.789498	-0.089113	-0.607063	162.175955	-73.994434	26.356709
11763		10.110759	0.937757	-3.421801	-0.736264	-0.214351	0.874747	-0.550732	2.241544	1.342689	-0.725586	-0.021973	0.557373	0.100650	0.009958	-0.035375	0.018003	-0.783282	-0.081955	-0.615978	163.166745	-75.447866	25.005315
11764		10.205821	0.727789	-3.152258	-0.710036	-0.118205	0.869120	-0.477392	2.207164	1.311736	-0.739746	-0.006104	0.546875	0.101652	0.007868	-0.032664	0.021093	-0.776994	-0.075099	-0.624656	164.405660	-76.874877	23.446162
11765		10.250892	0.198093	-3.056363	-0.898769	0.269280	0.844494	-0.374337	2.143810	1.246572	-0.747070	0.003174	0.529053	0.102159	0.002560	-0.031664	0.024370	-0.770763	-0.068846	-0.632922	165.916491	-78.243303	21.682156
11766		10.319597	-0.078920	-2.826528	-0.906477	0.429680	0.839923	-0.170830	2.059643	1.160524	-0.761475	0.005859	0.513428	0.102900	-0.000216	-0.029326	0.028141	-0.764616	-0.063542	-0.640729	167.785080	-79.545334	19.680141
11767		10.246437	-0.201104	-2.612041	-0.921020	0.432038	0.714097	0.029029	1.959500	1.061464	-0.778564	0.010010	0.492188	0.102211	-0.001464	-0.027123	0.032309	-0.758642	-0.059289	-0.647999	170.021416	-80.762080	17.430032
11768		10.030526	-0.060418	-2.438276	-0.947847	0.172047	0.464881	0.211730	1.845175	0.960644	-0.789063	0.015869	0.480469	0.100076	-0.000097	-0.025307	0.036797	-0.752864	-0.055995	-0.654757	172.699295	-81.893041	14.843750
11769		9.984542	0.044230	-2.309223	-0.981150	-0.038884	0.388196	0.366322	1.726263	0.858007	-0.789795	0.030029	0.471436	0.099638	0.000913	-0.023951	0.041502	-0.747367	-0.053637	-0.660941	175.872128	-82.923880	11.857365
11770		9.995241	-0.086517	-2.267454	-1.112248	-0.017094	0.376199	0.502698	1.601138	0.752547	-0.799072	0.030762	0.450928	0.099769	-0.000431	-0.023475	0.046328	-0.742144	-0.052119	-0.666603	179.613265	-83.858179	8.381719
11771		9.910585	-0.238475	-2.247863	-1.266396	0.030750	0.273062	0.648719	1.477630	0.639801	-0.815674	0.046143	0.448242	0.098943	-0.001994	-0.023217	0.051287	-0.737225	-0.051557	-0.671722	-176.061262	-84.690442	4.410844
11772		9.757019	-0.275680	-2.169779	-1.339507	-0.015771	0.096243	0.797326	1.344962	0.512022	-0.813965	0.049805	0.445801	0.097428	-0.002419	-0.022363	0.056334	-0.732619	-0.051969	-0.676310	-171.171428	-85.422430	-0.037278
11773		9.726177	-0.262428	-1.981461	-1.271810	-0.081185	0.034543	0.888185	1.220556	0.397341	-0.815918	0.049072	0.433350	0.097143	-0.002341	-0.020419	0.061283	-0.728340	-0.053166	-0.680395	-165.746067	-86.059033	-4.964667
11774		9.543857	-0.054116	-1.881198	-1.255503	-0.337933	-0.172383	0.932144	1.084071	0.275572	-0.822998	0.060303	0.427246	0.095335	-0.000320	-0.019331	0.065947	-0.724445	-0.054967	-0.683966	-159.917517	-86.600997	-10.268675
11775		9.354184	0.075062	-1.759656	-1.213033	-0.497216	-0.384890	0.953782	0.940035	0.178097	-0.836426	0.068604	0.420166	0.093457	0.000919	-0.018032	0.070304	-0.720966	-0.057268	-0.687012	-153.819379	-87.052610	-15.826210
11776		9.378128	0.193589	-1.524178	-1.032809	-0.613960	-0.385825	0.928012	0.789976	0.096900	-0.838867	0.073975	0.414795	0.093719	0.002053	-0.015603	0.074071	-0.717980	-0.059628	-0.689538	-147.650714	-87.415043	-21.496902
11777		9.389450	0.304255	-1.382858	-0.933275	-0.727801	-0.391136	0.864674	0.650903	0.036503	-0.841309	0.082031	0.409424	0.093848	0.003120	-0.014121	0.077530	-0.715434	-0.062231	-0.691571	-141.662061	-87.702997	-26.992516
11778		9.322662	0.352459	-1.300767	-0.893898	-0.779915	-0.468130	0.770608	0.512309	-0.011041	-0.841309	0.080811	0.397949	0.093193	0.003570	-0.013233	0.080284	-0.713395	-0.064553	-0.693149	-136.274146	-87.922384	-31.967430
11779		9.275210	0.343764	-1.249249	-0.882792	-0.774029	-0.521305	0.636278	0.369028	-0.055252	-0.836914	0.083252	0.400879	0.092730	0.003452	-0.012653	0.082516	-0.711856	-0.066802	-0.694255	-132.180454	-88.088010	-35.696246
11780		9.219175	0.319984	-1.288950	-0.952544	-0.764393	-0.578766	0.494192	0.226473	-0.079368	-0.839111	0.084961	0.402832	0.092178	0.003195	-0.012986	0.083946	-0.710883	-0.068526	-0.694912	-129.814128	-88.201061	-37.805682
11781		9.197821	0.315467	-1.280039	-0.957820	-0.758441	-0.601538	0.370356	0.081611	-0.095478	-0.847168	0.085205	0.397949	0.091974	0.003135	-0.012832	0.084995	-0.710428	-0.070113	-0.695091	-129.566253	-88.268377	-37.838813
11782		9.276639	0.339266	-1.321487	-0.992146	-0.787434	-0.522206	0.249377	-0.048464	-0.098940	-0.849365	0.094971	0.401123	0.092771	0.003363	-0.013188	0.085382	-0.710506	-0.071168	-0.694857	-131.395635	-88.286921	-35.891857
11783		9.300600	0.294874	-1.236059	-0.908681	-0.716977	-0.497314	0.101226	-0.165058	-0.104407	-0.845459	0.089111	0.401855	0.093018	0.002906	-0.012282	0.085356	-0.711017	-0.071957	-0.694256	-134.974234	-88.261166	-32.251057
11784		9.291290	0.454128	-1.342026	-0.958798	-0.881872	-0.504719	-0.066749	-0.267323	-0.106453	-0.831787	0.086914	0.400879	0.092933	0.004487	-0.013298	0.084543	-0.711986	-0.072062	-0.693351	-139.826895	-88.182621	-27.455945
11785		9.305334	0.493218	-1.379647	-0.960380	-0.911472	-0.486235	-0.226797	-0.363007	-0.099628	-0.839355	0.084961	0.403564	0.093081	0.004870	-0.013633	0.083295	-0.713321	-0.071779	-0.692158	-145.150098	-88.047716	-22.257335
11786		9.361550	0.539160	-1.384377	-0.919673	-0.937394	-0.425401	-0.374964	-0.449045	-0.092395	-0.838379	0.081787	0.411133	0.093649	0.005323	-0.013644	0.081356	-0.715049	-0.070837	-0.690701	-150.455774	-87.850780	-17.186110
11787		9.347618	0.564762	-1.406365	-0.896776	-0.944448	-0.433007	-0.511521	-0.513377	-0.081682	-0.829102	0.074463	0.413818	0.093514	0.005574	-0.013838	0.079098	-0.717015	-0.069566	-0.689053	-155.141149	-87.606085	-12.787832
11788		9.357361	0.497988	-1.404116	-0.863464	-0.853845	-0.415620	-0.630580	-0.572465	-0.071994	-0.832520	0.073730	0.416504	0.093615	0.004902	-0.013789	0.076251	-0.719263	-0.067705	-0.687214	-159.225277	-87.312119	-9.086767
11789		9.405543	0.386222	-1.400107	-0.830388	-0.718644	-0.359252	-0.727973	-0.615824	-0.056079	-0.827881	0.072021	0.420410	0.094099	0.003786	-0.013725	0.073266	-0.721648	-0.065634	-0.685236	-162.522998	-86.985171	-6.200052
11790		9.411599	0.299088	-1.342084	-0.736079	-0.595978	-0.348464	-0.802562	-0.646778	-0.040934	-0.828125	0.072998	0.428955	0.094159	0.002919	-0.013128	0.069890	-0.724192	-0.063108	-0.683139	-165.221063	-86.627936	-3.981623
11791		9.395023	0.254272	-1.402171	-0.747322	-0.538263	-0.354958	-0.866469	-0.672772	-0.024371	-0.833984	0.062744	0.435547	0.093997	0.002471	-0.013716	0.066492	-0.726793	-0.060466	-0.680952	-167.357734	-86.252950	-2.335711
11792		9.298600	0.170032	-1.552669	-0.856551	-0.456881	-0.433941	-0.918154	-0.688359	0.001970	-0.822266	0.055176	0.441650	0.093039	0.001631	-0.015214	0.062834	-0.729488	-0.057409	-0.678678	-169.025036	-85.858666	-1.213706
11793		9.316163	0.046195	-1.513486	-0.776655	-0.305764	-0.411271	-0.921691	-0.684149	0.031532	-0.820801	0.051514	0.444336	0.093213	0.000408	-0.014818	0.059417	-0.732114	-0.054374	-0.676404	-170.208783	-85.466220	-0.553645
11794		9.293295	-0.116406	-1.471114	-0.699730	-0.118300	-0.429773	-0.916923	-0.675014	0.051196	-0.812500	0.051758	0.457275	0.092982	-0.001207	-0.014392	0.055904	-0.734731	-0.051110	-0.674116	-171.134549	-85.071610	-0.177883
11795		9.325245	-0.244046	-1.544015	-0.725063	0.013847	-0.385202	-0.892529	-0.657459	0.069214	-0.801270	0.045410	0.453613	0.093303	-0.002476	-0.015122	0.052725	-0.737221	-0.048024	-0.671877	-171.795477	-84.689675	-0.025218
11796		9.340800	-0.331969	-1.584573	-0.713255	0.110307	-0.360154	-0.848526	-0.624525	0.074508	-0.801270	0.044189	0.459717	0.093458	-0.003351	-0.015540	0.049734	-0.739598	-0.045059	-0.669695	-172.325340	-84.320834	0.021468
11797		9.390269	-0.456746	-1.599216	-0.680055	0.245404	-0.303729	-0.779111	-0.577300	0.072690	-0.799561	0.044678	0.455811	0.093950	-0.004595	-0.015703	0.047002	-0.741751	-0.042317	-0.667687	-172.754745	-83.983982	0.006913
11798		9.388522	-0.464390	-1.456669	-0.484435	0.282813	-0.317058	-0.691294	-0.527273	0.051469	-0.805908	0.029541	0.463135	0.093924	-0.004669	-0.014303	0.044535	-0.743725	-0.039936	-0.665804	-173.192403	-83.671996	0.051509
11799		9.299366	-0.481860	-1.164328	-0.157677	0.345509	-0.436034	-0.561068	-0.482286	0.017696	-0.794434	0.033203	0.467529	0.093022	-0.004843	-0.011405	0.042447	-0.745472	-0.038102	-0.664092	-173.673185	-83.392885	0.214375
11800		9.236363	-0.286196	-0.950821	0.114235	0.185401	-0.525665	-0.407508	-0.458827	-0.020630	-0.802734	0.033936	0.469727	0.092385	-0.002891	-0.009290	0.040808	-0.747122	-0.036917	-0.662405	-174.213810	-83.124135	0.526313
11801		9.518524	0.069250	-1.044039	0.136126	-0.167795	-0.239271	-0.323836	-0.415103	-0.031107	-0.795898	0.035645	0.469482	0.095207	0.000661	-0.010244	0.039455	-0.748573	-0.036038	-0.660896	-174.702168	-82.885745	0.833934
11802		9.806311	0.219760	-1.102743	0.167879	-0.314127	0.051445	-0.242735	-0.363472	-0.024512	-0.793701	0.030029	0.477783	0.098083	0.002172	-0.010852	0.038439	-0.749862	-0.035390	-0.659528	-175.068192	-82.671150	1.065410
11803		10.020520	0.554877	-0.952202	0.410792	-0.623011	0.240592	-0.105990	-0.299522	-0.047663	-0.795898	0.030762	0.480957	0.100221	0.005520	-0.009375	0.037867	-0.750879	-0.035269	-0.658410	-175.419549	-82.499042	1.361032
11804		10.326702	0.412020	-0.262621	1.141689	-0.400274	0.454532	-0.100498	-0.200132	-0.066000	-0.787109	0.031006	0.475342	0.103271	0.004085	-0.002525	0.037273	-0.751592	-0.035218	-0.657632	-175.802257	-82.379125	1.691739
11805		10.146463	0.265756	-0.334660	1.046689	-0.254873	0.285471	-0.102909	-0.099696	-0.066155	-0.789307	0.020020	0.475098	0.101467	0.002622	-0.003297	0.036688	-0.751945	-0.035139	-0.657265	-176.145244	-82.321490	1.980858
11806		10.129769	0.615216	-0.427253	0.996136	-0.604354	0.277691	-0.001194	-0.042433	-0.076513	-0.783447	0.023926	0.476807	0.101301	0.006113	-0.004251	0.036459	-0.752113	-0.035428	-0.657071	-176.458334	-82.292596	2.298910
11807		10.084408	0.969746	-0.494887	0.961173	-0.954020	0.239506	-0.018080	-0.003841	-0.131255	-0.786621	0.023682	0.482910	0.100851	0.009631	-0.004948	0.035995	-0.752123	-0.035855	-0.657061	-176.996877	-82.291414	2.834456
11808		9.827525	0.745170	-0.825651	0.576274	-0.749016	0.032315	-0.019490	0.030564	-0.217082	-0.786377	0.026611	0.479492	0.098282	0.007344	-0.008272	0.035247	-0.752029	-0.036602	-0.657168	-177.899722	-82.307034	3.737132
11809		9.901038	-0.049301	-0.908930	0.416041	0.056173	0.121236	0.105288	0.083157	-0.275149	-0.780762	0.020752	0.480713	0.099006	-0.000624	-0.009131	0.034789	-0.751704	-0.037960	-0.657487	-178.971838	-82.355784	4.882341
11810		10.040676	-0.418233	-0.817378	0.472934	0.459649	0.248285	0.290747	0.150986	-0.308127	-0.785889	0.024414	0.475342	0.100394	-0.004325	-0.008256	0.034932	-0.751137	-0.040047	-0.658004	179.902404	-82.436654	6.189158
11811		10.089648	-0.506129	-0.900914	0.364601	0.566135	0.307354	0.500297	0.215664	-0.359188	-0.793945	0.018311	0.478760	0.100877	-0.005220	-0.009131	0.035708	-0.750283	-0.042996	-0.658750	178.644791	-82.554563	7.749309
11812		9.896474	-0.487402	-0.911641	0.301837	0.572538	0.116551	0.708921	0.260210	-0.417364	-0.781738	0.025879	0.480713	0.098942	-0.005048	-0.009263	0.037084	-0.749239	-0.046848	-0.659599	177.192381	-82.688744	9.626381
11813		9.726940	-0.367295	-0.955618	0.217809	0.475402	-0.046018	0.872028	0.284111	-0.454435	-0.793701	0.024414	0.470703	0.097247	-0.003852	-0.009711	0.038953	-0.748042	-0.051366	-0.660513	175.597737	-82.831987	11.740035
11814		9.717970	-0.264912	-1.009379	0.141998	0.397517	-0.047976	1.012185	0.305096	-0.469167	-0.788818	0.032471	0.474365	0.097158	-0.002825	-0.010256	0.041306	-0.746746	-0.056396	-0.661426	173.939060	-82.975002	13.998841
11815		9.818441	-0.266657	-1.046304	0.079705	0.426176	0.055416	1.118458	0.322697	-0.463895	-0.792236	0.036865	0.470459	0.098161	-0.002835	-0.010637	0.044074	-0.745321	-0.061752	-0.662376	172.267690	-83.124012	16.330703
11816		9.821629	-0.210495	-1.076599	0.020295	0.393236	0.062156	1.201843	0.331878	-0.468265	-0.793213	0.028564	0.458252	0.098193	-0.002269	-0.010942	0.047151	-0.743838	-0.067386	-0.663280	170.553334	-83.265811	18.753760
11817		9.753071	0.003177	-1.199372	-0.110995	0.186247	0.011452	1.241878	0.329711	-0.480101	-0.799316	0.037109	0.469482	0.097511	-0.000127	-0.012155	0.050323	-0.742292	-0.073204	-0.664162	168.696194	-83.399703	21.342479
11818		9.644868	0.156325	-1.254834	-0.184829	0.047049	-0.087154	1.237087	0.321555	-0.494368	-0.793701	0.038330	0.469482	0.096432	0.001403	-0.012694	0.053426	-0.740750	-0.079058	-0.664970	166.696385	-83.514514	24.071665
11819		9.573004	0.134752	-1.331485	-0.305106	0.076118	-0.151715	1.198907	0.316928	-0.498022	-0.798828	0.039551	0.456299	0.095712	0.001190	-0.013459	0.056370	-0.739182	-0.084795	-0.665765	164.572289	-83.617518	26.903046
11820		9.517994	0.190790	-1.332224	-0.331860	0.043349	-0.205852	1.138827	0.294441	-0.494239	-0.803467	0.042969	0.460205	0.095165	0.001749	-0.013452	0.059098	-0.737704	-0.090316	-0.666441	162.417388	-83.692676	29.730532
11821		9.474299	0.224348	-1.378166	-0.403898	0.023726	-0.244606	1.056969	0.272852	-0.484442	-0.802979	0.036621	0.455566	0.094729	0.002087	-0.013900	0.061539	-0.736270	-0.095536	-0.667077	160.220099	-83.750062	32.552880
11822		9.414794	0.209758	-1.349838	-0.412333	0.065424	-0.308478	0.938316	0.240484	-0.460463	-0.799561	0.043701	0.459717	0.094136	0.001944	-0.013602	0.063608	-0.734993	-0.100279	-0.667595	158.113844	-83.779783	35.215274
11823		9.360903	0.191233	-1.378459	-0.474052	0.097545	-0.361291	0.807949	0.203248	-0.427913	-0.806152	0.054688	0.453613	0.093599	0.001768	-0.013872	0.065284	-0.733855	-0.104476	-0.668042	156.130484	-83.790257	37.678567
11824		9.342169	0.156371	-1.449317	-0.573106	0.135720	-0.375837	0.657410	0.166256	-0.392177	-0.795166	0.055664	0.456299	0.093412	0.001428	-0.014566	0.066531	-0.732934	-0.108026	-0.668365	154.373555	-83.777829	39.827694
11825		9.316573	0.147001	-1.570317	-0.711815	0.135714	-0.391389	0.485877	0.107749	-0.355389	-0.803467	0.043213	0.461914	0.093160	0.001343	-0.015750	0.067216	-0.732237	-0.110909	-0.668588	152.777725	-83.741264	41.715638
11826		9.286893	0.091670	-1.760620	-0.921505	0.161458	-0.406345	0.321279	0.034461	-0.316759	-0.799805	0.053711	0.456299	0.092867	0.000798	-0.017621	0.067406	-0.731916	-0.113100	-0.668554	151.546151	-83.666853	43.142535
11827		9.334292	-0.021847	-1.988667	-1.171251	0.239281	-0.344047	0.166995	-0.038406	-0.270595	-0.804932	0.049561	0.460938	0.093346	-0.000328	-0.019869	0.067125	-0.731854	-0.114655	-0.668384	150.568207	-83.571520	44.225411
11828		9.335919	-0.278426	-1.953556	-1.200424	0.516367	-0.360407	0.058684	-0.098101	-0.223649	-0.799072	0.042480	0.459229	0.093366	-0.002883	-0.019491	0.066599	-0.732107	-0.115662	-0.667987	149.994677	-83.454387	44.839196
11829		9.475957	-0.431372	-1.881771	-1.152864	0.712722	-0.237521	0.005125	-0.134242	-0.168402	-0.804932	0.041748	0.460938	0.094768	-0.004393	-0.018754	0.066012	-0.732477	-0.116334	-0.667523	149.654436	-83.338444	45.187232
11830		9.661238	-0.156329	-1.606571	-0.790077	0.549020	-0.064900	-0.026062	-0.152580	-0.127375	-0.798340	0.042969	0.452148	0.096624	-0.001627	-0.015992	0.065442	-0.732984	-0.116751	-0.666949	149.568214	-83.219953	45.261915
11831		9.776473	0.335517	-1.245485	-0.293632	0.191000	0.042285	-0.068808	-0.161404	-0.119243	-0.802002	0.047119	0.461182	0.097777	0.003293	-0.012377	0.064732	-0.733496	-0.117005	-0.666411	149.471062	-83.104661	45.322623
11832		10.018888	0.628839	-0.791514	0.252789	0.058423	0.253727	-0.142095	-0.163835	-0.125483	-0.797852	0.031006	0.462402	0.100199	0.006220	-0.007837	0.063754	-0.734063	-0.117013	-0.665879	149.363629	-82.985089	45.351580
11833		10.322616	0.863036	-0.458339	0.671099	-0.041006	0.534255	-0.248453	-0.154237	-0.130108	-0.798584	0.045166	0.465576	0.103235	0.008558	-0.004514	0.062353	-0.734600	-0.116706	-0.665474	149.110211	-82.870106	45.466069
11834		10.449613	1.074254	-0.106681	1.084790	-0.130387	0.635567	-0.334069	-0.136323	-0.130277	-0.795654	0.035156	0.465088	0.104504	0.010673	-0.001013	0.060653	-0.735137	-0.116101	-0.665143	148.809045	-82.759678	45.579549
11835		10.471348	1.301989	0.149090	1.396291	-0.270900	0.644057	-0.408357	-0.114873	-0.136841	-0.801514	0.035400	0.463379	0.104721	0.012951	0.001525	0.058665	-0.735583	-0.115274	-0.664972	148.360100	-82.661769	45.798849
11836		10.254104	1.234055	-0.050415	1.171744	-0.257587	0.445612	-0.437778	-0.110914	-0.155399	-0.791504	0.028564	0.462646	0.102551	0.012260	-0.000474	0.056521	-0.736033	-0.114403	-0.664810	147.856194	-82.558235	46.056936
11837		9.960781	0.729016	-0.323566	0.761821	0.157796	0.149642	-0.381265	-0.105491	-0.180901	-0.798096	0.024170	0.466309	0.099616	0.007194	-0.003197	0.054490	-0.736407	-0.113824	-0.664665	147.258417	-82.450834	46.442112
11838		9.693019	0.085342	-0.832637	0.095964	0.657919	-0.106345	-0.230894	-0.097720	-0.180498	-0.795166	0.021240	0.465332	0.096935	0.000756	-0.008280	0.053021	-0.736731	-0.113738	-0.664440	146.760243	-82.344686	46.813970
11839		9.552655	-0.264864	-1.146648	-0.298479	0.930546	-0.237557	0.000301	-0.095023	-0.172766	-0.796631	0.024902	0.468994	0.095530	-0.002731	-0.011421	0.052429	-0.736969	-0.114394	-0.664110	146.409516	-82.244017	47.170647
11840		9.478137	-0.149340	-1.430749	-0.546257	0.762499	-0.272006	0.224222	-0.095464	-0.184278	-0.796387	0.030518	0.467773	0.094787	-0.001565	-0.014264	0.052632	-0.737161	-0.115825	-0.663633	146.179941	-82.137950	47.534777
11841		9.475835	0.259401	-1.535391	-0.542715	0.357654	-0.231786	0.366049	-0.094605	-0.199030	-0.790527	0.018799	0.467529	0.094768	0.002528	-0.015304	0.053300	-0.737283	-0.117791	-0.663098	145.964095	-82.028654	47.967031
11842		9.579415	0.641295	-1.510839	-0.407020	0.019608	-0.102229	0.411592	-0.101255	-0.202934	-0.793945	0.024658	0.470459	0.095808	0.006347	-0.015047	0.054139	-0.737429	-0.119902	-0.662489	145.818538	-81.914474	48.355025
11843		9.648941	0.951644	-1.345951	-0.154415	-0.217888	-0.027601	0.383844	-0.097454	-0.187308	-0.792480	0.025635	0.469238	0.096505	0.009452	-0.013394	0.054909	-0.737555	-0.121883	-0.661923	145.674403	-81.807274	48.725379
11844		9.643232	1.253387	-1.199974	0.072627	-0.458748	-0.025599	0.253749	-0.099627	-0.172738	-0.800781	0.028076	0.472412	0.096449	0.012466	-0.011936	0.055265	-0.737752	-0.123362	-0.661399	145.546764	-81.702903	49.004170
11845		9.578990	1.461298	-1.163622	0.163803	-0.640437	-0.075673	0.042622	-0.116152	-0.162937	-0.791748	0.018555	0.479980	0.095809	0.014537	-0.011577	0.054846	-0.738045	-0.124128	-0.660964	145.340232	-81.594524	49.240190
11846		9.576205	1.341616	-1.100525	0.202182	-0.492342	-0.095101	-0.189542	-0.134485	-0.149563	-0.789063	0.025391	0.470215	0.095779	0.013334	-0.010954	0.053612	-0.738499	-0.124076	-0.660568	145.118254	-81.479027	49.357918
11847		9.599621	0.816653	-1.154076	0.026510	0.021855	-0.109579	-0.359780	-0.144708	-0.139402	-0.786865	0.010254	0.476807	0.096010	0.008079	-0.011486	0.051767	-0.739007	-0.123434	-0.660268	144.828846	-81.364706	49.444725
11848		9.793776	0.271407	-1.206144	-0.132183	0.577586	0.041011	-0.408801	-0.156467	-0.140729	-0.782959	0.018311	0.480225	0.097949	0.002621	-0.011990	0.049729	-0.739585	-0.122635	-0.659925	144.556016	-81.241498	49.486367
11849		9.792898	-0.070192	-1.257714	-0.255843	0.917029	0.014885	-0.382578	-0.157345	-0.157767	-0.786377	0.018066	0.480225	0.097938	-0.000803	-0.012499	0.047731	-0.740123	-0.121987	-0.659590	144.235448	-81.115032	49.591544
11850		9.846026	-0.102558	-1.343001	-0.328277	0.957821	0.073321	-0.292734	-0.157446	-0.183887	-0.782959	0.021484	0.474854	0.098470	-0.001136	-0.013351	0.046013	-0.740668	-0.121702	-0.659153	143.954969	-80.977417	49.709315
11851		9.809750	-0.008204	-1.320357	-0.277237	0.892595	0.041294	-0.180198	-0.148912	-0.213518	-0.782959	0.009033	0.478271	0.098107	-0.000199	-0.013130	0.044586	-0.741091	-0.121925	-0.658734	143.583483	-80.835794	49.983572
11852		9.790616	0.182851	-1.397809	-0.298472	0.713032	0.048647	-0.066972	-0.144608	-0.241945	-0.776367	0.004883	0.474365	0.097918	0.001705	-0.013908	0.043535	-0.741478	-0.122580	-0.658247	143.245338	-80.688949	50.290709
11853		9.822033	0.539388	-1.345721	-0.150955	0.411184	0.106098	0.032751	-0.142845	-0.257986	-0.783691	-0.002930	0.480225	0.098237	0.005269	-0.013386	0.042754	-0.741804	-0.123668	-0.657728	142.879420	-80.534277	50.683230
11854		9.789676	0.863098	-1.352558	-0.073858	0.119693	0.106600	0.099541	-0.138995	-0.253269	-0.780273	0.001221	0.491943	0.097917	0.008514	-0.013453	0.042222	-0.742116	-0.124955	-0.657166	142.570679	-80.380320	51.055329
11855		9.795943	1.073202	-1.177144	0.156898	-0.017242	0.110667	0.130218	-0.144597	-0.237885	-0.780762	-0.000732	0.486328	0.097981	0.010623	-0.011694	0.041867	-0.742436	-0.126288	-0.656572	142.339679	-80.231196	51.367979
11856		9.839309	1.142431	-1.004788	0.357187	-0.015058	0.137131	0.116132	-0.146936	-0.217545	-0.790039	-0.000732	0.483887	0.098413	0.011323	-0.009969	0.041527	-0.742829	-0.127492	-0.655917	142.203767	-80.082362	51.576265
11857		9.944195	1.378533	-0.901654	0.537537	-0.181362	0.251032	0.045549	-0.166827	-0.211892	-0.786133	0.002686	0.495361	0.099464	0.013682	-0.008930	0.040929	-0.743253	-0.128455	-0.655286	142.049685	-79.932012	51.761832
11858		9.847164	1.545753	-0.964715	0.520089	-0.347101	0.182093	-0.080560	-0.179196	-0.200005	-0.781250	0.002197	0.480225	0.098496	0.015355	-0.009565	0.039918	-0.743764	-0.128941	-0.654673	141.906877	-79.781292	51.863192
11859		9.984011	1.518985	-1.198276	0.315086	-0.331595	0.346760	-0.188737	-0.183599	-0.190300	-0.773682	0.000977	0.490723	0.099865	0.015084	-0.011905	0.038509	-0.744301	-0.129059	-0.654123	141.714879	-79.630867	51.951041
11860		9.920544	1.222385	-1.380537	0.072255	-0.073803	0.277237	-0.284450	-0.194114	-0.158495	-0.779541	-0.016846	0.491455	0.099228	0.012126	-0.013726	0.036888	-0.744919	-0.128706	-0.653582	141.602310	-79.491229	51.903422
11861		9.815445	0.784290	-1.562396	-0.207143	0.314897	0.150094	-0.319417	-0.206088	-0.132547	-0.772461	-0.006592	0.495605	0.098176	0.007753	-0.015535	0.035167	-0.745587	-0.128186	-0.653017	141.523059	-79.351228	51.800496
11862		9.732709	0.792655	-1.541719	-0.179547	0.321425	0.066341	-0.354872	-0.219333	-0.135453	-0.773193	-0.013428	0.495605	0.097349	0.007833	-0.015324	0.033282	-0.746325	-0.127563	-0.652395	141.452604	-79.200313	51.667141
11863		9.743442	0.745883	-1.776327	-0.400928	0.340639	0.105453	-0.359645	-0.221623	-0.146781	-0.776611	-0.022705	0.485352	0.097459	0.007355	-0.017669	0.031353	-0.747034	-0.126966	-0.651795	141.345302	-79.048311	51.569204
11864		9.819069	0.768689	-1.801144	-0.396261	0.349646	0.185801	-0.318097	-0.218844	-0.165292	-0.769531	-0.019043	0.495850	0.098217	0.007577	-0.017916	0.029503	-0.747704	-0.126568	-0.651190	141.203116	-78.891258	51.528921
11865		9.832642	0.581092	-1.825361	-0.445568	0.552959	0.179614	-0.273250	-0.216664	-0.163983	-0.769287	-0.021729	0.492432	0.098351	0.005705	-0.018155	0.027845	-0.748367	-0.126315	-0.650550	141.098026	-78.735371	51.479079
11866		9.687263	0.565772	-1.951682	-0.572166	0.543208	0.053908	-0.255152	-0.229950	-0.149609	-0.757324	-0.028809	0.498291	0.096899	0.005560	-0.019413	0.026301	-0.749086	-0.126049	-0.649838	141.071158	-78.579411	51.359423
11867		9.576715	0.359694	-2.062864	-0.720817	0.724599	-0.063146	-0.255994	-0.246357	-0.111786	-0.763428	-0.026855	0.493896	0.095794	0.003517	-0.020515	0.024857	-0.749871	-0.125659	-0.649065	141.142183	-78.429070	51.139898
