// General information: 
//  MT Manager version: 2019.2.0 
//  XDA version: 2019.2.0 build 3853 rev 94535 built on 2019-09-09
// Device information: 
//  DeviceId: 00B47786
//  ProductCode: MTW2-3A7G6
//  Firmware Version: 4.6.0
//  Hardware Version: 2.0.0
// Device settings: 
//  Filter Profile: human(46.1)
//  Option Flags: Orientation Smoother Disabled, AHS Disabled, ICC Disabled
// Coordinate system: ENU
PacketCounter	SampleTimeFine	Acc_X	Acc_Y	Acc_Z	FreeAcc_E	FreeAcc_N	FreeAcc_U	Gyr_X	Gyr_Y	Gyr_Z	Mag_X	Mag_Y	Mag_Z	VelInc_X	VelInc_Y	VelInc_Z	Quat_q0	Quat_q1	Quat_q2	Quat_q3	Roll	Pitch	Yaw
36899		9.459433	0.218422	-2.004627	0.109470	0.279143	-0.145361	0.059129	0.013928	0.007954	-0.800781	-0.014893	0.519287	0.094593	0.002194	-0.020052	-0.003766	-0.780061	-0.035807	-0.624667	167.019357	-76.978832	15.593928
36900		9.498654	0.064198	-2.002343	0.112046	0.431570	-0.115311	0.124844	0.017110	0.012605	-0.797119	-0.011719	0.523926	0.094985	0.000660	-0.020031	-0.003210	-0.780044	-0.036099	-0.624674	167.143376	-76.985998	15.539100
36901		9.492858	0.216340	-1.993103	0.128114	0.275009	-0.115184	0.185988	0.004558	0.002888	-0.794678	-0.010010	0.523926	0.094928	0.002183	-0.019931	-0.002446	-0.780065	-0.036622	-0.624621	167.285419	-76.984963	15.502052
36902		9.528461	0.427668	-1.970770	0.171493	0.063637	-0.074877	0.192824	-0.018855	-0.023182	-0.802246	-0.008057	0.523682	0.095287	0.004285	-0.019695	-0.001744	-0.780154	-0.037265	-0.624474	167.381636	-76.967390	15.515600
36903		9.563923	0.601740	-1.995637	0.169166	-0.110013	-0.026342	0.158287	-0.033884	-0.042619	-0.792969	-0.007324	0.525635	0.095644	0.006013	-0.019935	-0.001238	-0.780285	-0.037879	-0.624275	167.418626	-76.939145	15.570092
36904		9.496495	0.577189	-2.070942	0.084977	-0.092454	-0.076693	0.108802	-0.038721	-0.041996	-0.793213	-0.003418	0.521729	0.094970	0.005763	-0.020688	-0.000924	-0.780431	-0.038334	-0.624065	167.432063	-76.908152	15.619481
36905		9.583079	0.489209	-2.207716	-0.029870	-0.005012	0.033521	0.082088	-0.027841	-0.032654	-0.799316	-0.010742	0.529297	0.095835	0.004885	-0.022062	-0.000683	-0.780544	-0.038672	-0.623903	167.446256	-76.884537	15.652565
36906		9.618697	0.625323	-2.277097	-0.077821	-0.140972	0.090323	0.108592	-0.018087	-0.046414	-0.797852	-0.000732	0.519531	0.096190	0.006243	-0.022759	-0.000380	-0.780625	-0.039143	-0.623773	167.438084	-76.864530	15.724015
36907		9.614267	0.538020	-2.158213	0.034486	-0.046897	0.055346	0.053043	-0.010923	-0.041722	-0.799805	-0.007568	0.520020	0.096145	0.005366	-0.021575	-0.000277	-0.780683	-0.039426	-0.623683	167.405011	-76.849241	15.788554
36908		9.480561	0.368224	-2.112230	0.040408	0.117326	-0.093493	0.004864	0.015851	-0.012793	-0.797607	-0.004639	0.527344	0.094804	0.003677	-0.021130	-0.000265	-0.780662	-0.039446	-0.623707	167.399937	-76.852567	15.796243
36909		9.340205	0.335369	-2.109639	0.009580	0.140148	-0.232356	0.037293	0.019145	0.010164	-0.806152	-0.007080	0.529541	0.093400	0.003362	-0.021105	-0.000056	-0.780637	-0.039476	-0.623737	167.466039	-76.860565	15.749671
36910		9.309457	0.578811	-2.062019	0.065116	-0.104517	-0.260842	0.057504	-0.010945	-0.000042	-0.802246	-0.004150	0.525391	0.093096	0.005794	-0.020613	0.000194	-0.780704	-0.039608	-0.623645	167.535925	-76.850334	15.711021
36911		9.378247	0.775339	-2.025525	0.131247	-0.294553	-0.192322	0.000355	-0.035735	-0.025752	-0.802490	-0.006348	0.530762	0.093787	0.007741	-0.020238	0.000136	-0.780842	-0.039664	-0.623468	167.523968	-76.823168	15.722876
36912		9.598456	0.502542	-1.965629	0.225356	-0.003175	-0.004741	-0.108475	-0.044685	-0.027756	-0.812012	-0.003662	0.527100	0.095990	0.005001	-0.019638	-0.000354	-0.781008	-0.039387	-0.623278	167.450300	-76.790657	15.734020
36913		9.677781	0.141268	-2.001664	0.190243	0.363888	0.062405	-0.076542	-0.040563	-0.027329	-0.800293	-0.007813	0.524170	0.096782	0.001392	-0.019998	-0.000719	-0.781161	-0.039209	-0.623097	167.393368	-76.760589	15.746819
36914		9.524834	0.201431	-1.884457	0.279583	0.302599	-0.109879	0.020799	-0.052496	-0.030366	-0.797119	-0.007324	0.530518	0.095254	0.002002	-0.018819	-0.000714	-0.781350	-0.039346	-0.622851	167.392004	-76.723526	15.759809
36915		9.358171	0.516111	-1.850810	0.301493	-0.017969	-0.264075	0.074548	-0.069747	-0.042008	-0.787354	-0.007324	0.532959	0.093589	0.005148	-0.018474	-0.000539	-0.781591	-0.039696	-0.622527	167.402482	-76.675303	15.792299
36916		9.357385	0.751599	-1.853520	0.321937	-0.250728	-0.252637	0.045729	-0.089067	-0.038447	-0.791992	-0.010742	0.524658	0.093584	0.007502	-0.018492	-0.000470	-0.781894	-0.039940	-0.622130	167.415718	-76.616486	15.804807
36917		9.442784	0.761410	-1.854885	0.350268	-0.252964	-0.169046	-0.019617	-0.101381	-0.022424	-0.798828	-0.004883	0.524170	0.094438	0.007602	-0.018502	-0.000609	-0.782237	-0.039920	-0.621701	167.434886	-76.553020	15.772913
36918		9.517878	0.643934	-2.010351	0.218887	-0.136575	-0.066940	-0.075292	-0.101052	-0.010849	-0.800537	-0.006348	0.536865	0.095189	0.006427	-0.020058	-0.000931	-0.782580	-0.039679	-0.621283	167.449164	-76.491240	15.712807
36919		9.484965	0.498943	-2.154928	0.072357	0.001494	-0.073489	-0.097768	-0.104454	-0.012560	-0.791016	-0.010742	0.534668	0.094861	0.004973	-0.021502	-0.001346	-0.782933	-0.039378	-0.620857	167.447646	-76.427280	15.656115
36920		9.362641	0.411017	-2.270653	-0.062052	0.079571	-0.170402	-0.099235	-0.116603	-0.024852	-0.791260	-0.008057	0.534180	0.093640	0.004087	-0.022654	-0.001808	-0.783322	-0.039117	-0.620381	167.423398	-76.354839	15.621665
36921		9.374571	0.217239	-2.424543	-0.208478	0.271241	-0.133269	-0.102127	-0.122301	-0.032208	-0.789307	-0.017822	0.538086	0.093761	0.002145	-0.024189	-0.002304	-0.783726	-0.038880	-0.619885	167.383026	-76.278456	15.602357
36922		9.416274	0.114642	-2.540207	-0.304734	0.375760	-0.071130	-0.059929	-0.124889	-0.031139	-0.789307	-0.017578	0.536865	0.094179	0.001124	-0.025344	-0.002637	-0.784139	-0.038761	-0.619368	167.370965	-76.200584	15.577751
36923		9.373884	0.093205	-2.462620	-0.227577	0.401393	-0.131263	0.036887	-0.122363	-0.043570	-0.784424	-0.007080	0.535889	0.093754	0.000916	-0.024569	-0.002624	-0.784541	-0.038998	-0.618843	167.384405	-76.122746	15.585040
36924		9.376367	0.315690	-2.350204	-0.091426	0.187449	-0.143362	0.110587	-0.135457	-0.056697	-0.797119	-0.016602	0.531250	0.093780	0.003143	-0.023437	-0.002367	-0.784984	-0.039509	-0.618251	167.417480	-76.035784	15.614884
36925		9.414790	0.569879	-2.388319	-0.089377	-0.062483	-0.083598	0.138895	-0.147351	-0.065316	-0.799805	-0.015625	0.539063	0.094167	0.005685	-0.023810	-0.002026	-0.785459	-0.040147	-0.617607	167.452893	-75.941263	15.659770
36926		9.428204	0.679881	-2.391970	-0.067316	-0.168707	-0.063750	0.126891	-0.144242	-0.060516	-0.789551	-0.010498	0.539063	0.094301	0.006785	-0.023847	-0.001726	-0.785925	-0.040714	-0.616978	167.490799	-75.849258	15.693042
36927		9.355716	0.605708	-2.310517	0.005310	-0.093633	-0.157327	0.116053	-0.137184	-0.045380	-0.787354	-0.007568	0.541992	0.093574	0.006049	-0.023037	-0.001410	-0.786371	-0.041203	-0.616377	167.552262	-75.762909	15.697593
36928		9.385560	0.498959	-2.186792	0.140538	0.021701	-0.163878	0.114117	-0.140624	-0.031909	-0.788818	-0.009521	0.542236	0.093872	0.004987	-0.021799	-0.001061	-0.786830	-0.041631	-0.615763	167.644083	-75.676213	15.669585
36929		9.580409	0.568946	-2.103517	0.287752	-0.030771	0.008155	0.138493	-0.147042	-0.028069	-0.780762	-0.009277	0.541260	0.095820	0.005691	-0.020961	-0.000606	-0.787309	-0.042121	-0.615117	167.759923	-75.586462	15.631279
36930		9.721658	1.039529	-2.048095	0.423461	-0.486530	0.155758	0.168827	-0.158529	-0.054269	-0.780762	-0.009033	0.550049	0.097236	0.010386	-0.020395	-0.000116	-0.787818	-0.042803	-0.614419	167.841307	-75.487019	15.646047
36931		9.564283	1.297626	-2.039942	0.428267	-0.751061	0.014478	0.024090	-0.158695	-0.042857	-0.787354	-0.015869	0.537109	0.095662	0.012958	-0.020322	-0.000160	-0.788327	-0.043000	-0.613751	167.863698	-75.388933	15.636534
36932		9.406810	0.880660	-2.048088	0.368997	-0.343658	-0.158464	-0.141222	-0.145164	0.002182	-0.785156	-0.007813	0.548340	0.094083	0.008793	-0.020419	-0.000721	-0.788805	-0.042501	-0.613172	167.881546	-75.303839	15.532349
36933		9.335723	0.492751	-2.057255	0.331120	0.038786	-0.246096	-0.143911	-0.150381	0.031985	-0.775146	-0.001953	0.544922	0.093372	0.004928	-0.020506	-0.001196	-0.789304	-0.041887	-0.612572	167.962724	-75.219381	15.362509
36934		9.439543	0.391520	-2.008123	0.413186	0.148749	-0.163959	-0.083185	-0.164677	0.024196	-0.772949	-0.001953	0.548584	0.094411	0.003918	-0.020005	-0.001451	-0.789844	-0.041495	-0.611901	168.067690	-75.125836	15.205004
36935		9.662053	0.469996	-1.829803	0.664052	0.094522	0.009451	-0.042950	-0.198983	-0.003215	-0.776367	-0.013672	0.550049	0.096639	0.004694	-0.018203	-0.001644	-0.790483	-0.041328	-0.611086	168.150961	-75.009832	15.092714
36936		9.806075	0.492420	-1.736673	0.812956	0.088131	0.124561	-0.028062	-0.222687	-0.015619	-0.776611	-0.017822	0.547363	0.098080	0.004914	-0.017258	-0.001820	-0.791191	-0.041258	-0.610173	168.226162	-74.878926	14.997870
36937		9.612018	0.387876	-1.727626	0.789472	0.181202	-0.072570	-0.006987	-0.234462	-0.003400	-0.774658	-0.009521	0.554932	0.096140	0.003877	-0.017164	-0.001879	-0.791936	-0.041201	-0.609209	168.341637	-74.742908	14.873426
36938		9.253768	0.440541	-1.591125	0.858103	0.111337	-0.452709	0.091835	-0.260249	-0.010596	-0.784180	-0.008301	0.554688	0.092559	0.004408	-0.015789	-0.001582	-0.792759	-0.041463	-0.608122	168.507477	-74.591578	14.753942
36939		9.193904	0.434123	-1.463762	0.992899	0.119650	-0.546690	0.125680	-0.306649	-0.008497	-0.776367	-0.007813	0.560059	0.091962	0.004346	-0.014494	-0.001146	-0.793720	-0.041830	-0.606842	168.712800	-74.414255	14.614956
36940		9.376515	0.291606	-1.734575	0.802764	0.260507	-0.310034	0.143603	-0.357263	-0.011632	-0.774414	-0.005127	0.562988	0.093796	0.002923	-0.017176	-0.000659	-0.794832	-0.042262	-0.605356	168.938371	-74.208194	14.465412
36941		9.347971	0.360510	-2.022273	0.559940	0.174883	-0.259684	0.232439	-0.385156	-0.024117	-0.769531	-0.002441	0.566406	0.093519	0.003617	-0.020038	0.000137	-0.796022	-0.043013	-0.603737	169.195401	-73.984718	14.335987
36942		9.281757	0.741011	-2.138511	0.497377	-0.215073	-0.274367	0.268905	-0.418958	-0.046432	-0.765137	-0.000488	0.559570	0.092864	0.007417	-0.021181	0.001009	-0.797305	-0.043967	-0.601972	169.437580	-73.739752	14.244396
36943		9.371819	0.967617	-2.297323	0.429501	-0.441413	-0.134594	0.218871	-0.436821	-0.064809	-0.762939	0.003906	0.566162	0.093771	0.009671	-0.022758	0.001617	-0.798633	-0.044840	-0.600144	169.617181	-73.482652	14.187260
36944		9.602613	0.974101	-2.462234	0.380830	-0.436677	0.131444	0.125753	-0.440271	-0.066834	-0.752441	0.000732	0.566162	0.096083	0.009724	-0.024405	0.001856	-0.799965	-0.045451	-0.598320	169.738246	-73.223650	14.137142
36945		9.673139	0.738442	-2.464081	0.425274	-0.192434	0.185741	0.056035	-0.415787	-0.031184	-0.750977	-0.002930	0.585938	0.096783	0.007376	-0.024438	0.001918	-0.801230	-0.045700	-0.596605	169.874085	-72.981746	14.028082
36946		9.359057	0.550350	-2.451051	0.375688	-0.024523	-0.129681	0.062439	-0.399590	-0.001698	-0.751465	0.001709	0.582764	0.093639	0.005510	-0.024322	0.002103	-0.802451	-0.045855	-0.594950	170.058950	-72.751723	13.872195
36947		9.067057	0.503368	-2.474879	0.305925	-0.000329	-0.405446	0.100101	-0.422657	0.012114	-0.748047	0.004639	0.587402	0.090722	0.005051	-0.024555	0.002469	-0.803739	-0.046062	-0.593191	170.292336	-72.509973	13.687105
36948		9.312740	0.613167	-2.633953	0.278485	-0.100959	-0.119758	0.129403	-0.465725	-0.036522	-0.752197	0.001709	0.586426	0.093190	0.006132	-0.026119	0.002810	-0.805139	-0.046563	-0.591249	170.464158	-72.238919	13.585835
36949		9.740019	0.581877	-2.893274	0.204879	-0.049871	0.362425	0.113005	-0.491906	-0.073891	-0.739014	0.002930	0.583984	0.097473	0.005799	-0.028690	0.002958	-0.806602	-0.047154	-0.589203	170.564682	-71.949591	13.547589
36950		10.049687	0.094309	-3.023395	0.186991	0.455311	0.670801	0.144785	-0.479816	-0.047645	-0.735596	0.003662	0.591309	0.100569	0.000941	-0.029992	0.003320	-0.808029	-0.047739	-0.587196	170.722882	-71.669722	13.468732
36951		10.144289	-0.353995	-2.810850	0.431625	0.921705	0.670478	0.314656	-0.467106	-0.027850	-0.739990	0.001709	0.593018	0.101508	-0.003510	-0.027877	0.004423	-0.809416	-0.048736	-0.585193	171.003724	-71.398547	13.362066
36952		9.924112	-0.380085	-2.398986	0.800235	0.953364	0.328226	0.521917	-0.482720	-0.037276	-0.729492	0.013428	0.609131	0.099298	-0.003757	-0.023760	0.006337	-0.810832	-0.050379	-0.583072	171.385749	-71.117694	13.274276
36953		9.604865	-0.245736	-1.950907	1.184726	0.822401	-0.115279	0.606528	-0.519283	-0.055884	-0.728027	0.015381	0.604248	0.096098	-0.002426	-0.019267	0.008527	-0.812337	-0.052343	-0.580772	171.787272	-70.814190	13.216493
36954		9.426339	-0.293835	-1.709007	1.402819	0.873967	-0.371768	0.576825	-0.566623	-0.078214	-0.720459	0.010742	0.612305	0.094310	-0.002926	-0.016831	0.010534	-0.813961	-0.054329	-0.578277	172.140829	-70.481754	13.194015
36955		9.232918	-0.387010	-1.531255	1.552478	0.968864	-0.626168	0.532880	-0.628817	-0.087484	-0.718750	0.020508	0.620361	0.092375	-0.003870	-0.015032	0.012304	-0.815751	-0.056211	-0.575534	172.460959	-70.113421	13.177628
36956		9.170453	-0.618570	-1.355129	1.731962	1.215373	-0.766194	0.457685	-0.715210	-0.102857	-0.708984	0.019531	0.618408	0.091749	-0.006202	-0.013237	0.013702	-0.817776	-0.057947	-0.572448	172.726779	-69.694681	13.173818
36957		9.253265	-0.799317	-1.246421	1.908838	1.422523	-0.749151	0.380905	-0.829971	-0.138217	-0.704346	0.022705	0.620850	0.092578	-0.008034	-0.012095	0.014647	-0.820107	-0.059612	-0.568908	172.911749	-69.208331	13.208694
36958		9.304489	-0.858336	-1.178153	2.060888	1.508637	-0.747676	0.299261	-0.952005	-0.166662	-0.702148	0.016357	0.630859	0.093092	-0.008644	-0.011351	0.015145	-0.822762	-0.061171	-0.564881	173.028562	-68.650785	13.267253
36959		9.560615	-0.809907	-1.193335	2.231821	1.503410	-0.525963	0.234285	-1.049887	-0.203582	-0.690918	0.020508	0.629150	0.095659	-0.008183	-0.011441	0.015236	-0.825666	-0.062701	-0.560458	173.071198	-68.034879	13.365147
36960		9.920388	-0.727074	-1.253600	2.418351	1.475912	-0.195704	0.163162	-1.164899	-0.241594	-0.685547	0.012939	0.654541	0.099266	-0.007381	-0.011964	0.014887	-0.828855	-0.064187	-0.555569	173.043101	-67.351427	13.494926
36961		10.234265	-0.710051	-1.296158	2.612608	1.518426	0.076279	0.135928	-1.241888	-0.265600	-0.677734	0.019531	0.649902	0.102411	-0.007228	-0.012331	0.014337	-0.832223	-0.065709	-0.550347	172.984684	-66.621985	13.642338
36962		10.566449	-0.915520	-1.122008	2.996258	1.808885	0.261820	0.131676	-1.287724	-0.276909	-0.663574	0.022217	0.666016	0.105721	-0.009294	-0.010546	0.013717	-0.835676	-0.067254	-0.544916	172.923664	-65.866090	13.789380
36963		10.598585	-1.171197	-1.191093	3.042623	2.099377	0.259735	0.216145	-1.374597	-0.279177	-0.653564	0.013428	0.679688	0.106048	-0.011848	-0.011195	0.013419	-0.839321	-0.069054	-0.539065	172.926724	-65.060144	13.921474
36964		10.216933	-1.192626	-0.961977	3.222962	2.144876	-0.234395	0.349645	-1.457960	-0.297714	-0.638672	0.025146	0.679688	0.102218	-0.012062	-0.008896	0.013600	-0.843128	-0.071282	-0.532793	173.000702	-64.206075	14.059622
36965		10.095992	-1.337125	-0.749817	3.477934	2.337924	-0.500586	0.398714	-1.580304	-0.304004	-0.626465	0.020752	0.689941	0.100995	-0.013511	-0.006727	0.013928	-0.847203	-0.073683	-0.525951	173.113819	-63.281542	14.187534
36966		10.406178	-1.260593	-0.730120	3.787583	2.345367	-0.296305	0.485245	-1.735620	-0.361968	-0.610596	0.025146	0.697998	0.104097	-0.012778	-0.006429	0.014413	-0.851590	-0.076551	-0.518388	173.235125	-62.265742	14.362364
36967		10.773209	-0.552135	-0.666200	4.276486	1.752851	-0.043020	0.495108	-1.878038	-0.443555	-0.600586	0.023438	0.705566	0.107776	-0.005745	-0.005664	0.014672	-0.856239	-0.079806	-0.510168	173.296393	-61.162631	14.614227
36968		10.962929	-0.270890	-0.576972	4.665369	1.577050	0.002362	0.246042	-1.985301	-0.477613	-0.584717	0.009766	0.712891	0.109673	-0.002965	-0.004685	0.013732	-0.861074	-0.082557	-0.501545	173.205080	-59.997325	14.879062
36969		11.211556	-0.500531	-1.051743	4.535298	1.860222	0.337264	-0.045802	-2.084920	-0.456989	-0.564941	0.014648	0.733887	0.112205	-0.005264	-0.009347	0.011547	-0.866096	-0.084499	-0.492549	172.993088	-58.775270	15.094162
36970		11.467582	-1.020777	-1.273390	4.602299	2.461088	0.527786	-0.253971	-2.153572	-0.409547	-0.549316	0.013916	0.736084	0.114783	-0.010458	-0.011485	0.008538	-0.871214	-0.085689	-0.483292	172.731029	-57.518499	15.227826
36971		11.712302	-2.191008	-1.613049	4.484878	3.692265	0.714758	-0.488006	-2.226415	-0.355196	-0.524170	0.005371	0.747314	0.117253	-0.022155	-0.014772	0.004617	-0.876432	-0.086097	-0.473744	172.404991	-56.222639	15.282515
36972		12.313944	-3.670117	-1.676750	4.770399	5.304619	1.004484	-0.470580	-2.276418	-0.270848	-0.515869	0.003662	0.753418	0.123269	-0.036905	-0.015278	0.000946	-0.881681	-0.086140	-0.463915	172.176860	-54.906346	15.229095
36973		12.538694	-4.063575	-1.499480	5.236590	5.807115	0.903073	-0.246747	-2.357597	-0.271843	-0.487061	-0.010986	0.768799	0.125496	-0.040824	-0.013466	-0.001771	-0.886997	-0.086720	-0.453555	172.087002	-53.542380	15.164828
36974		13.092418	-4.690647	-2.046621	5.285652	6.537412	1.453062	-0.104492	-2.470029	-0.331619	-0.459961	-0.005859	0.775391	0.131085	-0.047134	-0.018823	-0.004046	-0.892408	-0.087842	-0.442579	172.046521	-52.111814	15.136804
36975		12.832682	-2.896874	-3.364424	4.650012	4.718869	2.040113	0.341358	-2.638875	-0.544417	-0.435791	-0.004639	0.784668	0.128677	-0.029263	-0.031998	-0.004871	-0.897958	-0.090913	-0.430561	172.124225	-50.566749	15.286972
36976		12.255921	-0.846177	-5.419745	3.348579	2.563769	2.934849	0.396951	-2.791585	-0.715775	-0.415039	-0.011230	0.795654	0.123269	-0.008797	-0.052497	-0.005889	-0.903579	-0.094812	-0.417757	172.139715	-48.923817	15.560442
36977		11.416056	0.574849	-7.347763	1.945026	1.002903	3.597957	0.371492	-2.738600	-0.772447	-0.381348	-0.011230	0.804199	0.115174	0.005439	-0.071895	-0.007108	-0.908876	-0.098935	-0.405101	172.110554	-47.304315	15.884667
36978		10.742120	2.117613	-8.228362	1.477652	-0.582814	3.790588	0.371433	-2.565408	-0.710089	-0.365967	-0.007568	0.806396	0.108539	0.020943	-0.080857	-0.008118	-0.913674	-0.102719	-0.393171	172.119164	-45.790279	16.161577
36979		9.606089	3.255515	-8.577492	0.994345	-1.854177	3.302738	0.155058	-2.272732	-0.270385	-0.337891	-0.001953	0.820801	0.097071	0.032490	-0.084650	-0.009096	-0.917972	-0.104108	-0.382629	172.238201	-44.474571	16.118101
36980		7.717305	2.279667	-9.163168	-0.629677	-1.239943	2.302528	-0.351455	-2.060082	0.015074	-0.320801	-0.018311	0.830322	0.078110	0.022642	-0.090870	-0.011745	-0.921877	-0.103173	-0.373311	172.206206	-43.304021	15.869562
36981		6.697340	1.284447	-10.366818	-2.134520	-0.457485	2.402273	-0.318428	-1.838379	-0.067222	-0.309570	-0.020996	0.826416	0.067927	0.012657	-0.103067	-0.014275	-0.925237	-0.102723	-0.364938	172.127086	-42.250728	15.716501
36982		6.184015	0.896495	-10.999799	-2.796876	-0.148682	2.523976	0.074071	-1.597449	-0.217812	-0.284424	-0.021729	0.829346	0.062726	0.008938	-0.109496	-0.015142	-0.928036	-0.103656	-0.357456	172.177658	-41.324679	15.700236
36983		5.623218	1.179392	-10.773886	-2.826491	-0.500521	2.055191	0.359110	-1.234103	-0.329681	-0.275146	-0.017822	0.842773	0.056915	0.011893	-0.107368	-0.014695	-0.930100	-0.105679	-0.351468	172.309185	-40.593999	15.812517
36984		4.856997	1.918492	-10.525342	-2.951756	-1.365715	1.477780	0.399378	-0.914678	-0.297748	-0.264893	-0.025879	0.832764	0.049079	0.019322	-0.104991	-0.013836	-0.931588	-0.107604	-0.346949	172.460020	-40.049477	15.929105
36985		3.583202	2.802200	-10.800053	-3.796916	-2.515704	0.984847	0.304994	-0.726727	-0.131452	-0.256836	-0.024414	0.837402	0.036243	0.028163	-0.107826	-0.013026	-0.932814	-0.108641	-0.343345	172.622703	-39.622237	15.946961
36986		2.217328	3.548651	-11.373857	-4.953530	-3.572630	0.654999	0.240628	-0.612315	0.049808	-0.248535	-0.022705	0.827637	0.022512	0.035629	-0.113627	-0.012143	-0.933924	-0.108692	-0.340330	172.826687	-39.275163	15.839209
36987		1.136561	3.939615	-11.542539	-5.726105	-4.209969	0.163788	0.313831	-0.478664	0.125390	-0.243896	-0.024414	0.839844	0.011617	0.039584	-0.115336	-0.010716	-0.934844	-0.108558	-0.337887	173.096854	-39.007127	15.695074
36988		0.567151	3.489346	-10.367141	-5.453604	-3.860478	-1.133429	0.431733	-0.130384	0.110237	-0.245850	-0.017822	0.830811	0.005720	0.035120	-0.103592	-0.008576	-0.935165	-0.108681	-0.337017	173.408009	-38.937324	15.590372
36989		0.513585	2.355662	-9.181572	-4.954947	-2.745703	-2.195372	0.576036	0.277656	-0.008287	-0.239746	-0.013428	0.833496	0.005009	0.023821	-0.091754	-0.005737	-0.934735	-0.109648	-0.337957	173.724696	-39.090151	15.610590
36990		1.449395	1.458152	-7.487080	-3.376504	-1.622491	-3.011975	0.635457	0.654722	-0.077179	-0.247070	-0.017090	0.835449	0.014255	0.014814	-0.074871	-0.002532	-0.933616	-0.111021	-0.340630	174.025926	-39.455037	15.706971
36991		2.491985	1.000639	-6.728205	-2.251997	-0.957459	-2.994235	0.594996	1.004694	-0.149884	-0.252686	-0.007568	0.837402	0.024589	0.010188	-0.067376	0.000557	-0.931836	-0.112692	-0.344938	174.251974	-40.014114	15.885671
36992		3.154967	0.439792	-6.828402	-2.012786	-0.334484	-2.559396	0.607062	1.291944	-0.108249	-0.271484	0.007568	0.828857	0.031110	0.004589	-0.068472	0.003933	-0.929543	-0.114161	-0.350572	174.491531	-40.741113	16.050016
36993		3.339009	-0.012185	-7.192054	-2.301051	0.042241	-2.224753	0.767819	1.482275	0.032602	-0.282715	0.005371	0.827637	0.032856	0.000160	-0.072165	0.008414	-0.926940	-0.115269	-0.356966	174.884248	-41.583618	16.120794
36994		3.131218	0.134929	-7.353151	-2.622645	-0.254746	-2.266400	1.038043	1.625745	0.122700	-0.290039	0.008545	0.830566	0.030712	0.001751	-0.073774	0.014388	-0.924045	-0.116404	-0.363846	175.477900	-42.513944	16.119732
36995		2.518087	0.790111	-7.225602	-2.922786	-1.119986	-2.785962	1.271595	1.876039	0.165338	-0.305908	0.017090	0.821289	0.024495	0.008382	-0.072436	0.021664	-0.920601	-0.117760	-0.371694	176.227711	-43.587873	16.087723
36996		1.621470	1.214192	-7.082011	-3.447854	-1.815629	-3.561966	1.199950	2.095281	0.218714	-0.320557	0.028320	0.819580	0.015459	0.012584	-0.070910	0.028834	-0.916663	-0.118674	-0.380545	176.974318	-44.789629	16.000371
36997		1.299329	1.360420	-7.117428	-3.756458	-2.132009	-3.851321	0.833853	2.166724	0.302858	-0.337402	0.034180	0.812256	0.012201	0.013920	-0.071252	0.034525	-0.912562	-0.118502	-0.389866	177.574025	-46.032762	15.828289
36998		1.707877	1.206359	-7.144392	-3.651488	-1.994106	-3.639987	0.486591	2.217179	0.364522	-0.352539	0.040283	0.805664	0.016263	0.012268	-0.071598	0.038776	-0.908337	-0.117327	-0.399568	178.029486	-47.305804	15.583060
36999		2.773362	0.677703	-6.935563	-3.066100	-1.329692	-3.098445	0.407219	2.358929	0.385147	-0.366455	0.038818	0.796875	0.026900	0.006971	-0.069662	0.042787	-0.903731	-0.115875	-0.409893	178.468300	-48.658221	15.305642
37000		4.323548	0.284455	-6.702073	-2.162739	-0.724499	-2.165085	0.485275	2.537423	0.365172	-0.395508	0.046143	0.781982	0.042375	0.003086	-0.067555	0.047205	-0.898588	-0.114601	-0.420925	178.959876	-50.111728	15.022206
37001		6.088198	0.851966	-6.715666	-1.138676	-1.088387	-0.845768	0.561677	2.743321	0.284962	-0.415283	0.047363	0.776367	0.059941	0.008796	-0.067959	0.051908	-0.892783	-0.113795	-0.432775	179.463136	-51.680263	14.787620
37002		6.990214	2.281612	-7.205047	-0.860000	-2.542554	0.125617	0.388341	2.942846	0.335089	-0.436768	0.058594	0.763672	0.068794	0.023073	-0.073024	0.056047	-0.886433	-0.112299	-0.445515	179.932890	-53.362524	14.474040
37003		6.556650	4.096676	-7.421544	-1.111796	-4.519415	-0.159634	-0.152909	3.127487	0.493175	-0.457275	0.055420	0.746094	0.064294	0.041069	-0.075259	0.058231	-0.879703	-0.108834	-0.459224	-179.750071	-55.148536	13.974747
37004		4.387359	4.903368	-7.162078	-2.218036	-5.622984	-2.194286	-0.911778	3.313581	0.880721	-0.493652	0.055176	0.736084	0.042461	0.048893	-0.072555	0.058050	-0.872729	-0.101827	-0.473925	-179.493811	-57.038723	13.034900
37005		2.770334	4.932754	-7.509582	-3.670137	-5.929051	-3.506661	-1.767203	3.263028	1.175840	-0.519043	0.044434	0.717529	0.026181	0.048816	-0.075964	0.054791	-0.865973	-0.091495	-0.488587	-179.391216	-58.896226	11.718819
37006		2.613207	4.595018	-8.166714	-4.712269	-5.674416	-3.470788	-2.455901	3.161231	1.403701	-0.528809	0.033447	0.703857	0.024513	0.045115	-0.082621	0.049038	-0.859399	-0.078481	-0.502862	-179.373090	-60.693558	10.068668
37007		3.585070	3.479801	-7.926580	-4.595599	-4.352453	-2.905026	-2.804440	3.067042	1.528739	-0.561523	0.026855	0.688232	0.034363	0.033943	-0.080280	0.042042	-0.852793	-0.064044	-0.516599	-179.314475	-62.435331	8.174087
37008		5.695707	1.943995	-7.242018	-3.598683	-2.500632	-1.478849	-3.008905	2.914816	1.488641	-0.578613	0.006104	0.677734	0.055750	0.018757	-0.073524	0.034002	-0.846192	-0.049252	-0.529507	-179.293846	-64.089555	6.220229
37009		9.008838	-0.356016	-6.965185	-2.498358	0.044014	1.302517	-3.137443	2.752512	1.447335	-0.608643	-0.013428	0.648438	0.089147	-0.004018	-0.070822	0.025252	-0.839617	-0.034296	-0.541507	-179.268976	-65.650731	4.206561
37010		12.913982	-3.149311	-7.349022	-1.776291	2.924674	4.985310	-2.866666	2.739787	1.759160	-0.623535	-0.015137	0.632324	0.128398	-0.031427	-0.074802	0.018469	-0.832693	-0.018753	-0.553108	-178.519740	-67.195407	1.596899
37011		12.346989	-4.923166	-7.390202	-2.413561	4.605463	4.479173	-1.875158	2.883914	2.053979	-0.646729	-0.020752	0.611572	0.122893	-0.048669	-0.075219	0.016634	-0.824945	-0.004699	-0.564949	-176.492469	-68.789894	-1.748869
37012		8.980376	-2.432329	-6.019091	-2.544670	2.071078	0.771360	-0.708771	2.574002	1.839341	-0.666504	-0.009766	0.607178	0.089240	-0.023717	-0.061257	0.018990	-0.817696	0.005151	-0.575314	-173.742846	-70.164049	-5.118776
37013		8.472988	-0.449696	-5.052643	-1.989307	0.015337	-0.139964	-0.480055	1.959331	1.473307	-0.668457	-0.008545	0.587646	0.084260	-0.003998	-0.051343	0.021241	-0.812031	0.012788	-0.583087	-171.198623	-71.160468	-8.107116
37014		9.114798	-1.555792	-5.624143	-2.496321	0.987138	0.671703	-0.483711	1.568597	1.222121	-0.682373	-0.006836	0.578613	0.090797	-0.015139	-0.056918	0.022766	-0.807417	0.019374	-0.589223	-168.929836	-71.918361	-10.791821
37015		9.022524	-2.955911	-5.652746	-2.684977	2.301639	0.655747	0.208437	1.285773	0.900517	-0.692627	0.004395	0.568604	0.089991	-0.029094	-0.057137	0.026164	-0.803520	0.022587	-0.594273	-166.738320	-72.523225	-12.968447
37016		8.586518	-2.754813	-5.235780	-2.535960	2.047722	0.092097	1.044793	0.911682	0.355946	-0.695068	0.014893	0.564941	0.085673	-0.027120	-0.052891	0.031344	-0.800643	0.021080	-0.597949	-165.078385	-72.972989	-14.080673
37017		8.571923	-1.027760	-5.118320	-2.509846	0.255617	-0.098471	1.655608	0.514898	-0.268283	-0.709229	0.021240	0.562744	0.085573	-0.009967	-0.051487	0.037144	-0.798870	0.015182	-0.600164	-164.347726	-73.291173	-13.853603
37018		8.808518	1.253913	-5.080813	-2.393577	-2.078125	-0.069532	1.843339	0.263812	-0.766386	-0.707031	0.023438	0.565186	0.088067	0.012670	-0.050808	0.042213	-0.797784	0.006687	-0.601427	-164.561340	-73.547019	-12.529793
37019		8.809361	2.959693	-5.058862	-2.285718	-3.786940	-0.200654	1.575179	0.179395	-0.969704	-0.697998	0.018311	0.562012	0.088192	0.029567	-0.050435	0.045601	-0.796939	-0.001835	-0.602333	-165.383665	-73.783477	-10.733075
37020		8.457498	3.704980	-4.819734	-2.072881	-4.480190	-0.641162	1.136023	0.118974	-0.875241	-0.712402	0.029541	0.572510	0.084708	0.036952	-0.048038	0.047521	-0.796325	-0.008672	-0.602936	-166.341639	-73.964652	-9.058999
37021		8.003196	3.721659	-4.541574	-1.895322	-4.433241	-1.136179	0.669800	0.003551	-0.624568	-0.699219	0.029541	0.568115	0.080147	0.037118	-0.045293	0.048332	-0.796150	-0.013132	-0.603023	-167.154998	-74.041918	-7.814313
37022		7.832055	3.279100	-4.483502	-1.894606	-3.961677	-1.273902	0.261916	-0.148296	-0.385829	-0.704346	0.035645	0.568115	0.078417	0.032698	-0.044734	0.048232	-0.796539	-0.015454	-0.602462	-167.807351	-73.999533	-6.979783
37023		8.681897	2.977316	-3.727634	-0.939689	-3.593839	-0.629214	0.014492	-0.220907	-0.335071	-0.706787	0.026367	0.561768	0.086910	0.029630	-0.037178	0.047291	-0.797204	-0.016841	-0.601620	-168.525809	-73.908392	-6.224222
37024		9.508377	2.108643	-3.190027	-0.254418	-2.668899	0.078924	-0.440851	-0.181032	-0.269654	-0.698730	0.022949	0.568604	0.095141	0.020888	-0.031860	0.044738	-0.797861	-0.016597	-0.600951	-169.356168	-73.828951	-5.622462
37025		9.897388	0.619146	-3.502066	-0.557308	-1.186868	0.622192	-0.809119	-0.128065	-0.101668	-0.694092	0.016357	0.569336	0.098999	0.006000	-0.034982	0.041221	-0.798441	-0.014555	-0.600484	-170.044885	-73.760681	-5.388683
37026		9.968493	-0.037144	-3.462853	-0.541299	-0.502255	0.714338	-0.469461	-0.056044	-0.052867	-0.700195	0.018066	0.568604	0.099695	-0.000479	-0.034600	0.039215	-0.798734	-0.013335	-0.600257	-170.419604	-73.726999	-5.278011
37027		9.416199	-0.197261	-3.112567	-0.365084	-0.285523	0.095741	-0.281600	-0.050380	-0.018574	-0.697754	0.011230	0.568359	0.094170	-0.002025	-0.031099	0.038059	-0.798967	-0.012529	-0.600038	-170.615706	-73.693865	-5.242461
37028		8.757978	-0.067333	-3.463488	-0.870425	-0.413165	-0.443904	-0.215172	-0.066640	-0.071796	-0.698730	0.020020	0.574463	0.087591	-0.000742	-0.034605	0.037012	-0.799237	-0.012150	-0.599752	-170.883186	-73.655645	-5.091634
37029		8.400042	0.916845	-3.150976	-0.605942	-1.349931	-0.916595	-0.062275	0.011044	-0.127734	-0.700684	0.009766	0.564697	0.084005	0.009105	-0.031517	0.036408	-0.799237	-0.012426	-0.599784	-171.144516	-73.666955	-4.857151
37030		8.340772	1.179137	-2.739480	-0.217433	-1.566940	-1.097128	-0.285405	0.086242	-0.095377	-0.699951	0.014160	0.574463	0.083401	0.011712	-0.027448	0.035019	-0.799057	-0.011904	-0.600116	-171.451669	-73.716940	-4.706826
37031		8.938330	0.408726	-2.896168	-0.260281	-0.805968	-0.446194	-0.473400	0.132913	-0.097491	-0.700928	0.011230	0.567871	0.089366	0.003975	-0.029031	0.032871	-0.798762	-0.010804	-0.600651	-171.856728	-73.794083	-4.568101
37032		9.632742	-0.223906	-3.036159	-0.254398	-0.179486	0.284893	-0.416980	0.205153	-0.087685	-0.704102	0.005859	0.570801	0.096295	-0.002345	-0.030456	0.030985	-0.798242	-0.009838	-0.601459	-172.195472	-73.910392	-4.463358
37033		10.009709	-0.578184	-3.034340	-0.189466	0.180590	0.659524	-0.289035	0.252488	-0.035487	-0.703125	0.000244	0.569824	0.100058	-0.005844	-0.030461	0.029765	-0.797553	-0.009025	-0.602446	-172.345050	-74.050225	-4.480691
37034		9.932521	-0.808464	-3.025864	-0.240142	0.417085	0.590809	-0.135402	0.291559	0.029320	-0.699219	0.001465	0.558594	0.099282	-0.008091	-0.030398	0.029360	-0.796730	-0.008426	-0.603564	-172.269324	-74.206475	-4.639265
37035		9.584344	-0.831178	-2.917061	-0.259700	0.449273	0.226754	0.038762	0.301509	0.040176	-0.702148	0.003906	0.564209	0.095801	-0.008287	-0.029317	0.029676	-0.795844	-0.008293	-0.604717	-172.063579	-74.368215	-4.830583
37036		9.391370	-0.758864	-2.819221	-0.241859	0.379759	0.011718	0.170986	0.278375	0.002344	-0.708008	0.009277	0.560059	0.093874	-0.007563	-0.028329	0.030408	-0.795010	-0.008728	-0.605771	-171.864336	-74.518870	-4.934952
37037		9.408485	-0.704507	-2.848313	-0.288384	0.316924	0.033385	0.271720	0.241235	-0.047121	-0.710938	0.008057	0.561523	0.094049	-0.007028	-0.028606	0.031384	-0.794264	-0.009657	-0.606684	-171.714953	-74.653228	-4.929072
37038		9.430715	-0.676699	-2.962761	-0.414941	0.277375	0.083024	0.354457	0.220926	-0.102244	-0.712402	0.008301	0.562500	0.094271	-0.006763	-0.029744	0.032525	-0.793566	-0.011072	-0.607513	-171.640251	-74.779828	-4.795263
37039		9.497101	-0.520111	-2.940777	-0.388865	0.121052	0.134559	0.415487	0.181556	-0.182204	-0.717041	0.015869	0.556641	0.094940	-0.005226	-0.029505	0.033658	-0.792964	-0.012982	-0.608199	-171.708427	-74.891562	-4.478638
37040		9.529474	-0.317465	-2.736840	-0.190218	-0.061054	0.105074	0.442928	0.171005	-0.254503	-0.721436	0.019043	0.558594	0.095267	-0.003235	-0.027457	0.034684	-0.792385	-0.015277	-0.608843	-171.922355	-75.002166	-3.993618
37041		9.628217	-0.287492	-2.604113	-0.051461	-0.069747	0.165242	0.468366	0.133477	-0.318189	-0.718262	0.014160	0.557129	0.096260	-0.002967	-0.026112	0.035609	-0.791900	-0.017895	-0.609349	-172.271089	-75.096715	-3.355562
37042		10.167962	-0.212236	-1.498481	1.140903	-0.045074	0.403680	0.404419	0.173246	-0.339842	-0.717285	0.019775	0.552002	0.101663	-0.002265	-0.015077	0.036223	-0.791302	-0.020410	-0.610011	-172.701027	-75.213499	-2.670361
37043		11.353227	-0.846214	-0.215120	2.606446	0.703838	1.249366	0.056307	0.258976	-0.256500	-0.720947	0.009766	0.551514	0.113518	-0.008607	-0.002301	0.035717	-0.790505	-0.021505	-0.611035	-173.134224	-75.372679	-2.189788
37044		12.747982	-3.173052	-0.012465	2.937878	3.030018	2.627857	-0.227429	0.407725	0.099517	-0.728271	0.023438	0.554199	0.127495	-0.031667	-0.000349	0.035198	-0.789343	-0.020312	-0.612606	-172.917940	-75.590678	-2.547163
37045		13.002636	-4.211615	0.074895	2.955350	4.029393	2.908986	0.174400	0.533971	0.422539	-0.731445	0.020020	0.552490	0.130116	-0.041842	0.000365	0.037263	-0.787745	-0.019040	-0.614579	-171.693326	-75.855214	-3.708341
37046		11.915455	-2.433248	1.165442	3.808308	2.298853	1.565716	0.411676	0.691068	0.534415	-0.730713	0.024902	0.542480	0.119258	-0.024037	0.011193	0.040623	-0.785621	-0.018034	-0.617110	-169.970443	-76.190327	-5.240500
37047		10.301680	-1.473223	0.035747	2.338560	1.216949	0.254380	0.155226	0.621198	0.506891	-0.733398	0.034912	0.540527	0.103054	-0.014471	0.000026	0.042881	-0.783742	-0.016351	-0.619389	-168.413158	-76.478957	-6.752262
37048		9.262635	-1.218572	-0.715871	1.338702	0.874830	-0.580352	0.039011	0.521679	0.414755	-0.739502	0.023682	0.537109	0.092632	-0.011992	-0.007403	0.044392	-0.782181	-0.014697	-0.621294	-167.131719	-76.713612	-8.046627
37049		8.632129	-1.134697	-0.707980	1.172412	0.779372	-1.191764	-0.110348	0.412498	0.220387	-0.738770	0.028809	0.536865	0.086319	-0.011256	-0.007252	0.044704	-0.780969	-0.013356	-0.622825	-166.419635	-76.908057	-8.843585
37050		8.688876	-1.821278	-0.946417	0.876932	1.424137	-1.042732	-0.306274	0.281524	0.126824	-0.738281	0.032959	0.535156	0.086887	-0.018172	-0.009559	0.043953	-0.780200	-0.011805	-0.623872	-166.105606	-77.040272	-9.346160
37051		9.125061	-3.465990	-1.578635	0.226824	2.980025	-0.387196	-0.242069	0.189992	0.202575	-0.743408	0.043945	0.542480	0.091271	-0.034587	-0.015831	0.043681	-0.779702	-0.010174	-0.624542	-165.617949	-77.110656	-9.989438
37052		9.407131	-4.139254	-1.761288	0.051441	3.605564	-0.028677	0.303869	0.109028	0.149572	-0.742920	0.034180	0.530273	0.094093	-0.041295	-0.017727	0.045368	-0.779335	-0.010475	-0.624876	-164.992729	-77.142059	-10.452586
37053		9.264677	-2.567364	-1.207368	0.651587	2.081149	-0.371950	0.894082	0.042451	-0.143023	-0.739258	0.037109	0.537842	0.092626	-0.025686	-0.012208	0.048436	-0.779014	-0.013772	-0.624981	-164.780101	-77.180000	-10.145905
37054		9.191444	-0.657305	-0.679178	1.290419	0.245591	-0.666628	0.965120	-0.036350	-0.376361	-0.748291	0.044434	0.528564	0.091903	-0.006713	-0.006807	0.051046	-0.778891	-0.018217	-0.624813	-165.147404	-77.208511	-9.202891
37055		9.497320	0.136370	-0.515038	1.590200	-0.505383	-0.447930	0.787440	-0.075013	-0.439881	-0.747070	0.042236	0.534912	0.094978	0.001175	-0.005110	0.052760	-0.778908	-0.022366	-0.624515	-165.798955	-77.223266	-8.072786
37056		9.718914	0.326918	-0.708345	1.477142	-0.688314	-0.199670	0.636695	-0.084346	-0.372987	-0.746826	0.048828	0.538086	0.097198	0.003110	-0.007032	0.054094	-0.778989	-0.025784	-0.624167	-166.379616	-77.220573	-7.104042
37057		9.608306	0.354373	-0.716322	1.455339	-0.689732	-0.306665	0.548300	-0.054590	-0.207700	-0.751465	0.051758	0.528809	0.096089	0.003464	-0.007127	0.055602	-0.779013	-0.028275	-0.623898	-166.587043	-77.211201	-6.569849
37058		9.375099	0.298349	-0.834217	1.291102	-0.633503	-0.506284	0.419948	-0.074740	-0.064939	-0.743896	0.051514	0.539307	0.093755	0.002971	-0.008301	0.057018	-0.779153	-0.029774	-0.623525	-166.529631	-77.171209	-6.388973
37059		9.424255	0.165006	-0.907545	1.225762	-0.511078	-0.436988	0.260091	-0.112169	-0.005012	-0.738525	0.055908	0.539063	0.094248	0.001659	-0.009020	0.058027	-0.779458	-0.030593	-0.623010	-166.438170	-77.102617	-6.330578
37060		9.596418	0.148139	-1.011863	1.174680	-0.511664	-0.247367	0.103978	-0.149221	-0.022992	-0.742432	0.055176	0.542725	0.095972	0.001476	-0.010046	0.058367	-0.779922	-0.031006	-0.622377	-166.501222	-77.015575	-6.205355
37061		9.649896	0.148722	-0.968493	1.244930	-0.503289	-0.206574	-0.054458	-0.179026	-0.056459	-0.739990	0.049316	0.535645	0.096508	0.001457	-0.009599	0.057979	-0.780517	-0.031066	-0.621664	-166.750633	-76.916502	-5.982023
37062		9.676198	0.027159	-1.040613	1.185415	-0.383867	-0.160754	-0.216925	-0.214626	-0.068378	-0.744385	0.057373	0.545410	0.096773	0.000227	-0.010303	0.056915	-0.781268	-0.030678	-0.620837	-167.137365	-76.798657	-5.713072
37063		9.674744	-0.265145	-1.150909	1.066494	-0.097252	-0.125137	-0.348537	-0.249795	-0.050430	-0.739502	0.045166	0.553955	0.096761	-0.002696	-0.011384	0.055387	-0.782165	-0.029821	-0.619888	-167.569239	-76.658632	-5.475172
37064		9.774301	-0.481634	-1.205598	1.037979	0.119406	-0.008062	-0.419414	-0.266662	-0.035138	-0.737061	0.047607	0.549561	0.097758	-0.004859	-0.011915	0.053589	-0.783134	-0.028645	-0.618878	-168.008305	-76.506842	-5.278097
37065		9.880845	-0.847258	-1.240084	1.018775	0.486090	0.117694	-0.471941	-0.283902	-0.009536	-0.732178	0.037598	0.543457	0.098825	-0.008506	-0.012241	0.051699	-0.784165	-0.027254	-0.617794	-168.418320	-76.342097	-5.135121
37066		10.038061	-1.327167	-1.296337	0.984866	0.961578	0.302145	-0.463477	-0.305389	0.012949	-0.732178	0.034912	0.556152	0.100401	-0.013295	-0.012779	0.049908	-0.785259	-0.025808	-0.616613	-168.775642	-76.162448	-5.041224
37067		10.042062	-1.725233	-1.422133	0.862767	1.351038	0.349600	-0.366338	-0.340998	0.005433	-0.725830	0.034180	0.560791	0.100445	-0.017275	-0.014018	0.048470	-0.786431	-0.024698	-0.615278	-169.104346	-75.963540	-4.919464
37068		9.961093	-1.873304	-1.658989	0.642604	1.484162	0.329750	-0.209547	-0.401862	-0.041106	-0.725098	0.032471	0.547363	0.099640	-0.018771	-0.016370	0.047498	-0.787742	-0.024268	-0.613692	-169.466103	-75.735121	-4.670926
37069		9.805570	-1.691984	-1.740559	0.587982	1.312144	0.186009	-0.027601	-0.459513	-0.124567	-0.724854	0.036865	0.556396	0.098085	-0.016983	-0.017178	0.046979	-0.789172	-0.024738	-0.611873	-169.919595	-75.482361	-4.219721
37070		9.667354	-1.366584	-1.738051	0.633880	1.011259	0.032181	0.059798	-0.516218	-0.212498	-0.720947	0.033203	0.563721	0.096703	-0.013763	-0.017135	0.046528	-0.790738	-0.025834	-0.609836	-170.516395	-75.205119	-3.568323
37071		9.601871	-1.201725	-1.958683	0.470013	0.850803	0.012355	0.077298	-0.543667	-0.260624	-0.719971	0.030029	0.563721	0.096056	-0.012135	-0.019330	0.045997	-0.792372	-0.027182	-0.607695	-171.190915	-74.914923	-2.825022
37072		9.521451	-1.038648	-1.989953	0.485170	0.714552	-0.068434	0.130765	-0.552311	-0.283236	-0.715576	0.029053	0.557617	0.095254	-0.010508	-0.019643	0.045606	-0.794008	-0.028781	-0.605511	-171.856949	-74.619537	-2.058083
37073		9.587792	-0.836976	-2.128003	0.441503	0.528425	0.019923	0.146322	-0.565093	-0.307583	-0.710938	0.026367	0.567139	0.095925	-0.008502	-0.021015	0.045201	-0.795667	-0.030529	-0.603273	-172.540449	-74.316412	-1.262321
37074		9.693498	-0.619032	-2.300811	0.380139	0.324621	0.156796	0.130801	-0.582396	-0.327275	-0.708984	0.030029	0.573242	0.096991	-0.006334	-0.022730	0.044671	-0.797370	-0.032308	-0.600967	-173.247188	-74.002328	-0.450852
37075		9.661444	-0.384325	-2.366701	0.387809	0.117945	0.133559	0.097102	-0.585036	-0.322038	-0.704590	0.027344	0.581787	0.096677	-0.003987	-0.023386	0.044023	-0.799081	-0.033970	-0.598647	-173.934868	-73.683684	0.322368
37076		9.649047	-0.176405	-2.435369	0.396083	-0.062273	0.132419	0.036486	-0.578608	-0.311072	-0.700195	0.024658	0.588379	0.096557	-0.001910	-0.024075	0.043164	-0.800778	-0.035399	-0.596355	-174.606192	-73.365620	1.043139
37077		9.527370	-0.170118	-2.472202	0.380418	-0.039908	0.024227	-0.032525	-0.554402	-0.280571	-0.701904	0.025146	0.585693	0.095339	-0.001839	-0.024458	0.042126	-0.802415	-0.036500	-0.594158	-175.230389	-73.057458	1.674998
37078		9.357724	-0.341547	-2.680297	0.166979	0.137371	-0.075101	-0.086620	-0.561485	-0.249091	-0.687012	0.024170	0.594727	0.093648	-0.003544	-0.026539	0.040961	-0.804082	-0.037311	-0.591931	-175.805272	-72.742042	2.223454
37079		9.355792	-0.325045	-2.955300	-0.039541	0.120996	0.003309	-0.068263	-0.568947	-0.245907	-0.680420	0.017090	0.587158	0.093637	-0.003376	-0.029286	0.039878	-0.805760	-0.038168	-0.589664	-176.345435	-72.420585	2.747922
37080		9.332239	-0.215116	-3.194697	-0.207907	0.016545	0.051350	-0.066567	-0.564692	-0.273441	-0.677979	0.012451	0.598389	0.093409	-0.002289	-0.031683	0.038721	-0.807412	-0.039136	-0.587413	-176.913369	-72.101087	3.303059
37081		9.231645	-0.134349	-3.306039	-0.283152	-0.043502	-0.010196	-0.079236	-0.545969	-0.305413	-0.669434	0.006592	0.607422	0.092404	-0.001498	-0.032808	0.037423	-0.808998	-0.040196	-0.585240	-177.523805	-71.791365	3.896688
37082		9.214717	-0.223552	-3.461519	-0.394599	0.063915	0.025147	-0.068335	-0.534206	-0.316567	-0.673096	0.011230	0.611816	0.092235	-0.002393	-0.034368	0.036137	-0.810536	-0.041327	-0.583110	-178.125819	-71.486785	4.488643
37083		9.051924	-0.259938	-3.728254	-0.651660	0.103081	-0.041854	-0.029666	-0.538013	-0.321410	-0.666748	0.008301	0.610107	0.090615	-0.002750	-0.037038	0.034994	-0.812070	-0.042594	-0.580951	-178.695541	-71.178114	5.071390
37084		8.933333	-0.184538	-4.045577	-0.928815	0.024658	-0.048386	0.041238	-0.564314	-0.325737	-0.665283	0.000000	0.608154	0.089444	-0.001983	-0.040204	0.034119	-0.813658	-0.044084	-0.578665	-179.213557	-70.852738	5.643090
37085		8.836963	0.154630	-4.023131	-0.848975	-0.281586	-0.143093	0.098100	-0.562057	-0.332841	-0.658691	-0.000977	0.610596	0.088485	0.001419	-0.039982	0.033456	-0.815220	-0.045772	-0.576370	-179.693257	-70.527011	6.210271
37086		8.832533	0.429710	-3.973309	-0.721396	-0.520005	-0.158964	0.092770	-0.530874	-0.312164	-0.656006	-0.000977	0.611816	0.088437	0.004177	-0.039496	0.032837	-0.816689	-0.047350	-0.574194	179.874528	-70.217685	6.724507
37087		8.758197	0.506893	-4.070271	-0.779514	-0.582788	-0.190705	0.035748	-0.502978	-0.256695	-0.657227	-0.005615	0.615479	0.087690	0.004964	-0.040481	0.032151	-0.818093	-0.048537	-0.572131	179.510367	-69.923284	7.132978
37088		8.747254	0.547505	-4.193854	-0.848272	-0.613259	-0.153144	0.024503	-0.462657	-0.209611	-0.652832	-0.001709	0.633301	0.087575	0.005388	-0.041735	0.031563	-0.819390	-0.049488	-0.570224	179.223232	-69.651494	7.452914
37089		8.717921	0.765288	-4.255007	-0.846505	-0.816855	-0.153035	0.039423	-0.446436	-0.194482	-0.645020	-0.009766	0.614502	0.087281	0.007576	-0.042354	0.031084	-0.820636	-0.050421	-0.568373	178.974642	-69.388620	7.741712
37090		8.728585	0.975598	-4.341165	-0.856048	-1.014617	-0.105820	-0.002301	-0.431189	-0.183395	-0.638184	0.002441	0.621094	0.087388	0.009675	-0.043223	0.030468	-0.821844	-0.051185	-0.566591	178.725548	-69.134126	8.005738
37091		8.799926	1.041436	-4.206950	-0.659953	-1.041138	-0.081189	-0.098828	-0.387410	-0.155064	-0.642090	-0.005371	0.630859	0.088089	0.010325	-0.041904	0.029547	-0.822944	-0.051554	-0.565006	178.467533	-68.904739	8.220751
37092		8.703337	0.960028	-4.066147	-0.541308	-0.929851	-0.218650	-0.189835	-0.323161	-0.104783	-0.635498	-0.007813	0.628906	0.087104	0.009516	-0.040530	0.028410	-0.823887	-0.051449	-0.563698	178.233887	-68.712561	8.353888
37093		8.693731	0.641542	-4.004413	-0.497411	-0.589557	-0.250638	-0.239932	-0.298753	-0.054604	-0.628174	-0.007813	0.632324	0.086999	0.006344	-0.039922	0.027215	-0.824778	-0.050993	-0.562495	178.046536	-68.535206	8.406773
37094		8.863365	0.371372	-4.131549	-0.558081	-0.308439	-0.047433	-0.252923	-0.290041	-0.045287	-0.638672	-0.011963	0.633789	0.088694	0.003641	-0.041192	0.025995	-0.825645	-0.050460	-0.561327	177.866813	-68.362850	8.443487
37095		8.995458	0.229839	-4.257730	-0.616237	-0.156653	0.121848	-0.207996	-0.270866	-0.061226	-0.630615	-0.012939	0.635254	0.090013	0.002227	-0.042458	0.024919	-0.826445	-0.050117	-0.560228	177.690351	-68.201197	8.504472
37096		8.940226	0.381054	-4.115358	-0.463043	-0.280375	0.021738	-0.125928	-0.260016	-0.088664	-0.625977	-0.022705	0.633545	0.089457	0.003745	-0.041040	0.024109	-0.827196	-0.050116	-0.559154	177.522918	-68.044882	8.606467
37097		8.702950	0.496479	-4.012209	-0.419134	-0.383837	-0.233408	-0.107117	-0.247714	-0.094886	-0.625732	-0.017334	0.637695	0.087081	0.004902	-0.040017	0.023362	-0.827907	-0.050192	-0.558127	177.358418	-67.895489	8.717033
37098		8.568801	0.518539	-4.041053	-0.470645	-0.402404	-0.344855	-0.110706	-0.243156	-0.083080	-0.619629	-0.016357	0.636719	0.085739	0.005127	-0.040309	0.022635	-0.828607	-0.050208	-0.557115	177.209961	-67.748740	8.808211
37099		8.474906	0.479485	-4.170135	-0.607048	-0.368359	-0.381901	-0.102863	-0.234942	-0.075716	-0.624268	-0.018799	0.639893	0.084800	0.004741	-0.041604	0.021962	-0.829283	-0.050214	-0.556135	177.077104	-67.606990	8.887437
37100		8.487421	0.464553	-4.194185	-0.605328	-0.342695	-0.359677	-0.083919	-0.216780	-0.087821	-0.621338	-0.015625	0.640625	0.084922	0.004591	-0.041852	0.021340	-0.829902	-0.050322	-0.555225	176.938361	-67.474998	8.984941
37101		8.579526	0.492694	-4.199265	-0.552529	-0.352191	-0.270389	-0.072864	-0.209134	-0.118383	-0.618164	-0.030518	0.641602	0.085842	0.004861	-0.041905	0.020679	-0.830489	-0.050586	-0.554347	176.764767	-67.346518	9.127057
37102		8.659934	0.512762	-4.090297	-0.401447	-0.340777	-0.236124	-0.118718	-0.192734	-0.146991	-0.619629	-0.016113	0.641846	0.086642	0.005040	-0.040822	0.019754	-0.831028	-0.050841	-0.553549	176.526386	-67.226034	9.311186
37103		8.692343	0.398788	-3.978740	-0.281734	-0.197184	-0.250892	-0.120020	-0.189216	-0.140320	-0.618164	-0.027344	0.647705	0.086964	0.003903	-0.039707	0.018842	-0.831557	-0.051063	-0.552767	176.298187	-67.107743	9.483488
37104		8.900613	0.333996	-3.928942	-0.145249	-0.097805	-0.079325	-0.105531	-0.199217	-0.125795	-0.604980	-0.029053	0.649902	0.089047	0.003263	-0.039202	0.018028	-0.832115	-0.051267	-0.551935	176.100724	-66.983790	9.631743
37105		9.137856	0.353518	-3.941867	-0.045374	-0.086815	0.144926	-0.117200	-0.188815	-0.107781	-0.613281	-0.026611	0.641846	0.091418	0.003463	-0.039334	0.017218	-0.832647	-0.051361	-0.551148	175.921561	-66.866559	9.752809
37106		9.277256	0.385276	-3.883506	0.082615	-0.090345	0.251234	-0.112039	-0.168416	-0.074181	-0.615967	-0.021973	0.649658	0.092807	0.003797	-0.038759	0.016528	-0.833132	-0.051329	-0.550439	175.789503	-66.761996	9.826120
37107		9.315837	0.275421	-3.812114	0.167558	0.038342	0.255248	-0.127799	-0.156895	-0.044576	-0.604736	-0.037842	0.641602	0.093189	0.002709	-0.038050	0.015855	-0.833591	-0.051129	-0.549782	175.687448	-66.665470	9.856821
37108		9.362644	0.165655	-3.814571	0.189208	0.160928	0.295516	-0.142996	-0.182703	-0.051799	-0.603760	-0.028564	0.645508	0.093662	0.001605	-0.038061	0.015094	-0.834121	-0.050920	-0.549018	175.570266	-66.553615	9.894713
37109		9.344023	0.267847	-3.864720	0.164841	0.065920	0.301017	-0.118778	-0.188667	-0.076114	-0.602539	-0.030762	0.645508	0.093478	0.002620	-0.038561	0.014364	-0.834657	-0.050877	-0.548227	175.436443	-66.437475	9.965742
37110		9.193265	0.466080	-3.821568	0.183495	-0.125727	0.151660	-0.091000	-0.190449	-0.085107	-0.605957	-0.031982	0.654297	0.091971	0.004604	-0.038130	0.013726	-0.835194	-0.050950	-0.547419	175.307914	-66.319602	10.048586
37111		9.015092	0.517788	-3.954451	0.015566	-0.188593	0.043367	-0.119432	-0.196504	-0.055819	-0.605469	-0.040771	0.643066	0.090191	0.005129	-0.039459	0.013047	-0.835754	-0.050822	-0.546592	175.202780	-66.199827	10.087993
37112		8.891854	0.495409	-4.163877	-0.207794	-0.181146	0.014435	-0.123898	-0.196428	-0.036954	-0.601074	-0.032959	0.652100	0.088960	0.004912	-0.041554	0.012402	-0.836319	-0.050604	-0.545762	175.120018	-66.080750	10.100348
37113		8.858795	0.634300	-4.319937	-0.331185	-0.323436	0.052814	-0.154957	-0.191514	-0.034321	-0.601563	-0.033691	0.646729	0.088630	0.006294	-0.043119	0.011635	-0.836870	-0.050288	-0.544962	175.022835	-65.964832	10.108848
37114		8.881258	0.498127	-4.391312	-0.383803	-0.180450	0.098347	-0.232111	-0.164339	-0.011003	-0.601563	-0.034180	0.648438	0.088849	0.004925	-0.043846	0.010616	-0.837358	-0.049665	-0.544291	174.908594	-65.865342	10.087820
37115		8.789125	0.039515	-4.518749	-0.566985	0.270991	0.050094	-0.272562	-0.119050	0.027704	-0.598145	-0.031982	0.646484	0.087918	0.000346	-0.045136	0.009543	-0.837731	-0.048765	-0.543818	174.815625	-65.793947	10.017857
37116		8.701102	-0.444285	-4.637190	-0.743722	0.746000	0.000592	-0.191701	-0.094184	0.034741	-0.604248	-0.041016	0.657471	0.087034	-0.004472	-0.046327	0.008835	-0.838034	-0.048057	-0.543426	174.774956	-65.736871	9.941513
37117		8.569231	-0.497395	-4.683616	-0.834094	0.789284	-0.102038	-0.013834	-0.086341	0.009487	-0.597900	-0.039551	0.656250	0.085713	-0.004973	-0.046799	0.008805	-0.838300	-0.047935	-0.543027	174.803270	-65.683228	9.901059
37118		8.514442	-0.275912	-4.551089	-0.706722	0.571491	-0.197169	0.150314	-0.079765	-0.028288	-0.604248	-0.035400	0.655273	0.085162	-0.002737	-0.045479	0.009362	-0.838533	-0.048417	-0.542615	174.877085	-65.631079	9.914007
37119		8.551144	-0.023051	-4.507133	-0.620029	0.321008	-0.171663	0.233379	-0.077276	-0.072322	-0.603271	-0.041748	0.660889	0.085529	-0.000209	-0.045039	0.010148	-0.838742	-0.049309	-0.542197	174.942650	-65.578416	9.988146
37120		8.544325	0.204871	-4.517637	-0.602009	0.088044	-0.164561	0.291659	-0.072291	-0.089817	-0.594238	-0.037598	0.658691	0.085461	0.002076	-0.045142	0.011133	-0.838930	-0.050432	-0.541784	175.019226	-65.527436	10.086997
37121		8.588784	0.464462	-4.384159	-0.429154	-0.162205	-0.169384	0.315147	-0.050527	-0.109059	-0.595947	-0.032471	0.650879	0.085901	0.004667	-0.043813	0.012170	-0.839049	-0.051698	-0.541457	175.082724	-65.488300	10.214946
37122		8.601598	0.644073	-4.319608	-0.340701	-0.339152	-0.177843	0.280394	-0.023630	-0.100023	-0.599365	-0.031006	0.658203	0.086024	0.006458	-0.043177	0.013092	-0.839100	-0.052830	-0.541248	175.134942	-65.464669	10.333547
37123		8.754497	0.737390	-4.256606	-0.208837	-0.419351	-0.061575	0.232029	0.033146	-0.080605	-0.602295	-0.033936	0.657959	0.087541	0.007388	-0.042572	0.013879	-0.839002	-0.053746	-0.541290	175.177591	-65.474778	10.432104
37124		8.870609	0.702352	-4.094750	-0.021986	-0.367002	-0.024286	0.192045	0.102403	-0.051530	-0.597168	-0.024414	0.654053	0.088687	0.007040	-0.040986	0.014595	-0.838727	-0.054428	-0.541628	175.226447	-65.525493	10.498790
37125		8.979903	0.646910	-3.976624	0.113457	-0.300115	0.024371	0.144162	0.160986	-0.006102	-0.589600	-0.038574	0.663330	0.089767	0.006495	-0.039834	0.015250	-0.838307	-0.054784	-0.542224	175.298710	-65.612200	10.509448
37126		9.023501	0.657434	-3.997489	0.097037	-0.318746	0.072890	0.116349	0.224171	0.044208	-0.603027	-0.032715	0.656982	0.090189	0.006618	-0.040072	0.015941	-0.837733	-0.054850	-0.543085	175.412410	-65.736969	10.457317
37127		9.100844	0.612685	-3.878568	0.208783	-0.272428	0.093177	0.080127	0.288283	0.105252	-0.602051	-0.026123	0.656006	0.090949	0.006190	-0.038914	0.016664	-0.837000	-0.054556	-0.544221	175.577547	-65.901414	10.325929
37128		9.122098	0.476484	-3.898812	0.155555	-0.155861	0.116655	0.023450	0.342884	0.165788	-0.605957	-0.022217	0.659668	0.091150	0.004845	-0.039144	0.017330	-0.836140	-0.053851	-0.545591	175.784815	-66.099134	10.113270
37129		9.171581	0.342312	-3.837457	0.182921	-0.036216	0.133479	-0.011931	0.392515	0.218841	-0.601807	-0.016602	0.644775	0.091636	0.003521	-0.038555	0.018006	-0.835156	-0.052821	-0.547175	176.039781	-66.327392	9.826475
37130		9.225235	0.147513	-3.713940	0.257949	0.145299	0.128752	-0.023213	0.436505	0.261361	-0.615723	-0.022461	0.649658	0.092169	0.001591	-0.037341	0.018763	-0.834061	-0.051581	-0.548935	176.345776	-66.581498	9.477705
37131		9.379766	-0.087440	-3.648788	0.311624	0.364587	0.240722	-0.039564	0.468690	0.291687	-0.609863	-0.027832	0.643799	0.093713	-0.000745	-0.036707	0.019542	-0.832879	-0.050164	-0.550830	176.687539	-66.854624	9.080281
37132		9.449592	-0.287959	-3.663375	0.260171	0.533886	0.308826	-0.016344	0.495087	0.311149	-0.613525	-0.024658	0.640869	0.094409	-0.002736	-0.036867	0.020479	-0.831622	-0.048729	-0.552820	177.075950	-67.142121	8.647644
37133		9.412570	-0.355077	-3.556902	0.290617	0.571502	0.235333	0.048509	0.513696	0.321951	-0.622070	-0.015137	0.639404	0.094039	-0.003391	-0.035811	0.021719	-0.830301	-0.047424	-0.554868	177.525852	-67.439646	8.189380
37134		9.398091	-0.129285	-3.437982	0.370945	0.318147	0.183383	0.100419	0.516214	0.316045	-0.625977	-0.018066	0.635742	0.093894	-0.001127	-0.034623	0.023159	-0.828960	-0.046287	-0.556908	178.009306	-67.736718	7.728099
37135		9.441772	0.109828	-3.369259	0.428214	0.049800	0.203543	0.082111	0.516034	0.317420	-0.627686	-0.014648	0.640381	0.094328	0.001262	-0.033936	0.024526	-0.827612	-0.045093	-0.558948	178.496695	-68.032522	7.252107
37136		9.513425	0.278272	-3.287751	0.499144	-0.145132	0.243230	0.006870	0.531059	0.328335	-0.634521	-0.015625	0.625488	0.095042	0.002940	-0.033130	0.025616	-0.826228	-0.043642	-0.561058	178.969035	-68.335270	6.746982
37137		9.532371	0.303556	-3.293093	0.452594	-0.207895	0.264727	-0.091650	0.564153	0.364872	-0.634277	-0.004150	0.629395	0.095225	0.003194	-0.033201	0.026408	-0.824761	-0.041758	-0.563318	179.451226	-68.655983	6.171598
37138		9.516476	0.147762	-3.349713	0.324360	-0.097283	0.271491	-0.188779	0.598412	0.407419	-0.636963	-0.002686	0.626465	0.095061	0.001640	-0.033783	0.026926	-0.823211	-0.039421	-0.565725	179.956720	-68.994354	5.512936
37139		9.477420	-0.206402	-3.300036	0.264629	0.219378	0.219050	-0.274229	0.649953	0.433553	-0.645996	-0.009521	0.627686	0.094671	-0.001904	-0.033305	0.027176	-0.821517	-0.036726	-0.568351	-179.527790	-69.360336	4.792651
37140		9.458714	-0.586317	-3.252834	0.205835	0.562415	0.188954	-0.290927	0.698388	0.438790	-0.644775	-0.008545	0.617432	0.094485	-0.005703	-0.032850	0.027381	-0.819675	-0.033955	-0.571166	-178.990242	-69.751408	4.040495
37141		9.376811	-0.956163	-3.165177	0.163559	0.896942	0.088092	-0.228003	0.727250	0.429054	-0.647217	-0.001221	0.607666	0.093672	-0.009397	-0.031982	0.027820	-0.817724	-0.031399	-0.574080	-178.405167	-70.156800	3.277961
37142		9.341900	-1.124064	-3.100243	0.133414	1.028471	0.039726	-0.101665	0.740001	0.403343	-0.658691	-0.005371	0.607422	0.093326	-0.011068	-0.031342	0.028704	-0.815700	-0.029308	-0.577019	-177.759881	-70.566916	2.530320
37143		9.257571	-1.006955	-2.959299	0.181379	0.881182	-0.083137	0.018002	0.728759	0.359344	-0.667236	-0.006348	0.612061	0.092485	-0.009901	-0.029931	0.029946	-0.813670	-0.027744	-0.579892	-177.089604	-70.969058	1.830688
37144		9.157498	-0.834251	-2.955695	0.101121	0.668999	-0.177667	0.096824	0.705451	0.318657	-0.672607	-0.002930	0.600586	0.091483	-0.008182	-0.029884	0.031388	-0.811679	-0.026574	-0.582654	-176.415657	-71.356225	1.176458
37145		9.086320	-0.690803	-2.900181	0.079394	0.492124	-0.262790	0.190751	0.679763	0.286838	-0.678223	-0.000244	0.599365	0.090774	-0.006750	-0.029317	0.033114	-0.809730	-0.025813	-0.585298	-175.718138	-71.727634	0.555667
37146		9.186425	-0.619641	-2.778268	0.170315	0.394034	-0.204960	0.233560	0.671433	0.272663	-0.678223	0.005371	0.589600	0.091779	-0.006039	-0.028098	0.034970	-0.807787	-0.025233	-0.587895	-174.994821	-72.092252	-0.065302
37147		9.313937	-0.541448	-2.708038	0.220901	0.283958	-0.104640	0.273643	0.667096	0.267811	-0.685547	0.018066	0.589600	0.093055	-0.005252	-0.027398	0.036973	-0.805836	-0.024794	-0.590464	-174.230617	-72.452351	-0.703660
37148		9.372749	-0.403722	-2.677560	0.217512	0.109402	-0.059688	0.295939	0.666197	0.284586	-0.692871	0.018311	0.591064	0.093643	-0.003864	-0.027093	0.039114	-0.803874	-0.024349	-0.593012	-173.393483	-72.807934	-1.403983
37149		9.400227	-0.340151	-2.628459	0.215857	0.008503	-0.048384	0.283772	0.677653	0.305348	-0.695801	0.008301	0.574463	0.093917	-0.003220	-0.026608	0.041269	-0.801870	-0.023785	-0.595597	-172.490038	-73.165575	-2.179400
37150		9.344171	-0.261006	-2.531626	0.236190	-0.103697	-0.131584	0.269595	0.693782	0.320055	-0.694580	0.021484	0.578857	0.093357	-0.002426	-0.025644	0.043412	-0.799811	-0.023114	-0.598234	-171.525743	-73.527242	-3.025546
37151		9.285145	-0.292911	-2.450659	0.230753	-0.107158	-0.208510	0.248503	0.703979	0.337700	-0.708740	0.017578	0.574463	0.092769	-0.002742	-0.024837	0.045524	-0.797714	-0.022309	-0.600902	-170.496204	-73.889042	-3.950468
37152		9.204307	-0.320514	-2.358725	0.230817	-0.113441	-0.309060	0.251211	0.704999	0.342629	-0.708496	0.022705	0.565186	0.091964	-0.003018	-0.023915	0.047660	-0.795601	-0.021490	-0.603561	-169.410259	-74.245872	-4.930962
37153		9.280524	-0.228733	-2.229586	0.320783	-0.237921	-0.273741	0.260553	0.705847	0.342437	-0.714355	0.032715	0.572510	0.092729	-0.002099	-0.022626	0.049833	-0.793469	-0.020701	-0.606214	-168.272144	-74.598116	-5.958148
37154		9.311176	-0.124192	-2.137985	0.364027	-0.376967	-0.272808	0.203980	0.699115	0.337147	-0.715820	0.032471	0.562012	0.093038	-0.001063	-0.021706	0.051764	-0.791359	-0.019761	-0.608836	-167.130726	-74.941491	-7.020821
37155		9.359401	-0.203618	-2.315929	0.136058	-0.360847	-0.176599	0.118843	0.684046	0.344045	-0.718018	0.030762	0.554443	0.093517	-0.001861	-0.023480	0.053377	-0.789304	-0.018540	-0.611397	-165.981684	-75.270095	-8.139998
37156		9.347693	-0.248444	-2.411433	-0.024139	-0.367779	-0.162828	0.130177	0.675248	0.335047	-0.721924	0.041260	0.550537	0.093399	-0.002312	-0.024431	0.055005	-0.787262	-0.017389	-0.613914	-164.799350	-75.589023	-9.285351
37157		9.311552	-0.213798	-2.314342	0.003398	-0.430046	-0.225117	0.135675	0.672605	0.302608	-0.725830	0.037842	0.548828	0.093040	-0.001981	-0.023458	0.056554	-0.785212	-0.016386	-0.616422	-163.634869	-75.905762	-10.407255
37158		9.377306	-0.361671	-2.147008	0.106148	-0.304736	-0.191369	0.076384	0.673869	0.286731	-0.729004	0.046143	0.545166	0.093705	-0.003474	-0.021787	0.057821	-0.783163	-0.015260	-0.618934	-162.487260	-76.220031	-11.545333
37159		9.485643	-0.706404	-2.076694	0.105414	0.005245	-0.077312	0.053393	0.674250	0.272115	-0.732910	0.040771	0.540771	0.094795	-0.006929	-0.021088	0.058952	-0.781107	-0.014121	-0.621447	-161.333316	-76.531717	-12.701853
37160		9.587661	-0.905001	-1.968931	0.152395	0.174257	0.014059	0.111050	0.670256	0.269252	-0.734863	0.043701	0.540771	0.095822	-0.008910	-0.020015	0.060298	-0.779037	-0.013173	-0.623932	-160.101840	-76.835877	-13.902705
37161		9.588667	-0.897577	-1.883374	0.175424	0.141096	-0.002275	0.210952	0.640679	0.248839	-0.746826	0.051025	0.528564	0.095837	-0.008836	-0.019150	0.061967	-0.777017	-0.012625	-0.626295	-158.830355	-77.122326	-15.084331
37162		9.558604	-0.632421	-1.822300	0.196612	-0.147503	-0.064514	0.246073	0.594511	0.230205	-0.744873	0.043457	0.524902	0.095538	-0.006192	-0.018515	0.063710	-0.775121	-0.012273	-0.628473	-157.572702	-77.382067	-16.229970
37163		9.516335	-0.416383	-1.828469	0.149945	-0.392030	-0.122444	0.226515	0.561224	0.216360	-0.743652	0.050537	0.527588	0.095116	-0.004040	-0.018556	0.065332	-0.773326	-0.011924	-0.630521	-156.344731	-77.621983	-17.355456
37164		9.487736	-0.318936	-1.742164	0.187565	-0.507245	-0.176234	0.179647	0.547208	0.215277	-0.753418	0.060059	0.526855	0.094833	-0.003071	-0.017684	0.066767	-0.771583	-0.011436	-0.632512	-155.116369	-77.849404	-18.507900
37165		9.503881	-0.379705	-1.651061	0.224329	-0.467031	-0.172915	0.109331	0.539455	0.224989	-0.763916	0.065186	0.509277	0.094998	-0.003681	-0.016769	0.067961	-0.769881	-0.010691	-0.634469	-153.869608	-78.065234	-19.719307
37166		9.582190	-0.544012	-1.671121	0.155028	-0.342189	-0.077927	0.077007	0.528036	0.242458	-0.757568	0.062744	0.511230	0.095784	-0.005317	-0.016966	0.069084	-0.768221	-0.009780	-0.636371	-152.568891	-78.264908	-21.003870
37167		9.678877	-0.568511	-1.666987	0.127891	-0.355502	0.017862	0.062951	0.511082	0.250059	-0.765137	0.063965	0.513428	0.096753	-0.005559	-0.016919	0.070176	-0.766614	-0.008801	-0.638201	-151.236466	-78.447989	-22.328104
37168		9.776392	-0.549870	-1.622595	0.145669	-0.406973	0.103255	0.044792	0.491789	0.243182	-0.761230	0.066650	0.498779	0.097730	-0.005376	-0.016468	0.071176	-0.765069	-0.007797	-0.639956	-149.917368	-78.617025	-23.648522
37169		9.781843	-0.616992	-1.616651	0.101863	-0.369780	0.113609	0.008197	0.467926	0.233242	-0.765381	0.068604	0.499023	0.097787	-0.006055	-0.016396	0.072002	-0.763606	-0.006722	-0.641620	-148.640602	-78.771344	-24.946406
37170		9.732666	-0.678163	-1.615565	0.046032	-0.332221	0.070735	-0.014968	0.457374	0.209927	-0.772461	0.063232	0.495605	0.097296	-0.006681	-0.016378	0.072664	-0.762181	-0.005667	-0.643248	-147.416551	-78.921915	-26.203359
37171		9.639316	-0.787371	-1.490128	0.100880	-0.226654	-0.030300	-0.029356	0.450760	0.205341	-0.766113	0.067871	0.493408	0.096367	-0.007777	-0.015117	0.073256	-0.760777	-0.004584	-0.644850	-146.189169	-79.065619	-27.471516
37172		9.646429	-0.952878	-1.481019	0.054378	-0.086664	-0.007365	-0.034901	0.443551	0.195591	-0.775391	0.074707	0.488770	0.096440	-0.009437	-0.015022	0.073795	-0.759394	-0.003524	-0.646423	-144.969337	-79.203782	-28.734543
37173		9.702416	-1.040882	-1.467306	0.029052	-0.026325	0.055017	-0.006336	0.429441	0.183358	-0.780762	0.069824	0.488525	0.097002	-0.010320	-0.014881	0.074402	-0.758041	-0.002608	-0.647944	-143.756484	-79.334458	-29.973319
37174		9.701997	-0.976476	-1.424557	0.039253	-0.106525	0.041174	0.023669	0.412806	0.152230	-0.783447	0.076416	0.495850	0.096998	-0.009689	-0.014447	0.075021	-0.756727	-0.001913	-0.649409	-142.604334	-79.463324	-31.132240
37175		9.669205	-0.954434	-1.437489	-0.012933	-0.145435	0.008178	0.010985	0.389045	0.127855	-0.775146	0.074951	0.482666	0.096670	-0.009482	-0.014563	0.075513	-0.755491	-0.001278	-0.650792	-141.536521	-79.585959	-32.212391
37176		9.564782	-1.000836	-1.450576	-0.080884	-0.107442	-0.087838	0.021415	0.370431	0.112409	-0.777588	0.066650	0.470703	0.095626	-0.009953	-0.014684	0.075993	-0.754309	-0.000742	-0.652106	-140.513044	-79.702191	-33.240891
37177		9.566269	-1.033810	-1.406496	-0.073424	-0.084855	-0.089118	0.052512	0.350881	0.096361	-0.780273	0.077637	0.477051	0.095643	-0.010288	-0.014235	0.076538	-0.753176	-0.000376	-0.653352	-139.527460	-79.812560	-34.212503
37178		9.618908	-1.093379	-1.349414	-0.047433	-0.039145	-0.038440	0.058497	0.345169	0.099658	-0.782471	0.078369	0.470703	0.096171	-0.010882	-0.013663	0.077117	-0.752057	-0.000019	-0.654571	-138.522191	-79.916131	-35.200199
37179		9.659944	-1.144334	-1.403843	-0.131395	-0.014031	0.014684	0.078312	0.328191	0.097821	-0.783691	0.081055	0.469238	0.096582	-0.011391	-0.014201	0.077763	-0.750983	0.000260	-0.655726	-137.526290	-80.010190	-36.166651
37180		9.617511	-1.083052	-1.404557	-0.161657	-0.085118	-0.034711	0.119301	0.313212	0.093738	-0.792969	0.079102	0.471924	0.096158	-0.010777	-0.014203	0.078550	-0.749941	0.000383	-0.656824	-136.532697	-80.096556	-37.106544
37181		9.548696	-0.934607	-1.397595	-0.177449	-0.238207	-0.121658	0.133429	0.297931	0.086026	-0.792480	0.076172	0.473145	0.095470	-0.009296	-0.014124	0.079364	-0.748941	0.000425	-0.657867	-135.567254	-80.176963	-38.009515
37182		9.544527	-0.842540	-1.317244	-0.116024	-0.332990	-0.147358	0.110706	0.283531	0.087532	-0.784668	0.077881	0.470947	0.095430	-0.008376	-0.013312	0.080098	-0.747996	0.000540	-0.658852	-134.631150	-80.248274	-38.895594
37183		9.549669	-0.770085	-1.348169	-0.163561	-0.422079	-0.148226	0.068469	0.274366	0.088404	-0.793213	0.080566	0.467529	0.095481	-0.007654	-0.013615	0.080676	-0.747095	0.000796	-0.659803	-133.725628	-80.313200	-39.775142
37184		9.530800	-0.817198	-1.354694	-0.201941	-0.387609	-0.161363	0.009419	0.277255	0.102511	-0.791992	0.085449	0.459229	0.095293	-0.008122	-0.013679	0.081081	-0.746208	0.001299	-0.660755	-132.803604	-80.370945	-40.705421
37185		9.497392	-1.020112	-1.355799	-0.253127	-0.197402	-0.170272	-0.017569	0.282917	0.106603	-0.800537	0.089355	0.458008	0.094960	-0.010152	-0.013691	0.081398	-0.745311	0.001910	-0.661727	-131.861680	-80.426646	-41.671575
37186		9.479040	-1.110596	-1.403710	-0.336350	-0.124793	-0.172809	-0.006036	0.272799	0.095149	-0.798828	0.090332	0.459229	0.094776	-0.011061	-0.014166	0.081720	-0.744442	0.002434	-0.662663	-130.955039	-80.480782	-42.594895
37187		9.434694	-1.172268	-1.394762	-0.362953	-0.069546	-0.210792	0.018474	0.264092	0.074301	-0.795654	0.084229	0.450195	0.094333	-0.011686	-0.014073	0.082064	-0.743590	0.002798	-0.663575	-130.092078	-80.538428	-43.459738
37188		9.398773	-1.180823	-1.324896	-0.321763	-0.058342	-0.253418	0.029194	0.246067	0.049912	-0.805176	0.083008	0.456055	0.093974	-0.011783	-0.013366	0.082368	-0.742793	0.003026	-0.664428	-129.315408	-80.598132	-44.230524
37189		9.377100	-1.185540	-1.375224	-0.395940	-0.064978	-0.269852	0.040176	0.233475	0.036809	-0.797852	0.083008	0.455078	0.093757	-0.011835	-0.013864	0.082668	-0.742032	0.003166	-0.665240	-128.584266	-80.657519	-44.948867
37190		9.319934	-1.169465	-1.390674	-0.436390	-0.082998	-0.327677	0.067732	0.217707	0.028004	-0.804688	0.085693	0.451416	0.093186	-0.011677	-0.014012	0.083042	-0.741312	0.003172	-0.665996	-127.891976	-80.713763	-45.611501
37191		9.364196	-1.207506	-1.375553	-0.439711	-0.054925	-0.281581	0.093048	0.201435	0.015250	-0.807617	0.086914	0.452881	0.093629	-0.012061	-0.013855	0.083467	-0.740634	0.003043	-0.666697	-127.248595	-80.768913	-46.209998
37192		9.354460	-1.239793	-1.367991	-0.455166	-0.026365	-0.288691	0.121722	0.190726	0.004250	-0.802734	0.087646	0.448242	0.093532	-0.012388	-0.013777	0.083962	-0.739980	0.002770	-0.667362	-126.636521	-80.824291	-46.759816
37193		9.405100	-1.232117	-1.372994	-0.471297	-0.045350	-0.240074	0.149290	0.173587	0.000283	-0.802734	0.093506	0.451172	0.094039	-0.012311	-0.013821	0.084546	-0.739370	0.002386	-0.667966	-126.057973	-80.874823	-47.259821
37194		9.416023	-1.123223	-1.342793	-0.444629	-0.154950	-0.246890	0.187970	0.156707	-0.007915	-0.808594	0.089844	0.455322	0.094149	-0.011223	-0.013512	0.085246	-0.738800	0.001833	-0.668509	-125.519148	-80.922658	-47.696852
37195		9.424412	-0.976728	-1.354491	-0.453765	-0.305671	-0.257122	0.181346	0.139969	-0.017010	-0.808350	0.082764	0.439453	0.094234	-0.009763	-0.013620	0.085890	-0.738287	0.001264	-0.668994	-125.045682	-80.968666	-48.071716
37196		9.384229	-1.053096	-1.406294	-0.531605	-0.235757	-0.283143	0.137476	0.144097	-0.007770	-0.803955	0.095215	0.450195	0.093832	-0.010525	-0.014138	0.086404	-0.737780	0.000875	-0.669488	-124.563504	-81.011109	-48.480547
37197		9.329425	-1.175225	-1.379780	-0.539012	-0.109885	-0.324775	0.142159	0.146357	0.001083	-0.807373	0.086914	0.443848	0.093284	-0.011742	-0.013874	0.086964	-0.737260	0.000506	-0.669988	-124.047851	-81.049604	-48.920763
37198		9.269648	-1.275506	-1.303809	-0.495140	0.001416	-0.378281	0.176467	0.127942	-0.011488	-0.810303	0.098145	0.443604	0.092687	-0.012749	-0.013109	0.087609	-0.736789	-0.000035	-0.670423	-123.591776	-81.087546	-49.280446
37199		9.335323	-1.213833	-1.311915	-0.501130	-0.070571	-0.321289	0.207185	0.098051	-0.039128	-0.804443	0.098633	0.445068	0.093344	-0.012143	-0.013177	0.088274	-0.736401	-0.000790	-0.670761	-123.260042	-81.128964	-49.496702
37200		9.453175	-1.110533	-1.274800	-0.450007	-0.181191	-0.221777	0.225700	0.071947	-0.065322	-0.810303	0.091064	0.445313	0.094524	-0.011122	-0.012795	0.088920	-0.736094	-0.001719	-0.671011	-123.050590	-81.174517	-49.578158
37201		9.547804	-1.006551	-1.313871	-0.474146	-0.297539	-0.138669	0.199354	0.051861	-0.079266	-0.804932	0.098877	0.447266	0.095471	-0.010090	-0.013174	0.089420	-0.735863	-0.002617	-0.671195	-122.943361	-81.220559	-49.571721
37202		9.524850	-0.950982	-1.261097	-0.422858	-0.339261	-0.172999	0.178312	0.033076	-0.071963	-0.808105	0.088135	0.448242	0.095243	-0.009533	-0.012635	0.089869	-0.735706	-0.003429	-0.671304	-122.893919	-81.257145	-49.518702
37203		9.501427	-0.896025	-1.210688	-0.371633	-0.380997	-0.207351	0.138656	0.012476	-0.055487	-0.819336	0.096436	0.443359	0.095011	-0.008978	-0.012119	0.090226	-0.735633	-0.004053	-0.671332	-122.896179	-81.279493	-49.436678
37204		9.503383	-0.826157	-1.179395	-0.332114	-0.443522	-0.216814	0.092991	-0.009878	-0.039872	-0.807617	0.105469	0.446289	0.095033	-0.008275	-0.011793	0.090467	-0.735658	-0.004480	-0.671269	-122.965661	-81.287267	-49.312767
37205		9.527097	-0.771773	-1.237993	-0.378585	-0.506353	-0.195301	0.053374	-0.030014	-0.026850	-0.808838	0.097656	0.442871	0.095272	-0.007727	-0.012368	0.090605	-0.735767	-0.004732	-0.671130	-123.092089	-81.282561	-49.154563
37206		9.590176	-0.869618	-1.201192	-0.344890	-0.410985	-0.123378	-0.001223	-0.033434	-0.016763	-0.807617	0.099609	0.446045	0.095903	-0.008704	-0.011996	0.090578	-0.735914	-0.004769	-0.670972	-123.242295	-81.271798	-49.003541
37207		9.645108	-1.079458	-1.175633	-0.336815	-0.206971	-0.044414	-0.037533	-0.033331	0.004059	-0.808838	0.089844	0.443604	0.096453	-0.010795	-0.011738	0.090485	-0.736076	-0.004603	-0.670808	-123.367306	-81.251132	-48.899456
37208		9.633375	-1.212170	-1.180501	-0.354833	-0.075645	-0.038577	-0.004926	-0.042881	-0.009788	-0.808594	0.098145	0.442871	0.096336	-0.012127	-0.011784	0.090467	-0.736257	-0.004607	-0.670612	-123.533862	-81.233942	-48.733991
37209		9.656070	-1.208198	-1.111774	-0.278507	-0.070890	-0.022239	0.024894	-0.061943	-0.033625	-0.809082	0.094482	0.444092	0.096562	-0.012097	-0.011089	0.090477	-0.736485	-0.004803	-0.670359	-123.787853	-81.222062	-48.463201
37210		9.622702	-1.161435	-1.093171	-0.250167	-0.106632	-0.062488	0.024125	-0.084652	-0.052569	-0.811279	0.097900	0.447998	0.096229	-0.011638	-0.010892	0.090421	-0.736792	-0.005080	-0.670027	-124.153459	-81.211592	-48.079462
37211		9.549182	-1.122921	-1.111927	-0.262469	-0.133187	-0.138104	0.025814	-0.097791	-0.067090	-0.813965	0.100342	0.450684	0.095493	-0.011260	-0.011074	0.090321	-0.737139	-0.005418	-0.669656	-124.584911	-81.203434	-47.628551
37212		9.535047	-1.102391	-1.093339	-0.233061	-0.142699	-0.155924	0.015696	-0.108956	-0.066485	-0.810303	0.098389	0.443604	0.095353	-0.011055	-0.010882	0.090188	-0.737530	-0.005730	-0.669241	-125.056740	-81.190687	-47.142178
37213		9.533089	-1.163103	-1.133720	-0.270388	-0.081972	-0.146350	0.011455	-0.111425	-0.064128	-0.808105	0.097900	0.448242	0.095333	-0.011661	-0.011285	0.090044	-0.737928	-0.006015	-0.668818	-125.529046	-81.175521	-46.658220
37214		9.551383	-1.243850	-1.090895	-0.225970	0.007983	-0.121712	0.025928	-0.112507	-0.067560	-0.814453	0.096191	0.450928	0.095516	-0.012469	-0.010857	0.089945	-0.738326	-0.006366	-0.668390	-126.005021	-81.160854	-46.161670
37215		9.592928	-1.272070	-1.105958	-0.229119	0.035954	-0.075554	0.052633	-0.123845	-0.076725	-0.806885	0.088623	0.445313	0.095931	-0.012755	-0.011004	0.089911	-0.738746	-0.006841	-0.667925	-126.514690	-81.146049	-45.615982
37216		9.628520	-1.173984	-1.082742	-0.178359	-0.053362	-0.054394	0.079462	-0.125698	-0.088920	-0.802979	0.098633	0.458984	0.096287	-0.011778	-0.010772	0.089937	-0.739162	-0.007456	-0.667454	-127.042595	-81.135308	-45.035799
37217		9.662353	-1.030212	-1.021178	-0.082867	-0.180825	-0.044084	0.087811	-0.150995	-0.098813	-0.809082	0.091553	0.443604	0.096626	-0.010345	-0.010143	0.089958	-0.739655	-0.008143	-0.666897	-127.657002	-81.119533	-44.363667
37218		9.703785	-0.827930	-1.071437	-0.087110	-0.381817	-0.022719	0.069664	-0.155955	-0.099077	-0.800537	0.094727	0.450684	0.097042	-0.008324	-0.010642	0.089913	-0.740175	-0.008776	-0.666318	-128.297274	-81.100846	-43.675373
37219		9.720820	-0.803219	-1.043377	-0.040125	-0.394646	-0.011118	0.016865	-0.145978	-0.081560	-0.802979	0.089355	0.459717	0.097212	-0.008071	-0.010364	0.089729	-0.740682	-0.009160	-0.665774	-128.893408	-81.076888	-43.062811
37220		9.690099	-0.901750	-1.059990	-0.059220	-0.289506	-0.027627	-0.021688	-0.134865	-0.051071	-0.803467	0.089355	0.456055	0.096906	-0.009043	-0.010534	0.089506	-0.741174	-0.009303	-0.665254	-129.409695	-81.042338	-42.552876
37221		9.609675	-0.908804	-1.062701	-0.058778	-0.268937	-0.105714	-0.025305	-0.128359	-0.042735	-0.801758	0.091064	0.459229	0.096102	-0.009110	-0.010564	0.089296	-0.741643	-0.009395	-0.664759	-129.883603	-81.005955	-42.088409
37222		9.623821	-0.910255	-1.023303	-0.005309	-0.258190	-0.095335	-0.047854	-0.129729	-0.038396	-0.796875	0.092773	0.465820	0.096243	-0.009123	-0.010168	0.089018	-0.742129	-0.009401	-0.664253	-130.363340	-80.966420	-41.630530
37223		9.634880	-0.987099	-1.094525	-0.070861	-0.188851	-0.067814	-0.082898	-0.127309	-0.038157	-0.804199	0.085693	0.465576	0.096354	-0.009894	-0.010880	0.088610	-0.742619	-0.009284	-0.663761	-130.848795	-80.927230	-41.187685
37224		9.673096	-1.039499	-1.102094	-0.067466	-0.137347	-0.022870	-0.078506	-0.118404	-0.030616	-0.796143	0.088135	0.465820	0.096736	-0.010414	-0.010960	0.088245	-0.743081	-0.009155	-0.663295	-131.289169	-80.887428	-40.787333
37225		9.722438	-1.075912	-1.007486	0.039386	-0.088867	0.020367	-0.075142	-0.113248	-0.025509	-0.798584	0.097656	0.465332	0.097229	-0.010775	-0.010016	0.087908	-0.743521	-0.009011	-0.662849	-131.695080	-80.847073	-40.420453
37226		9.662596	-1.099057	-1.096651	-0.045989	-0.068555	-0.026498	-0.074458	-0.117237	-0.028198	-0.802246	0.095947	0.462646	0.096631	-0.011008	-0.010906	0.087566	-0.743976	-0.008886	-0.662385	-132.117166	-80.805773	-40.036177
37227		9.709330	-1.085400	-1.133575	-0.061887	-0.087694	0.022080	-0.050508	-0.125120	-0.033247	-0.797852	0.088867	0.464844	0.097099	-0.010873	-0.011272	0.087294	-0.744443	-0.008857	-0.661896	-132.551357	-80.763263	-39.626263
37228		9.709007	-0.956125	-1.166312	-0.064548	-0.214811	0.010191	-0.060473	-0.118218	-0.037271	-0.795654	0.093018	0.466797	0.097095	-0.009583	-0.011603	0.086974	-0.744894	-0.008812	-0.661431	-132.982357	-80.724485	-39.224743
37229		9.689689	-0.967830	-1.219992	-0.109380	-0.203809	-0.001386	-0.090753	-0.103066	-0.038061	-0.798340	0.086670	0.460938	0.096901	-0.009702	-0.012146	0.086537	-0.745305	-0.008659	-0.661027	-133.387544	-80.691665	-38.867494
37230		9.679148	-1.096452	-1.230961	-0.127353	-0.072476	0.004740	-0.101040	-0.083608	-0.035515	-0.801758	0.084961	0.467041	0.096795	-0.010988	-0.012264	0.086073	-0.745659	-0.008459	-0.660691	-133.743934	-80.664935	-38.565042
37231		9.685846	-1.275875	-1.228354	-0.137848	0.108503	0.032187	-0.070878	-0.067221	-0.034224	-0.803467	0.097412	0.474365	0.096860	-0.012780	-0.012246	0.085724	-0.745942	-0.008341	-0.660418	-134.034001	-80.644061	-38.312866
37232		9.687059	-1.204270	-1.205218	-0.098320	0.046004	0.022460	-0.007693	-0.070148	-0.057706	-0.800293	0.089844	0.464844	0.096871	-0.012071	-0.012018	0.085536	-0.746210	-0.008526	-0.660138	-134.354024	-80.631283	-37.993034
37233		9.639593	-1.097463	-1.116786	0.002852	-0.036393	-0.046825	0.022194	-0.067939	-0.065933	-0.795654	0.094482	0.464600	0.096396	-0.011005	-0.011136	0.085430	-0.746454	-0.008834	-0.659871	-134.667570	-80.622635	-37.662994
37234		9.697785	-1.006102	-1.096734	0.048387	-0.123100	-0.002254	0.024441	-0.072544	-0.071049	-0.797363	0.092773	0.469238	0.096978	-0.010094	-0.010933	0.085317	-0.746715	-0.009176	-0.659586	-135.006144	-80.613727	-37.305685
37235		9.683174	-0.927327	-1.125330	0.035492	-0.197239	-0.022386	0.020802	-0.075566	-0.059663	-0.793457	0.089111	0.475830	0.096833	-0.009301	-0.011218	0.085226	-0.746985	-0.009460	-0.659288	-135.322368	-80.598834	-36.973718
37236		9.703981	-0.883789	-1.100302	0.076161	-0.233567	-0.009697	-0.001523	-0.078789	-0.046994	-0.804199	0.083740	0.468262	0.097042	-0.008861	-0.010965	0.085095	-0.747278	-0.009629	-0.658970	-135.629934	-80.577069	-36.662876
37237		9.769462	-0.853082	-1.091369	0.106241	-0.264688	0.050368	-0.031220	-0.089282	-0.034867	-0.797852	0.092041	0.474121	0.097698	-0.008550	-0.010869	0.084891	-0.747616	-0.009654	-0.658613	-135.945103	-80.546047	-36.362152
37238		9.858399	-0.873339	-1.131224	0.086389	-0.255043	0.145119	-0.045775	-0.096951	-0.029493	-0.797607	0.088867	0.473145	0.098588	-0.008751	-0.011262	0.084651	-0.747988	-0.009621	-0.658221	-136.274544	-80.509286	-36.054760
37239		9.866851	-0.861174	-1.120823	0.110449	-0.261949	0.150835	-0.070058	-0.108975	-0.039390	-0.790039	0.085693	0.470215	0.098673	-0.008635	-0.011151	0.084286	-0.748407	-0.009543	-0.657793	-136.665081	-80.471284	-35.700117
37240		9.813384	-0.910828	-1.088655	0.141356	-0.197497	0.099844	-0.093496	-0.125439	-0.048556	-0.799805	0.087402	0.474121	0.098138	-0.009137	-0.010821	0.083803	-0.748891	-0.009436	-0.657305	-137.130086	-80.429390	-35.282889
37241		9.700093	-0.985483	-1.135140	0.085559	-0.111838	0.002183	-0.088458	-0.152415	-0.068880	-0.796387	0.089111	0.471436	0.097006	-0.009893	-0.011273	0.083270	-0.749458	-0.009427	-0.656727	-137.697552	-80.383537	-34.759413
37242		9.572565	-1.000372	-1.114987	0.102784	-0.072783	-0.124444	-0.089882	-0.177300	-0.081658	-0.793457	0.093262	0.475830	0.095731	-0.010048	-0.011060	0.082690	-0.750108	-0.009477	-0.656057	-138.351480	-80.330897	-34.148325
37243		9.572383	-1.035040	-1.174219	0.059089	-0.035607	-0.113419	-0.096933	-0.201046	-0.096959	-0.797852	0.091064	0.480225	0.095731	-0.010402	-0.011641	0.082030	-0.750835	-0.009565	-0.655307	-139.090185	-80.272739	-33.455892
37244		9.607253	-1.087560	-1.272621	-0.017975	0.012830	-0.060708	-0.106399	-0.225356	-0.116174	-0.791260	0.088135	0.480957	0.096080	-0.010938	-0.012612	0.081273	-0.751645	-0.009711	-0.654469	-139.929532	-80.209372	-32.666048
37245		9.619399	-1.132434	-1.365496	-0.089863	0.058587	-0.031672	-0.086583	-0.245997	-0.131633	-0.786621	0.082031	0.477539	0.096203	-0.011394	-0.013532	0.080536	-0.752511	-0.009982	-0.653561	-140.826543	-80.140695	-31.806671
37246		9.611135	-1.148120	-1.461764	-0.162854	0.078256	-0.025138	-0.054739	-0.264681	-0.143090	-0.787109	0.089600	0.479492	0.096122	-0.011554	-0.014487	0.079882	-0.753424	-0.010413	-0.652581	-141.763278	-80.065252	-30.887613
37247		9.523625	-1.175852	-1.546217	-0.236783	0.119541	-0.096597	-0.019612	-0.273335	-0.165056	-0.788086	0.086426	0.493164	0.095248	-0.011839	-0.015331	0.079286	-0.754346	-0.011039	-0.651578	-142.736661	-79.991159	-29.911346
37248		9.499026	-1.153377	-1.564592	-0.230417	0.116073	-0.120264	0.022631	-0.282843	-0.188291	-0.784668	0.080078	0.494385	0.095001	-0.011621	-0.015513	0.078775	-0.755282	-0.011901	-0.650540	-143.752663	-79.917533	-28.866343
37249		9.450060	-1.146067	-1.565333	-0.212490	0.133481	-0.168813	0.050932	-0.287616	-0.210874	-0.779541	0.078125	0.488525	0.094511	-0.011556	-0.015520	0.078295	-0.756216	-0.012935	-0.649492	-144.802358	-79.846190	-27.771060
37250		9.494598	-1.115192	-1.618234	-0.228211	0.114311	-0.120191	0.091381	-0.297324	-0.230432	-0.778809	0.085449	0.488525	0.094957	-0.011254	-0.016046	0.077906	-0.757164	-0.014184	-0.648407	-145.885124	-79.772836	-26.617776
37251		9.441476	-1.054381	-1.809682	-0.390624	0.055160	-0.149748	0.143725	-0.314521	-0.243052	-0.781006	0.084229	0.489990	0.094430	-0.010646	-0.017956	0.077670	-0.758141	-0.015652	-0.647259	-146.981901	-79.691653	-25.420099
37252		9.380022	-0.861839	-1.821426	-0.361158	-0.109211	-0.226097	0.189592	-0.321852	-0.248501	-0.776855	0.080566	0.495605	0.093819	-0.008718	-0.018072	0.077592	-0.759122	-0.017298	-0.646075	-148.063267	-79.604287	-24.210386
37253		9.338844	-0.741504	-1.872559	-0.375331	-0.209404	-0.268816	0.172461	-0.326082	-0.253100	-0.776123	0.075195	0.507324	0.093409	-0.007517	-0.018580	0.077431	-0.760117	-0.018900	-0.644879	-149.151372	-79.512408	-23.004120
37254		9.286612	-0.754830	-1.865339	-0.350952	-0.168369	-0.318542	0.160234	-0.328299	-0.251202	-0.774902	0.071777	0.502441	0.092887	-0.007650	-0.018507	0.077231	-0.761123	-0.020464	-0.643668	-150.227070	-79.414457	-21.816635
37255		9.318392	-0.731223	-1.942489	-0.389707	-0.181601	-0.275632	0.159458	-0.334899	-0.255254	-0.775635	0.072266	0.502441	0.093207	-0.007416	-0.019275	0.077011	-0.762144	-0.022036	-0.642433	-151.299933	-79.310612	-20.632691
37256		9.412585	-0.723571	-1.986130	-0.386417	-0.178036	-0.175059	0.156370	-0.330819	-0.251991	-0.775391	0.078125	0.518066	0.094149	-0.007339	-0.019711	0.076793	-0.763151	-0.023591	-0.641207	-152.340675	-79.203602	-19.482231
37257		9.388446	-0.654155	-2.026949	-0.392978	-0.228559	-0.196420	0.152760	-0.321803	-0.230477	-0.774902	0.074219	0.502930	0.093909	-0.006634	-0.020123	0.076628	-0.764128	-0.025042	-0.640007	-153.289937	-79.092189	-18.427204
37258		9.306094	-0.584168	-2.010461	-0.354469	-0.269241	-0.284395	0.127595	-0.313853	-0.216629	-0.761963	0.075684	0.509521	0.093086	-0.005930	-0.019962	0.076415	-0.765090	-0.026363	-0.638830	-154.188647	-78.977787	-17.437254
37259		9.183143	-0.549623	-2.075178	-0.407972	-0.286022	-0.395139	0.100925	-0.311810	-0.204594	-0.770264	0.069580	0.518311	0.091858	-0.005580	-0.020611	0.076136	-0.766051	-0.027546	-0.637660	-155.046289	-78.858999	-16.505032
37260		9.089105	-0.512535	-2.067825	-0.386065	-0.297151	-0.489974	0.088958	-0.310109	-0.194453	-0.773438	0.079346	0.510742	0.090918	-0.005205	-0.020540	0.075845	-0.767013	-0.028657	-0.636488	-155.865560	-78.735669	-15.617837
37261		9.145632	-0.489210	-2.012590	-0.291900	-0.295823	-0.444676	0.057349	-0.302403	-0.189258	-0.766357	0.078613	0.517090	0.091482	-0.004973	-0.019989	0.075449	-0.767958	-0.029639	-0.635350	-156.659564	-78.613183	-14.775191
37262		9.257602	-0.511732	-1.994752	-0.229806	-0.257119	-0.335078	0.020536	-0.301937	-0.182512	-0.768555	0.081543	0.519043	0.092601	-0.005200	-0.019808	0.074885	-0.768918	-0.030428	-0.634217	-157.442592	-78.486862	-13.972763
37263		9.362465	-0.475764	-2.028347	-0.209959	-0.283167	-0.227703	-0.002422	-0.304326	-0.179249	-0.766357	0.065430	0.528809	0.093651	-0.004842	-0.020141	0.074290	-0.769888	-0.031181	-0.633072	-158.211813	-78.356719	-13.189621
37264		9.391735	-0.455542	-2.105720	-0.248614	-0.296266	-0.184781	-0.027623	-0.309509	-0.173744	-0.761230	0.074463	0.529297	0.093946	-0.004640	-0.020911	0.073566	-0.770888	-0.031786	-0.631910	-158.972792	-78.220221	-12.437339
37265		9.387584	-0.393708	-2.155363	-0.260393	-0.344181	-0.182477	-0.052473	-0.315737	-0.178230	-0.756348	0.070313	0.526367	0.093906	-0.004026	-0.021404	0.072780	-0.771907	-0.032381	-0.630725	-159.744133	-78.079601	-11.680563
37266		9.350049	-0.290348	-2.176908	-0.245238	-0.426622	-0.220796	-0.074511	-0.321777	-0.175428	-0.756592	0.072754	0.530518	0.093533	-0.002994	-0.021618	0.071869	-0.772957	-0.032850	-0.629518	-160.512017	-77.932719	-10.947608
37267		9.330193	-0.369545	-2.187235	-0.241449	-0.327380	-0.231066	-0.139019	-0.318225	-0.171957	-0.763916	0.064941	0.531250	0.093333	-0.003791	-0.021721	0.070767	-0.774011	-0.033149	-0.628331	-161.283245	-77.785452	-10.240855
37268		9.267377	-0.572095	-2.298451	-0.361345	-0.118817	-0.254987	-0.157871	-0.322562	-0.175817	-0.751221	0.071777	0.530273	0.092706	-0.005821	-0.022830	0.069533	-0.775087	-0.033358	-0.627130	-162.064184	-77.634133	-9.542490
37269		9.268833	-0.699388	-2.299382	-0.349844	0.030050	-0.243772	-0.104558	-0.332196	-0.189154	-0.754150	0.054199	0.544678	0.092720	-0.007094	-0.022836	0.068507	-0.776164	-0.033836	-0.625884	-162.833528	-77.478235	-8.816633
37270		9.381194	-0.715903	-2.289521	-0.287536	0.068646	-0.134170	-0.053869	-0.350808	-0.219320	-0.748779	0.058350	0.532715	0.093844	-0.007268	-0.022729	0.067533	-0.777280	-0.034546	-0.624566	-163.646112	-77.314522	-8.024284
37271		9.449945	-0.765239	-2.302287	-0.259659	0.140037	-0.060744	-0.029467	-0.362839	-0.247207	-0.749268	0.059814	0.546143	0.094531	-0.007773	-0.022850	0.066612	-0.778410	-0.035494	-0.623202	-164.496407	-77.146501	-7.170386
37272		9.487402	-0.727964	-2.366668	-0.275218	0.120925	-0.012109	0.013119	-0.376519	-0.261993	-0.733643	0.057129	0.545410	0.094909	-0.007402	-0.023489	0.065762	-0.779568	-0.036588	-0.621780	-165.347638	-76.969877	-6.297774
37273		9.513021	-0.676994	-2.402723	-0.262744	0.093077	0.018442	0.057326	-0.394612	-0.270624	-0.743652	0.063721	0.549561	0.095168	-0.006892	-0.023841	0.065099	-0.780757	-0.037908	-0.620278	-166.178288	-76.782011	-5.411772
37274		9.505337	-0.563664	-2.420405	-0.229759	0.007179	0.009456	0.092060	-0.406955	-0.276056	-0.749023	0.060791	0.548584	0.095094	-0.005757	-0.024013	0.064511	-0.781972	-0.039316	-0.618718	-166.987353	-76.584585	-4.534027
37275		9.496990	-0.450373	-2.379031	-0.139345	-0.069942	-0.013149	0.085103	-0.409179	-0.276146	-0.737549	0.062744	0.550049	0.095012	-0.004625	-0.023598	0.063936	-0.783186	-0.040747	-0.617148	-167.774194	-76.383660	-3.675277
37276		9.499226	-0.439876	-2.447256	-0.166297	-0.062104	0.004958	0.077146	-0.405118	-0.268261	-0.732422	0.059570	0.555908	0.095036	-0.004517	-0.024282	0.063318	-0.784392	-0.042083	-0.615589	-168.524388	-76.180891	-2.864555
37277		9.447287	-0.452220	-2.444879	-0.142028	-0.021045	-0.044761	0.079402	-0.401642	-0.266088	-0.731201	0.053955	0.555176	0.094516	-0.004638	-0.024261	0.062753	-0.785576	-0.043455	-0.614039	-169.241578	-75.977901	-2.079449
37278		9.385010	-0.496285	-2.451151	-0.134191	0.049696	-0.101240	0.075866	-0.391102	-0.264054	-0.727051	0.051514	0.565186	0.093891	-0.005078	-0.024330	0.062143	-0.786732	-0.044762	-0.612526	-169.933261	-75.777757	-1.328809
37279		9.420604	-0.459657	-2.458523	-0.092290	0.039334	-0.066243	0.091035	-0.395319	-0.263364	-0.732178	0.053223	0.564697	0.094248	-0.004710	-0.024401	0.061633	-0.787885	-0.046156	-0.610989	-170.593635	-75.573583	-0.594069
37280		9.399827	-0.290147	-2.465699	-0.044168	-0.102203	-0.091162	0.104312	-0.390671	-0.264166	-0.720947	0.056396	0.570557	0.094042	-0.003013	-0.024475	0.061132	-0.789022	-0.047547	-0.609465	-171.229698	-75.369460	0.116911
37281		9.444406	-0.177750	-2.484466	0.001349	-0.189168	-0.047186	0.062355	-0.398431	-0.254352	-0.726074	0.045898	0.568848	0.094491	-0.001890	-0.024657	0.060534	-0.790186	-0.048818	-0.607913	-171.849874	-75.158764	0.794461
37282		9.561139	-0.069042	-2.635783	-0.060554	-0.292197	0.100853	0.021241	-0.396669	-0.242213	-0.722168	0.052979	0.576416	0.095662	-0.000803	-0.026168	0.059772	-0.791363	-0.049873	-0.606371	-172.451529	-74.945680	1.422234
37283		9.680433	0.042180	-2.667811	-0.007424	-0.377586	0.221603	-0.044438	-0.382343	-0.249392	-0.718262	0.052490	0.569336	0.096856	0.000295	-0.026493	0.058771	-0.792503	-0.050795	-0.604901	-173.082347	-74.740128	2.048747
37284		9.499812	-0.168740	-2.735693	-0.117900	-0.152038	0.072744	-0.097963	-0.353278	-0.228631	-0.719727	0.047363	0.582031	0.095044	-0.001809	-0.027188	0.057593	-0.793578	-0.051427	-0.603550	-173.679797	-74.547391	2.603475
37285		9.342510	-0.408081	-2.802744	-0.227114	0.099497	-0.053447	-0.061959	-0.368353	-0.212757	-0.710205	0.048096	0.576416	0.093472	-0.004189	-0.027854	0.056636	-0.794683	-0.052146	-0.602123	-174.211120	-74.344272	3.117484
37286		9.442226	-0.196616	-2.963879	-0.286716	-0.106174	0.081009	0.020029	-0.394061	-0.238220	-0.705078	0.051758	0.586914	0.094478	-0.002076	-0.029453	0.055886	-0.795838	-0.053182	-0.600576	-174.740487	-74.125985	3.672569
37287		9.439834	0.179682	-3.052988	-0.279137	-0.462979	0.095442	0.014734	-0.388651	-0.280196	-0.707764	0.045654	0.580322	0.094460	0.001667	-0.030346	0.055025	-0.796956	-0.054405	-0.599061	-175.338262	-73.912024	4.302490
37288		9.075757	0.100903	-2.980147	-0.288955	-0.351478	-0.270484	-0.026939	-0.365756	-0.268763	-0.712891	0.034912	0.588379	0.090813	0.000883	-0.029636	0.054042	-0.798018	-0.055461	-0.597637	-175.919487	-73.708189	4.891998
37289		8.916609	-0.161149	-3.094805	-0.449286	-0.085184	-0.383985	-0.024173	-0.394747	-0.253879	-0.717041	0.038818	0.590088	0.089225	-0.001728	-0.030772	0.053103	-0.799164	-0.056464	-0.596095	-176.458112	-73.486306	5.438371
37290		8.938399	-0.311250	-3.221843	-0.551112	0.072199	-0.322533	0.026723	-0.416064	-0.260162	-0.702148	0.036621	0.599609	0.089447	-0.003225	-0.032033	0.052305	-0.800359	-0.057609	-0.594450	-176.969643	-73.250349	5.981065
37291		8.960276	-0.304782	-3.241281	-0.525707	0.091399	-0.294261	0.080051	-0.423194	-0.289752	-0.705566	0.035156	0.595947	0.089667	-0.003165	-0.032224	0.051668	-0.801542	-0.059072	-0.592766	-177.490131	-73.010412	6.572217
37292		9.038303	-0.097583	-3.428050	-0.608306	-0.108163	-0.165408	0.116156	-0.462560	-0.347626	-0.701416	0.032959	0.598389	0.090460	-0.001113	-0.034072	0.050954	-0.802816	-0.060843	-0.590922	-178.085852	-72.746808	7.258055
37293		9.024251	0.118514	-3.472386	-0.578545	-0.294274	-0.164524	0.145791	-0.481397	-0.385589	-0.697998	0.038818	0.611328	0.090328	0.001036	-0.034506	0.050278	-0.804111	-0.062899	-0.589000	-178.713161	-72.471616	8.002273
37294		8.759746	0.243468	-3.380105	-0.506276	-0.378372	-0.441573	0.163684	-0.528466	-0.392286	-0.696289	0.035400	0.604248	0.087691	0.002290	-0.033568	0.049605	-0.805537	-0.065008	-0.586875	-179.323730	-72.166351	8.734851
37295		8.679348	0.163180	-3.303422	-0.423028	-0.254259	-0.537647	0.143148	-0.599190	-0.394526	-0.687744	0.035645	0.607910	0.086895	0.001484	-0.032773	0.048854	-0.807158	-0.067120	-0.584469	-179.925505	-71.819010	9.453186
37296		8.645706	0.257883	-3.448210	-0.498906	-0.334236	-0.520547	0.146272	-0.660123	-0.391640	-0.682617	0.033691	0.609131	0.086575	0.002434	-0.034195	0.048071	-0.808953	-0.069211	-0.581803	179.503514	-71.433703	10.137133
37297		8.515654	0.619538	-3.583095	-0.545371	-0.680317	-0.594334	0.138071	-0.708841	-0.410163	-0.677979	0.033447	0.619385	0.085295	0.006045	-0.035525	0.047215	-0.810865	-0.071396	-0.578940	178.925695	-71.018990	10.830293
37298		8.344643	1.035905	-3.598207	-0.479493	-1.060718	-0.740879	0.048126	-0.761928	-0.429828	-0.673096	0.034668	0.623047	0.083605	0.010188	-0.035661	0.045920	-0.812933	-0.073422	-0.575883	178.293575	-70.570415	11.529206
37299		8.325474	1.181663	-3.666630	-0.458520	-1.167634	-0.725344	-0.114843	-0.806376	-0.441847	-0.666748	0.028564	0.619873	0.083427	0.011612	-0.036337	0.043908	-0.815142	-0.075026	-0.572702	177.583834	-70.094337	12.212353
37300		8.477117	0.881548	-3.769163	-0.487707	-0.821699	-0.542762	-0.282176	-0.832185	-0.425337	-0.666504	0.021240	0.632324	0.084945	0.008582	-0.037351	0.041253	-0.817452	-0.076099	-0.569455	176.838142	-69.600179	12.834845
37301		8.657995	0.260896	-3.946444	-0.626771	-0.164608	-0.316230	-0.316690	-0.847587	-0.401237	-0.662842	0.016602	0.637939	0.086751	0.002373	-0.039101	0.038516	-0.819800	-0.076965	-0.566146	176.143584	-69.096303	13.382498
37302		8.812397	-0.021463	-3.971050	-0.570219	0.181607	-0.165451	-0.240989	-0.858795	-0.405008	-0.647461	0.014404	0.633545	0.088293	-0.000441	-0.039331	0.036044	-0.822150	-0.078030	-0.562744	175.514980	-68.582714	13.902695
37303		8.897258	-0.118839	-3.922401	-0.435413	0.349624	-0.104548	-0.134234	-0.878806	-0.433729	-0.644287	0.010742	0.649902	0.089141	-0.001408	-0.038832	0.033951	-0.824499	-0.079546	-0.559215	174.936765	-68.055321	14.441466
37304		8.870028	0.023959	-3.963480	-0.379666	0.257652	-0.108265	-0.039404	-0.903771	-0.474303	-0.640381	0.013672	0.656250	0.088878	0.000021	-0.039233	0.032127	-0.826868	-0.081509	-0.555530	174.384693	-67.508628	15.013829
37305		8.877646	0.296526	-3.973521	-0.258108	0.047203	-0.085422	0.002176	-0.928540	-0.516214	-0.624023	0.009277	0.656982	0.088967	0.002736	-0.039322	0.030345	-0.829256	-0.083750	-0.551724	173.830769	-66.944253	15.615236
37306		8.855729	0.547065	-4.152895	-0.302490	-0.166099	-0.022399	0.023433	-0.942324	-0.544116	-0.631348	0.001465	0.666016	0.088766	0.005234	-0.041110	0.028570	-0.831646	-0.086177	-0.547834	173.281238	-66.367045	16.228757
37307		8.777883	0.688283	-4.129168	-0.202275	-0.248281	-0.093040	0.015221	-0.931356	-0.543057	-0.620605	0.001465	0.671387	0.087988	0.006647	-0.040882	0.026765	-0.833980	-0.088561	-0.543984	172.754759	-65.794873	16.813529
37308		8.744965	0.726845	-4.109714	-0.109036	-0.225217	-0.126150	-0.012484	-0.904854	-0.538206	-0.604492	0.005371	0.671387	0.087654	0.007030	-0.040701	0.024871	-0.836227	-0.090856	-0.540233	172.238786	-65.234997	17.373003
37309		8.751066	0.717316	-4.155505	-0.070573	-0.159019	-0.100179	-0.021459	-0.881615	-0.544464	-0.598389	0.002930	0.682861	0.087712	0.006930	-0.041169	0.022931	-0.838383	-0.093135	-0.536576	171.730259	-64.686751	17.919995
37310		8.846470	0.846453	-4.179141	0.046891	-0.212220	0.005341	-0.045992	-0.848443	-0.560770	-0.595459	0.000977	0.687988	0.088664	0.008207	-0.041417	0.020861	-0.840427	-0.095422	-0.533050	171.204160	-64.152845	18.474439
37311		8.755221	0.910118	-4.323132	-0.034028	-0.241687	-0.009049	-0.070783	-0.825404	-0.551152	-0.591553	-0.001221	0.685791	0.087754	0.008844	-0.042873	0.018720	-0.842391	-0.097587	-0.529626	170.692798	-63.631706	18.998022
37312		8.685622	1.137343	-4.411164	-0.027339	-0.421572	-0.014080	-0.066680	-0.817578	-0.546452	-0.587158	-0.011475	0.692383	0.087066	0.011121	-0.043760	0.016615	-0.844319	-0.099751	-0.526212	170.206662	-63.112444	19.499494
37313		8.802181	1.293229	-4.322675	0.198508	-0.480808	0.064816	-0.126729	-0.756273	-0.517394	-0.577881	-0.017334	0.704590	0.088217	0.012677	-0.042901	0.014360	-0.846083	-0.101615	-0.523079	169.724923	-62.629805	19.958473
37314		8.968354	1.257411	-4.392159	0.265923	-0.364701	0.242119	-0.209133	-0.708838	-0.478141	-0.577393	-0.018311	0.701660	0.089868	0.012314	-0.043616	0.011886	-0.847734	-0.103105	-0.520168	169.244048	-62.175239	20.366298
37315		9.141545	1.221696	-4.532699	0.270686	-0.255031	0.457016	-0.260997	-0.665933	-0.458781	-0.574463	-0.022949	0.702393	0.091593	0.011948	-0.045038	0.009262	-0.849268	-0.104360	-0.517462	168.759552	-61.746366	20.745069
37316		9.263035	1.301575	-4.628693	0.310698	-0.259001	0.616047	-0.299485	-0.622820	-0.451074	-0.565186	-0.030273	0.697754	0.092803	0.012738	-0.046017	0.006518	-0.850684	-0.105493	-0.514942	168.263878	-61.340067	21.114121
37317		9.270176	1.400811	-4.670612	0.346215	-0.293006	0.651861	-0.359264	-0.579135	-0.445181	-0.558105	-0.032715	0.713623	0.092867	0.013718	-0.046462	0.003557	-0.851975	-0.106430	-0.512638	167.742883	-60.958422	21.473199
37318		8.881927	1.251922	-4.639387	0.215401	-0.147511	0.282421	-0.404261	-0.536199	-0.406552	-0.562256	-0.033203	0.708252	0.088968	0.012245	-0.046180	0.000528	-0.853167	-0.107098	-0.510526	167.235472	-60.603053	21.789633
37319		8.589263	1.104347	-4.722528	0.024749	-0.004487	0.051196	-0.393073	-0.549465	-0.381714	-0.555176	-0.037842	0.712402	0.086043	0.010787	-0.047010	-0.002400	-0.854390	-0.107674	-0.508349	166.771800	-60.243186	22.063081
37320		8.423843	1.070497	-4.809637	-0.090464	0.047604	-0.054161	-0.358403	-0.544142	-0.389918	-0.549805	-0.047852	0.723633	0.084389	0.010455	-0.047886	-0.005195	-0.855585	-0.108385	-0.506163	166.326646	-59.883141	22.340240
37321		8.257272	1.210384	-4.863698	-0.147942	-0.068359	-0.154729	-0.334147	-0.527583	-0.402935	-0.547119	-0.044678	0.722900	0.082725	0.011856	-0.048439	-0.007913	-0.856717	-0.109199	-0.504033	165.887821	-59.530457	22.625989
37322		8.145171	1.294388	-4.961183	-0.230322	-0.123596	-0.191676	-0.329900	-0.503557	-0.423361	-0.547119	-0.050049	0.722900	0.081603	0.012690	-0.049428	-0.010648	-0.857768	-0.110123	-0.501989	165.434046	-59.186103	22.934136
37323		8.041260	1.400820	-4.933687	-0.199360	-0.187360	-0.279053	-0.326143	-0.493044	-0.430984	-0.539307	-0.053467	0.726074	0.080564	0.013754	-0.049161	-0.013383	-0.858775	-0.111076	-0.499988	164.981458	-58.846230	23.243337
37324		8.023875	1.364299	-5.139137	-0.354725	-0.115257	-0.194210	-0.324382	-0.481580	-0.423901	-0.531982	-0.053223	0.723389	0.080391	0.013390	-0.051220	-0.016084	-0.859749	-0.112015	-0.498023	164.540823	-58.511521	23.542010
37325		7.914773	1.326711	-5.337305	-0.547694	-0.061966	-0.190502	-0.279860	-0.475857	-0.401921	-0.529053	-0.065674	0.723145	0.079301	0.013033	-0.053203	-0.018537	-0.860711	-0.112956	-0.496059	164.151649	-58.183268	23.810072
37326		7.771527	1.271704	-5.315402	-0.571003	0.013926	-0.328974	-0.201623	-0.459619	-0.384485	-0.525635	-0.062012	0.726074	0.077861	0.012514	-0.052988	-0.020599	-0.861642	-0.114030	-0.494110	163.824245	-57.864808	24.060293
37327		7.659209	1.232684	-5.259525	-0.548494	0.077497	-0.456488	-0.135342	-0.443355	-0.383949	-0.519531	-0.069580	0.733154	0.076732	0.012144	-0.052434	-0.022367	-0.862531	-0.115253	-0.492196	163.536862	-57.555708	24.307761
37328		7.732636	1.344967	-5.250467	-0.448986	0.027796	-0.380435	-0.066352	-0.428273	-0.400880	-0.522217	-0.067383	0.734131	0.077465	0.013277	-0.052343	-0.023868	-0.863374	-0.116732	-0.490294	163.274971	-57.250432	24.573932
37329		7.611806	1.541762	-5.271341	-0.455755	-0.150923	-0.438632	-0.050413	-0.413020	-0.410706	-0.508301	-0.067139	0.736084	0.076258	0.015248	-0.052560	-0.025317	-0.864167	-0.118280	-0.488450	163.015094	-56.952298	24.848283
37330		7.411920	1.595024	-5.379953	-0.603772	-0.216112	-0.538362	-0.069832	-0.391108	-0.387105	-0.507324	-0.070801	0.732666	0.074255	0.015788	-0.053660	-0.026777	-0.864913	-0.119694	-0.486705	162.762407	-56.668401	25.102864
37331		7.131544	1.467513	-5.363434	-0.722335	-0.119468	-0.799213	-0.086456	-0.353071	-0.346875	-0.502686	-0.079834	0.732422	0.071435	0.014528	-0.053515	-0.028190	-0.865580	-0.120885	-0.485142	162.528013	-56.412672	25.323681
37332		6.928984	1.184013	-5.304847	-0.800078	0.144294	-1.043820	-0.081796	-0.302596	-0.309414	-0.501465	-0.074463	0.755615	0.069388	0.011711	-0.052948	-0.029460	-0.866145	-0.121945	-0.483791	162.316682	-56.189412	25.521830
37333		6.717124	0.975191	-5.469037	-1.062007	0.312584	-1.166564	-0.019395	-0.255723	-0.299545	-0.501953	-0.068359	0.745850	0.067256	0.009646	-0.054605	-0.030408	-0.866606	-0.123106	-0.482611	162.139675	-55.994196	25.720953
37334		6.638653	1.014365	-5.514972	-1.115068	0.274949	-1.198946	0.093040	-0.186766	-0.321633	-0.502930	-0.077881	0.743408	0.066454	0.010062	-0.055083	-0.030879	-0.866904	-0.124657	-0.481648	161.992979	-55.831210	25.962918
37335		6.944066	1.482277	-5.203577	-0.596678	-0.064609	-1.030080	0.273177	-0.097685	-0.382333	-0.492676	-0.076660	0.742920	0.069494	0.014761	-0.051982	-0.030661	-0.866970	-0.126905	-0.480955	161.879517	-55.706808	26.288696
37336		7.949937	2.319725	-3.914065	1.160078	-0.514720	-0.741207	0.188542	0.123468	-0.388665	-0.498291	-0.086670	0.744141	0.079520	0.023080	-0.039168	-0.030682	-0.866486	-0.129024	-0.481263	161.655391	-55.699898	26.691234
37337		9.490648	2.034741	-3.090470	2.546191	0.226151	0.047795	-0.172465	0.469473	-0.153599	-0.507080	-0.077637	0.742676	0.094849	0.020248	-0.031145	-0.031481	-0.865258	-0.129294	-0.483344	161.318656	-55.923817	26.978087
37338		10.693191	1.088266	-3.497934	2.562019	1.411351	1.105549	-0.198772	0.616628	0.163505	-0.505859	-0.081055	0.735107	0.106814	0.010935	-0.035320	-0.031529	-0.863869	-0.128164	-0.486117	161.178296	-56.284213	27.010428
37339		11.331650	1.454066	-5.094202	1.535010	1.078076	2.554715	0.133054	0.481648	0.170008	-0.511230	-0.077637	0.733398	0.113181	0.014671	-0.051205	-0.030217	-0.862856	-0.127777	-0.488098	161.270606	-56.573672	26.990372
37340		11.283983	3.402616	-4.474026	2.358298	-0.800841	2.545296	0.173516	0.526518	0.056834	-0.519531	-0.070313	0.733643	0.112712	0.034097	-0.045008	-0.028976	-0.861662	-0.127995	-0.490221	161.280301	-56.865695	27.098002
37341		10.798751	3.135553	-3.495487	2.838373	-0.623422	1.598598	-0.271846	0.665434	0.342306	-0.524170	-0.078125	0.732422	0.107816	0.031492	-0.035357	-0.028866	-0.860234	-0.125898	-0.493268	161.233408	-57.286587	26.967553
37342		10.974241	1.444965	-4.337488	1.814359	0.943420	1.898555	-0.465462	0.523255	0.563498	-0.528076	-0.070313	0.730225	0.109587	0.014657	-0.043696	-0.029131	-0.859254	-0.122361	-0.495844	161.306263	-57.670164	26.565156
37343		10.754827	0.252888	-5.096845	0.784852	1.940287	1.905971	-0.354390	0.491956	0.526596	-0.528320	-0.078613	0.732178	0.107415	0.002721	-0.051237	-0.029030	-0.858328	-0.119240	-0.498209	161.426393	-58.030473	26.182696
37344		9.768149	-0.183956	-4.996381	0.273010	2.089909	0.956326	-0.102474	0.596743	0.488008	-0.540039	-0.071289	0.726318	0.097536	-0.001627	-0.050254	-0.027881	-0.857143	-0.116935	-0.500854	161.632426	-58.439402	25.871461
37345		8.744259	-0.297159	-5.119941	-0.385063	1.905688	0.136376	0.026087	0.527993	0.465672	-0.546875	-0.075928	0.717773	0.087314	-0.002761	-0.051430	-0.026277	-0.856121	-0.115026	-0.503125	161.919724	-58.806942	25.551719
37346		7.967328	-0.083865	-5.672877	-1.228974	1.439612	-0.216658	0.164119	0.402860	0.316288	-0.543701	-0.062256	0.718018	0.079560	-0.000666	-0.056890	-0.024528	-0.855340	-0.114095	-0.504751	162.193823	-59.078398	25.341521
37347		7.338165	0.320893	-5.947139	-1.719929	0.850286	-0.558564	0.210824	0.361504	0.184908	-0.551514	-0.067627	0.716797	0.073271	0.003339	-0.059600	-0.022936	-0.854587	-0.113829	-0.506160	162.390371	-59.304621	25.252582
37348		6.864465	0.399621	-5.788223	-1.815338	0.652076	-1.034116	0.128334	0.400416	0.199814	-0.561768	-0.063477	0.717285	0.068525	0.004102	-0.058017	-0.021635	-0.853732	-0.113302	-0.507775	162.543955	-59.553810	25.159549
37349		7.039814	0.347231	-5.617239	-1.625630	0.728304	-0.977548	0.063343	0.404512	0.178588	-0.562744	-0.055908	0.720703	0.070281	0.003553	-0.056313	-0.020665	-0.852842	-0.112693	-0.509445	162.641013	-59.802221	25.088421
37350		7.870366	0.394433	-5.758959	-1.395018	0.826424	-0.187997	0.078419	0.377220	0.106452	-0.557129	-0.065430	0.718750	0.078593	0.004009	-0.057736	-0.019827	-0.851980	-0.112434	-0.510975	162.687910	-60.022554	25.086077
37351		8.628016	1.107517	-6.012076	-1.185411	0.249307	0.691921	0.173719	0.394736	0.075519	-0.558838	-0.061768	0.713867	0.086157	0.011160	-0.060281	-0.018655	-0.851060	-0.112544	-0.512526	162.755016	-60.247994	25.122741
37352		8.926554	2.224862	-5.934081	-0.829128	-0.797333	1.074152	0.192104	0.479039	0.104694	-0.567139	-0.050293	0.716553	0.089111	0.022352	-0.059533	-0.017280	-0.849940	-0.112591	-0.514419	162.836057	-60.523706	25.156044
37353		8.678255	3.022420	-5.724142	-0.668528	-1.638536	0.868174	0.011124	0.611511	0.189086	-0.566162	-0.053955	0.708008	0.086578	0.030309	-0.057505	-0.016384	-0.848501	-0.111818	-0.516986	162.855655	-60.887055	25.140154
37354		8.126152	3.130755	-5.787490	-1.018808	-1.891161	0.420394	-0.266181	0.730410	0.281288	-0.577393	-0.059082	0.708252	0.081005	0.031344	-0.058213	-0.016358	-0.846775	-0.109952	-0.520207	162.771369	-61.330198	25.062259
37355		7.601415	2.702857	-5.867120	-1.472954	-1.609635	-0.078786	-0.381081	0.808356	0.321329	-0.586182	-0.055908	0.697754	0.075733	0.027038	-0.059029	-0.016672	-0.844839	-0.107615	-0.523820	162.636808	-61.823775	24.966273
37356		7.689264	2.139803	-5.074914	-0.908787	-0.997863	-0.451277	-0.262291	0.868557	0.283362	-0.595947	-0.065674	0.690674	0.076641	0.021440	-0.051110	-0.016550	-0.842720	-0.105762	-0.527602	162.511362	-62.342844	24.938359
37357		8.908358	1.957401	-3.848615	0.583429	-0.504468	0.056785	-0.097719	0.927538	0.178519	-0.590088	-0.056641	0.692383	0.088886	0.019634	-0.038908	-0.015981	-0.840381	-0.104777	-0.531532	162.348015	-62.877034	25.058558
37358		10.555421	1.953623	-3.468321	1.508152	-0.171591	1.365770	-0.155563	0.925025	0.042935	-0.602783	-0.064697	0.683594	0.105388	0.019532	-0.035186	-0.016014	-0.837958	-0.104216	-0.535453	161.999251	-63.384792	25.349870
37359		11.052206	2.104687	-3.677661	1.432408	-0.252348	1.934202	-0.365954	0.990503	0.013653	-0.619141	-0.065674	0.670410	0.110337	0.020986	-0.037362	-0.016975	-0.835303	-0.103208	-0.539748	161.460146	-63.922912	25.716771
37360		9.951461	1.992972	-3.477435	1.038833	-0.343365	0.859600	-0.633402	1.055242	0.117697	-0.622803	-0.066406	0.666260	0.099317	0.019877	-0.035362	-0.018736	-0.832481	-0.101054	-0.544437	160.840109	-64.512761	26.002569
37361		9.103266	0.783534	-3.251173	0.623773	0.690637	-0.159373	-1.164385	1.008752	0.332365	-0.633789	-0.070068	0.659912	0.090854	0.007795	-0.033016	-0.022147	-0.829800	-0.096543	-0.549201	160.160218	-65.118069	26.015950
37362		9.181862	-1.106083	-3.401126	0.168697	2.537156	-0.292628	-1.410471	0.965949	0.551954	-0.637939	-0.070313	0.655518	0.091684	-0.011049	-0.034376	-0.025993	-0.827258	-0.090443	-0.553884	159.601369	-65.742621	25.742062
37363		9.563788	-2.238201	-3.533840	-0.016797	3.690710	-0.048384	-1.041465	0.882558	0.576573	-0.638428	-0.077393	0.642090	0.095545	-0.022292	-0.035644	-0.028283	-0.824948	-0.085237	-0.558028	159.318344	-66.329115	25.398087
37364		9.594781	-1.088176	-3.459510	0.127136	2.541117	0.124027	-0.354339	0.709648	0.356341	-0.649658	-0.080078	0.643066	0.095844	-0.010773	-0.034916	-0.028424	-0.823097	-0.082834	-0.561108	159.241503	-66.777918	25.260514
37365		9.191904	0.886394	-3.320279	0.263519	0.516664	-0.016542	-0.022852	0.499658	0.038970	-0.652100	-0.079346	0.643066	0.091834	0.008878	-0.033433	-0.028180	-0.821736	-0.082631	-0.563140	159.055957	-67.050506	25.447291
37366		8.985717	1.952920	-3.591699	0.007979	-0.577004	0.042472	-0.099540	0.352815	-0.188574	-0.650146	-0.086914	0.636230	0.089812	0.019427	-0.036085	-0.028950	-0.820684	-0.083130	-0.564561	158.605451	-67.196379	25.874185
37367		9.187061	2.384151	-4.060568	-0.348729	-0.966610	0.459525	-0.141174	0.310943	-0.294414	-0.659912	-0.087402	0.636230	0.091842	0.023678	-0.040765	-0.030209	-0.819693	-0.083935	-0.565814	158.011893	-67.296795	26.429435
37368		9.598889	2.471738	-4.296692	-0.458578	-0.965821	0.937492	-0.151386	0.427368	-0.248951	-0.665771	-0.089355	0.632324	0.095927	0.024565	-0.043191	-0.031330	-0.818389	-0.084547	-0.567547	157.404098	-67.465767	26.993809
37369		9.967369	2.401593	-4.376199	-0.474973	-0.819087	1.294528	-0.217688	0.631897	-0.087028	-0.662109	-0.088135	0.628174	0.099545	0.023925	-0.044103	-0.032178	-0.816552	-0.084335	-0.570171	156.844503	-67.777344	27.463410
37370		9.972472	2.264783	-4.396980	-0.590340	-0.686326	1.282021	-0.240413	0.829738	0.123067	-0.669189	-0.091309	0.621094	0.099527	0.022656	-0.044410	-0.032447	-0.814229	-0.083220	-0.573631	156.419217	-68.238306	27.771137
37371		9.705280	1.979282	-4.362217	-0.770353	-0.472590	0.972545	-0.225773	0.911506	0.301500	-0.684326	-0.094482	0.612061	0.096823	0.019889	-0.044086	-0.032099	-0.811725	-0.081443	-0.577441	156.177913	-68.783446	27.890765
37372		9.312226	1.754468	-4.256421	-0.917760	-0.349891	0.528837	-0.234052	0.971501	0.418359	-0.681152	-0.087646	0.617432	0.092877	0.017689	-0.043036	-0.031434	-0.809079	-0.079164	-0.581495	156.047712	-69.386065	27.884004
37373		9.037881	1.460629	-3.950075	-0.841862	-0.136028	0.121673	-0.281777	1.023771	0.485554	-0.703125	-0.100586	0.603271	0.090139	0.014769	-0.039983	-0.030733	-0.806268	-0.076491	-0.585778	155.949180	-70.032624	27.816253
37374		8.915582	1.284345	-3.307563	-0.386459	-0.000444	-0.224845	-0.298055	1.064638	0.488575	-0.708496	-0.087646	0.598877	0.088946	0.013011	-0.033569	-0.030087	-0.803314	-0.073747	-0.590205	155.817626	-70.700334	27.771452
37375		8.897066	1.239347	-2.342971	0.423442	0.036877	-0.538978	-0.302151	1.043848	0.417167	-0.710205	-0.089600	0.593262	0.088821	0.012543	-0.023912	-0.029660	-0.800361	-0.071287	-0.594526	155.584833	-71.341366	27.833884
37376		8.815141	1.049185	-1.414797	1.179281	0.214074	-0.903598	-0.388078	0.985967	0.300614	-0.725342	-0.093994	0.594971	0.088064	0.010596	-0.014603	-0.029956	-0.797505	-0.069015	-0.598602	155.148302	-71.923327	28.056807
37377		8.709942	0.607837	-0.562040	1.851450	0.642311	-1.285822	-0.446275	0.910152	0.179105	-0.730957	-0.099121	0.579590	0.087067	0.006143	-0.006030	-0.030860	-0.794798	-0.067052	-0.602368	154.515862	-72.436644	28.451866
37378		8.554756	0.115270	0.373688	2.604133	1.121219	-1.731987	-0.388561	0.817028	0.113934	-0.737793	-0.096191	0.577393	0.085561	0.001208	0.003385	-0.031781	-0.792346	-0.065488	-0.605714	153.853531	-72.883383	28.908702
37379		8.205394	-0.273379	0.991891	3.026119	1.461172	-2.256606	-0.198627	0.703422	0.103726	-0.742676	-0.092041	0.572021	0.082090	-0.002682	0.009633	-0.031997	-0.790245	-0.064538	-0.608543	153.351585	-73.268688	29.313750
37380		7.953069	-0.446169	1.312285	3.216871	1.595617	-2.582331	0.093038	0.521130	0.101720	-0.732910	-0.095947	0.566650	0.079567	-0.004427	0.012913	-0.031142	-0.788741	-0.064439	-0.610545	153.154918	-73.558778	29.571347
37381		8.010843	-0.110406	1.150620	3.066473	1.263211	-2.429550	0.455459	0.294173	0.037139	-0.739502	-0.083008	0.561035	0.080125	-0.001115	0.011386	-0.029112	-0.787956	-0.065680	-0.611526	153.248553	-73.716747	29.745074
37382		8.403684	0.373424	0.983909	3.022117	0.839222	-1.945544	0.689885	0.050096	-0.061856	-0.740234	-0.085205	0.575439	0.084040	0.003674	0.009831	-0.026556	-0.787914	-0.067976	-0.611445	153.518263	-73.723933	29.872587
37383		9.129454	0.730420	0.691845	2.949454	0.589797	-1.134444	0.679560	-0.121955	-0.150121	-0.740234	-0.078613	0.567139	0.091296	0.007212	0.006999	-0.024353	-0.788354	-0.070580	-0.610674	153.777208	-73.621006	30.007822
37384		9.814543	0.674056	0.406257	2.854443	0.748456	-0.419257	0.565493	-0.194640	-0.202087	-0.738525	-0.087158	0.567871	0.098148	0.006630	0.004177	-0.022799	-0.788978	-0.073015	-0.609641	153.942106	-73.467384	30.170394
37385		9.845367	0.959315	-0.388752	2.144599	0.451172	-0.158689	0.558984	-0.250594	-0.244307	-0.730225	-0.079834	0.570801	0.098470	0.009483	-0.003738	-0.021405	-0.789745	-0.075606	-0.608381	154.078005	-73.274800	30.362155
37386		9.849689	1.669852	-1.228899	1.437389	-0.276517	0.145838	0.539192	-0.338247	-0.264930	-0.735596	-0.075684	0.576172	0.098539	0.016601	-0.012078	-0.020203	-0.790763	-0.078185	-0.606772	154.240278	-73.031806	30.511264
37387		10.271086	2.111012	-1.938004	0.950402	-0.670728	0.787032	0.364843	-0.408165	-0.270945	-0.728516	-0.084473	0.574951	0.102779	0.021006	-0.019132	-0.019717	-0.791962	-0.080274	-0.604949	154.349827	-72.751529	30.614697
37388		10.630826	1.942764	-2.553371	0.480604	-0.467328	1.271487	0.097344	-0.393578	-0.201174	-0.724121	-0.080566	0.586182	0.106378	0.019333	-0.025315	-0.020091	-0.793115	-0.081258	-0.603293	154.409576	-72.495963	30.606650
37389		10.500437	1.385346	-2.947348	0.048944	0.055868	1.180929	-0.032126	-0.305427	-0.125825	-0.714844	-0.072754	0.590576	0.105058	0.013783	-0.029315	-0.020698	-0.794014	-0.081582	-0.602045	154.448894	-72.304746	30.545425
37390		9.825572	0.829348	-3.383771	-0.576923	0.485169	0.584971	-0.025130	-0.217758	-0.089292	-0.721680	-0.079590	0.589111	0.098296	0.008245	-0.033732	-0.021147	-0.794665	-0.081771	-0.601143	154.482171	-72.167722	30.491767
37391		9.275796	0.392097	-3.457611	-0.818634	0.833200	0.025239	0.064695	-0.164423	-0.048792	-0.721191	-0.083008	0.594727	0.092787	0.003910	-0.034499	-0.021079	-0.795179	-0.082094	-0.600422	154.590725	-72.068388	30.415984
37392		9.101185	0.326602	-3.268455	-0.673803	0.883666	-0.200916	0.221765	-0.148418	-0.049918	-0.718506	-0.083740	0.595703	0.091037	0.003279	-0.032613	-0.020402	-0.795663	-0.082873	-0.599697	154.773867	-71.976849	30.353048
37393		9.367445	0.546301	-2.963260	-0.268379	0.726441	-0.003070	0.369233	-0.174749	-0.062034	-0.727051	-0.075928	0.593506	0.093702	0.005489	-0.029541	-0.019167	-0.796230	-0.084162	-0.598805	155.040740	-71.868791	30.294188
37394		9.669272	1.160578	-2.478839	0.366213	0.201234	0.227818	0.422271	-0.168593	-0.100998	-0.724854	-0.079102	0.593750	0.096719	0.011609	-0.024682	-0.017853	-0.796767	-0.085741	-0.597907	155.269883	-71.754319	30.303645
37395		9.772799	1.690111	-1.854111	1.075430	-0.254037	0.216304	0.322543	-0.173695	-0.109866	-0.721191	-0.081055	0.593018	0.097753	0.016877	-0.018429	-0.016947	-0.797300	-0.087080	-0.597029	155.430678	-71.635242	30.328263
37396		9.641750	1.798115	-1.321523	1.582502	-0.333186	-0.049101	0.133295	-0.172139	-0.090294	-0.715332	-0.066406	0.602539	0.096437	0.017946	-0.013120	-0.016756	-0.797821	-0.087751	-0.596239	155.511693	-71.521520	30.319045
37397		9.443871	1.636219	-1.400568	1.454890	-0.204354	-0.238399	-0.033087	-0.249227	-0.050989	-0.712158	-0.069580	0.599121	0.094460	0.016336	-0.013891	-0.017125	-0.798572	-0.087787	-0.595217	155.612616	-71.377029	30.191922
37398		9.651524	1.409196	-1.813799	1.117879	0.029257	0.045153	-0.146879	-0.332433	-0.060568	-0.716309	-0.080322	0.595215	0.096549	0.014049	-0.017988	-0.018027	-0.799555	-0.087499	-0.593911	155.689493	-71.186736	30.018808
37399		9.869247	0.804967	-2.478068	0.507934	0.620849	0.363130	-0.262044	-0.388663	-0.030965	-0.699219	-0.077637	0.599854	0.098742	0.008002	-0.024599	-0.019313	-0.800703	-0.086762	-0.592431	155.781732	-70.974004	29.761913
37400		9.717987	-0.230199	-2.598751	0.267880	1.617043	0.115004	-0.271859	-0.371446	0.018993	-0.711426	-0.076660	0.606445	0.097228	-0.002328	-0.025804	-0.020501	-0.801818	-0.085773	-0.591025	155.927580	-70.781801	29.438533
37401		9.494959	-1.042783	-2.641701	0.108948	2.384642	-0.193866	-0.032796	-0.373043	-0.011114	-0.701172	-0.078857	0.605713	0.094998	-0.010437	-0.026238	-0.020802	-0.802944	-0.085634	-0.589504	156.161773	-70.581420	29.169780
37402		9.379301	-0.896553	-2.511369	0.255183	2.235579	-0.324853	0.370259	-0.450842	-0.112090	-0.699951	-0.071533	0.600342	0.093844	-0.008972	-0.024919	-0.019831	-0.804295	-0.087058	-0.587484	156.521796	-70.316604	29.008997
37403		9.389987	0.380835	-2.431654	0.530440	0.995504	-0.171257	0.673824	-0.531478	-0.274462	-0.702393	-0.076904	0.610107	0.093969	0.003761	-0.024054	-0.018135	-0.805828	-0.090039	-0.584984	156.862873	-69.972162	29.056160
37404		9.462099	1.649342	-2.251549	0.940487	-0.205714	0.005349	0.661746	-0.596592	-0.354903	-0.690918	-0.076660	0.610840	0.094717	0.016399	-0.022179	-0.016767	-0.807498	-0.093279	-0.582206	157.117669	-69.575592	29.185007
37405		9.625870	2.238578	-2.129216	1.251059	-0.718054	0.193358	0.442576	-0.600704	-0.338091	-0.690430	-0.067627	0.624268	0.096360	0.022270	-0.020953	-0.016221	-0.809152	-0.095833	-0.579504	157.271565	-69.180610	29.290829
37406		9.640554	2.241187	-1.988164	1.453910	-0.676345	0.154474	0.244292	-0.594757	-0.274588	-0.681885	-0.073242	0.631348	0.096495	0.022303	-0.019567	-0.016307	-0.810794	-0.097532	-0.576918	157.395357	-68.803058	29.304210
37407		9.669039	1.944668	-1.785927	1.672424	-0.336399	0.064108	0.126219	-0.595342	-0.212190	-0.677002	-0.065918	0.623291	0.096764	0.019355	-0.017559	-0.016675	-0.812447	-0.098659	-0.574386	157.534263	-68.438739	29.232016
37408		9.793204	1.438479	-1.340334	2.118310	0.242552	-0.054299	0.072395	-0.628525	-0.150580	-0.672119	-0.068604	0.637939	0.097984	0.014316	-0.013090	-0.017116	-0.814213	-0.099355	-0.571745	157.738177	-68.070430	29.053455
37409		10.029894	1.041542	-0.959006	2.559769	0.726888	-0.039149	0.147791	-0.687906	-0.149366	-0.667725	-0.069336	0.639893	0.100339	0.010347	-0.009237	-0.017261	-0.816145	-0.100278	-0.568817	158.011635	-67.670359	28.848973
37410		10.065030	1.106252	-0.586186	3.000259	0.723384	-0.151072	0.265181	-0.778652	-0.178463	-0.661133	-0.072510	0.642578	0.100682	0.010980	-0.005455	-0.017069	-0.818320	-0.101622	-0.565451	158.352240	-67.215784	28.640951
37411		10.078861	1.197985	-0.220728	3.438869	0.694176	-0.285943	0.286350	-0.886306	-0.220844	-0.652832	-0.069092	0.654297	0.100810	0.011871	-0.001744	-0.016951	-0.820761	-0.103209	-0.561616	158.694336	-66.694091	28.446789
37412		9.997568	0.877225	-0.175880	3.492738	1.026270	-0.458625	0.164888	-0.998511	-0.229523	-0.642334	-0.060791	0.656738	0.099993	0.008659	-0.001252	-0.017430	-0.823482	-0.104453	-0.557372	158.997545	-66.110767	28.214656
37413		9.721109	-0.323989	-0.382855	3.115160	2.157904	-0.846654	-0.000184	-1.098400	-0.180405	-0.638428	-0.067139	0.653809	0.097227	-0.003328	-0.003295	-0.018486	-0.826468	-0.105049	-0.552787	159.297650	-65.482961	27.884815
37414		9.442239	-1.496814	-0.156836	3.140685	3.294918	-1.404392	0.100058	-1.220881	-0.185852	-0.629883	-0.069092	0.671387	0.094416	-0.015055	-0.001000	-0.019218	-0.829769	-0.105908	-0.547629	159.684499	-64.788298	27.518131
37415		9.699819	-2.458032	0.146354	3.474279	4.338971	-1.490966	0.273420	-1.429177	-0.246042	-0.614014	-0.066895	0.685791	0.096954	-0.024702	0.002123	-0.019494	-0.833587	-0.107488	-0.541478	160.166674	-63.967798	27.156415
37416		10.313525	-2.896825	0.293610	3.899362	4.943145	-1.140621	0.501008	-1.640566	-0.389979	-0.603760	-0.065186	0.686768	0.103050	-0.029178	0.003709	-0.019339	-0.837867	-0.110225	-0.534280	160.677943	-63.005240	26.901078
37417		11.334398	-2.881363	0.502424	4.642279	5.218585	-0.419319	0.693713	-1.866344	-0.569410	-0.594238	-0.076416	0.706055	0.113208	-0.029156	0.005980	-0.018962	-0.842593	-0.114227	-0.525957	161.168450	-61.884870	26.795430
37418		12.299929	-2.630472	0.446038	5.206033	5.267395	0.363407	0.775087	-2.064112	-0.783826	-0.583740	-0.066406	0.706299	0.122841	-0.026807	0.005625	-0.018939	-0.847620	-0.119269	-0.516678	161.539703	-60.618886	26.872184
37419		12.664043	-2.490554	-0.082559	5.115140	5.284965	0.793215	0.758000	-2.237126	-0.923915	-0.550293	-0.066650	0.726318	0.126523	-0.025490	0.000494	-0.019428	-0.852883	-0.124871	-0.506577	161.814665	-59.232444	27.055580
37420		13.570870	-2.544716	-0.712039	5.188414	5.630728	1.698925	0.679259	-2.367551	-0.999810	-0.541992	-0.065674	0.732910	0.135652	-0.026105	-0.005602	-0.020525	-0.858273	-0.130541	-0.495887	162.015039	-57.763689	27.274305
37421		14.644467	-3.115803	-1.024240	5.558141	6.573222	2.479848	0.528748	-2.409322	-1.002000	-0.510742	-0.062988	0.745605	0.146396	-0.031867	-0.008562	-0.022295	-0.863602	-0.135843	-0.485017	162.141964	-56.270282	27.483384
37422		15.035083	-3.952530	-0.522732	6.245160	7.684854	2.182279	0.460440	-2.380319	-0.931273	-0.489990	-0.062744	0.759766	0.150213	-0.040216	-0.003531	-0.024168	-0.868747	-0.140624	-0.474257	162.284032	-54.807596	27.627747
37423		14.528611	-4.665684	-0.713953	5.909292	8.362314	1.523122	0.533886	-2.438158	-0.845176	-0.474121	-0.068604	0.771240	0.145161	-0.047254	-0.005495	-0.025551	-0.873953	-0.145202	-0.463108	162.545230	-53.326283	27.682167
37424		13.322392	-3.515493	-2.767005	4.106369	6.876523	1.734728	0.846091	-2.627855	-0.905005	-0.439697	-0.065186	0.779053	0.133413	-0.035646	-0.026068	-0.025843	-0.879424	-0.150676	-0.450825	162.976708	-51.733990	27.745367
37425		12.051989	-1.196031	-4.670250	2.725264	4.263117	2.140590	1.040669	-2.741434	-1.084876	-0.425537	-0.071289	0.788574	0.121079	-0.012379	-0.045109	-0.025762	-0.884842	-0.157367	-0.437751	163.408418	-50.047198	27.956631
37426		10.914395	0.624008	-6.305778	1.577829	2.190954	2.515126	0.933398	-2.800695	-1.251803	-0.398438	-0.059326	0.802734	0.110050	0.005843	-0.061493	-0.026563	-0.890021	-0.164472	-0.424389	163.682768	-48.304698	28.296424
37427		10.365888	1.561553	-7.746337	0.737040	1.160771	3.148561	0.739610	-2.622273	-1.241139	-0.367920	-0.057129	0.815186	0.104757	0.015251	-0.076038	-0.028048	-0.894592	-0.171145	-0.411859	163.827907	-46.659791	28.673566
37428		9.934411	2.804626	-8.958774	0.251039	-0.120974	3.852248	0.915943	-2.303790	-0.973508	-0.345459	-0.054443	0.821777	0.100502	0.027965	-0.088306	-0.027916	-0.898580	-0.176950	-0.400578	164.183042	-45.236894	28.905191
37429		8.335974	4.188195	-8.847860	0.062335	-1.859386	2.909173	0.813554	-2.063638	-0.563258	-0.330078	-0.049561	0.822266	0.084384	0.042002	-0.087441	-0.027205	-0.902298	-0.180757	-0.390442	164.662506	-44.007692	28.885314
37430		6.862920	4.077824	-9.502547	-1.111772	-2.259421	2.339718	0.333736	-1.865489	-0.359330	-0.311768	-0.045898	0.835938	0.069584	0.040812	-0.094311	-0.028077	-0.905646	-0.182672	-0.381637	164.938771	-42.921792	28.757335
37431		5.873373	4.133743	-10.009122	-1.880585	-2.634969	2.073603	0.179485	-1.606153	-0.265861	-0.293457	-0.052979	0.832275	0.059590	0.041348	-0.099578	-0.029231	-0.908491	-0.183933	-0.374110	165.130577	-41.989738	28.624580
37432		4.974422	4.458626	-10.433627	-2.495017	-3.229747	1.884585	0.051670	-1.354348	-0.152077	-0.283447	-0.047119	0.837158	0.050483	0.044575	-0.103985	-0.030518	-0.910899	-0.184425	-0.367858	165.268529	-41.216562	28.457278
37433		3.693335	4.778523	-11.166638	-3.617588	-3.983767	1.685575	-0.152609	-1.134074	0.028195	-0.267822	-0.045410	0.834717	0.037559	0.047705	-0.111491	-0.032201	-0.912999	-0.183786	-0.362791	165.343217	-40.588425	28.208680
37434		2.173856	4.793572	-11.515978	-4.779461	-4.517408	1.007237	-0.108426	-0.902532	0.228129	-0.256836	-0.061035	0.839355	0.022203	0.047898	-0.115086	-0.033104	-0.914846	-0.182311	-0.358781	165.505853	-40.119862	27.857783
37435		0.982586	4.650363	-10.055197	-4.594415	-4.696347	-0.838625	0.325933	-0.431307	0.248068	-0.250732	-0.050537	0.840576	0.009985	0.046680	-0.100455	-0.031555	-0.915922	-0.181635	-0.356510	165.865105	-39.911798	27.588488
37436		0.437740	3.969759	-8.387238	-4.034660	-4.164216	-2.554793	0.455935	-0.008573	0.150293	-0.252686	-0.044922	0.840820	0.004351	0.039892	-0.083781	-0.029201	-0.916170	-0.181673	-0.356054	166.203674	-39.926367	27.464603
