// General information: 
//  MT Manager version: 2019.2.0 
//  XDA version: 2019.2.0 build 3853 rev 94535 built on 2019-09-09
// Device information: 
//  DeviceId: 00B47791
//  ProductCode: MTW2-3A7G6
//  Firmware Version: 4.6.0
//  Hardware Version: 2.0.0
// Device settings: 
//  Filter Profile: human(46.1)
//  Option Flags: Orientation Smoother Disabled, AHS Disabled, ICC Disabled
// Coordinate system: ENU
PacketCounter	SampleTimeFine	Acc_X	Acc_Y	Acc_Z	FreeAcc_E	FreeAcc_N	FreeAcc_U	Gyr_X	Gyr_Y	Gyr_Z	Mag_X	Mag_Y	Mag_Z	VelInc_X	VelInc_Y	VelInc_Z	Quat_q0	Quat_q1	Quat_q2	Quat_q3	Roll	Pitch	Yaw
36899		8.386126	0.658161	4.427970	0.084141	-0.030777	-0.306943	0.177373	0.117370	0.123977	-0.700439	-0.160645	-0.904541	0.083883	0.006594	0.044236	0.858324	0.049110	-0.510628	0.011240	8.740350	-61.362919	-3.691858
36900		8.422613	0.704332	4.400189	0.131476	0.021279	-0.284812	0.184715	0.111580	0.134028	-0.698975	-0.164307	-0.895508	0.084246	0.007059	0.043961	0.858549	0.049508	-0.510187	0.012347	8.676457	-61.313994	-3.501470
36901		8.443962	0.677515	4.404253	0.147907	-0.001420	-0.266218	0.184430	0.098965	0.137347	-0.691162	-0.160400	-0.897217	0.084457	0.006793	0.044007	0.858740	0.049895	-0.509800	0.013462	8.611442	-61.272255	-3.310151
36902		8.451874	0.640223	4.377521	0.184433	-0.031153	-0.274775	0.189830	0.084941	0.135320	-0.702637	-0.161133	-0.899170	0.084533	0.006418	0.043745	0.858892	0.050314	-0.509471	0.014582	8.554092	-61.238330	-3.123565
36903		8.452496	0.570029	4.344643	0.223530	-0.093297	-0.294973	0.200904	0.056667	0.134282	-0.688721	-0.159912	-0.894775	0.084533	0.005713	0.043428	0.858968	0.050783	-0.509262	0.015715	8.508820	-61.220117	-2.943883
36904		8.462544	0.528028	4.356101	0.224024	-0.132982	-0.283721	0.208757	0.033019	0.128602	-0.689941	-0.163330	-0.898682	0.084629	0.005289	0.043553	0.858981	0.051302	-0.509152	0.016840	8.477556	-61.214944	-2.774878
36905		8.506598	0.496509	4.366827	0.238770	-0.164028	-0.242213	0.218238	0.011036	0.121936	-0.696289	-0.165527	-0.891113	0.085065	0.004969	0.043669	0.858935	0.051881	-0.509133	0.017952	8.462068	-61.221457	-2.617829
36906		8.573668	0.515084	4.367544	0.266830	-0.145650	-0.181689	0.223489	-0.017579	0.116317	-0.693604	-0.162842	-0.903076	0.085730	0.005152	0.043689	0.858814	0.052500	-0.509234	0.019050	8.459606	-61.243867	-2.471892
36907		8.619705	0.603009	4.432506	0.221101	-0.065645	-0.104091	0.213622	-0.021203	0.105406	-0.699463	-0.168213	-0.899414	0.086189	0.006028	0.044341	0.858686	0.053103	-0.509348	0.020071	8.463295	-61.267245	-2.339786
36908		8.632232	0.563651	4.438786	0.221579	-0.105303	-0.092823	0.202285	-0.016796	0.098863	-0.695801	-0.167480	-0.893066	0.086316	0.005634	0.044401	0.858572	0.053674	-0.509442	0.021039	8.466335	-61.287732	-2.214215
36909		8.562286	0.680966	4.507860	0.113842	0.004904	-0.112983	0.190020	-0.015717	0.091384	-0.702881	-0.168701	-0.890625	0.085616	0.006806	0.045092	0.858464	0.054211	-0.509529	0.021941	8.469972	-61.306826	-2.097522
36910		8.575085	0.765206	4.529534	0.089856	0.086221	-0.085469	0.174017	-0.016321	0.090658	-0.702881	-0.166748	-0.891357	0.085744	0.007652	0.045309	0.858356	0.054683	-0.509622	0.022803	8.465109	-61.326462	-1.981294
36911		8.618453	0.803379	4.573506	0.065108	0.118447	-0.023825	0.163626	-0.020258	0.074616	-0.701660	-0.169434	-0.887207	0.086177	0.008029	0.045750	0.858244	0.055150	-0.509726	0.023565	8.471540	-61.346715	-1.885063
36912		8.661440	0.847352	4.575588	0.076331	0.160627	0.018026	0.144068	-0.013440	0.056981	-0.712402	-0.166748	-0.892090	0.086609	0.008465	0.045768	0.858155	0.055577	-0.509800	0.024205	8.483867	-61.361920	-1.808163
36913		8.676737	0.855100	4.645009	0.019776	0.158865	0.064936	0.129870	-0.009415	0.048347	-0.700684	-0.168457	-0.892578	0.086763	0.008542	0.046460	0.858081	0.055965	-0.509853	0.024772	8.496450	-61.373823	-1.741004
36914		8.678007	0.851941	4.684815	-0.016701	0.150041	0.084701	0.107894	-0.017880	0.040112	-0.697998	-0.173340	-0.885254	0.086774	0.008512	0.046861	0.857992	0.056280	-0.509946	0.025244	8.506196	-61.390135	-1.685047
36915		8.626417	0.850656	4.668401	-0.029628	0.150783	0.031551	0.088198	-0.014236	0.029621	-0.689941	-0.173340	-0.881836	0.086260	0.008499	0.046694	0.857920	0.056537	-0.510020	0.025623	8.515048	-61.403195	-1.640853
36916		8.616804	0.887062	4.698686	-0.066962	0.182698	0.040027	0.069784	-0.019342	0.022052	-0.697998	-0.178223	-0.893066	0.086163	0.008864	0.046998	0.857840	0.056737	-0.510117	0.025924	8.521943	-61.418680	-1.605941
36917		8.551586	0.864912	4.737008	-0.131813	0.156492	-0.000701	0.044849	-0.015983	0.012353	-0.703613	-0.169434	-0.895020	0.085512	0.008644	0.047379	0.857778	0.056853	-0.510199	0.026117	8.524154	-61.431267	-1.582479
36918		8.557231	0.853155	4.677486	-0.077746	0.152092	-0.024747	0.028011	-0.007355	0.004508	-0.706055	-0.176758	-0.882324	0.085570	0.008527	0.046779	0.857743	0.056916	-0.510245	0.026239	8.523469	-61.438446	-1.566486
36919		8.587781	0.807795	4.699837	-0.078952	0.104120	0.009426	0.008582	-0.003694	-0.003246	-0.698730	-0.171875	-0.884521	0.085877	0.008075	0.047000	0.857724	0.056914	-0.510274	0.026276	8.519209	-61.442745	-1.559318
36920		8.655977	0.758773	4.665974	-0.011513	0.059357	0.049834	-0.009286	0.016151	-0.011177	-0.693604	-0.170654	-0.890381	0.086564	0.007585	0.046652	0.857761	0.056855	-0.510221	0.026243	8.509897	-61.435417	-1.557613
36921		8.651826	0.708690	4.647726	0.009107	0.012613	0.034010	-0.031157	0.017890	-0.025872	-0.695068	-0.180908	-0.883057	0.086523	0.007083	0.046468	0.857812	0.056738	-0.510156	0.026088	8.503056	-61.425567	-1.573430
36922		8.744035	0.640545	4.569876	0.129380	-0.045942	0.073331	-0.051203	0.008669	-0.032512	-0.697021	-0.175293	-0.885498	0.087443	0.006403	0.045693	0.857845	0.056555	-0.510133	0.025855	8.493033	-61.420481	-1.598161
36923		8.798568	0.699186	4.563885	0.156514	0.013304	0.122504	-0.071419	0.026088	-0.037594	-0.692383	-0.168701	-0.890625	0.087993	0.006992	0.045625	0.857929	0.056293	-0.510035	0.025549	8.474038	-61.404998	-1.626410
36924		8.799594	0.754588	4.545472	0.171112	0.072159	0.118530	-0.089020	0.043649	-0.043069	-0.704346	-0.177734	-0.895752	0.088007	0.007547	0.045432	0.858063	0.055969	-0.509864	0.025181	8.447870	-61.379234	-1.657901
36925		8.838797	0.796758	4.555044	0.182349	0.114405	0.160338	-0.101748	0.051078	-0.045376	-0.708496	-0.172607	-0.889893	0.088401	0.007971	0.045524	0.858220	0.055594	-0.509660	0.024772	8.415706	-61.348946	-1.690959
36926		8.854715	0.798985	4.490502	0.252286	0.127018	0.143676	-0.128868	0.066671	-0.048791	-0.697754	-0.173096	-0.891357	0.088564	0.007997	0.044870	0.858423	0.055112	-0.509394	0.024287	8.369202	-61.309843	-1.724811
36927		8.870435	0.785463	4.553799	0.214154	0.109925	0.186348	-0.161275	0.086927	-0.051264	-0.696045	-0.164307	-0.888184	0.088726	0.007869	0.045493	0.858688	0.054492	-0.509042	0.023711	8.303585	-61.258769	-1.758638
36928		8.830067	0.845702	4.556871	0.196083	0.175471	0.156320	-0.189068	0.097003	-0.053289	-0.699707	-0.167236	-0.890869	0.088325	0.008477	0.045518	0.858984	0.053757	-0.508650	0.023058	8.222681	-61.202060	-1.793252
36929		8.814585	0.855618	4.767937	0.014604	0.167818	0.243844	-0.222852	0.101857	-0.062994	-0.689697	-0.166504	-0.894287	0.088173	0.008581	0.047625	0.859302	0.052901	-0.508237	0.022278	8.131779	-61.141609	-1.838526
36930		8.878040	0.800647	4.744576	0.082044	0.123133	0.284329	-0.270189	0.105510	-0.066588	-0.688721	-0.165283	-0.887451	0.088808	0.008041	0.047388	0.859640	0.051851	-0.507812	0.021365	8.017040	-61.079035	-1.887493
36931		8.875408	0.859862	4.650648	0.168757	0.201788	0.240747	-0.293573	0.098255	-0.071565	-0.695313	-0.168213	-0.899902	0.088780	0.008635	0.046450	0.859966	0.050712	-0.507418	0.020368	7.895147	-61.020032	-1.943711
36932		8.837006	0.848281	4.618841	0.190186	0.204056	0.190718	-0.316332	0.099165	-0.078040	-0.692139	-0.155518	-0.894043	0.088396	0.008521	0.046131	0.860296	0.049496	-0.507019	0.019291	7.766912	-60.960253	-2.006870
36933		8.837280	0.817566	4.655713	0.172214	0.179865	0.206273	-0.336196	0.097905	-0.082455	-0.680420	-0.146240	-0.897949	0.088399	0.008217	0.046500	0.860627	0.048202	-0.506625	0.018139	7.632005	-60.900735	-2.076203
36934		8.854379	0.734580	4.642738	0.209596	0.109429	0.209225	-0.359832	0.095041	-0.080310	-0.681152	-0.146973	-0.901367	0.088569	0.007394	0.046372	0.860953	0.046795	-0.506245	0.016926	7.481852	-60.843255	-2.144895
36935		8.885951	0.672667	4.574936	0.298941	0.065906	0.199751	-0.377874	0.082797	-0.076912	-0.686279	-0.152832	-0.899170	0.088881	0.006779	0.045700	0.861249	0.045309	-0.505917	0.015689	7.319697	-60.792907	-2.210448
36936		8.840445	0.618994	4.578300	0.286936	0.025827	0.157992	-0.382377	0.078474	-0.069343	-0.686768	-0.152832	-0.905762	0.088425	0.006247	0.045736	0.861530	0.043782	-0.505608	0.014469	7.148000	-60.745753	-2.268440
36937		8.858804	0.514146	4.687285	0.216210	-0.074249	0.220314	-0.403670	0.062212	-0.054292	-0.683350	-0.143066	-0.899658	0.088604	0.005212	0.046835	0.861771	0.042129	-0.505371	0.013259	6.951039	-60.708898	-2.311093
36938		8.834219	0.461767	4.617626	0.274601	-0.102849	0.161936	-0.434643	0.056181	-0.036628	-0.696045	-0.136475	-0.902344	0.088356	0.004702	0.046141	0.861997	0.040299	-0.505164	0.012048	6.719464	-60.676924	-2.333989
36939		8.823841	0.423813	4.535697	0.348916	-0.114424	0.110894	-0.459962	0.053689	-0.024083	-0.686035	-0.131836	-0.901367	0.088251	0.004332	0.045323	0.862218	0.038327	-0.504969	0.010825	6.461080	-60.647075	-2.343207
36940		8.739478	0.332556	4.444211	0.397365	-0.175999	-0.012118	-0.470429	0.046130	-0.014661	-0.689209	-0.128418	-0.898926	0.087405	0.003424	0.044414	0.862414	0.036283	-0.504810	0.009608	6.188338	-60.622622	-2.343486
36941		8.616881	0.254988	4.325016	0.449323	-0.221070	-0.180936	-0.472136	0.044554	-0.004926	-0.686523	-0.120605	-0.903564	0.086179	0.002650	0.043225	0.862603	0.034210	-0.504652	0.008435	5.905064	-60.599178	-2.332148
36942		8.566423	0.173198	4.232759	0.511985	-0.273926	-0.273681	-0.472750	0.031649	0.004693	-0.683594	-0.119385	-0.913330	0.085671	0.001834	0.042310	0.862753	0.032107	-0.504553	0.007293	5.613280	-60.584077	-2.312128
36943		8.575130	0.085108	4.094671	0.641723	-0.331829	-0.337220	-0.462517	0.011720	0.015298	-0.682617	-0.106689	-0.910889	0.085754	0.000952	0.040940	0.862847	0.030025	-0.504535	0.006226	5.318673	-60.580409	-2.281450
36944		8.535022	-0.077412	3.940712	0.762412	-0.463430	-0.453963	-0.450571	0.006404	0.018848	-0.678711	-0.107422	-0.913330	0.085352	-0.000677	0.039406	0.862921	0.027979	-0.504538	0.005193	5.027632	-60.580014	-2.248324
36945		8.449984	-0.230999	3.900637	0.759936	-0.592724	-0.553006	-0.440271	-0.000660	0.023388	-0.678711	-0.107666	-0.899902	0.084500	-0.002214	0.039012	0.862971	0.025973	-0.504568	0.004215	4.738719	-60.583655	-2.209550
36946		8.371090	-0.408251	3.881746	0.739847	-0.747311	-0.636419	-0.416456	-0.035135	0.034200	-0.683105	-0.098633	-0.906494	0.083705	-0.003987	0.038841	0.862926	0.024042	-0.504747	0.003337	4.455109	-60.607561	-2.161482
36947		8.378497	-0.451018	3.899533	0.721959	-0.771549	-0.620710	-0.385178	-0.074354	0.038512	-0.677246	-0.089355	-0.904785	0.083771	-0.004419	0.039035	0.862776	0.022236	-0.505091	0.002553	4.187932	-60.653772	-2.111448
36948		8.501818	-0.553262	3.801409	0.859009	-0.853681	-0.562227	-0.346561	-0.126522	0.042793	-0.690674	-0.093750	-0.905762	0.084995	-0.005448	0.038077	0.862485	0.020582	-0.505661	0.001875	3.941488	-60.730168	-2.060768
36949		8.689684	-0.578659	3.785796	0.948908	-0.864765	-0.403680	-0.307777	-0.171565	0.050437	-0.683838	-0.086914	-0.910645	0.086866	-0.005706	0.037941	0.862074	0.019081	-0.506421	0.001328	3.712135	-60.832195	-2.003332
36950		8.831964	-0.621372	3.733916	1.044741	-0.891771	-0.302428	-0.259799	-0.201306	0.065013	-0.685059	-0.087646	-0.907227	0.088284	-0.006136	0.037436	0.861579	0.017750	-0.507312	0.000963	3.495992	-60.952030	-1.929600
36951		8.875433	-0.586173	3.781339	1.001523	-0.843843	-0.236662	-0.205461	-0.228295	0.063035	-0.692871	-0.085693	-0.908447	0.088713	-0.005795	0.037921	0.861010	0.016658	-0.508315	0.000725	3.313891	-61.086724	-1.859299
36952		8.889657	-0.640066	3.865921	0.911473	-0.887675	-0.181373	-0.153715	-0.239949	0.055644	-0.691406	-0.081299	-0.892334	0.088852	-0.006346	0.038771	0.860403	0.015809	-0.509368	0.000590	3.168382	-61.228068	-1.796512
36953		8.833536	-0.475823	4.139918	0.617521	-0.721167	-0.091822	-0.100424	-0.234953	0.021890	-0.691650	-0.076904	-0.897705	0.088287	-0.004728	0.041505	0.859805	0.015274	-0.510393	0.000441	3.087936	-61.365118	-1.773681
36954		8.747671	-0.372188	4.329866	0.384877	-0.616886	-0.072088	-0.057034	-0.224516	-0.012111	-0.691406	-0.086426	-0.893555	0.087428	-0.003715	0.043398	0.859227	0.015012	-0.511374	0.000262	3.066670	-61.495657	-1.789697
36955		8.795398	-0.226618	4.527609	0.208976	-0.477374	0.068508	-0.013997	-0.227078	-0.042949	-0.696289	-0.073242	-0.888428	0.087902	-0.002282	0.045376	0.858640	0.015015	-0.512359	0.000055	3.103378	-61.626194	-1.843841
36956		8.901276	-0.074108	4.638571	0.136022	-0.332930	0.218522	0.015126	-0.232669	-0.053873	-0.697021	-0.082764	-0.896240	0.088959	-0.000769	0.046489	0.858033	0.015171	-0.513370	-0.000116	3.168674	-61.760033	-1.910766
36957		8.995535	0.167606	4.868038	-0.049365	-0.104162	0.416301	0.037161	-0.238524	-0.056068	-0.698975	-0.078369	-0.895020	0.089898	0.001642	0.048788	0.857411	0.015427	-0.514402	-0.000249	3.250458	-61.896642	-1.982657
36958		9.043981	0.353945	4.897441	-0.081112	0.074842	0.477675	0.056242	-0.256908	-0.037730	-0.706543	-0.087158	-0.887939	0.090377	0.003509	0.049092	0.856736	0.015718	-0.515515	-0.000247	3.324744	-62.044679	-2.032911
36959		9.054379	0.555344	4.899514	-0.109366	0.270236	0.493154	0.107777	-0.279676	-0.015127	-0.705566	-0.085449	-0.894775	0.090476	0.005520	0.049125	0.855999	0.016170	-0.516725	-0.000025	3.406831	-62.206108	-2.059176
36960		9.048755	0.738139	5.011323	-0.244179	0.444386	0.544967	0.130684	-0.287496	0.007379	-0.707764	-0.091553	-0.875244	0.090415	0.007352	0.050248	0.855236	0.016666	-0.517971	0.000361	3.478165	-62.373203	-2.057401
36961		8.952936	0.803089	5.099573	-0.399479	0.503397	0.501990	0.150735	-0.300013	0.026822	-0.713623	-0.083984	-0.881836	0.089452	0.008004	0.051136	0.854438	0.017193	-0.519268	0.000872	3.541336	-62.547703	-2.034493
36962		8.896564	0.739643	5.144513	-0.497755	0.434775	0.469581	0.153105	-0.326687	0.027413	-0.713867	-0.083740	-0.872559	0.088880	0.007369	0.051596	0.853566	0.017732	-0.520682	0.001396	3.606901	-62.738005	-2.011967
36963		8.903675	0.599085	5.040482	-0.434919	0.292223	0.422845	0.162041	-0.349080	0.024037	-0.713867	-0.087158	-0.864258	0.088948	0.005961	0.050565	0.852634	0.018315	-0.522184	0.001920	3.683610	-62.940485	-1.997074
36964		8.832866	0.480736	4.928643	-0.401344	0.172671	0.304187	0.158496	-0.347448	0.008483	-0.715820	-0.083252	-0.871582	0.088243	0.004772	0.049444	0.851701	0.018925	-0.523681	0.002373	3.775720	-63.141960	-2.001405
36965		8.695583	0.270717	4.917380	-0.483129	-0.042027	0.168886	0.148691	-0.333911	-0.013052	-0.718750	-0.088379	-0.865723	0.086874	0.002665	0.049321	0.850804	0.019548	-0.525112	0.002706	3.886745	-63.334369	-2.033563
36966		8.358994	0.071266	4.846457	-0.598804	-0.242324	-0.171701	0.147789	-0.333774	-0.036242	-0.720947	-0.086426	-0.867920	0.083509	0.000662	0.048604	0.849904	0.020228	-0.526541	0.002942	4.024350	-63.526117	-2.095635
36967		8.005706	0.060109	4.771979	-0.722164	-0.255735	-0.524001	0.157450	-0.360468	-0.056718	-0.728760	-0.089844	-0.864746	0.079971	0.000541	0.047864	0.848931	0.021003	-0.528077	0.003109	4.195310	-63.731838	-2.188977
36968		7.700670	0.011803	4.644806	-0.776004	-0.306622	-0.858450	0.182132	-0.390813	-0.070626	-0.731689	-0.107666	-0.863770	0.076916	0.000048	0.046598	0.847870	0.021921	-0.529740	0.003284	4.400913	-63.954508	-2.304539
36969		7.478659	0.114710	4.571927	-0.846172	-0.211555	-1.090009	0.213575	-0.408285	-0.077749	-0.733643	-0.100098	-0.853027	0.074693	0.001069	0.045873	0.846757	0.022991	-0.531471	0.003505	4.637841	-64.186290	-2.435126
36970		7.369604	0.264242	4.486893	-0.858050	-0.072854	-1.223659	0.260739	-0.429374	-0.073132	-0.740967	-0.101807	-0.853271	0.073600	0.002557	0.045030	0.845576	0.024252	-0.533289	0.003879	4.901334	-64.430407	-2.563853
36971		7.322278	0.393894	4.637172	-1.056277	0.032883	-1.201224	0.304616	-0.447264	-0.059007	-0.739014	-0.103516	-0.847656	0.073120	0.003847	0.046541	0.844338	0.025657	-0.535179	0.004417	5.179074	-64.684850	-2.681335
36972		7.372144	0.437973	4.619281	-1.060919	0.058196	-1.166939	0.341401	-0.475445	-0.032897	-0.753906	-0.107666	-0.848145	0.073612	0.004289	0.046375	0.843010	0.027150	-0.537187	0.005166	5.452733	-64.956817	-2.770171
36973		7.363839	0.427924	4.464553	-0.966268	0.039042	-1.244951	0.372072	-0.485671	0.016810	-0.749268	-0.115234	-0.837158	0.073529	0.004202	0.044832	0.841644	0.028636	-0.539238	0.006200	5.688288	-65.236900	-2.798014
36974		7.216943	0.346341	4.509807	-1.106865	-0.056502	-1.367921	0.411984	-0.462580	0.079994	-0.747559	-0.111572	-0.837891	0.072063	0.003399	0.045272	0.840322	0.030122	-0.541196	0.007618	5.867277	-65.507709	-2.737693
36975		7.063016	0.352126	4.574174	-1.269338	-0.063500	-1.486953	0.465414	-0.460104	0.159943	-0.753662	-0.111084	-0.833008	0.070522	0.003471	0.045912	0.838989	0.031613	-0.543146	0.009509	5.977221	-65.781607	-2.568829
36976		7.087210	0.296298	4.600379	-1.320725	-0.130053	-1.462930	0.510613	-0.468290	0.248176	-0.760498	-0.118164	-0.823975	0.070760	0.002933	0.046177	0.837611	0.033055	-0.545136	0.011897	5.999670	-66.065672	-2.275691
36977		7.196028	0.094735	4.440203	-1.157408	-0.325002	-1.442390	0.509735	-0.416388	0.337122	-0.759766	-0.117188	-0.821533	0.071866	0.000955	0.044554	0.836358	0.034247	-0.546916	0.014658	5.896503	-66.325210	-1.846867
36978		7.397072	-0.061183	4.354785	-1.024706	-0.472146	-1.303192	0.528385	-0.412540	0.443551	-0.771484	-0.118408	-0.824707	0.073882	-0.000563	0.043699	0.835092	0.035226	-0.548689	0.017923	5.656951	-66.588333	-1.257843
36979		7.924535	-0.165573	4.346956	-0.838640	-0.566889	-0.829544	0.554342	-0.439449	0.552947	-0.770508	-0.108643	-0.810059	0.079154	-0.001558	0.043639	0.833723	0.036014	-0.550580	0.021703	5.280873	-66.871356	-0.505862
36980		8.450043	-0.080960	4.307726	-0.644525	-0.457436	-0.360629	0.545599	-0.439233	0.650775	-0.776123	-0.121582	-0.801270	0.084408	-0.000653	0.043261	0.832327	0.036495	-0.552477	0.025873	4.752471	-67.156930	0.405000
36981		9.002327	-0.053529	4.242216	-0.415238	-0.386953	0.123042	0.503483	-0.387434	0.734258	-0.782471	-0.118164	-0.802490	0.089942	-0.000312	0.042595	0.831051	0.036563	-0.554166	0.030277	4.063088	-67.412677	1.461954
36982		9.188011	0.080420	4.230841	-0.387945	-0.204691	0.293414	0.483550	-0.361447	0.790645	-0.783447	-0.118408	-0.801758	0.091800	0.001065	0.042477	0.829822	0.036390	-0.555748	0.034873	3.261388	-67.650412	2.627102
36983		9.650279	0.423638	4.288196	-0.345118	0.191102	0.748558	0.480940	-0.388075	0.813892	-0.789551	-0.110596	-0.786865	0.096401	0.004525	0.043080	0.828494	0.036142	-0.557429	0.039543	2.406937	-67.897481	3.844694
36984		10.275813	0.928259	4.327407	-0.254470	0.760907	1.346889	0.424170	-0.409396	0.792818	-0.791504	-0.114502	-0.793213	0.102632	0.009597	0.043504	0.827100	0.035723	-0.559192	0.043971	1.526749	-68.149399	5.053600
36985		10.779753	1.166021	4.255860	-0.085046	1.081358	1.784636	0.334588	-0.340202	0.745000	-0.800049	-0.111816	-0.784912	0.107681	0.011990	0.042762	0.825908	0.035049	-0.560668	0.047955	0.640292	-68.354109	6.211279
36986		11.163752	1.521057	4.114319	0.091299	1.523966	2.084342	0.284169	-0.308615	0.648708	-0.797852	-0.104736	-0.794189	0.111524	0.015514	0.041337	0.824821	0.034431	-0.561998	0.051410	-0.154310	-68.534198	7.238310
36987		11.541105	1.406379	3.971516	0.325309	1.496749	2.377534	0.231313	-0.274579	0.543106	-0.801758	-0.105469	-0.779053	0.115318	0.014331	0.039890	0.823855	0.033881	-0.563177	0.054280	-0.837716	-68.690404	8.111500
36988		11.284707	1.398995	4.152681	0.028773	1.499728	2.199654	0.170549	-0.159483	0.433763	-0.810547	-0.100342	-0.787842	0.112783	0.014199	0.041629	0.823247	0.033357	-0.563874	0.056552	-1.401623	-68.778448	8.818784
36989		10.765790	0.955450	4.220026	-0.185691	1.057251	1.740294	0.106566	-0.117144	0.314420	-0.803223	-0.097900	-0.780762	0.107618	0.009701	0.042268	0.822798	0.032894	-0.564392	0.058155	-1.828142	-68.841928	9.338628
36990		10.501525	0.547188	4.261580	-0.284541	0.653712	1.511365	0.120363	-0.156301	0.202660	-0.805420	-0.106201	-0.778809	0.104976	0.005553	0.042701	0.822267	0.032814	-0.565048	0.059332	-2.086175	-68.928956	9.686257
36991		10.352729	0.180329	4.105264	-0.164049	0.309501	1.320236	0.163130	-0.171008	0.117222	-0.809082	-0.093262	-0.774658	0.103491	0.001830	0.041143	0.821711	0.033155	-0.565737	0.060275	-2.195219	-69.025768	9.900123
36992		10.298144	-0.104310	3.990892	-0.056605	0.038422	1.232002	0.223315	-0.144209	0.060508	-0.816895	-0.089600	-0.776123	0.102953	-0.001057	0.039982	0.821237	0.033897	-0.566287	0.061160	-2.184686	-69.108482	10.022934
36993		10.094062	-0.223574	3.947156	-0.083813	-0.092925	1.027259	0.278799	-0.100855	0.026659	-0.812500	-0.096680	-0.772705	0.100921	-0.002277	0.039519	0.820884	0.034948	-0.566635	0.062069	-2.089130	-69.167067	10.088540
36994		9.846778	-0.201214	3.757453	-0.005309	-0.073110	0.728308	0.338986	-0.070829	-0.014372	-0.811768	-0.106445	-0.767334	0.098454	-0.002083	0.037606	0.820617	0.036353	-0.566832	0.062987	-1.895739	-69.209418	10.086352
36995		9.549638	-0.128540	3.696254	-0.066722	-0.027395	0.427878	0.394532	-0.048188	-0.039163	-0.815430	-0.106201	-0.769287	0.095487	-0.001377	0.036983	0.820409	0.038049	-0.566913	0.063963	-1.631337	-69.239153	10.042253
36996		9.284527	0.112574	3.751443	-0.245895	0.167849	0.197295	0.435426	0.000421	-0.065119	-0.809814	-0.114014	-0.765625	0.092846	0.001014	0.037517	0.820335	0.039971	-0.566774	0.064959	-1.302125	-69.241415	9.954140
36997		9.104418	0.271146	3.802538	-0.376635	0.284246	0.046346	0.446895	0.021449	-0.085957	-0.807373	-0.116455	-0.769531	0.091049	0.002587	0.038021	0.820322	0.041992	-0.566537	0.065904	-0.934059	-69.231604	9.831266
36998		9.022167	0.328792	3.758659	-0.370075	0.317771	-0.045542	0.460792	0.004616	-0.112709	-0.805908	-0.115967	-0.769043	0.090224	0.003150	0.037592	0.820263	0.044152	-0.566357	0.066777	-0.518283	-69.231367	9.666055
36999		9.055433	0.513364	3.696241	-0.327208	0.483864	-0.035912	0.454118	0.006358	-0.142627	-0.802734	-0.124023	-0.768066	0.090559	0.004985	0.036971	0.820216	0.046367	-0.566162	0.067507	-0.061001	-69.229737	9.452186
37000		9.086640	0.660443	3.715661	-0.353936	0.597952	0.001917	0.433457	0.028366	-0.184719	-0.806152	-0.131592	-0.773926	0.090878	0.006440	0.037158	0.820245	0.048609	-0.565871	0.068010	0.447660	-69.214799	9.170733
37001		9.250862	0.745565	3.712766	-0.302303	0.659342	0.156903	0.427360	0.027564	-0.205460	-0.803711	-0.132080	-0.766357	0.092521	0.007281	0.037131	0.820276	0.050885	-0.565577	0.068411	0.983658	-69.199241	8.856232
37002		9.316366	0.832835	3.622275	-0.204958	0.730376	0.188993	0.396920	0.029771	-0.217059	-0.803955	-0.138428	-0.768799	0.093178	0.008155	0.036225	0.820322	0.053068	-0.565279	0.068677	1.518999	-69.181256	8.523727
37003		9.237337	0.841161	3.530243	-0.142975	0.717508	0.084949	0.379194	0.041788	-0.212858	-0.799561	-0.139648	-0.773193	0.092390	0.008246	0.035299	0.820400	0.055161	-0.564935	0.068914	2.036463	-69.155353	8.199447
37004		9.049477	0.809668	3.506676	-0.175277	0.650834	-0.097185	0.356812	0.035664	-0.201522	-0.809326	-0.141113	-0.767334	0.090509	0.007943	0.035065	0.820460	0.057133	-0.564626	0.069131	2.523581	-69.132234	7.893722
37005		8.976707	0.718910	3.449741	-0.127465	0.539570	-0.185052	0.336641	0.008781	-0.189971	-0.809570	-0.148193	-0.771484	0.089775	0.007046	0.034505	0.820443	0.058998	-0.564435	0.069331	2.982855	-69.123891	7.605538
37006		9.058537	0.573588	3.397257	-0.021559	0.382985	-0.128667	0.314524	-0.017589	-0.179496	-0.792969	-0.151855	-0.767578	0.090587	0.005601	0.033989	0.820351	0.060752	-0.564361	0.069502	3.416003	-69.130223	7.331516
37007		9.231159	0.542892	3.255387	0.176945	0.361466	-0.017558	0.273636	-0.008987	-0.162947	-0.803711	-0.148926	-0.762695	0.092314	0.005309	0.032565	0.820288	0.062288	-0.564269	0.069630	3.800009	-69.131485	7.085256
37008		9.428008	0.553219	3.257644	0.246050	0.358768	0.168111	0.242739	0.025852	-0.138136	-0.796387	-0.159912	-0.761963	0.094288	0.005428	0.032571	0.820323	0.063615	-0.564052	0.069781	4.125740	-69.113309	6.882131
37009		9.467498	0.467485	3.278157	0.263941	0.255049	0.210467	0.188297	0.063234	-0.125970	-0.804688	-0.165039	-0.768555	0.094688	0.004584	0.032756	0.820474	0.064672	-0.563703	0.069842	4.397065	-69.073879	6.704090
37010		9.412756	0.465270	3.260970	0.269586	0.239715	0.153265	0.169389	0.076864	-0.101320	-0.802734	-0.161865	-0.767334	0.094142	0.004577	0.032577	0.820661	0.065577	-0.563313	0.069953	4.618737	-69.027557	6.567289
37011		9.350446	0.480188	3.375291	0.150220	0.218787	0.136360	0.160591	0.098121	-0.092315	-0.800293	-0.166016	-0.770508	0.093523	0.004732	0.033711	0.820907	0.066413	-0.562840	0.070086	4.818197	-68.969287	6.449110
37012		9.212504	0.500979	3.473011	0.020292	0.204977	0.043304	0.142107	0.129266	-0.088981	-0.801758	-0.163818	-0.759766	0.092150	0.004944	0.034674	0.821244	0.067151	-0.562248	0.070187	4.997674	-68.893327	6.340598
37013		9.087584	0.606362	3.703052	-0.239852	0.250665	0.012997	0.132017	0.149860	-0.087690	-0.789551	-0.168945	-0.769043	0.090906	0.005999	0.036966	0.821642	0.067839	-0.561573	0.070275	5.165344	-68.805496	6.238833
37014		9.050585	0.664526	3.850527	-0.382066	0.269627	0.034268	0.109346	0.170951	-0.092259	-0.788574	-0.171875	-0.768799	0.090542	0.006582	0.038431	0.822106	0.068438	-0.560818	0.070285	5.323221	-68.705355	6.133210
37015		8.993092	0.602036	3.910754	-0.427548	0.186867	0.001302	0.086972	0.176176	-0.093017	-0.788818	-0.169678	-0.770508	0.089968	0.005962	0.039031	0.822593	0.068945	-0.560049	0.070233	5.467045	-68.602027	6.029203
37016		9.023180	0.546716	3.975237	-0.446627	0.114051	0.051727	0.074518	0.167688	-0.097211	-0.784668	-0.169189	-0.773682	0.090268	0.005408	0.039679	0.823061	0.069416	-0.559317	0.070123	5.610323	-68.503257	5.917650
37017		9.004292	0.453264	4.000873	-0.441082	0.009399	0.040994	0.063857	0.165376	-0.102171	-0.794189	-0.170166	-0.776123	0.090078	0.004474	0.039936	0.823527	0.069858	-0.558595	0.069966	5.753376	-68.405379	5.800090
37018		9.033386	0.452934	3.996479	-0.409015	0.003995	0.067177	0.050130	0.159787	-0.097901	-0.791992	-0.175781	-0.774658	0.090368	0.004475	0.039894	0.823980	0.070232	-0.557903	0.069782	5.882595	-68.310864	5.688461
37019		8.994453	0.365248	4.010470	-0.401696	-0.092598	0.033504	0.037784	0.167360	-0.103432	-0.777588	-0.182617	-0.778320	0.089980	0.003598	0.040030	0.824459	0.070570	-0.557180	0.069547	6.010011	-68.211582	5.571494
37020		8.964064	0.293083	3.967834	-0.342391	-0.162444	-0.012667	0.019094	0.169212	-0.108864	-0.792725	-0.176270	-0.770752	0.089676	0.002878	0.039603	0.824952	0.070844	-0.556455	0.069234	6.133535	-68.110832	5.446737
37021		8.940072	0.363871	3.944606	-0.326052	-0.095641	-0.040189	0.003080	0.166893	-0.119648	-0.779541	-0.175537	-0.776367	0.089436	0.003585	0.039371	0.825447	0.071083	-0.555740	0.068836	6.261894	-68.010624	5.307154
37022		9.046897	0.411023	3.934773	-0.268422	-0.050411	0.057627	-0.008844	0.168113	-0.127599	-0.779785	-0.168457	-0.779541	0.090505	0.004054	0.039271	0.825951	0.071294	-0.555021	0.068368	6.393627	-67.909105	5.156084
37023		9.175952	0.523038	4.124830	-0.394827	0.019611	0.253572	0.000306	0.181758	-0.139428	-0.781250	-0.178467	-0.788574	0.091801	0.005166	0.041165	0.826493	0.071572	-0.554237	0.067885	6.543207	-67.798912	4.991668
37024		9.317433	0.614505	4.230182	-0.432316	0.085503	0.429010	-0.020449	0.216756	-0.156168	-0.776611	-0.179932	-0.782959	0.093225	0.006077	0.042200	0.827144	0.071797	-0.553309	0.067284	6.697308	-67.667510	4.808986
37025		9.277795	0.512207	4.036885	-0.227713	0.013807	0.315697	-0.041538	0.234563	-0.155756	-0.766846	-0.175537	-0.784912	0.092829	0.005058	0.040259	0.827850	0.071929	-0.552314	0.066637	6.833478	-67.525851	4.632841
37026		9.161580	0.485500	4.167291	-0.358549	-0.048736	0.257346	-0.018693	0.246978	-0.165667	-0.770996	-0.177246	-0.789795	0.091671	0.004783	0.041559	0.828584	0.072177	-0.551255	0.066012	6.992630	-67.376242	4.445435
37027		8.903374	0.521294	4.271909	-0.531455	-0.049183	0.061830	-0.032710	0.262118	-0.165437	-0.766846	-0.183838	-0.792969	0.089094	0.005146	0.042602	0.829362	0.072363	-0.550137	0.065358	7.138212	-67.217883	4.264186
37028		8.741355	0.365921	4.160188	-0.436889	-0.192016	-0.136710	-0.035596	0.250587	-0.166068	-0.765381	-0.176025	-0.792480	0.087469	0.003594	0.041492	0.830109	0.072541	-0.549066	0.064686	7.283149	-67.065805	4.081276
37029		8.731138	0.324032	4.250121	-0.488545	-0.258340	-0.112387	-0.018948	0.238502	-0.167475	-0.763672	-0.181396	-0.800049	0.087365	0.003171	0.042397	0.830814	0.072797	-0.548038	0.064053	7.439039	-66.920358	3.896989
37030		8.794439	0.259868	4.303679	-0.475108	-0.337482	-0.035588	-0.032842	0.237135	-0.158752	-0.762451	-0.181396	-0.793213	0.087997	0.002536	0.042932	0.831517	0.072970	-0.547022	0.063414	7.573931	-66.776086	3.726340
37031		8.991903	0.154246	4.358518	-0.401994	-0.453481	0.162657	-0.029470	0.240311	-0.154379	-0.760254	-0.178711	-0.800781	0.089972	0.001479	0.043477	0.832224	0.073146	-0.545992	0.062808	7.702211	-66.630262	3.565152
37032		9.111722	0.217551	4.385804	-0.364663	-0.400681	0.287436	-0.025165	0.246991	-0.156172	-0.759766	-0.184814	-0.797607	0.091173	0.002110	0.043745	0.832947	0.073341	-0.544931	0.062204	7.832597	-66.480272	3.403902
37033		9.227505	0.192962	4.326662	-0.233210	-0.417150	0.369435	-0.031773	0.268371	-0.141431	-0.752441	-0.189697	-0.803955	0.092334	0.001871	0.043142	0.833724	0.073462	-0.543788	0.061655	7.934128	-66.319269	3.270094
37034		9.154595	0.151101	4.327539	-0.224882	-0.465160	0.301164	-0.026880	0.310552	-0.141219	-0.744873	-0.191895	-0.811523	0.091614	0.001452	0.043133	0.834612	0.073590	-0.542466	0.061133	8.029164	-66.134147	3.146074
37035		8.986216	0.136479	4.353544	-0.279837	-0.492368	0.157428	-0.012327	0.337931	-0.128197	-0.741211	-0.187012	-0.807617	0.089936	0.001310	0.043383	0.835562	0.073735	-0.541029	0.060717	8.109085	-65.934575	3.047730
37036		8.948142	0.083099	4.341360	-0.238956	-0.546795	0.115422	0.014477	0.360559	-0.116361	-0.743896	-0.186523	-0.815186	0.089560	0.000776	0.043252	0.836558	0.073952	-0.539490	0.060430	8.183993	-65.722949	2.971402
37037		8.950281	0.000121	4.298753	-0.147089	-0.623078	0.095734	0.035425	0.384722	-0.101507	-0.739746	-0.189697	-0.816406	0.089585	-0.000052	0.042815	0.837603	0.074210	-0.537849	0.060271	8.246559	-65.498926	2.921829
37038		9.067116	-0.061690	4.181226	0.057453	-0.660827	0.150189	0.054382	0.406914	-0.081130	-0.736328	-0.194824	-0.814941	0.090756	-0.000665	0.041627	0.838691	0.074485	-0.536114	0.060256	8.289906	-65.263848	2.905169
37039		9.065321	-0.040011	4.247721	0.036693	-0.652299	0.177196	0.076445	0.446198	-0.057966	-0.736816	-0.191406	-0.819580	0.090748	-0.000443	0.042275	0.839865	0.074779	-0.534214	0.060413	8.310042	-65.008543	2.928074
37040		9.033386	-0.063407	4.247068	0.074974	-0.674156	0.146397	0.098130	0.487857	-0.037510	-0.733887	-0.190674	-0.824707	0.090437	-0.000672	0.042250	0.841132	0.075096	-0.532136	0.060728	8.310637	-64.731181	2.986370
37041		9.001791	-0.017141	4.280429	0.073685	-0.632505	0.134619	0.130354	0.518285	-0.010266	-0.722412	-0.193848	-0.830078	0.090128	-0.000204	0.042571	0.842454	0.075466	-0.529929	0.061255	8.292692	-64.438952	3.085737
37042		8.910982	0.060637	4.419064	-0.049048	-0.580270	0.116967	0.162896	0.554206	0.012479	-0.721191	-0.195068	-0.836182	0.089232	0.000576	0.043944	0.843845	0.075901	-0.527563	0.061978	8.261792	-64.128073	3.220512
37043		8.959552	0.077352	4.636019	-0.165992	-0.599534	0.256322	0.187426	0.573755	0.021726	-0.714600	-0.203613	-0.838623	0.089728	0.000740	0.046104	0.845268	0.076409	-0.525108	0.062811	8.233079	-63.806979	3.368773
37044		9.072787	0.024390	4.722910	-0.124511	-0.660273	0.393692	0.197084	0.574643	0.026890	-0.717285	-0.191895	-0.838379	0.090863	0.000210	0.046968	0.846681	0.076944	-0.522641	0.063692	8.205828	-63.485619	3.522189
37045		9.186503	-0.043050	4.669177	0.043826	-0.707583	0.467975	0.225692	0.557924	0.035752	-0.710449	-0.197266	-0.841553	0.091995	-0.000467	0.046435	0.848028	0.077581	-0.520236	0.064677	8.190006	-63.174593	3.681379
37046		9.086003	-0.101353	4.621561	0.108612	-0.753487	0.353174	0.252276	0.560812	0.041253	-0.700928	-0.203857	-0.848145	0.090989	-0.001053	0.045959	0.849364	0.078315	-0.517807	0.065758	8.184543	-62.862228	3.846688
37047		8.750255	-0.141711	4.435010	0.180069	-0.761227	-0.032900	0.261867	0.520976	0.057786	-0.695313	-0.199219	-0.854004	0.087618	-0.001450	0.044120	0.850579	0.079058	-0.515546	0.066914	8.174959	-62.573929	4.023047
37048		8.370842	-0.132203	4.200234	0.254423	-0.712467	-0.476845	0.305912	0.454434	0.075493	-0.694580	-0.213867	-0.853760	0.083804	-0.001354	0.041810	0.851593	0.079966	-0.513556	0.068237	8.183176	-62.324638	4.208593
37049		8.089894	0.080584	4.086309	0.218716	-0.488062	-0.764778	0.336362	0.372248	0.093303	-0.687256	-0.211426	-0.855225	0.080974	0.000775	0.040714	0.852371	0.080985	-0.511909	0.069676	8.204220	-62.123604	4.399371
37050		7.914232	0.315441	4.047875	0.152895	-0.255543	-0.922742	0.348649	0.315523	0.105672	-0.684082	-0.213623	-0.852783	0.079204	0.003126	0.040359	0.852989	0.082045	-0.510501	0.071182	8.228570	-61.955626	4.595231
37051		7.842363	0.573245	4.045037	0.093035	-0.005321	-0.970467	0.350952	0.265830	0.115900	-0.686035	-0.201172	-0.845947	0.078474	0.005707	0.040356	0.853472	0.083104	-0.509307	0.072711	8.252428	-61.816864	4.792895
37052		7.965399	0.917199	4.065529	0.080487	0.330681	-0.829285	0.341204	0.216310	0.112870	-0.683350	-0.219238	-0.861084	0.079693	0.009148	0.040585	0.853829	0.084148	-0.508322	0.074186	8.281822	-61.705833	4.978581
37053		8.093197	1.097043	4.053867	0.129349	0.514497	-0.710176	0.292278	0.229385	0.109955	-0.677246	-0.218750	-0.851807	0.080972	0.010956	0.040462	0.854238	0.084985	-0.507298	0.075524	8.285430	-61.587314	5.161499
37054		8.167740	1.201326	4.041959	0.169404	0.624046	-0.643476	0.255453	0.225195	0.096927	-0.687744	-0.217773	-0.863770	0.081717	0.012001	0.040343	0.854654	0.085699	-0.506297	0.076716	8.282596	-61.469949	5.328369
37055		8.255892	1.245573	4.155846	0.120246	0.648701	-0.509624	0.198013	0.193761	0.095811	-0.682617	-0.219727	-0.857666	0.082593	0.012454	0.041491	0.855013	0.086182	-0.505452	0.077740	8.253873	-61.370440	5.486993
37056		8.307531	1.300143	4.155484	0.147036	0.708565	-0.461228	0.149094	0.177435	0.079295	-0.677246	-0.221924	-0.859863	0.083107	0.013003	0.041491	0.855357	0.086504	-0.504687	0.078566	8.217039	-61.278668	5.623350
37057		8.273381	1.271396	4.110635	0.187132	0.694527	-0.515097	0.099739	0.146436	0.079656	-0.684570	-0.217529	-0.870117	0.082759	0.012726	0.041052	0.855643	0.086626	-0.504074	0.079251	8.157023	-61.204572	5.753711
37058		8.273949	1.249395	4.105721	0.205123	0.680046	-0.519054	0.062700	0.098201	0.063034	-0.676270	-0.224609	-0.859619	0.082756	0.012507	0.041020	0.855829	0.086650	-0.503674	0.079754	8.100232	-61.156306	5.856446
37059		8.318361	1.196015	4.112878	0.237921	0.634141	-0.480881	0.029337	0.070425	0.053606	-0.675049	-0.214844	-0.862305	0.083195	0.011976	0.041101	0.855963	0.086567	-0.503403	0.080118	8.038543	-61.123107	5.942788
37060		8.385493	1.045379	4.174951	0.254634	0.482060	-0.402995	0.012845	0.039819	0.044573	-0.676270	-0.220947	-0.860352	0.083861	0.010470	0.041733	0.856031	0.086447	-0.503264	0.080390	7.981132	-61.106408	6.013617
37061		8.554606	0.989836	4.306533	0.237671	0.411433	-0.195957	-0.002881	0.012509	0.043263	-0.677002	-0.220459	-0.864990	0.085547	0.009917	0.043060	0.856037	0.086275	-0.503249	0.080603	7.920164	-61.105167	6.078078
37062		8.606078	0.915821	4.335961	0.252775	0.340505	-0.141905	-0.023977	-0.008042	0.040306	-0.684326	-0.213379	-0.854980	0.086057	0.009181	0.043362	0.856002	0.086028	-0.503328	0.080743	7.852998	-61.115238	6.135912
37063		8.652069	0.788328	4.392562	0.252801	0.211903	-0.083065	-0.046754	-0.015639	0.045447	-0.679688	-0.218750	-0.853760	0.086515	0.007913	0.043931	0.855956	0.085674	-0.503452	0.080843	7.768586	-61.130069	6.198430
37064		8.689668	0.698347	4.434127	0.252035	0.123872	-0.036153	-0.059806	-0.025779	0.050514	-0.677002	-0.217773	-0.858643	0.086889	0.007019	0.044350	0.855887	0.085255	-0.503627	0.080929	7.672763	-61.150961	6.265468
37065		8.667166	0.644364	4.403160	0.274444	0.084761	-0.074090	-0.058413	-0.041019	0.059002	-0.676025	-0.218506	-0.865234	0.086661	0.006482	0.044047	0.855775	0.084827	-0.503870	0.081047	7.571005	-61.181136	6.340136
37066		8.648780	0.569953	4.441487	0.243022	0.010986	-0.076473	-0.067228	-0.054054	0.071975	-0.681152	-0.221191	-0.855469	0.086474	0.005746	0.044436	0.855629	0.084333	-0.504176	0.081193	7.452346	-61.219536	6.428352
37067		8.642560	0.527822	4.352290	0.317454	-0.001423	-0.126920	-0.061825	-0.058335	0.073538	-0.677002	-0.218018	-0.852295	0.086411	0.005323	0.043546	0.855469	0.083861	-0.504501	0.081357	7.335493	-61.260478	6.517956
37068		8.583710	0.555661	4.402416	0.231644	0.019729	-0.152665	-0.051443	-0.076794	0.083783	-0.677734	-0.220459	-0.866211	0.085818	0.005604	0.044056	0.855254	0.083415	-0.504903	0.081585	7.216080	-61.312524	6.617360
37069		8.532983	0.635863	4.338343	0.233223	0.117714	-0.222637	-0.039661	-0.096352	0.090250	-0.683594	-0.210938	-0.862793	0.085306	0.006406	0.043423	0.854981	0.083011	-0.505387	0.081860	7.098857	-61.376093	6.721767
37070		8.558495	0.692361	4.330267	0.227461	0.183944	-0.200569	-0.039854	-0.106035	0.090196	-0.682861	-0.211670	-0.854736	0.085559	0.006971	0.043347	0.854683	0.082609	-0.505912	0.082131	6.982318	-61.445010	6.825182
37071		8.559885	0.702273	4.292725	0.244635	0.210016	-0.216420	-0.046323	-0.119343	0.090419	-0.686279	-0.214600	-0.856689	0.085570	0.007071	0.042977	0.854353	0.082185	-0.506497	0.082381	6.863015	-61.521462	6.927474
37072		8.622089	0.837514	4.310566	0.213285	0.349027	-0.145449	-0.057678	-0.149263	0.089754	-0.689941	-0.214111	-0.864258	0.086185	0.008426	0.043168	0.853952	0.081727	-0.507213	0.082587	6.741044	-61.614774	7.025333
37073		8.645132	0.912249	4.355347	0.152856	0.421177	-0.099873	-0.079465	-0.141533	0.083244	-0.690186	-0.212891	-0.857910	0.086417	0.009176	0.043611	0.853582	0.081189	-0.507903	0.082713	6.611794	-61.703166	7.117182
37074		8.624634	0.946208	4.357468	0.117225	0.461086	-0.115224	-0.107233	-0.156212	0.075167	-0.692627	-0.205811	-0.855225	0.086209	0.009518	0.043637	0.853188	0.080558	-0.508662	0.082728	6.476338	-61.799267	7.197913
37075		8.602864	0.907943	4.372506	0.085009	0.427840	-0.129602	-0.133572	-0.169510	0.063297	-0.696045	-0.204102	-0.853027	0.085989	0.009136	0.043792	0.852774	0.079851	-0.509484	0.082620	6.339232	-61.902106	7.263348
37076		8.644696	0.903812	4.358997	0.098491	0.438061	-0.099456	-0.159293	-0.177308	0.056507	-0.695801	-0.202393	-0.847412	0.086406	0.009097	0.043659	0.852353	0.079054	-0.510347	0.082412	6.194931	-62.008908	7.319966
37077		8.661498	0.852695	4.358846	0.098758	0.398546	-0.087486	-0.176522	-0.179277	0.053339	-0.700928	-0.196289	-0.851563	0.086574	0.008589	0.043659	0.851933	0.078193	-0.511222	0.082148	6.043545	-62.116547	7.373581
37078		8.631923	0.851265	4.443835	-0.006592	0.386691	-0.074473	-0.197509	-0.177684	0.047401	-0.695068	-0.195801	-0.847900	0.086278	0.008577	0.044507	0.851526	0.077256	-0.512097	0.081802	5.885747	-62.222901	7.420521
37079		8.682318	0.806709	4.444039	0.007671	0.356404	-0.032309	-0.213415	-0.171254	0.037933	-0.694580	-0.196045	-0.856934	0.086784	0.008131	0.044506	0.851144	0.076274	-0.512946	0.081381	5.727506	-62.324934	7.457896
37080		8.737320	0.741595	4.514148	-0.031935	0.291501	0.045417	-0.229400	-0.179053	0.030875	-0.698486	-0.198730	-0.849121	0.087332	0.007481	0.045211	0.850750	0.075243	-0.513830	0.080882	5.568154	-62.430945	7.485806
37081		8.821213	0.704855	4.471284	0.032494	0.280024	0.098089	-0.247286	-0.174399	0.019962	-0.696045	-0.193359	-0.840576	0.088172	0.007113	0.044781	0.850376	0.074164	-0.514697	0.080296	5.409129	-62.533689	7.502110
37082		8.887584	0.583885	4.413228	0.120673	0.187803	0.124958	-0.254807	-0.162297	0.004620	-0.703125	-0.188721	-0.843994	0.088840	0.005897	0.044197	0.850040	0.073087	-0.515509	0.079627	5.261095	-62.628697	7.501107
37083		8.885084	0.537808	4.484320	0.050429	0.137118	0.153341	-0.263003	-0.160248	-0.006432	-0.700439	-0.184570	-0.844727	0.088815	0.005434	0.044907	0.849715	0.072003	-0.516309	0.078893	5.119640	-62.721958	7.487471
37084		8.889797	0.455856	4.441588	0.089509	0.074550	0.134695	-0.267663	-0.159558	-0.017319	-0.705078	-0.187988	-0.849854	0.088863	0.004610	0.044481	0.849396	0.070926	-0.517104	0.078097	4.987397	-62.814318	7.460130
37085		8.906422	0.317614	4.354582	0.184039	-0.034464	0.104598	-0.261947	-0.156192	-0.023111	-0.707520	-0.184082	-0.848633	0.089031	0.003223	0.043611	0.849084	0.069887	-0.517879	0.077296	4.863987	-62.904472	7.426919
37086		8.926653	0.249321	4.381511	0.166608	-0.098997	0.132530	-0.235663	-0.161897	-0.025947	-0.705322	-0.186035	-0.850342	0.089231	0.002533	0.043884	0.848746	0.068969	-0.518665	0.076546	4.759384	-62.997784	7.389297
37087		8.912371	0.176054	4.366502	0.171376	-0.163200	0.110602	-0.210271	-0.147277	-0.024507	-0.715576	-0.183838	-0.851074	0.089092	0.001796	0.043729	0.848436	0.068150	-0.519379	0.075875	4.665896	-63.082837	7.355786
37088		8.976486	0.150107	4.394324	0.165288	-0.185842	0.179712	-0.174180	-0.146340	-0.020121	-0.716553	-0.179688	-0.833252	0.089733	0.001530	0.044008	0.848113	0.067471	-0.520077	0.075315	4.588178	-63.167591	7.327666
37089		9.102935	0.160295	4.394474	0.204862	-0.164909	0.293318	-0.150360	-0.128637	-0.017227	-0.713623	-0.181152	-0.852539	0.091001	0.001628	0.044002	0.847826	0.066880	-0.520690	0.074837	4.518851	-63.242370	7.305593
37090		9.177570	0.242237	4.370854	0.228886	-0.072187	0.352607	-0.127347	-0.123663	-0.003193	-0.708496	-0.167725	-0.849854	0.091749	0.002449	0.043764	0.847537	0.066348	-0.521279	0.074478	4.446455	-63.315013	7.301598
37091		9.168395	0.223138	4.374011	0.212532	-0.088247	0.345474	-0.109678	-0.116558	0.002356	-0.718506	-0.173096	-0.841797	0.091658	0.002256	0.043792	0.847259	0.065873	-0.521831	0.074193	4.376840	-63.383779	7.305955
37092		9.132753	0.247167	4.436547	0.124885	-0.074999	0.342606	-0.085786	-0.108392	0.007699	-0.716797	-0.173096	-0.844971	0.091303	0.002494	0.044414	0.846992	0.065481	-0.522343	0.073991	4.314142	-63.448150	7.317316
37093		9.120041	0.246271	4.498520	0.053860	-0.085103	0.358956	-0.072427	-0.095846	0.005592	-0.712646	-0.168213	-0.843018	0.091179	0.002482	0.045028	0.846754	0.065148	-0.522794	0.073824	4.260068	-63.505217	7.328153
37094		9.076870	0.219863	4.547584	-0.012661	-0.119981	0.341320	-0.055293	-0.075107	0.003991	-0.722656	-0.171387	-0.843018	0.090752	0.002213	0.045509	0.846564	0.064883	-0.523152	0.073698	4.215966	-63.550399	7.338457
37095		9.012500	0.202847	4.542707	-0.041112	-0.137440	0.280969	-0.034032	-0.059936	0.000580	-0.718750	-0.171875	-0.840088	0.090111	0.002036	0.045454	0.846409	0.064712	-0.523435	0.073621	4.186408	-63.586729	7.346473
37096		8.876230	0.190476	4.555215	-0.115991	-0.157985	0.164052	-0.025068	-0.049331	0.007144	-0.716553	-0.180176	-0.843262	0.088751	0.001914	0.045574	0.846275	0.064558	-0.523673	0.073597	4.153678	-63.617336	7.363618
37097		8.792379	0.179472	4.581859	-0.178750	-0.177131	0.100347	-0.009519	-0.030025	-0.000251	-0.716797	-0.168945	-0.841553	0.087917	0.001797	0.045832	0.846190	0.064482	-0.523821	0.073591	4.136535	-63.636536	7.373450
37098		8.747207	0.230137	4.582798	-0.212465	-0.129362	0.061864	0.002583	-0.025886	0.003758	-0.711914	-0.171387	-0.843506	0.087466	0.002302	0.045839	0.846111	0.064447	-0.523948	0.073635	4.121501	-63.653538	7.388720
37099		8.702904	0.279104	4.626563	-0.282374	-0.091109	0.043046	0.007649	-0.016532	0.007532	-0.719727	-0.166504	-0.839844	0.087025	0.002793	0.046273	0.846052	0.064418	-0.524035	0.073710	4.104056	-63.665343	7.409862
37100		8.627201	0.303214	4.614471	-0.311564	-0.068133	-0.029428	0.008718	-0.008616	0.015484	-0.720703	-0.164795	-0.841553	0.086270	0.003037	0.046149	0.846012	0.064369	-0.524090	0.073822	4.077518	-63.672951	7.441505
37101		8.539573	0.383578	4.648136	-0.396198	0.001322	-0.090566	0.003419	0.000588	0.014208	-0.716797	-0.174805	-0.840820	0.085396	0.003841	0.046481	0.845997	0.064299	-0.524108	0.073921	4.048501	-63.675235	7.472851
37102		8.552877	0.485828	4.680426	-0.438941	0.098637	-0.061189	0.001162	0.003139	0.017342	-0.721924	-0.159912	-0.843262	0.085529	0.004865	0.046803	0.845989	0.064210	-0.524118	0.074026	4.014505	-63.676191	7.508114
37103		8.570738	0.567153	4.740858	-0.499405	0.170960	-0.015937	0.000933	0.021696	0.019839	-0.718994	-0.165527	-0.836182	0.085712	0.005680	0.047399	0.846029	0.064107	-0.524049	0.074149	3.975855	-63.666619	7.548620
37104		8.510978	0.598771	4.845179	-0.621348	0.182525	-0.022302	-0.007495	0.037356	0.021131	-0.712158	-0.171631	-0.832764	0.085118	0.005999	0.048436	0.846112	0.063956	-0.523918	0.074254	3.929848	-63.648172	7.591253
37105		8.464952	0.556572	4.848048	-0.633148	0.141617	-0.063440	-0.004130	0.040528	0.018874	-0.719971	-0.163818	-0.845215	0.084659	0.005575	0.048463	0.846203	0.063827	-0.523772	0.074365	3.888008	-63.627770	7.632092
37106		8.508855	0.429473	4.901605	-0.633216	0.013298	-0.004036	0.002984	0.042326	0.026326	-0.723389	-0.161621	-0.837891	0.085098	0.004305	0.048998	0.846293	0.063707	-0.523617	0.074526	3.841768	-63.606579	7.682238
37107		8.544717	0.252447	4.897133	-0.575961	-0.153645	0.021055	0.015780	0.047142	0.028479	-0.713867	-0.174561	-0.846680	0.085458	0.002533	0.048951	0.846392	0.063635	-0.523438	0.074732	3.799901	-63.582735	7.735860
37108		8.629553	0.095084	4.920768	-0.525116	-0.303626	0.103171	0.030340	0.048769	0.038893	-0.713379	-0.163330	-0.845947	0.086307	0.000960	0.049187	0.846486	0.063596	-0.523249	0.075019	3.754542	-63.558281	7.802579
37109		8.728552	-0.048875	4.930878	-0.458453	-0.436422	0.192457	0.046776	0.052028	0.057716	-0.712158	-0.164551	-0.847412	0.087298	-0.000475	0.049286	0.846575	0.063576	-0.523047	0.075432	3.696657	-63.532692	7.893950
37110		8.733509	-0.177846	4.817378	-0.327653	-0.536014	0.143128	0.058907	0.053639	0.078120	-0.717285	-0.165283	-0.837402	0.087349	-0.001759	0.048150	0.846659	0.063552	-0.522839	0.075959	3.622465	-63.506748	8.010804
37111		8.743169	-0.164589	4.723882	-0.239898	-0.498806	0.110961	0.091261	0.055291	0.096489	-0.717285	-0.170166	-0.850586	0.087446	-0.001625	0.047214	0.846728	0.063618	-0.522618	0.076653	3.545689	-63.480581	8.151809
37112		8.799103	-0.114847	4.715809	-0.213248	-0.438607	0.159193	0.114371	0.062558	0.110623	-0.713867	-0.166260	-0.845215	0.088006	-0.001127	0.047130	0.846803	0.063742	-0.522361	0.077469	3.465749	-63.450577	8.311248
37113		8.797823	-0.046815	4.710575	-0.217160	-0.364393	0.157943	0.133475	0.075608	0.119554	-0.717041	-0.161133	-0.847900	0.087996	-0.000447	0.047072	0.846901	0.063919	-0.522044	0.078378	3.385873	-63.413406	8.482838
37114		8.846936	0.114345	4.679781	-0.194686	-0.190534	0.192686	0.153771	0.075657	0.133840	-0.718506	-0.161377	-0.849854	0.088486	0.001167	0.046765	0.846987	0.064142	-0.521723	0.079397	3.301680	-63.376460	8.671996
37115		8.803294	0.214249	4.663148	-0.213304	-0.085165	0.149043	0.156377	0.089957	0.137933	-0.712891	-0.160400	-0.852295	0.088052	0.002167	0.046594	0.847107	0.064362	-0.521341	0.080447	3.213781	-63.331455	8.867359
37116		8.759899	0.402646	4.734418	-0.326220	0.089886	0.147140	0.164875	0.093307	0.141413	-0.719482	-0.171631	-0.845703	0.087618	0.004049	0.047307	0.847230	0.064604	-0.520941	0.081531	3.127064	-63.284380	9.066289
37117		8.705234	0.560100	4.761938	-0.400293	0.241746	0.114658	0.164514	0.090836	0.138542	-0.711426	-0.165283	-0.844482	0.087070	0.005622	0.047584	0.847347	0.064856	-0.520551	0.082605	3.044052	-63.238627	9.261560
37118		8.686583	0.632121	4.828079	-0.474731	0.304809	0.129564	0.145180	0.094248	0.131600	-0.722412	-0.162842	-0.844482	0.086884	0.006343	0.048244	0.847480	0.065044	-0.520151	0.083602	2.958150	-63.190475	9.448020
37119		8.674001	0.668282	4.780160	-0.439783	0.355822	0.097651	0.126338	0.091045	0.122688	-0.720459	-0.171143	-0.841309	0.086758	0.006706	0.047766	0.847614	0.065176	-0.519769	0.084510	2.872168	-63.143880	9.622269
37120		8.671275	0.662225	4.829277	-0.476514	0.347389	0.117253	0.098578	0.084241	0.114523	-0.712402	-0.169434	-0.842529	0.086729	0.006648	0.048260	0.847742	0.065214	-0.519425	0.085309	2.780407	-63.100815	9.785368
37121		8.630428	0.579685	4.806369	-0.451336	0.275407	0.068706	0.071735	0.085254	0.088301	-0.711670	-0.164307	-0.849854	0.086322	0.005818	0.048029	0.847892	0.065206	-0.519079	0.085927	2.703082	-63.056354	9.914957
37122		8.650232	0.549251	4.854521	-0.471457	0.243663	0.107641	0.053598	0.082541	0.061280	-0.715576	-0.165039	-0.849365	0.086521	0.005506	0.048511	0.848053	0.065192	-0.518743	0.086382	2.646347	-63.012494	10.009795
37123		8.695572	0.476391	4.845238	-0.420318	0.182583	0.142524	0.032672	0.091260	0.029916	-0.717041	-0.166016	-0.847412	0.086977	0.004769	0.048413	0.848256	0.065166	-0.518369	0.086653	2.612503	-62.962946	10.065560
37124		8.781769	0.463846	4.851526	-0.376377	0.179046	0.222162	0.015267	0.089150	0.001094	-0.713379	-0.164307	-0.852539	0.087839	0.004635	0.048476	0.848472	0.065142	-0.518001	0.086753	2.601378	-62.913736	10.084425
37125		8.795271	0.460765	4.788808	-0.306360	0.191233	0.205863	-0.007615	0.096011	-0.031681	-0.701416	-0.172363	-0.840332	0.087976	0.004596	0.047846	0.848727	0.065104	-0.517605	0.086660	2.613321	-62.859853	10.062869
37126		8.817326	0.417701	4.824383	-0.308001	0.144009	0.241107	-0.028014	0.102857	-0.058040	-0.714600	-0.170654	-0.852051	0.088199	0.004158	0.048198	0.849018	0.065045	-0.517177	0.086405	2.642715	-62.801147	10.008730
37127		8.792961	0.429223	4.819965	-0.306621	0.152867	0.218019	-0.042883	0.105424	-0.089877	-0.709229	-0.166260	-0.847168	0.087957	0.004263	0.048152	0.849333	0.065003	-0.516736	0.085977	2.698479	-62.740312	9.915144
37128		8.810161	0.410755	4.785902	-0.254312	0.140072	0.217677	-0.063233	0.095929	-0.111536	-0.710693	-0.163574	-0.847656	0.088127	0.004074	0.047815	0.849639	0.064936	-0.516336	0.085401	2.766980	-62.684133	9.794173
37129		8.813006	0.379780	4.764995	-0.217859	0.110118	0.210230	-0.063847	0.088340	-0.123821	-0.703613	-0.156250	-0.857910	0.088153	0.003758	0.047610	0.849931	0.064900	-0.515965	0.084768	2.848545	-62.632019	9.657923
37130		8.801000	0.336552	4.758093	-0.197201	0.062985	0.195682	-0.071126	0.100422	-0.145721	-0.713379	-0.166260	-0.852783	0.088036	0.003318	0.047536	0.850266	0.064879	-0.515538	0.084018	2.949175	-62.572098	9.494185
37131		8.729514	0.241091	4.764292	-0.203661	-0.043385	0.133047	-0.068551	0.093496	-0.153437	-0.699463	-0.174072	-0.858643	0.087319	0.002360	0.047601	0.850583	0.064897	-0.515137	0.083249	3.059427	-62.515931	9.322429
37132		8.680317	0.211812	4.771245	-0.215390	-0.084415	0.092059	-0.056714	0.083424	-0.156828	-0.700439	-0.171387	-0.857178	0.086825	0.002064	0.047676	0.850872	0.064980	-0.514771	0.082494	3.180437	-62.465031	9.146316
37133		8.713924	0.210796	4.763803	-0.183498	-0.089482	0.118528	-0.051337	0.079129	-0.155450	-0.707520	-0.166748	-0.857178	0.087160	0.002052	0.047603	0.851147	0.065082	-0.514422	0.081756	3.302536	-62.416690	8.972161
37134		8.726223	0.144701	4.754447	-0.146243	-0.159920	0.123393	-0.043680	0.081677	-0.159526	-0.703613	-0.173828	-0.859863	0.087283	0.001388	0.047509	0.851427	0.065226	-0.514056	0.081019	3.432977	-62.366343	8.793334
37135		8.722076	0.156396	4.761680	-0.146753	-0.158867	0.123402	-0.037633	0.082745	-0.152932	-0.699463	-0.173340	-0.854492	0.087242	0.001506	0.047580	0.851704	0.065379	-0.513686	0.080328	3.558874	-62.315664	8.623598
37136		8.692183	0.122840	4.739918	-0.124146	-0.198243	0.085859	-0.030446	0.094343	-0.154991	-0.700195	-0.174805	-0.864258	0.086945	0.001168	0.047358	0.852009	0.065565	-0.513261	0.079653	3.689946	-62.257845	8.453048
37137		8.603181	0.035371	4.731029	-0.128654	-0.296889	0.000258	-0.029258	0.093216	-0.151910	-0.697510	-0.169189	-0.857910	0.086054	0.000295	0.047270	0.852308	0.065746	-0.512843	0.078992	3.817641	-62.200864	8.286528
37138		8.628189	0.076261	4.669423	-0.061216	-0.252054	-0.005156	-0.014701	0.092809	-0.148565	-0.690186	-0.166260	-0.857666	0.086304	0.000702	0.046654	0.852601	0.065981	-0.512420	0.078380	3.949612	-62.143780	8.124380
37139		8.623582	0.088178	4.677715	-0.061716	-0.251013	-0.005133	-0.013082	0.099207	-0.142783	-0.698730	-0.175049	-0.854736	0.086260	0.000823	0.046734	0.852906	0.066205	-0.511972	0.077800	4.075056	-62.083391	7.970715
37140		8.629296	0.135310	4.602890	0.007634	-0.198413	-0.033618	-0.010863	0.101419	-0.138924	-0.690430	-0.175537	-0.861328	0.086317	0.001296	0.045985	0.853214	0.066427	-0.511514	0.077240	4.196941	-62.021517	7.822060
37141		8.630343	0.198584	4.627507	-0.014019	-0.149170	-0.019138	-0.005765	0.103978	-0.132947	-0.685547	-0.167236	-0.870361	0.086329	0.001930	0.046230	0.853524	0.066656	-0.511046	0.076723	4.314442	-61.958514	7.681965
37142		8.669493	0.252392	4.553560	0.069271	-0.087148	-0.017468	-0.014705	0.107523	-0.125350	-0.688477	-0.177979	-0.867188	0.086721	0.002473	0.045489	0.853844	0.066822	-0.510565	0.076210	4.417874	-61.893262	7.551073
37143		8.589556	0.358716	4.537802	0.036826	0.008645	-0.091610	-0.017591	0.116815	-0.120459	-0.691650	-0.178711	-0.858154	0.085924	0.003539	0.045328	0.854184	0.066963	-0.510050	0.075720	4.513076	-61.823243	7.428409
37144		8.529783	0.293913	4.545133	0.027819	-0.065139	-0.143314	-0.030702	0.114002	-0.108758	-0.691895	-0.179688	-0.866211	0.085325	0.002900	0.045402	0.854518	0.067021	-0.509554	0.075249	4.588109	-61.754980	7.320516
37145		8.473332	0.372296	4.528233	0.011952	0.007359	-0.198081	-0.026069	0.104174	-0.095878	-0.691650	-0.179932	-0.863037	0.084759	0.003688	0.045238	0.854819	0.067069	-0.509104	0.074838	4.652484	-61.693159	7.227188
37146		8.487859	0.373511	4.508386	0.045819	0.010053	-0.194653	-0.030071	0.090869	-0.079777	-0.687500	-0.177734	-0.871826	0.084901	0.003708	0.045045	0.855081	0.067065	-0.508715	0.074485	4.698427	-61.639426	7.152715
37147		8.439411	0.336531	4.556578	-0.002135	-0.040480	-0.215934	-0.029406	0.086777	-0.072169	-0.689209	-0.169678	-0.869385	0.084415	0.003342	0.045529	0.855329	0.067044	-0.508348	0.074161	4.736781	-61.588581	7.086693
37148		8.402351	0.334400	4.520500	0.019779	-0.039478	-0.265736	-0.025588	0.071319	-0.057399	-0.693115	-0.171387	-0.863281	0.084041	0.003326	0.045175	0.855532	0.067003	-0.508049	0.073897	4.762980	-61.546977	7.036012
37149		8.422712	0.312501	4.525573	0.035859	-0.061719	-0.246316	-0.023112	0.061742	-0.048398	-0.688232	-0.181885	-0.874268	0.084242	0.003110	0.045229	0.855705	0.066958	-0.507795	0.073682	4.781820	-61.511530	6.996239
37150		8.415675	0.335360	4.503124	0.053161	-0.035772	-0.262291	-0.032220	0.057849	-0.040812	-0.684082	-0.173340	-0.867920	0.084170	0.003344	0.045006	0.855870	0.066855	-0.507562	0.073474	4.787800	-61.478499	6.964982
37151		8.442765	0.365208	4.480481	0.084325	-0.000377	-0.248104	-0.034640	0.041162	-0.035427	-0.689941	-0.181152	-0.868408	0.084438	0.003645	0.044787	0.855989	0.066735	-0.507404	0.073278	4.788114	-61.455417	6.938754
37152		8.465298	0.412163	4.513720	0.060781	0.041128	-0.210634	-0.042921	0.030844	-0.036809	-0.684326	-0.182617	-0.874512	0.084661	0.004116	0.045123	0.856087	0.066588	-0.507291	0.073053	4.786071	-61.437952	6.909865
37153		8.474605	0.447546	4.474958	0.093877	0.084266	-0.219536	-0.057456	0.016930	-0.038059	-0.687500	-0.173584	-0.861816	0.084751	0.004472	0.044741	0.856154	0.066385	-0.507245	0.072780	4.778171	-61.428581	6.878096
37154		8.518657	0.492311	4.393465	0.177146	0.146269	-0.217916	-0.055567	0.001952	-0.043873	-0.690186	-0.174561	-0.870850	0.085188	0.004917	0.043932	0.856184	0.066213	-0.507257	0.072485	4.778811	-61.427265	6.838190
37155		8.580601	0.526155	4.451898	0.149685	0.172333	-0.134318	-0.067626	-0.007189	-0.038496	-0.683838	-0.177979	-0.872559	0.085805	0.005260	0.044520	0.856193	0.065977	-0.507317	0.072176	4.767652	-61.431647	6.803496
37156		8.638520	0.510439	4.409327	0.215928	0.168992	-0.104364	-0.075534	-0.009945	-0.037232	-0.682861	-0.173340	-0.873535	0.086384	0.005105	0.044096	0.856198	0.065705	-0.507391	0.071851	4.750952	-61.437440	6.769860
37157		8.687317	0.532168	4.395690	0.245143	0.196693	-0.067125	-0.079036	-0.020484	-0.035095	-0.682129	-0.178711	-0.872314	0.086870	0.005324	0.043964	0.856175	0.065417	-0.507512	0.071524	4.730857	-61.449584	6.737902
37158		8.763128	0.435538	4.419854	0.276618	0.103105	0.007193	-0.083997	-0.018011	-0.031632	-0.683105	-0.174805	-0.869873	0.087628	0.004360	0.044205	0.856161	0.065097	-0.507624	0.071199	4.704147	-61.460134	6.710211
37159		8.787538	0.409451	4.417711	0.292682	0.080919	0.026643	-0.084073	-0.022857	-0.031742	-0.684570	-0.177002	-0.869629	0.087871	0.004099	0.044185	0.856132	0.064779	-0.507759	0.070873	4.677857	-61.473803	6.682027
37160		8.822096	0.416429	4.416587	0.306115	0.091452	0.056809	-0.085080	-0.026189	-0.032548	-0.680176	-0.176270	-0.864746	0.088216	0.004169	0.044176	0.856096	0.064462	-0.507905	0.070542	4.652217	-61.489082	6.652844
37161		8.836968	0.357418	4.412130	0.324855	0.036562	0.065561	-0.078730	-0.032093	-0.030260	-0.689209	-0.172363	-0.872070	0.088363	0.003578	0.044134	0.856041	0.064167	-0.508078	0.070232	4.628229	-61.508106	6.625532
37162		8.794288	0.313756	4.449706	0.276953	-0.013976	0.044337	-0.083007	-0.031362	-0.028695	-0.686279	-0.182129	-0.871826	0.087936	0.003143	0.044510	0.855990	0.063851	-0.508247	0.069921	4.600184	-61.526581	6.600412
37163		8.771494	0.336022	4.490275	0.223659	0.000919	0.044521	-0.083255	-0.031553	-0.031327	-0.677246	-0.176758	-0.866943	0.087708	0.003365	0.044915	0.855938	0.063538	-0.508419	0.069596	4.574687	-61.545260	6.571879
37164		8.734558	0.345813	4.501849	0.190874	0.008009	0.017991	-0.086883	-0.034992	-0.031708	-0.689209	-0.170898	-0.864746	0.087338	0.003464	0.045032	0.855879	0.063221	-0.508602	0.069272	4.547869	-61.565519	6.544350
37165		8.741331	0.396484	4.515289	0.169214	0.057301	0.032310	-0.087924	-0.040752	-0.032575	-0.693359	-0.166260	-0.875977	0.087405	0.003970	0.045169	0.855805	0.062895	-0.508814	0.068926	4.521796	-61.589407	6.513442
37166		8.733359	0.432952	4.542334	0.131748	0.089383	0.039543	-0.098299	-0.031367	-0.040342	-0.688965	-0.171631	-0.875977	0.087327	0.004334	0.045435	0.855761	0.062538	-0.508986	0.068518	4.497336	-61.607549	6.473228
37167		8.759107	0.479729	4.528254	0.144399	0.140364	0.057298	-0.091651	-0.032126	-0.045029	-0.692139	-0.168701	-0.868896	0.087585	0.004798	0.045294	0.855714	0.062225	-0.509158	0.068113	4.481587	-61.625963	6.428168
37168		8.879729	0.497224	4.542496	0.183582	0.162239	0.170852	-0.103868	-0.017260	-0.054129	-0.684570	-0.169678	-0.875732	0.088795	0.004972	0.045430	0.855713	0.061878	-0.509266	0.067641	4.467368	-61.635336	6.373369
37169		8.908352	0.453902	4.526190	0.218138	0.124576	0.186716	-0.105351	-0.001718	-0.062373	-0.686035	-0.165283	-0.873047	0.089085	0.004535	0.045260	0.855753	0.061539	-0.509307	0.067135	4.459623	-61.635617	6.310301
37170		8.898183	0.421377	4.525108	0.220392	0.092920	0.176037	-0.111215	0.004716	-0.059575	-0.690918	-0.177002	-0.874512	0.088984	0.004212	0.045247	0.855811	0.061165	-0.509321	0.066624	4.445138	-61.632049	6.250494
37171		8.834127	0.312529	4.562798	0.177837	-0.023075	0.133490	-0.112522	0.015618	-0.065326	-0.682617	-0.168701	-0.872803	0.088346	0.003122	0.045619	0.855898	0.060798	-0.509288	0.066093	4.434965	-61.622308	6.185510
37172		8.790227	0.342693	4.593584	0.126556	-0.000481	0.110544	-0.102130	0.008819	-0.067278	-0.690430	-0.166748	-0.876953	0.087905	0.003421	0.045930	0.855965	0.060488	-0.509278	0.065588	4.433444	-61.616070	6.118818
37173		8.789087	0.271279	4.605000	0.129495	-0.072554	0.112313	-0.099977	0.008481	-0.063321	-0.694580	-0.170410	-0.874268	0.087894	0.002708	0.046045	0.856028	0.060172	-0.509272	0.065095	4.428893	-61.610500	6.055606
37174		8.778574	0.239331	4.604561	0.131726	-0.104224	0.101667	-0.095581	0.017584	-0.064761	-0.690918	-0.164551	-0.863525	0.087791	0.002387	0.046037	0.856114	0.059877	-0.509224	0.064612	4.427751	-61.599560	5.991741
37175		8.815810	0.230016	4.592324	0.163604	-0.109148	0.128247	-0.092375	0.025460	-0.059880	-0.683838	-0.164307	-0.870605	0.088165	0.002295	0.045911	0.856217	0.059579	-0.509144	0.064159	4.422486	-61.584446	5.934280
37176		8.785676	0.204178	4.579177	0.167782	-0.133143	0.094521	-0.086329	0.031205	-0.052867	-0.683105	-0.176025	-0.884033	0.087864	0.002038	0.045777	0.856330	0.059288	-0.509039	0.063751	4.412923	-61.566348	5.885558
37177		8.831720	0.228060	4.570627	0.196971	-0.105328	0.131760	-0.074184	0.052627	-0.057859	-0.683838	-0.164063	-0.873291	0.088330	0.002272	0.045682	0.856495	0.059054	-0.508837	0.063360	4.413658	-61.535809	5.833105
37178		8.795124	0.219120	4.617074	0.146453	-0.123147	0.121244	-0.066488	0.057559	-0.051995	-0.682617	-0.163330	-0.882568	0.087965	0.002184	0.046145	0.856669	0.058842	-0.508609	0.063026	4.412192	-61.502303	5.789478
37179		8.810994	0.214362	4.636894	0.144020	-0.129744	0.144359	-0.058217	0.072762	-0.050351	-0.684814	-0.160645	-0.880371	0.088127	0.002135	0.046336	0.856878	0.058651	-0.508317	0.062714	4.412416	-61.460593	5.747984
37180		8.788347	0.222330	4.629808	0.145561	-0.121006	0.121283	-0.055028	0.080623	-0.045439	-0.690186	-0.165039	-0.875977	0.087903	0.002216	0.046262	0.857106	0.058454	-0.507991	0.062425	4.408679	-61.414320	5.712020
37181		8.703420	0.195067	4.606149	0.137869	-0.146892	0.034322	-0.051917	0.081168	-0.040699	-0.683594	-0.166016	-0.875732	0.087053	0.001945	0.046026	0.857331	0.058263	-0.507664	0.062173	4.401599	-61.368236	5.682922
37182		8.661353	0.136396	4.595343	0.144765	-0.203648	-0.010015	-0.042574	0.085292	-0.035974	-0.676270	-0.170166	-0.874023	0.086633	0.001358	0.045916	0.857562	0.058102	-0.507317	0.061970	4.394634	-61.319956	5.660402
37183		8.714696	0.121301	4.602826	0.174680	-0.216216	0.039691	-0.026547	0.091092	-0.035778	-0.684082	-0.163086	-0.876465	0.087168	0.001204	0.045988	0.857803	0.058004	-0.506941	0.061807	4.396072	-61.268420	5.638138
37184		8.676811	0.114554	4.610076	0.160412	-0.224706	0.009570	-0.020049	0.097200	-0.023503	-0.680664	-0.162109	-0.882813	0.086791	0.001140	0.046058	0.858054	0.057906	-0.506538	0.061723	4.387940	-61.213756	5.632208
37185		8.676112	0.164540	4.678160	0.102478	-0.184725	0.043404	-0.000947	0.100908	-0.008866	-0.684326	-0.157715	-0.882568	0.086785	0.001642	0.046738	0.858303	0.057846	-0.506120	0.061742	4.375251	-61.157793	5.642785
37186		8.700565	0.194326	4.660875	0.133642	-0.149228	0.057531	0.008816	0.100530	0.000985	-0.681152	-0.155762	-0.884277	0.087029	0.001942	0.046565	0.858547	0.057798	-0.505702	0.061819	4.358066	-61.102380	5.663681
37187		8.657902	0.207305	4.641762	0.137120	-0.132863	0.011352	0.016505	0.107907	0.006940	-0.675049	-0.163818	-0.885986	0.086604	0.002072	0.046371	0.858804	0.057772	-0.505253	0.061952	4.338589	-61.043102	5.693451
37188		8.642674	0.244070	4.681538	0.099685	-0.100749	0.018492	0.022017	0.113117	0.018455	-0.683350	-0.165039	-0.883057	0.086453	0.002444	0.046767	0.859070	0.057733	-0.504781	0.062141	4.310100	-60.981148	5.735936
37189		8.633086	0.264288	4.664360	0.117002	-0.074823	0.002453	0.021570	0.117530	0.022950	-0.677490	-0.166016	-0.882568	0.086358	0.002648	0.046593	0.859344	0.057684	-0.504293	0.062359	4.276549	-60.917045	5.785160
37190		8.603728	0.288318	4.675382	0.100023	-0.050590	-0.017081	0.028715	0.117207	0.023522	-0.679443	-0.166748	-0.883789	0.086064	0.002887	0.046704	0.859615	0.057669	-0.503803	0.062604	4.246690	-60.853083	5.835809
37191		8.583427	0.272750	4.698721	0.083756	-0.066755	-0.024117	0.025687	0.126416	0.028496	-0.678955	-0.163818	-0.885254	0.085864	0.002734	0.046933	0.859908	0.057622	-0.503277	0.062858	4.209511	-60.784109	5.891953
37192		8.576513	0.269302	4.751775	0.047018	-0.075029	-0.004496	0.032625	0.128360	0.026501	-0.674072	-0.164307	-0.889893	0.085795	0.002697	0.047463	0.860204	0.057612	-0.502738	0.063128	4.178395	-60.713893	5.946588
37193		8.531574	0.206685	4.786139	0.017647	-0.141170	-0.029164	0.037370	0.123367	0.020318	-0.669434	-0.153564	-0.886230	0.085345	0.002067	0.047809	0.860487	0.057636	-0.502218	0.063376	4.156864	-60.646292	5.992538
37194		8.545724	0.202749	4.768376	0.051515	-0.138415	-0.025650	0.043958	0.117618	0.025275	-0.673340	-0.165283	-0.882080	0.085485	0.002028	0.047634	0.860754	0.057672	-0.501722	0.063649	4.134637	-60.582017	6.042241
37195		8.593484	0.207052	4.751955	0.099184	-0.126066	0.008014	0.042824	0.121471	0.021919	-0.672119	-0.168213	-0.892334	0.085963	0.002070	0.047468	0.861031	0.057716	-0.501208	0.063917	4.115051	-60.515549	6.089604
37196		8.659594	0.132149	4.759914	0.148314	-0.194461	0.066735	0.048184	0.116924	0.033242	-0.668457	-0.161133	-0.884277	0.086624	0.001324	0.047549	0.861290	0.057762	-0.500714	0.064256	4.087527	-60.452020	6.151038
37197		8.634015	0.135288	4.798002	0.113540	-0.195096	0.063262	0.044136	0.120338	0.037337	-0.670166	-0.168457	-0.888184	0.086369	0.001358	0.047928	0.861557	0.057773	-0.500209	0.064593	4.053579	-60.386805	6.215842
37198		8.632642	0.185777	4.825598	0.091879	-0.145737	0.077395	0.049855	0.123495	0.041697	-0.671143	-0.159424	-0.889404	0.086356	0.001864	0.048203	0.861829	0.057801	-0.499689	0.064970	4.018454	-60.319867	6.286594
37199		8.569325	0.201114	4.835309	0.061069	-0.131134	0.027691	0.054095	0.125215	0.049760	-0.666260	-0.157227	-0.890381	0.085723	0.002019	0.048300	0.862101	0.057822	-0.499163	0.065386	3.977878	-60.252320	6.365685
37200		8.510349	0.268292	4.862110	0.009047	-0.068252	-0.007924	0.071987	0.128044	0.051385	-0.669678	-0.165771	-0.893066	0.085134	0.002687	0.048568	0.862374	0.057909	-0.498620	0.065843	3.945967	-60.183217	6.444943
37201		8.501345	0.262860	4.957158	-0.064003	-0.085829	0.031291	0.075759	0.126923	0.054193	-0.659668	-0.163330	-0.885742	0.085044	0.002633	0.049519	0.862642	0.058012	-0.498080	0.066333	3.913792	-60.114821	6.528769
37202		8.456509	0.272477	4.980907	-0.096775	-0.078852	0.004676	0.080457	0.124271	0.057721	-0.666016	-0.174805	-0.888184	0.084595	0.002729	0.049758	0.862899	0.058130	-0.497550	0.066854	3.881154	-60.047955	6.616939
37203		8.433941	0.255188	5.046224	-0.149338	-0.104343	0.017250	0.091181	0.125038	0.058628	-0.673584	-0.167236	-0.892578	0.084370	0.002554	0.050411	0.863155	0.058290	-0.497014	0.067402	3.854070	-59.980762	6.705201
37204		8.446461	0.248474	5.070858	-0.151803	-0.110895	0.040367	0.093961	0.120539	0.060666	-0.662354	-0.158447	-0.891602	0.084494	0.002487	0.050659	0.863395	0.058470	-0.496495	0.067986	3.827019	-59.916260	6.798284
37205		8.421898	0.254575	5.066328	-0.150288	-0.102234	0.017257	0.095664	0.122295	0.059418	-0.664063	-0.164063	-0.894531	0.084249	0.002547	0.050613	0.863641	0.058648	-0.495969	0.068547	3.802414	-59.850625	6.886766
37206		8.467864	0.256408	5.092785	-0.138951	-0.099140	0.070520	0.096953	0.123627	0.052974	-0.661377	-0.164795	-0.893799	0.084709	0.002562	0.050877	0.863893	0.058841	-0.495435	0.069074	3.784970	-59.783985	6.966608
37207		8.461771	0.256649	5.102890	-0.139428	-0.098082	0.070523	0.099214	0.121093	0.059487	-0.659180	-0.174072	-0.895752	0.084648	0.002566	0.050979	0.864134	0.059034	-0.494912	0.069643	3.762895	-59.719008	7.054636
37208		8.466672	0.362789	5.104029	-0.146021	0.008888	0.079019	0.102666	0.117160	0.047449	-0.661865	-0.166260	-0.899170	0.084696	0.003622	0.050993	0.864367	0.059280	-0.494399	0.070182	3.754909	-59.655649	7.130403
37209		8.509465	0.385919	5.102695	-0.116904	0.036829	0.116179	0.103481	0.118141	0.057694	-0.661865	-0.169434	-0.896484	0.085124	0.003857	0.050979	0.864599	0.059497	-0.493886	0.070753	3.737657	-59.592272	7.215789
37210		8.468786	0.448954	5.142746	-0.170916	0.092082	0.103563	0.092459	0.139150	0.048763	-0.661133	-0.169189	-0.896729	0.084723	0.004486	0.051371	0.864888	0.059683	-0.493283	0.071269	3.721580	-59.516497	7.293074
37211		8.415392	0.429111	5.122407	-0.164697	0.075550	0.046783	0.091603	0.131134	0.050477	-0.665283	-0.163086	-0.893066	0.084186	0.004289	0.051171	0.865156	0.059862	-0.492715	0.071783	3.704186	-59.445398	7.370850
37212		8.416630	0.460560	5.177216	-0.204239	0.100076	0.076883	0.079965	0.132092	0.048569	-0.657227	-0.169678	-0.902588	0.084199	0.004605	0.051718	0.865430	0.059994	-0.492148	0.072260	3.682096	-59.373917	7.446129
37213		8.322529	0.449282	5.211179	-0.266622	0.080104	0.013054	0.067864	0.127638	0.041498	-0.657959	-0.168457	-0.898926	0.083258	0.004492	0.052060	0.865699	0.060093	-0.491601	0.072676	3.660442	-59.304459	7.513159
37214		8.292487	0.474642	5.221127	-0.283608	0.104271	-0.006594	0.060073	0.122454	0.032940	-0.659912	-0.169678	-0.900146	0.082956	0.004744	0.052162	0.865961	0.060183	-0.491075	0.073038	3.642992	-59.237571	7.570596
37215		8.250671	0.465398	5.270788	-0.334188	0.086358	-0.017167	0.044163	0.114200	0.022979	-0.653564	-0.177979	-0.905762	0.082536	0.004652	0.052662	0.866210	0.060231	-0.490589	0.073311	3.626723	-59.175103	7.615642
37216		8.304292	0.450681	5.240070	-0.268048	0.083249	0.012989	0.036033	0.110998	0.009269	-0.651855	-0.170410	-0.895508	0.083072	0.004501	0.052355	0.866458	0.060287	-0.490113	0.073522	3.619146	-59.113825	7.647477
37217		8.357931	0.436275	5.209552	-0.201930	0.080151	0.043152	0.022187	0.114513	0.000739	-0.654541	-0.172119	-0.913330	0.083609	0.004357	0.052048	0.866722	0.060293	-0.489626	0.073646	3.611727	-59.050366	7.667590
37218		8.341692	0.404672	5.217760	-0.199670	0.048427	0.032635	0.019974	0.129361	-0.008667	-0.647217	-0.171875	-0.908936	0.083451	0.004038	0.052124	0.867027	0.060311	-0.489070	0.073735	3.611092	-58.977911	7.679304
37219		8.308598	0.429841	5.270624	-0.252973	0.063288	0.032566	0.009948	0.136664	-0.014317	-0.646240	-0.178223	-0.898193	0.083122	0.004290	0.052650	0.867354	0.060293	-0.488487	0.073770	3.609734	-58.901241	7.684186
37220		8.243055	0.376299	5.289785	-0.280251	0.004625	-0.015096	0.007096	0.121717	-0.013910	-0.648682	-0.180176	-0.904541	0.082463	0.003755	0.052848	0.867645	0.060279	-0.487965	0.073817	3.607182	-58.832769	7.691396
37221		8.262094	0.425271	5.288427	-0.267674	0.055699	0.002391	0.006508	0.106402	-0.019035	-0.646973	-0.172607	-0.903076	0.082649	0.004243	0.052840	0.867900	0.060269	-0.487513	0.073814	3.610136	-58.773233	7.688940
37222		8.256676	0.427119	5.296735	-0.268129	0.056736	0.002373	-0.000037	0.095094	-0.021568	-0.640869	-0.171387	-0.898438	0.082592	0.004262	0.052928	0.868129	0.060254	-0.487108	0.073807	3.612334	-58.719866	7.686393
37223		8.236147	0.414519	5.317334	-0.284402	0.040525	-0.004657	-0.007130	0.097981	-0.022370	-0.649170	-0.176025	-0.903320	0.082388	0.004138	0.053133	0.868369	0.060196	-0.486695	0.073753	3.611095	-58.665025	7.679697
37224		8.288373	0.398752	5.327840	-0.254589	0.028170	0.045121	-0.014619	0.085713	-0.025623	-0.640381	-0.178223	-0.903809	0.082907	0.003981	0.053243	0.868581	0.060127	-0.486336	0.073681	3.609305	-58.617000	7.670822
37225		8.322546	0.411022	5.253199	-0.168682	0.057485	0.036071	-0.025886	0.087048	-0.022336	-0.645020	-0.166504	-0.905029	0.083249	0.004108	0.052495	0.868799	0.059991	-0.485978	0.073578	3.597924	-58.568412	7.663413
37226		8.374683	0.416936	5.194222	-0.084757	0.079250	0.050153	-0.024379	0.098244	-0.028794	-0.644775	-0.168945	-0.910645	0.083773	0.004164	0.051901	0.869047	0.059879	-0.485567	0.073466	3.592752	-58.513018	7.651174
37227		8.363810	0.436920	5.217220	-0.103763	0.095829	0.053601	-0.029014	0.101030	-0.032586	-0.640381	-0.173340	-0.911133	0.083665	0.004363	0.052129	0.869303	0.059749	-0.485146	0.073316	3.588311	-58.456068	7.633513
37228		8.365322	0.469384	5.270031	-0.143261	0.120396	0.083632	-0.035369	0.102159	-0.035260	-0.638428	-0.173340	-0.907471	0.083681	0.004688	0.052657	0.869566	0.059601	-0.484720	0.073144	3.582599	-58.398143	7.613715
37229		8.347146	0.458199	5.249239	-0.123219	0.113466	0.057025	-0.039402	0.105448	-0.043524	-0.645020	-0.176025	-0.915527	0.083500	0.004574	0.052447	0.869840	0.059450	-0.484280	0.072923	3.582048	-58.338276	7.584472
37230		8.425135	0.396957	5.289581	-0.094683	0.053284	0.142630	-0.050282	0.104578	-0.047322	-0.642090	-0.175781	-0.910889	0.084280	0.003963	0.052851	0.870115	0.059274	-0.483843	0.072678	3.578768	-58.278531	7.553734
37231		8.391589	0.371486	5.281366	-0.090419	0.029093	0.109035	-0.063189	0.104090	-0.055227	-0.639648	-0.162842	-0.904785	0.083944	0.003708	0.052769	0.870397	0.059049	-0.483414	0.072347	3.575374	-58.219024	7.511771
37232		8.464375	0.351496	5.266329	-0.026351	0.018537	0.162400	-0.070922	0.096365	-0.063785	-0.641113	-0.173828	-0.915039	0.084670	0.003507	0.052621	0.870664	0.058815	-0.483019	0.071960	3.575835	-58.163708	7.460233
37233		8.412974	0.332734	5.242676	-0.020066	0.001880	0.105683	-0.068157	0.106546	-0.064358	-0.634766	-0.166016	-0.920410	0.084159	0.003318	0.052381	0.870955	0.058590	-0.482578	0.071578	3.577693	-58.102470	7.408681
37234		8.361292	0.314316	5.219458	-0.013728	-0.014783	0.048972	-0.062077	0.110090	-0.067062	-0.639160	-0.169434	-0.915283	0.083643	0.003131	0.052148	0.871254	0.058398	-0.482116	0.071205	3.585188	-58.038836	7.355127
37235		8.271149	0.356789	5.266896	-0.097294	0.013386	-0.000973	-0.054949	0.109807	-0.066366	-0.629639	-0.169922	-0.911621	0.082742	0.003555	0.052623	0.871549	0.058234	-0.481654	0.070847	3.596027	-57.975654	7.301839
37236		8.210774	0.355647	5.299773	-0.145802	0.002956	-0.034670	-0.050575	0.099398	-0.065176	-0.640869	-0.176758	-0.922852	0.082135	0.003543	0.052956	0.871817	0.058094	-0.481236	0.070510	3.608763	-57.918302	7.250222
37237		8.159333	0.315275	5.344640	-0.193606	-0.047810	-0.055664	-0.045419	0.089704	-0.065827	-0.633057	-0.164307	-0.914795	0.081618	0.003138	0.053409	0.872061	0.057977	-0.480858	0.070172	3.625482	-57.866622	7.196372
37238		8.162992	0.278752	5.364743	-0.193337	-0.087098	-0.042957	-0.045341	0.082472	-0.063198	-0.633057	-0.174072	-0.916748	0.081653	0.002774	0.053613	0.872285	0.057862	-0.480512	0.069853	3.640177	-57.819082	7.146204
37239		8.205711	0.182213	5.313922	-0.103215	-0.171226	-0.036968	-0.036653	0.083625	-0.066166	-0.627686	-0.172363	-0.920654	0.082080	0.001805	0.053105	0.872510	0.057787	-0.480158	0.069532	3.662357	-57.770849	7.091778
37240		8.240426	0.175005	5.309292	-0.071339	-0.175954	-0.010251	-0.033539	0.084442	-0.058769	-0.636475	-0.172363	-0.913818	0.082427	0.001735	0.053058	0.872734	0.057719	-0.479797	0.069275	3.679440	-57.722035	7.048510
37241		8.190596	0.157726	5.283029	-0.065012	-0.192676	-0.066930	-0.017514	0.075643	-0.055550	-0.634521	-0.170410	-0.920410	0.081926	0.001559	0.052799	0.872931	0.057704	-0.479474	0.069044	3.703229	-57.678737	7.005099
37242		8.215004	0.260591	5.296212	-0.073759	-0.093230	-0.035677	-0.000810	0.072695	-0.041968	-0.630615	-0.169189	-0.922852	0.082170	0.002589	0.052932	0.873109	0.057738	-0.479162	0.068926	3.724427	-57.637743	6.977849
37243		8.205017	0.232574	5.257657	-0.035153	-0.115731	-0.065651	0.005215	0.071530	-0.029634	-0.633545	-0.167480	-0.916992	0.082069	0.002312	0.052547	0.873280	0.057762	-0.478857	0.068862	3.737953	-57.597746	6.961974
37244		8.210730	0.268304	5.265735	-0.038381	-0.081882	-0.055236	0.019119	0.068235	-0.018282	-0.625000	-0.169922	-0.918701	0.082126	0.002670	0.052630	0.873435	0.057819	-0.478564	0.068879	3.749365	-57.560066	6.957927
37245		8.255686	0.293479	5.262526	-0.009338	-0.053790	-0.018114	0.029413	0.076189	-0.010119	-0.625244	-0.175537	-0.925049	0.082577	0.002923	0.052594	0.873604	0.057900	-0.478235	0.068959	3.758875	-57.518135	6.963229
37246		8.220642	0.266599	5.293354	-0.041272	-0.087290	-0.032079	0.032710	0.082212	-0.000159	-0.626709	-0.168945	-0.924805	0.082228	0.002657	0.052900	0.873782	0.057980	-0.477877	0.069111	3.760920	-57.472690	6.982044
37247		8.240249	0.292943	5.359700	-0.082858	-0.070194	0.021036	0.034055	0.078817	0.008437	-0.627441	-0.166748	-0.917236	0.082423	0.002924	0.053565	0.873949	0.058035	-0.477541	0.069284	3.756323	-57.429953	7.007242
37248		8.296812	0.279285	5.328180	-0.016760	-0.073132	0.051336	0.029745	0.082051	0.009778	-0.624512	-0.174805	-0.915527	0.082990	0.002789	0.053248	0.874125	0.058065	-0.477191	0.069448	3.747860	-57.385345	7.033335
37249		8.323371	0.258851	5.251893	0.071915	-0.076603	0.031948	0.029331	0.089309	0.016676	-0.620605	-0.177490	-0.923096	0.083257	0.002588	0.052482	0.874314	0.058077	-0.476813	0.069649	3.732684	-57.336913	7.067907
37250		8.306628	0.296065	5.288339	0.034443	-0.044480	0.038763	0.027930	0.090601	0.022915	-0.620605	-0.168457	-0.926270	0.083090	0.002963	0.052846	0.874504	0.058085	-0.476426	0.069907	3.711109	-57.287618	7.113383
37251		8.323335	0.291270	5.269290	0.068261	-0.041671	0.042350	0.031824	0.094666	0.028425	-0.627197	-0.166016	-0.927246	0.083258	0.002916	0.052654	0.874701	0.058078	-0.476026	0.070167	3.686770	-57.236544	7.160587
37252		8.318264	0.290376	5.277341	0.067813	-0.040609	0.042357	0.033105	0.101125	0.034216	-0.622559	-0.172607	-0.925049	0.083209	0.002909	0.052732	0.874913	0.058053	-0.475599	0.070446	3.657691	-57.181787	7.212793
37253		8.273479	0.299646	5.296984	0.035074	-0.033828	0.015634	0.035150	0.105817	0.038179	-0.619873	-0.170410	-0.914551	0.082762	0.003003	0.052927	0.875132	0.058034	-0.475152	0.070759	3.626234	-57.124666	7.270795
37254		8.204513	0.333912	5.315920	-0.014148	-0.004035	-0.030852	0.043261	0.111509	0.039598	-0.618652	-0.176514	-0.925293	0.082074	0.003344	0.053114	0.875361	0.058050	-0.474676	0.071111	3.597968	-57.064260	7.332011
37255		8.264286	0.276921	5.342533	0.016330	-0.056499	0.031818	0.045108	0.110967	0.041047	-0.624756	-0.174561	-0.926514	0.082672	0.002774	0.053380	0.875587	0.058065	-0.474203	0.071462	3.569715	-57.004264	7.393073
37256		8.317383	0.281763	5.286417	0.100239	-0.034622	0.045974	0.044969	0.110812	0.038367	-0.622070	-0.173828	-0.915527	0.083203	0.002822	0.052819	0.875813	0.058101	-0.473727	0.071829	3.543877	-56.944044	7.454731
37257		8.323235	0.293435	5.325586	0.079186	-0.025522	0.072518	0.052398	0.113490	0.044290	-0.624268	-0.175293	-0.931885	0.083262	0.002939	0.053209	0.876041	0.058139	-0.473241	0.072212	3.517139	-56.882689	7.519054
37258		8.281758	0.304528	5.303849	0.082755	-0.009517	0.026221	0.040173	0.116402	0.046540	-0.611084	-0.171875	-0.931641	0.082848	0.003054	0.052991	0.876277	0.058129	-0.472747	0.072598	3.481444	-56.819885	7.588443
37259		8.232129	0.354496	5.268826	0.085615	0.046773	-0.032881	0.043856	0.115261	0.049516	-0.617432	-0.172119	-0.921387	0.082351	0.003554	0.052642	0.876509	0.058117	-0.472257	0.072984	3.445518	-56.757657	7.657991
37260		8.220327	0.371372	5.292204	0.066644	0.063354	-0.029506	0.045743	0.107385	0.053749	-0.625244	-0.170166	-0.933594	0.082231	0.003724	0.052879	0.876721	0.058111	-0.471800	0.073402	3.407529	-56.699776	7.732654
37261		8.189191	0.415056	5.271640	0.067467	0.112155	-0.065474	0.050027	0.101700	0.052406	-0.616943	-0.169434	-0.931396	0.081918	0.004159	0.052676	0.876918	0.058124	-0.471368	0.073812	3.373702	-56.645354	7.804016
37262		8.231732	0.363564	5.282216	0.099950	0.067205	-0.025916	0.058017	0.097323	0.054071	-0.618408	-0.165039	-0.934326	0.082342	0.003643	0.052783	0.877101	0.058167	-0.470955	0.074241	3.343350	-56.593615	7.875983
37263		8.212540	0.420176	5.291070	0.080193	0.124062	-0.035369	0.058184	0.100144	0.056516	-0.619629	-0.175293	-0.926025	0.082151	0.004210	0.052871	0.877290	0.058207	-0.470527	0.074687	3.311044	-56.540176	7.951208
37264		8.259179	0.370525	5.259886	0.148993	0.088354	-0.015355	0.065206	0.102156	0.054645	-0.615967	-0.169678	-0.927979	0.082618	0.003711	0.052558	0.877481	0.058279	-0.470090	0.075139	3.284422	-56.485728	8.024047
37265		8.300470	0.369624	5.329902	0.123833	0.082545	0.057476	0.055299	0.109572	0.048600	-0.611572	-0.174072	-0.932129	0.083033	0.003702	0.053255	0.877695	0.058322	-0.469620	0.075547	3.257170	-56.426597	8.091321
37266		8.340690	0.338859	5.313642	0.174126	0.062388	0.080872	0.061633	0.101211	0.054075	-0.613770	-0.171631	-0.933105	0.083433	0.003395	0.053095	0.877884	0.058385	-0.469185	0.075997	3.229387	-56.372402	8.164372
37267		8.322740	0.374924	5.351123	0.136558	0.094493	0.087591	0.048684	0.118363	0.055076	-0.621094	-0.179443	-0.934814	0.083258	0.003759	0.053463	0.878118	0.058379	-0.468680	0.076420	3.192696	-56.308411	8.238523
37268		8.221894	0.380431	5.393352	0.055797	0.089586	0.027098	0.047681	0.112415	0.054412	-0.612793	-0.174072	-0.938477	0.082248	0.003814	0.053888	0.878335	0.058384	-0.468201	0.076855	3.156517	-56.247922	8.313996
37269		8.194187	0.383296	5.428351	0.021014	0.088849	0.023484	0.046553	0.106220	0.051172	-0.614746	-0.182861	-0.926758	0.081970	0.003841	0.054241	0.878541	0.058383	-0.467749	0.077253	3.122914	-56.190704	8.383068
37270		8.128317	0.346905	5.414466	0.011653	0.054637	-0.040114	0.046282	0.095913	0.048840	-0.611816	-0.182617	-0.940430	0.081308	0.003476	0.054106	0.878720	0.058408	-0.467340	0.077670	3.091861	-56.139323	8.453435
37271		8.163670	0.364421	5.497698	-0.032073	0.064387	0.036059	0.049015	0.086439	0.053966	-0.613037	-0.176270	-0.931885	0.081659	0.003653	0.054943	0.878878	0.058419	-0.466974	0.078080	3.058514	-56.093465	8.523984
37272		8.188916	0.319194	5.492071	0.002480	0.026929	0.052521	0.053939	0.086014	0.045497	-0.599365	-0.180908	-0.935791	0.081912	0.003196	0.054886	0.879033	0.058490	-0.466603	0.078499	3.035420	-56.047490	8.590225
37273		8.234915	0.320349	5.519151	0.013627	0.030403	0.105798	0.057519	0.094522	0.042984	-0.610352	-0.173340	-0.936768	0.082375	0.003205	0.055154	0.879210	0.058561	-0.466194	0.078882	3.016173	-55.996641	8.649726
37274		8.180321	0.297970	5.534990	-0.016245	0.004268	0.068722	0.054885	0.101823	0.040377	-0.617188	-0.170898	-0.938721	0.081831	0.002981	0.055309	0.879406	0.058635	-0.465750	0.079272	2.997458	-55.941153	8.709702
37275		8.192278	0.291769	5.558989	-0.018796	-0.002125	0.091884	0.060014	0.099350	0.037168	-0.607422	-0.168457	-0.940430	0.081950	0.002916	0.055550	0.879596	0.058728	-0.465318	0.079637	2.984590	-55.887347	8.763303
37276		8.224969	0.301532	5.529039	0.030693	0.018022	0.102455	0.063478	0.100259	0.034911	-0.604980	-0.177979	-0.937500	0.082277	0.003012	0.055250	0.879788	0.058831	-0.464882	0.079981	2.975633	-55.833230	8.812062
37277		8.231834	0.264343	5.509047	0.067284	-0.011980	0.095788	0.062010	0.103733	0.032494	-0.605957	-0.180176	-0.941162	0.082346	0.002640	0.055049	0.879988	0.058942	-0.464428	0.080332	2.967862	-55.776767	8.860953
37278		8.218556	0.304417	5.503701	0.066077	0.029338	0.082909	0.059849	0.106448	0.028810	-0.600098	-0.181152	-0.936523	0.082214	0.003040	0.054994	0.880195	0.059063	-0.463959	0.080684	2.961979	-55.718420	8.909043
37279		8.226065	0.390731	5.530773	0.041419	0.111588	0.106793	0.065590	0.109511	0.024231	-0.607422	-0.176514	-0.939209	0.082290	0.003899	0.055264	0.880411	0.059206	-0.463475	0.081008	2.963125	-55.658403	8.949689
37280		8.180407	0.403350	5.549544	0.008701	0.118258	0.079992	0.061631	0.113152	0.024616	-0.595215	-0.176270	-0.934082	0.081835	0.004026	0.055450	0.880634	0.059339	-0.462975	0.081342	2.961653	-55.596205	8.992917
37281		8.165265	0.464125	5.517001	0.025250	0.184305	0.050864	0.057059	0.121112	0.023544	-0.604736	-0.181396	-0.937988	0.081685	0.004635	0.055122	0.880879	0.059442	-0.462442	0.081646	2.958146	-55.529528	9.033340
37282		8.175960	0.459131	5.542736	0.022699	0.177922	0.074014	0.047034	0.120842	0.017842	-0.597412	-0.179688	-0.937012	0.081793	0.004586	0.055379	0.881127	0.059520	-0.461912	0.081915	2.953806	-55.462731	9.069475
37283		8.128570	0.491446	5.534115	0.007769	0.209316	0.030976	0.038714	0.120030	0.016773	-0.597900	-0.174316	-0.942139	0.081318	0.004911	0.055293	0.881376	0.059558	-0.461390	0.082147	2.945639	-55.396469	9.102857
37284		8.168876	0.441912	5.548288	0.040262	0.164477	0.070664	0.032316	0.125907	0.011356	-0.602783	-0.180664	-0.934814	0.081723	0.004415	0.055432	0.881643	0.059579	-0.460842	0.082344	2.938170	-55.326548	9.131241
37285		8.138284	0.467724	5.556423	0.023270	0.188449	0.050791	0.016846	0.130248	0.006630	-0.592529	-0.174561	-0.948242	0.081419	0.004675	0.055512	0.881926	0.059540	-0.460280	0.082484	2.925594	-55.254136	9.154802
37286		8.167097	0.404802	5.541487	0.076362	0.135504	0.064013	0.006285	0.134512	0.002125	-0.589355	-0.176270	-0.945068	0.081708	0.004047	0.055360	0.882224	0.059464	-0.459702	0.082582	2.910640	-55.179104	9.174221
37287		8.120772	0.396133	5.590242	0.025834	0.117409	0.053426	-0.000920	0.141864	-0.007108	-0.592773	-0.178711	-0.947754	0.081247	0.003959	0.055845	0.882543	0.059374	-0.459092	0.082624	2.898843	-55.099640	9.184471
37288		8.108500	0.364838	5.557471	0.064559	0.094808	0.023633	-0.005396	0.137197	-0.011167	-0.598633	-0.188232	-0.945801	0.081123	0.003645	0.055519	0.882856	0.059276	-0.458500	0.082639	2.888112	-55.022389	9.190641
37289		8.150575	0.387881	5.561019	0.093457	0.123098	0.060678	-0.004529	0.127267	-0.024295	-0.606445	-0.180420	-0.945313	0.081542	0.003870	0.055558	0.883150	0.059214	-0.457950	0.082592	2.888968	-54.950779	9.182937
37290		8.159416	0.403570	5.559960	0.108634	0.141446	0.067610	-0.010881	0.133361	-0.027027	-0.590088	-0.183594	-0.940186	0.081632	0.004028	0.055545	0.883457	0.059141	-0.457376	0.082542	2.888316	-54.875890	9.175581
37291		8.140340	0.412507	5.512665	0.146555	0.159090	0.024893	-0.010959	0.133366	-0.026935	-0.595459	-0.184082	-0.948242	0.081441	0.004117	0.055072	0.883767	0.059055	-0.456801	0.082471	2.887349	-54.800715	9.165587
37292		8.073622	0.491671	5.432330	0.169309	0.247278	-0.073823	-0.015274	0.129346	-0.022974	-0.592773	-0.187256	-0.948486	0.080772	0.004912	0.054271	0.884065	0.058953	-0.456245	0.082425	2.881025	-54.727940	9.161737
37293		7.966876	0.468832	5.428349	0.127834	0.218474	-0.164174	-0.014045	0.120929	-0.017344	-0.591797	-0.177002	-0.942383	0.079702	0.004685	0.054235	0.884343	0.058836	-0.455729	0.082385	2.871025	-54.660158	9.160630
37294		7.938044	0.474200	5.462765	0.093039	0.217656	-0.167835	-0.016655	0.100890	-0.014201	-0.589600	-0.180908	-0.949219	0.079408	0.004741	0.054587	0.884573	0.058715	-0.455303	0.082357	2.857981	-54.604016	9.162775
37295		8.008396	0.420271	5.407921	0.196157	0.183875	-0.143957	-0.020625	0.086859	-0.013649	-0.586182	-0.176758	-0.951904	0.080108	0.004203	0.054044	0.884773	0.058575	-0.454941	0.082309	2.842641	-54.555836	9.163592
37296		8.127951	0.408488	5.317995	0.346473	0.202108	-0.099263	-0.023035	0.089311	-0.016712	-0.589355	-0.182129	-0.957031	0.081304	0.004084	0.053143	0.884981	0.058430	-0.454567	0.082241	2.828425	-54.506081	9.161319
37297		8.100206	0.413625	5.350974	0.311692	0.201313	-0.102916	-0.026200	0.093457	-0.020900	-0.585449	-0.176270	-0.950684	0.081027	0.004135	0.053471	0.885200	0.058279	-0.454176	0.082150	2.815479	-54.453921	9.155271
37298		8.034765	0.398894	5.306599	0.320274	0.191607	-0.182668	-0.034871	0.082555	-0.015561	-0.585205	-0.175293	-0.953857	0.080370	0.003992	0.053032	0.885395	0.058083	-0.453837	0.082059	2.793875	-54.408066	9.153891
37299		8.096855	0.434677	5.294090	0.364882	0.237268	-0.138704	-0.027178	0.054769	-0.018336	-0.583252	-0.175537	-0.960449	0.080983	0.004347	0.052918	0.885526	0.057937	-0.453618	0.081966	2.779853	-54.378120	9.148470
37300		8.149319	0.457836	5.250186	0.430150	0.274781	-0.121199	-0.035434	0.053945	-0.019548	-0.584473	-0.179932	-0.954346	0.081508	0.004580	0.052479	0.885658	0.057755	-0.453405	0.081840	2.762226	-54.348488	9.140738
37301		8.184047	0.476629	5.331965	0.386296	0.284724	-0.045121	-0.044377	0.055241	-0.016521	-0.590332	-0.178711	-0.954102	0.081856	0.004771	0.053296	0.885794	0.057529	-0.453191	0.081716	2.736902	-54.318323	9.137095
37302		8.263636	0.505646	5.335371	0.428800	0.323028	0.022013	-0.046664	0.060323	-0.019875	-0.582520	-0.177490	-0.962891	0.082653	0.005061	0.053328	0.885942	0.057301	-0.452955	0.081576	2.712964	-54.285207	9.130646
37303		8.288088	0.490842	5.415581	0.387768	0.300135	0.087888	-0.059623	0.064828	-0.021904	-0.582764	-0.177002	-0.953613	0.082899	0.004915	0.054127	0.886106	0.057016	-0.452703	0.081396	2.682858	-54.249412	9.122130
37304		8.300479	0.503429	5.410248	0.403007	0.318508	0.094800	-0.061638	0.075592	-0.020434	-0.581787	-0.175293	-0.952881	0.083026	0.005042	0.054070	0.886294	0.056715	-0.452404	0.081220	2.650255	-54.207399	9.115293
37305		8.287085	0.448663	5.442444	0.387536	0.261975	0.100862	-0.061522	0.080431	-0.026306	-0.572998	-0.173828	-0.958984	0.082893	0.004492	0.054390	0.886495	0.056424	-0.452083	0.081020	2.622015	-54.162563	9.103126
37306		8.233489	0.404988	5.483853	0.339894	0.210955	0.080086	-0.055502	0.086974	-0.020335	-0.588623	-0.180176	-0.957764	0.082359	0.004057	0.054802	0.886707	0.056144	-0.451731	0.080859	2.592494	-54.114028	9.096458
37307		8.140019	0.372030	5.533873	0.260035	0.165481	0.032467	-0.053383	0.079264	-0.016643	-0.580078	-0.174072	-0.955811	0.081422	0.003728	0.055305	0.886898	0.055869	-0.451414	0.080721	2.561352	-54.070116	9.093617
37308		8.116592	0.304476	5.534930	0.265204	0.100749	0.012114	-0.053909	0.068335	-0.020868	-0.569580	-0.167480	-0.960693	0.081185	0.003051	0.055321	0.887066	0.055608	-0.451145	0.080562	2.533922	-54.032492	9.086365
37309		8.110070	0.251629	5.523710	0.286117	0.053392	-0.001305	-0.042849	0.059133	-0.022884	-0.568848	-0.166016	-0.953613	0.081117	0.002519	0.055213	0.887211	0.055402	-0.450911	0.080414	2.514484	-53.999947	9.076516
37310		8.173408	0.267614	5.538568	0.312919	0.074404	0.058913	-0.030206	0.048757	-0.028311	-0.577637	-0.165283	-0.956055	0.081748	0.002673	0.055365	0.887334	0.055260	-0.450716	0.080251	2.507094	-53.973037	9.058773
37311		8.116477	0.337584	5.551782	0.260913	0.136708	0.022285	-0.030723	0.057929	-0.035577	-0.575684	-0.164795	-0.961914	0.081181	0.003370	0.055494	0.887478	0.055137	-0.450479	0.080074	2.504626	-53.940866	9.036521
37312		8.106896	0.337725	5.598376	0.224034	0.128536	0.041800	-0.010185	0.058590	-0.033641	-0.578125	-0.171631	-0.963623	0.081086	0.003366	0.055960	0.887618	0.055092	-0.450233	0.079933	2.512521	-53.908483	9.013799
37313		8.152757	0.443803	5.700184	0.155878	0.219856	0.141400	-0.009947	0.064262	-0.028791	-0.574219	-0.175049	-0.955811	0.081547	0.004429	0.056975	0.887768	0.055043	-0.449961	0.079834	2.516364	-53.872855	8.998450
37314		8.108829	0.456709	5.714386	0.123186	0.226383	0.114521	0.001810	0.071257	-0.027064	-0.577881	-0.171631	-0.961182	0.081109	0.004556	0.057115	0.887929	0.055041	-0.449654	0.079772	2.525606	-53.833309	8.985043
37315		8.131456	0.445484	5.795764	0.082122	0.203571	0.180396	0.021371	0.088878	-0.023298	-0.579102	-0.170898	-0.963867	0.081341	0.004439	0.057922	0.888123	0.055109	-0.449262	0.079775	2.542189	-53.783727	8.976126
37316		8.106438	0.443996	5.929197	-0.027532	0.177068	0.238915	0.024732	0.112929	-0.020130	-0.569336	-0.177490	-0.968506	0.081098	0.004424	0.059247	0.888369	0.055173	-0.448764	0.079801	2.557617	-53.720621	8.970528
37317		8.004844	0.311579	5.947764	-0.064533	0.034742	0.164542	0.025040	0.123247	-0.023790	-0.569824	-0.172363	-0.955566	0.080085	0.003099	0.059429	0.888638	0.055245	-0.448217	0.079819	2.575415	-53.651352	8.962698
37318		7.936429	0.187773	5.971541	-0.087884	-0.097606	0.120298	0.039332	0.112332	-0.024506	-0.575439	-0.171875	-0.965820	0.079398	0.001856	0.059671	0.888880	0.055388	-0.447712	0.079865	2.602608	-53.588229	8.953864
37319		7.838236	0.107993	6.005446	-0.146280	-0.191560	0.059338	0.034755	0.100393	-0.019886	-0.573975	-0.171143	-0.965576	0.078413	0.001062	0.060015	0.889094	0.055503	-0.447264	0.079916	2.623649	-53.532138	8.948909
37320		7.756780	0.083425	5.970863	-0.153358	-0.218814	-0.027270	0.054366	0.076993	-0.020851	-0.571045	-0.181396	-0.959717	0.077591	0.000810	0.059679	0.889250	0.055714	-0.446913	0.079992	2.657702	-53.489588	8.940856
37321		7.802138	0.131309	5.942130	-0.106705	-0.165704	-0.006533	0.073076	0.050446	-0.017051	-0.571045	-0.170410	-0.963379	0.078036	0.001285	0.059402	0.889340	0.056013	-0.446672	0.080127	2.700215	-53.462157	8.936497
37322		7.830675	0.246783	5.811821	-0.004530	-0.031234	-0.057862	0.083655	0.048840	-0.012630	-0.576416	-0.175293	-0.962158	0.078321	0.002439	0.058100	0.889421	0.056352	-0.446436	0.080307	2.745681	-53.435887	8.936456
37323		7.773255	0.341818	5.795611	-0.038704	0.055680	-0.110891	0.093583	0.051982	-0.004213	-0.570557	-0.176514	-0.963623	0.077748	0.003389	0.057937	0.889503	0.056712	-0.446184	0.080546	2.789922	-53.407928	8.944575
37324		7.708552	0.475917	5.765123	-0.073667	0.182757	-0.177021	0.096006	0.052167	-0.001328	-0.568848	-0.168213	-0.965576	0.077101	0.004731	0.057633	0.889583	0.057078	-0.445932	0.080800	2.833547	-53.380184	8.955059
37325		7.568741	0.540154	5.748349	-0.150757	0.232179	-0.297201	0.094008	0.042832	0.003156	-0.566650	-0.175781	-0.971191	0.075700	0.005376	0.057470	0.889641	0.057427	-0.445722	0.081070	2.872668	-53.357678	8.969867
37326		7.506000	0.612722	5.799881	-0.239112	0.285194	-0.314499	0.085973	0.024518	0.004577	-0.573975	-0.173584	-0.966064	0.075067	0.006104	0.057992	0.889662	0.057738	-0.445598	0.081304	2.906972	-53.345718	8.982704
37327		7.521972	0.611115	5.817101	-0.241704	0.278870	-0.291343	0.070370	0.000389	-0.001985	-0.567871	-0.179199	-0.960205	0.075220	0.006090	0.058173	0.889634	0.058011	-0.445585	0.081486	2.938141	-53.347360	8.990544
37328		7.628547	0.640397	5.790736	-0.165029	0.319166	-0.220589	0.054061	-0.021405	-0.001643	-0.572510	-0.177979	-0.967285	0.076279	0.006388	0.057917	0.889562	0.058218	-0.445677	0.081619	2.960827	-53.361686	8.996505
37329		7.739799	0.658122	5.648904	0.005118	0.369602	-0.215235	0.038700	-0.039631	-0.000708	-0.562500	-0.174805	-0.962402	0.077387	0.006570	0.056506	0.889454	0.058363	-0.445855	0.081725	2.974459	-53.386268	9.003584
37330		7.774590	0.728488	5.566568	0.071687	0.454668	-0.234078	0.030144	-0.050562	0.004404	-0.569092	-0.175537	-0.969971	0.077732	0.007278	0.055686	0.889322	0.058460	-0.446087	0.081819	2.979969	-53.417272	9.013402
37331		7.688131	0.737776	5.547802	0.027544	0.458357	-0.314323	0.011517	-0.069043	0.012383	-0.566895	-0.178955	-0.965820	0.076862	0.007379	0.055505	0.889151	0.058468	-0.446411	0.081913	2.969097	-53.459073	9.031592
37332		7.522745	0.787210	5.515915	-0.063071	0.497573	-0.464685	-0.010040	-0.100636	0.021577	-0.569580	-0.176758	-0.947998	0.075199	0.007883	0.055197	0.888912	0.058368	-0.446886	0.081979	2.940305	-53.519134	9.055354
37333		7.393722	0.740278	5.413176	-0.060845	0.459169	-0.631018	-0.024601	-0.140637	0.026749	-0.573486	-0.171387	-0.955322	0.073898	0.007419	0.054183	0.888585	0.058213	-0.447547	0.082035	2.900316	-53.602311	9.083984
37334		7.435604	0.744883	5.407036	-0.047766	0.470165	-0.600970	-0.039123	-0.176242	0.020757	-0.577148	-0.171631	-0.958740	0.074308	0.007467	0.054134	0.888184	0.058018	-0.448372	0.082012	2.858256	-53.706004	9.103795
37335		7.506044	0.756045	5.445434	-0.057458	0.482146	-0.521334	-0.055258	-0.208457	0.012617	-0.569092	-0.169434	-0.962158	0.075003	0.007580	0.054530	0.887717	0.057785	-0.449342	0.081918	2.814021	-53.827566	9.115837
37336		7.754695	0.843181	5.724929	-0.170452	0.541811	-0.153578	-0.054992	-0.214490	-0.007175	-0.577393	-0.181641	-0.958984	0.077486	0.008445	0.057330	0.887247	0.057591	-0.450333	0.081711	2.785894	-53.952073	9.105350
37337		8.000485	0.856076	5.800553	-0.111498	0.564105	0.089654	-0.099975	-0.225719	-0.024426	-0.583984	-0.169434	-0.956543	0.079940	0.008580	0.058091	0.886767	0.057251	-0.451386	0.081346	2.745597	-54.082481	9.080824
37338		8.201972	0.858995	5.952621	-0.138949	0.558031	0.341777	-0.092252	-0.244885	-0.052172	-0.578613	-0.173828	-0.962646	0.081949	0.008596	0.059623	0.886252	0.057015	-0.452512	0.080864	2.732944	-54.223198	9.027414
37339		8.254910	0.837130	6.066463	-0.218627	0.518967	0.450311	-0.117453	-0.246471	-0.077231	-0.580078	-0.167969	-0.955811	0.082477	0.008375	0.060761	0.885749	0.056725	-0.453647	0.080220	2.725555	-54.364051	8.950115
37340		8.287844	0.708653	6.015906	-0.159755	0.400340	0.443814	-0.109988	-0.268010	-0.101899	-0.590088	-0.163086	-0.955811	0.082801	0.007077	0.060266	0.885206	0.056526	-0.454865	0.079458	2.743874	-54.516367	8.844643
37341		8.447061	0.635279	6.251852	-0.270007	0.292980	0.707923	-0.057297	-0.301939	-0.129149	-0.590820	-0.170410	-0.949951	0.084380	0.006316	0.062644	0.884576	0.056641	-0.456205	0.078704	2.815825	-54.687481	8.712591
37342		8.509209	0.438529	6.396360	-0.341748	0.067594	0.835830	-0.065439	-0.298656	-0.156240	-0.591064	-0.166992	-0.950195	0.085000	0.004340	0.064089	0.883965	0.056772	-0.457527	0.077789	2.906435	-54.856042	8.549588
37343		8.565688	-0.024201	6.301338	-0.176349	-0.380751	0.812861	-0.046604	-0.317947	-0.173182	-0.589111	-0.172852	-0.939697	0.085556	-0.000301	0.063150	0.883308	0.057041	-0.458918	0.076860	3.023263	-55.034763	8.370754
37344		8.496697	-0.300647	6.150425	-0.076095	-0.650328	0.660283	-0.003989	-0.364698	-0.164331	-0.597900	-0.167480	-0.944336	0.084852	-0.003075	0.061659	0.882526	0.057493	-0.460500	0.076042	3.161469	-55.240281	8.194805
37345		8.307389	-0.503827	5.970586	-0.036597	-0.854337	0.394324	0.034110	-0.385192	-0.148758	-0.602295	-0.174316	-0.946045	0.082955	-0.005110	0.059865	0.881675	0.058087	-0.462161	0.075386	3.310916	-55.457771	8.033413
37346		7.975965	-0.486440	5.767473	-0.099390	-0.848596	0.004962	0.068286	-0.408894	-0.118628	-0.597900	-0.168213	-0.945313	0.079639	-0.004931	0.057836	0.880745	0.058766	-0.463920	0.074919	3.458355	-55.689653	7.896872
37347		7.579730	-0.343063	5.534126	-0.196489	-0.716961	-0.450863	0.100141	-0.432127	-0.083220	-0.608643	-0.174561	-0.940918	0.075676	-0.003490	0.055503	0.879733	0.059517	-0.465778	0.074690	3.596845	-55.935824	7.795352
37348		7.337464	-0.081188	5.550610	-0.432049	-0.499062	-0.635631	0.126643	-0.458547	-0.055556	-0.616699	-0.178711	-0.934082	0.073247	-0.000867	0.055674	0.878639	0.060318	-0.467747	0.074613	3.730456	-56.197788	7.715413
37349		7.277680	0.266577	5.661490	-0.659745	-0.198504	-0.614136	0.121297	-0.444586	-0.035829	-0.618164	-0.170654	-0.927734	0.072651	0.002618	0.056778	0.877565	0.061056	-0.469660	0.074638	3.844424	-56.452615	7.658534
37350		7.368943	0.559720	5.660226	-0.701801	0.081285	-0.530796	0.082765	-0.410158	-0.040569	-0.616943	-0.181396	-0.926270	0.073574	0.005559	0.056756	0.876581	0.061617	-0.471435	0.074547	3.939871	-56.687721	7.595978
37351		7.422982	0.894379	5.715840	-0.815262	0.390306	-0.444960	0.050272	-0.358167	-0.068160	-0.619141	-0.181152	-0.923340	0.074130	0.008904	0.057293	0.875736	0.062086	-0.472982	0.074289	4.038323	-56.891752	7.509309
37352		7.482740	1.180925	5.633008	-0.798021	0.678192	-0.430795	-0.020386	-0.303191	-0.117197	-0.626221	-0.173096	-0.922607	0.074749	0.011771	0.056442	0.875060	0.062343	-0.474296	0.073665	4.137471	-57.062068	7.373907
37353		7.530575	1.270061	5.603916	-0.788552	0.762398	-0.404001	-0.083499	-0.263663	-0.180887	-0.620361	-0.174805	-0.924316	0.075243	0.012656	0.056133	0.874517	0.062459	-0.475441	0.072626	4.254950	-57.207198	7.173673
37354		7.618840	1.280143	5.536044	-0.706842	0.777264	-0.366553	-0.146700	-0.254551	-0.258939	-0.628174	-0.180908	-0.918945	0.076134	0.012743	0.055448	0.874044	0.062465	-0.476544	0.071067	4.406807	-57.343347	6.886162
37355		7.547200	1.210494	5.468058	-0.692270	0.701237	-0.466342	-0.203582	-0.213529	-0.335348	-0.629150	-0.176270	-0.922363	0.075434	0.012034	0.054749	0.873707	0.062405	-0.477461	0.069082	4.592813	-57.452320	6.523503
37356		7.333326	1.112813	5.631954	-0.934648	0.547372	-0.562730	-0.252911	-0.161808	-0.409845	-0.636719	-0.183594	-0.928223	0.073310	0.011049	0.056365	0.873532	0.062283	-0.478143	0.066653	4.815704	-57.527396	6.082216
37357		7.111582	1.114828	5.958972	-1.329212	0.463110	-0.574425	-0.281024	-0.125711	-0.490898	-0.621582	-0.174316	-0.921143	0.071106	0.011058	0.059619	0.873470	0.062225	-0.478648	0.063830	5.093329	-57.576990	5.559030
37358		7.016131	0.985135	5.896346	-1.308759	0.321209	-0.694167	-0.306827	-0.124318	-0.574504	-0.630615	-0.181641	-0.920898	0.070153	0.009740	0.058992	0.873441	0.062245	-0.479123	0.060557	5.432949	-57.619463	4.942583
37359		7.243813	0.738397	5.641054	-0.937063	0.105980	-0.650256	-0.303084	-0.121850	-0.634070	-0.631348	-0.183105	-0.926514	0.072427	0.007240	0.056444	0.873422	0.062431	-0.479563	0.057056	5.828766	-57.655490	4.265002
37360		7.518802	0.460587	5.783384	-0.865216	-0.210916	-0.357589	-0.307020	-0.078552	-0.680149	-0.632324	-0.179443	-0.927979	0.075181	0.004439	0.057856	0.873512	0.062692	-0.479793	0.053341	6.261102	-57.661022	3.540101
37361		7.827900	0.099219	6.051711	-0.866977	-0.633450	0.023779	-0.318205	-0.039582	-0.687792	-0.632080	-0.178223	-0.928711	0.078270	0.000819	0.060531	0.873686	0.062917	-0.479849	0.049593	6.689231	-57.641393	2.814121
37362		8.308521	-0.291541	5.990303	-0.501039	-1.031132	0.369938	-0.320296	-0.034349	-0.661365	-0.627930	-0.173584	-0.924072	0.083065	-0.003094	0.059922	0.873858	0.063047	-0.479884	0.045918	7.091437	-57.617402	2.112334
37363		8.951350	-0.509155	5.833943	0.001127	-1.246542	0.811191	-0.242730	-0.068879	-0.604217	-0.623535	-0.176514	-0.932129	0.089478	-0.005291	0.058377	0.873896	0.063406	-0.480064	0.042705	7.489944	-57.614974	1.472354
37364		9.598554	-0.460797	5.761190	0.395949	-1.219569	1.317973	-0.155237	-0.088636	-0.531432	-0.628174	-0.181152	-0.927246	0.095947	-0.004818	0.057658	0.873840	0.063944	-0.480331	0.039956	7.875793	-57.626452	0.899133
37365		9.875997	-0.327675	5.652475	0.613126	-1.109750	1.500382	-0.087275	-0.055189	-0.453207	-0.622803	-0.184814	-0.924072	0.098737	-0.003476	0.056553	0.873817	0.064616	-0.480460	0.037781	8.226599	-57.623825	0.421156
37366		9.924773	0.046976	5.744366	0.513242	-0.790170	1.615925	-0.012816	-0.038354	-0.376937	-0.619385	-0.190430	-0.928223	0.099237	0.000286	0.057463	0.873795	0.065406	-0.480523	0.036086	8.549556	-57.616010	0.021868
37367		9.626555	0.523222	5.819486	0.230670	-0.362124	1.440149	-0.003858	-0.037375	-0.300695	-0.625977	-0.189209	-0.927246	0.096262	0.005089	0.058213	0.873753	0.066073	-0.480605	0.034782	8.809302	-57.613675	-0.291737
37368		9.437291	0.955579	5.628968	0.231765	0.069397	1.214656	-0.011600	-0.087718	-0.243570	-0.628906	-0.190430	-0.928467	0.094360	0.009444	0.056331	0.873585	0.066561	-0.480922	0.033664	9.020780	-57.643477	-0.557152
37369		9.228370	1.358753	5.531772	0.144197	0.465368	1.021155	-0.061316	-0.115882	-0.192275	-0.621826	-0.188721	-0.924072	0.092265	0.013516	0.055367	0.873351	0.066729	-0.481391	0.032670	9.162440	-57.694165	-0.769779
37370		8.983104	1.554075	5.374888	0.110442	0.672731	0.748370	-0.154849	-0.149136	-0.168177	-0.625488	-0.191895	-0.927490	0.089804	0.015507	0.053804	0.873067	0.066418	-0.482027	0.031512	9.234320	-57.765157	-0.967404
37371		8.928150	1.644560	5.308933	0.112874	0.768579	0.675293	-0.251352	-0.175029	-0.149892	-0.632324	-0.191650	-0.932129	0.089247	0.016445	0.053147	0.872744	0.065663	-0.482796	0.030226	9.238843	-57.852904	-1.146318
37372		8.888942	1.484145	5.184941	0.201941	0.630317	0.563319	-0.352792	-0.161583	-0.148008	-0.627197	-0.182373	-0.922852	0.088859	0.014867	0.051895	0.872487	0.064445	-0.483519	0.028679	9.182157	-57.932673	-1.324897
37373		8.770483	1.071723	5.039499	0.297414	0.251286	0.351707	-0.435991	-0.115479	-0.141798	-0.637939	-0.188721	-0.928223	0.087683	0.010765	0.050422	0.872360	0.062856	-0.484055	0.027001	9.065542	-57.987655	-1.485410
37374		8.634955	0.743206	4.943851	0.334389	-0.048253	0.159389	-0.467780	-0.078934	-0.132262	-0.636719	-0.179199	-0.929199	0.086335	0.007491	0.049455	0.872326	0.061088	-0.484434	0.025277	8.917098	-58.022672	-1.632573
37375		8.575570	0.397022	4.866566	0.399105	-0.367525	0.040592	-0.466534	-0.035660	-0.118281	-0.628662	-0.175781	-0.923584	0.085749	0.004033	0.048672	0.872388	0.059298	-0.484628	0.023651	8.750315	-58.034963	-1.754457
37376		8.475347	-0.020263	4.694873	0.528931	-0.744872	-0.167008	-0.426830	-0.011509	-0.092072	-0.639893	-0.177734	-0.920898	0.084751	-0.000141	0.046954	0.872491	0.057603	-0.484715	0.022222	8.579312	-58.035696	-1.847262
37377		8.325799	-0.284626	4.675739	0.489452	-0.989488	-0.323546	-0.340947	0.022161	-0.053027	-0.637207	-0.178223	-0.928955	0.083262	-0.002789	0.046753	0.872640	0.056195	-0.484656	0.021203	8.417281	-58.021124	-1.889927
37378		8.090284	-0.408681	4.652235	0.397227	-1.092890	-0.543880	-0.260396	0.054422	-0.003070	-0.636963	-0.166992	-0.929199	0.080915	-0.004027	0.046506	0.872839	0.055019	-0.484460	0.020610	8.252208	-57.992404	-1.873737
37379		7.974296	-0.526206	4.681404	0.325574	-1.197434	-0.634345	-0.191875	0.078913	0.043368	-0.637451	-0.162354	-0.928955	0.079763	-0.005200	0.046788	0.873071	0.054022	-0.484162	0.020388	8.080863	-57.953622	-1.804695
37380		8.031931	-0.520535	4.736417	0.315824	-1.185026	-0.554585	-0.111536	0.105507	0.088533	-0.628174	-0.167236	-0.932129	0.080347	-0.005143	0.047325	0.873341	0.053255	-0.483753	0.020549	7.911587	-57.903181	-1.685793
37381		8.045705	-0.483146	4.738331	0.328302	-1.133649	-0.537688	-0.059287	0.143934	0.127606	-0.625732	-0.157227	-0.937744	0.080494	-0.004766	0.047327	0.873685	0.052626	-0.483180	0.021033	7.732613	-57.833841	-1.517957
37382		8.176324	-0.444620	4.835827	0.324940	-1.092381	-0.371487	-0.011131	0.152091	0.166622	-0.629639	-0.158936	-0.927490	0.081804	-0.004375	0.048296	0.874033	0.052103	-0.482573	0.021790	7.545699	-57.762065	-1.310193
37383		8.327792	-0.351233	4.727797	0.500850	-0.972990	-0.292711	0.038493	0.136537	0.191149	-0.626465	-0.153809	-0.937256	0.083313	-0.003442	0.047220	0.874324	0.051749	-0.482037	0.022786	7.367901	-57.701084	-1.077238
37384		8.440213	-0.202041	4.649348	0.623212	-0.799764	-0.227990	0.054691	0.095500	0.225490	-0.632324	-0.161865	-0.938965	0.084427	-0.001938	0.046453	0.874508	0.051379	-0.481686	0.023947	7.173728	-57.665341	-0.815644
37385		8.499707	0.037102	4.629650	0.654883	-0.541604	-0.171224	0.075784	0.049750	0.250961	-0.621094	-0.159180	-0.937012	0.085008	0.000460	0.046276	0.874571	0.051053	-0.481540	0.025271	6.974434	-57.657099	-0.531779
37386		8.563682	0.432039	4.621513	0.658705	-0.128893	-0.095118	0.073760	-0.004404	0.265546	-0.634766	-0.158447	-0.937500	0.085630	0.004417	0.046219	0.874502	0.050689	-0.481630	0.026638	6.766595	-57.679817	-0.239614
37387		8.724935	0.829502	4.415030	0.872425	0.309280	-0.042926	0.071272	-0.086780	0.264311	-0.628418	-0.157227	-0.938232	0.087219	0.008395	0.044191	0.874232	0.050329	-0.482082	0.027976	6.566671	-57.749079	0.041774
37388		8.990703	1.054244	4.134389	1.212507	0.584180	0.047630	0.078204	-0.148298	0.250606	-0.629639	-0.161133	-0.935547	0.089863	0.010639	0.041415	0.873812	0.050040	-0.482797	0.029253	6.388170	-57.851855	0.302002
37389		9.074845	1.252169	3.946892	1.374905	0.820934	0.032836	0.061335	-0.177930	0.234563	-0.625000	-0.146973	-0.927490	0.090699	0.012616	0.039553	0.873325	0.049721	-0.483639	0.030413	6.216198	-57.970199	0.543068
37390		9.031335	1.177783	3.734909	1.514711	0.789062	-0.118117	0.029170	-0.213238	0.219284	-0.636719	-0.152344	-0.933350	0.090260	0.011871	0.037447	0.872761	0.049302	-0.484634	0.031417	6.041579	-58.107169	0.764762
37391		8.953284	1.033389	3.736962	1.459450	0.661747	-0.188443	0.009955	-0.276126	0.210500	-0.637207	-0.154297	-0.918945	0.089470	0.010426	0.037494	0.872048	0.048833	-0.485905	0.032324	5.868285	-58.279263	0.972004
37392		9.026568	0.924748	3.761630	1.456089	0.568295	-0.115230	-0.032653	-0.329823	0.202886	-0.640137	-0.155762	-0.921387	0.090194	0.009345	0.037764	0.871212	0.048205	-0.487413	0.033081	5.680574	-58.481235	1.167274
37393		9.088560	0.701373	3.713898	1.516382	0.369434	-0.094104	-0.062306	-0.354290	0.189491	-0.651367	-0.150635	-0.922607	0.090813	0.007111	0.037298	0.870323	0.047484	-0.489026	0.033701	5.488068	-58.696020	1.347637
37394		9.178311	0.530653	3.771492	1.495827	0.211346	0.008965	-0.092489	-0.338649	0.181985	-0.651855	-0.148682	-0.922852	0.091714	0.005407	0.037868	0.869477	0.046650	-0.490574	0.034222	5.281622	-58.901276	1.524324
37395		9.169851	0.252006	3.871723	1.401874	-0.059598	0.044848	-0.118177	-0.300324	0.165699	-0.655273	-0.145752	-0.922852	0.091638	0.002619	0.038853	0.868730	0.045735	-0.491953	0.034614	5.070042	-59.083361	1.688824
37396		9.209363	-0.026209	4.033825	1.282783	-0.336421	0.153556	-0.117199	-0.270636	0.158483	-0.656738	-0.135986	-0.917480	0.092039	-0.000165	0.040463	0.868054	0.044837	-0.493202	0.034983	4.861512	-59.247978	1.850105
37397		9.224264	-0.177993	4.238184	1.104415	-0.493481	0.267869	-0.096376	-0.235640	0.142311	-0.653809	-0.130859	-0.916992	0.092194	-0.001694	0.042491	0.867461	0.044062	-0.494288	0.035342	4.675719	-59.391409	1.998586
37398		9.205354	-0.354529	4.271241	1.061151	-0.657803	0.264462	-0.081221	-0.196822	0.134290	-0.663330	-0.144531	-0.924316	0.092014	-0.003466	0.042804	0.866960	0.043359	-0.495203	0.035701	4.501906	-59.512283	2.141535
37399		9.237945	-0.408100	4.080474	1.225822	-0.676356	0.197123	-0.016541	-0.180924	0.125079	-0.654053	-0.135742	-0.918213	0.092345	-0.004020	0.040889	0.866485	0.042963	-0.496032	0.036194	4.371801	-59.623253	2.278100
37400		9.202490	-0.416879	4.121513	1.156872	-0.678969	0.189668	0.011158	-0.127817	0.133000	-0.667236	-0.133057	-0.917480	0.092001	-0.004110	0.041274	0.866133	0.042659	-0.496628	0.036803	4.245081	-59.704158	2.429145
37401		9.073712	-0.518256	4.081153	1.123896	-0.767536	0.056678	0.049874	-0.121052	0.129633	-0.661133	-0.135498	-0.918945	0.090716	-0.005134	0.040865	0.865789	0.042529	-0.497186	0.037494	4.142636	-59.780812	2.577498
37402		9.015580	-0.362993	4.012726	1.122854	-0.598931	-0.020095	0.092284	-0.145491	0.120391	-0.664551	-0.135742	-0.926025	0.090129	-0.003594	0.040191	0.865376	0.042608	-0.497841	0.038242	4.074596	-59.871190	2.713680
37403		9.002017	-0.235679	3.956471	1.136064	-0.460141	-0.053429	0.097992	-0.136818	0.115044	-0.671387	-0.138428	-0.918213	0.089994	-0.002324	0.039625	0.864984	0.042725	-0.498454	0.038986	4.013983	-59.956070	2.845293
37404		8.941126	-0.133369	3.910509	1.120037	-0.349068	-0.123660	0.101072	-0.130832	0.110071	-0.666260	-0.137695	-0.920898	0.089386	-0.001304	0.039163	0.864606	0.042866	-0.499041	0.039719	3.959001	-60.037498	2.972410
37405		8.990554	-0.040908	3.881442	1.145256	-0.247204	-0.090311	0.081804	-0.142204	0.101749	-0.671631	-0.132324	-0.911865	0.089878	-0.000379	0.038878	0.864205	0.042947	-0.499676	0.040364	3.901622	-60.124804	3.089369
37406		9.126682	0.068550	3.828349	1.231681	-0.122844	0.006942	0.039145	-0.134532	0.092526	-0.669678	-0.135986	-0.908203	0.091241	0.000720	0.038345	0.863832	0.042865	-0.500287	0.040864	3.827805	-60.207627	3.197008
37407		9.091574	0.022969	3.769912	1.257119	-0.156060	-0.052320	0.012464	-0.100490	0.074255	-0.670166	-0.131592	-0.918701	0.090897	0.000261	0.037745	0.863554	0.042707	-0.500750	0.041226	3.754403	-60.269901	3.286474
37408		8.830827	-0.140989	3.835499	1.079331	-0.328490	-0.250179	0.025480	-0.104391	0.063133	-0.673096	-0.132324	-0.903564	0.088289	-0.001387	0.038401	0.863264	0.042634	-0.501227	0.041572	3.699379	-60.334323	3.363385
37409		8.772487	-0.227672	4.082878	0.833886	-0.442004	-0.180060	0.052300	-0.161521	0.045379	-0.670654	-0.130615	-0.902832	0.087692	-0.002268	0.040899	0.862830	0.042733	-0.501939	0.041896	3.681157	-60.430349	3.415504
37410		8.881026	-0.357318	4.213145	0.771681	-0.583015	-0.024150	0.073805	-0.208912	0.028246	-0.675537	-0.135254	-0.905762	0.088767	-0.003576	0.042223	0.862274	0.042977	-0.502849	0.042191	3.695252	-60.553312	3.444735
37411		9.010897	-0.443040	4.416653	0.649423	-0.691544	0.187280	0.108317	-0.205773	0.009505	-0.675049	-0.133301	-0.900879	0.090064	-0.004450	0.044257	0.861722	0.043417	-0.503731	0.042491	3.748134	-60.673319	3.451967
37412		9.022086	-0.343128	4.520777	0.533080	-0.611285	0.251870	0.160445	-0.210105	-0.003429	-0.677979	-0.128174	-0.899902	0.090173	-0.003469	0.045300	0.861148	0.044115	-0.504619	0.042870	3.844361	-60.795776	3.444102
37413		9.143013	-0.381168	4.712718	0.410098	-0.679663	0.449843	0.209074	-0.217359	-0.026957	-0.680664	-0.129395	-0.908447	0.091378	-0.003873	0.047222	0.860550	0.045083	-0.505520	0.043264	3.993847	-60.920990	3.406809
37414		9.013980	-0.391449	4.745321	0.300582	-0.713252	0.352154	0.267033	-0.212996	-0.042669	-0.684082	-0.138184	-0.894775	0.090088	-0.003997	0.047544	0.859949	0.046337	-0.506387	0.043737	4.192890	-61.043490	3.350487
37415		8.789727	-0.328170	4.853233	0.071298	-0.689783	0.209284	0.337705	-0.231248	-0.039998	-0.680176	-0.138916	-0.888428	0.087840	-0.003381	0.048628	0.859284	0.047893	-0.507313	0.044398	4.432560	-61.175950	3.294458
37416		8.660781	-0.211269	4.938333	-0.099714	-0.610781	0.140092	0.397245	-0.240876	-0.028030	-0.684570	-0.142578	-0.888184	0.086548	-0.002223	0.049483	0.858571	0.049678	-0.508271	0.045263	4.695622	-61.314838	3.251151
37417		8.472955	-0.167352	4.816872	-0.111701	-0.580771	-0.082767	0.459469	-0.270012	-0.010477	-0.694092	-0.159180	-0.878174	0.084664	-0.001789	0.048279	0.857762	0.051691	-0.509338	0.046349	4.980391	-61.470602	3.223369
37418		8.388329	-0.128199	4.893014	-0.247053	-0.580097	-0.121226	0.536061	-0.287746	0.030832	-0.700439	-0.155762	-0.889648	0.083813	-0.001400	0.049047	0.856868	0.053935	-0.510472	0.047812	5.268392	-61.639055	3.242903
37419		8.371994	-0.150410	5.107573	-0.461177	-0.658690	-0.037538	0.577783	-0.258283	0.069014	-0.694092	-0.158936	-0.875977	0.083654	-0.001623	0.051179	0.856024	0.056249	-0.511473	0.049542	5.538695	-61.792279	3.308613
37420		8.395618	-0.255383	5.364272	-0.676215	-0.824458	0.096398	0.609054	-0.187578	0.115092	-0.704346	-0.165283	-0.878174	0.083907	-0.002669	0.053713	0.855329	0.058562	-0.512174	0.051577	5.770764	-61.908427	3.438603
37421		8.400793	-0.287532	5.377969	-0.691650	-0.880882	0.103167	0.647412	-0.121938	0.161777	-0.699707	-0.163818	-0.874756	0.083978	-0.002982	0.053821	0.854772	0.060901	-0.512590	0.053921	5.968518	-61.989624	3.631581
37422		8.232947	-0.423849	5.421094	-0.789549	-1.046579	-0.033599	0.676634	-0.035997	0.219460	-0.700684	-0.167236	-0.872070	0.082324	-0.004332	0.054211	0.854398	0.063193	-0.512645	0.056619	6.110828	-62.026102	3.906769
37423		7.868558	-0.625350	5.157677	-0.694344	-1.227441	-0.489696	0.693596	0.003402	0.283575	-0.702148	-0.179443	-0.869385	0.078695	-0.006321	0.051554	0.854093	0.065381	-0.512537	0.059639	6.190002	-62.043819	4.263808
37424		7.423708	-0.612518	4.792494	-0.582504	-1.176475	-1.053052	0.737564	-0.027934	0.357256	-0.693115	-0.182861	-0.869385	0.074241	-0.006169	0.047913	0.853655	0.067578	-0.512568	0.063084	6.217766	-62.084551	4.708241
37425		6.929311	-0.243671	4.717603	-0.812334	-0.826775	-1.506843	0.777068	-0.052744	0.412305	-0.705566	-0.193848	-0.866943	0.069286	-0.002477	0.047185	0.853110	0.069807	-0.512700	0.066847	6.211775	-62.142421	5.215485
37426		6.581839	0.122205	4.693603	-1.024054	-0.484681	-1.807575	0.771558	-0.053458	0.459612	-0.704590	-0.190918	-0.863037	0.065803	0.001192	0.046958	0.852530	0.071897	-0.512843	0.070813	6.149802	-62.203750	5.784118
37427		6.464898	0.642479	4.624340	-1.127158	0.027542	-1.918325	0.765273	-0.066664	0.489010	-0.704102	-0.190430	-0.852539	0.064618	0.006406	0.046289	0.851893	0.073882	-0.513045	0.074865	6.053046	-62.273753	6.385712
37428		6.623947	1.354559	4.632235	-1.220633	0.726534	-1.741053	0.718407	-0.103135	0.506218	-0.705566	-0.198486	-0.853027	0.066181	0.013547	0.046405	0.851153	0.075638	-0.513417	0.078869	5.911996	-62.365417	7.007903
37429		7.128077	1.932383	4.756055	-1.241592	1.292356	-1.213162	0.620357	-0.132503	0.501244	-0.709717	-0.199463	-0.855713	0.071201	0.019355	0.047668	0.850364	0.076997	-0.513939	0.082573	5.721434	-62.472266	7.620663
37430		7.792327	2.459003	4.816110	-1.134550	1.837605	-0.577002	0.501465	-0.142019	0.474970	-0.714111	-0.197266	-0.848633	0.077831	0.024654	0.048278	0.849592	0.077927	-0.514535	0.085871	5.488789	-62.582357	8.205270
37431		8.432281	3.022069	4.927715	-1.098914	2.412226	0.061121	0.353927	-0.147063	0.412456	-0.717285	-0.202637	-0.844727	0.084224	0.030307	0.049393	0.848886	0.078386	-0.515185	0.088506	5.238266	-62.690508	8.712451
37432		9.190136	3.402066	4.981852	-0.923729	2.834308	0.768656	0.198077	-0.185354	0.316905	-0.720459	-0.197266	-0.841797	0.091801	0.034117	0.049937	0.848175	0.078451	-0.516028	0.090330	5.004668	-62.815150	9.101101
37433		9.865300	3.530285	4.840703	-0.561394	3.052760	1.304185	0.034883	-0.219278	0.212363	-0.719482	-0.185059	-0.844727	0.098562	0.035399	0.048521	0.847489	0.078104	-0.517043	0.091264	4.794810	-62.952843	9.356098
37434		10.220434	3.501191	4.733736	-0.332400	3.087223	1.566344	-0.111120	-0.212540	0.098583	-0.717285	-0.202148	-0.841797	0.102137	0.035089	0.047426	0.846925	0.077426	-0.518055	0.091340	4.625649	-63.081492	9.470892
37435		10.168783	3.239250	4.878585	-0.440003	2.806093	1.572817	-0.242104	-0.183641	-0.009376	-0.721436	-0.190674	-0.839600	0.101645	0.032447	0.048840	0.846536	0.076462	-0.518957	0.090631	4.499823	-63.188039	9.453220
37436		9.765126	2.959936	5.116158	-0.774467	2.458564	1.307098	-0.337052	-0.188340	-0.108305	-0.721924	-0.184082	-0.842285	0.097619	0.029633	0.051204	0.846211	0.075362	-0.519885	0.089263	4.432198	-63.293179	9.310669
37437		9.806724	2.512507	5.009200	-0.575516	2.051982	1.279415	-0.399726	-0.253999	-0.189142	-0.718994	-0.185059	-0.843018	0.098027	0.025133	0.050166	0.845773	0.074229	-0.521083	0.087357	4.426666	-63.431982	9.057421
37438		10.070195	2.258624	4.877412	-0.305292	1.846935	1.447639	-0.414944	-0.270418	-0.256230	-0.724365	-0.184326	-0.841797	0.100665	0.022559	0.048863	0.845321	0.073209	-0.522331	0.085114	4.492529	-63.577324	8.714155
37439		10.246436	2.072751	4.759802	-0.099824	1.692267	1.548110	-0.434521	-0.226158	-0.302743	-0.728027	-0.177490	-0.834717	0.102442	0.020676	0.047669	0.845004	0.072213	-0.523376	0.082646	4.598714	-63.694836	8.314572
37440		10.306564	1.782967	4.673506	0.053186	1.415809	1.555624	-0.409646	-0.195688	-0.355833	-0.721680	-0.176025	-0.836914	0.103051	0.017742	0.046799	0.844773	0.071444	-0.524263	0.080021	4.780443	-63.792362	7.846148
37441		10.277936	1.489698	4.490273	0.254554	1.143417	1.440999	-0.386669	-0.169260	-0.400660	-0.722656	-0.175537	-0.837646	0.102771	0.014778	0.044961	0.844614	0.070881	-0.525004	0.077283	5.026718	-63.871488	7.321699
37442		10.164584	1.259885	4.409825	0.318222	0.903423	1.297449	-0.374542	-0.122465	-0.414537	-0.728516	-0.190186	-0.839355	0.101645	0.012471	0.044137	0.844573	0.070382	-0.525537	0.074522	5.293702	-63.922326	6.780644
37443		9.885925	1.183333	4.368587	0.249529	0.797063	1.027917	-0.379279	-0.053516	-0.435155	-0.723145	-0.178711	-0.836426	0.098873	0.011701	0.043690	0.844715	0.069896	-0.525767	0.071697	5.575041	-63.931414	6.222297
37444		9.513472	1.113466	4.292152	0.174105	0.701185	0.658534	-0.390797	-0.024730	-0.451769	-0.731201	-0.180664	-0.837646	0.095154	0.011004	0.042912	0.844935	0.069398	-0.525870	0.068780	5.866938	-63.922100	5.645133
37445		9.242406	1.067330	4.300648	0.066079	0.618814	0.418122	-0.393295	0.003441	-0.466724	-0.726318	-0.177734	-0.843994	0.092449	0.010542	0.042984	0.845227	0.068915	-0.525843	0.065805	6.169742	-63.894336	5.053856
37446		8.967957	1.161652	4.371591	-0.122122	0.664614	0.208680	-0.390430	0.027156	-0.473055	-0.720459	-0.172607	-0.831299	0.089713	0.011490	0.043681	0.845575	0.068450	-0.525712	0.062807	6.478159	-63.851598	4.457002
37447		8.629798	1.341378	4.393156	-0.307135	0.804526	-0.074573	-0.403581	0.049638	-0.479021	-0.720459	-0.178467	-0.843506	0.086341	0.013296	0.043883	0.845981	0.067939	-0.525479	0.059767	6.780460	-63.793958	3.859285
37448		8.299675	1.480402	4.387339	-0.454956	0.913208	-0.363669	-0.409894	0.057021	-0.480528	-0.719727	-0.174316	-0.847412	0.083045	0.014694	0.043820	0.846400	0.067398	-0.525215	0.056692	7.078579	-63.730893	3.260381
37449		8.079166	1.607184	4.393290	-0.561755	1.013199	-0.549062	-0.397710	0.053706	-0.482746	-0.717041	-0.171387	-0.844238	0.080842	0.015964	0.043879	0.846799	0.066920	-0.524952	0.053652	7.383775	-63.667905	2.662551
37450		7.833658	1.809745	4.376173	-0.669844	1.193181	-0.761729	-0.417908	0.067194	-0.493585	-0.713867	-0.175049	-0.842773	0.078396	0.017995	0.043698	0.847235	0.066372	-0.524630	0.050498	7.686222	-63.595155	2.052354
37451		7.739536	1.856348	4.209242	-0.551792	1.248853	-0.913249	-0.459888	0.068801	-0.505236	-0.715088	-0.167969	-0.846191	0.077457	0.018465	0.042023	0.847683	0.065683	-0.524301	0.047203	7.974403	-63.519076	1.433001
37452		7.719943	1.897922	4.153744	-0.497754	1.283124	-0.949336	-0.504044	0.053179	-0.507357	-0.719727	-0.175049	-0.838867	0.077258	0.018888	0.041469	0.848094	0.064809	-0.524044	0.043760	8.240651	-63.450521	0.807467
37453		7.747554	1.961027	4.127396	-0.451131	1.336461	-0.929225	-0.575997	0.048654	-0.504090	-0.707275	-0.169189	-0.852783	0.077535	0.019534	0.041199	0.848504	0.063629	-0.523813	0.040158	8.459572	-63.383460	0.190416
37454		7.792893	1.909926	4.123258	-0.400249	1.276665	-0.891468	-0.643489	0.040588	-0.486105	-0.703857	-0.170898	-0.860107	0.077984	0.019042	0.041155	0.848897	0.062112	-0.523630	0.036437	8.620144	-63.321779	-0.406414
37455		7.998519	1.924430	4.176825	-0.337334	1.275966	-0.681221	-0.677496	0.041628	-0.462890	-0.710205	-0.170898	-0.855469	0.080038	0.019200	0.041687	0.849286	0.060393	-0.523445	0.032741	8.731956	-63.260689	-0.969345
