// General information: 
//  MT Manager version: 2019.2.0 
//  XDA version: 2019.2.0 build 3853 rev 94535 built on 2019-09-09
// Device information: 
//  DeviceId: 00B47795
//  ProductCode: MTW2-3A7G6
//  Firmware Version: 4.6.0
//  Hardware Version: 2.0.0
// Device settings: 
//  Filter Profile: human(46.1)
//  Option Flags: Orientation Smoother Disabled, AHS Disabled, ICC Disabled
// Coordinate system: ENU
PacketCounter	SampleTimeFine	Acc_X	Acc_Y	Acc_Z	FreeAcc_E	FreeAcc_N	FreeAcc_U	Gyr_X	Gyr_Y	Gyr_Z	Mag_X	Mag_Y	Mag_Z	VelInc_X	VelInc_Y	VelInc_Z	Quat_q0	Quat_q1	Quat_q2	Quat_q3	Roll	Pitch	Yaw
36899		9.346687	-0.184897	-2.639594	-1.895112	-0.479353	-0.297495	0.477223	1.523916	-0.696858	-0.880371	0.193359	0.333496	0.093255	-0.002110	-0.027112	0.254379	-0.653151	-0.355663	-0.618214	134.664825	-81.310251	96.601532
36900		9.287809	-0.012851	-2.484721	-1.790776	-0.557401	-0.383058	0.560959	1.491150	-0.687081	-0.883789	0.192627	0.329346	0.092688	-0.000376	-0.025540	0.256691	-0.646592	-0.357731	-0.622943	128.999176	-81.584067	102.652362
36901		9.254356	0.221160	-2.166214	-1.531508	-0.538276	-0.445327	0.623740	1.477109	-0.677013	-0.883057	0.189941	0.312744	0.092387	0.001968	-0.022338	0.259211	-0.639956	-0.359974	-0.627443	123.116949	-81.765540	108.958493
36902		9.090743	0.434862	-1.803625	-1.249617	-0.482642	-0.631852	0.659088	1.422786	-0.639945	-0.899170	0.188477	0.299561	0.090790	0.004119	-0.018669	0.261825	-0.633474	-0.362233	-0.631622	117.313330	-81.855882	115.199901
36903		8.815900	0.485468	-1.626791	-1.192280	-0.478498	-0.927279	0.507906	1.307938	-0.578626	-0.893799	0.184814	0.290283	0.088064	0.004642	-0.016832	0.263948	-0.627613	-0.363968	-0.635579	111.877683	-81.863029	120.984963
36904		8.805665	0.399918	-1.687995	-1.394270	-0.540364	-0.963284	0.360786	1.202602	-0.533987	-0.900146	0.181396	0.279053	0.087963	0.003795	-0.017402	0.265527	-0.622339	-0.365196	-0.639392	106.850777	-81.799615	126.268924
36905		8.900655	0.341926	-1.694538	-1.542140	-0.559942	-0.895436	0.388572	1.114663	-0.471369	-0.908447	0.171875	0.273682	0.088918	0.003243	-0.017435	0.267238	-0.617387	-0.366438	-0.642759	102.349197	-81.695986	131.042717
36906		9.119475	0.540223	-1.430312	-1.328511	-0.498971	-0.675524	0.457890	1.031904	-0.398980	-0.909424	0.177490	0.251465	0.091130	0.005254	-0.014761	0.269214	-0.612729	-0.367755	-0.645634	98.382841	-81.574368	135.313246
36907		9.176000	1.076737	-1.059282	-0.759121	-0.562435	-0.561353	0.442709	0.951455	-0.333445	-0.913330	0.170654	0.245850	0.091726	0.010638	-0.011006	0.271219	-0.608440	-0.368940	-0.648170	94.871315	-81.444450	139.120325
36908		9.148925	1.356292	-0.743167	-0.412219	-0.521025	-0.557810	0.281771	0.861438	-0.283116	-0.908691	0.170654	0.243896	0.091475	0.013444	-0.007807	0.272708	-0.604747	-0.369546	-0.650652	91.731532	-81.307989	142.456481
36909		9.062505	1.266232	-0.551412	-0.421047	-0.365203	-0.662532	0.067830	0.736277	-0.236926	-0.921143	0.167236	0.241699	0.090619	0.012557	-0.005843	0.273479	-0.601818	-0.369497	-0.653067	89.038853	-81.172240	145.220456
36910		9.011233	0.956353	-0.644591	-0.767375	-0.303724	-0.765530	-0.080697	0.586021	-0.174095	-0.921631	0.169678	0.230713	0.090101	0.009482	-0.006714	0.273707	-0.599702	-0.368954	-0.655221	86.880227	-81.057833	147.354856
36911		8.980176	0.658305	-0.875420	-1.174787	-0.351765	-0.849470	-0.137366	0.441576	-0.100069	-0.923828	0.164795	0.232910	0.089785	0.006532	-0.008957	0.273760	-0.598259	-0.368219	-0.656929	85.242577	-80.980595	148.933354
36912		9.017692	0.482474	-0.937742	-1.382870	-0.321505	-0.845238	-0.126305	0.319852	-0.030203	-0.933838	0.166992	0.227295	0.090162	0.004805	-0.009525	0.273831	-0.597337	-0.367457	-0.658165	84.045759	-80.943641	150.068510
36913		9.114637	0.537467	-0.919992	-1.356556	-0.350741	-0.743588	-0.082861	0.213884	0.036879	-0.921143	0.162354	0.226563	0.091135	0.005388	-0.009300	0.274076	-0.596815	-0.366801	-0.658901	83.233148	-80.948503	150.843505
36914		9.259780	0.683497	-0.856751	-1.226935	-0.388276	-0.577506	-0.030003	0.107115	0.099548	-0.917725	0.163086	0.227051	0.092590	0.006880	-0.008618	0.274470	-0.596698	-0.366259	-0.659145	82.802229	-80.995127	151.258975
36915		9.230063	0.834579	-0.680340	-0.991703	-0.345404	-0.579560	0.005177	-0.016671	0.164017	-0.909180	0.166748	0.230225	0.092294	0.008422	-0.006795	0.274974	-0.597047	-0.365830	-0.658857	82.804884	-81.087028	151.259496
36916		9.043682	0.579291	-0.622098	-1.117082	-0.166326	-0.799632	-0.112826	-0.185470	0.231124	-0.914307	0.164307	0.223877	0.090436	0.005894	-0.006140	0.275015	-0.598249	-0.365022	-0.658197	83.329461	-81.228802	150.659389
36917		8.890051	-0.034720	-0.970384	-1.760107	-0.094556	-1.045202	-0.239097	-0.367657	0.289838	-0.920410	0.173828	0.228027	0.088919	-0.000230	-0.009540	0.274561	-0.600317	-0.363893	-0.657129	84.463437	-81.413764	149.373908
36918		9.002988	-0.600442	-1.487423	-2.488230	-0.155526	-1.014333	-0.095705	-0.492565	0.323962	-0.922119	0.176758	0.241211	0.090076	-0.005866	-0.014650	0.274401	-0.602665	-0.363282	-0.655381	86.207319	-81.619194	147.552132
36919		9.191018	-0.535741	-1.688415	-2.527861	-0.319829	-0.806029	0.262568	-0.542805	0.316629	-0.910645	0.174805	0.243896	0.091964	-0.005190	-0.016641	0.275222	-0.604657	-0.363952	-0.652826	88.447416	-81.812249	145.440653
36920		9.449560	0.132161	-1.505271	-1.861067	-0.519078	-0.440166	0.508633	-0.531782	0.285695	-0.907959	0.177979	0.242920	0.094533	0.001494	-0.014798	0.276680	-0.606222	-0.365476	-0.649900	90.885185	-81.975101	143.268961
36921		9.515719	0.916582	-1.302028	-1.063324	-0.779694	-0.255209	0.575819	-0.503976	0.257735	-0.905273	0.173096	0.249512	0.095178	0.009325	-0.012754	0.278319	-0.607531	-0.367281	-0.646954	93.331242	-82.109218	141.132459
36922		9.581271	1.355430	-1.090781	-0.537297	-0.827202	-0.124836	0.454674	-0.522073	0.261570	-0.902832	0.179199	0.253418	0.095823	0.013704	-0.010627	0.279544	-0.609077	-0.368681	-0.644170	95.860679	-82.231876	138.838607
36923		9.530810	1.287939	-1.201138	-0.593946	-0.853150	-0.176460	0.252733	-0.568747	0.282436	-0.900391	0.192139	0.256836	0.095323	0.013029	-0.011724	0.280153	-0.611074	-0.369448	-0.641569	98.555135	-82.348562	136.265911
36924		9.483192	0.964129	-1.495458	-0.964164	-0.882372	-0.252964	0.148657	-0.601514	0.307172	-0.911621	0.182617	0.249268	0.094861	0.009798	-0.014662	0.280439	-0.613373	-0.369827	-0.639026	101.426503	-82.459175	133.451650
36925		9.479651	0.865587	-1.713726	-1.109661	-0.975062	-0.254058	0.148676	-0.601730	0.348197	-0.913574	0.192139	0.266113	0.094832	0.008834	-0.016845	0.280872	-0.615729	-0.370097	-0.636410	104.419113	-82.573422	130.519462
36926		9.529482	0.897532	-1.623776	-0.972963	-0.888049	-0.194084	0.133179	-0.583231	0.397098	-0.901855	0.197754	0.268555	0.095324	0.009175	-0.015954	0.281428	-0.618140	-0.370119	-0.633808	107.475672	-82.697297	127.511714
36927		9.736677	1.032590	-1.538661	-0.765340	-0.849709	0.032537	0.075427	-0.573247	0.402547	-0.896240	0.203369	0.277344	0.097389	0.010528	-0.015104	0.281854	-0.620593	-0.369939	-0.631322	110.558461	-82.805118	124.447868
36928		9.865204	1.119498	-1.329467	-0.519351	-0.690941	0.167067	0.007034	-0.554351	0.396011	-0.899414	0.204102	0.279053	0.098666	0.011391	-0.013021	0.282062	-0.623075	-0.369516	-0.629029	113.596927	-82.892765	121.386782
36929		10.035479	0.953584	-0.489066	-0.118779	0.128758	0.278313	-0.148679	-0.533465	0.417455	-0.889404	0.207031	0.283936	0.100347	0.009742	-0.004630	0.281904	-0.625730	-0.368519	-0.627045	116.568141	-82.976529	118.307210
36930		10.044392	0.384509	-1.200177	-0.927305	-0.106664	0.267313	-0.244290	-0.544957	0.489293	-0.888428	0.208984	0.294678	0.100466	0.004076	-0.011733	0.281631	-0.628693	-0.366992	-0.625097	119.765979	-83.072960	114.941747
36931		9.905199	0.530744	-2.190598	-1.305462	-0.993548	0.212359	0.340442	-0.514809	0.431303	-0.893066	0.212891	0.285156	0.099096	0.005558	-0.021642	0.283082	-0.630610	-0.367444	-0.622238	123.107531	-83.126627	111.772512
36932		10.029978	1.557934	-1.156960	0.183862	-0.707957	0.377059	0.782117	-0.284172	0.246709	-0.888916	0.224854	0.290771	0.100297	0.015748	-0.011366	0.285755	-0.630847	-0.369503	-0.619551	125.338329	-83.148502	109.974310
36933		10.052540	2.659976	-0.067478	1.742848	-0.421053	0.430298	0.443396	-0.089952	0.072333	-0.879150	0.228760	0.291504	0.100516	0.026637	-0.000571	0.287191	-0.630625	-0.370797	-0.618339	126.141376	-83.148676	109.421565
36934		10.091328	2.872664	-0.017360	1.957738	-0.487893	0.483750	0.078685	-0.024017	0.066271	-0.883057	0.229736	0.287598	0.100904	0.028760	-0.000150	0.287566	-0.630720	-0.370874	-0.618022	126.468411	-83.167658	109.135424
36935		10.243058	2.150806	-0.207204	1.263023	-0.224094	0.576906	-0.022698	-0.078614	0.163800	-0.886230	0.219971	0.293701	0.102414	0.021592	-0.002034	0.287835	-0.631299	-0.370421	-0.617576	127.227348	-83.212392	108.358200
36936		10.502808	1.471611	-0.122070	0.764070	0.251531	0.762869	0.019419	-0.096313	0.223577	-0.884766	0.219727	0.289063	0.105012	0.014834	-0.001169	0.288374	-0.631993	-0.369922	-0.616914	128.269880	-83.276388	107.317370
36937		11.114617	1.452506	0.419044	1.051886	0.762173	1.328797	0.166043	0.120473	0.202458	-0.884277	0.229004	0.294189	0.111134	0.014634	0.004136	0.289726	-0.631756	-0.369642	-0.616691	128.516723	-83.406822	107.164836
36938		11.346621	2.136944	0.558417	1.689694	0.493674	1.612079	0.401774	0.337498	0.132772	-0.896729	0.231201	0.287842	0.113461	0.021434	0.005436	0.291992	-0.630388	-0.369978	-0.616821	127.826463	-83.582641	108.088796
36939		11.000942	2.788605	0.446584	2.165418	-0.027372	1.336599	0.415864	0.419265	0.034656	-0.889648	0.234375	0.283936	0.110014	0.027896	0.004293	0.294164	-0.628550	-0.370559	-0.617316	126.447191	-83.740156	109.716490
36940		10.200894	2.456970	-0.196086	1.542004	-0.485079	0.556508	0.202501	0.370631	-0.028618	-0.894775	0.235352	0.281494	0.102009	0.024557	-0.002125	0.295364	-0.627064	-0.370736	-0.618148	124.889988	-83.847174	111.397230
36941		9.499724	1.836832	-0.747294	0.732293	-0.691323	-0.160592	0.276431	0.265516	-0.016062	-0.895264	0.238770	0.280273	0.094989	0.018371	-0.007574	0.296652	-0.625804	-0.371269	-0.618487	123.827731	-83.922077	112.625057
36942		9.039738	1.927921	-0.503890	0.954392	-0.597182	-0.624644	0.494268	0.218126	0.002897	-0.895264	0.239746	0.263672	0.090392	0.019293	-0.005090	0.298577	-0.624410	-0.372471	-0.618247	123.137398	-83.988879	113.601638
36943		8.873748	2.464428	0.002940	1.683407	-0.491363	-0.771586	0.496862	0.244494	0.007459	-0.893066	0.246338	0.268311	0.088737	0.024648	-0.000018	0.300585	-0.622925	-0.373639	-0.618068	122.318769	-84.064853	114.711172
36944		8.908533	2.961674	0.273596	2.239415	-0.540398	-0.707672	0.281772	0.262045	0.016121	-0.889404	0.238037	0.258301	0.089086	0.029620	0.002661	0.301971	-0.621728	-0.374078	-0.618332	121.294225	-84.148288	115.901939
36945		9.154654	3.053076	0.350916	2.338844	-0.519061	-0.457878	-0.054946	0.232614	0.049794	-0.891602	0.239258	0.272949	0.091543	0.030554	0.003394	0.302369	-0.621185	-0.373423	-0.619079	120.282594	-84.237664	116.887345
36946		9.357170	2.799719	0.283441	2.074237	-0.447356	-0.274725	-0.458113	0.167250	0.133769	-0.895996	0.241943	0.263672	0.093555	0.028066	0.002692	0.301637	-0.621616	-0.371345	-0.620251	119.575371	-84.348281	117.332103
36947		9.449719	2.063368	0.159133	1.387982	-0.176674	-0.240740	-0.784504	0.096414	0.250191	-0.889648	0.246338	0.267090	0.094472	0.020758	0.001465	0.300131	-0.622960	-0.368007	-0.621622	119.358420	-84.496910	117.098661
36948		9.283111	1.252878	0.049391	0.672972	0.129101	-0.470385	-0.961577	0.057683	0.357433	-0.898682	0.239258	0.268555	0.092809	0.012697	0.000406	0.298315	-0.624881	-0.363824	-0.623028	119.571201	-84.687827	116.329500
36949		9.068176	0.439670	0.047648	0.031276	0.532239	-0.749409	-1.008364	0.048127	0.422246	-0.890137	0.243164	0.264160	0.090672	0.004590	0.000432	0.296542	-0.626995	-0.359308	-0.624370	120.054718	-84.908103	115.264046
36950		9.061754	-0.326000	-0.009799	-0.600856	0.892440	-0.809124	-0.971912	0.046591	0.429298	-0.888428	0.241943	0.266846	0.090624	-0.003066	-0.000104	0.294881	-0.629061	-0.354864	-0.625618	120.662845	-85.130201	114.092618
36951		9.257667	-1.021653	-0.193598	-1.251079	1.137566	-0.651558	-0.840768	0.065419	0.389612	-0.892578	0.239746	0.266602	0.092596	-0.010044	-0.001924	0.293549	-0.630782	-0.350930	-0.626731	121.173528	-85.337621	113.096969
36952		9.406408	-1.686182	-0.435593	-1.910850	1.321419	-0.532822	-0.585405	0.135981	0.331446	-0.886719	0.246338	0.278809	0.094089	-0.016719	-0.004371	0.292944	-0.631801	-0.347859	-0.627698	121.238473	-85.536832	112.693343
36953		9.358588	-2.045438	-0.838536	-2.422766	1.180327	-0.581919	-0.141780	0.233625	0.260354	-0.887451	0.249756	0.268555	0.093603	-0.020339	-0.008480	0.293700	-0.631729	-0.346270	-0.628297	120.661074	-85.730251	113.191152
36954		9.379763	-1.572106	-1.143788	-2.221047	0.622000	-0.515396	0.454398	0.334478	0.171133	-0.885742	0.244385	0.264404	0.093792	-0.015615	-0.011630	0.296215	-0.630314	-0.346671	-0.628315	119.325786	-85.907503	114.788554
36955		9.835959	-0.426234	-0.959479	-1.209915	0.087883	0.004469	0.897143	0.417333	0.045324	-0.891113	0.255615	0.265625	0.098340	-0.004196	-0.009819	0.299885	-0.627746	-0.348746	-0.627997	117.024206	-86.039992	117.611321
36956		10.494393	0.762081	-0.693356	-0.128045	-0.379642	0.724539	1.005932	0.467865	-0.050444	-0.890381	0.255127	0.249023	0.104929	0.007630	-0.007141	0.303659	-0.624682	-0.351363	-0.627780	113.893041	-86.125759	121.324939
36957		10.932494	1.281703	-0.589374	0.319596	-0.596892	1.189631	0.950254	0.459465	-0.060340	-0.891357	0.255859	0.244141	0.109315	0.012813	-0.006084	0.307221	-0.621684	-0.353853	-0.627625	110.624307	-86.190225	125.146912
36958		10.801869	1.397650	-0.812539	0.278581	-0.883325	1.070146	0.893830	0.395714	0.015413	-0.896973	0.250000	0.238770	0.108001	0.014022	-0.008276	0.310711	-0.619097	-0.356008	-0.627245	107.947792	-86.270141	128.340457
36959		10.553099	1.773364	-1.032816	0.475508	-1.315994	0.846647	0.897729	0.355690	0.093023	-0.893799	0.255127	0.227539	0.105504	0.017829	-0.010436	0.314391	-0.616747	-0.358000	-0.626592	105.681444	-86.376934	131.127098
36960		10.257989	2.291781	-0.612669	1.156556	-1.287749	0.572783	0.827285	0.346448	0.137316	-0.896484	0.254395	0.237061	0.102553	0.023014	-0.006209	0.317956	-0.614609	-0.359630	-0.625960	103.406969	-86.499666	133.878880
36961		9.974193	2.702326	0.084776	1.895319	-0.959140	0.300772	0.583965	0.354185	0.159444	-0.899902	0.264648	0.219971	0.099722	0.027100	0.000750	0.320865	-0.612856	-0.360424	-0.625738	100.776133	-86.628428	136.849839
36962		9.783890	2.977995	0.867735	2.557127	-0.479476	0.115910	0.235487	0.314920	0.190009	-0.897217	0.269531	0.225830	0.097824	0.029863	0.008558	0.322712	-0.611844	-0.360082	-0.625975	98.166967	-86.762284	139.596208
36963		9.779584	2.983952	1.749842	3.037472	0.230439	0.103295	-0.148954	0.235517	0.245886	-0.895264	0.264648	0.230713	0.097780	0.029973	0.017361	0.323429	-0.611790	-0.358504	-0.626563	95.999039	-86.915760	141.682161
36964		9.843474	2.362963	2.476017	2.915968	1.136939	0.127761	-0.547617	0.108237	0.329720	-0.895752	0.276855	0.219971	0.098409	0.023859	0.024642	0.322941	-0.612934	-0.355610	-0.627345	94.880200	-87.106487	142.485586
36965		9.702411	1.304523	2.860532	2.276848	1.983552	-0.070905	-0.868615	-0.035264	0.412614	-0.892334	0.270752	0.226074	0.096992	0.013369	0.028565	0.321487	-0.615175	-0.351695	-0.628105	95.261641	-87.337251	141.605631
36966		9.610948	0.164511	2.782522	1.342215	2.503645	-0.217397	-0.963866	-0.158905	0.456739	-0.888428	0.281494	0.225098	0.096083	0.001999	0.027893	0.319637	-0.618026	-0.347523	-0.628573	97.438284	-87.584081	138.871694
36967		9.470635	-0.603899	2.634355	0.693444	2.782521	-0.390706	-0.872884	-0.240541	0.440472	-0.892822	0.277344	0.228027	0.094687	-0.005715	0.026483	0.317882	-0.620936	-0.343820	-0.628631	101.378783	-87.807640	134.427687
36968		9.342780	-1.072491	2.203846	0.133583	2.679066	-0.533725	-0.732560	-0.278305	0.395830	-0.889893	0.265137	0.229980	0.093418	-0.010459	0.022207	0.316336	-0.623657	-0.340736	-0.628396	106.698528	-87.985861	128.682052
36969		9.239424	-1.174970	1.501453	-0.290704	2.158442	-0.633457	-0.495494	-0.297844	0.342964	-0.887451	0.273926	0.243652	0.092392	-0.011554	0.015181	0.315340	-0.625959	-0.338600	-0.627763	113.112563	-88.109474	121.980441
36970		9.216948	-0.842332	0.765383	-0.393110	1.371075	-0.635926	-0.195043	-0.305545	0.297317	-0.889893	0.279053	0.241699	0.092170	-0.008279	0.007803	0.315105	-0.627737	-0.337541	-0.626674	120.200117	-88.179929	114.774103
36971		9.324699	-0.271733	0.370562	-0.116056	0.732250	-0.506162	0.057163	-0.293259	0.264009	-0.881836	0.281250	0.242920	0.093245	-0.002595	0.003842	0.315597	-0.629012	-0.337375	-0.625237	127.336292	-88.208976	107.667359
36972		9.428986	0.304381	0.057794	0.210241	0.157379	-0.382275	0.188829	-0.268942	0.255158	-0.890625	0.287109	0.240479	0.094285	0.003163	0.000708	0.316497	-0.629993	-0.337590	-0.623676	134.225450	-88.215799	100.880034
36973		9.434515	0.587511	-0.712603	0.036806	-0.628414	-0.354004	0.306620	-0.256919	0.252542	-0.881592	0.279297	0.250000	0.094347	0.006005	-0.006996	0.317796	-0.630735	-0.338177	-0.621945	140.969765	-88.201382	94.308392
36974		9.390941	0.574252	-1.361086	-0.305996	-1.149228	-0.380953	0.439583	-0.244080	0.255897	-0.875488	0.290771	0.246582	0.093918	0.005892	-0.013483	0.319527	-0.631235	-0.339128	-0.620030	147.517136	-88.170504	88.006688
36975		9.239886	0.390373	-2.040619	-0.802366	-1.608161	-0.514198	0.626216	-0.211086	0.240703	-0.872803	0.295654	0.245117	0.092415	0.004079	-0.020296	0.321870	-0.631295	-0.340666	-0.617910	153.393981	-88.130234	82.485965
36976		9.170908	0.372483	-2.337484	-0.942062	-1.850364	-0.571657	0.858767	-0.151217	0.222853	-0.877686	0.295898	0.244141	0.091722	0.003927	-0.023289	0.324973	-0.630761	-0.342862	-0.615612	158.444397	-88.100461	77.922460
36977		9.286785	0.173740	-2.187554	-0.981930	-1.622578	-0.460529	0.972519	-0.095090	0.222226	-0.869385	0.303223	0.246582	0.092876	0.001947	-0.021822	0.328538	-0.629848	-0.345327	-0.613273	163.094869	-88.088254	73.827134
36978		9.724976	-0.350027	-2.315218	-1.445140	-1.447972	-0.021228	1.119721	-0.071523	0.231205	-0.875488	0.309326	0.236328	0.097262	-0.003258	-0.023136	0.332609	-0.628626	-0.348151	-0.610730	167.805630	-88.079357	69.753038
36979		10.391338	-0.836716	-2.512474	-1.910953	-1.361377	0.650924	1.428842	-0.049632	0.195442	-0.872803	0.321045	0.239502	0.103928	-0.008086	-0.025157	0.337582	-0.626726	-0.351995	-0.607743	171.979940	-88.068668	66.395696
36980		10.936494	-1.060079	-2.168599	-1.874435	-0.975709	1.185844	1.811810	0.033028	0.138426	-0.872803	0.314453	0.239014	0.109369	-0.010328	-0.021798	0.343693	-0.623793	-0.357007	-0.604404	175.227819	-88.094081	64.182651
36981		10.777226	-0.762786	-1.484686	-1.246033	-0.591175	1.005465	2.024295	0.161074	0.106586	-0.876953	0.320557	0.225830	0.107764	-0.007419	-0.015009	0.350579	-0.619986	-0.362519	-0.601076	178.016279	-88.187773	62.553366
36982		10.266816	-0.504779	-0.650222	-0.607571	-0.051965	0.469000	2.061208	0.259155	0.109400	-0.870605	0.326660	0.211670	0.102662	-0.004923	-0.006686	0.357712	-0.615769	-0.367908	-0.597925	-178.870939	-88.334681	60.617977
36983		9.830716	-0.026961	0.341694	0.273562	0.549170	0.004846	2.079602	0.278768	0.118071	-0.873291	0.333496	0.217285	0.098312	-0.000246	0.003277	0.364941	-0.611400	-0.373264	-0.594712	-175.040582	-88.488892	57.978331
36984		9.622784	0.457332	1.364464	1.154514	1.218585	-0.228794	1.773993	0.216633	0.134647	-0.871826	0.333496	0.196533	0.096240	0.004517	0.013581	0.371119	-0.607755	-0.377725	-0.591801	-170.519803	-88.600750	54.470208
36985		9.654284	0.636293	1.851996	1.515994	1.575958	-0.207582	1.319317	0.135511	0.146794	-0.872803	0.333984	0.196289	0.096551	0.006312	0.018496	0.375790	-0.605170	-0.380945	-0.589434	-165.786116	-88.658236	50.491493
36986		9.826498	0.743222	1.967925	1.657347	1.641569	-0.038045	0.947126	0.032071	0.136484	-0.871826	0.344482	0.181641	0.098263	0.007406	0.019699	0.379080	-0.603558	-0.383266	-0.587472	-161.966732	-88.653142	47.211126
36987		9.953518	0.508778	1.877762	1.410618	1.667060	0.091272	0.548299	-0.069635	0.141338	-0.871094	0.343750	0.190674	0.099525	0.005107	0.018826	0.380995	-0.602991	-0.384603	-0.585940	-159.167414	-88.587712	44.725437
36988		9.947377	-0.042203	1.492257	0.762765	1.552071	0.096306	0.158696	-0.153946	0.170954	-0.877930	0.348877	0.183594	0.099463	-0.000349	0.014999	0.381644	-0.603476	-0.384853	-0.584853	-156.954076	-88.468706	42.599737
36989		10.062023	-0.532914	1.068901	0.166316	1.381021	0.224041	-0.031677	-0.210223	0.191050	-0.867920	0.347412	0.191650	0.100614	-0.005231	0.010796	0.381682	-0.604518	-0.384606	-0.583913	-155.263204	-88.313635	40.890240
36990		10.121218	-0.760380	0.976839	-0.050271	1.405008	0.286560	-0.077601	-0.229849	0.194188	-0.867432	0.343262	0.192139	0.101208	-0.007502	0.009888	0.381537	-0.605718	-0.384237	-0.583006	-153.989217	-88.146657	39.568372
36991		10.169185	-0.855101	1.132630	-0.044518	1.600587	0.329425	-0.096363	-0.210353	0.161390	-0.868408	0.352783	0.200684	0.101687	-0.008463	0.011437	0.381292	-0.606824	-0.383890	-0.582245	-153.272295	-87.997151	38.795997
36992		9.994599	-0.888785	1.267841	-0.001158	1.746283	0.149231	-0.094502	-0.181044	0.132984	-0.874268	0.361084	0.197266	0.099940	-0.008815	0.012773	0.381007	-0.607797	-0.383559	-0.581635	-152.838433	-87.869989	38.304240
36993		9.777476	-0.811993	1.181832	0.045630	1.643449	-0.068353	-0.079662	-0.183752	0.101188	-0.870605	0.356689	0.200928	0.097768	-0.008066	0.011911	0.380687	-0.608676	-0.383392	-0.581035	-152.877949	-87.749449	38.298303
36994		9.614502	-0.732950	1.005867	0.056314	1.461930	-0.228994	-0.070857	-0.232208	0.077343	-0.868896	0.352051	0.205811	0.096136	-0.007289	0.010173	0.380215	-0.609643	-0.383395	-0.580328	-153.502448	-87.610610	38.879393
36995		9.505626	-0.500385	0.762822	0.179694	1.161247	-0.335960	0.001290	-0.282784	0.069509	-0.869629	0.350586	0.205322	0.095047	-0.004971	0.007763	0.379859	-0.610593	-0.383746	-0.579330	-154.398275	-87.447085	39.776986
36996		9.376761	-0.327595	0.551716	0.262342	0.918036	-0.462625	0.056016	-0.341424	0.072820	-0.861816	0.355713	0.208984	0.093759	-0.003243	0.005676	0.379546	-0.611625	-0.384333	-0.578055	-155.411380	-87.252080	40.819434
36997		9.345279	-0.331513	0.357359	0.197103	0.770406	-0.488559	0.019537	-0.386543	0.082416	-0.861328	0.352295	0.212158	0.093447	-0.003277	0.003754	0.379081	-0.612862	-0.384892	-0.576676	-156.413065	-87.030032	41.833767
36998		9.483655	-0.538813	-0.136697	-0.168920	0.443737	-0.324634	0.027159	-0.407997	0.079879	-0.856934	0.361572	0.217773	0.094841	-0.005350	-0.001174	0.378570	-0.614150	-0.385497	-0.575236	-157.376099	-86.796825	42.809868
36999		9.694820	-0.776510	-0.593684	-0.543463	0.168081	-0.085343	0.103705	-0.406609	0.064877	-0.850830	0.354980	0.218750	0.096963	-0.007731	-0.005744	0.378271	-0.615247	-0.386387	-0.573662	-158.295321	-86.566347	43.790344
37000		9.746921	-0.840452	-0.957277	-0.727960	-0.101857	-0.010402	0.191678	-0.390301	0.055600	-0.854004	0.359375	0.217285	0.097490	-0.008368	-0.009391	0.378227	-0.616121	-0.387501	-0.571999	-159.069019	-86.346112	44.671573
37001		9.751586	-0.728992	-1.148044	-0.684010	-0.292538	0.005120	0.318405	-0.352029	0.042479	-0.850342	0.360352	0.228271	0.097537	-0.007251	-0.011320	0.378627	-0.616605	-0.388968	-0.570214	-159.672314	-86.147989	45.459181
37002		9.682297	-0.413051	-0.990718	-0.316563	-0.257513	-0.079630	0.399248	-0.302037	0.024563	-0.852295	0.366455	0.225830	0.096838	-0.004099	-0.009769	0.379302	-0.616767	-0.390600	-0.568472	-160.160018	-85.980209	46.173460
37003		9.652847	-0.237484	-0.819104	-0.072806	-0.151141	-0.123694	0.334644	-0.275324	0.013788	-0.845947	0.365234	0.223389	0.096540	-0.002355	-0.008062	0.379815	-0.616940	-0.392052	-0.566940	-160.648424	-85.828108	46.855537
37004		9.643295	-0.217270	-0.843365	-0.051509	-0.158835	-0.131589	0.204227	-0.278316	0.002684	-0.857178	0.371094	0.228760	0.096445	-0.002163	-0.008302	0.379870	-0.617356	-0.393150	-0.565689	-161.253933	-85.676391	47.576380
37005		9.733631	-0.258332	-0.981978	-0.127764	-0.239364	-0.030003	0.131797	-0.286488	0.000642	-0.855225	0.369873	0.228516	0.097350	-0.002577	-0.009682	0.379696	-0.617915	-0.394087	-0.564542	-161.889771	-85.519641	48.290028
37006		9.862293	-0.206038	-1.175074	-0.138165	-0.404265	0.112306	0.131182	-0.278840	-0.001953	-0.840332	0.371826	0.231934	0.098639	-0.002054	-0.011615	0.379509	-0.618459	-0.394992	-0.563438	-162.479815	-85.367319	48.953783
37007		9.880748	-0.060995	-1.352121	-0.063053	-0.599040	0.142123	0.155472	-0.254242	-0.006195	-0.847656	0.379150	0.239502	0.098825	-0.000603	-0.013396	0.379451	-0.618866	-0.395954	-0.562354	-162.996379	-85.228293	49.561662
37008		9.719586	0.110722	-1.258106	0.132762	-0.570330	-0.028900	0.132179	-0.215881	-0.011001	-0.843506	0.373535	0.246338	0.097209	0.001110	-0.012475	0.379364	-0.619211	-0.396768	-0.561458	-163.450873	-85.111039	50.090033
37009		9.482598	0.266406	-1.254853	0.272230	-0.625672	-0.268072	0.037974	-0.204261	-0.000382	-0.851318	0.369385	0.242188	0.094839	0.002666	-0.012451	0.379056	-0.619710	-0.397285	-0.560749	-163.849060	-84.997781	50.511738
37010		9.470658	0.249667	-1.428793	0.194807	-0.761222	-0.263881	-0.063353	-0.193070	0.003075	-0.845459	0.375977	0.240723	0.094720	0.002494	-0.014197	0.378445	-0.620390	-0.397461	-0.560286	-164.245017	-84.890214	50.868571
37011		9.787340	0.211221	-1.638992	0.099957	-0.898562	0.071922	-0.138411	-0.186412	-0.003530	-0.847656	0.371582	0.244141	0.097889	0.002099	-0.016300	0.377616	-0.621166	-0.397459	-0.559987	-164.697516	-84.786782	51.243476
37012		10.076055	0.107895	-1.763512	-0.023640	-0.933016	0.374432	-0.179084	-0.168647	-0.001353	-0.845703	0.376221	0.255371	0.100775	0.001063	-0.017551	0.376684	-0.621983	-0.397281	-0.559834	-165.115391	-84.692896	51.556525
37013		10.162303	-0.015780	-1.778756	-0.134596	-0.875758	0.466006	-0.165514	-0.128964	0.010570	-0.834473	0.372070	0.251953	0.101634	-0.000167	-0.017722	0.375923	-0.622675	-0.397050	-0.559740	-165.382433	-84.618790	51.729676
37014		10.130384	-0.122713	-1.534810	-0.133331	-0.601547	0.415496	-0.104413	-0.088591	0.025994	-0.837158	0.373291	0.251709	0.101311	-0.001222	-0.015303	0.375456	-0.623183	-0.396842	-0.559636	-165.458209	-84.565040	51.741623
37015		9.952896	-0.278444	-1.272715	-0.177280	-0.306119	0.218880	-0.053219	-0.057983	0.028630	-0.838623	0.371094	0.254395	0.099533	-0.002774	-0.012698	0.375236	-0.623501	-0.396735	-0.559505	-165.442780	-84.527643	51.695682
37016		9.849293	-0.411549	-1.014720	-0.198597	-0.021320	0.095274	0.042586	-0.028706	0.016696	-0.835205	0.377197	0.252197	0.098495	-0.004105	-0.010134	0.375320	-0.623546	-0.396856	-0.559312	-165.397932	-84.508418	51.671353
37017		9.666191	-0.421076	-0.677103	-0.081489	0.278726	-0.118013	0.120787	-0.024418	-0.003649	-0.844238	0.376221	0.254150	0.096663	-0.004208	-0.006762	0.375619	-0.623379	-0.397273	-0.559002	-165.419056	-84.494288	51.762288
37018		9.537780	-0.530871	-0.444925	-0.096726	0.528672	-0.264904	0.112168	-0.052983	-0.024311	-0.842529	0.373047	0.254150	0.095378	-0.005318	-0.004427	0.375758	-0.623279	-0.397762	-0.558671	-165.605467	-84.467480	52.010478
37019		9.508491	-0.625840	-0.319932	-0.135161	0.685493	-0.303888	0.115944	-0.091429	-0.021409	-0.833008	0.365967	0.253418	0.095086	-0.006267	-0.003159	0.375859	-0.623273	-0.398347	-0.558194	-165.826353	-84.418608	52.299339
37020		9.601788	-0.567994	-0.353238	-0.087654	0.648584	-0.209908	0.154278	-0.119263	-0.016772	-0.845947	0.377197	0.262939	0.096019	-0.005685	-0.003480	0.376016	-0.623294	-0.399053	-0.557560	-166.033531	-84.353755	52.592374
37021		9.783159	-0.400800	-0.457031	0.038745	0.512773	-0.024160	0.136219	-0.134061	-0.018140	-0.836670	0.375732	0.260498	0.097834	-0.004014	-0.004507	0.376104	-0.623374	-0.399763	-0.556902	-166.273099	-84.280505	52.911747
37022		9.868848	-0.319700	-0.492699	0.107856	0.467736	0.061962	0.087256	-0.140543	-0.021056	-0.838867	0.384766	0.256592	0.098692	-0.003205	-0.004859	0.375995	-0.623573	-0.400332	-0.556344	-166.557695	-84.204154	53.243560
37023		9.843621	-0.211361	-0.646441	0.148161	0.295682	0.048856	0.050197	-0.131557	-0.033514	-0.841309	0.376221	0.249756	0.098440	-0.002128	-0.006400	0.375776	-0.623776	-0.400846	-0.555895	-166.911861	-84.134005	53.628666
37024		9.785389	-0.201786	-0.643828	0.156413	0.302584	-0.009982	-0.013086	-0.124437	-0.028406	-0.838135	0.376953	0.259033	0.097858	-0.002032	-0.006377	0.375370	-0.624100	-0.401133	-0.555598	-167.256692	-84.067239	53.964287
37025		9.699230	-0.275575	-0.983510	-0.048428	0.027261	-0.059985	-0.079348	-0.125822	-0.034014	-0.828369	0.377197	0.260742	0.096998	-0.002776	-0.009773	0.374757	-0.624528	-0.401277	-0.555427	-167.663637	-83.999870	54.327925
37026		9.579694	-0.350929	-1.405240	-0.290608	-0.324153	-0.133904	-0.115379	-0.130914	-0.048265	-0.837402	0.379150	0.263672	0.095805	-0.003540	-0.013988	0.373961	-0.625023	-0.401350	-0.555353	-168.162952	-83.931360	54.759498
37027		9.507181	-0.431091	-1.567614	-0.433905	-0.432767	-0.186983	-0.077536	-0.110613	-0.056056	-0.836426	0.376709	0.264893	0.095079	-0.004344	-0.015622	0.373322	-0.625361	-0.401539	-0.555266	-168.650013	-83.874450	55.204838
37028		9.525646	-0.260145	-1.650703	-0.309596	-0.563700	-0.162982	0.021189	-0.093497	-0.034920	-0.835938	0.382324	0.268555	0.095264	-0.002616	-0.016463	0.373065	-0.625523	-0.401880	-0.555010	-168.944738	-83.824756	55.509451
37029		9.720239	-0.102757	-1.575612	-0.121709	-0.532761	0.019785	0.201401	-0.068715	-0.017712	-0.838623	0.376709	0.262695	0.097208	-0.001020	-0.015724	0.373488	-0.625301	-0.402644	-0.554421	-169.018727	-83.786738	55.700132
37030		9.719835	0.025278	-1.289535	0.112660	-0.315703	-0.013384	0.176570	-0.087100	0.004691	-0.834229	0.382568	0.268555	0.097204	0.000266	-0.012853	0.373840	-0.625234	-0.403281	-0.553797	-169.008228	-83.736162	55.787441
37031		9.747634	-0.069459	-1.305386	0.025833	-0.282677	0.018114	0.088821	-0.085707	-0.003877	-0.837891	0.384277	0.264404	0.097482	-0.000691	-0.013012	0.373915	-0.625296	-0.403721	-0.553355	-169.089613	-83.687056	55.920702
37032		9.809652	-0.035689	-1.172367	0.115680	-0.160919	0.064848	0.118171	-0.080088	-0.016787	-0.834473	0.379639	0.268799	0.098101	-0.000358	-0.011685	0.374038	-0.625274	-0.404250	-0.552910	-169.212234	-83.642705	56.108353
37033		9.854871	-0.013972	-0.944266	0.229824	0.051524	0.084526	0.078915	-0.086855	-0.011043	-0.837158	0.374023	0.267822	0.098553	-0.000141	-0.009400	0.374060	-0.625343	-0.404687	-0.552498	-169.332785	-83.593661	56.275338
37034		9.715217	-0.084223	-0.936880	0.162663	0.081193	-0.053731	0.038839	-0.088745	0.003409	-0.828613	0.375000	0.258545	0.097156	-0.000839	-0.009326	0.373972	-0.625535	-0.404948	-0.552149	-169.403848	-83.542212	56.365147
37035		9.536938	-0.190951	-0.941034	0.054784	0.110959	-0.228331	0.020116	-0.089203	-0.010859	-0.825684	0.378906	0.270996	0.095373	-0.001914	-0.009368	0.373805	-0.625720	-0.405226	-0.551848	-169.555169	-83.491760	56.529227
37036		9.531897	-0.192419	-0.926139	0.060539	0.134049	-0.235100	-0.023387	-0.098391	-0.024501	-0.833984	0.377930	0.267334	0.095323	-0.001937	-0.009214	0.373428	-0.625997	-0.405422	-0.551645	-169.803865	-83.437695	56.762299
37037		9.626833	-0.206010	-0.996035	0.027432	0.094945	-0.132777	-0.067474	-0.097219	-0.031371	-0.834717	0.376221	0.268311	0.096273	-0.002079	-0.009913	0.372914	-0.626326	-0.405538	-0.551534	-170.106219	-83.384618	57.027929
37038		9.773669	-0.304892	-1.067922	-0.082670	0.092433	0.023096	-0.086740	-0.081230	-0.034004	-0.834229	0.376221	0.273682	0.097740	-0.003070	-0.010638	0.372346	-0.626654	-0.405557	-0.551532	-170.414659	-83.340898	57.284626
37039		9.793092	-0.424269	-1.363194	-0.308203	-0.119590	0.078402	-0.084932	-0.056570	-0.046894	-0.837891	0.375977	0.272461	0.097934	-0.004271	-0.013602	0.371817	-0.626871	-0.405597	-0.551612	-170.761048	-83.311919	57.584566
37040		9.775396	-0.455962	-1.600912	-0.435111	-0.318873	0.088736	-0.051901	-0.032750	-0.054739	-0.837158	0.377686	0.271240	0.097755	-0.004591	-0.015992	0.371398	-0.626960	-0.405685	-0.551729	-171.105499	-83.297139	57.897393
37041		9.763740	-0.267781	-1.680225	-0.298730	-0.461998	0.082907	0.024698	-0.010488	-0.059925	-0.833252	0.373535	0.276611	0.097637	-0.002705	-0.016797	0.371270	-0.626820	-0.405982	-0.551756	-171.413448	-83.294984	58.221893
37042		9.642240	0.029432	-1.635576	-0.021352	-0.548829	-0.048104	0.092780	0.028189	-0.070014	-0.835205	0.376709	0.266846	0.096420	0.000268	-0.016369	0.371386	-0.626440	-0.406404	-0.551798	-171.703726	-83.315595	58.563716
37043		9.603398	0.318356	-1.475321	0.296953	-0.520707	-0.109912	0.052149	0.052505	-0.077708	-0.836914	0.368896	0.270020	0.096031	0.003150	-0.014778	0.371422	-0.626039	-0.406716	-0.551999	-172.040162	-83.350206	58.932707
37044		9.745487	0.369713	-1.465431	0.347831	-0.518654	0.029502	-0.061149	0.039263	-0.068621	-0.840576	0.379395	0.271973	0.097453	0.003659	-0.014675	0.371085	-0.625915	-0.406691	-0.552385	-172.409666	-83.376504	59.265904
37045		10.077316	0.142394	-1.710990	0.054249	-0.620910	0.390821	-0.083281	0.036290	-0.054921	-0.838867	0.373779	0.275146	0.100770	0.001389	-0.017129	0.370727	-0.625856	-0.406587	-0.552768	-172.729070	-83.399691	59.539591
37046		10.127425	-0.073123	-1.629527	-0.116503	-0.456456	0.434435	-0.106899	0.026083	-0.039515	-0.834229	0.371582	0.270508	0.101272	-0.000760	-0.016308	0.370298	-0.625914	-0.406367	-0.553152	-172.994727	-83.415960	59.741568
37047		9.975591	-0.348994	-1.616783	-0.379209	-0.351070	0.285884	-0.099349	0.033694	-0.016617	-0.833008	0.375732	0.269775	0.099753	-0.003506	-0.016183	0.369991	-0.625969	-0.406104	-0.553488	-173.139157	-83.434746	59.829836
37048		9.711943	-0.431585	-1.595665	-0.466350	-0.327151	0.022440	-0.056731	0.051818	-0.014039	-0.838135	0.363525	0.269531	0.097115	-0.004327	-0.015981	0.369843	-0.625913	-0.405897	-0.553802	-173.236730	-83.463767	59.891829
37049		9.616776	-0.367124	-1.473605	-0.368825	-0.254120	-0.087048	-0.021393	0.055545	-0.014978	-0.832031	0.367676	0.267578	0.096163	-0.003680	-0.014762	0.369828	-0.625767	-0.405804	-0.554045	-173.316844	-83.494840	59.960308
37050		9.487947	-0.213330	-1.318868	-0.178712	-0.191056	-0.234712	0.009164	0.073275	-0.023663	-0.830811	0.370361	0.269287	0.094874	-0.002144	-0.013224	0.369903	-0.625510	-0.405770	-0.554310	-173.413814	-83.536656	60.059685
37051		9.524801	-0.024673	-1.253470	0.016682	-0.208811	-0.208015	0.049245	0.095813	-0.029985	-0.834229	0.383301	0.281006	0.095242	-0.000258	-0.012580	0.370149	-0.625091	-0.405845	-0.554563	-173.507682	-83.591604	60.182722
37052		9.562789	0.533343	-0.984549	0.630289	-0.188705	-0.207072	0.135552	0.118301	-0.038592	-0.835693	0.371338	0.264893	0.095623	0.005322	-0.009898	0.370667	-0.624446	-0.406122	-0.554741	-173.585348	-83.659968	60.335076
37053		9.589286	1.025762	-0.575604	1.237148	-0.016359	-0.231086	0.084366	0.137498	-0.031112	-0.833008	0.367188	0.273193	0.095890	0.010245	-0.005818	0.371104	-0.623844	-0.406221	-0.555055	-173.644830	-83.738686	60.443732
37054		9.609876	1.021813	-0.410126	1.292417	0.128041	-0.227529	-0.088023	0.122601	-0.008634	-0.843750	0.373535	0.259277	0.096097	0.010212	-0.004165	0.371015	-0.623661	-0.405776	-0.555643	-173.697164	-83.807579	60.441848
37055		9.625107	0.566979	-0.434710	0.861100	0.277748	-0.203604	-0.226819	0.074539	0.016100	-0.842041	0.371826	0.267090	0.096249	0.005673	-0.004389	0.370485	-0.623906	-0.404979	-0.556304	-173.726350	-83.847459	60.340667
37056		9.715488	0.071579	-0.631982	0.331833	0.297403	-0.086606	-0.261043	0.036808	0.032847	-0.839600	0.373535	0.267090	0.097154	0.000723	-0.006339	0.369800	-0.624363	-0.404086	-0.556896	-173.709054	-83.864933	60.169583
37057		9.818655	-0.291346	-0.837299	-0.076269	0.261786	0.042138	-0.204467	0.028554	0.044854	-0.847900	0.371582	0.258057	0.098186	-0.002900	-0.008384	0.369325	-0.624751	-0.403346	-0.557313	-173.598981	-83.876795	59.941231
37058		9.810800	-0.429912	-1.080363	-0.299322	0.091160	0.061820	-0.096147	0.056280	0.047403	-0.840576	0.367432	0.267334	0.098106	-0.004281	-0.010829	0.369235	-0.624876	-0.402830	-0.557605	-173.396349	-83.904361	59.678923
37059		9.671238	-0.325050	-1.059041	-0.201908	0.049085	-0.080427	-0.011799	0.072658	0.035288	-0.836670	0.373291	0.266113	0.096709	-0.003234	-0.010625	0.369423	-0.624765	-0.402575	-0.557789	-173.196646	-83.941807	59.471472
37060		9.726729	-0.062762	-0.951344	0.083514	0.037579	-0.039774	0.086248	0.106299	0.030176	-0.841553	0.374023	0.269775	0.097262	-0.000609	-0.009565	0.369953	-0.624381	-0.402526	-0.557903	-172.944137	-83.998795	59.263652
37061		9.787628	0.402224	-0.785734	0.576726	-0.004398	-0.002276	0.163001	0.132346	0.017947	-0.839844	0.372314	0.261963	0.097871	0.004037	-0.007919	0.370759	-0.623745	-0.402702	-0.557953	-172.690818	-84.071230	59.103033
37062		9.694989	0.634353	-0.556791	0.872607	0.091455	-0.120659	0.063635	0.126136	0.017327	-0.848633	0.379395	0.265137	0.096946	0.006354	-0.005627	0.371222	-0.623321	-0.402593	-0.558197	-172.498620	-84.140265	58.942802
37063		9.604914	0.594862	-0.442283	0.874137	0.192985	-0.220895	-0.038655	0.113026	0.023590	-0.842773	0.371826	0.270264	0.096046	0.005959	-0.004478	0.371376	-0.623123	-0.402224	-0.558582	-172.335053	-84.201181	58.756300
37064		9.617109	0.362349	-0.413822	0.672231	0.304059	-0.208159	-0.155422	0.064039	0.053939	-0.839844	0.374512	0.265137	0.096169	0.003646	-0.004172	0.371131	-0.623354	-0.401502	-0.559007	-172.103540	-84.232039	58.430089
37065		9.737187	-0.020585	-0.667617	0.230279	0.231445	-0.058080	-0.220460	0.012469	0.090145	-0.838135	0.371582	0.252930	0.097372	-0.000169	-0.006682	0.370701	-0.623907	-0.400603	-0.559319	-171.743401	-84.230388	57.941336
37066		9.868379	-0.301879	-0.884102	-0.100010	0.156931	0.098066	-0.195834	-0.013481	0.097111	-0.840576	0.367676	0.267578	0.098686	-0.002980	-0.008831	0.370298	-0.624512	-0.399780	-0.559500	-171.353880	-84.213332	57.433663
37067		9.892405	-0.395065	-0.993765	-0.220752	0.095451	0.134447	-0.134708	0.001621	0.090986	-0.840332	0.372070	0.271240	0.098926	-0.003912	-0.009936	0.370116	-0.624937	-0.399138	-0.559603	-170.951474	-84.204805	56.951792
37068		9.790392	-0.368057	-1.157839	-0.262063	-0.076594	0.049021	-0.096545	0.024811	0.080992	-0.840576	0.371338	0.257813	0.097904	-0.003647	-0.011589	0.370049	-0.625221	-0.398567	-0.559738	-170.563877	-84.210170	56.502347
37069		9.653759	-0.291825	-1.117664	-0.180148	-0.087947	-0.092132	-0.075587	0.055311	0.061888	-0.843262	0.377686	0.261230	0.096535	-0.002893	-0.011202	0.370077	-0.625328	-0.398082	-0.559945	-170.239418	-84.234118	56.132878
37070		9.598329	-0.091190	-1.015477	0.042036	-0.089036	-0.160862	-0.104746	0.083528	0.044590	-0.841309	0.373047	0.264404	0.095979	-0.000896	-0.010194	0.370005	-0.625386	-0.397499	-0.560342	-169.998865	-84.275716	55.827592
37071		9.681119	0.105291	-0.935267	0.256474	-0.098714	-0.089811	-0.242559	0.103112	0.036836	-0.844971	0.372314	0.261475	0.096806	0.001059	-0.009404	0.369535	-0.625618	-0.396535	-0.561076	-169.856530	-84.328833	55.545060
37072		9.922831	0.175705	-1.143153	0.243705	-0.306597	0.169639	-0.368165	0.121355	0.022904	-0.846436	0.366943	0.252930	0.099221	0.001747	-0.011495	0.368650	-0.626012	-0.395207	-0.562154	-169.844581	-84.393800	55.317523
37073		9.995389	0.169551	-1.093011	0.256467	-0.263073	0.237000	-0.344174	0.112342	0.036540	-0.845215	0.364746	0.259766	0.099947	0.001695	-0.010989	0.367878	-0.626401	-0.393940	-0.563115	-169.745199	-84.452086	55.019708
37074		9.873153	0.127127	-1.061672	0.220650	-0.237674	0.112899	-0.368465	0.113070	0.079659	-0.847656	0.372559	0.260498	0.098725	0.001291	-0.010675	0.367135	-0.626925	-0.392449	-0.564057	-169.403669	-84.506405	54.461479
37075		9.481176	-0.244427	-0.936965	-0.084926	-0.010483	-0.282577	-0.421667	0.113998	0.128724	-0.848877	0.371582	0.268066	0.094808	-0.002403	-0.009419	0.366380	-0.627627	-0.390668	-0.565003	-168.791847	-84.555278	53.604332
37076		9.303882	-0.597324	-0.871791	-0.381916	0.175055	-0.458409	-0.372530	0.079972	0.138054	-0.845947	0.373047	0.268311	0.093039	-0.005925	-0.008744	0.365719	-0.628363	-0.389038	-0.565738	-168.127223	-84.583236	52.718890
37077		9.703457	-0.471767	-0.736589	-0.182919	0.263314	-0.075162	-0.181308	0.091950	0.103511	-0.847656	0.374756	0.268066	0.097034	-0.004674	-0.007406	0.365602	-0.628634	-0.388054	-0.566188	-167.532755	-84.620986	52.017604
37078		9.944860	-0.087785	-0.357172	0.342664	0.444942	0.123112	-0.071212	0.111507	0.077962	-0.838867	0.373779	0.265869	0.099447	-0.000840	-0.003627	0.365777	-0.628611	-0.387404	-0.566545	-166.992460	-84.672412	51.430302
37079		9.836876	0.061930	0.013784	0.632022	0.692843	-0.020412	-0.060597	0.118907	0.075532	-0.842285	0.372070	0.256836	0.098369	0.000656	0.000079	0.366012	-0.628530	-0.386800	-0.566896	-166.438002	-84.727587	50.838769
37080		9.561686	0.025021	0.215429	0.671907	0.858431	-0.310872	-0.047571	0.087068	0.085883	-0.842285	0.372314	0.262939	0.095618	0.000292	0.002113	0.366237	-0.628546	-0.386239	-0.567115	-165.850904	-84.763324	50.218511
37081		9.387423	0.018338	0.184936	0.648197	0.814008	-0.481263	-0.037041	0.014443	0.099019	-0.835693	0.368408	0.270752	0.093874	0.000230	0.001843	0.366411	-0.628764	-0.385818	-0.567049	-165.284827	-84.756074	49.628920
37082		9.496591	-0.024888	0.098422	0.587202	0.760643	-0.364293	-0.061351	-0.050726	0.093050	-0.843018	0.375977	0.267822	0.094966	-0.000204	0.001008	0.366343	-0.629211	-0.385443	-0.566851	-164.877377	-84.713444	49.180318
37083		9.708487	-0.123710	-0.134071	0.422070	0.612434	-0.131015	-0.134969	-0.096487	0.103531	-0.839111	0.375488	0.269043	0.097086	-0.001188	-0.001293	0.366007	-0.629931	-0.384933	-0.566615	-164.530902	-84.643394	48.754850
37084		9.784575	-0.288544	-0.384322	0.184234	0.470536	-0.029360	-0.167635	-0.117196	0.122370	-0.842773	0.369629	0.262695	0.097850	-0.002829	-0.003783	0.365560	-0.630816	-0.384286	-0.566358	-164.138634	-84.559078	48.260275
37085		9.836356	-0.519743	-0.576562	-0.088081	0.408910	0.045379	-0.160735	-0.109675	0.136313	-0.841064	0.372559	0.266113	0.098370	-0.005135	-0.005708	0.365209	-0.631681	-0.383623	-0.566069	-163.663499	-84.476014	47.690611
37086		9.779369	-0.599171	-0.812679	-0.249781	0.232444	0.012742	-0.048350	-0.091979	0.143011	-0.838867	0.374023	0.263428	0.097802	-0.005924	-0.008080	0.365247	-0.632314	-0.383203	-0.565623	-163.073092	-84.401436	47.065956
37087		9.722637	-0.425930	-0.798675	-0.076994	0.167435	-0.049748	0.072086	-0.083060	0.115652	-0.843750	0.372803	0.262207	0.097232	-0.004200	-0.007948	0.365623	-0.632638	-0.383215	-0.565009	-162.564687	-84.335424	46.596760
37088		9.656764	-0.215296	-0.678134	0.172984	0.180616	-0.132979	0.087350	-0.076956	0.099477	-0.843262	0.378662	0.281006	0.096571	-0.002102	-0.006745	0.365998	-0.632895	-0.383291	-0.564427	-162.136386	-84.275561	46.213337
37089		9.649487	-0.097533	-0.688827	0.284288	0.121607	-0.143097	0.037786	-0.065478	0.075250	-0.839111	0.370605	0.258301	0.096497	-0.000938	-0.006857	0.366185	-0.633154	-0.383301	-0.564008	-161.854466	-84.225630	45.951923
37090		9.731515	-0.177422	-0.743722	0.204258	0.117702	-0.054030	-0.023748	-0.098179	0.076243	-0.833252	0.385254	0.262939	0.097319	-0.001738	-0.007389	0.366098	-0.633631	-0.383172	-0.563616	-161.665125	-84.157979	45.744031
37091		9.808371	-0.350814	-0.895633	0.000347	0.070557	0.042482	-0.049658	-0.136896	0.099314	-0.840088	0.377930	0.273438	0.098092	-0.003462	-0.008888	0.365939	-0.634297	-0.382990	-0.563093	-161.441967	-84.064669	45.491257
37092		9.868586	-0.408458	-1.007367	-0.079805	0.009139	0.115260	-0.005408	-0.156693	0.123563	-0.836426	0.382324	0.270752	0.098696	-0.004024	-0.009996	0.365934	-0.634994	-0.382871	-0.562392	-161.111122	-83.956401	45.152019
37093		9.800536	-0.318848	-0.966585	0.030784	0.009849	0.040504	0.030110	-0.148581	0.126077	-0.832275	0.383789	0.270508	0.098014	-0.003125	-0.009594	0.366080	-0.635597	-0.382849	-0.561630	-160.745210	-83.851475	44.801546
37094		9.736883	-0.327986	-0.940811	0.045278	0.039188	-0.025145	0.042409	-0.123212	0.114224	-0.841309	0.383789	0.273193	0.097376	-0.003222	-0.009349	0.366264	-0.636094	-0.382832	-0.560960	-160.398135	-83.762659	44.473419
37095		9.637313	-0.309804	-0.789186	0.133656	0.165336	-0.140491	0.022897	-0.108288	0.096984	-0.835449	0.382324	0.277588	0.096379	-0.003050	-0.007840	0.366382	-0.636540	-0.382808	-0.560391	-160.129298	-83.684668	44.216329
37096		9.603070	-0.436212	-0.751325	0.046110	0.258269	-0.173970	0.003094	-0.114231	0.083229	-0.834229	0.375244	0.272461	0.096037	-0.004322	-0.007458	0.366369	-0.637024	-0.382762	-0.559882	-159.954826	-83.606434	44.038834
37097		9.638179	-0.484621	-0.762680	0.012080	0.279236	-0.136278	-0.009813	-0.117061	0.077014	-0.833984	0.385010	0.279053	0.096388	-0.004809	-0.007570	0.366310	-0.637516	-0.382725	-0.559385	-159.826136	-83.527476	43.903839
37098		9.727022	-0.440478	-0.773568	0.065353	0.265214	-0.048838	-0.021999	-0.126901	0.068346	-0.826416	0.386963	0.275635	0.097277	-0.004372	-0.007673	0.366151	-0.638052	-0.382678	-0.558910	-159.765424	-83.445319	43.826286
37099		9.684018	-0.454954	-0.820580	0.039918	0.234890	-0.086241	-0.035682	-0.129013	0.078696	-0.832520	0.387451	0.279297	0.096847	-0.004513	-0.008143	0.365991	-0.638628	-0.382586	-0.558420	-159.669701	-83.359558	43.709514
37100		9.538657	-0.487326	-0.965960	-0.051479	0.116158	-0.213709	-0.064470	-0.139045	0.099775	-0.833496	0.390869	0.279053	0.095396	-0.004829	-0.009592	0.365761	-0.639334	-0.382342	-0.557929	-159.513739	-83.264557	43.511679
37101		9.510456	-0.459500	-1.129915	-0.085863	-0.035520	-0.224781	-0.072087	-0.154452	0.104147	-0.829834	0.379395	0.281006	0.095116	-0.004550	-0.011224	0.365507	-0.640095	-0.382113	-0.557380	-159.373879	-83.159965	43.329407
37102		9.664669	-0.297538	-1.337777	-0.003757	-0.269600	-0.055060	-0.057400	-0.155684	0.083871	-0.831299	0.398682	0.279785	0.096658	-0.002939	-0.013302	0.365223	-0.640803	-0.381969	-0.556851	-159.321738	-83.059183	43.240157
37103		9.841128	-0.116279	-1.436635	0.143539	-0.413120	0.123809	-0.060387	-0.131455	0.075383	-0.830322	0.389893	0.287842	0.098421	-0.001130	-0.014301	0.364969	-0.641423	-0.381822	-0.556405	-159.270329	-82.972688	43.153673
37104		9.770841	0.035091	-1.432756	0.285125	-0.474202	0.047189	-0.053990	-0.106687	0.069902	-0.823975	0.386230	0.288818	0.097716	0.000381	-0.014276	0.364752	-0.641961	-0.381643	-0.556049	-159.199404	-82.900924	43.047618
37105		9.612244	0.120737	-1.303602	0.413331	-0.403556	-0.128913	-0.090113	-0.096311	0.076322	-0.830811	0.391602	0.282715	0.096128	0.001238	-0.012990	0.364472	-0.642538	-0.381346	-0.555771	-159.107282	-82.833030	42.902911
37106		9.558679	-0.064529	-1.229314	0.285250	-0.253067	-0.182615	-0.136526	-0.115529	0.094425	-0.833740	0.395752	0.291992	0.095594	-0.000609	-0.012237	0.364039	-0.643296	-0.380875	-0.555499	-158.998904	-82.751491	42.711310
37107		9.617211	-0.441309	-1.222064	-0.030691	-0.065726	-0.108376	-0.145686	-0.137975	0.107375	-0.822266	0.383789	0.287109	0.096183	-0.004370	-0.012151	0.363587	-0.644148	-0.380398	-0.555135	-158.881176	-82.654859	42.508635
37108		9.618143	-1.026194	-1.316431	-0.579569	0.121508	-0.068764	-0.073613	-0.167928	0.117948	-0.822266	0.392090	0.285156	0.096198	-0.010210	-0.013080	0.363321	-0.644982	-0.380120	-0.554531	-158.731345	-82.540348	42.311473
37109		9.739365	-1.405004	-1.378589	-0.916497	0.257402	0.077889	0.048961	-0.185261	0.105204	-0.818115	0.391357	0.286865	0.097414	-0.013995	-0.013699	0.363400	-0.645605	-0.380275	-0.553647	-158.595122	-82.418810	42.202531
37110		9.936111	-1.517214	-1.376044	-0.980047	0.335848	0.279311	0.238455	-0.151203	0.082409	-0.821289	0.395508	0.297852	0.099378	-0.015115	-0.013703	0.364077	-0.645754	-0.380948	-0.552565	-158.391664	-82.320558	42.132203
37111		9.992991	-1.348805	-1.266644	-0.762963	0.367269	0.314826	0.407065	-0.112350	0.043713	-0.823730	0.389160	0.285156	0.099940	-0.013440	-0.012638	0.365279	-0.645404	-0.382158	-0.551344	-158.186427	-82.250774	42.160618
37112		9.872097	-0.972023	-1.149264	-0.377096	0.296073	0.161984	0.498986	-0.087664	0.018373	-0.821533	0.399658	0.288086	0.098727	-0.009683	-0.011474	0.366735	-0.644777	-0.383635	-0.550084	-157.989914	-82.199890	42.247399
37113		9.557561	-0.587231	-1.090924	-0.030128	0.152989	-0.176422	0.468899	-0.080174	0.014327	-0.823486	0.399658	0.284424	0.095580	-0.005840	-0.010885	0.368113	-0.644163	-0.385047	-0.548896	-157.815338	-82.153549	42.342533
37114		9.381978	-0.311086	-1.080594	0.212794	0.030251	-0.366007	0.392894	-0.093411	0.010135	-0.825439	0.404541	0.281982	0.093825	-0.003085	-0.010768	0.369193	-0.643722	-0.386267	-0.547829	-157.720629	-82.101481	42.471193
37115		9.568598	0.022371	-1.153475	0.508820	-0.154277	-0.189467	0.255932	-0.101984	-0.003347	-0.820801	0.407959	0.281982	0.095692	0.000237	-0.011486	0.369792	-0.643521	-0.387189	-0.547010	-157.769075	-82.047446	42.668324
37116		9.835112	0.224691	-1.211458	0.700120	-0.258771	0.071158	0.078690	-0.107861	0.000175	-0.829590	0.399170	0.289063	0.098358	0.002252	-0.012061	0.369806	-0.643677	-0.387609	-0.546519	-157.911824	-81.989854	42.855448
37117		9.855653	0.142852	-1.355833	0.573138	-0.342638	0.114382	-0.096441	-0.096452	0.025384	-0.821777	0.400635	0.292236	0.098563	0.001435	-0.013511	0.369359	-0.644167	-0.387465	-0.546346	-158.041361	-81.932475	42.930631
37118		9.657084	-0.159663	-1.420670	0.257989	-0.282642	-0.057862	-0.213467	-0.092865	0.059231	-0.830078	0.403809	0.295166	0.096578	-0.001583	-0.014160	0.368618	-0.644938	-0.386864	-0.546363	-158.105134	-81.870092	42.868011
37119		9.612439	-0.502573	-1.442391	-0.058827	-0.150676	-0.080993	-0.280076	-0.097805	0.061567	-0.827637	0.396240	0.297363	0.096133	-0.005016	-0.014370	0.367674	-0.645839	-0.386102	-0.546473	-158.205353	-81.804247	42.807306
37120		9.796252	-0.792052	-1.394668	-0.274516	0.044994	0.110095	-0.294183	-0.094357	0.047025	-0.820557	0.401367	0.296143	0.097971	-0.007918	-0.013889	0.366634	-0.646737	-0.385321	-0.546661	-158.361966	-81.743672	42.791613
37121		9.854677	-0.999118	-1.453999	-0.475662	0.096809	0.186881	-0.237040	-0.056791	0.031764	-0.823242	0.401123	0.295166	0.098552	-0.009993	-0.014500	0.365826	-0.647387	-0.384696	-0.546873	-158.485992	-81.706000	42.779864
37122		9.750348	-1.132326	-1.425265	-0.591646	0.177452	0.086873	-0.176035	-0.042205	0.021308	-0.827637	0.401855	0.297852	0.097508	-0.011325	-0.014222	0.365199	-0.647874	-0.384226	-0.547047	-158.591582	-81.678632	42.781448
37123		9.630789	-1.020973	-1.355796	-0.472223	0.184149	-0.046636	-0.074108	-0.039325	0.023389	-0.827393	0.396973	0.298828	0.096312	-0.010203	-0.013535	0.364929	-0.648161	-0.384042	-0.547017	-158.627092	-81.652034	42.774587
37124		9.680041	-0.743243	-1.052738	-0.085045	0.340963	-0.053570	0.030556	-0.031957	0.017800	-0.823486	0.404053	0.295410	0.096803	-0.007422	-0.010513	0.364981	-0.648235	-0.384129	-0.546832	-158.612427	-81.630878	42.774312
37125		9.726600	-0.527935	-0.659463	0.283425	0.604707	-0.072341	0.042798	-0.023526	-0.001432	-0.813477	0.393555	0.302734	0.097267	-0.005279	-0.006584	0.365052	-0.648217	-0.384316	-0.546674	-158.648470	-81.617892	42.835692
37126		9.784700	-0.523365	-0.576604	0.330053	0.685327	-0.026568	-0.045232	-0.030888	0.000307	-0.829102	0.395752	0.295410	0.097848	-0.005235	-0.005750	0.364812	-0.648394	-0.384249	-0.546672	-158.738405	-81.600935	42.896930
37127		9.712037	-0.624189	-0.735065	0.165040	0.585035	-0.071841	-0.060449	-0.045060	-0.000601	-0.821045	0.396973	0.300293	0.097122	-0.006244	-0.007327	0.364509	-0.648626	-0.384190	-0.546640	-158.860254	-81.576248	42.985256
37128		9.642984	-0.720942	-0.918520	-0.006129	0.462069	-0.110263	-0.058364	-0.054392	0.004970	-0.824951	0.400879	0.302979	0.096433	-0.007210	-0.009157	0.364195	-0.648898	-0.384117	-0.546578	-158.973148	-81.545819	43.062419
37129		9.524258	-0.760060	-1.050423	-0.109589	0.355601	-0.207787	-0.053580	-0.051794	-0.019357	-0.815186	0.405518	0.294189	0.095245	-0.007613	-0.010478	0.363850	-0.649099	-0.384150	-0.546546	-159.166392	-81.521306	43.226917
37130		9.535364	-0.613650	-1.155090	-0.022880	0.205942	-0.190264	-0.065822	-0.060474	-0.035920	-0.827393	0.396729	0.300293	0.095356	-0.006157	-0.011520	0.363390	-0.649323	-0.384199	-0.546552	-159.435489	-81.495778	43.457761
37131		9.671435	-0.488571	-1.218769	0.074191	0.116009	-0.053498	-0.091766	-0.055975	-0.050695	-0.817383	0.390869	0.298828	0.096717	-0.004916	-0.012158	0.362827	-0.649544	-0.384237	-0.546636	-159.766139	-81.475055	43.739093
37132		9.806569	-0.433749	-1.319468	0.090656	0.023966	0.091308	-0.133788	-0.043873	-0.050723	-0.817383	0.395752	0.300781	0.098067	-0.004371	-0.013170	0.362136	-0.649817	-0.384118	-0.546853	-160.103635	-81.461054	43.999695
37133		9.849527	-0.460443	-1.373105	0.044318	-0.000195	0.142645	-0.156976	-0.036243	-0.035987	-0.823242	0.397705	0.301758	0.098497	-0.004633	-0.013710	0.361439	-0.650130	-0.383894	-0.547099	-160.390838	-81.447655	44.199333
37134		9.750223	-0.494149	-1.474907	-0.043540	-0.079990	0.060412	-0.145972	-0.029344	-0.019603	-0.822998	0.393311	0.301025	0.097504	-0.004962	-0.014731	0.360821	-0.650445	-0.383614	-0.547330	-160.602706	-81.435130	44.325889
37135		9.603853	-0.499420	-1.503513	-0.079153	-0.112464	-0.080008	-0.131301	-0.031611	-0.034866	-0.823975	0.392822	0.308838	0.096040	-0.005021	-0.015017	0.360220	-0.650700	-0.383447	-0.547539	-160.864019	-81.423773	44.514235
37136		9.544487	-0.458298	-1.510089	-0.055192	-0.136731	-0.139741	-0.109791	-0.032210	-0.041581	-0.822021	0.388916	0.300049	0.095446	-0.004611	-0.015083	0.359652	-0.650915	-0.383342	-0.547731	-161.136985	-81.413620	44.723356
37137		9.625001	-0.383373	-1.487902	0.025789	-0.136204	-0.066804	-0.102974	-0.022738	-0.048310	-0.818359	0.396973	0.306641	0.096251	-0.003865	-0.014866	0.359123	-0.651069	-0.383280	-0.547939	-161.418449	-81.409285	44.948504
37138		9.747698	-0.280642	-1.578205	0.085501	-0.244668	0.062531	-0.081836	-0.004922	-0.056435	-0.816895	0.397461	0.307617	0.097477	-0.002840	-0.015778	0.358660	-0.651128	-0.383252	-0.548190	-161.694971	-81.416351	45.177776
37139		9.831451	-0.271858	-1.615346	0.079783	-0.268786	0.150348	-0.079513	-0.000170	-0.054287	-0.825684	0.389160	0.310791	0.098314	-0.002752	-0.016152	0.358233	-0.651166	-0.383234	-0.548437	-161.957786	-81.425047	45.397652
37140		9.725929	-0.241599	-1.627190	0.084766	-0.301318	0.046412	-0.062051	0.010678	-0.042860	-0.820313	0.391113	0.304443	0.097258	-0.002442	-0.016276	0.357899	-0.651176	-0.383184	-0.548679	-162.156341	-81.437846	45.558922
37141		9.634426	-0.116760	-1.568097	0.207626	-0.313247	-0.058023	-0.024157	0.013729	-0.039370	-0.812988	0.397461	0.299072	0.096343	-0.001188	-0.015687	0.357720	-0.651105	-0.383244	-0.548838	-162.318207	-81.451283	45.708772
37142		9.634128	-0.073332	-1.484417	0.278519	-0.257337	-0.071974	-0.055956	0.010597	-0.037295	-0.822510	0.390381	0.303223	0.096340	-0.000755	-0.014849	0.357426	-0.651111	-0.383198	-0.549054	-162.493786	-81.462971	45.851357
37143		9.619964	-0.124787	-1.470793	0.231628	-0.221900	-0.085426	-0.130858	0.018783	-0.043379	-0.822021	0.383545	0.314697	0.096198	-0.001278	-0.014716	0.356898	-0.651209	-0.382969	-0.549441	-162.726686	-81.479713	46.011205
37144		9.658209	-0.258649	-1.489501	0.101472	-0.172059	-0.038916	-0.165927	0.019245	-0.039302	-0.824951	0.387939	0.305664	0.096580	-0.002618	-0.014902	0.356251	-0.651386	-0.382608	-0.549902	-162.965231	-81.496277	46.152833
37145		9.704596	-0.312953	-1.517256	0.039631	-0.165341	0.013313	-0.162915	0.020256	-0.025261	-0.827881	0.385742	0.311279	0.097044	-0.003154	-0.015180	0.355671	-0.651572	-0.382228	-0.550322	-163.149855	-81.510616	46.245285
37146		9.703873	-0.340804	-1.471384	0.029960	-0.111437	0.007341	-0.169134	0.030639	-0.016698	-0.820801	0.385498	0.301514	0.097036	-0.003429	-0.014726	0.355098	-0.651764	-0.381767	-0.550784	-163.295751	-81.529567	46.291769
37147		9.645377	-0.394367	-1.363502	0.019813	0.002066	-0.063454	-0.139176	0.032089	-0.016239	-0.824707	0.395752	0.310303	0.096451	-0.003961	-0.013648	0.354643	-0.651891	-0.381401	-0.551181	-163.421322	-81.548850	46.338260
37148		9.659060	-0.366514	-1.328832	0.056788	0.021006	-0.055952	-0.115297	0.033623	-0.021336	-0.834229	0.395752	0.312012	0.096588	-0.003683	-0.013302	0.354241	-0.651968	-0.381099	-0.551556	-163.550165	-81.570156	46.399137
37149		9.759558	-0.292553	-1.270510	0.153382	0.048310	0.032255	-0.083395	0.046469	-0.032910	-0.826416	0.379883	0.301514	0.097592	-0.002947	-0.012727	0.353949	-0.651924	-0.380916	-0.551922	-163.690865	-81.600005	46.493224
37150		9.787089	-0.262100	-1.054802	0.274000	0.225540	0.028170	-0.044355	0.055338	-0.036839	-0.822754	0.391357	0.308838	0.097867	-0.002641	-0.010575	0.353777	-0.651786	-0.380823	-0.552260	-163.815140	-81.635725	46.590679
37151		9.715908	-0.269824	-0.936956	0.307143	0.322559	-0.058141	-0.026465	0.061998	-0.027442	-0.833252	0.384033	0.311768	0.097156	-0.002713	-0.009399	0.353714	-0.651608	-0.380752	-0.552559	-163.887442	-81.673193	46.648586
37152		9.549864	-0.311265	-0.942207	0.246608	0.316627	-0.219801	-0.000961	0.042978	-0.023459	-0.829102	0.385742	0.302002	0.095496	-0.003124	-0.009443	0.353694	-0.651455	-0.380752	-0.552752	-163.951045	-81.699905	46.709110
37153		9.477599	-0.369125	-1.013189	0.152822	0.271825	-0.279040	0.024711	0.016916	-0.019223	-0.829590	0.387695	0.314453	0.094775	-0.003699	-0.010140	0.353735	-0.651327	-0.380875	-0.552791	-164.012810	-81.711228	46.785993
37154		9.530627	-0.286025	-1.113320	0.184017	0.151021	-0.215944	0.036862	0.009001	-0.028670	-0.828857	0.389160	0.308350	0.095305	-0.002872	-0.011138	0.353760	-0.651190	-0.381058	-0.552811	-164.111989	-81.720056	46.904561
37155		9.639209	-0.078826	-1.256121	0.311791	-0.058073	-0.096834	0.053203	0.008082	-0.024605	-0.828369	0.384521	0.307129	0.096391	-0.000797	-0.012565	0.353862	-0.651026	-0.381293	-0.552777	-164.187723	-81.727319	47.012052
37156		9.754476	0.082378	-1.255542	0.464267	-0.119221	0.010918	0.030353	0.013773	-0.018304	-0.827393	0.391846	0.307129	0.097544	0.000817	-0.012562	0.353903	-0.650907	-0.381416	-0.552806	-164.246547	-81.737119	47.086043
37157		9.712221	0.148119	-1.248072	0.519435	-0.147592	-0.034382	-0.038281	0.021872	-0.011854	-0.829102	0.383545	0.308350	0.097121	0.001473	-0.012492	0.353769	-0.650891	-0.381332	-0.552968	-164.311852	-81.749974	47.130024
37158		9.656763	0.118780	-1.311705	0.456722	-0.196567	-0.079213	-0.117210	0.013875	-0.001096	-0.827393	0.391113	0.311035	0.096567	0.001180	-0.013124	0.353377	-0.651066	-0.380990	-0.553249	-164.389966	-81.757145	47.138042
37159		9.594436	-0.122360	-1.344155	0.220449	-0.119992	-0.127031	-0.177869	-0.006115	0.013423	-0.829102	0.382813	0.310547	0.095945	-0.001229	-0.013438	0.352805	-0.651422	-0.380488	-0.553541	-164.468970	-81.750649	47.115051
37160		9.644356	-0.340210	-1.330039	0.037691	-0.000145	-0.071182	-0.198338	-0.000275	0.015793	-0.825195	0.381348	0.314941	0.096444	-0.003408	-0.013297	0.352167	-0.651811	-0.379889	-0.553900	-164.544433	-81.747403	47.073132
37161		9.794930	-0.526535	-1.343694	-0.119411	0.091148	0.086850	-0.159431	0.007435	0.020026	-0.829834	0.384521	0.310303	0.097949	-0.005266	-0.013436	0.351698	-0.652108	-0.379392	-0.554189	-164.573395	-81.747390	47.010248
37162		9.862146	-0.575831	-1.241583	-0.109938	0.210953	0.141129	-0.095906	0.011523	0.022286	-0.827881	0.375244	0.309326	0.098621	-0.005753	-0.012419	0.351433	-0.652296	-0.379034	-0.554380	-164.553338	-81.749683	46.930998
37163		9.808335	-0.526908	-1.163104	-0.036298	0.250368	0.075177	-0.035654	0.024501	0.010781	-0.822021	0.379639	0.313477	0.098082	-0.005266	-0.011642	0.351375	-0.652311	-0.378879	-0.554506	-164.528568	-81.760504	46.885482
37164		9.598753	-0.398984	-1.042478	0.110424	0.272947	-0.153738	0.007168	0.025642	0.002806	-0.831055	0.383545	0.315674	0.095986	-0.003988	-0.010437	0.351419	-0.652241	-0.378847	-0.554582	-164.509099	-81.773596	46.866553
37165		9.493379	-0.304353	-1.013465	0.196085	0.242341	-0.265604	0.023388	0.007340	-0.004257	-0.837646	0.385742	0.301514	0.094933	-0.003044	-0.010138	0.351478	-0.652171	-0.378935	-0.554567	-164.525965	-81.777239	46.897286
37166		9.591546	-0.243897	-1.060696	0.236851	0.183319	-0.164236	0.009890	-0.003918	-0.006117	-0.829834	0.382324	0.306396	0.095916	-0.002441	-0.010605	0.351455	-0.652159	-0.378995	-0.554555	-164.569842	-81.775402	46.944713
37167		9.743809	-0.162868	-1.146048	0.284291	0.087474	-0.004869	0.006730	-0.007077	0.002996	-0.833252	0.380859	0.315430	0.097439	-0.001627	-0.011457	0.351453	-0.652172	-0.379039	-0.554511	-164.583753	-81.769972	46.962818
37168		9.807056	-0.123679	-1.128300	0.334039	0.092114	0.053753	-0.007080	-0.007990	0.015201	-0.825439	0.382813	0.303711	0.098071	-0.001230	-0.011279	0.351423	-0.652243	-0.378987	-0.554482	-164.560374	-81.762627	46.931946
37169		9.659736	-0.168433	-1.111676	0.289240	0.112893	-0.092693	-0.048224	-0.013078	0.022541	-0.827881	0.386230	0.309326	0.096598	-0.001676	-0.011110	0.351284	-0.652406	-0.378825	-0.554488	-164.537571	-81.750901	46.881138
37170		9.618870	-0.345306	-1.206384	0.087221	0.109274	-0.113321	-0.074236	-0.019811	0.018657	-0.833740	0.378418	0.302734	0.096190	-0.003449	-0.012053	0.351025	-0.652633	-0.378599	-0.554540	-164.551569	-81.736526	46.849698
37171		9.608985	-0.435852	-1.304934	-0.037038	0.066676	-0.106010	-0.070695	-0.034778	0.017628	-0.823486	0.381836	0.310059	0.096092	-0.004355	-0.013031	0.350759	-0.652886	-0.378428	-0.554527	-164.583217	-81.713567	46.840899
37172		9.675346	-0.462355	-1.353590	-0.074025	0.046744	-0.032573	-0.066559	-0.036785	0.018707	-0.831299	0.388184	0.304932	0.096756	-0.004619	-0.013517	0.350493	-0.653145	-0.378254	-0.554509	-164.611029	-81.689840	46.827981
37173		9.693362	-0.331030	-1.351688	0.046700	-0.008316	-0.020054	-0.057164	-0.023553	0.019519	-0.835938	0.381104	0.310547	0.096936	-0.003305	-0.013505	0.350297	-0.653347	-0.378096	-0.554503	-164.616027	-81.672796	46.800083
37174		9.691200	-0.257533	-1.187085	0.188865	0.102993	-0.048028	-0.058236	-0.015136	0.023665	-0.837158	0.384521	0.320313	0.096913	-0.002567	-0.011863	0.350114	-0.653540	-0.377891	-0.554530	-164.597564	-81.660264	46.745441
37175		9.710446	-0.258406	-1.159852	0.204237	0.130246	-0.032804	-0.059522	-0.008362	0.022035	-0.825928	0.382813	0.312256	0.097105	-0.002577	-0.011594	0.349946	-0.653709	-0.377691	-0.554574	-164.578804	-81.651226	46.692163
37176		9.677611	-0.284525	-1.222711	0.151016	0.085425	-0.055535	-0.059537	-0.029574	0.025461	-0.825928	0.372559	0.302734	0.096778	-0.002837	-0.012212	0.349731	-0.653952	-0.377495	-0.554556	-164.569350	-81.630384	46.644617
37177		9.675424	-0.390119	-1.222584	0.060883	0.137387	-0.053683	-0.040460	-0.034154	0.030230	-0.826660	0.385010	0.312988	0.096757	-0.003889	-0.012209	0.349599	-0.654174	-0.377366	-0.554466	-164.535943	-81.605847	46.587568
37178		9.686796	-0.401944	-1.149952	0.088523	0.209771	-0.052251	0.003992	-0.028216	0.027055	-0.826660	0.385742	0.305176	0.096870	-0.004006	-0.011486	0.349603	-0.654301	-0.377345	-0.554327	-164.483640	-81.585589	46.534573
37179		9.692437	-0.320291	-1.032958	0.218429	0.275936	-0.066454	0.051602	-0.027357	0.023038	-0.830811	0.386963	0.306885	0.096926	-0.003189	-0.010317	0.349765	-0.654330	-0.377483	-0.554097	-164.417826	-81.565893	46.498081
37180		9.638635	-0.380869	-1.081895	0.140260	0.257792	-0.110485	0.036058	-0.037747	0.017225	-0.837158	0.385498	0.310303	0.096389	-0.003798	-0.010801	0.349832	-0.654407	-0.377602	-0.553882	-164.393335	-81.541884	46.492286
37181		9.592370	-0.539098	-1.302274	-0.102003	0.137125	-0.118829	0.033255	-0.046803	0.018515	-0.825928	0.381104	0.314941	0.095927	-0.005380	-0.013001	0.349885	-0.654513	-0.377738	-0.553631	-164.375283	-81.512150	46.493449
37182		9.568861	-0.490244	-1.501889	-0.148955	-0.059774	-0.115608	0.086309	-0.059023	0.017887	-0.820557	0.381836	0.315186	0.095693	-0.004887	-0.014993	0.350073	-0.654565	-0.378026	-0.553254	-164.342082	-81.476273	46.507027
37183		9.744728	-0.266264	-1.507176	0.068981	-0.147391	0.050158	0.124687	-0.045835	0.015925	-0.831055	0.382080	0.315674	0.097451	-0.002645	-0.015051	0.350420	-0.654503	-0.378421	-0.552837	-164.280404	-81.447474	46.517048
37184		9.786475	-0.023500	-1.376993	0.350910	-0.140966	0.062977	0.115996	-0.012219	0.011780	-0.826904	0.389893	0.305420	0.097866	-0.000221	-0.013764	0.350774	-0.654365	-0.378726	-0.552568	-164.204473	-81.438327	46.504043
37185		9.753181	0.095276	-1.231948	0.520810	-0.072912	0.004377	0.046864	0.002592	0.014201	-0.831787	0.391357	0.312012	0.097532	0.000963	-0.012321	0.350953	-0.654301	-0.378826	-0.552460	-164.143868	-81.436497	46.470058
37186		9.734986	0.032056	-1.196959	0.480080	-0.014958	-0.016107	-0.034138	-0.002006	0.014834	-0.830811	0.392822	0.311523	0.097350	0.000326	-0.011969	0.350849	-0.654399	-0.378695	-0.552500	-164.131847	-81.432535	46.435907
37187		9.663639	-0.126931	-1.291733	0.290298	-0.030906	-0.066643	-0.062708	-0.015867	0.025017	-0.826172	0.385742	0.307617	0.096638	-0.001261	-0.012909	0.350664	-0.654600	-0.378490	-0.552520	-164.113736	-81.418832	46.381406
37188		9.561899	-0.231302	-1.305940	0.183899	-0.003956	-0.161001	-0.057228	-0.032943	0.036065	-0.833496	0.382568	0.317139	0.095622	-0.002300	-0.013043	0.350484	-0.654865	-0.378278	-0.552466	-164.070050	-81.394493	46.301683
37189		9.486944	-0.326281	-1.340089	0.080858	0.004642	-0.226351	-0.050238	-0.038427	0.044848	-0.829102	0.385010	0.314941	0.094873	-0.003245	-0.013382	0.350352	-0.655143	-0.378082	-0.552354	-163.996618	-81.365224	46.198447
37190		9.533036	-0.318272	-1.333368	0.099457	0.013420	-0.182118	-0.051023	-0.019101	0.031445	-0.831299	0.387939	0.314697	0.095332	-0.003171	-0.013324	0.350202	-0.655352	-0.377875	-0.552343	-163.953165	-81.349202	46.121743
37191		9.699519	-0.277742	-1.325445	0.159262	0.020537	-0.020404	-0.068142	-0.020848	0.039479	-0.832031	0.388916	0.315186	0.096997	-0.002763	-0.013243	0.350029	-0.655603	-0.377616	-0.552332	-163.891935	-81.330434	46.020462
37192		9.760734	-0.344518	-1.305892	0.119105	0.076711	0.040023	-0.059348	-0.020594	0.038150	-0.827637	0.387695	0.311523	0.097609	-0.003430	-0.013048	0.349869	-0.655842	-0.377368	-0.552319	-163.830724	-81.312504	45.921375
37193		9.749449	-0.399491	-1.320817	0.066094	0.089572	0.033302	-0.053369	-0.025141	0.037421	-0.824707	0.393799	0.314941	0.097497	-0.003980	-0.013195	0.349732	-0.656074	-0.377164	-0.552269	-163.773617	-81.291671	45.832817
37194		9.634996	-0.457362	-1.327122	0.003006	0.099977	-0.076489	-0.006761	-0.014929	0.022429	-0.830322	0.385498	0.322021	0.096351	-0.004563	-0.013264	0.349713	-0.656175	-0.377104	-0.552202	-163.732991	-81.279354	45.785259
37195		9.598668	-0.381238	-1.242300	0.107842	0.135156	-0.128000	0.015487	-0.016149	0.024944	-0.829102	0.382080	0.312012	0.095988	-0.003799	-0.012416	0.349783	-0.656239	-0.377116	-0.552074	-163.672247	-81.265449	45.732928
37196		9.623804	-0.275306	-1.243032	0.206832	0.088277	-0.107640	0.021500	-0.028977	0.032515	-0.825439	0.391357	0.320068	0.096240	-0.002736	-0.012417	0.349855	-0.656350	-0.377123	-0.551892	-163.595330	-81.243782	45.664508
37197		9.708104	-0.337717	-1.219956	0.176192	0.148709	-0.025120	0.038914	-0.042413	0.039972	-0.827393	0.385010	0.316162	0.097084	-0.003355	-0.012180	0.349995	-0.656474	-0.377195	-0.551607	-163.495782	-81.212984	45.586488
37198		9.669352	-0.310234	-1.324595	0.153897	0.042159	-0.049404	0.012257	-0.050334	0.047054	-0.828369	0.394287	0.317627	0.096698	-0.003079	-0.013222	0.350036	-0.656687	-0.377165	-0.551347	-163.395444	-81.177164	45.488873
37199		9.613353	-0.311329	-1.437973	0.100558	-0.060233	-0.088105	0.011857	-0.044907	0.041046	-0.822510	0.396240	0.318115	0.096137	-0.003093	-0.014358	0.350085	-0.656867	-0.377164	-0.551102	-163.311501	-81.144781	45.410942
37200		9.630995	-0.216746	-1.393171	0.211913	-0.061960	-0.081540	0.033082	-0.033474	0.046995	-0.829102	0.386719	0.312744	0.096313	-0.002143	-0.013916	0.350228	-0.656997	-0.377163	-0.550857	-163.182472	-81.118158	45.296633
37201		9.696839	-0.210057	-1.358006	0.246200	-0.026330	-0.022096	-0.000549	-0.023116	0.043242	-0.820801	0.389893	0.323242	0.096970	-0.002080	-0.013569	0.350283	-0.657142	-0.377082	-0.550704	-163.076057	-81.097311	45.188751
37202		9.692811	-0.255698	-1.419457	0.180766	-0.058705	-0.014998	-0.023823	-0.012399	0.029845	-0.825684	0.380859	0.318848	0.096929	-0.002544	-0.014188	0.350230	-0.657281	-0.376944	-0.550666	-163.019170	-81.085081	45.114342
37203		9.691333	-0.291340	-1.377339	0.171218	-0.004763	-0.021133	-0.028290	-0.013248	0.031109	-0.835693	0.390381	0.316406	0.096915	-0.002900	-0.013767	0.350179	-0.657425	-0.376810	-0.550619	-162.961139	-81.071635	45.039338
37204		9.624649	-0.305677	-1.416728	0.136326	-0.039463	-0.080561	-0.002620	-0.017988	0.038566	-0.824951	0.398193	0.318848	0.096248	-0.003038	-0.014159	0.350210	-0.657558	-0.376713	-0.550507	-162.868758	-81.054885	44.941566
37205		9.622904	-0.342891	-1.375934	0.126782	0.014475	-0.086703	-0.009840	-0.036201	0.049482	-0.829590	0.393066	0.318848	0.096232	-0.003406	-0.013742	0.350227	-0.657767	-0.376609	-0.550317	-162.761595	-81.025729	44.827517
37206		9.617126	-0.423132	-1.396017	0.052079	0.035544	-0.085764	-0.015360	-0.041374	0.056978	-0.825439	0.389404	0.319092	0.096175	-0.004205	-0.013940	0.350224	-0.658021	-0.376457	-0.550119	-162.637832	-80.992942	44.690558
37207		9.661494	-0.487849	-1.431229	-0.009843	0.042476	-0.033680	-0.020883	-0.054023	0.050831	-0.826172	0.385986	0.313965	0.096620	-0.004855	-0.014286	0.350175	-0.658301	-0.376349	-0.549889	-162.553130	-80.953743	44.592824
37208		9.714468	-0.472188	-1.474550	-0.003646	0.006132	0.024390	-0.035759	-0.055430	0.054836	-0.825684	0.395264	0.314209	0.097150	-0.004698	-0.014718	0.350073	-0.658624	-0.376174	-0.549687	-162.466310	-80.913631	44.481650
37209		9.679207	-0.402513	-1.519843	0.039212	-0.067562	-0.006930	-0.047799	-0.043522	0.056835	-0.828613	0.390137	0.317871	0.096797	-0.004001	-0.015176	0.349971	-0.658934	-0.375954	-0.549531	-162.366819	-80.879081	44.353297
37210		9.696543	-0.304033	-1.348444	0.212547	0.039535	-0.020500	-0.055992	-0.035251	0.054084	-0.829102	0.395020	0.320557	0.096969	-0.003018	-0.013467	0.349840	-0.659234	-0.375693	-0.549434	-162.273599	-80.850053	44.224283
37211		9.642436	-0.291214	-1.230170	0.277040	0.132186	-0.092581	-0.079156	-0.024293	0.047694	-0.832031	0.399902	0.321533	0.096427	-0.002894	-0.012289	0.349646	-0.659528	-0.375383	-0.549416	-162.203635	-80.827530	44.107620
37212		9.634896	-0.440216	-1.289778	0.121767	0.151328	-0.083823	-0.117560	-0.030375	0.049734	-0.826904	0.394043	0.313232	0.096352	-0.004386	-0.012881	0.349308	-0.659915	-0.374956	-0.549458	-162.155883	-80.801846	43.988552
37213		9.685295	-0.662111	-1.432738	-0.129131	0.140122	-0.001481	-0.109743	-0.041777	0.047903	-0.827637	0.393555	0.321777	0.096858	-0.006606	-0.014304	0.348980	-0.660311	-0.374591	-0.549439	-162.122596	-80.769720	43.891273
37214		9.673579	-0.815728	-1.470442	-0.278235	0.181865	0.000327	-0.071279	-0.035766	0.045910	-0.833496	0.395020	0.320557	0.096740	-0.008140	-0.014684	0.348776	-0.660622	-0.374316	-0.549382	-162.068253	-80.741789	43.792850
37215		9.618111	-0.876570	-1.519589	-0.356314	0.163757	-0.043767	-0.011077	-0.029802	0.040947	-0.825439	0.388184	0.314697	0.096185	-0.008747	-0.015181	0.348778	-0.660800	-0.374224	-0.549230	-161.989664	-80.717389	43.706932
37216		9.495543	-0.850301	-1.584781	-0.372962	0.081492	-0.155869	0.053323	-0.029961	0.044640	-0.822510	0.394775	0.329102	0.094960	-0.008478	-0.015836	0.348992	-0.660875	-0.374286	-0.548961	-161.863052	-80.692809	43.607670
37217		9.565121	-0.744380	-1.678909	-0.310865	-0.043173	-0.077911	0.082006	-0.021921	0.026371	-0.827637	0.391113	0.311279	0.095654	-0.007424	-0.016782	0.349276	-0.660841	-0.374484	-0.548686	-161.771878	-80.675254	43.563035
37218		9.719805	-0.561812	-1.642353	-0.111935	-0.081426	0.059922	0.102368	-0.008120	0.021579	-0.819092	0.395752	0.316650	0.097199	-0.005599	-0.016422	0.349628	-0.660730	-0.374715	-0.548439	-161.670147	-80.666594	43.516945
37219		9.863792	-0.295390	-1.512633	0.201647	-0.080818	0.168420	0.101452	0.021597	0.022272	-0.823975	0.391357	0.326904	0.098637	-0.002935	-0.015138	0.350046	-0.660534	-0.374904	-0.548278	-161.533968	-80.673413	43.437989
37220		9.769269	-0.118434	-1.360644	0.417624	-0.046269	0.042638	0.072632	0.034519	0.023172	-0.825928	0.389893	0.321045	0.097690	-0.001168	-0.013624	0.350383	-0.660362	-0.374971	-0.548225	-161.396773	-80.687570	43.338316
37221		9.625030	-0.152625	-1.235211	0.428913	0.060402	-0.117192	0.003723	0.022418	0.014677	-0.826172	0.395020	0.322021	0.096249	-0.001519	-0.012363	0.350459	-0.660321	-0.374916	-0.548264	-161.340472	-80.696172	43.283567
37222		9.542463	-0.352828	-1.237476	0.242220	0.142971	-0.187963	-0.063963	0.002237	0.015949	-0.817627	0.399658	0.328613	0.095425	-0.003525	-0.012375	0.350263	-0.660463	-0.374689	-0.548373	-161.341584	-80.694120	43.244751
37223		9.537468	-0.532035	-1.402697	0.009519	0.084267	-0.158324	-0.080463	-0.029092	0.033190	-0.826172	0.392578	0.325684	0.095378	-0.005310	-0.014011	0.350015	-0.660745	-0.374432	-0.548366	-161.329858	-80.671362	43.186290
37224		9.733989	-0.610229	-1.416485	-0.039118	0.132994	0.041760	-0.044165	-0.023471	0.035296	-0.821533	0.393555	0.324219	0.097343	-0.006088	-0.014152	0.349888	-0.660961	-0.374236	-0.548321	-161.284126	-80.651755	43.110870
37225		9.782667	-0.631256	-1.389357	-0.035955	0.172768	0.086718	-0.007519	-0.010709	0.034373	-0.824463	0.400635	0.322510	0.097828	-0.006296	-0.013888	0.349919	-0.661068	-0.374143	-0.548237	-161.206605	-80.638739	43.028078
37226		9.656315	-0.645412	-1.512285	-0.117681	0.057669	-0.018260	0.003097	-0.000222	0.029074	-0.826416	0.399902	0.323486	0.096564	-0.006440	-0.015123	0.349977	-0.661123	-0.374061	-0.548189	-161.128722	-80.632898	42.948170
37227		9.508767	-0.593844	-1.599147	-0.128212	-0.059675	-0.153155	0.013213	-0.001296	0.020518	-0.823975	0.395752	0.324219	0.095088	-0.005928	-0.015991	0.350055	-0.661142	-0.374054	-0.548121	-161.074585	-80.627522	42.901114
37228		9.580143	-0.448364	-1.607603	0.005080	-0.129018	-0.089114	0.029657	0.008715	0.006780	-0.822998	0.397949	0.324463	0.095801	-0.004478	-0.016081	0.350157	-0.661084	-0.374102	-0.548092	-161.044796	-80.630644	42.885416
37229		9.728648	-0.273091	-1.521967	0.216414	-0.122028	0.034943	0.011207	0.013690	0.006309	-0.829102	0.392578	0.317383	0.097286	-0.002727	-0.015226	0.350218	-0.661038	-0.374111	-0.548103	-161.021585	-80.636024	42.868538
37230		9.775188	-0.259574	-1.384183	0.297000	-0.004393	0.058959	-0.048173	0.022298	0.012215	-0.828613	0.394775	0.322021	0.097750	-0.002593	-0.013852	0.350104	-0.661089	-0.373906	-0.548254	-161.003476	-80.645517	42.819786
37231		9.700375	-0.412027	-1.349890	0.169326	0.088449	-0.012037	-0.092704	0.019459	0.016203	-0.828125	0.405273	0.330078	0.097003	-0.004119	-0.013506	0.349860	-0.661228	-0.373587	-0.548460	-161.000673	-80.652176	42.763253
37232		9.634819	-0.583532	-1.344609	0.013760	0.166940	-0.068450	-0.115418	0.002568	0.034457	-0.831787	0.396240	0.323730	0.096349	-0.005826	-0.013444	0.349546	-0.661493	-0.373156	-0.548634	-160.969841	-80.646785	42.662112
37233		9.643432	-0.739114	-1.477093	-0.181682	0.126779	-0.031338	-0.077802	-0.001661	0.030787	-0.824707	0.399414	0.316162	0.096436	-0.007382	-0.014767	0.349351	-0.661691	-0.372866	-0.548717	-160.934529	-80.639271	42.581284
37234		9.652772	-0.660605	-1.483734	-0.113823	0.083973	-0.025253	-0.019178	0.013705	0.017645	-0.827881	0.399170	0.322021	0.096527	-0.006599	-0.014843	0.349333	-0.661723	-0.372740	-0.548774	-160.891482	-80.643094	42.524467
37235		9.655107	-0.493094	-1.420648	0.062523	0.057402	-0.041543	0.010750	0.026420	0.007032	-0.823975	0.397461	0.325439	0.096549	-0.004927	-0.014219	0.349419	-0.661644	-0.372723	-0.548827	-160.851520	-80.655223	42.490348
37236		9.609348	-0.368524	-1.322884	0.210679	0.075765	-0.108292	0.011622	0.029337	0.001954	-0.832764	0.392090	0.317383	0.096092	-0.003684	-0.013243	0.349487	-0.661553	-0.372703	-0.548908	-160.824236	-80.670413	42.466824
37237		9.616278	-0.355497	-1.240887	0.260092	0.139892	-0.114659	-0.003095	0.020872	0.006218	-0.830811	0.399414	0.323975	0.096162	-0.003552	-0.012419	0.349514	-0.661512	-0.372659	-0.548969	-160.801078	-80.679687	42.441697
37238		9.622305	-0.379743	-1.243418	0.238114	0.148613	-0.107005	-0.024444	0.011226	0.015882	-0.829102	0.397217	0.322021	0.096223	-0.003791	-0.012439	0.349468	-0.661557	-0.372528	-0.549032	-160.769644	-80.682496	42.393419
37239		9.698429	-0.487897	-1.253925	0.148479	0.199034	-0.024519	-0.033935	-0.003289	0.023285	-0.823975	0.394043	0.317383	0.096985	-0.004870	-0.012537	0.349395	-0.661669	-0.372386	-0.549041	-160.735645	-80.675473	42.339399
37240		9.675611	-0.596656	-1.406451	-0.019373	0.115450	-0.017900	-0.013631	0.001995	0.019859	-0.833252	0.395264	0.324951	0.096757	-0.005958	-0.014065	0.349379	-0.661728	-0.372287	-0.549047	-160.695351	-80.672528	42.288333
37241		9.597187	-0.562011	-1.436050	-0.010825	0.064118	-0.092612	0.035286	-0.002850	0.015968	-0.830322	0.398438	0.320068	0.095973	-0.005610	-0.014360	0.349516	-0.661704	-0.372359	-0.548941	-160.645374	-80.667118	42.258312
37242		9.546647	-0.480136	-1.400838	0.072213	0.049696	-0.152271	0.040168	0.002143	0.004264	-0.829102	0.403564	0.318848	0.095466	-0.004797	-0.014010	0.349634	-0.661640	-0.372458	-0.548875	-160.625434	-80.667194	42.258929
37243		9.619843	-0.398994	-1.472804	0.118758	-0.044020	-0.073401	0.023895	0.003195	0.000376	-0.833252	0.399414	0.322266	0.096198	-0.003988	-0.014730	0.349701	-0.661590	-0.372539	-0.548838	-160.626307	-80.668011	42.273825
37244		9.707039	-0.392392	-1.532782	0.106478	-0.090330	0.021462	0.007152	0.012727	-0.002123	-0.823975	0.404785	0.323242	0.097069	-0.003924	-0.015334	0.349714	-0.661543	-0.372551	-0.548878	-160.633783	-80.675015	42.283366
37245		9.740977	-0.409464	-1.680736	0.025729	-0.208633	0.078469	-0.001581	0.023989	0.005333	-0.823486	0.394775	0.315430	0.097408	-0.004092	-0.016819	0.349750	-0.661489	-0.372510	-0.548948	-160.608857	-80.686129	42.257325
37246		9.698299	-0.415432	-1.710723	0.000339	-0.239218	0.041192	0.017238	0.037641	0.008855	-0.827148	0.406250	0.316406	0.096980	-0.004149	-0.017126	0.349872	-0.661376	-0.372469	-0.549033	-160.545395	-80.704498	42.200718
37247		9.636033	-0.381052	-1.557091	0.092801	-0.132451	-0.045563	0.037003	0.055484	-0.000815	-0.827637	0.401611	0.322266	0.096356	-0.003808	-0.015598	0.350077	-0.661157	-0.372499	-0.549147	-160.481608	-80.733791	42.157703
37248		9.604585	-0.429294	-1.465916	0.086200	-0.037684	-0.087853	0.012845	0.054955	-0.007704	-0.827881	0.398926	0.322998	0.096042	-0.004296	-0.014686	0.350172	-0.660974	-0.372472	-0.549325	-160.454637	-80.764649	42.135682
37249		9.669200	-0.623528	-1.567981	-0.127510	-0.030157	0.001772	-0.019443	0.042899	-0.015069	-0.824463	0.397217	0.317139	0.096688	-0.006244	-0.015700	0.350128	-0.660861	-0.372415	-0.549527	-160.485032	-80.789871	42.155325
37250		9.726439	-0.729608	-1.602122	-0.232868	-0.006529	0.069037	0.030100	0.052692	-0.001185	-0.825928	0.406250	0.315186	0.097260	-0.007294	-0.016048	0.350291	-0.660667	-0.372416	-0.549656	-160.429292	-80.818265	42.113785
37251		9.689965	-0.562277	-1.592200	-0.087775	-0.086729	0.022528	0.094034	0.056545	0.004752	-0.831543	0.402832	0.314209	0.096895	-0.005613	-0.015952	0.350702	-0.660355	-0.372582	-0.549657	-160.311958	-80.847042	42.049642
37252		9.664112	-0.340230	-1.442061	0.172063	-0.070628	-0.037425	0.096118	0.071152	0.007198	-0.826416	0.402100	0.315186	0.096636	-0.003392	-0.014457	0.351144	-0.660007	-0.372708	-0.549707	-160.166831	-80.883736	41.956643
37253		9.632860	-0.155352	-1.224215	0.428927	0.021533	-0.110607	0.066982	0.082330	-0.004713	-0.826660	0.402344	0.323242	0.096324	-0.001552	-0.012282	0.351487	-0.659654	-0.372785	-0.549859	-160.064144	-80.928205	41.891650
37254		9.622489	-0.169962	-1.145756	0.447214	0.089640	-0.131473	0.003641	0.074428	-0.005828	-0.830322	0.400635	0.316406	0.096221	-0.001702	-0.011493	0.351591	-0.659437	-0.372689	-0.550117	-160.010511	-80.969144	41.836803
37255		9.599674	-0.310021	-1.248569	0.270171	0.059584	-0.131147	-0.041377	0.048796	-0.004382	-0.834961	0.399658	0.312256	0.095994	-0.003105	-0.012508	0.351515	-0.659367	-0.372527	-0.550360	-160.009106	-80.995473	41.811510
37256		9.608123	-0.497000	-1.332302	0.065377	0.072876	-0.100403	-0.035069	0.045977	0.007651	-0.834473	0.402100	0.324707	0.096078	-0.004969	-0.013344	0.351477	-0.659320	-0.372333	-0.550572	-159.966824	-81.018494	41.746189
37257		9.680702	-0.547569	-1.377528	0.006600	0.061639	-0.019344	-0.003591	0.040612	0.006719	-0.834473	0.397705	0.312012	0.096804	-0.005473	-0.013795	0.351540	-0.659227	-0.372252	-0.550698	-159.915782	-81.038232	41.692566
37258		9.802198	-0.481215	-1.288825	0.118508	0.116002	0.084192	0.030930	0.052948	0.010103	-0.824219	0.403076	0.311035	0.098019	-0.004805	-0.012915	0.351737	-0.659051	-0.372216	-0.550806	-159.817891	-81.064478	41.608761
37259		9.802834	-0.346897	-1.179361	0.285611	0.142810	0.061765	0.030981	0.057184	0.009432	-0.833740	0.399658	0.322510	0.098025	-0.003463	-0.011822	0.351953	-0.658856	-0.372192	-0.550918	-159.716146	-81.092562	41.523872
37260		9.671006	-0.466930	-1.270864	0.120325	0.101687	-0.048638	-0.013539	0.051436	0.005753	-0.841309	0.406250	0.308594	0.096707	-0.004667	-0.012733	0.351989	-0.658754	-0.372051	-0.551112	-159.659372	-81.118822	41.455897
37261		9.443570	-0.578407	-1.403078	-0.067120	0.012796	-0.248195	-0.020104	0.031728	0.005274	-0.835693	0.406006	0.309326	0.094434	-0.005783	-0.014045	0.351978	-0.658712	-0.371945	-0.551242	-159.632855	-81.134032	41.417532
37262		9.424370	-0.517463	-1.491382	-0.058387	-0.097888	-0.257702	0.012777	0.036535	0.003285	-0.836914	0.410889	0.308105	0.094241	-0.005172	-0.014931	0.352071	-0.658596	-0.371917	-0.551339	-159.588103	-81.152802	41.378089
37263		9.582581	-0.360970	-1.428623	0.124967	-0.105030	-0.118850	0.047312	0.048850	0.006723	-0.836914	0.398438	0.314209	0.095822	-0.003603	-0.014310	0.352317	-0.658390	-0.371962	-0.551398	-159.495551	-81.176903	41.311991
37264		9.832377	-0.180681	-1.218608	0.408010	0.013472	0.088153	0.003233	0.053362	0.014422	-0.835205	0.407471	0.311768	0.098321	-0.001800	-0.012212	0.352439	-0.658268	-0.371838	-0.551549	-159.395393	-81.202425	41.210507
37265		9.854613	-0.308846	-1.185208	0.311898	0.100660	0.112336	-0.046417	0.061046	0.021249	-0.832275	0.402344	0.311035	0.098543	-0.003081	-0.011881	0.352440	-0.658220	-0.371555	-0.551796	-159.289257	-81.230093	41.076333
37266		9.742410	-0.490360	-1.185624	0.137564	0.170625	0.011399	-0.069168	0.050900	0.015404	-0.835938	0.408203	0.305908	0.097421	-0.004900	-0.011879	0.352320	-0.658234	-0.371233	-0.552074	-159.229292	-81.254053	40.973392
37267		9.698468	-0.664939	-1.275207	-0.064348	0.167220	-0.009806	-0.035450	0.050099	0.009758	-0.842773	0.395508	0.307373	0.096982	-0.006647	-0.012775	0.352305	-0.658176	-0.371037	-0.552284	-159.170217	-81.278145	40.893206
37268		9.611219	-0.672003	-1.210883	-0.052649	0.214277	-0.104718	0.031376	0.044246	0.001893	-0.834961	0.406738	0.304688	0.096110	-0.006717	-0.012131	0.352468	-0.658004	-0.371050	-0.552376	-159.107934	-81.301295	40.846579
37269		9.568521	-0.542456	-1.136195	0.089430	0.209996	-0.164387	0.062122	0.037399	0.004961	-0.839844	0.393066	0.314453	0.095683	-0.005419	-0.011382	0.352737	-0.657800	-0.371161	-0.552372	-159.025983	-81.319544	40.799814
37270		9.625006	-0.416731	-1.046187	0.247445	0.230949	-0.127940	0.059168	0.031336	0.013683	-0.836426	0.397461	0.301758	0.096249	-0.004158	-0.010478	0.352998	-0.657639	-0.371232	-0.552350	-158.923128	-81.333335	40.727770
37271		9.642454	-0.352914	-0.950792	0.349601	0.282665	-0.127475	0.046811	0.028938	0.011885	-0.839111	0.403564	0.307373	0.096423	-0.003521	-0.009523	0.353219	-0.657498	-0.371294	-0.552335	-158.836574	-81.345610	40.667478
37272		9.706838	-0.316311	-0.929556	0.399162	0.287513	-0.068723	0.005178	0.019862	0.022782	-0.825439	0.401123	0.305420	0.097068	-0.003152	-0.009305	0.353308	-0.657479	-0.371208	-0.552358	-158.747825	-81.351379	40.578768
37273		9.693537	-0.440148	-0.980652	0.265596	0.298536	-0.067924	-0.018504	0.015183	0.013611	-0.837646	0.406494	0.307373	0.096935	-0.004396	-0.009813	0.353295	-0.657495	-0.371107	-0.552415	-158.711124	-81.355927	40.531052
37274		9.616187	-0.540205	-1.114452	0.106753	0.220737	-0.120177	-0.020013	0.004865	0.007714	-0.843262	0.408447	0.303467	0.096162	-0.005399	-0.011146	0.353231	-0.657534	-0.371027	-0.552463	-158.709933	-81.356808	40.516090
37275		9.577490	-0.639468	-1.192141	-0.020778	0.196630	-0.142148	-0.004724	-0.006490	0.003069	-0.833984	0.412842	0.303223	0.095775	-0.006393	-0.011918	0.353193	-0.657566	-0.371037	-0.552443	-158.731982	-81.351976	40.535784
37276		9.647768	-0.662274	-1.261235	-0.064233	0.154524	-0.061752	0.025199	-0.007762	0.009873	-0.832275	0.407715	0.304688	0.096478	-0.006616	-0.012609	0.353263	-0.657563	-0.371100	-0.552360	-158.714461	-81.345685	40.531122
37277		9.743196	-0.610235	-1.285016	-0.017626	0.118608	0.033080	0.035493	-0.004450	0.007678	-0.833740	0.405273	0.301025	0.097432	-0.006096	-0.012849	0.353374	-0.657526	-0.371203	-0.552263	-158.694502	-81.340984	40.531632
37278		9.829134	-0.576935	-1.364509	-0.014591	0.041581	0.127367	0.029400	-0.001321	0.009580	-0.831299	0.405762	0.307617	0.098292	-0.005763	-0.013645	0.353468	-0.657498	-0.371265	-0.552195	-158.666915	-81.338202	40.519019
37279		9.708577	-0.546932	-1.428381	-0.031009	-0.040951	0.015499	0.033650	0.009362	0.008602	-0.841553	0.407471	0.307861	0.097085	-0.005463	-0.014289	0.353601	-0.657428	-0.371336	-0.552145	-158.625885	-81.340678	40.497147
37280		9.656172	-0.435770	-1.412406	0.067519	-0.086388	-0.044657	0.061903	0.024252	-0.006882	-0.827881	0.409180	0.309814	0.096560	-0.004357	-0.014137	0.353802	-0.657242	-0.371495	-0.552131	-158.602315	-81.354959	40.507025
37281		9.642749	-0.323213	-1.337836	0.197370	-0.078132	-0.074524	0.060384	0.040743	-0.015231	-0.837891	0.402588	0.305176	0.096425	-0.003235	-0.013399	0.354015	-0.656994	-0.371662	-0.552177	-158.586396	-81.379157	40.526046
37282		9.689719	-0.373475	-1.260960	0.191172	0.015106	-0.036012	0.036718	0.031996	-0.016757	-0.837402	0.409180	0.312500	0.096895	-0.003741	-0.012626	0.354120	-0.656814	-0.371769	-0.552252	-158.601438	-81.399633	40.560271
37283		9.633629	-0.462899	-1.260940	0.103943	0.050339	-0.086552	0.010374	0.023068	-0.004450	-0.834473	0.410889	0.302246	0.096335	-0.004630	-0.012621	0.354166	-0.656723	-0.371794	-0.552314	-158.600674	-81.412147	40.565638
37284		9.632091	-0.533270	-1.299373	0.023020	0.048911	-0.078880	-0.004910	0.007623	0.002639	-0.839111	0.405273	0.310059	0.096320	-0.005332	-0.012997	0.354143	-0.656719	-0.371767	-0.552352	-158.604834	-81.415563	40.564874
37285		9.684837	-0.645870	-1.312573	-0.076117	0.095282	-0.018751	0.019415	0.005272	0.009292	-0.832031	0.411865	0.302979	0.096848	-0.006453	-0.013129	0.354223	-0.656687	-0.371803	-0.552314	-158.574975	-81.415711	40.546055
37286		9.696100	-0.558043	-1.215475	0.047623	0.138592	-0.025877	0.051544	0.015585	0.011151	-0.828613	0.414551	0.309082	0.096960	-0.005572	-0.012164	0.354424	-0.656576	-0.371889	-0.552258	-158.505687	-81.421597	40.503736
37287		9.676099	-0.484732	-1.075036	0.174467	0.222812	-0.069101	0.059890	0.028277	0.003592	-0.835938	0.407959	0.297363	0.096760	-0.004842	-0.010765	0.354664	-0.656399	-0.372015	-0.552231	-158.440676	-81.435200	40.472819
37288		9.683647	-0.499155	-0.972579	0.208401	0.317693	-0.074940	0.056613	0.028774	-0.008825	-0.842285	0.398193	0.305664	0.096835	-0.004993	-0.009741	0.354852	-0.656205	-0.372160	-0.552243	-158.420457	-81.452321	40.483337
37289		9.645774	-0.536376	-1.110905	0.105537	0.209285	-0.091174	0.039240	0.011107	-0.020169	-0.848877	0.404053	0.304443	0.096457	-0.005371	-0.011115	0.354927	-0.656066	-0.372337	-0.552240	-158.475483	-81.461772	40.561842
37290		9.700715	-0.515749	-1.147110	0.111561	0.173135	-0.032948	0.059047	0.003691	-0.011559	-0.836426	0.405273	0.310059	0.097007	-0.005160	-0.011474	0.355066	-0.655933	-0.372539	-0.552172	-158.499194	-81.466124	40.617732
37291		9.766812	-0.246901	-1.131992	0.362433	0.066608	0.015699	0.084835	-0.004065	-0.004345	-0.842041	0.404297	0.302979	0.097668	-0.002466	-0.011319	0.355306	-0.655786	-0.372817	-0.552006	-158.493247	-81.464154	40.660995
37292		9.702271	-0.088836	-1.111579	0.504289	0.004454	-0.059573	0.050657	-0.006027	0.003478	-0.840820	0.404541	0.301025	0.097023	-0.000884	-0.011113	0.355441	-0.655723	-0.372962	-0.551895	-158.481692	-81.460150	40.676198
37293		9.614636	-0.133256	-1.136121	0.444774	-0.003803	-0.140463	-0.019751	-0.011976	0.007625	-0.838867	0.409424	0.309814	0.096147	-0.001330	-0.011355	0.355356	-0.655805	-0.372926	-0.551877	-158.504211	-81.451449	40.687651
37294		9.583172	-0.246984	-1.115175	0.351443	0.066465	-0.168318	-0.057417	-0.018900	0.011820	-0.841797	0.405273	0.302490	0.095833	-0.002467	-0.011142	0.355136	-0.655985	-0.372770	-0.551910	-158.542961	-81.438845	40.691280
37295		9.684113	-0.378019	-1.101095	0.255649	0.152294	-0.063390	-0.068236	-0.026289	0.024444	-0.837891	0.409912	0.302734	0.096843	-0.003772	-0.010997	0.354912	-0.656223	-0.372571	-0.551905	-158.553560	-81.418986	40.662586
37296		9.714880	-0.524472	-1.102695	0.131576	0.225228	-0.024845	-0.069623	-0.028159	0.017207	-0.840088	0.405762	0.293213	0.097151	-0.005240	-0.011011	0.354650	-0.656459	-0.372382	-0.551920	-158.593037	-81.400339	40.660228
37297		9.661589	-0.671926	-1.069052	0.013494	0.322193	-0.074275	-0.069710	-0.036655	0.018602	-0.835693	0.406982	0.306396	0.096618	-0.006714	-0.010670	0.354386	-0.656718	-0.372216	-0.551894	-158.639337	-81.376175	40.666784
37298		9.610566	-0.725574	-1.143664	-0.070795	0.281346	-0.111490	-0.057228	-0.056896	0.022274	-0.837646	0.411133	0.305420	0.096110	-0.007248	-0.011407	0.354127	-0.657019	-0.372096	-0.551782	-158.693078	-81.341156	40.686300
37299		9.623482	-0.642877	-1.180856	-0.009129	0.216025	-0.098143	-0.011670	-0.068015	0.030361	-0.837402	0.409424	0.296143	0.096240	-0.006415	-0.011775	0.354028	-0.657284	-0.372107	-0.551524	-158.707474	-81.297804	40.694223
37300		9.716137	-0.428572	-1.126851	0.220162	0.175440	-0.026088	0.033399	-0.055332	0.031258	-0.840820	0.406006	0.303711	0.097165	-0.004269	-0.011242	0.354095	-0.657436	-0.372206	-0.551232	-158.675405	-81.261744	40.679596
37301		9.762429	-0.125870	-1.061982	0.526772	0.097346	-0.006480	0.030849	-0.050209	0.029335	-0.841064	0.404785	0.304443	0.097627	-0.001243	-0.010596	0.354165	-0.657574	-0.372306	-0.550955	-158.645016	-81.228109	40.666856
37302		9.676068	-0.063750	-0.966849	0.619158	0.146040	-0.109056	-0.016836	-0.042393	0.017969	-0.835449	0.411865	0.298584	0.096763	-0.000630	-0.009648	0.354053	-0.657756	-0.372285	-0.550824	-158.670620	-81.201744	40.681067
37303		9.560493	-0.118187	-0.976790	0.556500	0.156014	-0.219092	-0.071363	-0.063981	0.015651	-0.832764	0.407715	0.309326	0.095608	-0.001178	-0.009737	0.353724	-0.658087	-0.372172	-0.550716	-158.764228	-81.163604	40.734542
37304		9.551672	-0.302490	-1.123716	0.329817	0.120047	-0.196790	-0.087210	-0.088000	0.026988	-0.838135	0.411133	0.307617	0.095522	-0.003017	-0.011194	0.353321	-0.658536	-0.372009	-0.550549	-158.859091	-81.111013	40.778195
37305		9.717889	-0.364022	-1.142798	0.293043	0.157018	-0.026711	-0.064913	-0.106157	0.046341	-0.830322	0.412109	0.307861	0.097186	-0.003621	-0.011375	0.353018	-0.659028	-0.371888	-0.550236	-158.898673	-81.043973	40.780738
37306		9.721935	-0.490203	-1.177533	0.175004	0.194807	-0.010937	-0.037367	-0.109463	0.051452	-0.841553	0.406250	0.309082	0.097227	-0.004879	-0.011721	0.352806	-0.659493	-0.371819	-0.549862	-158.909118	-80.974861	40.767775
37307		9.684984	-0.613083	-1.142764	0.087994	0.287707	-0.045899	-0.038207	-0.112424	0.056594	-0.833984	0.408691	0.313721	0.096858	-0.006106	-0.011372	0.352608	-0.659974	-0.371747	-0.549460	-158.906880	-80.902356	40.743464
37308		9.663264	-0.655303	-1.266278	0.000648	0.206040	-0.046978	-0.025675	-0.124426	0.051903	-0.823975	0.416992	0.312256	0.096642	-0.006530	-0.012602	0.352406	-0.660460	-0.371733	-0.549014	-158.928523	-80.825174	40.748374
37309		9.712050	-0.644904	-1.292327	0.012939	0.192561	0.004271	0.007827	-0.122709	0.039699	-0.824463	0.416016	0.318115	0.097130	-0.006429	-0.012864	0.352295	-0.660856	-0.371862	-0.548522	-158.968746	-80.750650	40.793789
37310		9.672287	-0.574716	-1.193734	0.124138	0.249788	-0.054070	0.036166	-0.116056	0.039419	-0.833252	0.416748	0.316895	0.096731	-0.005726	-0.011882	0.352278	-0.661187	-0.372044	-0.548011	-158.984260	-80.680481	40.828367
37311		9.531508	-0.472522	-1.129135	0.234969	0.250738	-0.209054	0.024738	-0.108314	0.039374	-0.830811	0.419678	0.311279	0.095322	-0.004705	-0.011240	0.352248	-0.661512	-0.372194	-0.547535	-158.996879	-80.613718	40.855643
37312		9.553416	-0.471323	-1.135826	0.244012	0.255414	-0.186929	-0.014011	-0.131292	0.037184	-0.832275	0.412354	0.314697	0.095542	-0.004696	-0.011295	0.352033	-0.661967	-0.372275	-0.547069	-159.066344	-80.535891	40.916224
37313		9.669028	-0.614428	-1.210235	0.107831	0.282051	-0.053533	-0.060194	-0.154098	0.044859	-0.828125	0.408447	0.323486	0.096701	-0.006126	-0.012026	0.351651	-0.662577	-0.372255	-0.546589	-159.164594	-80.443490	40.980996
37314		9.752712	-0.649788	-1.369911	0.023905	0.180797	0.055494	-0.039493	-0.155972	0.048766	-0.833252	0.412109	0.318604	0.097539	-0.006477	-0.013622	0.351334	-0.663166	-0.372267	-0.546070	-159.239327	-80.350077	41.031539
37315		9.703035	-0.602716	-1.456674	0.029516	0.088412	0.017132	0.035958	-0.140607	0.045410	-0.832764	0.411377	0.317871	0.097042	-0.006003	-0.014500	0.351297	-0.663571	-0.372484	-0.545454	-159.262223	-80.264767	41.075789
37316		9.426365	-0.483612	-1.234157	0.211317	0.204824	-0.298132	0.069294	-0.131842	0.032798	-0.826660	0.408936	0.313232	0.094273	-0.004816	-0.012281	0.351344	-0.663871	-0.372805	-0.544839	-159.294191	-80.187522	41.146651
37317		9.327028	-0.507121	-1.114464	0.241942	0.319328	-0.414170	0.045380	-0.142214	0.025796	-0.825439	0.412842	0.323975	0.093279	-0.005057	-0.011079	0.351281	-0.664226	-0.373115	-0.544234	-159.372659	-80.105307	41.252805
37318		9.666651	-0.680830	-1.137842	0.131341	0.432095	-0.065977	0.014755	-0.169528	0.018957	-0.833984	0.416260	0.317871	0.096677	-0.006798	-0.011297	0.351039	-0.664698	-0.373400	-0.543619	-159.518896	-80.010604	41.407932
37319		9.951474	-0.877987	-1.252491	-0.047685	0.472834	0.244428	0.015801	-0.179384	0.023087	-0.828613	0.413086	0.324219	0.099527	-0.008767	-0.012436	0.350801	-0.665200	-0.373703	-0.542950	-159.660415	-79.908889	41.560967
37320		9.933226	-1.003627	-1.321983	-0.181345	0.483812	0.244991	0.078862	-0.177590	0.035561	-0.826416	0.410645	0.331787	0.099346	-0.010013	-0.013136	0.350802	-0.665611	-0.374120	-0.542157	-159.723442	-79.806449	41.669172
37321		9.672187	-0.836316	-1.366259	-0.077304	0.348028	-0.015231	0.150523	-0.178826	0.032166	-0.826904	0.418701	0.326172	0.096735	-0.008337	-0.013582	0.351037	-0.665891	-0.374757	-0.541221	-159.755609	-79.703164	41.789621
37322		9.539209	-0.564286	-1.395666	0.141704	0.190338	-0.158337	0.182738	-0.173482	0.010652	-0.833740	0.418213	0.327637	0.095404	-0.005625	-0.013879	0.351320	-0.666062	-0.375526	-0.540292	-159.824775	-79.607813	41.963954
37323		9.494965	-0.247536	-1.404669	0.419980	0.041593	-0.220472	0.144985	-0.179566	-0.006439	-0.826416	0.415527	0.330322	0.094962	-0.002468	-0.013963	0.351430	-0.666279	-0.376277	-0.539430	-159.969827	-79.511674	42.196036
37324		9.436348	-0.146024	-1.509551	0.462601	-0.090165	-0.266872	0.089098	-0.181372	-0.001834	-0.824951	0.423828	0.327881	0.094377	-0.001454	-0.015011	0.351353	-0.666610	-0.376850	-0.538671	-160.131582	-79.414395	42.410369
37325		9.397040	-0.110795	-1.650492	0.434103	-0.219314	-0.283564	0.048284	-0.195881	0.016045	-0.825928	0.418213	0.323242	0.093987	-0.001096	-0.016413	0.351169	-0.667082	-0.377293	-0.537896	-160.277234	-79.304874	42.586837
37326		9.530965	-0.121711	-1.577524	0.487036	-0.117184	-0.164282	0.010948	-0.212692	0.030814	-0.826904	0.421387	0.327881	0.095327	-0.001202	-0.015674	0.350863	-0.667692	-0.377604	-0.537119	-160.415727	-79.184217	42.732709
37327		9.678220	-0.274685	-1.708242	0.326051	-0.122876	0.012792	-0.064252	-0.229369	0.043340	-0.823242	0.416748	0.332764	0.096802	-0.002731	-0.016971	0.350313	-0.668502	-0.377712	-0.536396	-160.575658	-79.051224	42.858199
37328		9.707574	-0.578452	-2.012090	-0.061824	-0.221400	0.115415	-0.122770	-0.250501	0.042627	-0.826904	0.417480	0.334473	0.097102	-0.005776	-0.019996	0.349518	-0.669469	-0.377689	-0.535723	-160.787759	-78.907733	43.000938
37329		9.758646	-0.716150	-2.207040	-0.251123	-0.297705	0.210453	-0.127957	-0.246073	0.040887	-0.816650	0.416748	0.338623	0.097615	-0.007156	-0.021946	0.348716	-0.670427	-0.377661	-0.535067	-160.998935	-78.765995	43.141578
37330		9.760738	-0.643082	-2.064445	-0.108704	-0.186859	0.182347	-0.093655	-0.223991	0.053638	-0.817383	0.417969	0.332764	0.097632	-0.006414	-0.020532	0.348096	-0.671292	-0.377631	-0.534407	-161.131467	-78.634618	43.220145
37331		9.669776	-0.463851	-1.783640	0.176234	-0.021932	0.029544	-0.112576	-0.187295	0.059609	-0.816650	0.415039	0.338379	0.096716	-0.004620	-0.017743	0.347506	-0.672099	-0.377478	-0.533884	-161.223105	-78.521163	43.247949
37332		9.568960	-0.397583	-1.598751	0.315308	0.108390	-0.108674	-0.152707	-0.169000	0.060493	-0.816406	0.420654	0.358643	0.095704	-0.003959	-0.015904	0.346811	-0.672929	-0.377173	-0.533506	-161.317727	-78.418317	43.253826
37333		9.538492	-0.508980	-1.465365	0.284314	0.287355	-0.157339	-0.205237	-0.169026	0.054846	-0.817871	0.425049	0.352051	0.095399	-0.005079	-0.014568	0.345929	-0.673838	-0.376757	-0.533226	-161.456266	-78.315634	43.275330
37334		9.402478	-0.651437	-1.577576	0.097587	0.254239	-0.260435	-0.200329	-0.177201	0.045447	-0.817383	0.419922	0.352539	0.094040	-0.006509	-0.015686	0.345012	-0.674745	-0.376381	-0.532938	-161.622047	-78.210998	43.324817
37335		9.375416	-0.690288	-1.556488	0.078766	0.303825	-0.289084	-0.146699	-0.192125	0.032447	-0.808838	0.419922	0.351563	0.093770	-0.006899	-0.015470	0.344223	-0.675570	-0.376234	-0.532507	-161.801788	-78.099752	43.422705
37336		9.502559	-0.495802	-1.369953	0.364112	0.407101	-0.214622	-0.101106	-0.205473	0.033735	-0.812256	0.409912	0.352051	0.095040	-0.004949	-0.013599	0.343558	-0.676356	-0.376213	-0.531953	-161.960766	-77.981805	43.524028
37337		9.690819	-0.435507	-1.080501	0.591125	0.673529	-0.093324	-0.116762	-0.228833	0.050520	-0.816406	0.420166	0.356689	0.096922	-0.004337	-0.010692	0.342849	-0.677259	-0.376147	-0.531309	-162.102784	-77.847249	43.600966
37338		9.801115	-0.526587	-0.910499	0.622501	0.900774	-0.016301	-0.185602	-0.273998	0.071352	-0.810059	0.417480	0.356934	0.098025	-0.005239	-0.008966	0.341868	-0.678439	-0.375891	-0.530616	-162.265835	-77.685274	43.657040
37339		9.772025	-0.769160	-0.792926	0.480053	1.139704	-0.056493	-0.257128	-0.318614	0.084328	-0.806396	0.416504	0.362305	0.097736	-0.007660	-0.007764	0.340602	-0.679880	-0.375489	-0.529870	-162.469582	-77.495733	43.714930
37340		9.655577	-1.015678	-0.765520	0.281365	1.293642	-0.164112	-0.278830	-0.349753	0.082627	-0.812500	0.421143	0.364258	0.096573	-0.010127	-0.007472	0.339189	-0.681436	-0.375072	-0.529072	-162.709413	-77.290367	43.795006
37341		9.776223	-0.975432	-0.504759	0.480258	1.547143	-0.109267	-0.248762	-0.378380	0.072569	-0.809570	0.415039	0.373535	0.097775	-0.009725	-0.004851	0.337805	-0.682992	-0.374830	-0.528121	-162.972305	-77.069999	43.918561
37342		9.895280	-0.853258	-0.154510	0.793837	1.839003	-0.083544	-0.285761	-0.408400	0.062111	-0.806641	0.420410	0.378174	0.098958	-0.008504	-0.001331	0.336201	-0.684668	-0.374560	-0.527165	-163.295266	-76.835792	44.079953
37343		9.990145	-0.854329	0.010081	0.911950	2.032992	-0.036796	-0.369571	-0.466875	0.047039	-0.798340	0.408691	0.387939	0.099903	-0.008519	0.000350	0.334166	-0.686604	-0.374230	-0.526174	-163.732181	-76.570649	44.311436
37344		10.011318	-0.860341	-0.017337	0.927275	2.060152	-0.021741	-0.424501	-0.551263	0.057088	-0.800293	0.414063	0.387451	0.100116	-0.008575	0.000121	0.331796	-0.688870	-0.373838	-0.524990	-164.218532	-76.258105	44.558568
37345		9.875640	-0.571769	-0.047665	1.174346	1.916587	-0.179166	-0.387789	-0.625779	0.091319	-0.800537	0.407227	0.395264	0.098760	-0.005673	-0.000157	0.329510	-0.691321	-0.373564	-0.523401	-164.638285	-75.897633	44.762228
37346		9.663653	-0.027361	-0.051002	1.644129	1.654039	-0.434513	-0.381828	-0.687695	0.105398	-0.790283	0.416260	0.397461	0.096638	-0.000223	-0.000177	0.327150	-0.693944	-0.373332	-0.521572	-165.044262	-75.501709	44.952606
37347		9.579050	0.560868	-0.134143	2.135827	1.323193	-0.551058	-0.413584	-0.744518	0.113062	-0.790771	0.408447	0.406738	0.095791	0.005661	-0.000997	0.324600	-0.696766	-0.373098	-0.519567	-165.467930	-75.071604	45.145750
37348		9.519701	0.991339	-0.177627	2.516175	1.109764	-0.643399	-0.502334	-0.808156	0.131337	-0.791748	0.405762	0.418945	0.095197	0.009972	-0.001417	0.321653	-0.699919	-0.372646	-0.517482	-165.919549	-74.604577	45.312906
37349		9.336568	1.133134	-0.198497	2.639355	1.040023	-0.843486	-0.629585	-0.880039	0.162593	-0.787109	0.410889	0.427979	0.093364	0.011402	-0.001610	0.318208	-0.703500	-0.371881	-0.515302	-166.398982	-74.091571	45.436295
37350		9.120716	0.911117	-0.239034	2.440384	1.137213	-1.047677	-0.744340	-0.974201	0.207428	-0.773682	0.399902	0.436279	0.091208	0.009198	-0.001980	0.314278	-0.707568	-0.370776	-0.512934	-166.881731	-73.521368	45.491757
37351		8.967700	0.360322	-0.370841	1.938167	1.351683	-1.146508	-0.808062	-1.086077	0.266154	-0.762695	0.394287	0.449219	0.089691	0.003709	-0.003236	0.310064	-0.712099	-0.369482	-0.510155	-167.322598	-72.879568	45.468763
37352		8.845087	-0.277357	-0.463961	1.398975	1.662845	-1.221730	-0.792918	-1.194864	0.307058	-0.764404	0.403809	0.464111	0.088481	-0.002655	-0.004100	0.305775	-0.716928	-0.368204	-0.506893	-167.711206	-72.173460	45.395899
37353		9.006134	-0.855443	-0.601313	0.959677	1.981136	-1.017423	-0.646247	-1.270980	0.329553	-0.747070	0.399414	0.469971	0.090111	-0.008424	-0.005413	0.301929	-0.721724	-0.367341	-0.503005	-167.995376	-71.420589	45.305372
37354		9.283239	-0.875760	-0.567887	1.109196	2.168413	-0.794138	-0.326619	-1.329899	0.344844	-0.747559	0.396484	0.485596	0.092882	-0.008606	-0.005047	0.299138	-0.726181	-0.367269	-0.498288	-168.087676	-70.634560	45.201417
37355		9.411867	-0.457143	-0.389814	1.670250	2.198358	-0.794920	-0.072749	-1.387116	0.361710	-0.737793	0.403320	0.491455	0.094151	-0.004402	-0.003244	0.297203	-0.730390	-0.367862	-0.492826	-168.031219	-69.812882	45.097244
37356		9.530732	0.243392	-0.237742	2.453998	2.050212	-0.828064	0.073160	-1.437097	0.373918	-0.733154	0.397217	0.499756	0.095316	0.002613	-0.001692	0.295710	-0.734493	-0.368796	-0.486893	-167.896573	-68.963550	44.994197
37357		9.855436	1.308605	-0.633311	3.326954	1.324051	-0.516483	0.111344	-1.508575	0.395376	-0.707764	0.408203	0.512451	0.098572	0.013284	-0.005582	0.294274	-0.738707	-0.369857	-0.480543	-167.741276	-68.069637	44.895984
37358		10.155067	2.337123	-1.386299	4.000853	0.342032	-0.097586	0.018269	-1.591467	0.408268	-0.704834	0.403809	0.526367	0.101609	0.023580	-0.013052	0.292339	-0.743237	-0.370714	-0.474034	-167.654983	-67.129709	44.809662
37359		10.642246	3.309468	-2.308326	4.610185	-0.675602	0.571221	-0.180497	-1.637590	0.420600	-0.700195	0.403320	0.530518	0.106537	0.033298	-0.022241	0.289602	-0.748133	-0.371127	-0.467646	-167.684251	-66.160405	44.729010
37360		11.093974	4.023350	-3.312724	4.961941	-1.610501	1.278783	-0.500164	-1.663402	0.446194	-0.687012	0.411621	0.544434	0.111121	0.040400	-0.032304	0.285642	-0.753547	-0.370673	-0.461711	-167.872433	-65.175961	44.616099
37361		12.094113	4.257782	-2.846444	5.792471	-0.973510	1.934483	-0.999638	-1.614988	0.511761	-0.676025	0.410889	0.558594	0.121058	0.042748	-0.027701	0.280034	-0.759613	-0.368749	-0.456720	-168.249733	-64.208765	44.400007
37362		13.299448	3.817151	-3.482614	5.608833	-0.738177	3.285733	-1.566884	-1.571789	0.715809	-0.660156	0.408447	0.579590	0.133127	0.038379	-0.034080	0.272778	-0.766661	-0.364626	-0.452626	-168.703902	-63.245829	43.902155
37363		12.644146	2.201943	-4.287225	3.816886	-0.491584	3.159993	-2.047444	-1.659603	0.974569	-0.639893	0.399658	0.588135	0.126685	0.022203	-0.042048	0.264067	-0.774908	-0.358508	-0.448618	-169.173795	-62.204193	43.111096
37364		11.722293	0.068452	-5.670616	1.246242	-0.365766	3.144232	-2.376580	-1.712168	1.219519	-0.629883	0.389893	0.612793	0.117698	0.000735	-0.055708	0.254471	-0.783975	-0.350663	-0.444594	-169.601895	-61.112249	42.047212
37365		11.615440	-1.503178	-6.716395	-0.398433	0.021372	3.682613	-2.204574	-1.646087	1.323167	-0.609863	0.380859	0.635986	0.116800	-0.014993	-0.066039	0.245840	-0.792666	-0.342653	-0.440265	-169.845899	-60.047643	40.877330
37366		11.665846	-2.308213	-7.101324	-1.023694	0.477182	3.991944	-1.850568	-1.432427	1.251410	-0.593506	0.368408	0.645264	0.117306	-0.023000	-0.069962	0.238753	-0.800170	-0.335342	-0.436201	-169.955123	-59.114816	39.769640
37367		11.388047	-2.464150	-6.917820	-0.992620	0.768288	3.679427	-1.416580	-1.140758	1.005293	-0.586426	0.367188	0.659424	0.114395	-0.024553	-0.068353	0.233337	-0.805990	-0.329597	-0.432781	-170.024367	-58.369688	38.901302
37368		10.499112	-1.821206	-6.583665	-0.580433	0.372163	2.693948	-0.981118	-0.871119	0.779303	-0.581055	0.367920	0.665771	0.105347	-0.018123	-0.065289	0.229591	-0.810284	-0.325327	-0.429989	-170.025586	-57.801838	38.234684
37369		9.559087	-1.176832	-6.122228	-0.170924	-0.004604	1.598398	-0.859660	-0.670967	0.608865	-0.569092	0.365967	0.672852	0.095831	-0.011739	-0.060851	0.226307	-0.813687	-0.321800	-0.427954	-170.086280	-57.361593	37.723222
37370		9.168140	-1.327445	-5.806733	-0.221139	0.228873	1.115874	-0.863121	-0.451723	0.458951	-0.563965	0.359131	0.674316	0.091843	-0.013314	-0.057803	0.223021	-0.816357	-0.318583	-0.426997	-170.251843	-57.062742	37.327680
37371		8.695523	-1.695382	-6.005008	-0.770385	0.248499	0.859293	-0.748895	-0.237428	0.334703	-0.567139	0.353760	0.678223	0.087055	-0.017033	-0.059883	0.220284	-0.818224	-0.315904	-0.426836	-170.429724	-56.895103	37.028201
37372		7.961873	-1.939907	-6.295006	-1.420081	0.027625	0.422757	-0.607756	0.001379	0.229089	-0.558838	0.354736	0.691895	0.079641	-0.019499	-0.062891	0.218261	-0.819250	-0.313657	-0.427564	-170.583829	-56.875193	36.792187
37373		7.405521	-2.112962	-6.167321	-1.727821	0.055840	-0.099107	-0.313802	0.311836	0.114163	-0.572266	0.339111	0.686768	0.073971	-0.021184	-0.061755	0.217694	-0.819102	-0.312201	-0.429200	-170.624114	-57.039418	36.625877
37374		7.107286	-1.883260	-5.760921	-1.499543	0.023205	-0.593201	0.083837	0.651424	0.005265	-0.572754	0.350586	0.679688	0.070885	-0.018807	-0.057848	0.219034	-0.817621	-0.311632	-0.431747	-170.480886	-57.407880	36.507340
37375		6.881766	-1.345432	-5.314109	-1.014143	-0.209416	-1.075662	0.391377	0.979472	-0.095563	-0.567871	0.346680	0.678955	0.068550	-0.013383	-0.053503	0.221936	-0.814917	-0.311814	-0.435232	-170.197768	-57.968952	36.437795
37376		6.721621	-1.024426	-5.078032	-0.786025	-0.418801	-1.373392	0.576785	1.296524	-0.222164	-0.586914	0.349121	0.674805	0.066874	-0.010171	-0.051244	0.225788	-0.811093	-0.312513	-0.439868	-169.866724	-58.723389	36.432124
37377		6.544158	-0.777391	-4.891076	-0.659906	-0.621470	-1.656110	0.661438	1.570849	-0.394325	-0.599365	0.347656	0.655273	0.065039	-0.007739	-0.049448	0.230034	-0.806244	-0.313805	-0.445625	-169.596476	-59.647957	36.558842
37378		6.460426	-0.582042	-4.848239	-0.630074	-0.855118	-1.784537	0.650563	1.797335	-0.562045	-0.612549	0.353516	0.646484	0.064149	-0.005842	-0.049079	0.234180	-0.800575	-0.315420	-0.452493	-169.454778	-60.719875	36.819643
37379		6.505957	-0.421810	-4.864317	-0.624485	-1.064343	-1.772667	0.545880	1.959051	-0.714845	-0.627686	0.354248	0.633545	0.064564	-0.004316	-0.049289	0.237809	-0.794329	-0.317228	-0.460277	-169.508883	-61.896934	37.237965
37380		6.927024	-0.357376	-4.663861	-0.441271	-0.956786	-1.521122	0.536777	2.100131	-0.850554	-0.633545	0.348145	0.619873	0.068760	-0.003740	-0.047372	0.241265	-0.787460	-0.319308	-0.468764	-169.711728	-63.169054	37.808127
37381		7.273939	-0.236973	-4.361755	-0.208267	-0.842199	-1.372579	0.530808	2.200003	-0.954541	-0.649170	0.351074	0.601563	0.072242	-0.002598	-0.044421	0.244596	-0.780080	-0.321656	-0.477688	-170.059068	-64.504716	38.534035
37382		7.345372	-0.414019	-4.167761	-0.369403	-0.671021	-1.392114	0.325956	2.210964	-1.046767	-0.666504	0.343750	0.598389	0.072964	-0.004454	-0.042493	0.246869	-0.772664	-0.323773	-0.487049	-170.699776	-65.854485	39.440209
37383		7.483238	-0.993232	-4.644494	-1.218637	-0.674535	-1.059808	0.205406	2.156303	-1.130842	-0.680664	0.341553	0.574707	0.074268	-0.010305	-0.047258	0.248364	-0.765271	-0.325979	-0.496399	-171.625574	-67.173496	40.577976
37384		7.803366	-1.524104	-5.347200	-2.133477	-0.829436	-0.508711	0.202495	2.093139	-1.197284	-0.700439	0.325439	0.558838	0.077375	-0.015651	-0.054300	0.249521	-0.757825	-0.328423	-0.505548	-172.785125	-68.455185	41.949641
37385		8.046471	-1.906812	-5.917924	-2.899517	-1.023653	-0.120242	0.351952	2.085194	-1.255192	-0.706543	0.319092	0.546143	0.079720	-0.019465	-0.060047	0.251071	-0.749997	-0.331465	-0.514392	-174.104159	-69.722814	43.577545
37386		8.042281	-1.775611	-6.300703	-3.233100	-1.498578	-0.074807	0.647383	2.057357	-1.338357	-0.732910	0.312988	0.528809	0.079648	-0.018085	-0.063887	0.253405	-0.741623	-0.335523	-0.522691	-175.583897	-70.966030	45.536916
37387		7.859439	-1.139139	-6.227549	-2.931241	-2.018650	-0.369206	0.863846	2.021354	-1.421404	-0.739990	0.306641	0.513916	0.077877	-0.011675	-0.063115	0.256245	-0.732798	-0.340484	-0.530487	-177.321679	-72.170927	47.890331
37388		7.792201	-0.681986	-5.953452	-2.600900	-2.235704	-0.600725	0.867680	1.970154	-1.464364	-0.755615	0.297852	0.503418	0.077279	-0.007127	-0.060328	0.258832	-0.723914	-0.345585	-0.538076	-179.432623	-73.323099	50.615775
37389		7.657649	-0.491029	-5.727540	-2.505436	-2.318948	-0.866887	0.817122	1.903613	-1.446836	-0.758789	0.302734	0.494629	0.075990	-0.005225	-0.058021	0.261147	-0.715178	-0.350551	-0.545378	178.117616	-74.402701	53.653322
37390		7.288359	-0.411184	-5.599547	-2.575060	-2.442949	-1.324894	0.728439	1.754006	-1.359528	-0.778809	0.291504	0.469727	0.072359	-0.004399	-0.056647	0.263055	-0.707023	-0.355068	-0.552129	175.434787	-75.361888	56.858502
37391		7.234651	-0.688659	-5.483860	-2.866270	-2.276923	-1.476912	0.583659	1.555459	-1.216318	-0.787354	0.282227	0.464600	0.071874	-0.007163	-0.055419	0.264490	-0.699765	-0.358936	-0.558156	172.661559	-76.174230	60.064512
37392		7.526948	-1.156417	-5.558383	-3.368140	-2.066372	-1.252795	0.569226	1.373002	-1.051165	-0.796387	0.272217	0.450684	0.074824	-0.011799	-0.056132	0.265956	-0.693276	-0.362361	-0.563321	169.996656	-76.860122	63.134816
37393		7.855663	-1.342756	-5.518119	-3.562940	-1.934844	-1.007894	0.744234	1.215640	-0.892223	-0.814697	0.275391	0.438232	0.078159	-0.013570	-0.055707	0.268198	-0.687221	-0.365942	-0.567348	167.621308	-77.442015	66.008568
37394		8.043626	-1.276686	-5.128171	-3.348665	-1.712117	-0.953686	0.955673	1.075524	-0.766861	-0.816406	0.269287	0.426270	0.080110	-0.012828	-0.051774	0.271220	-0.681474	-0.369823	-0.570318	165.541664	-77.937915	68.692325
37395		8.052443	-1.017685	-4.455027	-2.814656	-1.404790	-1.104744	1.053891	0.915679	-0.677613	-0.824463	0.266113	0.414795	0.080285	-0.010213	-0.044972	0.274545	-0.676161	-0.373906	-0.572387	163.690207	-78.338357	71.201255
37396		7.993026	-0.832303	-4.118496	-2.526519	-1.316378	-1.243756	1.002232	0.722158	-0.588229	-0.823486	0.275635	0.407959	0.079756	-0.008350	-0.041515	0.277550	-0.671614	-0.377755	-0.573761	162.072291	-78.632635	73.433585
37397		7.989256	-0.675171	-3.985901	-2.359388	-1.347806	-1.281103	0.957181	0.529552	-0.488896	-0.825195	0.275879	0.398682	0.079770	-0.006755	-0.040103	0.280337	-0.667831	-0.381422	-0.574395	160.793146	-78.828466	75.297165
37398		8.023571	-0.503127	-3.884420	-2.180052	-1.392906	-1.267127	1.016878	0.368074	-0.394036	-0.830811	0.266113	0.389648	0.080154	-0.004991	-0.039017	0.283257	-0.664597	-0.385132	-0.574239	159.919502	-78.948977	76.776908
37399		8.082040	-0.105042	-3.926711	-1.871009	-1.663870	-1.182493	1.111194	0.215925	-0.297576	-0.823486	0.273926	0.388916	0.080776	-0.000952	-0.039360	0.286486	-0.661818	-0.389020	-0.573224	159.505172	-79.003225	77.847750
37400		8.198594	0.439032	-3.780585	-1.316859	-1.832290	-1.059913	1.142438	0.084955	-0.231584	-0.834961	0.276611	0.385254	0.081975	0.004511	-0.037815	0.289722	-0.659488	-0.392929	-0.571615	159.420281	-78.999866	78.596779
37401		8.330691	0.978518	-3.501789	-0.684540	-1.865430	-0.942966	0.986797	-0.034110	-0.146965	-0.829590	0.278564	0.380615	0.083320	0.009897	-0.034955	0.292466	-0.657858	-0.396299	-0.569766	159.606091	-78.949403	78.983587
37402		8.453656	1.241890	-3.295933	-0.321857	-1.801145	-0.839283	0.593891	-0.165599	0.001541	-0.827393	0.282715	0.371338	0.084564	0.012517	-0.032852	0.294054	-0.657472	-0.398225	-0.568049	160.105059	-78.858132	78.817887
37403		8.550013	1.070205	-3.198669	-0.386421	-1.602180	-0.770390	0.194308	-0.282369	0.159328	-0.832520	0.279785	0.376465	0.085537	0.010801	-0.031855	0.294563	-0.658304	-0.398689	-0.566495	160.913442	-78.733424	78.107377
37404		8.752781	0.877827	-3.100223	-0.457147	-1.368939	-0.598025	0.013688	-0.365973	0.330101	-0.826904	0.281494	0.376709	0.087570	0.008925	-0.030841	0.294776	-0.659984	-0.398183	-0.564782	162.135191	-78.591962	76.866152
37405		8.924476	1.065628	-2.366018	0.133785	-0.804528	-0.554476	-0.137023	-0.386851	0.497773	-0.826172	0.291992	0.386719	0.089263	0.010862	-0.023495	0.294938	-0.662266	-0.396742	-0.563038	163.710415	-78.461260	75.178791
37406		9.322846	1.197564	-1.900601	0.559881	-0.402697	-0.247856	-0.425718	-0.345082	0.626803	-0.824463	0.287354	0.392334	0.093223	0.012228	-0.018871	0.294569	-0.665111	-0.393978	-0.561817	165.398980	-78.363867	73.202899
37407		9.437936	1.157193	-1.704504	0.687536	-0.204362	-0.179186	-0.486723	-0.228344	0.637904	-0.818115	0.297852	0.385010	0.094361	0.011832	-0.016966	0.294270	-0.667719	-0.390843	-0.561068	166.981157	-78.321615	71.302748
37408		9.409775	1.209161	-0.380887	1.459781	0.840292	-0.468503	-0.405070	0.056042	0.502120	-0.816650	0.301514	0.394531	0.094066	0.012320	-0.003860	0.294398	-0.669144	-0.387950	-0.561312	168.066507	-78.412812	69.954520
37409		10.100854	1.708118	0.993839	2.669426	1.804386	-0.037683	-0.624002	0.340076	0.287394	-0.819092	0.297607	0.396484	0.101000	0.017257	0.009713	0.293755	-0.669660	-0.384755	-0.563229	168.294951	-78.634900	69.356681
37410		11.106520	2.038987	1.057371	3.041828	1.804205	0.963301	-0.972868	0.501452	0.037266	-0.821045	0.290771	0.388184	0.111087	0.020461	0.010196	0.291524	-0.669747	-0.381150	-0.566725	167.525249	-78.918122	69.569461
37411		12.032776	0.492107	0.780833	1.624571	2.514982	1.878113	-1.228174	0.515776	-0.031880	-0.821045	0.289063	0.391846	0.120348	0.004948	0.007468	0.288278	-0.670000	-0.377037	-0.570823	166.372662	-79.199472	70.026749
37412		11.602931	-2.174618	-0.731936	-1.469765	2.636662	1.623243	-1.242177	0.268158	0.155267	-0.820313	0.293945	0.388428	0.116036	-0.021702	-0.007340	0.285020	-0.671313	-0.372578	-0.573836	165.908013	-79.367852	69.771578
37413		10.729911	-4.794192	-2.109692	-4.446198	2.842182	0.898022	-0.641268	0.012453	0.227610	-0.824463	0.289307	0.381836	0.107352	-0.047887	-0.020950	0.283523	-0.672611	-0.369975	-0.574741	166.194982	-79.403768	69.105882
37414		9.787847	-5.805801	-3.649208	-6.192389	2.001318	0.211029	0.507043	0.009047	0.096937	-0.823242	0.288818	0.392334	0.097905	-0.057918	-0.036643	0.285488	-0.672050	-0.371095	-0.573702	166.753941	-79.419855	68.829754
37415		8.455914	-4.101408	-4.769708	-5.487989	-0.161299	-0.816621	1.613736	0.113943	-0.077477	-0.820557	0.299316	0.390869	0.084516	-0.040660	-0.048074	0.290871	-0.669254	-0.375831	-0.571178	167.355757	-79.471130	69.158179
37416		8.355400	-1.238264	-4.403232	-2.876571	-1.540526	-0.863616	2.264192	0.243435	-0.283560	-0.825684	0.301025	0.375488	0.083483	-0.012001	-0.044271	0.298038	-0.664700	-0.382864	-0.568122	167.619252	-79.570102	70.205551
37417		9.879449	1.646986	-3.278748	0.291126	-1.927873	0.544178	2.559684	0.464322	-0.405304	-0.835449	0.297607	0.370605	0.098752	0.016689	-0.032804	0.306237	-0.658733	-0.390778	-0.565316	167.514340	-79.777532	71.803008
37418		11.070253	4.549323	-1.675129	3.692761	-1.846717	1.545393	2.604491	0.837877	-0.346060	-0.842773	0.311035	0.341309	0.110711	0.045519	-0.016622	0.315407	-0.651650	-0.397958	-0.563472	167.303852	-80.200739	73.528258
37419		11.568881	5.463896	-0.113179	5.271513	-0.851228	1.814544	1.992829	0.959256	-0.172907	-0.836426	0.317627	0.337158	0.115731	0.054550	-0.001143	0.323283	-0.645420	-0.402620	-0.562867	167.134307	-80.712445	74.858090
37420		12.073420	5.553010	-0.676014	5.105154	-1.306922	2.405730	1.173270	0.598362	0.054219	-0.849365	0.323486	0.324463	0.120699	0.055603	-0.006795	0.328384	-0.641942	-0.404775	-0.562345	167.510283	-81.051631	75.155065
37421		11.204354	4.947536	-0.847349	4.472024	-1.321775	1.544579	0.980805	0.372025	0.172037	-0.842041	0.329346	0.317627	0.111985	0.049613	-0.008439	0.332745	-0.639624	-0.406385	-0.561261	168.391394	-81.278296	74.832165
37422		9.110479	5.033493	-0.413556	4.682028	-1.287930	-0.597063	0.784471	0.330491	0.138028	-0.843262	0.336182	0.316406	0.091063	0.050414	-0.004088	0.336274	-0.637672	-0.407597	-0.560499	169.089423	-81.477364	74.577798
37423		8.173824	5.105581	0.608884	5.174363	-0.547570	-1.677872	0.430085	0.204123	0.147335	-0.849121	0.331787	0.312256	0.081707	0.051103	0.006115	0.338453	-0.636674	-0.408009	-0.560022	169.733480	-81.605529	74.175870
37424		7.999546	3.989901	1.358219	4.508643	0.571465	-1.995893	-0.157377	0.008442	0.341623	-0.837402	0.333252	0.311768	0.079928	0.040046	0.013547	0.338887	-0.637619	-0.406471	-0.559802	170.926472	-81.641161	72.875576
37425		8.042343	2.217744	1.370881	2.961168	1.344808	-2.008863	-0.839079	-0.237633	0.555076	-0.845215	0.325684	0.316895	0.080345	0.022458	0.013710	0.337259	-0.640824	-0.402772	-0.559800	172.691121	-81.549483	70.605881
37426		8.536392	0.289170	0.308736	0.849345	1.328906	-1.412622	-1.313038	-0.498918	0.691497	-0.840332	0.334229	0.325684	0.085345	0.003208	0.003280	0.333932	-0.645814	-0.397713	-0.559677	174.736246	-81.306951	67.773112
37427		9.647437	-1.351539	-1.093476	-1.105395	1.036416	-0.127722	-1.244451	-0.632016	0.705445	-0.832275	0.340332	0.341309	0.096555	-0.013241	-0.010547	0.330601	-0.651043	-0.393017	-0.558913	176.764884	-80.973650	64.998449
37428		10.621602	-2.674289	-2.060271	-2.578675	1.005074	0.983356	-0.887630	-0.469988	0.595110	-0.826660	0.340332	0.345459	0.106343	-0.026517	-0.020235	0.328404	-0.654989	-0.389371	-0.558149	178.418934	-80.717481	62.803954
37429		10.708300	-3.340582	-2.338839	-3.226512	1.125365	1.124419	-0.355250	-0.163188	0.437428	-0.824707	0.339600	0.336914	0.107175	-0.033213	-0.023242	0.328123	-0.656876	-0.387234	-0.557582	179.733712	-80.626146	61.265369
37430		10.063974	-3.086104	-2.142448	-2.923221	1.072353	0.468480	0.273898	0.021989	0.287696	-0.828613	0.347412	0.344727	0.100682	-0.030687	-0.021478	0.329829	-0.656928	-0.387019	-0.556664	-179.130554	-80.636673	60.269759
37431		9.444489	-2.300828	-1.648738	-2.030740	1.003947	-0.216928	0.694118	0.073197	0.176105	-0.830078	0.344238	0.338379	0.094459	-0.022868	-0.016601	0.332719	-0.655915	-0.388270	-0.555265	-178.130657	-80.674421	59.659544
37432		9.462132	-1.654169	-1.302145	-1.287053	0.970036	-0.254117	0.803763	0.055761	0.096264	-0.829346	0.357666	0.341064	0.094626	-0.016444	-0.013114	0.335690	-0.654612	-0.390092	-0.553736	-177.346653	-80.703054	59.328067
37433		9.868880	-1.311187	-1.354346	-0.965628	0.798194	0.156197	0.860387	0.006351	0.066088	-0.825195	0.368652	0.330322	0.098693	-0.013021	-0.013603	0.338679	-0.653273	-0.392265	-0.551959	-176.638824	-80.703014	59.110423
37434		10.464910	-0.890005	-1.577411	-0.629466	0.477180	0.778380	0.885900	-0.084275	0.075576	-0.823242	0.354492	0.331299	0.104659	-0.008791	-0.015769	0.341577	-0.652154	-0.394604	-0.549826	-175.906729	-80.650987	58.879458
37435		10.693827	-0.272746	-1.654861	-0.069947	0.155861	1.010511	0.880933	-0.150823	0.126217	-0.822021	0.365967	0.329102	0.106952	-0.002587	-0.016480	0.344477	-0.651306	-0.396889	-0.547372	-175.024982	-80.557514	58.497401
37436		10.305419	0.116222	-1.423296	0.379234	0.133882	0.583423	0.763753	-0.169875	0.187709	-0.822998	0.375000	0.324707	0.103065	0.001313	-0.014141	0.347100	-0.650830	-0.398658	-0.544990	-174.022878	-80.449439	57.921234
37437		9.888966	0.350704	-1.227428	0.670592	0.149289	0.134632	0.520123	-0.151169	0.203825	-0.816406	0.371338	0.320557	0.098895	0.003640	-0.012190	0.349026	-0.650742	-0.399694	-0.543103	-173.113473	-80.348773	57.301230
