// General information: 
//  MT Manager version: 2021.4.0 
//  XDA version: 2021.4.0 build 6323 rev 112641 built on 2021-09-28
// Device information: 
//  DeviceId: 00B47786
//  ProductCode: MTW2-3A7G6
//  Firmware Version: 4.6.0
//  Hardware Version: 2.0.0
// Device settings: 
//  Filter Profile: human(46.1)
//  Option Flags: Orientation Smoother Disabled, Position/Velocity Smoother Disabled, Continuous Zero Rotation Update Disabled, AHS Disabled, ICC Disabled
// Coordinate system: ENU
PacketCounter	SampleTimeFine	Acc_X	Acc_Y	Acc_Z	FreeAcc_E	FreeAcc_N	FreeAcc_U	Gyr_X	Gyr_Y	Gyr_Z	Mag_X	Mag_Y	Mag_Z	VelInc_X	VelInc_Y	VelInc_Z	Quat_q0	Quat_q1	Quat_q2	Quat_q3	Roll	Pitch	Yaw
12076		9.638527	0.942345	-0.863447	0.204952	0.047940	-0.092067	0.006693	-0.038292	-0.029157	-0.857178	-0.035889	0.425537	0.096388	0.009410	-0.008616	-0.017269	-0.742956	-0.056193	-0.666754	137.630075	-81.415413	45.533151
12077		9.562670	1.056481	-0.863078	0.209001	-0.070672	-0.155719	-0.028677	-0.046700	-0.043812	-0.861084	-0.034424	0.435791	0.095631	0.010543	-0.008610	-0.017499	-0.743130	-0.056214	-0.666552	137.664874	-81.379291	45.481477
12078		9.585747	0.882525	-0.985752	0.084067	0.102374	-0.136967	-0.057106	-0.049829	-0.044042	-0.861328	-0.041016	0.435059	0.095862	0.008801	-0.009836	-0.017828	-0.743310	-0.056150	-0.666348	137.689873	-81.341911	45.424587
12079		9.557535	0.792327	-0.952720	0.114028	0.195213	-0.177813	-0.049872	-0.061492	-0.058663	-0.857910	-0.034424	0.439209	0.095581	0.007893	-0.009500	-0.018190	-0.743527	-0.056154	-0.666096	137.707982	-81.293788	45.377502
12080		9.586682	0.705421	-0.937327	0.133750	0.291420	-0.159819	-0.041472	-0.069070	-0.072498	-0.858643	-0.045898	0.440186	0.095873	0.007018	-0.009342	-0.018563	-0.743765	-0.056244	-0.665812	137.711494	-81.237110	45.351084
12081		9.594263	0.723308	-0.912578	0.167788	0.282832	-0.153614	-0.017672	-0.082657	-0.084474	-0.851807	-0.040039	0.438721	0.095949	0.007192	-0.009087	-0.018897	-0.744048	-0.056449	-0.665469	137.729332	-81.170062	45.322927
12082		9.644174	0.800039	-0.806822	0.291442	0.225261	-0.108800	-0.007445	-0.091522	-0.094650	-0.850098	-0.041748	0.440186	0.096449	0.007954	-0.008024	-0.019228	-0.744358	-0.056729	-0.665089	137.746730	-81.095173	45.301494
12083		9.651033	0.777670	-0.826948	0.280453	0.256011	-0.102546	0.004775	-0.096892	-0.096870	-0.854492	-0.031738	0.438965	0.096518	0.007730	-0.008223	-0.019524	-0.744686	-0.057054	-0.664685	137.778078	-81.017310	45.272669
12084		9.648720	0.985755	-0.918557	0.212109	0.054422	-0.072806	-0.006137	-0.111633	-0.109909	-0.853027	-0.039063	0.440674	0.096498	0.009804	-0.009132	-0.019898	-0.745058	-0.057399	-0.664227	137.804516	-80.928194	45.243987
12085		9.583681	0.993184	-0.966908	0.168679	0.048202	-0.130876	-0.022723	-0.117878	-0.117382	-0.849609	-0.041748	0.440918	0.095848	0.009874	-0.009614	-0.020371	-0.745447	-0.057707	-0.663750	137.815209	-80.833525	45.220111
12086		9.583702	0.930129	-1.086437	0.058107	0.116456	-0.123731	-0.047679	-0.124757	-0.115758	-0.846436	-0.052734	0.444580	0.095849	0.009243	-0.010807	-0.020926	-0.745855	-0.057932	-0.663255	137.832234	-80.736564	45.176514
12087		9.552720	0.853531	-1.137080	0.012055	0.198083	-0.156781	-0.026891	-0.128374	-0.121630	-0.855225	-0.045410	0.443848	0.095540	0.008476	-0.011311	-0.021431	-0.746275	-0.058241	-0.662738	137.853317	-80.635801	45.139676
12088		9.576632	0.854912	-1.097237	0.067314	0.213751	-0.138163	-0.016790	-0.137925	-0.139175	-0.848633	-0.048096	0.447998	0.095780	0.008482	-0.010907	-0.021959	-0.746723	-0.058650	-0.662180	137.856388	-80.524085	45.127144
12089		9.592984	0.756463	-1.098931	0.075377	0.326895	-0.133191	-0.002764	-0.141250	-0.148019	-0.842773	-0.041260	0.446777	0.095943	0.007493	-0.010922	-0.022465	-0.747180	-0.059135	-0.661605	137.853041	-80.407706	45.129073
12090		9.553750	0.946214	-1.102251	0.092986	0.148082	-0.150710	0.019708	-0.150892	-0.154597	-0.854248	-0.052490	0.451172	0.095553	0.009389	-0.010949	-0.022905	-0.747668	-0.059725	-0.660985	137.868781	-80.284631	45.125826
12091		9.574621	1.189909	-1.103298	0.123991	-0.076185	-0.102626	0.017181	-0.156047	-0.164849	-0.843994	-0.049561	0.451904	0.095765	0.011821	-0.010957	-0.023396	-0.748169	-0.060338	-0.660344	137.868255	-80.155496	45.136489
12092		9.581982	1.124992	-1.095578	0.143978	0.005174	-0.103955	-0.009240	-0.156285	-0.165998	-0.849365	-0.056641	0.444092	0.095838	0.011170	-0.010881	-0.023988	-0.748667	-0.060872	-0.659710	137.850726	-80.025699	45.149634
12093		9.501375	0.976364	-1.185910	0.051140	0.154691	-0.189320	-0.019216	-0.163141	-0.168893	-0.841064	-0.050293	0.446777	0.095032	0.009682	-0.011783	-0.024631	-0.749184	-0.061378	-0.659052	137.835653	-79.891994	45.153900
12094		9.566678	0.956896	-1.153822	0.105953	0.199974	-0.131932	0.001038	-0.172365	-0.174153	-0.845459	-0.059814	0.454834	0.095685	0.009486	-0.011456	-0.025215	-0.749730	-0.061975	-0.658353	137.838795	-79.752423	45.152090
12095		9.596401	0.964770	-1.064628	0.215774	0.217430	-0.114170	-0.001281	-0.185018	-0.192713	-0.842285	-0.060547	0.453857	0.095983	0.009555	-0.010558	-0.025876	-0.750311	-0.062627	-0.657603	137.824923	-79.600266	45.165586
12096		9.535087	0.880489	-1.051656	0.234200	0.312517	-0.187379	0.008841	-0.197727	-0.200319	-0.840820	-0.060791	0.449463	0.095370	0.008710	-0.010422	-0.026529	-0.750932	-0.063340	-0.656799	137.825488	-79.439648	45.170358
12097		9.500711	0.943936	-0.793812	0.508489	0.276206	-0.249751	0.002931	-0.214770	-0.214890	-0.843262	-0.063477	0.464600	0.095026	0.009337	-0.007836	-0.027256	-0.751602	-0.064086	-0.655930	137.825322	-79.266326	45.172377
12098		9.497163	1.106552	-0.785776	0.547048	0.136474	-0.235630	-0.015319	-0.235048	-0.230277	-0.839355	-0.067871	0.457031	0.094993	0.010956	-0.007747	-0.028109	-0.752329	-0.064828	-0.654987	137.820850	-79.078399	45.168389
12099		9.529540	1.369903	-0.709360	0.665724	-0.093577	-0.182531	-0.054056	-0.254967	-0.241884	-0.843506	-0.058105	0.466064	0.095321	0.013582	-0.006976	-0.029152	-0.753110	-0.065482	-0.653978	137.808832	-78.877626	45.149220
12100		9.538938	1.422037	-0.746675	0.656893	-0.120994	-0.162568	-0.142171	-0.271699	-0.246794	-0.842285	-0.062500	0.462646	0.095417	0.014097	-0.007347	-0.030544	-0.753928	-0.065868	-0.652933	137.768195	-78.667879	45.108458
12101		9.521494	1.270731	-0.974353	0.444588	0.042985	-0.167826	-0.199723	-0.285215	-0.253400	-0.828613	-0.072266	0.468750	0.095245	0.012577	-0.009620	-0.032183	-0.754776	-0.066085	-0.651851	137.706809	-78.449847	45.054476
12102		9.524438	1.291660	-1.132750	0.314765	0.043689	-0.139770	-0.217217	-0.298254	-0.255302	-0.826660	-0.081299	0.460449	0.095278	0.012783	-0.011199	-0.033894	-0.755660	-0.066254	-0.650723	137.655865	-78.225571	44.980328
12103		9.490198	1.256362	-1.319025	0.149839	0.095337	-0.150883	-0.239841	-0.309082	-0.266677	-0.826172	-0.076172	0.475342	0.094939	0.012421	-0.013058	-0.035736	-0.756567	-0.066385	-0.649555	137.588605	-77.992332	44.908773
12104		9.447903	1.086137	-1.403288	0.077984	0.284023	-0.204103	-0.236761	-0.313564	-0.271160	-0.812500	-0.088135	0.471924	0.094515	0.010717	-0.013897	-0.037583	-0.757484	-0.066543	-0.648365	137.521502	-77.755346	44.838750
12105		9.401839	1.110995	-1.700930	-0.193889	0.273863	-0.199711	-0.191438	-0.317716	-0.283255	-0.817627	-0.088623	0.480225	0.094061	0.010961	-0.016870	-0.039297	-0.758415	-0.066892	-0.647139	137.464905	-77.512076	44.784541
12106		9.479670	1.362465	-1.789046	-0.227691	0.065750	-0.072830	-0.144377	-0.319736	-0.291173	-0.801514	-0.093506	0.474365	0.094845	0.013474	-0.017749	-0.040864	-0.759356	-0.067420	-0.645882	137.423395	-77.264518	44.741960
12107		9.316897	1.492684	-2.293393	-0.714896	-0.069051	-0.128870	-0.118849	-0.329336	-0.305626	-0.809814	-0.093994	0.485352	0.093229	0.014771	-0.022789	-0.042378	-0.760323	-0.068086	-0.644575	137.386330	-77.007690	44.710272
12108		8.790597	2.220052	-2.477786	-0.912804	-0.839656	-0.495810	-0.060277	-0.394810	-0.384261	-0.801514	-0.104248	0.485596	0.087997	0.022024	-0.024611	-0.043947	-0.761482	-0.069225	-0.642978	137.349610	-76.692568	44.712634
12109		8.656376	2.432765	-2.606209	-1.015882	-1.034595	-0.563857	-0.130393	-0.419842	-0.409317	-0.793945	-0.102051	0.490967	0.086668	0.024133	-0.025896	-0.045870	-0.762691	-0.070227	-0.641300	137.270742	-76.357354	44.717052
12110		8.960815	1.847655	-2.717789	-1.066269	-0.369229	-0.335193	-0.127433	-0.435791	-0.369562	-0.791992	-0.108398	0.493652	0.089701	0.018294	-0.026994	-0.047660	-0.763959	-0.071084	-0.639564	137.287612	-76.030779	44.624704
12111		9.170625	1.752208	-2.635637	-0.915169	-0.199896	-0.156631	-0.025472	-0.414233	-0.378505	-0.794434	-0.112549	0.496094	0.091794	0.017345	-0.026169	-0.049081	-0.765173	-0.072305	-0.637866	137.312186	-75.709899	44.584456
12112		9.517023	1.843137	-2.336162	-0.516409	-0.187550	0.143539	0.024338	-0.389412	-0.363949	-0.778809	-0.114990	0.493164	0.095249	0.018261	-0.023174	-0.050255	-0.766320	-0.073636	-0.636244	137.350033	-75.405028	44.560014
12113		9.577352	1.787436	-2.140657	-0.278367	-0.084187	0.158182	0.053531	-0.361284	-0.344512	-0.775146	-0.115967	0.499512	0.095843	0.017715	-0.021229	-0.051245	-0.767386	-0.074990	-0.634720	137.393040	-75.119647	44.547402
12114		9.561598	2.050172	-2.078527	-0.171253	-0.312158	0.178343	0.066953	-0.337120	-0.324371	-0.775391	-0.126465	0.512207	0.095684	0.020353	-0.020617	-0.052111	-0.768382	-0.076317	-0.633284	137.439342	-74.852164	44.539367
12115		9.447888	2.305196	-2.075515	-0.141651	-0.552291	0.115002	0.041901	-0.340661	-0.325574	-0.774414	-0.120361	0.513672	0.094551	0.022902	-0.020589	-0.053077	-0.769378	-0.077566	-0.631841	137.473698	-74.582820	44.528782
12116		9.304154	2.195085	-1.958997	-0.027464	-0.437377	-0.064296	-0.051897	-0.334754	-0.314502	-0.770264	-0.129150	0.507324	0.093109	0.021799	-0.019440	-0.054368	-0.770331	-0.078478	-0.630456	137.462406	-74.320143	44.509673
12117		9.302536	1.847621	-2.250959	-0.301072	-0.070941	-0.069902	-0.042703	-0.324643	-0.281172	-0.773682	-0.125732	0.513184	0.093088	0.018341	-0.022362	-0.055513	-0.771264	-0.079293	-0.629113	137.491923	-74.074758	44.453712
12118		9.136694	2.373406	-2.527030	-0.545217	-0.594002	-0.073700	0.011827	-0.321271	-0.299123	-0.762207	-0.135254	0.518066	0.091443	0.023599	-0.025122	-0.056504	-0.772190	-0.080349	-0.627753	137.520375	-73.823722	44.431264
12119		9.216574	2.935333	-2.594360	-0.535126	-1.100924	0.126808	-0.031038	-0.301958	-0.296193	-0.755859	-0.129395	0.528076	0.092248	0.029213	-0.025809	-0.057642	-0.773041	-0.081264	-0.626483	137.502617	-73.582099	44.431381
12120		9.408069	2.596632	-2.609003	-0.501539	-0.702630	0.252888	-0.089322	-0.279074	-0.247286	-0.754150	-0.132568	0.526123	0.094149	0.025838	-0.025970	-0.058844	-0.773821	-0.081814	-0.625336	137.491319	-73.368931	44.389787
12121		9.342259	2.324580	-2.572465	-0.468294	-0.423386	0.132181	-0.076057	-0.270443	-0.222528	-0.756348	-0.137939	0.527344	0.093483	0.023132	-0.025607	-0.059912	-0.774585	-0.082312	-0.624222	137.510858	-73.169135	44.324025
12122		9.285822	2.330293	-2.497600	-0.381434	-0.416306	0.065362	-0.055662	-0.266350	-0.217669	-0.747559	-0.141113	0.538086	0.092917	0.023195	-0.024859	-0.060885	-0.775342	-0.082856	-0.623115	137.542423	-72.972783	44.257767
12123		9.381047	2.251328	-2.429213	-0.274183	-0.296498	0.127656	-0.067049	-0.258524	-0.208836	-0.749023	-0.143555	0.528564	0.093865	0.022407	-0.024178	-0.061870	-0.776072	-0.083332	-0.622045	137.568811	-72.783303	44.190103
12124		9.396593	1.976309	-2.285590	-0.120381	-0.001106	0.057018	-0.070636	-0.268410	-0.206162	-0.751709	-0.153564	0.533936	0.094017	0.019658	-0.022737	-0.062867	-0.776831	-0.083782	-0.620936	137.607781	-72.590490	44.106795
12125		9.542592	1.597615	-2.212791	-0.012402	0.422213	0.103530	-0.062465	-0.265469	-0.214006	-0.748047	-0.140381	0.539551	0.095472	0.015867	-0.022006	-0.063853	-0.777578	-0.084290	-0.619831	137.636155	-72.396051	44.039660
12126		9.867829	1.289242	-1.980251	0.295914	0.815396	0.296964	0.002069	-0.278326	-0.218137	-0.742432	-0.145996	0.532959	0.098720	0.012785	-0.019665	-0.064608	-0.778381	-0.085009	-0.618646	137.710127	-72.194384	43.963167
12127		10.447624	0.904397	-1.546952	0.854427	1.340793	0.667576	0.059038	-0.275940	-0.265744	-0.736084	-0.150391	0.534180	0.104509	0.008910	-0.015323	-0.065285	-0.779172	-0.086090	-0.617428	137.750055	-71.975529	43.956900
12128		11.087700	-0.027237	-1.296426	1.219881	2.417240	1.017237	0.174611	-0.260276	-0.292923	-0.739990	-0.153809	0.538330	0.110893	-0.000424	-0.012820	-0.065591	-0.779938	-0.087638	-0.616210	137.801874	-71.752710	44.007583
12129		10.518912	-0.130567	-1.086911	1.318519	2.428844	0.395543	0.356716	-0.295804	-0.405337	-0.732666	-0.149414	0.536133	0.105202	-0.001500	-0.010716	-0.065546	-0.780818	-0.090174	-0.614733	137.855726	-71.471721	44.166359
12130		10.896259	0.786312	-0.871751	1.702941	1.664579	0.884766	0.366516	-0.347541	-0.505455	-0.726563	-0.154785	0.547363	0.108997	0.007603	-0.008514	-0.065795	-0.781806	-0.093112	-0.613009	137.850610	-71.130196	44.393338
12131		10.913845	0.945580	-0.767742	1.860192	1.569304	0.895817	0.282163	-0.407316	-0.554207	-0.729248	-0.155762	0.550049	0.109179	0.009164	-0.007442	-0.066549	-0.782917	-0.095962	-0.611067	137.808642	-70.744592	44.608933
12132		11.373421	0.588825	-0.554678	2.199232	2.086413	1.179069	0.136066	-0.496813	-0.573584	-0.723633	-0.159912	0.545166	0.113764	0.005566	-0.005260	-0.067977	-0.784233	-0.098409	-0.608830	137.762571	-70.313461	44.740275
12133		12.189805	-1.303958	-1.177885	1.715152	4.172171	1.647224	0.072833	-0.591533	-0.515566	-0.715820	-0.164795	0.553467	0.121898	-0.013350	-0.011423	-0.069521	-0.785831	-0.100403	-0.606263	137.851459	-69.864500	44.690268
12134		11.654017	-1.085106	-0.904794	1.933479	3.896404	1.091027	0.328492	-0.714323	-0.611118	-0.702393	-0.168213	0.560303	0.116538	-0.011193	-0.008650	-0.070412	-0.787827	-0.103501	-0.603040	138.099344	-69.326620	44.626320
12135		11.602315	0.091873	-0.837848	2.158468	2.817632	1.265434	0.284945	-0.832307	-0.718683	-0.706787	-0.164307	0.572754	0.116059	0.000513	-0.007895	-0.071855	-0.790086	-0.106849	-0.599320	138.312482	-68.697140	44.573050
12136		11.272178	0.568509	-0.605324	2.431074	2.358778	0.970452	0.215658	-0.942251	-0.767211	-0.698486	-0.177246	0.583008	0.112769	0.005259	-0.005516	-0.073776	-0.792595	-0.110135	-0.595164	138.531266	-68.002144	44.470264
12137		11.171649	1.059885	-0.999232	2.174295	1.941175	1.069867	0.125010	-1.042735	-0.812516	-0.682129	-0.179443	0.581543	0.111808	0.010151	-0.009403	-0.076242	-0.795312	-0.113292	-0.590619	138.733541	-67.246525	44.329131
12138		10.876650	1.435079	-1.377633	1.878819	1.588003	0.967162	0.097246	-1.112666	-0.832046	-0.679443	-0.186523	0.584717	0.108899	0.013904	-0.013164	-0.078914	-0.798178	-0.116407	-0.585777	138.950612	-66.453372	44.153082
12139		10.665835	1.971485	-1.544440	1.829083	1.106121	0.932591	0.092197	-1.156523	-0.837390	-0.665039	-0.195557	0.595215	0.106827	0.019275	-0.014818	-0.081641	-0.801127	-0.119512	-0.580730	139.183518	-65.638775	43.956188
12140		10.244312	2.937944	-1.780899	1.695318	0.151158	0.857367	0.065601	-1.185398	-0.831925	-0.653320	-0.198486	0.606201	0.102667	0.028958	-0.017191	-0.084475	-0.804110	-0.122493	-0.575557	139.415841	-64.813593	43.741006
12141		9.841444	3.802906	-2.128598	1.449916	-0.704789	0.829033	-0.022223	-1.178846	-0.775324	-0.642822	-0.195313	0.611084	0.098684	0.037645	-0.020709	-0.087487	-0.807031	-0.124996	-0.570458	139.630475	-64.011740	43.489075
12142		8.962026	4.271653	-2.856751	0.643306	-1.333148	0.411469	-0.143339	-1.137119	-0.694246	-0.631836	-0.210449	0.614014	0.089928	0.042384	-0.028087	-0.090730	-0.809793	-0.126833	-0.565612	139.802832	-63.258054	43.204392
12143		8.481194	4.162142	-3.552510	-0.082318	-1.297520	0.196456	-0.209171	-1.032225	-0.602996	-0.625488	-0.208008	0.622070	0.085119	0.041328	-0.035130	-0.093908	-0.812252	-0.128163	-0.561250	139.928300	-62.583436	42.929033
12144		8.711802	3.207090	-3.432552	0.090578	-0.254391	0.081235	-0.198077	-0.836730	-0.461795	-0.606689	-0.214600	0.627197	0.087334	0.031836	-0.033992	-0.096520	-0.814234	-0.129032	-0.557725	140.032006	-62.046611	42.683004
12145		9.212641	1.894725	-2.924973	0.665737	1.186800	-0.057372	-0.078645	-0.576597	-0.284908	-0.607422	-0.218994	0.629639	0.092237	0.018804	-0.028991	-0.097979	-0.815649	-0.129644	-0.555256	140.164690	-61.688667	42.481605
12146		8.989182	1.769028	-2.530582	0.984782	1.251860	-0.442435	0.050967	-0.330104	-0.169261	-0.608643	-0.210205	0.625732	0.089948	0.017621	-0.025153	-0.098433	-0.816512	-0.130255	-0.553763	140.295090	-61.481691	42.365632
12147		8.427600	2.210883	-2.483173	0.898563	0.658962	-0.821751	0.089088	-0.105218	-0.008743	-0.613037	-0.213867	0.630615	0.084290	0.022116	-0.024778	-0.098136	-0.816873	-0.130436	-0.553239	140.425094	-61.432244	42.275903
12148		8.023634	2.808262	-2.566549	0.743872	-0.045553	-0.964142	0.108576	0.107623	0.172620	-0.615967	-0.214600	0.636719	0.080198	0.028166	-0.025693	-0.097120	-0.816773	-0.130028	-0.553662	140.570892	-61.543173	42.180253
12149		8.005155	3.006658	-2.405752	0.893374	-0.269576	-0.978707	0.144772	0.331870	0.352893	-0.619629	-0.209961	0.625244	0.079958	0.030225	-0.024168	-0.095309	-0.816184	-0.129099	-0.555062	140.735774	-61.818541	42.087338
12150		8.117108	2.938135	-2.323147	0.969809	-0.215296	-0.928441	0.176723	0.559607	0.523016	-0.616699	-0.209473	0.625244	0.081028	0.029614	-0.023432	-0.092751	-0.815078	-0.127664	-0.557446	140.908692	-62.256796	42.005573
12151		8.223757	3.072201	-2.267688	1.021455	-0.371599	-0.811085	0.176608	0.770433	0.683775	-0.615967	-0.207764	0.622314	0.082044	0.031023	-0.022966	-0.089606	-0.813470	-0.125676	-0.560751	141.077148	-62.846483	41.929930
12152		8.275190	2.936538	-2.176432	1.041483	-0.304942	-0.831591	0.169022	0.962318	0.857305	-0.623047	-0.194580	0.617920	0.082519	0.029738	-0.022137	-0.085886	-0.811402	-0.123033	-0.564901	141.263532	-63.584339	41.828615
12153		8.473917	3.092339	-2.184313	1.030703	-0.488897	-0.601929	0.155550	1.126071	1.009516	-0.646240	-0.190430	0.612549	0.084457	0.031367	-0.022295	-0.081681	-0.808918	-0.119808	-0.569759	141.470351	-64.449483	41.697845
12154		8.593636	3.133638	-2.253793	0.906812	-0.603927	-0.455300	0.133527	1.271905	1.137220	-0.651611	-0.184326	0.614258	0.085611	0.031839	-0.023062	-0.077113	-0.806033	-0.116047	-0.575237	141.687698	-65.425650	41.541518
12155		8.822296	3.304801	-2.370679	0.767505	-0.829586	-0.164125	0.106798	1.403265	1.236078	-0.671875	-0.179688	0.599854	0.087847	0.033605	-0.024306	-0.072281	-0.802753	-0.111861	-0.581250	141.900392	-66.495430	41.375787
12156		8.890810	3.228507	-2.438237	0.585119	-0.873930	-0.101590	0.062326	1.517721	1.338071	-0.677246	-0.165039	0.589844	0.088501	0.032886	-0.025045	-0.067266	-0.799104	-0.107157	-0.587730	142.118533	-67.652906	41.176679
12157		8.966602	3.020383	-2.385328	0.496121	-0.795962	-0.100366	0.039017	1.598409	1.405918	-0.696289	-0.162109	0.575928	0.089256	0.030837	-0.024562	-0.062089	-0.795160	-0.102139	-0.594502	142.352222	-68.870120	40.949327
12158		9.063019	2.857514	-2.332391	0.409089	-0.761580	-0.066272	0.021651	1.660903	1.423036	-0.704102	-0.146973	0.562744	0.090226	0.029221	-0.024071	-0.056897	-0.790941	-0.097000	-0.601470	142.564673	-70.121665	40.734767
12159		9.198523	2.639733	-2.347064	0.255722	-0.667688	0.014552	-0.001455	1.698146	1.395512	-0.716553	-0.141602	0.552246	0.091594	0.027037	-0.024250	-0.051848	-0.786495	-0.091907	-0.608515	142.716909	-71.380055	40.572788
12160		9.373389	2.713261	-2.322204	0.167150	-0.848762	0.180436	-0.036156	1.712532	1.356766	-0.729736	-0.134277	0.539063	0.093344	0.027762	-0.024027	-0.047047	-0.781884	-0.086846	-0.615550	142.798376	-72.631754	40.464355
12161		9.488700	2.840899	-2.480046	-0.116020	-1.100109	0.337633	-0.102857	1.716581	1.310781	-0.746338	-0.120361	0.533203	0.094481	0.029016	-0.025627	-0.042635	-0.777132	-0.081759	-0.622546	142.778086	-73.869054	40.424143
12162		9.423580	2.483253	-2.410393	-0.255821	-0.895994	0.182727	-0.144802	1.707227	1.281422	-0.758057	-0.120605	0.518066	0.093864	0.025417	-0.024924	-0.038482	-0.772298	-0.076635	-0.629445	142.695820	-75.092190	40.422365
12163		9.140770	1.823854	-2.610696	-0.713574	-0.430973	-0.169160	-0.056502	1.669634	1.210685	-0.769775	-0.104980	0.500732	0.091073	0.018783	-0.026873	-0.034215	-0.767488	-0.072055	-0.636081	142.581688	-76.273335	40.506880
12164		9.401463	1.913506	-2.631142	-0.833328	-0.603865	0.082243	0.061005	1.611511	1.123192	-0.779053	-0.096924	0.489502	0.093689	0.019670	-0.027061	-0.029800	-0.762773	-0.068158	-0.642374	142.431568	-77.397747	40.695818
12165		9.544455	1.809431	-2.737360	-1.070174	-0.605792	0.204723	0.135826	1.572108	1.051087	-0.794189	-0.093506	0.487061	0.095129	0.018614	-0.028110	-0.025335	-0.758101	-0.064773	-0.648418	142.201829	-78.478638	41.010451
12166		9.484478	1.864886	-2.703884	-1.185861	-0.782949	0.123213	0.231241	1.517555	0.974540	-0.794434	-0.088867	0.480469	0.094544	0.019142	-0.027735	-0.020779	-0.753526	-0.061967	-0.654161	141.890233	-79.507815	41.461733
12167		9.345352	2.070124	-2.609958	-1.233016	-1.107203	-0.030853	0.264828	1.463303	0.897104	-0.804932	-0.072266	0.463867	0.093165	0.021155	-0.026754	-0.016357	-0.749050	-0.059560	-0.659628	141.425910	-80.484262	42.087424
12168		9.285032	2.189178	-2.631141	-1.379843	-1.334848	-0.104995	0.277325	1.401939	0.845012	-0.811523	-0.071045	0.455322	0.092569	0.022320	-0.026930	-0.012087	-0.744707	-0.057372	-0.664811	140.837706	-81.413753	42.842639
12169		9.216498	2.154648	-2.643749	-1.521054	-1.404794	-0.206087	0.278419	1.335911	0.803958	-0.824463	-0.062012	0.443359	0.091898	0.021954	-0.027022	-0.007958	-0.740524	-0.055341	-0.669701	140.135303	-82.297519	43.713461
12170		9.234273	1.984409	-2.621294	-1.621696	-1.324276	-0.236910	0.264998	1.277659	0.762387	-0.835938	-0.052246	0.435547	0.092096	0.020231	-0.026775	-0.004043	-0.736478	-0.053404	-0.674338	139.251349	-83.138768	44.756337
12171		9.103888	1.727281	-2.613021	-1.749704	-1.166353	-0.417543	0.265885	1.218097	0.734883	-0.833252	-0.043213	0.429932	0.090813	0.017642	-0.026660	-0.000224	-0.732587	-0.051577	-0.678717	138.205842	-83.941511	45.961950
12172		8.989413	1.638971	-2.523118	-1.774248	-1.162756	-0.573607	0.275932	1.148999	0.678869	-0.841064	-0.037598	0.421143	0.089691	0.016730	-0.025724	0.003416	-0.728879	-0.049979	-0.682807	136.862132	-84.690478	47.470024
12173		8.827923	1.758300	-2.406542	-1.749718	-1.359241	-0.762543	0.273072	1.078750	0.630083	-0.849854	-0.036377	0.403320	0.088092	0.017894	-0.024517	0.006869	-0.725367	-0.048555	-0.686613	135.160633	-85.386791	49.335073
12174		8.862759	1.787042	-2.180421	-1.604587	-1.437500	-0.765358	0.207746	1.012221	0.592838	-0.852539	-0.031006	0.407471	0.088462	0.018156	-0.022233	0.009932	-0.722050	-0.047035	-0.690169	132.980478	-86.035448	51.639477
12175		8.916864	1.941021	-2.096923	-1.585810	-1.645069	-0.732312	0.136254	0.940232	0.557832	-0.869873	-0.031006	0.382080	0.089014	0.019673	-0.021375	0.012608	-0.718952	-0.045404	-0.693460	130.208622	-86.633719	54.495339
12176		8.988812	2.251154	-2.145847	-1.681769	-2.013608	-0.670075	0.021737	0.873766	0.537576	-0.863281	-0.031006	0.377686	0.089732	0.022755	-0.021848	0.014776	-0.716067	-0.043444	-0.696521	126.646269	-87.188249	58.073915
12177		9.002686	2.088794	-2.193689	-1.815503	-1.910669	-0.687105	-0.134808	0.818475	0.537474	-0.864990	-0.018311	0.382813	0.089880	0.021115	-0.022319	0.016381	-0.713369	-0.040950	-0.699400	121.943988	-87.709774	62.703628
12178		8.889852	1.536556	-2.258332	-1.996801	-1.421194	-0.841461	-0.246658	0.762496	0.536269	-0.871582	-0.021240	0.376221	0.088770	0.015576	-0.022941	0.017559	-0.710858	-0.038064	-0.702086	115.415596	-88.192808	69.093215
12179		8.781702	1.090262	-2.291880	-2.131129	-1.029581	-0.983338	-0.276682	0.711166	0.513364	-0.873047	-0.009766	0.371094	0.087706	0.011096	-0.023246	0.018552	-0.708509	-0.035167	-0.704581	105.480624	-88.616579	78.873502
12180		8.757509	1.030670	-2.251050	-2.153757	-1.010810	-1.028461	-0.270164	0.646650	0.476778	-0.873535	-0.001221	0.361572	0.087477	0.010485	-0.022808	0.019416	-0.706368	-0.032419	-0.706836	90.037890	-88.945688	94.163323
12181		8.709516	1.032008	-2.175598	-2.131486	-1.046296	-1.093993	-0.267752	0.586467	0.425956	-0.874023	0.001709	0.359131	0.087009	0.010476	-0.022025	0.020110	-0.704418	-0.029873	-0.708871	67.507425	-89.130519	116.543559
12182		8.619779	1.106945	-2.121354	-2.118932	-1.152145	-1.198253	-0.270698	0.514090	0.380138	-0.881348	-0.004883	0.348633	0.086122	0.011204	-0.021450	0.020611	-0.702710	-0.027479	-0.710647	42.815698	-89.149529	141.081819
12183		8.375190	1.338733	-2.205753	-2.225193	-1.419650	-1.455996	-0.298093	0.423600	0.335802	-0.886475	0.001709	0.352295	0.083682	0.013495	-0.022255	0.020855	-0.701311	-0.025158	-0.712106	23.598941	-89.058428	160.130198
12184		8.232323	1.924405	-2.272991	-2.286049	-2.029884	-1.609371	-0.342167	0.320709	0.256447	-0.877197	0.003906	0.340820	0.082262	0.019310	-0.022895	0.020638	-0.700269	-0.022962	-0.713211	11.947921	-88.934541	171.585596
12185		8.205611	1.724946	-2.435628	-2.488224	-1.853062	-1.650910	-0.415891	0.234930	0.190638	-0.888672	-0.004639	0.344482	0.082011	0.017277	-0.024489	0.019928	-0.699527	-0.020749	-0.714027	4.888419	-88.823216	178.408246
12186		8.327830	1.092004	-2.500602	-2.612920	-1.229727	-1.538715	-0.399426	0.160266	0.122012	-0.892578	-0.000244	0.337891	0.083252	0.010921	-0.025095	0.019012	-0.699040	-0.018836	-0.714582	0.881716	-88.740557	-177.814395
12187		8.290000	0.756844	-2.436897	-2.579582	-0.891082	-1.579395	-0.309198	0.094787	0.036122	-0.880127	-0.004150	0.340332	0.082887	0.007546	-0.024420	0.018110	-0.698766	-0.017558	-0.714905	-0.514822	-88.691476	-176.594572
12188		8.148642	0.938125	-2.439471	-2.576846	-1.067226	-1.722425	-0.210379	0.036898	-0.029015	-0.889893	-0.003662	0.337402	0.081483	0.009344	-0.024420	0.017303	-0.698685	-0.016859	-0.715022	-0.174045	-88.675729	-177.057429
12189		8.007358	1.285297	-2.493662	-2.612858	-1.408112	-1.864210	-0.159899	-0.031872	-0.089879	-0.888672	0.000732	0.343994	0.080083	0.012797	-0.024934	0.016461	-0.698838	-0.016566	-0.714899	1.712399	-88.698531	-179.035870
12190		7.937400	1.853707	-2.607241	-2.695198	-1.969076	-1.932657	-0.137328	-0.098720	-0.134868	-0.892334	-0.005127	0.342285	0.079399	0.018466	-0.026046	0.015520	-0.699225	-0.016510	-0.714542	4.995953	-88.756236	177.599709
12191		7.926316	2.105706	-2.661994	-2.731121	-2.207526	-1.937761	-0.159334	-0.158364	-0.178361	-0.886475	0.000977	0.338379	0.079303	0.020965	-0.026574	0.014353	-0.699821	-0.016538	-0.713983	10.024460	-88.838866	172.478922
12192		9.407873	0.761608	-0.433282	-0.585794	-0.746168	-0.411841	-0.064687	-0.071374	-0.177235	-0.888916	-0.007324	0.347656	0.094087	0.007531	-0.004302	0.013517	-0.700100	-0.016889	-0.713717	15.139854	-88.863319	167.324179
12193		12.293761	-2.473472	1.270379	0.913398	2.585866	2.489647	0.198800	0.141115	-0.093634	-0.888672	-0.001221	0.337891	0.122935	-0.024805	0.012592	0.013931	-0.699608	-0.017878	-0.714168	16.457197	-88.777623	166.120622
12194		11.960763	-2.567032	2.445968	2.049640	2.749747	2.181885	0.734194	0.339186	-0.107076	-0.885498	-0.000732	0.337646	0.119635	-0.025823	0.024162	0.016177	-0.698365	-0.020807	-0.715256	16.828278	-88.580816	166.168995
12195		9.795758	0.084366	2.310643	2.056978	0.110203	0.039194	0.740069	0.367717	-0.161064	-0.885986	0.006348	0.333740	0.098000	0.000680	0.022929	0.018263	-0.697001	-0.023948	-0.716438	18.013574	-88.359008	165.407594
12196		9.797866	1.450164	1.176624	0.974670	-1.301348	0.028147	0.113172	0.299730	-0.107807	-0.895264	-0.005127	0.340576	0.098004	0.014442	0.011628	0.018338	-0.695938	-0.024660	-0.717444	18.121833	-88.183626	165.363209
12197		11.488352	-1.340760	0.342492	-0.105259	1.439859	1.668288	-0.379411	0.286913	0.170496	-0.892822	0.002441	0.333496	0.114900	-0.013303	0.003285	0.017705	-0.694996	-0.022641	-0.718439	13.524681	-88.058727	169.745462
12198		11.759840	-3.250778	0.879020	0.293434	3.345518	1.949765	-0.290681	0.212160	0.330904	-0.892334	0.003418	0.329102	0.117661	-0.032300	0.008712	0.017938	-0.694330	-0.020385	-0.719144	7.185079	-87.979515	175.920998
12199		10.521846	-1.735602	0.899338	0.431530	1.797430	0.728345	-0.206826	0.081683	0.184856	-0.890625	0.007813	0.333008	0.105238	-0.017249	0.008968	0.017933	-0.694107	-0.018954	-0.719399	3.806742	-87.948801	179.183026
12200		10.096412	-0.399377	0.823089	0.441035	0.444713	0.305723	-0.280162	-0.020212	0.023480	-0.887695	0.000244	0.331299	0.100964	-0.003970	0.008247	0.017075	-0.694241	-0.017824	-0.719319	3.125183	-87.966917	179.703403
12201		10.107985	0.192158	0.827917	0.481844	-0.144886	0.318480	-0.403579	-0.101958	-0.114156	-0.899170	-0.005859	0.332031	0.101077	0.001881	0.008327	0.015295	-0.694664	-0.016740	-0.718977	4.698817	-88.026318	177.897568
12202		10.284550	0.035090	0.838335	0.492905	0.026657	0.494217	-0.494057	-0.170979	-0.240745	-0.883301	-0.000732	0.326416	0.102839	0.000248	0.008471	0.012729	-0.695328	-0.015769	-0.718407	8.657085	-88.113682	173.652510
12203		10.310467	-0.463642	0.561076	0.216515	0.539772	0.507057	-0.516385	-0.223640	-0.335982	-0.890625	-0.013428	0.330566	0.103090	-0.004795	0.005738	0.009750	-0.696167	-0.015058	-0.717656	14.880060	-88.206369	167.130450
12204		9.844626	-0.468225	0.266730	-0.035483	0.566089	0.030336	-0.467535	-0.291009	-0.410869	-0.894775	-0.020264	0.339600	0.098432	-0.004878	0.002822	0.006657	-0.697233	-0.014781	-0.716661	23.560097	-88.293672	158.177250
12205		9.642153	-0.046603	0.179644	-0.071754	0.181461	-0.170736	-0.533340	-0.356765	-0.470385	-0.893799	-0.018066	0.331787	0.096417	-0.000688	0.001970	0.003127	-0.698522	-0.014483	-0.715435	34.593054	-88.349262	146.834012
12206		9.939421	-1.105856	-0.027770	-0.272061	1.286643	0.101239	-0.576119	-0.401580	-0.497316	-0.882813	-0.025391	0.336914	0.099367	-0.011306	-0.000046	-0.000663	-0.699960	-0.014120	-0.714042	46.935150	-88.345550	134.155371
12207		10.074924	-1.363972	0.254641	0.050386	1.601690	0.230271	-0.438144	-0.426961	-0.494166	-0.876953	-0.032471	0.347412	0.100709	-0.013883	0.002792	-0.003950	-0.701475	-0.014245	-0.712541	59.111307	-88.274353	121.722947
12208		9.479470	-0.581273	0.742941	0.605526	0.858411	-0.344513	-0.319221	-0.432252	-0.518493	-0.884766	-0.035156	0.346436	0.094763	-0.006046	0.007644	-0.006917	-0.703001	-0.014872	-0.710999	70.165576	-88.119163	110.479117
12209		9.120056	0.606320	0.526772	0.446914	-0.294578	-0.673009	-0.260822	-0.422587	-0.558669	-0.877686	-0.039063	0.341064	0.091206	0.005815	0.005453	-0.009811	-0.704481	-0.015855	-0.709478	79.227065	-87.881163	101.262753
12210		9.082697	1.508048	0.357754	0.320307	-1.148923	-0.676241	-0.270334	-0.389946	-0.569108	-0.870850	-0.047607	0.357178	0.090862	0.014827	0.003735	-0.012781	-0.705835	-0.016837	-0.708061	85.866648	-87.593199	94.462048
12211		9.279699	1.770041	0.153924	0.146911	-1.353838	-0.463098	-0.284394	-0.343104	-0.543030	-0.870117	-0.056641	0.353271	0.092842	0.017451	0.001674	-0.015696	-0.707014	-0.017684	-0.706804	90.441792	-87.294944	89.719397
12212		9.404254	1.842034	-0.042740	-0.023131	-1.371755	-0.328363	-0.297567	-0.319477	-0.514172	-0.870117	-0.053955	0.349609	0.094090	0.018178	-0.000304	-0.018563	-0.708105	-0.018379	-0.705624	93.833810	-86.999578	86.151332
12213		9.670104	1.953940	-0.288694	-0.243158	-1.420572	-0.048737	-0.314500	-0.308244	-0.514612	-0.873291	-0.069580	0.357178	0.096755	0.019286	-0.002768	-0.021480	-0.709144	-0.019023	-0.704479	96.470766	-86.695956	83.330059
12214		10.047738	1.350884	-0.471509	-0.395574	-0.746363	0.301186	-0.373004	-0.307619	-0.484189	-0.867676	-0.063721	0.359131	0.100517	0.013257	-0.004585	-0.024506	-0.710172	-0.019347	-0.703336	98.650840	-86.403111	80.930911
12215		10.192365	1.012267	-0.718620	-0.610899	-0.348340	0.430876	-0.380651	-0.306906	-0.463998	-0.860107	-0.070068	0.357910	0.101958	0.009873	-0.007049	-0.027480	-0.711188	-0.019578	-0.702192	100.503104	-86.117195	78.856275
12216		10.080068	1.134324	-1.104096	-0.970764	-0.424332	0.335750	-0.394048	-0.303353	-0.448380	-0.857666	-0.074463	0.359375	0.100842	0.011096	-0.010910	-0.030452	-0.712185	-0.019703	-0.701054	102.077414	-85.836210	77.050969
12217		9.911277	1.260521	-1.389541	-1.233499	-0.509062	0.185923	-0.417161	-0.303618	-0.442954	-0.860352	-0.077393	0.362793	0.099161	0.012357	-0.013771	-0.033481	-0.713171	-0.019731	-0.699912	103.434023	-85.555426	75.450972
12218		9.972899	1.146977	-1.389302	-1.203303	-0.342937	0.244083	-0.418829	-0.293038	-0.432204	-0.855713	-0.091309	0.368652	0.099774	0.011225	-0.013771	-0.036483	-0.714114	-0.019713	-0.698800	104.562900	-85.279196	74.077027
12219		9.974893	0.989743	-1.566909	-1.350784	-0.135399	0.241670	-0.383612	-0.279677	-0.402550	-0.854492	-0.087891	0.364258	0.099790	0.009667	-0.015548	-0.039247	-0.715010	-0.019717	-0.697733	105.539375	-85.019759	72.876597
12220		9.726557	1.386999	-1.535647	-1.311473	-0.508634	0.031550	-0.336163	-0.266077	-0.400194	-0.855225	-0.104492	0.374756	0.097313	0.013650	-0.015250	-0.041840	-0.715864	-0.019877	-0.696701	106.358517	-84.761818	71.859942
12221		9.791590	1.403494	-1.437658	-1.189519	-0.480001	0.100250	-0.317512	-0.243382	-0.396279	-0.855713	-0.105225	0.373779	0.097961	0.013818	-0.014279	-0.044342	-0.716636	-0.020097	-0.695746	106.978082	-84.509034	71.055068
12222		9.889122	1.430848	-1.435481	-1.164758	-0.457188	0.204139	-0.275809	-0.206610	-0.378631	-0.850342	-0.106201	0.373047	0.098933	0.014101	-0.014272	-0.046638	-0.717287	-0.020401	-0.694916	107.390084	-84.271043	70.481152
12223		9.840888	1.607554	-1.615189	-1.335329	-0.591852	0.182442	-0.247959	-0.163398	-0.348682	-0.852783	-0.105957	0.372803	0.098450	0.015884	-0.016091	-0.048716	-0.717792	-0.020710	-0.694242	107.601175	-84.056991	70.126286
12224		9.682489	1.755554	-1.943811	-1.662329	-0.704572	0.053978	-0.208803	-0.115403	-0.331105	-0.852783	-0.110596	0.378418	0.096865	0.017375	-0.019400	-0.050596	-0.718141	-0.021099	-0.693736	107.601625	-83.860357	70.004715
12225		9.792545	1.663686	-2.069607	-1.772155	-0.563278	0.161637	-0.145935	-0.063503	-0.301247	-0.850586	-0.114014	0.370117	0.097957	0.016474	-0.020677	-0.052132	-0.718323	-0.021617	-0.693416	107.422949	-83.689436	70.100475
12226		10.009846	1.636207	-2.046254	-1.735124	-0.484954	0.376298	-0.053309	-0.012999	-0.271206	-0.845703	-0.113770	0.377686	0.100122	0.016221	-0.020460	-0.053234	-0.718359	-0.022357	-0.693272	107.106855	-83.543040	70.387031
12227		10.122123	1.323074	-1.995427	-1.666030	-0.139811	0.453489	0.036298	0.028611	-0.230676	-0.845459	-0.112793	0.370361	0.101234	0.013118	-0.019966	-0.053861	-0.718276	-0.023277	-0.693280	106.713447	-83.426057	70.804064
12228		10.016448	1.687964	-1.867372	-1.557931	-0.499537	0.384803	0.143977	0.052160	-0.214181	-0.843994	-0.117676	0.372070	0.100178	0.016786	-0.018688	-0.054048	-0.718143	-0.024514	-0.693360	106.309682	-83.321179	71.292962
12229		9.956058	1.949025	-1.386221	-1.091360	-0.769936	0.339136	0.196925	0.068456	-0.187349	-0.848633	-0.115967	0.375000	0.099574	0.019411	-0.013877	-0.053943	-0.717968	-0.025846	-0.693501	105.907464	-83.233728	71.811711
12230		10.093304	2.254657	-0.861038	-0.574850	-1.065633	0.494282	0.209514	0.077710	-0.157366	-0.848389	-0.120117	0.373291	0.100947	0.022476	-0.008626	-0.053695	-0.717769	-0.027113	-0.693678	105.522132	-83.163350	72.319993
12231		10.030152	2.803316	-0.371145	-0.109755	-1.625213	0.480363	0.171976	0.092358	-0.113515	-0.845947	-0.117920	0.372559	0.100316	0.027979	-0.003734	-0.053420	-0.717512	-0.028100	-0.693926	105.109130	-83.119486	72.835352
12232		9.797265	3.150440	-0.416267	-0.179748	-1.986922	0.292003	0.056012	0.099899	-0.066809	-0.849609	-0.118408	0.371582	0.097981	0.031473	-0.004203	-0.053406	-0.717206	-0.028515	-0.694226	104.659459	-83.101616	73.319903
12233		9.463387	2.969238	-0.414387	-0.192861	-1.841401	-0.059954	-0.091188	0.109636	-0.031165	-0.851318	-0.115723	0.377197	0.094636	0.029676	-0.004209	-0.053787	-0.716830	-0.028298	-0.694594	104.122127	-83.104929	73.808659
12234		9.492385	1.732954	-0.242770	0.008726	-0.615835	-0.180030	-0.187348	0.122752	-0.004073	-0.850098	-0.118652	0.371094	0.094923	0.017325	-0.002502	-0.054424	-0.716387	-0.027651	-0.695027	103.501322	-83.123968	74.325276
12235		9.784273	0.661317	-0.118714	0.167324	0.476061	-0.018363	-0.167345	0.126554	0.008782	-0.852295	-0.115967	0.376465	0.097842	0.006616	-0.001255	-0.054936	-0.715936	-0.027030	-0.695476	102.882445	-83.150548	74.852182
12236		9.829459	0.834764	-0.061733	0.207766	0.306612	0.045391	-0.106497	0.103576	-0.014447	-0.851807	-0.118164	0.361816	0.098295	0.008340	-0.000673	-0.055322	-0.715580	-0.026696	-0.695825	102.380176	-83.160104	75.296063
12237		9.589733	0.863027	-0.069669	0.181830	0.252990	-0.188989	-0.113448	0.095772	-0.034025	-0.857666	-0.122803	0.364990	0.095898	0.008614	-0.000747	-0.055794	-0.715243	-0.026408	-0.696144	101.887256	-83.157831	75.727186
12238		9.582540	0.702953	-0.006072	0.242803	0.411459	-0.216282	-0.074398	0.092697	-0.044666	-0.853760	-0.119629	0.367432	0.095827	0.007008	-0.000108	-0.056172	-0.714929	-0.026290	-0.696441	101.423775	-83.148270	76.150461
12239		9.645954	0.666971	0.054812	0.298511	0.455521	-0.158897	-0.040280	0.094378	-0.046596	-0.854004	-0.117432	0.374512	0.096461	0.006647	0.000501	-0.056427	-0.714616	-0.026301	-0.696742	100.969029	-83.137936	76.585373
12240		9.448837	0.786734	-0.123868	0.101542	0.326734	-0.336521	0.011991	0.098261	-0.074424	-0.852295	-0.119629	0.369385	0.094491	0.007832	-0.001285	-0.056598	-0.714302	-0.026593	-0.697038	100.506022	-83.111429	77.058174
12241		9.203561	0.866040	-0.197433	0.011233	0.230492	-0.569243	0.045504	0.082253	-0.112389	-0.854248	-0.123535	0.373535	0.092040	0.008609	-0.002010	-0.056777	-0.714046	-0.027134	-0.697265	100.106112	-83.061957	77.487412
12242		9.292074	0.732797	-0.104200	0.107912	0.380891	-0.499592	0.072274	0.047812	-0.160814	-0.852783	-0.122559	0.368896	0.092926	0.007254	-0.001062	-0.057041	-0.713913	-0.027930	-0.697348	99.850032	-82.980942	77.786531
12243		9.843479	0.404249	0.311300	0.548280	0.770064	-0.001430	0.104893	0.033836	-0.171374	-0.859863	-0.126221	0.370117	0.098439	0.003957	0.003098	-0.057220	-0.713834	-0.028875	-0.697376	99.671501	-82.892972	78.027122
12244		10.056601	0.476713	0.677922	0.917027	0.726292	0.209966	0.137342	0.013659	-0.188572	-0.856689	-0.135254	0.367432	0.100571	0.004668	0.006776	-0.057354	-0.713833	-0.029986	-0.697319	99.596383	-82.792802	78.181519
12245		9.621386	1.415034	0.763202	0.959264	-0.241417	-0.108185	0.109795	-0.021075	-0.216466	-0.847168	-0.132324	0.370850	0.096228	0.014042	0.007650	-0.057681	-0.713939	-0.031093	-0.697135	99.638565	-82.674029	78.202549
12246		9.234759	1.912505	0.627739	0.802380	-0.756514	-0.425657	0.037221	-0.055131	-0.241188	-0.852783	-0.129883	0.375732	0.092369	0.019013	0.006306	-0.058368	-0.714139	-0.032022	-0.696831	99.770133	-82.537505	78.090407
12247		9.322329	1.295281	0.621242	0.828078	-0.111752	-0.417408	-0.033583	-0.074871	-0.248338	-0.854980	-0.128906	0.367188	0.093237	0.012838	0.006245	-0.059326	-0.714383	-0.032728	-0.696467	99.933249	-82.395477	77.906598
12248		9.577070	0.880114	0.559643	0.798873	0.358266	-0.218863	-0.010866	-0.111746	-0.274811	-0.851563	-0.134033	0.379639	0.095780	0.008670	0.005649	-0.060309	-0.714758	-0.033594	-0.695956	100.237912	-82.234249	77.592323
12249		9.427868	1.307276	0.465285	0.699940	-0.054030	-0.309150	0.006373	-0.164564	-0.322110	-0.848877	-0.129150	0.367676	0.094296	0.012921	0.004731	-0.061396	-0.715311	-0.034675	-0.695240	100.715270	-82.041058	77.114257
12250		9.547233	1.681843	0.262766	0.507474	-0.371098	-0.135294	-0.003220	-0.202775	-0.333557	-0.848389	-0.143311	0.369385	0.095497	0.016659	0.002724	-0.062569	-0.715991	-0.035751	-0.694380	101.307177	-81.836184	76.514110
12251		9.966136	1.473526	0.190030	0.477906	-0.074484	0.251964	-0.034458	-0.206906	-0.309649	-0.843506	-0.136230	0.375977	0.099682	0.014581	0.002001	-0.063766	-0.716675	-0.036633	-0.693519	101.885547	-81.643867	75.909865
12252		9.991106	1.436547	-0.196948	0.116567	0.009987	0.282403	-0.035160	-0.220244	-0.297961	-0.844971	-0.142334	0.369141	0.099934	0.014216	-0.001862	-0.064934	-0.717407	-0.037463	-0.692609	102.497559	-81.455111	75.270165
12253		9.482460	1.861350	-0.633231	-0.329871	-0.436877	-0.144033	-0.062701	-0.243443	-0.309508	-0.834717	-0.139648	0.389648	0.094861	0.018465	-0.006223	-0.066238	-0.718204	-0.038235	-0.691617	103.140055	-81.256420	74.584085
12254		9.362138	1.878201	-1.080614	-0.758464	-0.423635	-0.242413	-0.087392	-0.239785	-0.308140	-0.848633	-0.147949	0.386230	0.093663	0.018633	-0.010702	-0.067631	-0.718979	-0.038916	-0.690638	103.728632	-81.057405	73.937316
12255		9.591083	1.574581	-1.140662	-0.773949	-0.058444	-0.057342	-0.074963	-0.233894	-0.298913	-0.843506	-0.146973	0.385010	0.095947	0.015598	-0.011300	-0.068940	-0.719735	-0.039609	-0.689681	104.283831	-80.863834	73.331781
12256		9.775568	1.323361	-1.044121	-0.635713	0.241456	0.083810	-0.021880	-0.227958	-0.297962	-0.839600	-0.145020	0.384277	0.097787	0.013087	-0.010331	-0.070059	-0.720489	-0.040483	-0.688730	104.827196	-80.670252	72.768158
12257		9.718920	1.713361	-0.885603	-0.470997	-0.131502	0.083679	0.024028	-0.219452	-0.303872	-0.843506	-0.150879	0.391846	0.097225	0.016987	-0.008747	-0.071026	-0.721224	-0.041541	-0.687798	105.339472	-80.474338	72.262960
12258		9.568947	2.251869	-0.778740	-0.369031	-0.663476	0.019180	0.018012	-0.205321	-0.299422	-0.835938	-0.150635	0.381836	0.095731	0.022376	-0.007687	-0.072000	-0.721908	-0.042566	-0.686915	105.787719	-80.281891	71.818564
12259		9.636270	2.198066	-0.684420	-0.248942	-0.576829	0.074821	-0.048746	-0.179814	-0.285485	-0.839111	-0.150391	0.383057	0.096400	0.021841	-0.006763	-0.073157	-0.722480	-0.043321	-0.686145	106.111836	-80.101118	71.461431
12260		9.550368	1.774666	-0.927104	-0.461865	-0.136567	-0.066588	-0.050005	-0.167674	-0.265379	-0.841553	-0.155273	0.395752	0.095535	0.017618	-0.009195	-0.074250	-0.723013	-0.044004	-0.685421	106.404852	-79.932554	71.134696
12261		9.562051	1.665998	-0.897263	-0.410516	-0.004807	-0.073856	-0.020167	-0.152533	-0.259228	-0.830322	-0.160400	0.399414	0.095649	0.016535	-0.008901	-0.075207	-0.723504	-0.044772	-0.684749	106.663201	-79.770041	70.860639
12262		9.833585	1.521488	-0.834249	-0.310249	0.202721	0.165934	0.031485	-0.135115	-0.234419	-0.834961	-0.164063	0.393311	0.098359	0.015101	-0.008274	-0.075894	-0.723961	-0.045634	-0.684133	106.914509	-79.623282	70.623309
12263		9.571797	1.969135	-0.895721	-0.388678	-0.257886	-0.010571	0.064230	-0.124168	-0.244969	-0.826904	-0.166748	0.396484	0.095748	0.019577	-0.008891	-0.076490	-0.724387	-0.046650	-0.683547	107.134396	-79.472932	70.437271
12264		9.385188	2.069884	-0.929135	-0.422305	-0.366846	-0.173367	0.093955	-0.112849	-0.228494	-0.832275	-0.157471	0.401611	0.093881	0.020596	-0.009229	-0.076926	-0.724791	-0.047710	-0.682997	107.348716	-79.332847	70.273533
12265		9.803508	1.952762	-0.934360	-0.383061	-0.159364	0.218409	0.130671	-0.096657	-0.214963	-0.836182	-0.159668	0.406006	0.098060	0.019428	-0.009283	-0.077172	-0.725152	-0.048855	-0.682504	107.543799	-79.203380	70.151316
12266		9.730111	2.027208	-1.126215	-0.567659	-0.218042	0.171459	0.165532	-0.090441	-0.222350	-0.825928	-0.161133	0.401855	0.097329	0.020173	-0.011201	-0.077318	-0.725506	-0.050149	-0.682018	107.732227	-79.070394	70.056101
12267		9.541304	1.830162	-1.089829	-0.524070	-0.041202	-0.050653	0.154098	-0.079761	-0.217692	-0.818604	-0.161133	0.411865	0.095437	0.018206	-0.010846	-0.077484	-0.725816	-0.051390	-0.681577	107.883687	-78.942258	69.991888
12268		9.571254	1.511946	-0.992183	-0.402787	0.291359	-0.084782	0.193157	-0.075446	-0.230122	-0.829102	-0.170166	0.406494	0.095734	0.015019	-0.009871	-0.077554	-0.726124	-0.052811	-0.681132	108.033389	-78.807552	69.952061
12269		9.736098	1.655573	-0.991294	-0.382675	0.198912	0.103418	0.234852	-0.076953	-0.222795	-0.819580	-0.164307	0.411621	0.097383	0.016459	-0.009856	-0.077443	-0.726451	-0.054346	-0.680675	108.213806	-78.677071	69.905442
12270		9.470914	2.260287	-0.968642	-0.379059	-0.425701	-0.044350	0.233911	-0.101665	-0.241092	-0.822998	-0.166992	0.410645	0.094741	0.022500	-0.009612	-0.077410	-0.726857	-0.055935	-0.680116	108.442421	-78.531620	69.808706
12271		9.159076	2.746410	-0.767623	-0.195096	-0.948230	-0.268924	0.147115	-0.115528	-0.245708	-0.828369	-0.172607	0.403564	0.091629	0.027357	-0.007603	-0.077706	-0.727271	-0.057240	-0.679531	108.648851	-78.381600	69.684182
12272		9.480539	2.030570	-0.772747	-0.145964	-0.163951	-0.088865	0.106112	-0.118381	-0.237461	-0.819580	-0.164551	0.414551	0.094834	0.020197	-0.007661	-0.078129	-0.727682	-0.058374	-0.678946	108.843621	-78.234899	69.547145
12273		9.628005	1.675489	-0.705506	-0.045171	0.231361	-0.017390	0.147306	-0.128270	-0.245005	-0.822021	-0.169678	0.410400	0.096305	0.016642	-0.006981	-0.078425	-0.728136	-0.059671	-0.678311	109.075391	-78.082712	69.396708
12274		9.384646	1.532830	-0.345776	0.315351	0.333455	-0.308477	0.176457	-0.134701	-0.241750	-0.820313	-0.185059	0.409912	0.093867	0.015218	-0.003381	-0.078610	-0.728626	-0.061055	-0.677641	109.339354	-77.930413	69.230225
12275		9.456423	1.225510	-0.185801	0.503139	0.664721	-0.311884	0.218434	-0.150392	-0.244871	-0.817139	-0.179932	0.414307	0.094580	0.012141	-0.001774	-0.078653	-0.729179	-0.062584	-0.676901	109.657022	-77.773784	69.033438
12276		9.475580	1.676234	-0.370416	0.333789	0.254962	-0.192028	0.258000	-0.168588	-0.271465	-0.820068	-0.172607	0.412842	0.094782	0.016638	-0.003603	-0.078655	-0.729801	-0.064334	-0.676066	110.012694	-77.598472	68.820069
12277		9.092676	2.103027	-0.331640	0.361013	-0.215902	-0.483572	0.232464	-0.207645	-0.305656	-0.811279	-0.171143	0.422119	0.090962	0.020895	-0.003198	-0.078870	-0.730529	-0.066110	-0.675083	110.408554	-77.397324	68.551159
12278		9.289654	2.248955	-0.154744	0.578289	-0.297127	-0.275571	0.195845	-0.236522	-0.293866	-0.807861	-0.174805	0.423096	0.092931	0.022354	-0.001416	-0.079192	-0.731342	-0.067708	-0.674005	110.852919	-77.195744	68.210675
12279		9.711260	2.114120	0.049485	0.845814	-0.057246	0.089924	0.156740	-0.246497	-0.282608	-0.811523	-0.174072	0.422607	0.097142	0.021003	0.000631	-0.079619	-0.732172	-0.069128	-0.672909	111.295105	-76.998059	67.849304
12280		9.521503	2.512311	0.014491	0.822337	-0.458107	-0.010407	0.141111	-0.271028	-0.302440	-0.819336	-0.185791	0.430420	0.095253	0.024979	0.000292	-0.080181	-0.733070	-0.070559	-0.671715	111.755084	-76.783503	67.460008
12281		9.392384	2.535980	-0.171096	0.656455	-0.477668	-0.116394	0.068117	-0.284642	-0.278572	-0.813232	-0.185059	0.424316	0.093961	0.025229	-0.001569	-0.080932	-0.733988	-0.071650	-0.670506	112.211080	-76.578525	67.031654
12282		9.510397	2.293237	-0.481642	0.389360	-0.183530	-0.027333	0.065993	-0.297699	-0.265307	-0.804443	-0.181396	0.433350	0.095141	0.022808	-0.004667	-0.081655	-0.734952	-0.072680	-0.669250	112.693831	-76.376372	66.573746
12283		9.286923	2.511013	-0.884832	-0.000918	-0.410622	-0.160418	0.102106	-0.319454	-0.282927	-0.794922	-0.181641	0.433838	0.092919	0.024983	-0.008687	-0.082307	-0.735992	-0.073886	-0.667893	113.213207	-76.159675	66.099451
12284		9.206538	2.507039	-0.968317	-0.057282	-0.398039	-0.230341	0.103029	-0.334334	-0.269479	-0.796631	-0.180908	0.432617	0.092115	0.024951	-0.009516	-0.082920	-0.737086	-0.075041	-0.666481	113.762118	-75.945076	65.594637
12285		9.584196	2.279653	-0.831972	0.151371	-0.071949	0.072532	0.098373	-0.328446	-0.266179	-0.804199	-0.188232	0.437988	0.095886	0.022673	-0.008151	-0.083532	-0.738154	-0.076169	-0.665093	114.282873	-75.732985	65.115830
12286		9.756480	2.511360	-1.017083	0.022289	-0.230702	0.310376	0.136386	-0.340576	-0.268834	-0.796875	-0.189453	0.441406	0.097616	0.024989	-0.009988	-0.084021	-0.739276	-0.077429	-0.663639	114.833179	-75.515008	64.628411
12287		9.322902	2.894989	-0.952041	0.079830	-0.679545	-0.028234	0.090777	-0.361353	-0.264240	-0.794434	-0.189453	0.449219	0.093284	0.028831	-0.009339	-0.084667	-0.740443	-0.078510	-0.662127	115.387002	-75.293736	64.110005
12288		9.038065	2.751160	-0.882089	0.155252	-0.582043	-0.343235	0.028175	-0.392824	-0.270745	-0.787109	-0.197021	0.459961	0.090435	0.027390	-0.008639	-0.085582	-0.741683	-0.079395	-0.660514	115.944607	-75.059481	63.549815
12289		9.293540	2.651500	-0.925978	0.180031	-0.400723	-0.113997	0.032333	-0.414450	-0.269411	-0.785156	-0.198242	0.459717	0.092990	0.026391	-0.009063	-0.086481	-0.742991	-0.080279	-0.658818	116.529039	-74.819575	62.963920
12290		9.265551	2.647583	-1.008359	0.135897	-0.376560	-0.131961	0.004732	-0.420160	-0.273065	-0.791260	-0.200684	0.462402	0.092712	0.026350	-0.009888	-0.087503	-0.744301	-0.081081	-0.657103	117.087127	-74.574232	62.387758
12291		9.143932	2.046506	-0.900968	0.264410	0.200837	-0.405190	-0.015404	-0.422987	-0.267155	-0.772705	-0.194336	0.469482	0.091485	0.020342	-0.008818	-0.088575	-0.745608	-0.081794	-0.655388	117.626411	-74.330296	61.818970
12292		9.378212	1.533144	-1.047741	0.186920	0.783245	-0.286379	0.067408	-0.425893	-0.280725	-0.779053	-0.206055	0.474121	0.093826	0.015203	-0.010272	-0.089388	-0.746952	-0.082828	-0.653615	118.188431	-74.076693	61.274857
12293		9.306361	1.760441	-1.187578	0.084418	0.574898	-0.284834	0.157266	-0.442289	-0.314805	-0.772461	-0.207275	0.471680	0.093117	0.017467	-0.011656	-0.089978	-0.748369	-0.084274	-0.651726	118.779979	-73.800534	60.753188
12294		9.286910	2.071842	-1.366709	-0.046399	0.300812	-0.204658	0.158759	-0.453692	-0.334832	-0.771484	-0.207275	0.474365	0.092934	0.020574	-0.013440	-0.090638	-0.749810	-0.085793	-0.649776	119.354324	-73.509152	60.248999
12295		9.552050	2.207519	-1.640760	-0.230863	0.270757	0.121094	0.153047	-0.452288	-0.331084	-0.760742	-0.205078	0.475830	0.095594	0.021929	-0.016175	-0.091300	-0.751238	-0.087281	-0.647833	119.907825	-73.219220	59.762981
12296		9.513572	2.262139	-1.540563	-0.088154	0.236150	0.083516	0.136859	-0.451268	-0.340530	-0.766113	-0.211426	0.489014	0.095208	0.022470	-0.015175	-0.092057	-0.752647	-0.088751	-0.645889	120.424264	-72.923066	59.304814
12297		9.535176	2.092033	-1.518582	-0.017357	0.435806	0.057053	0.165803	-0.452242	-0.332961	-0.767578	-0.207520	0.487061	0.095420	0.020774	-0.014953	-0.092675	-0.754066	-0.090285	-0.643928	120.949084	-72.629708	58.854955
12298		9.393722	2.371977	-1.479551	0.054670	0.157263	-0.013231	0.284467	-0.465672	-0.340724	-0.761230	-0.208252	0.492676	0.094012	0.023580	-0.014543	-0.092881	-0.755576	-0.092223	-0.641851	121.538849	-72.326734	58.407186
12299		9.286208	2.922594	-1.014910	0.561390	-0.384012	-0.048349	0.319854	-0.478722	-0.335111	-0.746826	-0.212646	0.498535	0.092935	0.029086	-0.009880	-0.092935	-0.757136	-0.094246	-0.639707	122.155984	-72.021686	57.951578
12300		9.663620	3.120183	-1.001906	0.697611	-0.446980	0.357765	0.295413	-0.486085	-0.330961	-0.747803	-0.217285	0.501953	0.096712	0.031056	-0.009738	-0.093076	-0.758704	-0.096172	-0.637539	122.756329	-71.714375	57.497716
12301		9.719910	3.515712	-1.153957	0.626360	-0.779084	0.539550	0.210662	-0.503867	-0.351939	-0.748535	-0.216064	0.510010	0.097289	0.034998	-0.011258	-0.093608	-0.760269	-0.097897	-0.635330	123.296828	-71.390585	57.055321
12302		9.532751	2.449571	-1.321604	0.453248	0.232822	0.104995	0.115852	-0.517433	-0.328162	-0.742188	-0.218994	0.511963	0.095401	0.024347	-0.012955	-0.094437	-0.761839	-0.099222	-0.633118	123.807823	-71.072027	56.585299
12303		9.678849	1.696958	-1.172170	0.658159	1.023757	0.008319	0.261518	-0.535934	-0.329533	-0.741455	-0.221924	0.521484	0.096847	0.016825	-0.011440	-0.094717	-0.763525	-0.101005	-0.630758	124.409285	-70.745977	56.107535
12304		9.403518	2.574780	-0.736030	1.128557	0.129032	-0.101528	0.411846	-0.583783	-0.405362	-0.739258	-0.219727	0.511475	0.094108	0.025572	-0.007033	-0.094691	-0.765386	-0.103526	-0.628092	125.071540	-70.366365	55.654992
12305		9.642755	2.607347	-0.535550	1.439631	0.198603	0.084548	0.336350	-0.617203	-0.422336	-0.733398	-0.223633	0.530273	0.096498	0.025878	-0.005014	-0.095017	-0.767293	-0.105859	-0.625322	125.697283	-69.966603	55.194805
12306		10.062059	1.881270	-0.741825	1.358352	1.056860	0.305210	0.357808	-0.647657	-0.447126	-0.724365	-0.219971	0.536133	0.100686	0.018600	-0.007059	-0.095358	-0.769280	-0.108336	-0.622397	126.329399	-69.542897	54.739172
12307		9.636859	2.023607	-0.953548	1.146449	0.846393	-0.022800	0.484896	-0.686617	-0.527628	-0.715576	-0.221924	0.547363	0.096453	0.020004	-0.009156	-0.095475	-0.771387	-0.111499	-0.619205	126.986173	-69.067623	54.334233
12308		9.344768	1.677019	-0.903722	1.191399	1.140214	-0.419414	0.502948	-0.716650	-0.546615	-0.718262	-0.213623	0.545166	0.093525	0.016537	-0.008660	-0.095600	-0.773566	-0.114772	-0.615860	127.647857	-68.571181	53.933246
12309		9.337721	1.984300	-1.134318	1.061002	0.894775	-0.300061	0.692556	-0.708074	-0.594466	-0.709473	-0.223145	0.547852	0.093475	0.019604	-0.010944	-0.095126	-0.775758	-0.118816	-0.612400	128.341736	-68.054952	53.613692
12310		9.082553	3.509077	-1.109995	1.218587	-0.578511	-0.106104	0.676413	-0.756707	-0.729210	-0.696045	-0.223389	0.552979	0.090994	0.034796	-0.010638	-0.095156	-0.777984	-0.123306	-0.608672	128.939171	-67.459311	53.386786
12311		10.004750	2.205076	-2.118760	0.444974	1.008232	0.590722	0.302008	-0.857209	-0.634337	-0.693115	-0.213867	0.571289	0.100206	0.021765	-0.020725	-0.096409	-0.780368	-0.126236	-0.604811	129.489538	-66.868961	52.977518
12312		10.791006	0.217961	-3.331918	-0.605983	3.198091	1.003914	0.267236	-0.921337	-0.527701	-0.684570	-0.227051	0.577881	0.108067	0.001939	-0.032819	-0.097517	-0.782973	-0.128609	-0.600752	130.150506	-66.299961	52.423914
12313		9.422240	1.291474	-2.906491	-0.339711	1.804005	-0.039090	0.295957	-0.990153	-0.670062	-0.673828	-0.224854	0.577393	0.094407	0.012641	-0.028579	-0.098977	-0.785681	-0.131588	-0.596317	130.748081	-65.641329	51.955455
12314		9.651572	1.124868	-2.539629	0.157237	2.104983	0.006217	0.017646	-1.044019	-0.701103	-0.661621	-0.231689	0.586426	0.096685	0.010912	-0.024891	-0.101658	-0.788361	-0.133826	-0.591814	131.185271	-64.946974	51.485007
12315		10.007440	0.866725	-2.104203	0.750519	2.542116	0.101976	-0.032539	-1.110910	-0.742216	-0.652832	-0.237305	0.593262	0.100220	0.008292	-0.020487	-0.104696	-0.791152	-0.136039	-0.587036	131.596968	-64.208532	51.008686
12316		9.933329	1.734382	-1.676364	1.331960	1.779439	0.164638	-0.021795	-1.188252	-0.791108	-0.636963	-0.250000	0.604980	0.099498	0.016949	-0.016175	-0.107886	-0.794105	-0.138428	-0.581889	132.018670	-63.417885	50.524381
12317		10.115737	2.480226	-1.421861	1.817429	1.227061	0.467903	-0.013167	-1.263362	-0.839200	-0.639160	-0.244385	0.614502	0.101347	0.024376	-0.013580	-0.111224	-0.797204	-0.140987	-0.576383	132.444856	-62.576668	50.037747
12318		10.990631	3.450202	-1.543967	2.187234	0.728344	1.578737	-0.030511	-1.300541	-0.883039	-0.630127	-0.263184	0.618652	0.110155	0.034014	-0.014729	-0.114781	-0.800324	-0.143638	-0.570680	132.831613	-61.700731	49.579896
12319		11.545159	2.768178	-1.921298	2.075515	1.680218	1.913825	-0.150976	-1.297537	-0.885344	-0.609863	-0.259521	0.629395	0.115694	0.027156	-0.018484	-0.118813	-0.803312	-0.145951	-0.565041	133.121477	-60.824023	49.150823
12320		11.752314	1.464067	-2.560692	1.553384	3.094002	1.798890	0.040986	-1.271612	-0.884454	-0.596436	-0.264648	0.636719	0.117746	0.014125	-0.024856	-0.122051	-0.806295	-0.148804	-0.559329	133.480858	-59.956505	48.763767
12321		11.406882	1.804793	-2.769372	1.427159	2.761434	1.649354	0.366159	-1.271413	-0.964893	-0.589600	-0.267334	0.642334	0.114327	0.017547	-0.026935	-0.124189	-0.809363	-0.152887	-0.553294	133.950018	-59.054614	48.462936
12322		11.197935	1.679992	-2.816725	1.448477	2.901293	1.395861	0.540342	-1.283450	-0.975330	-0.567627	-0.270264	0.645508	0.112237	0.016328	-0.027403	-0.125656	-0.812509	-0.157470	-0.547031	134.497928	-58.142179	48.183092
12323		11.142441	1.458699	-2.744835	1.620720	3.178846	1.191004	0.725784	-1.297714	-0.980964	-0.564697	-0.269531	0.651367	0.111669	0.014137	-0.026672	-0.126383	-0.815743	-0.162568	-0.540520	135.134436	-57.220370	47.922156
12324		10.738867	1.713159	-2.505804	1.878941	2.871365	0.806127	0.821312	-1.316364	-1.000348	-0.548096	-0.265869	0.672852	0.107634	0.016694	-0.024281	-0.126782	-0.819007	-0.167972	-0.533797	135.801283	-56.281577	47.686735
12325		10.552671	1.436156	-2.062394	2.325682	3.127978	0.310506	0.871957	-1.351146	-1.005024	-0.536621	-0.266846	0.677002	0.105733	0.013918	-0.019849	-0.126999	-0.822319	-0.173499	-0.526841	136.491368	-55.325153	47.456611
12326		10.761023	1.243297	-1.373779	3.150097	3.467190	0.050631	0.907430	-1.417958	-1.027915	-0.522949	-0.256592	0.683105	0.107766	0.011939	-0.012919	-0.127180	-0.825733	-0.179149	-0.519515	137.201963	-54.330365	47.222674
12327		11.126282	0.958168	-0.637660	4.059180	3.959867	-0.171213	0.929276	-1.457908	-0.973701	-0.513184	-0.263428	0.697998	0.111350	0.009067	-0.005522	-0.127150	-0.829232	-0.184595	-0.511988	137.953330	-53.337960	46.951682
12328		10.861630	1.724243	-0.511135	4.349965	3.251806	-0.236205	0.939514	-1.540316	-1.040376	-0.496826	-0.258545	0.700195	0.108739	0.016698	-0.004195	-0.127314	-0.832801	-0.190266	-0.504016	138.689359	-52.283074	46.702934
12329		10.631972	2.862544	-0.347030	4.774644	2.235609	-0.140359	0.792675	-1.606689	-1.097670	-0.480957	-0.260254	0.709961	0.106497	0.028052	-0.002503	-0.128280	-0.836298	-0.195749	-0.495814	139.317956	-51.176062	46.480959
12330		10.826612	3.148008	-0.708174	4.766658	2.191481	0.192255	0.543870	-1.672852	-1.074576	-0.465332	-0.260254	0.722168	0.108487	0.030915	-0.006090	-0.130283	-0.839732	-0.200447	-0.487542	139.825955	-50.047760	46.226084
12331		10.588576	3.621040	-1.542563	4.210047	1.800655	0.513868	0.353962	-1.780720	-1.096539	-0.448242	-0.257080	0.727295	0.106214	0.035655	-0.014417	-0.133227	-0.843191	-0.204689	-0.478938	140.241791	-48.862445	45.945943
12332		10.597980	4.246415	-2.528385	3.687840	1.414401	1.193490	0.079128	-1.877467	-1.130171	-0.436523	-0.264648	0.740479	0.106449	0.041873	-0.024269	-0.137498	-0.846566	-0.208319	-0.470132	140.506231	-47.621495	45.651386
12333		10.711518	4.258477	-3.324102	3.261096	1.629851	1.616409	-0.102828	-1.934963	-1.034049	-0.404541	-0.270264	0.746582	0.107648	0.042012	-0.032223	-0.142352	-0.849948	-0.211058	-0.461279	140.719747	-46.388814	45.279115
12334		10.077270	4.273914	-3.809011	2.743217	1.464381	1.352070	-0.151924	-1.935737	-0.912998	-0.397461	-0.278564	0.750244	0.101329	0.042249	-0.037143	-0.147124	-0.853326	-0.213133	-0.452508	140.944412	-45.199121	44.843193
12335		8.887025	4.190335	-4.476627	1.760289	1.107861	0.782038	-0.062761	-1.927471	-0.861471	-0.377197	-0.275146	0.743408	0.089476	0.041505	-0.043919	-0.151370	-0.856707	-0.215183	-0.443662	141.222324	-44.029851	44.396507
12336		8.568440	4.839390	-5.197164	1.342966	0.552839	1.220669	0.106618	-1.880585	-0.823237	-0.361084	-0.283447	0.757568	0.086366	0.048067	-0.051136	-0.154741	-0.860062	-0.217445	-0.434818	141.578938	-42.894050	43.965757
12337		8.510802	6.269930	-5.283019	1.778208	-0.584871	1.855551	0.146450	-1.773177	-0.798354	-0.351074	-0.283691	0.770264	0.085821	0.062396	-0.052026	-0.157752	-0.863153	-0.219759	-0.426365	141.916487	-41.812986	43.589491
12338		7.590666	6.593342	-5.456334	1.398741	-1.217599	1.475359	0.062568	-1.627289	-0.624211	-0.328125	-0.276123	0.764648	0.076552	0.065712	-0.053922	-0.160583	-0.865985	-0.221228	-0.418737	142.215607	-40.858234	43.189658
12339		7.177924	6.128619	-4.957800	1.594738	-1.000684	0.680936	-0.069880	-1.393081	-0.457165	-0.315674	-0.279541	0.770020	0.072262	0.061104	-0.049097	-0.163364	-0.868348	-0.221881	-0.412374	142.422093	-40.066304	42.809988
12340		6.832365	4.549261	-5.914588	0.356784	0.313340	0.293399	-0.056569	-1.056801	-0.214594	-0.306885	-0.285889	0.777344	0.068684	0.045402	-0.058796	-0.165211	-0.870262	-0.221764	-0.407640	142.622053	-39.511422	42.445864
12341		7.333112	2.870777	-4.389862	1.491641	1.858849	-1.117509	0.167058	-0.705593	-0.046780	-0.292236	-0.276611	0.780273	0.073492	0.028727	-0.043616	-0.165346	-0.871811	-0.221668	-0.404313	142.907714	-39.173155	42.146458
12342		8.427428	1.101000	-4.082198	1.964890	3.891733	-1.452570	0.344295	-0.364437	0.021316	-0.294434	-0.291016	0.787842	0.084347	0.011089	-0.040649	-0.164196	-0.872885	-0.221901	-0.402333	143.221478	-39.013984	41.960390
12343		7.421851	0.597422	-4.029199	1.324142	3.774827	-2.351286	0.618380	-0.062967	-0.009083	-0.296875	-0.275146	0.777588	0.074231	0.006095	-0.040250	-0.161570	-0.873536	-0.223075	-0.401332	143.596642	-38.981641	41.927456
12344		6.323261	1.677149	-3.527265	1.367382	2.214973	-2.851210	0.759751	0.187280	-0.075994	-0.294922	-0.270996	0.783691	0.063206	0.016881	-0.035268	-0.158186	-0.873715	-0.225010	-0.401211	143.958733	-39.042835	42.041991
12345		7.166237	2.981110	-3.769572	2.010609	1.545000	-1.565143	0.668820	0.429323	-0.020620	-0.297852	-0.261475	0.789307	0.071584	0.029930	-0.037749	-0.154807	-0.873384	-0.226723	-0.402284	144.223603	-39.234769	42.229678
12346		7.627597	3.569315	-4.029878	2.208531	1.275085	-0.831795	0.463127	0.715003	0.123325	-0.313965	-0.262207	0.787842	0.076109	0.035834	-0.040488	-0.151715	-0.872468	-0.227597	-0.404946	144.346257	-39.608997	42.452801
12347		7.113436	3.231892	-4.128273	1.692425	1.256295	-1.230994	0.220768	1.007046	0.369720	-0.316895	-0.258301	0.783691	0.070865	0.032496	-0.041604	-0.148842	-0.871036	-0.227136	-0.409331	144.342461	-40.200899	42.656099
12348		6.570061	2.520395	-4.422810	0.882374	1.541001	-1.693270	0.113599	1.269329	0.611424	-0.336426	-0.248291	0.783691	0.065341	0.025429	-0.044629	-0.145640	-0.869227	-0.225575	-0.415149	144.294862	-40.996393	42.827740
12349		6.138891	2.627414	-4.407675	0.589321	1.148596	-1.916561	0.183035	1.498382	0.769141	-0.338379	-0.254150	0.766357	0.060955	0.026550	-0.044510	-0.141539	-0.867119	-0.223640	-0.421968	144.280499	-41.950303	43.007975
12350		5.961324	3.650904	-4.511519	0.575501	0.090495	-1.513357	0.185927	1.709855	0.845078	-0.351318	-0.243896	0.769043	0.059070	0.036802	-0.045588	-0.137020	-0.864580	-0.221500	-0.429726	144.230272	-43.028758	43.238625
12351		6.179811	4.170546	-4.760499	0.496516	-0.343371	-0.987803	0.013550	1.921519	0.927703	-0.373535	-0.243408	0.762207	0.061143	0.041993	-0.048192	-0.132817	-0.861471	-0.218768	-0.438597	144.041800	-44.232010	43.523200
12352		6.320450	3.694545	-4.940214	0.138529	0.032797	-0.982083	-0.165691	2.127163	1.036052	-0.400391	-0.244873	0.759521	0.062482	0.037229	-0.050100	-0.128911	-0.857802	-0.215270	-0.448571	143.716840	-45.566949	43.847329
12353		6.626049	3.023339	-5.112369	-0.201815	0.651247	-0.940699	-0.196079	2.316806	1.120834	-0.420654	-0.246826	0.742676	0.065492	0.030551	-0.051915	-0.124717	-0.853648	-0.211445	-0.459372	143.327879	-47.015828	44.230138
12354		7.038586	2.532917	-5.033916	-0.253944	1.141622	-0.872631	-0.122170	2.495108	1.256330	-0.439941	-0.238037	0.723145	0.069590	0.025737	-0.051226	-0.119691	-0.849119	-0.207268	-0.470862	142.956228	-48.592069	44.635448
12355		7.279705	2.234128	-4.992071	-0.387464	1.361828	-0.818510	0.023750	2.671761	1.398628	-0.466309	-0.231689	0.731201	0.071963	0.022852	-0.050883	-0.113497	-0.844229	-0.202909	-0.482932	142.643984	-50.295726	45.064456
12356		7.181795	2.443812	-5.143871	-0.734367	0.951814	-0.726579	0.196249	2.831826	1.487923	-0.487305	-0.226074	0.712646	0.070896	0.025019	-0.052423	-0.106175	-0.838938	-0.198615	-0.495441	142.379718	-52.102728	45.546060
12357		7.231858	3.000941	-5.023923	-0.710964	0.277334	-0.541516	0.280896	2.983179	1.586040	-0.520264	-0.216797	0.691162	0.071318	0.030649	-0.051265	-0.098070	-0.833186	-0.194162	-0.508414	142.115632	-54.010444	46.077965
12358		7.367781	3.496225	-4.851172	-0.634622	-0.323166	-0.350920	0.230071	3.122563	1.724520	-0.537109	-0.211670	0.678467	0.072604	0.035648	-0.049610	-0.089666	-0.826936	-0.188996	-0.521936	141.795362	-56.029142	46.627863
12359		7.590957	3.935728	-4.927853	-0.783498	-0.869792	-0.013981	0.101751	3.251936	1.866446	-0.576416	-0.197510	0.662354	0.074723	0.040084	-0.050480	-0.081265	-0.820148	-0.182919	-0.535997	141.372262	-58.153514	47.201338
12360		7.870162	4.262571	-5.013100	-0.978892	-1.318144	0.313067	-0.063931	3.385863	2.015531	-0.604492	-0.182861	0.645508	0.077403	0.043394	-0.051463	-0.072998	-0.812768	-0.175758	-0.550626	140.811143	-60.389294	47.809425
12361		8.069812	4.200391	-5.078786	-1.298662	-1.459206	0.420974	-0.236910	3.516809	2.198548	-0.626709	-0.178467	0.626709	0.079320	0.042820	-0.052241	-0.064778	-0.804791	-0.167369	-0.565776	140.115961	-62.745345	48.445597
12362		8.158612	3.728851	-5.145048	-1.754900	-1.275521	0.297464	-0.294655	3.638228	2.405111	-0.663086	-0.170898	0.595947	0.080176	0.038181	-0.052973	-0.056081	-0.796259	-0.157934	-0.581277	139.357674	-65.227712	49.099678
12363		8.274141	3.619483	-4.996614	-1.939319	-1.419333	0.223968	-0.276940	3.735614	2.568312	-0.682617	-0.156006	0.572510	0.081315	0.037175	-0.051545	-0.046729	-0.787183	-0.147865	-0.596905	138.536680	-67.808615	49.821728
12364		8.445802	4.201508	-4.763968	-1.916243	-2.209751	0.341365	-0.290387	3.796463	2.619838	-0.715820	-0.144531	0.536377	0.082973	0.043038	-0.049286	-0.037216	-0.777546	-0.137474	-0.612485	137.502157	-70.430874	50.748635
12365		8.180015	4.002156	-5.119672	-2.688772	-2.440586	-0.018033	-0.214736	3.789010	2.700689	-0.749023	-0.121338	0.530273	0.080261	0.041056	-0.052771	-0.027137	-0.767585	-0.126941	-0.627665	136.334383	-73.074194	51.848512
12366		8.592047	4.135567	-4.586850	-2.402996	-2.729381	0.123205	-0.012004	3.730079	2.659808	-0.770020	-0.104980	0.498291	0.084485	0.042483	-0.047456	-0.016441	-0.757399	-0.117110	-0.642154	134.905869	-75.669166	53.322462
12367		9.196344	4.895967	-4.473152	-2.405016	-3.661528	0.643917	0.094784	3.617582	2.599722	-0.790039	-0.088379	0.468750	0.090488	0.050164	-0.046354	-0.005582	-0.747162	-0.107796	-0.655818	133.023912	-78.181658	55.309913
12368		9.242986	4.897799	-4.263462	-2.502786	-3.956399	0.466512	0.159377	3.472599	2.563769	-0.802734	-0.072266	0.448730	0.091033	0.050186	-0.044184	0.005315	-0.737022	-0.098758	-0.668593	130.450073	-80.604808	58.018879
12369		9.335501	4.884117	-3.636319	-2.164952	-4.154425	0.299990	0.183759	3.280376	2.404911	-0.830078	-0.046143	0.426270	0.092146	0.049988	-0.037836	0.015684	-0.727122	-0.090362	-0.680354	126.366008	-82.855616	62.251542
12370		9.706150	5.254086	-3.397279	-2.121570	-4.732945	0.504246	0.035903	3.057055	2.240378	-0.838135	-0.036133	0.396729	0.095931	0.053626	-0.035435	0.024835	-0.717637	-0.082030	-0.691123	119.208536	-84.890134	69.467530
12371		9.786072	4.982108	-3.628697	-2.648971	-4.763828	0.386871	-0.144288	2.836500	2.151891	-0.868408	-0.017090	0.377686	0.096789	0.050839	-0.037701	0.032949	-0.708658	-0.073407	-0.700949	105.101886	-86.662289	83.527778
12372		9.826173	4.442778	-3.865454	-3.206849	-4.511126	0.216663	-0.228555	2.593618	1.979366	-0.867188	-0.001709	0.349854	0.097303	0.045349	-0.039972	0.040046	-0.700272	-0.065106	-0.709772	73.502988	-87.828288	115.026701
12373		9.964446	4.496835	-4.359639	-3.910370	-4.847731	0.173162	-0.191166	2.327301	1.665251	-0.885742	0.008057	0.328125	0.098749	0.045751	-0.044792	0.046078	-0.692557	-0.058087	-0.717543	29.896556	-87.753558	158.553046
12374		9.815341	4.426284	-4.466478	-4.214314	-4.974991	-0.150163	-0.094086	2.070259	1.380784	-0.892578	0.024170	0.320557	0.097375	0.044916	-0.045696	0.051327	-0.685533	-0.052440	-0.724334	5.852897	-86.854362	-177.434020
12375		9.692480	3.854264	-4.123393	-4.113290	-4.505236	-0.400935	0.101131	1.800676	1.065219	-0.893799	0.028320	0.299316	0.096341	0.039078	-0.042083	0.056040	-0.679263	-0.048655	-0.730133	-4.012303	-85.834003	-167.491002
12376		8.791684	3.821300	-4.995873	-5.035466	-4.693679	-1.478062	0.258753	1.438701	0.619957	-0.896729	0.032471	0.296631	0.087436	0.038550	-0.050539	0.059555	-0.674103	-0.047045	-0.734727	-7.332189	-84.982635	-164.013686
12377		7.314532	4.461488	-5.047472	-4.938870	-5.359288	-3.047400	0.347353	1.065267	0.172120	-0.899658	0.047119	0.285645	0.072837	0.044766	-0.050786	0.061648	-0.670152	-0.047388	-0.738140	-7.417808	-84.368944	-163.727687
12378		6.429868	4.239812	-4.964717	-4.848313	-5.128243	-3.967824	0.242574	0.695594	-0.080432	-0.903564	0.041260	0.280518	0.064143	0.042433	-0.049819	0.062352	-0.667523	-0.048296	-0.740400	-6.422972	-83.983285	-164.589830
12379		6.043441	3.673993	-5.244538	-5.193037	-4.606106	-4.395794	0.204238	0.321121	-0.277281	-0.902344	0.047607	0.283936	0.060401	0.036710	-0.052505	0.062125	-0.666238	-0.049843	-0.741474	-4.723559	-83.820072	-166.181094
12380		5.606526	4.376753	-5.471243	-5.260222	-5.312006	-4.849205	0.232013	-0.069185	-0.576675	-0.901611	0.041260	0.279053	0.056210	0.043669	-0.054642	0.060766	-0.666313	-0.052605	-0.741328	-1.604480	-83.882935	-169.186234
12381		5.449805	6.393601	-5.475675	-4.914132	-7.267784	-4.955588	0.075527	-0.435914	-0.858378	-0.899902	0.030762	0.275635	0.054891	0.063722	-0.054613	0.057761	-0.667709	-0.055842	-0.740074	3.094796	-84.131715	-173.867649
12382		5.533897	7.748678	-5.202325	-4.440536	-8.502442	-4.741314	-0.518022	-0.779447	-0.899354	-0.904053	0.018799	0.287109	0.055889	0.077102	-0.052006	0.052507	-0.670517	-0.057112	-0.737827	8.364185	-84.531164	-179.462830
12383		6.747436	7.081953	-2.597796	-2.131063	-7.366170	-3.207576	-1.278796	-0.898298	-0.724940	-0.885254	0.012939	0.295166	0.067847	0.070407	-0.026125	0.045327	-0.673971	-0.055024	-0.735310	13.056107	-84.966441	175.089884
12384		11.289098	2.011636	1.573878	0.863485	-1.692547	1.604715	-2.082248	-0.605082	-0.082602	-0.894043	0.008545	0.297607	0.112851	0.020235	0.015870	0.037855	-0.676645	-0.047739	-0.733785	13.286516	-85.299938	173.659195
12385		14.869802	-7.925435	1.678463	-0.399618	8.164425	5.016978	-1.983600	-0.279175	0.478030	-0.887695	0.005127	0.298340	0.148862	-0.078726	0.017775	0.032870	-0.678158	-0.038859	-0.733152	9.124974	-85.516449	176.694076
12386		13.613296	-1.758211	1.706035	0.491593	1.991719	3.866295	-1.304000	-0.411096	-0.221603	-0.886963	-0.002930	0.295898	0.136078	-0.017620	0.017455	0.027578	-0.679858	-0.034857	-0.731996	10.479557	-85.733391	174.584572
12387		9.950001	1.793274	0.538847	-0.043254	-1.679838	0.171547	-2.274861	-0.409459	0.102655	-0.884277	-0.003174	0.304688	0.099480	0.018045	0.005387	0.020188	-0.681677	-0.026200	-0.730905	8.843148	-85.980693	174.918581
12388		11.218276	-3.872975	-2.374939	-3.326044	3.799343	1.186875	-2.643132	-0.436457	0.258623	-0.893555	-0.021973	0.298096	0.112284	-0.038892	-0.022991	0.012089	-0.683548	-0.015660	-0.729638	5.554972	-86.253550	176.694869
12389		13.705648	-7.040780	-2.554047	-3.613786	7.011549	3.667502	-1.837676	-0.564301	0.024741	-0.884033	-0.022461	0.304443	0.137135	-0.070619	-0.024505	0.005896	-0.685721	-0.008868	-0.727786	4.639802	-86.582549	176.556987
12390		10.823158	-4.008538	-1.077674	-1.745121	4.052541	0.906482	-1.069076	-0.669622	-0.403091	-0.877930	-0.028564	0.310059	0.108185	-0.040359	-0.010199	0.000756	-0.688193	-0.006335	-0.725500	8.791508	-86.943070	171.783285
12391		8.623036	-0.105455	-0.807791	-1.231560	0.200490	-1.241651	-0.453218	-0.729795	-0.822424	-0.879395	-0.025879	0.308350	0.086254	-0.001427	-0.007760	-0.003768	-0.690836	-0.007485	-0.722963	19.455253	-87.241520	160.846033
12392		8.763643	2.812878	-1.867320	-2.221060	-2.636031	-1.076692	-0.153348	-0.736623	-1.058483	-0.870850	-0.039063	0.327148	0.087852	0.027650	-0.018371	-0.008125	-0.693478	-0.010530	-0.720355	34.861514	-87.348793	145.333418
12393		9.856002	3.022599	-2.359742	-2.697474	-2.718645	0.045129	-0.376123	-0.676591	-0.966412	-0.865723	-0.052002	0.324219	0.098784	0.029705	-0.023320	-0.012904	-0.695869	-0.012460	-0.717945	48.946175	-87.275080	131.017796
12394		11.104992	-0.038661	-1.850639	-2.162207	0.477226	1.225583	-0.507780	-0.608936	-0.631750	-0.864746	-0.061768	0.322998	0.111104	-0.000784	-0.018167	-0.016952	-0.698010	-0.012752	-0.715774	58.948443	-87.195314	120.711164
12395		10.409948	-0.685710	-1.053434	-1.275953	1.165455	0.529449	-0.155751	-0.616234	-0.693606	-0.865723	-0.060059	0.328613	0.104107	-0.007226	-0.010208	-0.019976	-0.700183	-0.014523	-0.713536	68.619997	-87.002139	110.938048
12396		9.629351	2.014684	-0.518419	-0.683969	-1.499113	-0.100010	0.018922	-0.630764	-0.803081	-0.867920	-0.074707	0.337646	0.096389	0.019760	-0.004878	-0.022795	-0.702405	-0.017295	-0.711203	77.399312	-86.673769	102.154852
12397		9.647601	2.711295	-0.357320	-0.469418	-2.118975	-0.022702	-0.150821	-0.613600	-0.774185	-0.857178	-0.080566	0.339355	0.096590	0.026737	-0.003297	-0.026090	-0.704527	-0.019368	-0.708933	84.190432	-86.298684	95.264562
12398		9.463075	2.012835	-0.432758	-0.483257	-1.359880	-0.236410	-0.272196	-0.578901	-0.747159	-0.853027	-0.080566	0.350342	0.094717	0.019769	-0.004081	-0.029730	-0.706499	-0.020914	-0.706780	89.324774	-85.895433	89.960378
12399		9.435030	1.727091	-1.019641	-1.016621	-0.998009	-0.272660	-0.309505	-0.555082	-0.734768	-0.851563	-0.087646	0.347656	0.094441	0.016909	-0.009961	-0.033438	-0.708362	-0.022292	-0.704704	93.304002	-85.473335	85.792166
12400		9.635688	1.638065	-1.612598	-1.557768	-0.810355	-0.063524	-0.310313	-0.540214	-0.731838	-0.849365	-0.102539	0.360840	0.096459	0.016003	-0.015891	-0.037150	-0.710161	-0.023657	-0.702660	96.485083	-85.033981	82.420518
12401		10.236183	0.939372	-1.830086	-1.705536	0.017885	0.487855	-0.357377	-0.498584	-0.707921	-0.842285	-0.099121	0.362305	0.102439	0.008999	-0.018062	-0.040926	-0.711788	-0.024781	-0.700763	98.870001	-84.599462	79.820355
12402		10.404732	0.118820	-2.212247	-2.015693	0.933633	0.590739	-0.261414	-0.468057	-0.636597	-0.841553	-0.108398	0.361328	0.104102	0.000828	-0.021880	-0.044121	-0.713326	-0.025990	-0.698959	100.845872	-84.198534	77.683092
12403		9.642114	0.892040	-2.169351	-1.960147	0.156332	-0.086176	-0.107375	-0.446937	-0.675189	-0.831055	-0.109131	0.369385	0.096499	0.008583	-0.021483	-0.046882	-0.714804	-0.027882	-0.697194	102.482866	-83.773149	75.975320
12404		9.405551	1.550640	-1.831735	-1.602471	-0.467091	-0.250390	-0.031567	-0.413009	-0.686680	-0.832764	-0.117188	0.373047	0.094146	0.015180	-0.018125	-0.049420	-0.716172	-0.030085	-0.695521	103.775949	-83.340279	74.654644
12405		9.749222	1.089022	-1.423381	-1.131914	0.081835	0.034694	0.001413	-0.370163	-0.658378	-0.830811	-0.124512	0.367676	0.097553	0.010569	-0.014053	-0.051721	-0.717389	-0.032314	-0.693998	104.766310	-82.927407	73.658082
12406		9.864367	1.128737	-1.384597	-1.050153	0.118045	0.156247	0.175821	-0.364677	-0.675182	-0.836182	-0.122070	0.377441	0.098706	0.010966	-0.013656	-0.053468	-0.718623	-0.035206	-0.692447	105.704964	-82.503007	72.812129
12407		9.775899	2.167418	-0.981010	-0.632538	-0.870461	0.190810	0.257179	-0.358043	-0.695797	-0.832275	-0.131104	0.382324	0.097851	0.021346	-0.009607	-0.054977	-0.719836	-0.038459	-0.690894	106.539823	-82.067841	72.118480
12408		9.874774	2.241089	-0.988362	-0.593984	-0.867236	0.306854	0.239731	-0.349172	-0.641835	-0.829102	-0.138184	0.380371	0.098836	0.022105	-0.009685	-0.056372	-0.721018	-0.041457	-0.689374	107.318253	-81.661360	71.469949
12409		9.877712	2.703191	-0.879352	-0.450188	-1.266807	0.377591	0.257189	-0.342283	-0.627098	-0.830078	-0.132324	0.386475	0.098876	0.026733	-0.008590	-0.057639	-0.722168	-0.044465	-0.687876	108.029603	-81.264080	70.899773
12410		9.888253	3.020484	-0.701170	-0.233447	-1.524274	0.434955	0.237633	-0.329197	-0.596360	-0.826172	-0.139404	0.396484	0.098983	0.029918	-0.006813	-0.058880	-0.723270	-0.047297	-0.686423	108.668011	-80.883753	70.390442
12411		9.991748	2.939690	-0.724138	-0.209855	-1.372370	0.534939	0.176921	-0.300567	-0.556030	-0.824951	-0.148926	0.396729	0.100009	0.029125	-0.007065	-0.060181	-0.724252	-0.049783	-0.685098	109.176325	-80.530995	69.978218
12412		9.874749	2.909296	-0.847330	-0.302259	-1.305920	0.429164	0.182783	-0.285449	-0.512713	-0.821045	-0.139648	0.396729	0.098834	0.028847	-0.008306	-0.061322	-0.725193	-0.052136	-0.683825	109.658687	-80.202725	69.594174
12413		9.489042	3.197375	-0.808796	-0.254128	-1.605548	0.100770	0.194803	-0.270510	-0.478869	-0.818115	-0.139160	0.401611	0.094977	0.031754	-0.007929	-0.062287	-0.726083	-0.054412	-0.682615	110.109445	-79.896332	69.249983
12414		9.927693	2.554364	-0.862778	-0.244388	-0.857466	0.435877	0.154394	-0.251319	-0.389861	-0.816162	-0.140625	0.401123	0.099337	0.025357	-0.008483	-0.063096	-0.726920	-0.056235	-0.681502	110.557952	-79.639982	68.883822
12415		9.939662	2.328718	-1.208309	-0.555410	-0.593655	0.435177	0.253002	-0.260450	-0.345178	-0.808838	-0.152588	0.409668	0.099452	0.023131	-0.011924	-0.063389	-0.727821	-0.058226	-0.680344	111.115289	-79.406282	68.464584
12416		9.618701	2.955846	-1.202801	-0.538131	-1.235016	0.231621	0.267010	-0.264301	-0.356371	-0.819092	-0.152588	0.405518	0.096255	0.029403	-0.011862	-0.063680	-0.728738	-0.060306	-0.679153	111.660353	-79.163848	68.065054
12417		9.651782	2.976249	-1.313056	-0.612069	-1.218352	0.280870	0.202234	-0.256107	-0.314949	-0.810547	-0.151855	0.416748	0.096581	0.029624	-0.012977	-0.064053	-0.729609	-0.062015	-0.678028	112.169235	-78.945752	67.664895
12418		9.730825	2.743150	-1.395425	-0.658724	-0.946895	0.327844	0.131689	-0.240567	-0.284338	-0.802979	-0.158691	0.412598	0.097364	0.027302	-0.013819	-0.064586	-0.730417	-0.063380	-0.676981	112.615234	-78.745336	67.286629
12419		9.355508	2.435116	-1.810626	-1.073858	-0.682440	-0.060012	0.139310	-0.256910	-0.289678	-0.813721	-0.147461	0.414551	0.093613	0.024228	-0.017969	-0.065102	-0.731272	-0.064783	-0.675874	113.085755	-78.539192	66.888256
12420		9.397747	2.240273	-1.439722	-0.674085	-0.461468	-0.079147	0.125014	-0.241306	-0.270250	-0.805420	-0.161621	0.419189	0.094025	0.022285	-0.014270	-0.065611	-0.732078	-0.066074	-0.674826	113.516675	-78.344884	66.521070
12421		9.884950	1.203010	-1.693420	-0.870469	0.670877	0.228192	0.180132	-0.216815	-0.220836	-0.814453	-0.156982	0.422607	0.098881	0.011936	-0.016816	-0.065732	-0.732829	-0.067375	-0.673870	113.957454	-78.182905	66.176423
12422		9.545019	1.449230	-1.337806	-0.516115	0.383710	-0.087273	0.323403	-0.212412	-0.278296	-0.810303	-0.155273	0.426758	0.095484	0.014381	-0.013253	-0.065531	-0.733595	-0.069373	-0.672853	114.396533	-77.990015	65.916420
12423		9.580322	1.273320	-0.929128	-0.083820	0.582120	-0.121390	0.322788	-0.187837	-0.228408	-0.808105	-0.158691	0.432373	0.095826	0.012639	-0.009181	-0.065145	-0.734286	-0.071191	-0.671947	114.818452	-77.829959	65.674201
12424		9.515717	1.619964	-0.835995	0.033515	0.248020	-0.127167	0.431729	-0.182219	-0.234477	-0.814453	-0.160889	0.426270	0.095184	0.016106	-0.008238	-0.064386	-0.734993	-0.073402	-0.671008	115.276086	-77.666404	65.458676
12425		9.356250	2.727563	-0.846383	0.060734	-0.848657	-0.067363	0.431985	-0.190099	-0.283130	-0.811279	-0.154297	0.435059	0.093609	0.027161	-0.008316	-0.063783	-0.735697	-0.075786	-0.670028	115.686923	-77.476733	65.291562
12426		9.451718	2.717858	-0.681415	0.260748	-0.797598	0.009829	0.261701	-0.168189	-0.221103	-0.806396	-0.161865	0.439209	0.094553	0.027083	-0.006699	-0.063598	-0.736299	-0.077382	-0.669202	116.013174	-77.322989	65.110610
12427		9.382770	2.237317	-0.721182	0.222555	-0.322917	-0.147896	0.180004	-0.154845	-0.191615	-0.806152	-0.159180	0.444092	0.093855	0.022290	-0.007119	-0.063601	-0.736834	-0.078597	-0.668471	116.287670	-77.188880	64.935054
12428		9.195494	1.676669	-0.837711	0.090425	0.205486	-0.430809	0.108045	-0.165804	-0.223515	-0.797852	-0.159180	0.440430	0.091981	0.016668	-0.008292	-0.063991	-0.737374	-0.079687	-0.667709	116.507595	-77.034037	64.772461
12429		9.417100	1.060638	-0.866761	0.080970	0.873536	-0.337018	0.139303	-0.174192	-0.241159	-0.807617	-0.152100	0.451660	0.094191	0.010499	-0.008578	-0.064316	-0.737938	-0.080941	-0.666903	116.737738	-76.869268	64.618280
12430		9.513245	0.923489	-0.726880	0.244327	1.050005	-0.287944	0.222129	-0.187231	-0.232469	-0.805176	-0.159912	0.439941	0.095150	0.009132	-0.007170	-0.064320	-0.738578	-0.082440	-0.666010	117.050191	-76.704110	64.428022
12431		9.209759	1.291886	-0.689383	0.287530	0.649323	-0.514328	0.325824	-0.224188	-0.287281	-0.802002	-0.171875	0.447510	0.092124	0.012798	-0.006770	-0.064131	-0.739344	-0.084470	-0.664923	117.431828	-76.502368	64.227748
12432		9.428618	2.402044	-0.315139	0.754183	-0.355736	-0.113591	0.321242	-0.247849	-0.328427	-0.807617	-0.161133	0.446289	0.094329	0.023870	-0.002996	-0.064115	-0.740169	-0.086630	-0.663727	117.808138	-76.271821	64.029405
12433		9.654591	2.521240	-0.624460	0.505969	-0.400579	0.164342	0.174011	-0.257221	-0.298338	-0.802246	-0.163574	0.455811	0.096591	0.025074	-0.006099	-0.064538	-0.740983	-0.088185	-0.662573	118.141659	-76.055027	63.788730
12434		9.375952	2.613447	-0.712748	0.422397	-0.523063	-0.076445	0.094725	-0.280803	-0.320313	-0.797607	-0.166992	0.449707	0.093811	0.025988	-0.006983	-0.065345	-0.741840	-0.089554	-0.661349	118.446351	-75.819159	63.530492
12435		9.231545	1.908464	-0.917316	0.199943	0.157959	-0.344844	0.017473	-0.308285	-0.301396	-0.803467	-0.169678	0.461426	0.092358	0.018946	-0.009029	-0.066381	-0.742764	-0.090585	-0.660068	118.770422	-75.586195	63.206528
12436		9.230768	1.239788	-0.849146	0.266814	0.839505	-0.501990	0.084133	-0.334053	-0.308632	-0.790283	-0.168213	0.472412	0.092341	0.012259	-0.008332	-0.067212	-0.743792	-0.091857	-0.658649	119.165179	-75.340655	62.848297
12437		9.084713	1.495289	-0.801370	0.345323	0.588333	-0.596154	0.265469	-0.389727	-0.353901	-0.785645	-0.176758	0.470947	0.090889	0.014803	-0.007817	-0.067535	-0.745034	-0.093872	-0.656926	119.705292	-75.057428	62.447105
12438		9.078138	2.387565	-0.204731	1.024818	-0.233592	-0.482636	0.282426	-0.438721	-0.403514	-0.788330	-0.180908	0.473633	0.090833	0.023695	-0.001815	-0.067990	-0.746417	-0.096112	-0.654982	120.275632	-74.733245	62.023557
12439		9.424513	2.136093	-0.286360	1.019775	0.126247	-0.199667	0.196640	-0.459200	-0.373673	-0.782715	-0.168213	0.476807	0.094291	0.021187	-0.002626	-0.068666	-0.747840	-0.097949	-0.653014	120.843044	-74.418067	61.551957
12440		9.370938	2.442751	-0.251782	1.114387	-0.144512	-0.190744	0.208032	-0.507191	-0.428258	-0.782959	-0.180908	0.482910	0.093767	0.024229	-0.002255	-0.069510	-0.749393	-0.100013	-0.650828	121.422754	-74.059396	61.073192
12441		9.376351	2.617529	-0.112675	1.315547	-0.267597	-0.170205	0.101058	-0.539418	-0.424483	-0.766113	-0.185303	0.479736	0.093821	0.025977	-0.000861	-0.070749	-0.751001	-0.101700	-0.648575	121.975256	-73.692865	60.558477
12442		9.569513	1.987200	-0.540436	0.934497	0.419318	-0.077846	0.050340	-0.561132	-0.374980	-0.774414	-0.186279	0.484619	0.095747	0.019694	-0.005131	-0.072038	-0.752683	-0.103029	-0.646269	122.562426	-73.340962	59.975672
12443		9.209398	2.171688	-0.718263	0.774610	0.185428	-0.356984	0.132108	-0.598168	-0.414434	-0.771484	-0.178711	0.499268	0.092160	0.021531	-0.006893	-0.073155	-0.754480	-0.104754	-0.643766	123.188911	-72.958135	59.400309
12444		8.999852	2.606641	-0.834149	0.715560	-0.249698	-0.436500	0.099802	-0.632659	-0.444933	-0.761963	-0.190674	0.491211	0.090082	0.025870	-0.008044	-0.074516	-0.756353	-0.106480	-0.641123	123.792928	-72.546850	58.827619
12445		9.374262	2.373678	-1.174715	0.484414	0.106685	-0.084144	0.077143	-0.659859	-0.438815	-0.755859	-0.186523	0.505615	0.093832	0.023535	-0.011429	-0.075949	-0.758293	-0.108095	-0.638388	124.402629	-72.129169	58.234282
12446		9.762032	2.504532	-1.184748	0.612531	0.127553	0.315566	0.115231	-0.677608	-0.464638	-0.758301	-0.191162	0.512695	0.097718	0.024825	-0.011502	-0.077337	-0.760281	-0.109923	-0.635539	125.006578	-71.690424	57.668144
12447		9.845902	2.441850	-1.374373	0.505714	0.253375	0.408505	0.122451	-0.684996	-0.446537	-0.749512	-0.198975	0.518799	0.098559	0.024207	-0.013391	-0.078635	-0.762287	-0.111698	-0.632659	125.615006	-71.257090	57.100597
12448		9.941279	2.644893	-1.401851	0.581523	0.130609	0.552341	0.160813	-0.684009	-0.459890	-0.748535	-0.198486	0.519531	0.099520	0.026231	-0.013657	-0.079834	-0.764290	-0.113647	-0.629739	126.204945	-70.814783	56.573980
12449		9.959935	2.573833	-1.442569	0.612753	0.252676	0.553892	0.149310	-0.696251	-0.483386	-0.746338	-0.200195	0.530762	0.099711	0.025508	-0.014060	-0.081149	-0.766295	-0.115639	-0.626765	126.756191	-70.357049	56.080348
12450		10.228617	1.922054	-1.220247	0.905310	1.007167	0.578332	0.157364	-0.697266	-0.447176	-0.729004	-0.212402	0.523926	0.102370	0.019001	-0.011831	-0.082326	-0.768317	-0.117519	-0.623779	127.324388	-69.912759	55.571916
12451		10.196742	1.940149	-1.149614	1.045513	1.030527	0.526729	0.289596	-0.721551	-0.481748	-0.724854	-0.208252	0.537354	0.102054	0.019172	-0.011100	-0.083109	-0.770430	-0.119928	-0.620602	127.941099	-69.443711	55.091353
12452		9.848649	2.539758	-0.870851	1.376587	0.414282	0.293608	0.341423	-0.750565	-0.542387	-0.721191	-0.208740	0.541504	0.098587	0.025145	-0.008296	-0.083906	-0.772605	-0.122717	-0.617237	128.540508	-68.934085	54.658654
12453		9.886564	2.253410	-1.012435	1.303649	0.751103	0.266129	0.330906	-0.770991	-0.549366	-0.723389	-0.212646	0.557129	0.098965	0.022279	-0.009706	-0.084765	-0.774811	-0.125489	-0.613787	129.126748	-68.413701	54.232997
12454		9.665651	2.601295	-1.003416	1.382492	0.413242	0.142980	0.454254	-0.823593	-0.647499	-0.706543	-0.203857	0.560303	0.096780	0.025722	-0.009577	-0.085486	-0.777151	-0.128995	-0.609991	129.728384	-67.828007	53.864765
12455		10.154004	2.407537	-1.404447	1.178822	0.804621	0.619674	0.285242	-0.945496	-0.673883	-0.692871	-0.217773	0.561768	0.101685	0.023752	-0.013530	-0.087011	-0.779743	-0.132030	-0.605804	130.313794	-67.185593	53.408191
12456		11.232655	-0.024642	-2.465195	0.263511	3.490522	1.141573	0.191001	-1.010281	-0.502806	-0.694336	-0.213135	0.578613	0.112448	-0.000506	-0.024085	-0.088434	-0.782580	-0.134082	-0.601473	131.031369	-66.590246	52.746711
12457		10.135142	0.300600	-2.641144	-0.026655	2.890732	0.258497	0.375035	-1.069961	-0.619440	-0.679688	-0.218506	0.577637	0.101500	0.002741	-0.025863	-0.089516	-0.785567	-0.137111	-0.596718	131.776593	-65.920034	52.167473
12458		9.704466	2.109716	-2.129657	0.666676	1.122191	0.259927	0.278950	-1.147900	-0.767874	-0.674805	-0.220947	0.592773	0.097245	0.020753	-0.020710	-0.091474	-0.788609	-0.140395	-0.591623	132.379670	-65.153049	51.680217
12459		10.348482	1.866205	-2.247698	0.812630	1.644527	0.782558	0.013211	-1.192393	-0.729865	-0.661621	-0.225098	0.594482	0.103684	0.018285	-0.021858	-0.094388	-0.791645	-0.142715	-0.586534	132.870518	-64.383960	51.146122
12460		10.478155	1.827665	-2.383633	0.837937	1.810187	0.903320	-0.017860	-1.237398	-0.753421	-0.655029	-0.228271	0.604736	0.104994	0.017879	-0.023189	-0.097528	-0.794745	-0.145009	-0.581241	133.333545	-63.584554	50.619115
12461		9.975338	1.705068	-2.218473	0.964664	1.843955	0.336377	-0.016073	-1.274656	-0.782926	-0.637695	-0.237061	0.610596	0.099958	0.016658	-0.021549	-0.100761	-0.797886	-0.147399	-0.575759	133.776010	-62.757363	50.113114
12462		10.048610	1.498174	-2.183627	1.121366	2.153717	0.291232	0.100549	-1.306459	-0.840695	-0.616699	-0.237061	0.619385	0.100688	0.014570	-0.021172	-0.103720	-0.801091	-0.150331	-0.569996	134.237920	-61.891028	49.656128
12463		9.827747	1.625454	-1.746764	1.611597	2.051050	-0.041732	0.197191	-1.346179	-0.924836	-0.623779	-0.244141	0.625000	0.098466	0.015816	-0.016790	-0.106548	-0.804342	-0.153845	-0.563927	134.695349	-60.973577	49.264094
12464		9.852682	0.797092	-1.525946	1.850099	2.926157	-0.429106	0.236668	-1.374847	-0.970873	-0.605225	-0.250244	0.634277	0.098666	0.007510	-0.014572	-0.109369	-0.807606	-0.157628	-0.557642	135.137365	-60.023606	48.911540
12465		9.943886	0.048425	-1.764544	1.684832	3.752554	-0.589133	0.409603	-1.415814	-1.083759	-0.591553	-0.257324	0.643066	0.099561	-0.000020	-0.016941	-0.111822	-0.810923	-0.162315	-0.550956	135.603578	-59.010953	48.643045
12466		10.067636	-0.076782	-1.653449	1.940560	4.023421	-0.639876	0.600325	-1.459039	-1.247716	-0.578857	-0.245117	0.648926	0.100786	-0.001348	-0.015803	-0.113986	-0.814262	-0.168150	-0.543793	136.074413	-57.913318	48.493457
12467		10.607723	-1.522644	-1.507605	2.171408	5.682267	-0.862345	0.733865	-1.500145	-1.363201	-0.558594	-0.255859	0.670410	0.106080	-0.015896	-0.014338	-0.115936	-0.817600	-0.174780	-0.536229	136.552911	-56.753035	48.424704
12468		11.070669	-2.174547	-0.905073	2.898541	6.594066	-1.082266	1.180382	-1.591344	-1.533859	-0.537842	-0.261475	0.674805	0.110604	-0.022544	-0.008302	-0.116585	-0.821182	-0.183225	-0.527727	137.214566	-55.487004	48.441990
12469		12.662513	-0.309292	0.696175	5.411468	5.751391	0.114478	1.645611	-1.761413	-1.740410	-0.526367	-0.248047	0.699219	0.126524	-0.004257	0.008045	-0.115999	-0.825138	-0.193615	-0.517884	138.088372	-54.069960	48.526736
12470		17.074564	1.721538	1.544149	8.493258	6.124652	3.870239	1.791334	-1.900661	-1.766659	-0.505371	-0.240967	0.711914	0.170730	0.015558	0.017208	-0.114992	-0.829323	-0.204357	-0.507186	139.074327	-52.583869	48.576356
12471		18.597805	2.714024	2.491683	10.435706	6.254461	4.727130	1.565747	-2.001433	-1.644535	-0.481689	-0.245605	0.718506	0.185929	0.025405	0.026981	-0.114682	-0.833558	-0.213921	-0.496253	140.016596	-51.100214	48.519152
12472		15.846242	1.755833	2.975155	9.735551	6.078514	1.645625	1.277801	-2.036915	-1.405106	-0.459717	-0.231445	0.733643	0.158265	0.016249	0.031471	-0.114995	-0.837797	-0.221698	-0.485512	140.906467	-49.687977	48.313554
12473		14.377512	1.937478	1.512674	8.103844	5.386259	1.052763	1.083506	-2.074613	-1.459318	-0.449707	-0.236328	0.747070	0.143743	0.018238	0.016719	-0.116269	-0.841794	-0.229176	-0.474704	141.641854	-48.237600	48.161870
12474		13.232152	4.168960	0.119128	7.247616	3.061782	1.614005	0.885306	-2.117638	-1.602805	-0.425781	-0.239258	0.750977	0.132626	0.040618	0.002776	-0.118748	-0.845451	-0.236706	-0.463769	142.186097	-46.716602	48.110624
12475		12.053745	5.435770	-2.280077	5.304480	1.555493	2.413122	0.396567	-2.224944	-1.644740	-0.400635	-0.241211	0.753174	0.121222	0.053406	-0.021348	-0.123490	-0.848851	-0.243182	-0.452841	142.456457	-45.131535	48.050774
12476		11.812674	5.844527	-3.602263	4.476071	1.314927	3.028545	0.234110	-2.300265	-1.691065	-0.377930	-0.240479	0.763672	0.119019	0.057482	-0.034589	-0.129099	-0.852096	-0.249377	-0.441676	142.630107	-43.496595	47.992558
12477		11.502689	5.403216	-4.354253	3.830339	1.765970	2.941343	0.052430	-2.252663	-1.473976	-0.353271	-0.244629	0.781982	0.115902	0.053191	-0.042226	-0.134913	-0.855223	-0.254242	-0.430990	142.769838	-41.957942	47.831099
12478		10.015868	3.779608	-4.609379	2.599592	2.501950	1.269953	0.251709	-2.156297	-1.162097	-0.328857	-0.241455	0.779785	0.100865	0.037268	-0.044962	-0.139062	-0.858533	-0.258211	-0.420607	143.108167	-40.571385	47.535071
12479		9.761226	4.223227	-4.647427	2.802838	2.146093	1.243888	0.528059	-2.012509	-1.136339	-0.311035	-0.247070	0.789795	0.098311	0.041796	-0.045377	-0.141761	-0.861638	-0.262728	-0.410436	143.556947	-39.257410	47.307416
12480		8.642329	5.883942	-4.804914	2.864194	0.283845	1.327711	0.598101	-1.825097	-1.009974	-0.291992	-0.241211	0.797852	0.087152	0.058542	-0.047081	-0.143639	-0.864465	-0.266926	-0.401022	144.026629	-38.072418	47.102099
12481		7.053763	6.170559	-5.270564	1.936830	-0.741214	0.737510	0.346072	-1.555147	-0.709980	-0.280762	-0.242188	0.798096	0.071163	0.061544	-0.052047	-0.145625	-0.866885	-0.269507	-0.393282	144.378644	-37.111376	46.850324
12482		5.675731	5.747224	-5.991509	0.636642	-1.092596	0.164369	0.509916	-1.321439	-0.572162	-0.262695	-0.233643	0.802734	0.057315	0.057461	-0.059391	-0.146310	-0.869093	-0.271947	-0.386414	144.804455	-36.304869	46.624488
12483		7.190236	5.311459	-3.997295	2.934873	0.116492	-0.471310	0.250944	-1.066723	-0.453607	-0.252686	-0.230713	0.815430	0.072234	0.053001	-0.039522	-0.147534	-0.870738	-0.273563	-0.381067	145.054886	-35.654814	46.443178
12484		8.841501	3.464896	-3.561597	3.590555	2.599639	-0.690631	0.020865	-0.730669	-0.235028	-0.249023	-0.227783	0.810059	0.088585	0.034549	-0.035289	-0.148884	-0.871852	-0.274012	-0.377657	145.164139	-35.234901	46.273180
12485		7.244574	1.438117	-3.624975	1.946923	3.312741	-2.537549	-0.118343	-0.413700	0.035740	-0.241699	-0.225830	0.807129	0.072518	0.014373	-0.036108	-0.149889	-0.872625	-0.273269	-0.376010	145.209366	-35.051449	46.077037
12486		5.925892	1.084092	-3.568053	1.133013	2.818009	-3.504158	0.015166	-0.171761	0.147929	-0.250977	-0.227539	0.809570	0.059281	0.010887	-0.035629	-0.149772	-0.873194	-0.272452	-0.375328	145.311638	-35.019552	45.912103
12487		6.270431	2.331978	-3.927269	1.525946	2.021201	-2.480153	0.079506	0.060726	0.256522	-0.242920	-0.231445	0.796875	0.062662	0.023416	-0.039282	-0.148851	-0.873520	-0.271471	-0.375645	145.434153	-35.131138	45.778398
12488		6.479641	3.593895	-3.982817	2.049803	1.093729	-1.727733	-0.067828	0.348358	0.546377	-0.253174	-0.230713	0.795654	0.064628	0.036102	-0.039953	-0.147641	-0.873586	-0.269143	-0.377641	145.503300	-35.473755	45.589488
12489		6.399870	3.966820	-3.880334	2.170565	0.684133	-1.653589	-0.413318	0.640157	0.875435	-0.266846	-0.236816	0.807129	0.063700	0.039867	-0.039090	-0.146919	-0.873267	-0.264951	-0.381602	145.420394	-36.059697	45.326385
12490		6.365833	3.646024	-3.878892	1.964345	0.853392	-1.795524	-0.667733	0.920414	1.175870	-0.270264	-0.235107	0.796387	0.063263	0.036703	-0.039203	-0.146360	-0.872582	-0.259136	-0.387333	145.231278	-36.877496	44.998657
12491		6.233851	3.640508	-4.223010	1.527733	0.712392	-1.620949	-0.737673	1.183560	1.402471	-0.283447	-0.238037	0.795166	0.061830	0.036683	-0.042732	-0.145311	-0.871557	-0.252387	-0.394429	145.022538	-37.892766	44.646546
12492		6.156232	3.944910	-4.707817	1.085632	0.336198	-1.191169	-0.762324	1.438106	1.550944	-0.302490	-0.236816	0.782715	0.060914	0.039742	-0.047669	-0.143743	-0.870102	-0.245079	-0.402737	144.793315	-39.078750	44.310566
12493		6.005092	4.088404	-5.518056	0.262745	0.054544	-0.694070	-0.771084	1.683633	1.678681	-0.317627	-0.244629	0.776611	0.059238	0.041169	-0.055840	-0.141630	-0.868178	-0.237359	-0.412150	144.547165	-40.421488	44.004785
12494		6.139487	4.189296	-5.863047	-0.089152	-0.081262	-0.347000	-0.680741	1.917481	1.748558	-0.340820	-0.251953	0.766602	0.060460	0.042223	-0.059356	-0.138685	-0.865774	-0.229628	-0.422461	144.317635	-41.898916	43.758584
12495		6.444380	3.852709	-5.637054	-0.042398	0.198491	-0.426381	-0.618811	2.152029	1.825175	-0.359863	-0.248779	0.760498	0.063477	0.038933	-0.057177	-0.135009	-0.862836	-0.221834	-0.433677	144.088014	-43.510294	43.574549
12496		6.613641	3.179961	-5.439864	-0.184092	0.688386	-0.706075	-0.489880	2.382405	1.920497	-0.387695	-0.249023	0.755615	0.065173	0.032294	-0.055258	-0.130293	-0.859399	-0.213990	-0.445719	143.900597	-45.262391	43.438128
12497		6.396600	2.748771	-5.298603	-0.500081	0.773654	-1.112567	-0.252959	2.604470	2.009529	-0.415771	-0.239990	0.742676	0.062989	0.028056	-0.053846	-0.124081	-0.855495	-0.206406	-0.458397	143.816238	-47.146195	43.354374
12498		6.173338	3.167281	-5.364734	-0.782095	0.102152	-1.078140	0.010839	2.817706	2.035941	-0.432617	-0.227295	0.730713	0.060643	0.032297	-0.054505	-0.116433	-0.851048	-0.199363	-0.471609	143.818132	-49.138970	43.357353
12499		6.454522	3.942713	-5.622580	-0.923792	-0.686428	-0.459369	0.131066	3.033328	2.111865	-0.474609	-0.222412	0.717529	0.063262	0.040137	-0.057166	-0.107834	-0.845964	-0.192365	-0.485502	143.844631	-51.255770	43.420773
12500		6.862854	4.492914	-5.536647	-0.805343	-1.261441	-0.030712	0.132888	3.238594	2.250435	-0.498535	-0.216553	0.701416	0.067209	0.045728	-0.056432	-0.098661	-0.840206	-0.184806	-0.500167	143.861686	-53.515780	43.492950
12501		6.685239	4.992658	-5.503509	-1.035257	-2.060874	-0.087758	-0.055867	3.408227	2.421425	-0.533691	-0.206787	0.688232	0.065291	0.050708	-0.056171	-0.089649	-0.833742	-0.176084	-0.515589	143.795454	-55.910659	43.535016
12502		6.372698	5.678872	-6.079540	-1.854750	-3.107237	0.021399	-0.339416	3.547505	2.522405	-0.562988	-0.190186	0.664551	0.061912	0.057473	-0.062002	-0.081405	-0.826499	-0.166170	-0.531658	143.551330	-58.405284	43.591275
12503		6.593378	6.161613	-6.660427	-2.566593	-3.778330	0.430064	-0.681980	3.692639	2.673445	-0.597656	-0.188477	0.654053	0.063857	0.062249	-0.068008	-0.074004	-0.818441	-0.154720	-0.548397	143.115286	-61.016798	43.643789
12504		6.719694	6.110710	-6.541146	-2.823062	-3.958873	0.267711	-0.973346	3.846669	2.846936	-0.625000	-0.179199	0.615479	0.065043	0.061720	-0.066976	-0.067169	-0.809523	-0.141712	-0.565755	142.509828	-63.759494	43.695212
12505		7.005392	5.140099	-5.952641	-2.746462	-3.186783	-0.158273	-1.185782	3.956961	2.980968	-0.656494	-0.170410	0.587891	0.068081	0.052066	-0.061194	-0.060685	-0.799816	-0.127528	-0.583394	141.754521	-66.597580	43.778801
12506		7.258352	3.396808	-5.687016	-3.055264	-1.691679	-0.628624	-1.135876	4.031984	3.124040	-0.694092	-0.160645	0.569580	0.070876	0.034755	-0.058507	-0.053507	-0.789460	-0.112838	-0.600964	141.015405	-69.520645	43.871368
12507		8.071891	2.793531	-5.380915	-3.010689	-1.171766	-0.249504	-0.769986	4.063710	3.137625	-0.717529	-0.143066	0.532959	0.079153	0.028974	-0.055538	-0.044779	-0.778582	-0.099144	-0.618041	140.353317	-72.461142	44.104983
12508		9.065505	4.118789	-5.291316	-2.981886	-2.562746	0.754219	-0.458773	4.073494	2.957539	-0.754883	-0.129150	0.503418	0.088930	0.042387	-0.054833	-0.035376	-0.767140	-0.087032	-0.634563	139.394479	-75.338879	44.826573
12509		8.428075	5.721870	-5.307281	-3.373239	-4.563262	0.172898	-0.228327	4.003166	2.721107	-0.777344	-0.104248	0.481201	0.082407	0.058287	-0.054801	-0.025834	-0.755392	-0.076509	-0.650278	137.829866	-78.091119	46.299464
12510		7.886855	7.445547	-4.466521	-2.852633	-6.573656	-0.527534	-0.312856	3.936611	2.631195	-0.809326	-0.091797	0.455811	0.076980	0.075405	-0.046310	-0.016928	-0.743377	-0.065984	-0.665395	135.239413	-80.767103	48.749301
12511		8.660468	7.922418	-3.963268	-2.622704	-7.192460	-0.074272	-0.837392	3.838120	2.870511	-0.831543	-0.074707	0.416260	0.084672	0.080277	-0.041605	-0.009184	-0.731299	-0.052794	-0.679949	131.412424	-83.474778	52.127474
12512		9.813914	5.930618	-3.898778	-3.031126	-5.400273	0.594241	-1.186878	3.710910	3.166589	-0.845459	-0.052734	0.388428	0.096436	0.060602	-0.041145	-0.001756	-0.719264	-0.037282	-0.693733	124.625189	-86.219656	58.255305
12513		10.256947	1.277415	-4.086016	-3.841371	-1.052410	0.562633	-1.121750	3.547182	3.177231	-0.864746	-0.036865	0.363281	0.101605	0.014157	-0.042745	0.005930	-0.707362	-0.021947	-0.706486	94.261433	-88.700211	87.997624
12514		9.028076	-1.337779	-4.836697	-5.019612	1.231508	-0.870445	-0.366315	3.290529	2.698712	-0.887695	-0.009766	0.331055	0.089639	-0.012256	-0.049822	0.014548	-0.695914	-0.010956	-0.717894	-8.246850	-88.195336	-169.686240
12515		9.617199	1.328999	-4.772312	-5.150081	-1.666008	-0.446797	0.388222	2.985260	2.051264	-0.892822	0.003174	0.312012	0.095302	0.014365	-0.049123	0.023463	-0.685201	-0.004956	-0.727959	-22.252681	-86.224072	-155.443195
12516		10.426485	2.948075	-4.620126	-5.233711	-3.516533	0.136113	0.710691	2.746369	1.650834	-0.906982	0.019531	0.288086	0.103369	0.030504	-0.047518	0.031994	-0.675101	-0.001517	-0.737030	-24.843809	-84.405032	-152.437361
12517		9.836248	3.739921	-4.303061	-5.039919	-4.454316	-0.647231	0.900930	2.461981	1.269614	-0.915283	0.038086	0.265381	0.097583	0.038217	-0.044064	0.039771	-0.665856	-0.000122	-0.745020	-24.984533	-82.821175	-151.776243
12518		8.746811	4.388349	-4.012602	-4.742440	-5.162714	-1.893289	0.959846	2.088715	0.897284	-0.919189	0.044922	0.241211	0.086846	0.044469	-0.040823	0.046330	-0.657867	-0.000251	-0.751708	-24.259884	-81.521183	-151.954689
12519		7.358899	4.582971	-4.775741	-5.389645	-5.408073	-3.514505	0.886325	1.645891	0.597136	-0.919922	0.050049	0.238770	0.073056	0.046261	-0.048156	0.051533	-0.651478	-0.001202	-0.756914	-23.373387	-80.522400	-152.337901
12520		6.152560	4.614253	-5.468371	-5.930368	-5.465582	-4.913127	0.849312	1.156465	0.241117	-0.934326	0.051514	0.226807	0.061153	0.046449	-0.054841	0.055239	-0.646901	-0.003292	-0.760563	-22.180239	-79.860646	-153.057050
12521		5.114857	5.148427	-5.748410	-5.992429	-5.982669	-6.069621	0.907188	0.659593	-0.245174	-0.932373	0.056885	0.220215	0.051022	0.051682	-0.057418	0.057294	-0.644162	-0.007320	-0.762705	-20.229349	-79.561560	-154.511413
12522		5.160960	5.753912	-5.280339	-5.453705	-6.571119	-5.978331	0.877809	0.214873	-0.682931	-0.932617	0.052734	0.222900	0.051750	0.057594	-0.052606	0.057542	-0.643093	-0.012766	-0.763516	-17.534671	-79.575226	-156.742338
12523		6.229840	6.346346	-4.602830	-4.868550	-7.161940	-4.785150	0.605604	-0.240816	-0.954977	-0.933350	0.045898	0.225830	0.062656	0.063304	-0.045761	0.055871	-0.643802	-0.018185	-0.762933	-14.540548	-79.862235	-159.432520
12524		6.292517	7.684305	-5.341257	-5.427768	-8.518286	-4.797768	0.043045	-0.764092	-1.165729	-0.927002	0.040771	0.226563	0.063575	0.076485	-0.053154	0.051506	-0.646622	-0.022276	-0.760744	-11.364914	-80.443343	-162.633054
12525		5.461677	8.793829	-5.549445	-5.384274	-9.519952	-5.530810	-0.615959	-1.150800	-1.228236	-0.923340	0.023926	0.238525	0.055474	0.087429	-0.055447	0.044755	-0.651031	-0.024167	-0.757345	-8.158200	-81.216828	-166.238537
12526		7.754496	7.560403	-0.368227	-0.782568	-7.801688	-2.332863	-1.352246	-1.023104	-0.923485	-0.914795	0.012451	0.247803	0.077912	0.075219	-0.003794	0.036739	-0.655106	-0.022242	-0.754315	-5.917238	-81.869081	-169.290096
12527		15.021907	-0.430491	4.255468	2.124526	0.335698	5.657419	-2.217972	-0.534687	0.034776	-0.921143	0.015137	0.248291	0.150105	-0.003804	0.043000	0.029586	-0.657527	-0.013826	-0.752723	-7.637258	-82.175287	-168.836368
12528		16.873747	-8.041125	2.616747	-0.070854	7.735556	7.403100	-1.556186	-0.415659	-0.166767	-0.913330	0.003662	0.244629	0.168615	-0.080343	0.027143	0.023822	-0.659327	-0.008541	-0.751430	-8.105940	-82.429561	-169.265719
12529		13.402257	-1.357707	2.786928	1.015294	1.140626	3.858377	-2.128570	-0.565834	-0.263767	-0.919189	0.001709	0.250732	0.133925	-0.013453	0.028392	0.015831	-0.661689	-0.001445	-0.749610	-8.591325	-82.776424	-170.005951
12530		11.643024	-6.563419	-1.579170	-3.056639	6.278463	1.692314	-2.513405	-0.682077	0.222557	-0.914307	-0.005859	0.254883	0.116554	-0.065693	-0.014569	0.008360	-0.664427	0.008694	-0.747256	-11.647446	-83.143680	-168.379662
12531		13.364006	-5.362221	-3.720001	-5.157845	5.094422	3.172974	-1.732864	-0.890169	-0.253226	-0.915039	-0.006592	0.257324	0.133734	-0.054108	-0.036138	0.001738	-0.667837	0.014325	-0.744167	-12.395438	-83.676426	-168.626035
12532		13.062403	-4.617666	-3.330403	-4.547243	4.464195	2.932100	-1.272672	-1.019565	-0.756737	-0.909912	-0.017578	0.265381	0.130614	-0.046879	-0.032341	-0.005234	-0.671707	0.016563	-0.740614	-10.220317	-84.339332	-171.548056
12533		10.794173	-4.665508	-2.573831	-3.395180	4.647980	0.759517	-0.685795	-1.108529	-1.004431	-0.893555	-0.032715	0.273438	0.107845	-0.047283	-0.024979	-0.011121	-0.675886	0.015795	-0.736753	-5.481949	-85.052066	-176.701177
12534		8.863212	-0.690287	-2.558267	-3.230386	0.802800	-1.181598	-0.043628	-1.175756	-1.357998	-0.894043	-0.036865	0.285645	0.088731	-0.007511	-0.025060	-0.016157	-0.680333	0.011471	-0.732635	3.999361	-85.744114	173.760269
12535		9.533248	2.634886	-3.251714	-3.986912	-2.364017	-0.490039	0.245868	-1.201627	-1.502255	-0.887695	-0.043213	0.296875	0.095720	0.025670	-0.031911	-0.020711	-0.684841	0.005595	-0.728376	18.081266	-86.265182	159.785880
12536		10.888395	3.911800	-2.941814	-3.682488	-3.486720	0.994347	0.196098	-1.126344	-1.336474	-0.888184	-0.060547	0.312744	0.109305	0.038417	-0.028765	-0.024851	-0.689014	0.000461	-0.724322	33.610451	-86.522278	144.337466
12537		10.539627	4.875871	-2.749232	-3.384952	-4.343981	0.774348	0.198736	-0.991300	-1.144059	-0.878906	-0.065674	0.318359	0.105807	0.048181	-0.026920	-0.028265	-0.692644	-0.004038	-0.720714	48.028114	-86.531826	130.007753
12538		9.633126	6.522377	-2.878116	-3.432615	-5.918010	0.026728	0.161003	-0.834357	-1.091305	-0.877686	-0.072754	0.321045	0.096804	0.064719	-0.028326	-0.031637	-0.695675	-0.008239	-0.717612	60.234803	-86.311610	117.868246
12539		9.306982	6.327402	-2.205744	-2.671696	-5.670489	-0.209166	-0.149419	-0.659270	-0.866609	-0.880127	-0.083252	0.324219	0.093415	0.062853	-0.021797	-0.035252	-0.698004	-0.010573	-0.715148	68.487308	-86.034742	109.511711
12540		9.894706	3.101123	-1.746165	-2.063641	-2.357524	0.224955	-0.393133	-0.508544	-0.541716	-0.865723	-0.093018	0.338623	0.099075	0.030709	-0.017270	-0.038569	-0.699759	-0.010930	-0.713253	73.630396	-85.841886	104.128371
12541		10.134021	0.269860	-1.597242	-1.764523	0.531163	0.283170	-0.258517	-0.407183	-0.489481	-0.868896	-0.091064	0.331787	0.101379	0.002430	-0.015769	-0.041201	-0.701163	-0.011601	-0.711715	77.499179	-85.635870	100.100473
12542		10.450581	-0.085783	-1.596938	-1.710505	0.962282	0.575768	0.014044	-0.368136	-0.543117	-0.869873	-0.103760	0.338135	0.104532	-0.001141	-0.015777	-0.043090	-0.702482	-0.013439	-0.710268	80.955762	-85.374982	96.639534
12543		10.232371	0.480802	-1.582761	-1.677905	0.432819	0.406641	0.194237	-0.343483	-0.558389	-0.859619	-0.087402	0.333008	0.102364	0.004538	-0.015647	-0.044374	-0.703735	-0.015976	-0.708895	83.961459	-85.090645	93.735217
12544		9.648526	0.074955	-1.435058	-1.475103	0.829002	-0.205625	0.319595	-0.296437	-0.516823	-0.866211	-0.105957	0.337891	0.096508	0.000523	-0.014207	-0.045086	-0.704854	-0.018823	-0.707668	86.413540	-84.814821	91.456117
12545		9.547065	-0.088227	-1.173653	-1.177114	1.016737	-0.319948	0.531552	-0.288394	-0.558160	-0.866943	-0.106445	0.344971	0.095485	-0.001118	-0.011602	-0.045174	-0.705969	-0.022564	-0.706441	88.683636	-84.509020	89.482151
12546		9.594850	1.123806	-0.714629	-0.722993	-0.148642	-0.154034	0.693175	-0.289378	-0.644012	-0.863037	-0.100098	0.344238	0.095994	0.010953	-0.006969	-0.045018	-0.707109	-0.027180	-0.705146	90.833610	-84.145189	87.719140
12547		9.733409	2.433457	-0.339898	-0.338538	-1.386311	0.124087	0.676224	-0.281058	-0.696344	-0.864746	-0.108887	0.350586	0.097423	0.024006	-0.003181	-0.045080	-0.708182	-0.031922	-0.703866	92.674273	-83.747751	86.257912
12548		9.563617	2.394478	0.057763	0.100766	-1.305655	-0.041086	0.514590	-0.243883	-0.734022	-0.852051	-0.109375	0.357666	0.095722	0.023592	0.000755	-0.045859	-0.709075	-0.036239	-0.702706	94.045454	-83.323943	85.173761
12549		9.909061	1.734847	-0.116514	-0.026287	-0.538178	0.233304	0.458382	-0.232113	-0.711216	-0.854492	-0.112793	0.364502	0.099153	0.016998	-0.001011	-0.046735	-0.709894	-0.040277	-0.701601	95.181879	-82.913094	84.293761
12550		10.188161	1.204650	-0.077014	0.053535	0.091321	0.446164	0.488573	-0.238293	-0.687953	-0.859863	-0.111084	0.368896	0.101923	0.011698	-0.000620	-0.047442	-0.710743	-0.044339	-0.700449	96.273537	-82.511192	83.474538
12551		9.759853	0.518856	0.142570	0.300085	0.779885	-0.073817	0.570000	-0.270634	-0.636632	-0.852051	-0.119629	0.372070	0.097612	0.004874	0.001572	-0.047667	-0.711712	-0.048492	-0.699173	97.462517	-82.136302	82.604477
12552		9.526396	1.059686	0.328373	0.518445	0.276621	-0.239956	0.765284	-0.327823	-0.678403	-0.850342	-0.119141	0.373779	0.095294	0.010261	0.003480	-0.047371	-0.712910	-0.053466	-0.697608	98.875949	-81.728609	81.619248
12553		9.804706	2.433172	0.545113	0.804007	-0.969015	0.225415	0.867334	-0.378825	-0.746906	-0.847168	-0.119629	0.380859	0.098126	0.023941	0.005741	-0.046947	-0.714258	-0.059022	-0.695807	100.367803	-81.275908	80.613432
12554		10.013091	2.978287	0.699938	1.035075	-1.397245	0.511925	0.778791	-0.398426	-0.674180	-0.844971	-0.128174	0.375732	0.100216	0.029417	0.007314	-0.046605	-0.715662	-0.064009	-0.693944	101.815324	-80.856345	79.599464
12555		9.846042	2.449706	0.748851	1.123337	-0.833888	0.264445	0.643753	-0.394876	-0.530285	-0.839600	-0.128174	0.392822	0.098510	0.024211	0.007761	-0.046230	-0.717040	-0.068006	-0.692165	103.169634	-80.515959	78.600963
12556		9.696729	2.024202	0.479663	0.887799	-0.392597	0.057029	0.549260	-0.410693	-0.453835	-0.834473	-0.128906	0.394287	0.097003	0.020008	0.005051	-0.045950	-0.718472	-0.071402	-0.690354	104.509587	-80.210131	77.560415
12557		9.327802	2.566851	0.316174	0.783723	-0.943454	-0.211032	0.415009	-0.458091	-0.537324	-0.841553	-0.122559	0.400879	0.093339	0.025411	0.003428	-0.046440	-0.719986	-0.074617	-0.688401	105.769260	-79.849290	76.522987
12558		9.314944	2.658614	-0.151128	0.371644	-1.000208	-0.183549	0.172419	-0.482912	-0.523457	-0.843262	-0.138184	0.400146	0.093222	0.026343	-0.001263	-0.047777	-0.721533	-0.076948	-0.686431	106.905288	-79.486370	75.468499
12559		9.736493	2.603523	-0.316244	0.272656	-0.824444	0.233363	-0.002757	-0.514679	-0.540498	-0.827148	-0.133301	0.405273	0.097443	0.025772	-0.002912	-0.049804	-0.723121	-0.078723	-0.684411	107.938162	-79.107219	74.415862
12560		9.623011	1.836945	-0.358353	0.237622	-0.040333	-0.012348	-0.157079	-0.513898	-0.497396	-0.824463	-0.135986	0.415039	0.096284	0.018127	-0.003350	-0.052254	-0.724684	-0.079820	-0.682445	108.857064	-78.746216	73.387535
12561		9.634074	0.421867	-0.170271	0.410027	1.403981	-0.279445	-0.112985	-0.514705	-0.444347	-0.823242	-0.146240	0.413330	0.096354	0.004004	-0.001457	-0.054349	-0.726264	-0.080867	-0.680476	109.787754	-78.412774	72.372135
12562		9.592872	0.132452	0.059465	0.673011	1.732064	-0.400414	0.157381	-0.524451	-0.481896	-0.822998	-0.134766	0.422363	0.095930	0.001093	0.000847	-0.055605	-0.727936	-0.082975	-0.678331	110.809828	-78.051742	71.420112
12563		9.566291	1.788858	0.104357	0.844225	0.155113	-0.117971	0.352588	-0.541084	-0.547871	-0.816895	-0.144287	0.422363	0.095708	0.017624	0.001334	-0.056369	-0.729670	-0.085970	-0.676027	111.856187	-77.650704	70.556562
12564		9.170058	2.808816	-0.034786	0.785130	-0.873945	-0.294290	0.265475	-0.554853	-0.546856	-0.814209	-0.159424	0.423340	0.091777	0.027837	-0.000056	-0.057459	-0.731423	-0.088673	-0.673688	112.830810	-77.242171	69.714426
12565		8.966284	2.551832	-0.547832	0.300590	-0.631488	-0.500511	0.078212	-0.576348	-0.526697	-0.815918	-0.154297	0.440186	0.089745	0.025284	-0.005210	-0.059167	-0.733183	-0.090654	-0.671360	113.707621	-76.838385	68.860814
12566		9.188716	2.299670	-0.907265	0.001666	-0.298562	-0.301931	-0.024545	-0.604541	-0.539757	-0.811279	-0.157715	0.441650	0.091976	0.022747	-0.008798	-0.061321	-0.734998	-0.092334	-0.668948	114.526267	-76.416232	68.004703
12567		9.494005	1.844113	-0.917076	0.049200	0.266183	-0.101656	-0.134951	-0.617995	-0.536951	-0.805176	-0.161133	0.447510	0.095017	0.018180	-0.008890	-0.063863	-0.736805	-0.093623	-0.666540	115.259866	-75.991809	67.169826
12568		9.476098	0.775184	-1.054125	-0.088584	1.352769	-0.343252	-0.083293	-0.622565	-0.510574	-0.791260	-0.176514	0.448975	0.094813	0.007506	-0.010249	-0.066138	-0.738651	-0.094992	-0.664076	116.014558	-75.575272	66.342287
12569		9.178446	0.692189	-1.073731	-0.084315	1.415581	-0.654936	0.151457	-0.635282	-0.542962	-0.794922	-0.169678	0.468018	0.091836	0.006681	-0.010441	-0.067648	-0.740582	-0.097245	-0.661442	116.847626	-75.138167	65.571077
12570		9.106477	1.581700	-0.969748	0.121382	0.589765	-0.538694	0.332938	-0.656668	-0.600067	-0.790527	-0.174805	0.460205	0.091143	0.015559	-0.009372	-0.068698	-0.742609	-0.100308	-0.658597	117.724244	-74.661358	64.860404
12571		8.902827	2.312456	-1.035457	0.142345	-0.114037	-0.558174	0.356202	-0.679432	-0.634661	-0.780029	-0.182373	0.474854	0.089135	0.022860	-0.010011	-0.069771	-0.744677	-0.103558	-0.655640	118.571114	-74.160351	64.193210
12572		8.896063	2.695755	-1.150376	0.120965	-0.431180	-0.456986	0.263949	-0.706557	-0.652395	-0.772705	-0.186035	0.479492	0.089088	0.026682	-0.011154	-0.071271	-0.746782	-0.106567	-0.652595	119.351345	-73.638308	63.538350
12573		8.763855	2.272866	-0.952631	0.341292	0.012143	-0.715367	0.152562	-0.752406	-0.661371	-0.769775	-0.192139	0.485840	0.087748	0.022446	-0.009179	-0.073227	-0.748965	-0.109220	-0.649431	120.089038	-73.098550	62.859813
12574		8.880077	1.674530	-0.888625	0.449854	0.683469	-0.769501	0.169066	-0.803181	-0.657613	-0.768799	-0.191162	0.491699	0.088890	0.016460	-0.008515	-0.075148	-0.751309	-0.111897	-0.646039	120.877405	-72.541116	62.135526
12575		9.144848	1.509072	-0.322814	1.108741	0.993221	-0.658830	0.225157	-0.832990	-0.670373	-0.759521	-0.205566	0.496826	0.091511	0.014787	-0.002830	-0.076900	-0.753733	-0.114783	-0.642493	121.682222	-71.967889	61.426093
12576		9.125013	1.536082	0.267469	1.768969	1.046146	-0.786486	0.233684	-0.889712	-0.717685	-0.751221	-0.191406	0.506836	0.091291	0.015030	0.003098	-0.078817	-0.756300	-0.117854	-0.638677	122.485282	-71.349284	60.720630
12577		9.425975	2.298974	0.450808	2.141968	0.475937	-0.351095	0.284631	-0.950729	-0.775066	-0.745850	-0.201416	0.510254	0.094325	0.022617	0.004989	-0.080742	-0.759012	-0.121271	-0.634567	123.299871	-70.683193	60.031794
12578		9.907549	3.546800	0.187155	2.160783	-0.507132	0.475494	0.159375	-0.992434	-0.806171	-0.736572	-0.211914	0.524414	0.099206	0.035067	0.002392	-0.083273	-0.761763	-0.124395	-0.630325	124.022712	-69.984145	59.361308
12579		9.472061	3.592998	-0.014788	1.988514	-0.601773	0.102561	0.005667	-1.024356	-0.785850	-0.722900	-0.212891	0.532227	0.094860	0.035557	0.000339	-0.086333	-0.764524	-0.126931	-0.626049	124.668460	-69.283685	58.676110
12580		9.559548	3.382721	-0.543116	1.565388	-0.308275	0.216068	-0.031851	-1.043748	-0.758895	-0.722900	-0.225098	0.543457	0.095750	0.033463	-0.004937	-0.089473	-0.767322	-0.129238	-0.621698	125.296587	-68.584806	57.983037
12581		9.711997	3.130915	-1.038571	1.187584	0.045173	0.375070	0.026028	-1.037068	-0.711274	-0.713379	-0.220703	0.545898	0.097283	0.030965	-0.009878	-0.092223	-0.770118	-0.131535	-0.617342	125.947217	-67.909700	57.298726
12582		9.527769	3.023887	-1.471428	0.819372	0.155275	0.256602	0.105086	-1.023252	-0.699758	-0.706543	-0.233398	0.555908	0.095456	0.029913	-0.014210	-0.094632	-0.772891	-0.134038	-0.612958	126.597905	-67.239752	56.659603
12583		9.706378	3.204108	-2.060914	0.403628	0.106987	0.606126	0.187817	-1.016268	-0.706907	-0.691162	-0.222168	0.562744	0.097279	0.031717	-0.020085	-0.096722	-0.775641	-0.136815	-0.608529	127.245460	-66.568229	56.072757
12584		9.816233	3.520120	-2.598906	0.043631	-0.085582	0.934091	0.224175	-1.001151	-0.730171	-0.680664	-0.239258	0.559814	0.098418	0.034871	-0.025458	-0.098739	-0.778321	-0.139800	-0.604088	127.846323	-65.887000	55.556329
12585		9.931152	3.241966	-2.669213	0.084784	0.295188	0.965389	0.195894	-1.025732	-0.744594	-0.679443	-0.246826	0.570313	0.099566	0.032075	-0.026150	-0.100912	-0.781015	-0.142733	-0.599550	128.413565	-65.190440	55.056604
12586		10.800265	1.675773	-3.627980	-0.675252	2.135018	1.483334	0.064449	-1.094397	-0.667571	-0.663574	-0.249268	0.581299	0.108254	0.016408	-0.035683	-0.103427	-0.783876	-0.144934	-0.594841	129.000323	-64.499622	54.448411
12587		11.045605	0.739088	-4.041069	-0.983266	3.172457	1.494334	0.193480	-1.140278	-0.608686	-0.657471	-0.243164	0.592773	0.110706	0.007093	-0.039773	-0.105276	-0.786945	-0.147254	-0.589874	129.714404	-63.817374	53.778315
12588		10.535196	1.327375	-3.548899	-0.449747	2.521611	1.086129	0.289008	-1.189786	-0.714688	-0.643311	-0.253662	0.600830	0.105607	0.012947	-0.034842	-0.107104	-0.790101	-0.150243	-0.584548	130.413126	-63.064889	53.181764
12589		10.621236	2.039395	-2.944494	0.364776	1.976095	1.214535	0.208827	-1.229803	-0.748323	-0.635986	-0.244141	0.602051	0.106466	0.020026	-0.028770	-0.109361	-0.793259	-0.153098	-0.579087	131.040657	-62.281759	52.610241
12590		10.714385	1.663179	-2.297213	1.098301	2.449597	0.940564	0.076883	-1.257499	-0.744139	-0.628418	-0.262939	0.621338	0.107346	0.016241	-0.022291	-0.112154	-0.796392	-0.155535	-0.573577	131.586465	-61.485500	52.040951
12591		10.500017	1.655409	-2.099858	1.355690	2.462393	0.651376	0.148868	-1.299182	-0.770909	-0.621582	-0.267090	0.625732	0.105196	0.016164	-0.020304	-0.114753	-0.799613	-0.158249	-0.567810	132.156184	-60.661117	51.487633
12592		10.132072	2.310178	-1.808128	1.736016	1.802381	0.434286	0.234832	-1.342177	-0.820216	-0.597656	-0.264893	0.633545	0.101533	0.022706	-0.017374	-0.117187	-0.802924	-0.161371	-0.561728	132.742795	-59.794855	50.966054
12593		9.950752	2.355141	-1.464773	2.146300	1.776441	0.134416	0.326033	-1.394578	-0.877544	-0.586670	-0.269531	0.641113	0.099708	0.023137	-0.013915	-0.119439	-0.806330	-0.164937	-0.555303	133.349611	-58.883201	50.477944
12594		10.245537	2.873555	-1.203112	2.704854	1.510211	0.437962	0.439379	-1.458478	-0.937293	-0.561768	-0.269531	0.649658	0.102672	0.028280	-0.011220	-0.121455	-0.809877	-0.169008	-0.548439	133.994652	-57.917239	50.015410
12595		10.727312	2.754527	-1.189310	3.024166	1.915876	0.735178	0.433625	-1.506212	-0.958583	-0.550049	-0.281738	0.668945	0.107489	0.027055	-0.011025	-0.123571	-0.813460	-0.173106	-0.541338	134.622110	-56.922418	49.565793
12596		10.863563	1.737748	-1.068107	3.195181	3.000927	0.334198	0.486600	-1.537149	-1.020523	-0.537842	-0.274902	0.675049	0.108800	0.016847	-0.009804	-0.125669	-0.817041	-0.177562	-0.533970	135.230371	-55.885895	49.168968
12597		11.162590	0.788024	-1.281375	3.119361	4.099078	0.203782	0.664084	-1.560984	-1.082844	-0.526855	-0.283691	0.675537	0.111762	0.007316	-0.011917	-0.127203	-0.820657	-0.182717	-0.526266	135.888051	-54.813776	48.832197
12598		11.191407	0.642214	-1.224495	3.315762	4.357411	0.044994	0.906332	-1.599432	-1.223452	-0.507324	-0.279541	0.697021	0.112044	0.005790	-0.011322	-0.128147	-0.824313	-0.189038	-0.518027	136.595850	-53.666593	48.598697
12599		11.748701	0.152478	-1.526191	3.332949	5.175566	0.310783	1.082297	-1.634576	-1.333621	-0.490723	-0.274658	0.690674	0.117614	0.000820	-0.014295	-0.128654	-0.827956	-0.196225	-0.509346	137.334316	-52.461228	48.450815
12600		12.426034	-0.749826	-1.769922	3.370553	6.427968	0.454569	1.315786	-1.663104	-1.421673	-0.474609	-0.283691	0.708984	0.124345	-0.008270	-0.016718	-0.128439	-0.831613	-0.204317	-0.500177	138.147085	-51.207828	48.374715
12601		12.768363	-1.353364	-0.256180	4.863690	7.258357	-0.400851	1.671395	-1.729563	-1.550507	-0.460693	-0.271484	0.722900	0.127590	-0.014507	-0.001577	-0.127100	-0.835377	-0.213760	-0.490201	139.100835	-49.877427	48.379966
12602		14.717737	-0.207635	1.792327	7.893969	7.382428	0.338131	2.103906	-1.900490	-1.679782	-0.432373	-0.252441	0.738525	0.146973	-0.003509	0.019289	-0.124435	-0.839502	-0.224633	-0.478845	140.281882	-48.424171	48.410706
12603		17.164759	3.122819	2.646698	10.773800	5.976272	2.819453	2.108593	-2.037705	-1.693017	-0.413818	-0.249023	0.758301	0.171618	0.029482	0.028533	-0.121890	-0.843705	-0.235435	-0.466771	141.481749	-46.906454	48.422151
12604		15.706307	5.574733	2.499489	10.954625	3.402422	2.532839	1.499528	-2.102426	-1.543843	-0.391846	-0.246338	0.772461	0.157209	0.054336	0.027058	-0.121619	-0.847650	-0.244073	-0.455111	142.397625	-45.412685	48.341924
12605		13.353147	5.448417	0.910140	8.756511	2.475970	1.412341	0.692223	-2.150179	-1.354800	-0.373291	-0.244141	0.773926	0.133787	0.053543	0.010725	-0.124366	-0.851272	-0.250009	-0.444258	142.931135	-43.962203	48.147481
12606		12.278426	5.963047	-2.019328	6.244324	1.640121	2.381689	0.155532	-2.265101	-1.466958	-0.347656	-0.245117	0.779297	0.123435	0.058742	-0.018752	-0.129778	-0.854525	-0.255096	-0.433441	143.129797	-42.420057	47.984874
12607		12.212213	7.717739	-3.980019	5.447145	0.390734	4.140980	-0.169906	-2.301655	-1.605526	-0.327881	-0.251221	0.786865	0.123184	0.076158	-0.038452	-0.136892	-0.857304	-0.260015	-0.422708	143.089575	-40.812897	47.899041
12608		11.603181	6.624403	-5.314224	3.950016	1.243351	3.956812	-0.553630	-2.149660	-1.302869	-0.307129	-0.253662	0.791260	0.117023	0.065339	-0.052070	-0.144799	-0.859740	-0.262864	-0.413260	142.900819	-39.380477	47.696705
12609		9.987641	4.451297	-6.236182	1.865313	2.351878	2.411873	-0.305217	-1.978697	-1.008920	-0.284424	-0.259277	0.791992	0.100710	0.043912	-0.061435	-0.150775	-0.862261	-0.265066	-0.404368	142.911439	-38.127316	47.400575
12610		9.167800	3.848317	-6.678076	1.074763	2.552872	1.839679	0.145678	-1.785894	-0.940116	-0.272949	-0.258789	0.796387	0.092449	0.038098	-0.065930	-0.154403	-0.864726	-0.267980	-0.395722	143.142848	-36.986533	47.154990
12611		8.139506	4.874034	-6.304060	1.340221	1.227225	1.431988	0.557965	-1.573505	-0.951926	-0.246582	-0.253418	0.802002	0.082118	0.048525	-0.062261	-0.155964	-0.866988	-0.271917	-0.387387	143.543193	-35.937390	47.019500
12612		6.465786	5.624438	-6.454512	0.734591	-0.264601	0.887281	0.593504	-1.278960	-0.780260	-0.242920	-0.253906	0.804443	0.065287	0.056181	-0.063962	-0.156634	-0.868873	-0.275368	-0.380391	143.940490	-35.082786	46.917990
12613		5.936942	5.227061	-4.644184	1.781567	-0.319648	-0.820437	0.734984	-0.927775	-0.566241	-0.231201	-0.240479	0.808350	0.059731	0.052271	-0.045973	-0.155782	-0.870448	-0.278437	-0.374866	144.400886	-34.461499	46.849337
12614		7.973233	3.777321	-2.903100	3.768120	1.980930	-1.557666	0.364876	-0.609723	-0.298345	-0.233154	-0.242432	0.811523	0.079876	0.037707	-0.028719	-0.155598	-0.871487	-0.279868	-0.371446	144.658152	-34.078445	46.760901
