// General information: 
//  MT Manager version: 2021.4.0 
//  XDA version: 2021.4.0 build 6323 rev 112641 built on 2021-09-28
// Device information: 
//  DeviceId: 00B47795
//  ProductCode: MTW2-3A7G6
//  Firmware Version: 4.6.0
//  Hardware Version: 2.0.0
// Device settings: 
//  Filter Profile: human(46.1)
//  Option Flags: Orientation Smoother Disabled, Position/Velocity Smoother Disabled, Continuous Zero Rotation Update Disabled, AHS Disabled, ICC Disabled
// Coordinate system: ENU
PacketCounter	SampleTimeFine	Acc_X	Acc_Y	Acc_Z	FreeAcc_E	FreeAcc_N	FreeAcc_U	Gyr_X	Gyr_Y	Gyr_Z	Mag_X	Mag_Y	Mag_Z	VelInc_X	VelInc_Y	VelInc_Z	Quat_q0	Quat_q1	Quat_q2	Quat_q3	Roll	Pitch	Yaw
12076		9.715158	0.505155	-0.337682	0.013511	0.023940	-0.078585	0.017957	0.012741	0.011266	-0.906250	0.292969	0.190186	0.097151	0.005057	-0.003383	0.328838	-0.615573	-0.373917	-0.610836	125.812263	-86.326612	113.814689
12077		9.756133	0.514699	-0.396251	-0.008946	-0.030042	-0.035005	0.003255	0.013865	0.014671	-0.912598	0.288818	0.203857	0.097561	0.005154	-0.003969	0.328900	-0.615542	-0.373897	-0.610846	125.773366	-86.333574	113.857424
12078		9.753318	0.478871	-0.393131	-0.038087	-0.010730	-0.039790	-0.003475	0.014676	0.015488	-0.912842	0.285645	0.203125	0.097533	0.004796	-0.003939	0.328939	-0.615526	-0.373848	-0.610872	125.731403	-86.340940	113.898269
12079		9.760332	0.423661	-0.416652	-0.097853	-0.004031	-0.034774	0.002379	0.015261	0.011543	-0.909424	0.293457	0.206055	0.097603	0.004242	-0.004174	0.328985	-0.615490	-0.373828	-0.610895	125.666096	-86.346727	113.965941
12080		9.791016	0.385035	-0.420865	-0.134506	0.012355	-0.005999	-0.003799	0.017990	0.009077	-0.909180	0.282959	0.204834	0.097910	0.003855	-0.004218	0.329008	-0.615452	-0.373793	-0.610942	125.565816	-86.352205	114.065036
12081		9.784234	0.438296	-0.393919	-0.075684	0.006987	-0.011017	-0.002513	0.021848	0.004124	-0.905518	0.291748	0.204346	0.097842	0.004385	-0.003950	0.329027	-0.615392	-0.373768	-0.611008	125.412385	-86.356711	114.217852
12082		9.794184	0.418656	-0.418426	-0.106773	-0.004928	-0.001216	-0.009969	0.022562	-0.001510	-0.905273	0.287598	0.203369	0.097941	0.004186	-0.004196	0.329008	-0.615331	-0.373739	-0.611098	125.219225	-86.358721	114.406470
12083		9.781443	0.404173	-0.387703	-0.105274	0.026955	-0.015826	-0.012270	0.023439	-0.004483	-0.911133	0.296875	0.198242	0.097814	0.004039	-0.003889	0.328976	-0.615265	-0.373710	-0.611199	125.004021	-86.359748	114.615903
12084		9.769196	0.457730	-0.384061	-0.058983	0.001145	-0.025414	-0.015965	0.025314	-0.002368	-0.909668	0.291016	0.206299	0.097692	0.004576	-0.003853	0.328941	-0.615204	-0.373660	-0.611310	124.782272	-86.362169	114.829725
12085		9.784559	0.439526	-0.384357	-0.077516	0.009638	-0.011034	-0.017200	0.026663	-0.008721	-0.909180	0.289795	0.200684	0.097845	0.004391	-0.003857	0.328892	-0.615126	-0.373626	-0.611436	124.518257	-86.362284	115.085937
12086		9.732845	0.428207	-0.369211	-0.081041	0.023996	-0.063800	-0.021365	0.033346	-0.009695	-0.903076	0.280273	0.206299	0.097328	0.004277	-0.003709	0.328833	-0.615035	-0.373570	-0.611593	124.195904	-86.363709	115.397465
12087		9.784717	0.441549	-0.377985	-0.078460	0.010992	-0.011043	-0.016574	0.033460	-0.010257	-0.911865	0.286377	0.201660	0.097847	0.004410	-0.003797	0.328785	-0.614936	-0.373527	-0.611745	123.872288	-86.364818	115.712633
12088		9.776458	0.407774	-0.396566	-0.120122	0.009844	-0.020438	-0.020076	0.037204	-0.014652	-0.911621	0.285645	0.206299	0.097764	0.004070	-0.003984	0.328722	-0.614822	-0.373483	-0.611920	123.496526	-86.364873	116.078418
12089		9.786470	0.390035	-0.419324	-0.151212	-0.002075	-0.010642	-0.015933	0.042104	-0.019913	-0.906006	0.293701	0.202148	0.097864	0.003890	-0.004214	0.328664	-0.614677	-0.373458	-0.612113	123.059972	-86.363809	116.507157
12090		9.851245	0.419476	-0.455364	-0.150589	-0.046279	0.056737	-0.019434	0.045848	-0.024312	-0.915771	0.284180	0.205322	0.098512	0.004182	-0.004577	0.328589	-0.614517	-0.373432	-0.612329	122.572167	-86.361546	116.985580
12091		9.817791	0.425496	-0.443053	-0.143510	-0.042712	0.023162	-0.018835	0.051129	-0.030783	-0.908203	0.287598	0.200928	0.098177	0.004239	-0.004456	0.328507	-0.614329	-0.373417	-0.612571	122.015476	-86.357629	117.533281
12092		9.838552	0.410829	-0.416657	-0.149565	-0.013712	0.042104	-0.015894	0.058897	-0.037465	-0.914551	0.282227	0.195557	0.098385	0.004090	-0.004196	0.328427	-0.614098	-0.373420	-0.612843	121.369483	-86.352287	118.172248
12093		9.802180	0.383123	-0.401667	-0.171187	0.008458	0.003700	-0.006108	0.060669	-0.032028	-0.911621	0.291260	0.196533	0.098021	0.003815	-0.004047	0.328401	-0.613854	-0.373435	-0.613092	120.740229	-86.349801	118.800506
12094		9.777387	0.493275	-0.392998	-0.078116	-0.043838	-0.015390	-0.007823	0.065313	-0.046420	-0.912109	0.282715	0.202148	0.097774	0.004910	-0.003962	0.328331	-0.613574	-0.373480	-0.613383	120.012349	-86.340959	119.526169
12095		9.772664	0.517888	-0.335909	-0.035437	-0.010137	-0.020617	-0.013466	0.068101	-0.044078	-0.909180	0.283203	0.198242	0.097727	0.005157	-0.003393	0.328258	-0.613298	-0.373497	-0.613688	119.273252	-86.333658	120.260169
12096		9.731368	0.558687	-0.370976	-0.024733	-0.066105	-0.058494	-0.015201	0.070893	-0.050354	-0.915283	0.282471	0.191406	0.097314	0.005562	-0.003745	0.328164	-0.613005	-0.373521	-0.614015	118.487751	-86.323183	121.039348
12097		9.798117	0.489166	-0.351331	-0.085119	-0.013536	0.003543	-0.014966	0.075789	-0.047004	-0.916016	0.281494	0.204590	0.097981	0.004868	-0.003551	0.328093	-0.612700	-0.373531	-0.614351	117.679500	-86.315151	121.842107
12098		9.754409	0.516338	-0.309821	-0.047431	0.002620	-0.039826	-0.002352	0.077101	-0.046790	-0.914551	0.277588	0.195068	0.097544	0.005141	-0.003136	0.328060	-0.612374	-0.373575	-0.614668	116.875378	-86.306728	122.647338
12099		9.684639	0.513629	-0.211664	-0.005850	0.081196	-0.112471	-0.000190	0.079563	-0.048623	-0.919189	0.285156	0.197021	0.096847	0.005113	-0.002155	0.328029	-0.612034	-0.373623	-0.614993	116.049028	-86.297189	123.475461
12100		9.801207	0.558460	-0.255694	-0.002229	0.023406	0.007718	0.008485	0.077844	-0.049664	-0.923340	0.286865	0.195801	0.098012	0.005560	-0.002595	0.328022	-0.611682	-0.373707	-0.615297	115.242426	-86.285994	124.289418
12101		9.760061	0.620024	-0.216071	0.064146	0.020909	-0.030799	0.010379	0.073556	-0.046732	-0.911621	0.278564	0.196045	0.097601	0.006178	-0.002196	0.328025	-0.611344	-0.373796	-0.615577	114.486271	-86.274758	125.054390
12102		9.726767	0.716231	-0.154674	0.171696	0.020284	-0.059893	0.004283	0.069560	-0.041256	-0.912109	0.278809	0.191895	0.097269	0.007142	-0.001580	0.328015	-0.611040	-0.373855	-0.615849	113.783506	-86.264635	125.761898
12103		9.695341	0.689438	-0.115326	0.162610	0.062900	-0.093744	-0.014205	0.067619	-0.037606	-0.914551	0.283936	0.200195	0.096954	0.006876	-0.001187	0.327956	-0.610778	-0.373848	-0.616144	113.101134	-86.255477	126.438321
12104		9.739074	0.691381	-0.068521	0.179615	0.101630	-0.051044	-0.020522	0.058721	-0.035492	-0.904297	0.282715	0.197266	0.097392	0.006896	-0.000715	0.327868	-0.610558	-0.373830	-0.616419	112.498507	-86.244922	127.031248
12105		9.671666	0.680000	-0.122753	0.138653	0.054533	-0.117514	-0.037757	0.057274	-0.033614	-0.908203	0.287109	0.200684	0.096717	0.006784	-0.001257	0.327728	-0.610379	-0.373752	-0.616719	111.910884	-86.234840	127.598651
12106		9.741444	0.602325	-0.254565	-0.004369	-0.018473	-0.049339	-0.039180	0.055233	-0.038419	-0.900879	0.285889	0.193115	0.097415	0.006004	-0.002574	0.327567	-0.610195	-0.373691	-0.617023	111.323294	-86.221192	128.165810
12107		9.790490	0.584377	-0.258686	-0.030422	-0.012803	-0.001418	-0.030285	0.058428	-0.036070	-0.908936	0.290283	0.200684	0.097905	0.005826	-0.002616	0.327448	-0.609993	-0.373643	-0.617315	110.731076	-86.209470	128.742614
12108		9.638747	0.281417	-0.762584	-0.546039	-0.302678	-0.159895	-0.046824	0.029024	-0.016994	-0.906006	0.284180	0.200928	0.096387	0.002804	-0.007640	0.327281	-0.609943	-0.373536	-0.617518	110.423334	-86.201362	129.024936
12109		9.326908	-0.108717	-0.733698	-0.855013	-0.096718	-0.495985	0.023164	-0.000106	0.017051	-0.902588	0.292480	0.202148	0.093269	-0.001078	-0.007337	0.327375	-0.609936	-0.373583	-0.617445	110.501377	-86.206033	128.960098
12110		9.777046	0.219501	-1.089837	-0.771000	-0.545442	-0.018066	0.025408	-0.025329	0.012914	-0.906250	0.289795	0.205322	0.097772	0.002203	-0.010886	0.327419	-0.609991	-0.373697	-0.617298	110.765313	-86.203006	128.710962
12111		9.874857	0.084378	-1.160044	-0.923166	-0.530540	0.073258	0.021599	-0.037253	0.042452	-0.906494	0.292969	0.202148	0.098751	0.000866	-0.011582	0.327518	-0.610151	-0.373722	-0.617073	111.223756	-86.213694	128.263882
12112		9.786488	0.124762	-1.095790	-0.847263	-0.498987	-0.013462	0.048517	-0.027299	0.038073	-0.897217	0.298096	0.195801	0.097866	0.001269	-0.010944	0.327707	-0.610221	-0.373834	-0.616836	111.596734	-86.223452	127.918740
12113		9.975969	0.464784	-0.848466	-0.433513	-0.447408	0.190701	0.015259	-0.009556	0.017681	-0.896240	0.298584	0.206055	0.099760	0.004657	-0.008480	0.327768	-0.610254	-0.373875	-0.616746	111.748594	-86.226489	127.776413
12114		10.060889	0.446696	-0.690859	-0.372115	-0.298425	0.270506	-0.012430	0.018167	0.006721	-0.895508	0.294434	0.212891	0.100608	0.004470	-0.006918	0.327759	-0.610225	-0.373820	-0.616813	111.620386	-86.229072	127.898553
12115		9.832233	0.408271	-0.413084	-0.256808	-0.053552	0.033191	-0.008938	0.040956	-0.004552	-0.899414	0.301025	0.213867	0.098322	0.004080	-0.004151	0.327767	-0.610102	-0.373770	-0.616961	111.276122	-86.230548	128.238800
12116		9.669188	0.534375	-0.228181	-0.050826	0.031170	-0.126240	-0.008415	0.038001	-0.009586	-0.900391	0.300781	0.205566	0.096692	0.005339	-0.002300	0.327756	-0.609974	-0.373744	-0.617108	110.937858	-86.228426	128.573756
12117		9.611858	0.563025	-0.088445	0.044511	0.131969	-0.184954	-0.023251	0.032342	0.000082	-0.906738	0.304932	0.204102	0.096118	0.005630	-0.000901	0.327720	-0.609907	-0.373651	-0.617250	110.667479	-86.230319	128.832021
12118		9.580971	0.600288	-0.080842	0.080286	0.116873	-0.213636	-0.009672	0.009463	0.002930	-0.898438	0.300781	0.209961	0.095810	0.006004	-0.000813	0.327691	-0.609894	-0.373630	-0.617291	110.599301	-86.228964	128.895585
12119		9.593302	0.587183	0.066427	0.144320	0.251059	-0.205566	0.003948	-0.015589	0.028592	-0.895996	0.308594	0.213623	0.095932	0.005886	0.000672	0.327737	-0.609983	-0.373614	-0.617189	110.821930	-86.236398	128.675520
12120		9.661513	0.734885	0.070348	0.274015	0.184227	-0.128638	0.012080	-0.030797	0.037125	-0.895752	0.305908	0.215576	0.096614	0.007367	0.000719	0.327804	-0.610122	-0.373622	-0.617011	111.200531	-86.245089	128.303829
12121		9.666657	0.642437	0.043141	0.185591	0.209516	-0.128654	0.021799	-0.043949	0.052060	-0.898438	0.306885	0.211426	0.096665	0.006449	0.000453	0.327923	-0.610314	-0.373634	-0.616751	111.741947	-86.258891	127.774344
12122		9.625004	0.536851	0.049887	0.106688	0.268832	-0.176934	0.042709	-0.057811	0.062463	-0.892578	0.310791	0.221680	0.096248	0.005398	0.000528	0.328112	-0.610532	-0.373703	-0.616392	112.446636	-86.274750	127.093469
12123		9.623613	0.632164	-0.009362	0.167236	0.172743	-0.171327	0.061625	-0.075638	0.071342	-0.896729	0.304688	0.209717	0.096234	0.006356	-0.000055	0.328351	-0.610793	-0.373831	-0.615929	113.343905	-86.290803	126.230229
12124		9.654875	0.587243	-0.023353	0.130519	0.189191	-0.142673	0.072030	-0.091734	0.082827	-0.901611	0.303223	0.218018	0.096546	0.005912	-0.000187	0.328629	-0.611106	-0.373984	-0.615377	114.426563	-86.308068	125.187456
12125		9.767023	0.617882	-0.108331	0.121527	0.111125	-0.026926	0.085222	-0.098576	0.090941	-0.898438	0.317871	0.223389	0.097668	0.006224	-0.001033	0.328958	-0.611434	-0.374162	-0.614767	115.612862	-86.326655	124.048197
12126		9.759599	0.594528	-0.066539	0.135514	0.163460	-0.037077	0.093673	-0.102184	0.096385	-0.892578	0.316650	0.212646	0.097593	0.005993	-0.000613	0.329323	-0.611768	-0.374356	-0.614120	116.866046	-86.345461	122.847018
12127		9.798586	0.561793	-0.135114	0.084335	0.128252	0.001719	0.100508	-0.109381	0.090490	-0.889160	0.313721	0.211426	0.097984	0.005663	-0.001295	0.329678	-0.612102	-0.374600	-0.613448	118.167554	-86.357758	121.601236
12128		9.737379	0.394830	-0.278067	-0.116373	0.091204	-0.064463	0.113014	-0.114821	0.097039	-0.894043	0.312500	0.216064	0.097373	0.003997	-0.002723	0.330080	-0.612443	-0.374873	-0.612724	119.555904	-86.369866	120.275759
12129		9.771002	0.381689	-0.297374	-0.124423	0.089047	-0.030910	0.135091	-0.121569	0.097543	-0.892090	0.318604	0.212158	0.097710	0.003867	-0.002912	0.330539	-0.612769	-0.375221	-0.611937	121.020161	-86.378287	118.886872
12130		9.827525	0.363474	-0.372365	-0.165078	0.043150	0.027124	0.138380	-0.126886	0.095332	-0.887695	0.316650	0.219727	0.098276	0.003684	-0.003659	0.330991	-0.613101	-0.375595	-0.611130	122.521728	-86.381641	117.462538
12131		9.729789	0.253794	-0.460049	-0.286375	0.023328	-0.072960	0.142095	-0.127268	0.098073	-0.890381	0.317627	0.218018	0.097300	0.002589	-0.004537	0.331462	-0.613433	-0.375972	-0.610310	124.044248	-86.383927	116.019319
12132		9.651844	0.439178	-0.512754	-0.135181	-0.112211	-0.138857	0.142778	-0.128712	0.099510	-0.890869	0.322754	0.213623	0.096520	0.004443	-0.005062	0.331935	-0.613769	-0.376349	-0.609481	125.585915	-86.383868	114.557335
12133		9.668124	0.354579	-0.576753	-0.225572	-0.118127	-0.124234	0.125573	-0.128532	0.106361	-0.886963	0.318848	0.216797	0.096683	0.003601	-0.005703	0.332378	-0.614146	-0.376652	-0.608673	127.153256	-86.384644	113.059792
12134		9.820224	0.268346	-0.746573	-0.373314	-0.207369	0.030269	0.118859	-0.125912	0.098985	-0.881592	0.319336	0.218506	0.098206	0.002736	-0.007402	0.332781	-0.614512	-0.376952	-0.607898	128.655539	-86.380364	111.623537
12135		9.818117	0.281966	-0.934445	-0.440191	-0.371439	0.037001	0.110294	-0.107719	0.095430	-0.893555	0.330078	0.225586	0.098185	0.002872	-0.009290	0.333181	-0.614829	-0.377206	-0.607199	130.002452	-86.378973	110.337999
12136		9.666715	0.329028	-1.087469	-0.458549	-0.532194	-0.104818	0.102660	-0.087556	0.091816	-0.890869	0.322021	0.230469	0.096670	0.003340	-0.010831	0.333585	-0.615091	-0.377415	-0.606583	131.183756	-86.381628	109.214062
12137		9.731368	0.335467	-1.286733	-0.540613	-0.701866	-0.030926	0.082040	-0.070480	0.092985	-0.884033	0.327148	0.219727	0.097317	0.003405	-0.012832	0.333960	-0.615338	-0.377527	-0.606056	132.247945	-86.389996	108.195380
12138		9.790963	0.295256	-1.405327	-0.624407	-0.780805	0.032389	0.065917	-0.040277	0.088994	-0.886230	0.326904	0.217041	0.097911	0.003001	-0.014033	0.334330	-0.615511	-0.377554	-0.605659	133.080801	-86.407254	107.399509
12139		9.806382	0.257160	-1.560350	-0.725575	-0.897913	0.053074	0.049458	-0.000379	0.083613	-0.885498	0.324219	0.220215	0.098063	0.002616	-0.015603	0.334711	-0.615581	-0.377480	-0.605423	133.614176	-86.437456	106.894378
12140		9.669938	0.051234	-1.593606	-0.912741	-0.838771	-0.090894	0.041118	0.037626	0.072313	-0.884277	0.325439	0.229248	0.096696	0.000551	-0.015954	0.335101	-0.615528	-0.377353	-0.605340	133.823254	-86.477732	106.709294
12141		9.798046	-0.038976	-1.613978	-1.000956	-0.812099	0.033465	0.022111	0.075270	0.052521	-0.883301	0.338135	0.222656	0.097974	-0.000362	-0.016177	0.335444	-0.615357	-0.377164	-0.605442	133.642421	-86.524789	106.903750
12142		9.928573	0.017721	-1.537205	-0.916934	-0.775060	0.162200	0.010973	0.105844	0.036512	-0.881836	0.327637	0.218506	0.099278	0.000196	-0.015425	0.335762	-0.615081	-0.376941	-0.605685	133.130279	-86.577072	107.423910
12143		10.009314	0.209414	-1.351759	-0.663557	-0.714184	0.242515	-0.015998	0.124140	0.028688	-0.884033	0.336426	0.223633	0.100084	0.002107	-0.013580	0.336009	-0.614780	-0.376629	-0.606048	132.405876	-86.632909	108.141236
12144		9.929186	0.220241	-0.994767	-0.481716	-0.425451	0.147921	-0.047878	0.135681	0.027819	-0.873291	0.334229	0.224854	0.099285	0.002214	-0.010016	0.336176	-0.614495	-0.376205	-0.606508	131.545643	-86.692138	108.976242
12145		9.860403	0.300939	-0.617799	-0.230016	-0.153417	0.067764	-0.074246	0.139472	0.022857	-0.879395	0.332764	0.224854	0.098599	0.003018	-0.006248	0.336253	-0.614235	-0.375707	-0.607037	130.580171	-86.749925	109.901344
12146		9.789715	0.436824	-0.193039	0.093457	0.133087	-0.012680	-0.087725	0.131442	0.022633	-0.884521	0.341309	0.215332	0.097895	0.004378	-0.001997	0.336274	-0.614019	-0.375184	-0.607567	129.632625	-86.803700	110.800838
12147		9.643197	0.488294	0.175322	0.319226	0.408768	-0.169482	-0.082855	0.109997	0.041152	-0.888916	0.334961	0.218018	0.096432	0.004903	0.001698	0.336325	-0.613896	-0.374654	-0.607990	128.954385	-86.857246	111.433355
12148		9.600202	0.483310	0.394268	0.423382	0.589516	-0.219663	-0.057425	0.071410	0.058569	-0.889893	0.337646	0.223877	0.096002	0.004862	0.003907	0.336435	-0.613879	-0.374213	-0.608217	128.701026	-86.904352	111.654928
12149		9.681995	0.705325	0.573100	0.705402	0.631861	-0.134356	-0.023100	0.042583	0.070267	-0.888428	0.339355	0.211914	0.096819	0.007088	0.005710	0.336632	-0.613915	-0.373888	-0.608273	128.782974	-86.946400	111.560297
12150		9.638158	0.877364	0.604040	0.876002	0.565644	-0.172076	-0.008405	0.017989	0.094107	-0.885254	0.337402	0.216309	0.096378	0.008819	0.006031	0.336900	-0.614044	-0.373577	-0.608185	129.245243	-86.990098	111.093348
12151		9.557941	0.862841	0.397428	0.770754	0.384728	-0.246362	-0.002487	-0.009684	0.117269	-0.874023	0.334473	0.212402	0.095574	0.008684	0.003979	0.337207	-0.614290	-0.373260	-0.607961	130.125486	-87.033674	110.211413
12152		9.545019	0.838256	0.173180	0.650254	0.198273	-0.253509	0.012664	-0.043955	0.144091	-0.876465	0.342041	0.216797	0.095444	0.008451	0.001753	0.337576	-0.614665	-0.372963	-0.607559	131.525907	-87.075040	108.817194
12153		9.603827	0.626068	-0.112753	0.338569	0.055451	-0.193933	0.023893	-0.063293	0.168381	-0.884277	0.345703	0.218994	0.096033	0.006342	-0.001096	0.338018	-0.615125	-0.372659	-0.607035	133.323107	-87.117267	107.032249
12154		9.644181	0.418716	-0.321725	0.071956	-0.023151	-0.154359	0.024689	-0.081110	0.177630	-0.880615	0.343262	0.229492	0.096439	0.004273	-0.003178	0.338456	-0.615654	-0.372358	-0.606438	135.390637	-87.153002	104.977085
12155		9.768276	0.327580	-0.454868	-0.055785	-0.088981	-0.028906	0.027501	-0.081933	0.185344	-0.886475	0.343018	0.221924	0.097682	0.003367	-0.004508	0.338924	-0.616195	-0.372042	-0.605821	137.584031	-87.187655	102.797403
12156		9.872397	0.354642	-0.663338	-0.116852	-0.279894	0.083674	0.017774	-0.080547	0.189693	-0.873047	0.352295	0.224609	0.098723	0.003641	-0.006593	0.339378	-0.616756	-0.371681	-0.605218	139.849771	-87.220280	100.539949
12157		9.680516	0.184872	-0.646586	-0.235001	-0.193057	-0.113609	0.002004	-0.066607	0.193388	-0.879395	0.347900	0.219482	0.096805	0.001942	-0.006434	0.339820	-0.617307	-0.371236	-0.604680	142.091089	-87.256141	98.297874
12158		9.745411	0.270809	-0.821307	-0.229125	-0.387216	-0.039333	-0.020388	-0.054523	0.176722	-0.875732	0.355713	0.222900	0.097454	0.002793	-0.008187	0.340164	-0.617828	-0.370756	-0.604249	144.124215	-87.287703	96.251536
12159		9.755709	0.224439	-1.002249	-0.342766	-0.524808	-0.023111	-0.045397	-0.035441	0.171902	-0.873779	0.354248	0.220947	0.097557	0.002326	-0.010006	0.340453	-0.618325	-0.370181	-0.603930	146.011287	-87.323342	94.337182
12160		9.682402	0.304888	-0.991556	-0.252471	-0.563712	-0.094482	-0.056875	-0.021505	0.170253	-0.873779	0.355225	0.222656	0.096822	0.003128	-0.009906	0.340726	-0.618796	-0.369554	-0.603679	147.829213	-87.362186	92.485467
12161		9.786211	0.064855	-1.034274	-0.467983	-0.483082	0.005228	-0.060082	-0.016174	0.172314	-0.876953	0.363770	0.226807	0.097862	0.000730	-0.010335	0.341005	-0.619259	-0.368900	-0.603445	149.689124	-87.401507	90.590019
12162		9.711860	-0.099464	-1.038487	-0.598504	-0.415214	-0.072156	-0.034373	-0.005801	0.172688	-0.876953	0.357178	0.224854	0.097120	-0.000913	-0.010382	0.341384	-0.619648	-0.368306	-0.603196	151.557867	-87.443252	88.700459
12163		9.795819	-0.012501	-0.885947	-0.433199	-0.329590	0.008047	0.000284	0.001168	0.170314	-0.875732	0.365967	0.219727	0.097958	-0.000042	-0.008860	0.341875	-0.619951	-0.367810	-0.602907	153.441354	-87.485114	86.816104
12164		9.898487	0.177397	-0.715131	-0.169429	-0.279171	0.107810	0.009064	0.008982	0.171022	-0.875488	0.368652	0.218994	0.098983	0.001859	-0.007156	0.342410	-0.620217	-0.367326	-0.602626	155.353993	-87.528402	84.907640
12165		9.700715	-0.046544	-0.512293	-0.249834	-0.009143	-0.101562	0.018303	0.003796	0.179491	-0.875000	0.358643	0.224854	0.097007	-0.000378	-0.005125	0.342991	-0.620497	-0.366854	-0.602294	157.473184	-87.567963	82.798154
12166		9.739311	0.085213	-0.275075	-0.003165	0.124885	-0.069922	0.013927	0.000779	0.175024	-0.869629	0.364502	0.229004	0.097392	0.000938	-0.002751	0.343538	-0.620786	-0.366385	-0.601971	159.610678	-87.601602	80.667536
12167		9.859596	0.099592	-0.078488	0.122082	0.285942	0.042820	-0.008840	-0.010052	0.170938	-0.871582	0.369873	0.223145	0.098595	0.001080	-0.000780	0.343981	-0.621139	-0.365878	-0.601662	161.788836	-87.625184	78.483096
12168		9.723635	0.000931	0.003609	0.091133	0.394226	-0.097476	-0.027478	-0.024576	0.177619	-0.869873	0.366943	0.224121	0.097236	0.000096	0.000048	0.344359	-0.621579	-0.365320	-0.601330	164.138454	-87.638343	76.116502
12169		9.671589	0.062619	0.034657	0.175795	0.383702	-0.150048	-0.037281	-0.048906	0.176545	-0.875977	0.370361	0.220459	0.096715	0.000712	0.000370	0.344661	-0.622107	-0.364777	-0.600941	166.572043	-87.633747	73.660348
12170		9.714712	-0.013684	0.020413	0.120828	0.408125	-0.107274	-0.047763	-0.076951	0.186783	-0.874756	0.376221	0.224365	0.097147	-0.000046	0.000242	0.344907	-0.622755	-0.364219	-0.600466	169.194179	-87.610225	71.009353
12171		9.757425	0.031239	0.000341	0.170054	0.368931	-0.063674	-0.050820	-0.095873	0.189860	-0.862061	0.376221	0.229248	0.097574	0.000405	0.000050	0.345121	-0.623469	-0.363676	-0.599931	171.838522	-87.571252	68.334553
12172		9.669448	-0.135630	-0.060870	0.014594	0.395739	-0.150210	-0.056537	-0.119074	0.199601	-0.866943	0.379395	0.235107	0.096696	-0.001260	-0.000551	0.345302	-0.624281	-0.363123	-0.599318	174.545221	-87.514552	65.593730
12173		9.720364	-0.234175	-0.108540	-0.071001	0.407588	-0.097706	-0.042400	-0.141960	0.200485	-0.870117	0.377930	0.224121	0.097207	-0.002245	-0.001016	0.345487	-0.625137	-0.362648	-0.598605	177.161503	-87.439383	62.951336
12174		9.748618	-0.170638	-0.131535	-0.003632	0.360483	-0.068357	-0.030528	-0.146007	0.194006	-0.866211	0.380371	0.237061	0.097489	-0.001612	-0.001244	0.345682	-0.625973	-0.362237	-0.597868	179.546973	-87.356822	60.546684
12175		9.678877	-0.002214	-0.109167	0.174722	0.296971	-0.139331	-0.042805	-0.149943	0.188817	-0.875488	0.376953	0.223877	0.096790	0.000069	-0.001019	0.345817	-0.626831	-0.361811	-0.597149	-178.284312	-87.267741	58.351909
12176		9.549782	-0.361220	-0.286545	-0.204625	0.321988	-0.259398	-0.051526	-0.167744	0.202229	-0.865234	0.375488	0.227051	0.095504	-0.003516	-0.002784	0.345931	-0.627780	-0.361347	-0.596366	-176.122184	-87.164303	56.158460
12177		9.636128	-0.629019	-0.444513	-0.488309	0.328584	-0.163763	-0.039719	-0.184893	0.200207	-0.862305	0.383301	0.237549	0.096372	-0.006195	-0.004355	0.346046	-0.628755	-0.360955	-0.595509	-174.148784	-87.047371	54.160827
12178		9.939128	-0.540343	-0.538984	-0.424906	0.222692	0.144147	-0.024014	-0.187267	0.177090	-0.860596	0.381836	0.239258	0.099401	-0.005316	-0.005296	0.346134	-0.629667	-0.360685	-0.594657	-172.570169	-86.927586	52.567041
12179		9.746405	-0.435709	-0.463718	-0.278914	0.235546	-0.052362	-0.021792	-0.193127	0.179771	-0.860107	0.388184	0.240723	0.097472	-0.004270	-0.004543	0.346227	-0.630597	-0.360422	-0.593776	-171.090097	-86.802025	51.073014
12180		9.795055	-0.313300	-0.372339	-0.102336	0.264467	-0.009656	-0.041480	-0.195675	0.157805	-0.859863	0.395752	0.241211	0.097957	-0.003056	-0.003627	0.346187	-0.631528	-0.360174	-0.592960	-169.954215	-86.675313	49.912275
12181		9.854660	-0.516460	-0.453331	-0.294114	0.308801	0.056692	-0.066858	-0.194067	0.152848	-0.854492	0.398926	0.239502	0.098555	-0.005091	-0.004436	0.346056	-0.632488	-0.359863	-0.592202	-168.958221	-86.548780	48.877102
12182		9.632583	-0.599272	-0.441756	-0.347068	0.360836	-0.164360	-0.052440	-0.202129	0.144223	-0.857910	0.387207	0.236816	0.096335	-0.005924	-0.004319	0.345929	-0.633430	-0.359636	-0.591407	-168.120994	-86.417785	48.008983
12183		9.750976	-0.459716	-0.520294	-0.239642	0.240102	-0.042915	-0.036727	-0.211238	0.130541	-0.861328	0.393555	0.245850	0.097518	-0.004534	-0.005099	0.345796	-0.634346	-0.359514	-0.590576	-167.468226	-86.282626	47.334967
12184		9.731089	-0.473667	-0.612471	-0.277533	0.179260	-0.056440	-0.026718	-0.221090	0.133692	-0.848389	0.396240	0.243164	0.097321	-0.004672	-0.006017	0.345684	-0.635279	-0.359428	-0.589691	-166.851689	-86.141137	46.702530
12185		9.591950	-0.450845	-0.701004	-0.286666	0.098050	-0.189365	-0.021323	-0.237234	0.135596	-0.857178	0.393311	0.247314	0.095931	-0.004444	-0.006896	0.345567	-0.636252	-0.359379	-0.588739	-166.290304	-85.989930	46.128643
12186		9.733980	-0.276049	-0.714505	-0.113182	0.020314	-0.049296	-0.025650	-0.246532	0.129276	-0.856934	0.398193	0.250244	0.097350	-0.002698	-0.007025	0.345398	-0.637247	-0.359353	-0.587777	-165.840974	-85.834131	45.664225
12187		9.975276	-0.165412	-0.652639	0.047986	0.045705	0.185061	-0.043343	-0.237605	0.126929	-0.843750	0.398682	0.256348	0.099761	-0.001592	-0.006408	0.345184	-0.638242	-0.359266	-0.586876	-165.432634	-85.683326	45.230919
12188		9.661921	-0.293410	-0.541421	-0.001816	0.204330	-0.133321	-0.045625	-0.238166	0.120636	-0.854736	0.395264	0.255371	0.096627	-0.002877	-0.005298	0.344939	-0.639229	-0.359193	-0.585989	-165.101690	-85.532976	44.873573
12189		9.642544	-0.373814	-0.585116	-0.072078	0.221569	-0.147989	-0.045578	-0.258051	0.134348	-0.852295	0.403564	0.263916	0.096435	-0.003675	-0.005726	0.344701	-0.640299	-0.359109	-0.585013	-164.734525	-85.369363	44.479983
12190		9.634757	-0.420479	-0.608908	-0.101223	0.240772	-0.153090	-0.029434	-0.273948	0.133087	-0.855713	0.399658	0.264648	0.096359	-0.004142	-0.005956	0.344479	-0.641383	-0.359103	-0.583958	-164.423582	-85.197034	44.151854
12191		9.712528	-0.234788	-0.609768	0.087628	0.168457	-0.080062	-0.035450	-0.284111	0.136616	-0.844971	0.406738	0.257568	0.097135	-0.002283	-0.005959	0.344230	-0.642512	-0.359085	-0.582874	-164.132295	-85.018358	43.839979
12192		9.551850	-0.163290	-0.544666	0.197371	0.197045	-0.247997	-0.038163	-0.301580	0.147481	-0.848389	0.402344	0.272949	0.095528	-0.001563	-0.005302	0.343971	-0.643715	-0.359053	-0.581718	-163.829859	-84.828264	43.515192
12193		9.622959	-0.215732	-0.417051	0.247823	0.357095	-0.188095	-0.042527	-0.321022	0.153626	-0.848877	0.410400	0.264404	0.096238	-0.002084	-0.004016	0.343682	-0.644990	-0.359022	-0.580495	-163.548040	-84.626299	43.208736
12194		9.921292	-0.583739	-0.505050	-0.064654	0.507797	0.125407	-0.025003	-0.336548	0.151984	-0.841797	0.408447	0.271484	0.099226	-0.005763	-0.004883	0.343414	-0.646275	-0.359071	-0.579192	-163.314750	-84.415999	42.960777
12195		9.677966	-0.664248	-0.570715	-0.154858	0.498089	-0.109194	0.032382	-0.349419	0.152810	-0.839111	0.414063	0.269775	0.096794	-0.006568	-0.005539	0.343312	-0.647498	-0.359307	-0.577739	-163.081626	-84.198371	42.746345
12196		9.690193	-0.380715	-0.561655	0.124874	0.386156	-0.107256	0.072966	-0.367414	0.149262	-0.846436	0.406006	0.285156	0.096915	-0.003733	-0.005440	0.343295	-0.648695	-0.359699	-0.576160	-162.890639	-83.971440	42.597160
12197		9.575264	-0.398536	-0.666693	0.079471	0.320706	-0.211662	0.093920	-0.390752	0.166000	-0.837891	0.415527	0.283936	0.095769	-0.003903	-0.006482	0.343352	-0.649950	-0.360136	-0.574436	-162.651402	-83.728803	42.411678
12198		9.610563	-0.442281	-0.741241	0.040664	0.306115	-0.168391	0.109192	-0.405800	0.172525	-0.836670	0.415771	0.287598	0.096124	-0.004336	-0.007220	0.343447	-0.651230	-0.360620	-0.572623	-162.412464	-83.476776	42.234991
12199		9.768908	-0.546480	-0.854369	-0.057585	0.299389	0.003984	0.122854	-0.419447	0.171215	-0.829834	0.419434	0.294678	0.097711	-0.005376	-0.008342	0.343558	-0.652521	-0.361169	-0.570738	-162.205897	-83.217420	42.098855
12200		9.703426	-0.450194	-0.928661	0.018444	0.208738	-0.056792	0.146214	-0.426985	0.171855	-0.823486	0.415771	0.295898	0.097058	-0.004412	-0.009083	0.343729	-0.653790	-0.361793	-0.568784	-162.008172	-82.953821	41.984865
12201		9.685170	-0.305618	-0.942420	0.171050	0.150459	-0.079650	0.156757	-0.440110	0.172558	-0.835938	0.416748	0.298584	0.096875	-0.002965	-0.009213	0.343912	-0.655077	-0.362463	-0.566762	-161.829627	-82.682870	41.896202
12202		9.604403	-0.412250	-0.934299	0.112409	0.232551	-0.157610	0.165711	-0.458985	0.182911	-0.815918	0.423096	0.293945	0.096069	-0.004027	-0.009126	0.344117	-0.656415	-0.363157	-0.564641	-161.640101	-82.399792	41.801610
12203		9.584822	-0.608827	-1.022530	-0.064040	0.282171	-0.158614	0.181797	-0.479033	0.195249	-0.824707	0.420898	0.298584	0.095878	-0.005986	-0.010001	0.344372	-0.657800	-0.363887	-0.562400	-161.428330	-82.103511	41.693961
12204		9.525807	-0.602937	-1.076524	-0.051072	0.257014	-0.210888	0.222878	-0.491131	0.197320	-0.827393	0.421143	0.304199	0.095290	-0.005924	-0.010538	0.344741	-0.659147	-0.364744	-0.560036	-161.213866	-81.800259	41.607130
12205		9.456118	-0.468128	-1.078904	0.098766	0.211969	-0.286595	0.246531	-0.512032	0.204978	-0.826660	0.428955	0.300781	0.094593	-0.004571	-0.010553	0.345171	-0.660520	-0.365675	-0.557542	-160.993789	-81.484188	41.528414
12206		9.305274	-0.551873	-1.128518	0.028670	0.227180	-0.425805	0.262208	-0.538992	0.221687	-0.812988	0.432617	0.309326	0.093089	-0.005401	-0.011041	0.345644	-0.661965	-0.366638	-0.554896	-160.751173	-81.150367	41.435760
12207		9.299429	-0.521502	-1.154413	0.087559	0.221821	-0.430424	0.267856	-0.565721	0.236789	-0.809814	0.431396	0.315918	0.093033	-0.005090	-0.011288	0.346128	-0.663494	-0.367609	-0.552118	-160.497350	-80.799154	41.335305
12208		9.272083	-0.560664	-1.199481	0.076617	0.233026	-0.449773	0.270805	-0.588477	0.252455	-0.814209	0.437256	0.322510	0.092763	-0.005474	-0.011729	0.346617	-0.665103	-0.368570	-0.549227	-160.231857	-80.432595	41.224276
12209		9.407500	-0.484934	-1.178185	0.219543	0.264737	-0.325553	0.266616	-0.604857	0.256671	-0.807617	0.440918	0.314209	0.094116	-0.004713	-0.011504	0.347069	-0.666764	-0.369529	-0.546275	-159.986787	-80.056291	41.131442
12210		9.477325	-0.493703	-1.237967	0.244783	0.262063	-0.248846	0.258442	-0.621350	0.274517	-0.800781	0.444092	0.332275	0.094818	-0.004791	-0.012091	0.347508	-0.668509	-0.370431	-0.543245	-159.724793	-79.667549	41.016520
12211		9.430823	-0.341231	-1.157024	0.462647	0.291131	-0.320774	0.254193	-0.632574	0.269236	-0.800537	0.441162	0.328369	0.094349	-0.003271	-0.011276	0.347894	-0.670272	-0.371354	-0.540187	-159.504613	-79.273742	40.941711
12212		9.840421	-0.425271	-1.427328	0.376134	0.187304	0.130905	0.218358	-0.649013	0.285836	-0.795166	0.452881	0.327881	0.098456	-0.004097	-0.013958	0.348168	-0.672164	-0.372148	-0.537105	-159.287556	-78.867733	40.848870
12213		9.715402	-0.752828	-1.645972	0.028429	0.179911	0.068174	0.233180	-0.652264	0.299846	-0.798096	0.446533	0.334961	0.097218	-0.007364	-0.016151	0.348520	-0.674054	-0.372935	-0.533951	-159.038542	-78.457061	40.732264
12214		9.827073	-0.575010	-1.817193	0.180653	0.001943	0.195865	0.211611	-0.658262	0.280369	-0.791748	0.458008	0.342773	0.098338	-0.005593	-0.017854	0.348730	-0.675953	-0.373736	-0.530845	-158.870130	-78.047107	40.684893
12215		10.118621	-0.655737	-1.897771	0.178698	0.052993	0.501516	0.171123	-0.661479	0.300403	-0.781006	0.458496	0.343506	0.101258	-0.006389	-0.018648	0.348846	-0.677959	-0.374361	-0.527760	-158.684968	-77.631254	40.596802
12216		10.134484	-0.708444	-1.922633	0.184888	0.102637	0.524671	0.136627	-0.658964	0.301825	-0.774658	0.463623	0.346436	0.101418	-0.006918	-0.018897	0.348848	-0.680013	-0.374881	-0.524740	-158.523246	-77.216389	40.512120
12217		10.040927	-0.638557	-2.012560	0.250524	0.022506	0.444731	0.124893	-0.670848	0.299745	-0.776367	0.465576	0.352539	0.100485	-0.006223	-0.019793	0.348780	-0.682103	-0.375394	-0.521696	-158.390427	-76.795591	40.450382
12218		9.938617	-0.349295	-2.079969	0.516139	-0.142932	0.333104	0.139231	-0.678299	0.289193	-0.769043	0.460205	0.362549	0.099461	-0.003335	-0.020465	0.348711	-0.684160	-0.375987	-0.518613	-158.285978	-76.373020	40.425826
12219		10.426295	0.185361	-1.880375	1.222039	-0.101416	0.712217	0.100193	-0.678443	0.288602	-0.767822	0.470947	0.364258	0.104323	0.002013	-0.018449	0.348505	-0.686274	-0.376475	-0.515595	-158.208053	-75.950500	40.405644
12220		10.406420	-0.276917	-1.827446	0.901182	0.208868	0.716011	0.079762	-0.701670	0.344642	-0.765869	0.466797	0.379150	0.104132	-0.002583	-0.017910	0.348321	-0.688580	-0.376754	-0.512432	-158.048960	-75.503649	40.289455
12221		10.096180	-0.358430	-1.792646	0.853550	0.276094	0.408347	0.135824	-0.737319	0.349345	-0.763672	0.471191	0.375732	0.101033	-0.003396	-0.017556	0.348272	-0.690877	-0.377215	-0.509024	-157.885203	-75.036798	40.201401
12222		10.026046	0.321408	-1.544185	1.614166	0.208104	0.205292	0.173897	-0.774127	0.373875	-0.753906	0.473145	0.382324	0.100313	0.003415	-0.015051	0.348339	-0.693234	-0.377747	-0.505365	-157.689884	-74.545019	40.103064
12223		10.017896	0.674223	-1.234155	2.130787	0.360429	0.069876	0.167893	-0.820894	0.420656	-0.752686	0.479248	0.385498	0.100214	0.006963	-0.011924	0.348409	-0.695795	-0.378174	-0.501463	-157.455532	-74.018199	39.960398
12224		9.953638	0.667896	-1.131218	2.235874	0.494738	-0.037418	0.162594	-0.873311	0.484692	-0.746094	0.486084	0.395020	0.099568	0.006929	-0.010872	0.348513	-0.698600	-0.378448	-0.497265	-157.161629	-73.449298	39.752109
12225		9.901001	0.941717	-0.910577	2.645367	0.601997	-0.201005	0.177235	-0.933640	0.548311	-0.742188	0.488525	0.393311	0.099025	0.009696	-0.008635	0.348704	-0.701631	-0.378631	-0.492705	-156.810769	-72.834097	39.492504
12226		10.048768	1.317847	-0.743253	3.174009	0.655302	-0.181390	0.166069	-1.009753	0.621915	-0.728760	0.495117	0.408691	0.100482	0.013497	-0.006914	0.348880	-0.704985	-0.378648	-0.487754	-156.421175	-72.161572	39.184602
12227		10.201070	1.587755	-0.416672	3.688466	0.900482	-0.203356	0.142428	-1.085108	0.704812	-0.722412	0.503418	0.406250	0.101974	0.016240	-0.003602	0.349020	-0.708693	-0.378433	-0.482418	-155.992309	-71.429874	38.819988
12228		10.404736	1.970315	-0.070051	4.332058	1.123323	-0.215022	0.128531	-1.159743	0.781776	-0.709717	0.505859	0.419189	0.103971	0.020110	-0.000085	0.349138	-0.712720	-0.378024	-0.476688	-155.537120	-70.640083	38.417387
12229		10.558438	1.842642	-0.106551	4.372446	1.249951	-0.106797	0.122065	-1.254113	0.918690	-0.704590	0.513916	0.427979	0.105502	0.018912	-0.000392	0.349363	-0.717200	-0.377256	-0.470370	-154.986855	-69.767455	37.907931
12230		10.624292	1.629849	-0.160662	4.327869	1.385717	-0.070805	0.137431	-1.353130	1.071658	-0.695313	0.516113	0.434570	0.106161	0.016868	-0.000877	0.349791	-0.722128	-0.376123	-0.463367	-154.330147	-68.804048	37.290890
12231		11.030540	1.229824	-0.141248	4.270017	1.750857	0.282018	0.185199	-1.439011	1.192988	-0.679688	0.527588	0.441650	0.110236	0.012957	-0.000607	0.350483	-0.727339	-0.374782	-0.455717	-153.601781	-67.763648	36.622030
12232		11.608626	1.238970	-0.596049	4.457285	1.566035	0.879655	0.282318	-1.500859	1.271806	-0.671875	0.538330	0.450439	0.116045	0.013135	-0.005071	0.351559	-0.732603	-0.373449	-0.447477	-152.824717	-66.667798	35.955538
12233		12.228197	0.778250	-0.728853	4.414868	1.896579	1.482099	0.353745	-1.536985	1.366518	-0.656006	0.544922	0.465332	0.122276	0.008630	-0.006334	0.353006	-0.737920	-0.371955	-0.438761	-151.986799	-65.525335	35.261775
12234		12.479211	0.016057	-0.969761	3.979808	2.196694	1.849264	0.433795	-1.563823	1.424304	-0.639160	0.556152	0.471436	0.124857	0.001069	-0.008720	0.354784	-0.743182	-0.370427	-0.429643	-151.125932	-64.349142	34.586726
12235		12.456734	-0.161964	-1.310210	3.930150	2.071080	1.899332	0.497730	-1.589575	1.466718	-0.622559	0.571533	0.478027	0.124673	-0.000675	-0.012114	0.356800	-0.748373	-0.368880	-0.420189	-150.267622	-63.144516	33.948418
12236		12.450487	-0.013418	-1.788149	4.125525	1.681078	1.949951	0.446086	-1.628047	1.501159	-0.606934	0.576660	0.476807	0.124641	0.000839	-0.016866	0.358580	-0.753710	-0.367119	-0.410567	-149.490001	-61.906533	33.360961
12237		12.345177	0.064100	-2.449864	4.166767	1.150572	2.007489	0.305441	-1.695139	1.531373	-0.598389	0.585938	0.488037	0.123644	0.001624	-0.023449	0.359723	-0.759390	-0.365029	-0.400848	-148.856447	-60.624010	32.839024
12238		11.949975	-0.366716	-3.290851	3.605423	0.643208	2.034098	0.157932	-1.756239	1.535923	-0.579102	0.597168	0.499268	0.119806	-0.002722	-0.031860	0.360155	-0.765368	-0.362686	-0.391100	-148.380316	-59.307293	32.394514
12239		11.821466	-0.667907	-3.611966	3.441039	0.591498	2.063431	0.041919	-1.775303	1.459032	-0.560791	0.604980	0.512207	0.118574	-0.005807	-0.035069	0.359910	-0.771346	-0.360397	-0.381580	-148.075868	-58.003683	32.067237
12240		11.544586	-1.298531	-3.839468	2.961151	0.743154	2.035442	-0.067201	-1.773621	1.420187	-0.542480	0.610107	0.518799	0.115869	-0.012176	-0.037364	0.359126	-0.777351	-0.357999	-0.372279	-147.885163	-56.711292	31.795987
12241		10.815425	-2.557487	-4.372332	1.648739	0.822059	1.986950	-0.119550	-1.732675	1.408358	-0.526855	0.611084	0.534912	0.108704	-0.024836	-0.042768	0.358144	-0.783250	-0.355431	-0.363210	-147.731080	-55.442640	31.528659
12242		10.213076	-3.547070	-5.070151	0.557061	0.675159	2.096286	-0.104350	-1.652451	1.304137	-0.508789	0.615479	0.537109	0.102773	-0.034828	-0.049836	0.357133	-0.788702	-0.353112	-0.354566	-147.619182	-54.243710	31.319639
12243		9.610034	-4.027043	-5.302809	0.004080	0.654550	1.860227	-0.088291	-1.547880	1.149701	-0.502930	0.620605	0.547119	0.096736	-0.039739	-0.052263	0.356058	-0.793585	-0.351208	-0.346553	-147.565669	-53.143394	31.191061
12244		8.888244	-4.285962	-5.548398	-0.464961	0.467654	1.488502	-0.111725	-1.421961	1.026023	-0.486572	0.615479	0.553955	0.089492	-0.042432	-0.054825	0.354868	-0.798009	-0.349500	-0.339265	-147.557715	-52.141158	31.101514
12245		8.196511	-4.321269	-5.528967	-0.696298	0.376561	0.948202	-0.088172	-1.263001	0.855295	-0.466553	0.621826	0.560059	0.082496	-0.042885	-0.054751	0.353735	-0.801766	-0.348208	-0.332858	-147.581369	-51.269252	31.068028
12246		7.351738	-4.156699	-5.662944	-0.933608	-0.009241	0.312632	0.014281	-1.078617	0.640200	-0.463135	0.628662	0.574463	0.073954	-0.041327	-0.056234	0.352960	-0.804624	-0.347606	-0.327367	-147.604794	-50.551604	31.109766
12247		6.881990	-4.737213	-5.489284	-1.501846	0.329763	0.065068	0.082844	-0.913696	0.504601	-0.459229	0.630859	0.568359	0.069189	-0.047175	-0.054597	0.352512	-0.806829	-0.347356	-0.322656	-147.606127	-49.955978	31.173663
12248		6.987982	-5.061081	-5.332472	-1.577545	0.698150	0.182568	0.159880	-0.716758	0.353995	-0.448730	0.627686	0.576904	0.070160	-0.050444	-0.053114	0.352467	-0.808301	-0.347486	-0.318858	-147.577073	-49.501255	31.256677
12249		6.804339	-4.440892	-4.721780	-0.973929	0.830303	-0.502603	0.194150	-0.471826	0.149132	-0.447021	0.634521	0.563965	0.068188	-0.044312	-0.047100	0.352656	-0.808955	-0.348061	-0.316354	-147.555590	-49.228836	31.375689
12250		6.630332	-3.492418	-4.313976	-0.192842	0.624034	-1.190503	0.177313	-0.224040	-0.041314	-0.443359	0.623291	0.567383	0.066344	-0.034900	-0.043096	0.352904	-0.808913	-0.348943	-0.315209	-147.561611	-49.133895	31.518930
12251		6.356391	-2.905376	-4.171723	0.154129	0.347201	-1.682258	0.136767	0.019028	-0.181000	-0.445801	0.630371	0.568604	0.063534	-0.029083	-0.041743	0.353195	-0.808312	-0.349897	-0.315370	-147.582347	-49.200230	31.651081
12252		5.872094	-3.082111	-4.204142	-0.280436	0.236809	-1.969160	0.110205	0.230533	-0.291626	-0.449219	0.624268	0.564209	0.058627	-0.030883	-0.042126	0.353570	-0.807231	-0.350881	-0.316620	-147.605704	-49.401983	31.766215
12253		5.669233	-3.406210	-4.269786	-0.700900	0.259998	-1.975949	0.108524	0.446012	-0.465780	-0.446289	0.631348	0.575439	0.056517	-0.034171	-0.042843	0.354039	-0.805499	-0.352181	-0.319055	-147.652333	-49.762100	31.909985
12254		5.712828	-3.030498	-4.195874	-0.414446	0.117592	-2.115958	0.095038	0.671249	-0.681313	-0.469238	0.621094	0.566650	0.056883	-0.030479	-0.042164	0.354500	-0.803040	-0.353924	-0.322791	-147.751302	-50.296456	32.111203
12255		5.680368	-2.461076	-3.974098	0.006693	-0.033628	-2.456393	0.020365	0.884392	-0.874011	-0.478027	0.615723	0.556152	0.056519	-0.024854	-0.039994	0.354715	-0.800004	-0.355927	-0.327853	-147.932782	-50.993274	32.361362
12256		5.711069	-2.017890	-3.851938	0.319233	-0.181332	-2.644016	-0.114164	1.097823	-1.040494	-0.487793	0.614502	0.559326	0.056792	-0.020497	-0.038820	0.354483	-0.796521	-0.357984	-0.334280	-148.220767	-51.843040	32.647086
12257		5.741512	-1.911787	-3.849632	0.310399	-0.261182	-2.652125	-0.268745	1.297657	-1.176982	-0.501465	0.603271	0.556152	0.057050	-0.019506	-0.038841	0.353741	-0.792678	-0.359945	-0.342006	-148.619993	-52.830947	32.957533
12258		5.849488	-1.820537	-3.969423	0.274437	-0.410850	-2.529745	-0.389060	1.489520	-1.316091	-0.518799	0.598633	0.540771	0.058075	-0.018666	-0.040092	0.352597	-0.788400	-0.361882	-0.350918	-149.123619	-53.951902	33.308184
12259		5.981498	-1.692084	-4.053273	0.269046	-0.547935	-2.417046	-0.498512	1.675142	-1.440238	-0.534912	0.588135	0.532227	0.059349	-0.017451	-0.040988	0.351098	-0.783671	-0.363745	-0.360943	-149.727689	-55.199213	33.699510
12260		6.108552	-1.717751	-4.280861	0.066247	-0.734777	-2.194059	-0.598502	1.855802	-1.565419	-0.560303	0.574219	0.538818	0.060548	-0.017782	-0.043319	0.349261	-0.778454	-0.365551	-0.372020	-150.441758	-56.568640	34.148714
12261		6.331242	-1.750211	-4.336527	-0.070823	-0.756738	-1.978670	-0.660183	2.031831	-1.693862	-0.570557	0.556641	0.532715	0.062716	-0.018179	-0.043945	0.347206	-0.772647	-0.367371	-0.384062	-151.264110	-58.059207	34.676962
12262		6.565025	-1.864913	-4.406042	-0.303685	-0.756947	-1.730564	-0.688696	2.215807	-1.800795	-0.595947	0.535889	0.514648	0.064985	-0.019389	-0.044717	0.345104	-0.766186	-0.369157	-0.396969	-152.174337	-59.666443	35.280214
12263		6.850888	-2.008589	-4.359984	-0.526286	-0.645992	-1.489311	-0.672687	2.393682	-1.897416	-0.611328	0.522705	0.503662	0.067786	-0.020880	-0.044345	0.343118	-0.758990	-0.370949	-0.410610	-153.162423	-61.384891	35.972461
12264		7.133245	-2.115284	-4.307309	-0.742968	-0.563478	-1.266677	-0.650810	2.567052	-1.984945	-0.637939	0.514648	0.500244	0.070557	-0.021998	-0.043911	0.341271	-0.751042	-0.372729	-0.424905	-154.244670	-63.207548	36.774419
12265		7.398475	-2.295302	-4.358456	-1.094717	-0.552061	-1.009798	-0.605531	2.736853	-2.063981	-0.666016	0.494629	0.487305	0.073137	-0.023845	-0.044518	0.339640	-0.742290	-0.374500	-0.439772	-155.435055	-65.130404	37.711431
12266		7.679092	-2.528536	-4.265082	-1.456964	-0.408403	-0.798581	-0.528194	2.903253	-2.143263	-0.682373	0.479004	0.467285	0.075884	-0.026216	-0.043688	0.338329	-0.732658	-0.376338	-0.455099	-156.762521	-67.148799	38.832685
12267		8.067818	-2.813300	-4.284892	-1.905929	-0.328787	-0.452506	-0.434242	3.065010	-2.221093	-0.698486	0.464111	0.453857	0.079690	-0.029116	-0.044013	0.337368	-0.722097	-0.378265	-0.470823	-158.284865	-69.258615	40.203942
12268		8.588420	-3.207371	-4.354079	-2.474112	-0.235165	0.026831	-0.299556	3.226572	-2.313253	-0.732666	0.433350	0.423584	0.084788	-0.033125	-0.044866	0.336856	-0.710481	-0.380431	-0.486844	-160.100951	-71.457506	41.950471
12269		9.101450	-3.385190	-4.357681	-2.875463	-0.225968	0.431811	-0.134724	3.369442	-2.412346	-0.750488	0.424072	0.401855	0.089846	-0.034970	-0.045074	0.336817	-0.697757	-0.382946	-0.503032	-162.388409	-73.730464	44.266086
12270		9.448142	-3.197543	-4.179037	-2.952075	-0.299966	0.586016	0.038483	3.508757	-2.534436	-0.776367	0.401367	0.375977	0.093314	-0.033155	-0.043441	0.337195	-0.683844	-0.385922	-0.519347	-165.494437	-76.064301	47.506159
12271		9.825529	-2.968236	-4.006638	-3.020255	-0.415488	0.774555	0.208931	3.610958	-2.654213	-0.804443	0.378906	0.338135	0.097105	-0.030933	-0.041858	0.337874	-0.668814	-0.389385	-0.535638	-170.021928	-78.410103	52.269843
12272		10.160465	-2.691218	-3.630321	-2.990686	-0.399888	0.889220	0.355954	3.680554	-2.793014	-0.818115	0.367432	0.322266	0.100525	-0.028254	-0.038209	0.338636	-0.652732	-0.393391	-0.551825	-177.197745	-80.687257	59.773116
12273		10.385608	-2.261680	-3.130152	-2.806700	-0.367608	0.898909	0.489844	3.711735	-2.941890	-0.841309	0.338623	0.282959	0.102904	-0.024055	-0.033275	0.339295	-0.635683	-0.397977	-0.567803	170.649281	-82.724475	72.335146
12274		10.793921	-1.724201	-2.718939	-2.585276	-0.436968	1.140642	0.605495	3.692413	-3.078535	-0.860107	0.300049	0.247803	0.107131	-0.018809	-0.029228	0.339703	-0.617855	-0.403134	-0.583387	150.251140	-84.147984	93.213371
12275		11.531957	-1.459849	-2.253801	-2.630075	-0.304697	1.726798	0.706827	3.638563	-3.169786	-0.875000	0.283203	0.216553	0.114634	-0.016334	-0.024684	0.339843	-0.599463	-0.408716	-0.598417	122.871393	-84.416552	121.131419
12276		11.771272	-0.417492	-1.306273	-1.796514	-0.118879	1.899512	0.723913	3.518577	-3.233908	-0.893311	0.258545	0.183105	0.117371	-0.006022	-0.015149	0.339402	-0.580915	-0.414509	-0.612802	99.270713	-83.384777	145.279512
12277		11.542390	2.414574	-0.287667	0.698134	-0.615443	1.945284	0.514597	3.304954	-3.285860	-0.900391	0.232910	0.159912	0.115732	0.022256	-0.004729	0.337554	-0.562940	-0.419934	-0.626746	84.726430	-81.549165	160.244331
12278		13.681302	2.055592	0.064388	-0.306664	-0.226274	4.015984	0.295792	3.138279	-3.092883	-0.910889	0.206055	0.130615	0.137097	0.018438	-0.001478	0.335174	-0.545969	-0.424199	-0.640025	76.056627	-79.491547	169.204882
12279		14.813088	2.548636	-0.081208	-0.702701	-0.732483	5.182902	0.100384	2.939188	-2.926250	-0.926270	0.183350	0.097900	0.148449	0.023317	-0.002980	0.332210	-0.530067	-0.427516	-0.652607	70.590034	-77.395800	174.841756
12280		9.776891	-0.585262	-0.953456	-3.179504	-0.502404	-0.513877	0.228776	2.567557	-2.333866	-0.939697	0.149902	0.084473	0.097559	-0.006980	-0.010795	0.330610	-0.516233	-0.430149	-0.662701	67.033803	-75.612927	178.634062
12281		7.874329	0.625574	-0.702250	-1.801748	-0.892396	-2.141871	0.288511	2.250075	-2.396406	-0.938721	0.129639	0.052490	0.078725	0.005323	-0.007900	0.328173	-0.503072	-0.433537	-0.671764	64.946227	-73.830328	-179.031202
12282		9.306164	4.139759	-0.705793	0.621714	-2.425875	0.084869	-0.097067	2.051430	-2.264622	-0.936523	0.113525	0.041260	0.093443	0.040337	-0.008035	0.324700	-0.491366	-0.435520	-0.680773	63.297850	-72.146619	-177.364933
12283		10.071753	6.362585	1.255684	2.791893	-1.678486	1.714604	-0.772694	1.895473	-1.836387	-0.930664	0.095947	0.023193	0.101408	0.062742	0.011354	0.320611	-0.482119	-0.434307	-0.690034	61.454923	-70.707527	-175.888253
12284		9.030835	5.762797	2.112688	2.716227	-0.783250	0.734010	-1.264305	1.591200	-1.074075	-0.934814	0.092285	0.009033	0.090779	0.057270	0.020043	0.317261	-0.476284	-0.429984	-0.698292	59.382671	-69.719347	-174.455072
12285		7.080646	2.404484	1.736459	0.255417	0.247293	-2.144264	-1.456797	1.177793	-0.497772	-0.946533	0.079590	0.000244	0.070966	0.023992	0.016772	0.314533	-0.473386	-0.424219	-0.704991	57.426324	-69.119854	-173.257256
12286		6.781574	0.298789	1.308760	-1.638060	0.731861	-3.136406	-1.334760	0.772094	-0.300087	-0.943115	0.075195	-0.003174	0.067870	0.002972	0.012806	0.311913	-0.472106	-0.419025	-0.710101	55.958568	-68.730628	-172.503034
12287		7.332256	0.025862	1.383520	-2.055396	0.858115	-2.691193	-0.996065	0.401546	-0.151333	-0.939941	0.077148	-0.001465	0.073350	0.000272	0.013687	0.309821	-0.471907	-0.415237	-0.713367	55.040067	-68.526090	-172.130027
12288		7.805708	0.345625	1.055918	-2.098611	0.377404	-2.222110	-0.620105	0.042467	0.090011	-0.935547	0.070557	0.003906	0.078058	0.003524	0.010532	0.308734	-0.472895	-0.412774	-0.714613	54.569976	-68.551743	-172.005831
12289		7.596363	0.430003	0.390225	-2.212026	-0.241763	-2.526378	-0.273536	-0.273451	0.371929	-0.935547	0.075928	0.006104	0.075950	0.004447	0.004000	0.308808	-0.475059	-0.411359	-0.713961	54.434462	-68.813569	-172.029404
12290		7.443920	0.263160	-0.520482	-2.639721	-0.948204	-2.892819	-0.004982	-0.535003	0.589292	-0.943115	0.080811	0.010986	0.074445	0.002851	-0.005006	0.309766	-0.478179	-0.410793	-0.711785	54.583111	-69.263998	-172.190800
12291		7.876232	0.093286	-1.127800	-3.127880	-1.405753	-2.632488	0.249701	-0.740881	0.777382	-0.928711	0.098389	0.022461	0.078799	0.001253	-0.010985	0.311561	-0.482019	-0.410986	-0.708293	54.979543	-69.870076	-172.462074
12292		8.349757	-0.009433	-1.565083	-3.475266	-1.740666	-2.258912	0.458657	-0.901828	0.929523	-0.938232	0.094971	0.029785	0.083566	0.000329	-0.015274	0.314066	-0.486391	-0.411794	-0.703713	55.592649	-70.599613	-172.833471
12293		8.558633	-0.532475	-2.041370	-4.082279	-1.901681	-2.235219	0.646782	-1.012884	1.038935	-0.933838	0.105713	0.029785	0.085714	-0.004815	-0.019996	0.317157	-0.491063	-0.413143	-0.698270	56.406833	-71.415024	-173.303575
12294		8.730093	-1.097873	-2.200516	-4.567431	-1.766501	-2.178657	0.900144	-1.067626	1.065802	-0.931152	0.114990	0.041260	0.087473	-0.010415	-0.021586	0.320840	-0.495540	-0.415375	-0.692074	57.483292	-72.257883	-173.892840
12295		8.916820	-1.647206	-2.750042	-5.201154	-1.999638	-2.148934	1.161939	-1.073724	1.069905	-0.922119	0.130371	0.043945	0.089400	-0.015836	-0.027114	0.325136	-0.499591	-0.418471	-0.685257	58.800884	-73.100603	-174.576363
12296		8.388334	-2.070489	-2.757131	-5.290673	-1.803974	-2.670889	1.449328	-1.041238	1.129706	-0.927734	0.137695	0.064697	0.084140	-0.020032	-0.027280	0.330400	-0.503132	-0.422314	-0.677750	60.274873	-73.958183	-175.246630
12297		8.051729	-2.292007	-2.667751	-5.234230	-1.633111	-2.947228	1.668408	-0.996878	1.066268	-0.930176	0.151611	0.060059	0.080769	-0.022269	-0.026463	0.336046	-0.505975	-0.426929	-0.669921	61.978756	-74.766229	-176.024093
12298		10.189119	0.151461	0.649015	-2.244063	0.363893	0.141880	1.648563	-0.645792	0.670490	-0.930176	0.158203	0.066895	0.101864	0.001801	0.006833	0.341039	-0.506769	-0.431850	-0.663613	63.510068	-75.274171	-176.630662
12299		13.794372	6.309879	3.699319	3.524622	0.747220	5.379491	0.994673	-0.157803	0.119999	-0.921143	0.156250	0.067627	0.137876	0.062996	0.037415	0.343574	-0.505849	-0.435133	-0.660857	64.289904	-75.372845	-176.848383
12300		11.558755	2.320421	2.341619	0.051299	1.098767	2.156532	0.172447	-0.007193	0.476470	-0.918701	0.158203	0.065186	0.115531	0.023459	0.023441	0.345539	-0.506604	-0.434539	-0.659645	63.957654	-75.617162	-176.402325
12301		7.806931	-3.517726	-0.075288	-5.099804	1.144487	-3.029608	0.309360	-0.001492	0.571281	-0.927002	0.168457	0.068115	0.078169	-0.034953	-0.000806	0.348163	-0.507313	-0.434135	-0.657984	63.583625	-75.908282	-175.834345
12302		7.248595	-0.992262	-0.669113	-2.893014	-0.377779	-3.070125	0.787062	0.076340	0.105035	-0.921143	0.163086	0.068604	0.072489	-0.009858	-0.006758	0.350639	-0.505908	-0.436352	-0.656282	63.787509	-75.939755	-175.578817
12303		9.306258	3.869497	-0.035107	1.214853	-1.640313	0.057172	0.674766	0.113074	-0.227090	-0.924072	0.165771	0.064941	0.093106	0.038590	-0.000273	0.351805	-0.503857	-0.438961	-0.655496	64.185530	-75.791614	-175.591600
12304		10.941998	4.811966	-0.085431	1.635026	-2.047321	1.850279	0.242101	0.050854	-0.112729	-0.926758	0.166016	0.051514	0.109447	0.048059	-0.000824	0.352128	-0.503008	-0.439979	-0.655292	64.346706	-75.717661	-175.613964
12305		10.830710	4.143304	-0.802211	0.806474	-2.462084	1.518797	0.188350	0.029369	0.061350	-0.928711	0.161133	0.062988	0.108293	0.041474	-0.007999	0.352829	-0.502715	-0.440413	-0.654848	64.350917	-75.739212	-175.507599
12306		10.098933	4.097622	-1.021601	0.875911	-2.633376	0.776020	0.256281	0.064086	0.023878	-0.922363	0.163818	0.062012	0.100981	0.041001	-0.010196	0.353663	-0.502097	-0.441109	-0.654404	64.359609	-75.732529	-175.364247
12307		9.834737	3.978836	-0.842928	0.897703	-2.415725	0.513112	0.256357	0.076441	-0.024278	-0.923828	0.165283	0.062744	0.098349	0.039787	-0.008416	0.354356	-0.501340	-0.441896	-0.654078	64.391178	-75.698182	-175.246116
12308		9.308068	1.999590	-0.651838	-0.697961	-1.515526	-0.416975	0.213892	0.017480	0.063997	-0.927002	0.174561	0.055420	0.093074	0.020033	-0.006505	0.355111	-0.501037	-0.442434	-0.653537	64.431391	-75.723798	-175.160338
12309		9.381331	1.488813	-0.182753	-1.008504	-0.895486	-0.408415	0.328206	-0.022302	0.142562	-0.927734	0.171387	0.046631	0.093803	0.014958	-0.001793	0.356310	-0.500841	-0.443212	-0.652506	64.542510	-75.800150	-175.081658
12310		9.857793	3.215221	0.100515	0.555789	-1.242869	0.466913	0.340237	-0.064397	0.120435	-0.923096	0.166260	0.047607	0.098558	0.032210	0.001092	0.357383	-0.500703	-0.444164	-0.651377	64.767930	-75.875162	-175.112281
12311		9.588034	4.521725	0.338088	1.903374	-1.456458	0.519135	0.227419	-0.101220	0.040543	-0.922363	0.179932	0.053955	0.095869	0.045233	0.003481	0.357823	-0.500714	-0.445010	-0.650549	65.084283	-75.917885	-175.304332
12312		9.476536	4.450908	0.437456	1.908118	-1.318833	0.406237	0.086410	-0.154666	0.036315	-0.921875	0.169434	0.060303	0.094754	0.044524	0.004467	0.357784	-0.501135	-0.445506	-0.649907	65.435854	-75.970686	-175.614906
12313		9.544239	3.810722	1.001581	1.509523	-0.552905	0.386962	-0.006037	-0.209705	0.124626	-0.922852	0.175049	0.047363	0.095408	0.038167	0.010115	0.357669	-0.502103	-0.445574	-0.649175	65.770116	-76.082365	-175.963423
12314		9.916773	3.912902	2.141457	1.917504	0.486646	0.879613	-0.126377	-0.235135	0.211869	-0.919434	0.176025	0.059570	0.099101	0.039248	0.021506	0.357486	-0.503555	-0.445082	-0.648489	66.011129	-76.244977	-176.285401
12315		10.558706	2.356866	2.417247	0.481258	1.285283	1.187329	-0.325021	-0.298511	0.379702	-0.917480	0.174805	0.059326	0.105506	0.023808	0.024291	0.357197	-0.505945	-0.443630	-0.647783	66.122442	-76.510154	-176.591724
12316		11.334987	-0.722383	2.102999	-2.538979	2.072927	1.263510	-0.329351	-0.402409	0.684366	-0.914551	0.174316	0.067627	0.113331	-0.006801	0.021269	0.357656	-0.509341	-0.441577	-0.646269	66.171658	-76.958774	-176.835358
12317		12.685737	-1.023186	1.392623	-3.250792	1.516388	2.477377	-0.056235	-0.504418	0.906257	-0.922119	0.191895	0.071289	0.126866	-0.009653	0.014249	0.359286	-0.513064	-0.440009	-0.643484	66.403786	-77.547364	-177.106797
12318		12.504791	-0.517284	1.011757	-2.755588	1.004221	2.396241	0.191472	-0.530461	0.901626	-0.926758	0.190430	0.077393	0.125042	-0.004619	0.010445	0.361477	-0.516395	-0.439289	-0.640075	66.875229	-78.138858	-177.476023
12319		11.069100	-0.302299	0.180391	-2.435035	0.186917	0.989329	0.366120	-0.550693	0.849540	-0.913086	0.207031	0.083252	0.110697	-0.002556	0.002104	0.363890	-0.519353	-0.439281	-0.636308	67.605181	-78.706745	-178.007524
12320		9.371839	0.255029	-0.210902	-1.625537	-0.338772	-0.583226	0.475275	-0.569903	0.841723	-0.911865	0.214111	0.087646	0.093712	0.002949	-0.001835	0.366516	-0.522134	-0.439668	-0.632245	68.527121	-79.272729	-178.668522
12321		9.353305	1.877402	-0.330861	-0.074180	-0.981515	-0.318018	0.380605	-0.592876	0.781268	-0.913574	0.221924	0.089600	0.093468	0.019145	-0.002995	0.368635	-0.525021	-0.439936	-0.628425	69.618479	-79.809083	-179.557162
12322		9.967702	1.970383	-0.712149	-0.127563	-1.339160	0.283552	0.136291	-0.627790	0.851574	-0.899414	0.226807	0.085938	0.099614	0.020133	-0.006795	0.370254	-0.528599	-0.439311	-0.624901	70.706404	-80.386650	179.418544
12323		10.015968	1.335305	-1.087146	-0.745683	-1.445531	0.219158	-0.018036	-0.623071	0.915826	-0.909180	0.236816	0.090088	0.100130	0.013811	-0.010561	0.371660	-0.532581	-0.438007	-0.621592	71.750289	-80.995145	178.349963
12324		9.775492	1.246257	-1.170670	-0.715721	-1.468971	-0.024284	-0.127514	-0.593170	0.907996	-0.901367	0.249512	0.107178	0.097731	0.012899	-0.011425	0.372810	-0.536633	-0.436320	-0.618597	72.778045	-81.590616	177.237122
12325		9.585400	1.021422	-1.171871	-0.801891	-1.371966	-0.232999	-0.219276	-0.556647	0.852280	-0.905762	0.253418	0.105713	0.095841	0.010610	-0.011463	0.373604	-0.540614	-0.434413	-0.615988	73.833639	-82.146665	176.043653
12326		9.601569	0.470257	-1.123773	-1.211996	-1.115811	-0.275418	-0.265407	-0.532260	0.810076	-0.899170	0.265869	0.108887	0.096025	0.005077	-0.010989	0.374194	-0.544493	-0.432426	-0.613607	74.973415	-82.672017	174.741196
12327		9.424852	0.042391	-0.799978	-1.391417	-0.645099	-0.479051	-0.213821	-0.508140	0.789537	-0.901855	0.267090	0.116455	0.094266	0.000788	-0.007761	0.374899	-0.548151	-0.430594	-0.611204	76.244921	-83.179141	173.336371
12328		9.302469	0.519240	-0.463451	-0.736342	-0.478624	-0.525679	-0.153857	-0.469086	0.731046	-0.899170	0.276123	0.116943	0.093015	0.005529	-0.004421	0.375670	-0.551433	-0.429027	-0.608876	77.630148	-83.644089	171.853999
12329		9.272284	0.674481	-0.218431	-0.427019	-0.287405	-0.527621	-0.152623	-0.447864	0.706618	-0.895020	0.281006	0.121094	0.092703	0.007071	-0.001982	0.376404	-0.554592	-0.427479	-0.606638	79.154031	-84.088764	170.233292
12330		9.272389	0.685114	-0.071024	-0.291930	-0.138252	-0.520388	-0.153365	-0.425668	0.682514	-0.895996	0.287354	0.126953	0.092701	0.007167	-0.000518	0.377109	-0.557617	-0.425951	-0.604498	80.819496	-84.512310	168.472046
12331		9.502844	0.629434	0.005175	-0.265643	-0.028768	-0.292792	-0.179061	-0.419552	0.675536	-0.894043	0.294434	0.123779	0.095006	0.006615	0.000245	0.377724	-0.560655	-0.424342	-0.602432	82.724405	-84.926092	166.455958
12332		9.584399	0.287378	0.108037	-0.480319	0.204678	-0.237622	-0.169599	-0.424040	0.685002	-0.896973	0.299316	0.139160	0.095831	0.003203	0.001281	0.378382	-0.563693	-0.422740	-0.600307	85.000640	-85.338203	164.074765
12333		9.888668	0.610792	0.271461	-0.070175	0.263528	0.094767	-0.153001	-0.409644	0.645061	-0.882324	0.304443	0.138428	0.098860	0.006429	0.002912	0.378988	-0.566568	-0.421263	-0.598252	87.639368	-85.718244	161.340088
12334		10.062302	0.236248	0.084539	-0.424057	0.242563	0.240856	-0.160904	-0.416468	0.638812	-0.890869	0.306152	0.144287	0.100613	0.002685	0.001053	0.379537	-0.569452	-0.419791	-0.596198	90.838279	-86.083152	158.041353
12335		9.904635	-0.596698	-0.240470	-1.231473	0.251830	0.032881	-0.112402	-0.431131	0.658960	-0.887939	0.318359	0.135498	0.099070	-0.005642	-0.002188	0.380242	-0.572327	-0.418423	-0.593953	94.874873	-86.443923	153.931561
12336		9.860646	-0.314919	-0.263581	-0.902601	0.145138	0.014051	-0.031899	-0.417965	0.606708	-0.885010	0.316895	0.145996	0.098621	-0.002850	-0.002429	0.381050	-0.574886	-0.417416	-0.591668	99.617903	-86.754192	149.162668
12337		9.910039	-0.212035	-0.444902	-0.806744	-0.041504	0.076641	-0.051793	-0.411103	0.568788	-0.889404	0.324951	0.154297	0.099115	-0.001840	-0.004245	0.381695	-0.577380	-0.416439	-0.589508	105.129594	-87.017873	143.613465
12338		9.885907	-0.350400	-0.643624	-0.940961	-0.158518	0.054291	-0.068721	-0.412992	0.557159	-0.883301	0.334717	0.153564	0.098881	-0.003231	-0.006231	0.382251	-0.579877	-0.415446	-0.587394	111.589454	-87.241862	137.106884
12339		9.895270	-0.022668	-0.629762	-0.566489	-0.244835	0.083385	-0.095640	-0.413177	0.548386	-0.875732	0.339844	0.156982	0.098966	0.000042	-0.006093	0.382695	-0.582406	-0.414392	-0.585344	119.022368	-87.420420	129.611179
12340		9.856903	0.019817	-0.655560	-0.471079	-0.266109	0.051164	-0.125407	-0.420171	0.550155	-0.877197	0.339111	0.164063	0.098581	0.000465	-0.006349	0.383041	-0.585004	-0.413257	-0.583326	127.456471	-87.547670	121.097837
12341		9.903081	0.155900	-0.790332	-0.332155	-0.419575	0.108665	-0.145416	-0.410947	0.519028	-0.869141	0.351807	0.168945	0.099042	0.001810	-0.007701	0.383250	-0.587547	-0.412129	-0.581427	136.196894	-87.607829	112.266409
12342		9.892443	-0.113520	-0.867791	-0.549898	-0.372581	0.096138	-0.153112	-0.421957	0.518216	-0.868164	0.341797	0.177979	0.098945	-0.000885	-0.008468	0.383409	-0.590123	-0.411001	-0.579508	145.226770	-87.604379	103.141662
12343		9.745226	-0.205827	-0.593163	-0.470983	-0.067868	-0.058876	-0.108857	-0.437947	0.530093	-0.871338	0.356201	0.170654	0.097470	-0.001803	-0.005717	0.383692	-0.592685	-0.409987	-0.577421	154.283770	-87.536217	94.014041
12344		9.589484	0.057198	-0.148241	0.001209	0.263388	-0.225524	-0.102179	-0.457052	0.532519	-0.864990	0.359375	0.180664	0.095896	0.000827	-0.001264	0.383962	-0.595280	-0.409022	-0.575253	162.747721	-87.400445	85.484042
12345		9.703762	0.449987	0.062794	0.507812	0.341470	-0.117607	-0.142557	-0.466034	0.523140	-0.864502	0.370361	0.187500	0.097024	0.004754	0.000851	0.384060	-0.597957	-0.407977	-0.573149	170.118764	-87.207539	78.023383
12346		9.664254	0.278377	0.098083	0.425203	0.459305	-0.164228	-0.172590	-0.477065	0.536716	-0.869629	0.370361	0.193359	0.096632	0.003044	0.001209	0.384081	-0.600738	-0.406824	-0.571042	176.570326	-86.968809	71.465285
12347		9.504064	-0.185431	0.004589	0.022186	0.562283	-0.323505	-0.164364	-0.490875	0.540089	-0.860352	0.374023	0.193115	0.095045	-0.001597	0.000281	0.384100	-0.603547	-0.405702	-0.568861	-177.946918	-86.688494	65.879906
12348		9.383778	-0.584129	-0.187473	-0.358248	0.553812	-0.432059	-0.134667	-0.503429	0.527317	-0.866211	0.388184	0.204834	0.093857	-0.005595	-0.001635	0.384145	-0.606295	-0.404726	-0.566600	-173.480840	-86.376381	61.329149
12349		9.502552	-0.220311	-0.305397	0.000288	0.341176	-0.308819	-0.120707	-0.503714	0.500197	-0.851807	0.379395	0.196777	0.095038	-0.001967	-0.002813	0.384148	-0.608960	-0.403862	-0.564353	-169.957672	-86.047561	57.729154
12350		9.719599	-0.174956	-0.424908	0.066759	0.253745	-0.085790	-0.144480	-0.497147	0.494649	-0.847412	0.391357	0.206299	0.097210	-0.001512	-0.004006	0.384073	-0.611626	-0.402934	-0.562179	-167.038508	-85.710744	54.720231
12351		9.862077	-0.706749	-0.720755	-0.467264	0.219454	0.087445	-0.128213	-0.496604	0.517180	-0.846436	0.393555	0.210449	0.098656	-0.006817	-0.006958	0.384106	-0.614302	-0.401975	-0.559921	-164.389240	-85.360566	51.989694
12352		9.628975	-1.130873	-1.061515	-0.936692	0.079657	-0.105024	-0.067612	-0.482312	0.498506	-0.853027	0.395020	0.220947	0.096343	-0.011072	-0.010379	0.384298	-0.616772	-0.401212	-0.557616	-162.179318	-85.013049	49.733875
12353		9.797800	-0.996007	-1.209215	-0.798891	-0.070740	0.077083	-0.025100	-0.453391	0.454776	-0.847656	0.397949	0.216797	0.098027	-0.009739	-0.011869	0.384551	-0.618990	-0.400639	-0.555392	-160.429451	-84.682466	47.962702
12354		10.099612	-1.528234	-1.450334	-1.305016	-0.042650	0.421368	-0.032293	-0.435247	0.443491	-0.842041	0.406250	0.214355	0.101061	-0.015061	-0.014281	0.384785	-0.621138	-0.400046	-0.553255	-158.916433	-84.359992	46.424948
12355		10.127118	-2.111762	-1.837394	-1.932017	-0.148673	0.513927	0.013558	-0.406671	0.410563	-0.841797	0.412109	0.234619	0.101351	-0.020908	-0.018169	0.385124	-0.623050	-0.399622	-0.551172	-157.647932	-84.055856	45.158442
12356		10.069253	-2.309889	-2.174060	-2.195364	-0.365209	0.507136	0.068018	-0.361782	0.351640	-0.835449	0.412842	0.229004	0.100772	-0.022914	-0.021566	0.385557	-0.624608	-0.399443	-0.549231	-156.665772	-83.786488	44.210713
12357		10.380600	-2.176734	-2.584081	-2.159306	-0.751869	0.861788	0.089199	-0.301410	0.275287	-0.841553	0.416260	0.226807	0.103875	-0.021613	-0.025694	0.385963	-0.625810	-0.399439	-0.547579	-155.977125	-83.564287	43.569467
12358		10.677456	-2.419078	-3.111474	-2.520694	-1.105663	1.231079	0.059270	-0.250479	0.223923	-0.832520	0.417725	0.231445	0.106840	-0.024062	-0.030988	0.386237	-0.626819	-0.399418	-0.546245	-155.478148	-83.380724	43.102207
12359		10.514322	-3.029473	-3.698851	-3.288508	-1.412593	1.169134	0.048627	-0.192136	0.175695	-0.838135	0.420654	0.229492	0.105205	-0.030193	-0.036895	0.386462	-0.627597	-0.399402	-0.545204	-155.100379	-83.238092	42.750516
12360		10.704127	-2.764455	-3.916685	-3.091566	-1.690299	1.374183	0.032591	-0.093875	0.050115	-0.838379	0.431396	0.233398	0.107067	-0.027611	-0.039121	0.386490	-0.627881	-0.399550	-0.544749	-155.093078	-83.177274	42.762761
12361		10.997589	-3.034132	-4.076535	-3.372549	-1.706034	1.697588	-0.038426	0.008945	-0.030758	-0.833252	0.419434	0.233398	0.109969	-0.030366	-0.040764	0.386282	-0.627865	-0.399557	-0.544909	-155.266797	-83.188664	42.916318
12362		10.875994	-3.548320	-4.394704	-3.990524	-1.812837	1.631985	-0.061950	0.123365	-0.134505	-0.841797	0.416748	0.230469	0.108709	-0.035570	-0.044003	0.385943	-0.627371	-0.399606	-0.545681	-155.686187	-83.284986	43.303694
12363		10.667419	-3.067766	-4.193080	-3.519520	-1.836489	1.368862	-0.020489	0.249345	-0.272213	-0.834717	0.421387	0.227295	0.106580	-0.030827	-0.042061	0.385610	-0.626183	-0.399954	-0.547025	-156.464946	-83.478004	44.076429
12364		10.342224	-2.094987	-3.496268	-2.434786	-1.608873	0.913798	-0.026358	0.367308	-0.427785	-0.840820	0.415771	0.214844	0.103313	-0.021176	-0.035150	0.385067	-0.624362	-0.400546	-0.549052	-157.811762	-83.767054	45.417221
12365		9.650232	-0.500922	-2.131103	-0.563336	-1.034462	0.012365	-0.088506	0.452291	-0.525178	-0.852783	0.416504	0.224609	0.096440	-0.005272	-0.021527	0.384232	-0.622231	-0.401103	-0.551643	-159.658732	-84.116648	47.224659
12366		8.413338	0.727469	-0.896472	0.890837	-0.480983	-1.381085	-0.226322	0.450665	-0.483988	-0.851074	0.413574	0.222900	0.084130	0.007061	-0.009162	0.383071	-0.620440	-0.401151	-0.554427	-161.593786	-84.451862	49.039841
12367		7.636352	1.975372	1.262278	2.769549	0.949498	-2.380514	-0.236633	0.365047	-0.367628	-0.854492	0.406494	0.218994	0.076423	0.019628	0.012460	0.382025	-0.619140	-0.400966	-0.556731	-163.224391	-84.713466	50.542269
12368		7.482144	2.597801	2.729124	3.869517	2.029078	-2.665046	-0.237393	0.231615	-0.220578	-0.846924	0.404053	0.220459	0.074882	0.025928	0.027174	0.381115	-0.618496	-0.400579	-0.558345	-164.337443	-84.875522	51.524139
12369		7.746326	2.451657	3.611402	4.079057	2.903019	-2.464750	-0.124598	0.075232	-0.051867	-0.853027	0.411621	0.218262	0.077483	0.024519	0.036070	0.380712	-0.618417	-0.400280	-0.558922	-164.647871	-84.923494	51.764746
12370		8.377025	2.648506	3.842572	4.388058	3.081525	-1.862617	0.021172	-0.111504	0.114201	-0.847168	0.405029	0.216064	0.083734	0.026529	0.038475	0.380849	-0.618909	-0.400233	-0.558319	-164.176267	-84.843646	51.304224
12371		9.401465	2.855423	3.381970	4.477530	2.661484	-0.821202	0.119097	-0.262074	0.251109	-0.859375	0.411133	0.222656	0.093934	0.028652	0.033960	0.381371	-0.619911	-0.400319	-0.556787	-163.111912	-84.657770	50.304727
12372		9.782158	2.808301	2.633189	4.203986	2.040701	-0.396073	0.148855	-0.385692	0.365474	-0.849854	0.417725	0.221436	0.097719	0.028242	0.026541	0.382052	-0.621421	-0.400369	-0.554596	-161.691708	-84.383239	48.964475
12373		9.659063	2.053163	1.600573	3.155243	1.402821	-0.423814	0.156366	-0.496970	0.474657	-0.851318	0.419434	0.216064	0.096501	0.020748	0.016262	0.382834	-0.623442	-0.400307	-0.551826	-160.033485	-84.024118	47.388564
12374		9.588568	1.308582	1.000731	2.297807	1.166675	-0.431167	0.204518	-0.605502	0.541274	-0.843262	0.430420	0.233398	0.095819	0.013335	0.010311	0.383726	-0.625791	-0.400374	-0.548490	-158.421731	-83.589425	45.886019
12375		9.731770	1.225297	0.900586	2.265367	1.157937	-0.297102	0.239218	-0.691699	0.576843	-0.833984	0.434082	0.231445	0.097250	0.012522	0.009357	0.384646	-0.628371	-0.400582	-0.544731	-156.990235	-83.096758	44.583802
12376		9.828731	0.141546	0.534417	1.215010	1.289549	-0.129216	0.232671	-0.765618	0.628407	-0.829590	0.435791	0.245605	0.098261	0.001718	0.005722	0.385527	-0.631250	-0.400743	-0.540645	-155.674107	-82.550376	43.392453
12377		10.164882	-0.342877	-0.133731	0.636681	0.938622	0.295378	0.255473	-0.813009	0.633708	-0.824219	0.453369	0.245117	0.101663	-0.003105	-0.000928	0.386389	-0.634210	-0.401028	-0.536337	-154.577925	-81.974695	42.434678
12378		10.169271	-0.773107	-0.738434	0.107515	0.598507	0.394482	0.228042	-0.842670	0.639329	-0.819092	0.453613	0.247314	0.101747	-0.007398	-0.006964	0.387108	-0.637293	-0.401269	-0.531966	-153.667066	-81.380544	41.646980
12379		10.614789	-0.931027	-1.383077	-0.130224	0.164336	0.930145	0.177876	-0.834078	0.624193	-0.812500	0.467773	0.263428	0.106233	-0.008967	-0.013396	0.387636	-0.640404	-0.401396	-0.527734	-152.925174	-80.792771	41.000209
12380		10.914842	-1.365246	-2.157092	-0.678052	-0.295477	1.372236	0.119128	-0.827025	0.638386	-0.809326	0.470703	0.267334	0.109279	-0.013291	-0.021127	0.388014	-0.643619	-0.401298	-0.523603	-152.248510	-80.203989	40.384142
12381		11.012895	-0.892007	-2.525451	-0.262672	-0.743712	1.493694	0.127444	-0.804309	0.588130	-0.804688	0.472412	0.259766	0.110255	-0.008580	-0.024817	0.388324	-0.646642	-0.401328	-0.519610	-151.743587	-79.638822	39.946250
12382		10.864772	-0.507408	-2.419697	0.204768	-0.751535	1.302525	0.071252	-0.770720	0.585903	-0.804932	0.471680	0.273438	0.108754	-0.004747	-0.023780	0.388503	-0.649665	-0.401146	-0.515832	-151.278164	-79.090936	39.515036
12383		9.927913	-1.083276	-2.552939	-0.421323	-0.717769	0.461597	0.098006	-0.761203	0.587122	-0.787842	0.480225	0.280029	0.099407	-0.010529	-0.025156	0.388785	-0.652600	-0.401000	-0.512014	-150.822731	-78.546503	39.109215
12384		9.776311	-0.985987	-2.309673	-0.182951	-0.500724	0.266897	0.148036	-0.774767	0.577461	-0.790039	0.487793	0.286377	0.097880	-0.009560	-0.022725	0.389166	-0.655437	-0.401032	-0.508061	-150.420558	-77.997803	38.785901
12385		10.197786	-0.959473	-1.806737	0.173667	0.056905	0.586613	0.181585	-0.794503	0.566288	-0.776123	0.494873	0.293701	0.102075	-0.009290	-0.017671	0.389582	-0.658222	-0.401213	-0.503983	-150.080090	-77.441636	38.544892
12386		10.458245	-0.571264	-1.107388	0.907820	0.642996	0.660567	0.222721	-0.813917	0.561351	-0.776123	0.495117	0.290527	0.104642	-0.005407	-0.010654	0.390070	-0.660947	-0.401542	-0.499758	-149.776875	-76.877395	38.365591
12387		9.987786	-0.224639	-0.361514	1.488318	1.187862	0.001080	0.243461	-0.855969	0.591554	-0.766602	0.505859	0.305664	0.099898	-0.001947	-0.003190	0.390609	-0.663782	-0.401894	-0.495277	-149.469399	-76.283027	38.193931
12388		9.617818	0.242820	0.492813	2.228905	1.801162	-0.615349	0.260852	-0.937204	0.663073	-0.771729	0.499023	0.309082	0.096145	0.002740	0.005382	0.391205	-0.666904	-0.402199	-0.490340	-149.128494	-75.627888	37.997399
12389		9.367399	0.585168	1.155629	2.808400	2.305636	-1.082179	0.275891	-1.045264	0.736687	-0.754150	0.512207	0.317383	0.093589	0.006180	0.012054	0.391801	-0.670387	-0.402489	-0.484847	-148.786091	-74.897342	37.807620
12390		9.438123	1.138820	1.722962	3.616617	2.700653	-1.270520	0.297981	-1.166295	0.840490	-0.746338	0.519287	0.325928	0.094230	0.011758	0.017797	0.392458	-0.674294	-0.402704	-0.478679	-148.405550	-74.076666	37.590700
12391		9.286839	1.526063	2.059860	4.155374	2.916300	-1.624695	0.297955	-1.320432	0.992740	-0.740723	0.536621	0.321289	0.092652	0.015690	0.021234	0.393147	-0.678837	-0.402680	-0.471662	-147.962266	-73.134333	37.307308
12392		9.203260	2.144393	2.355901	4.915287	3.026271	-1.968738	0.298214	-1.477308	1.148869	-0.727295	0.543701	0.347900	0.091730	0.021936	0.024270	0.393856	-0.684007	-0.402406	-0.463768	-147.472656	-72.067841	36.974121
12393		9.413926	2.862940	2.180633	5.699137	2.729134	-1.961473	0.256970	-1.616305	1.296650	-0.709473	0.548340	0.353516	0.093771	0.029209	0.022602	0.394450	-0.689810	-0.401764	-0.455145	-146.970094	-70.887692	36.600400
12394		9.500643	2.833049	1.911324	5.757985	2.602497	-1.938065	0.212055	-1.744325	1.481767	-0.699219	0.556152	0.356934	0.094621	0.029012	0.019970	0.395003	-0.696282	-0.400586	-0.445751	-146.413813	-69.586983	36.139278
12395		9.726979	2.833154	0.950338	5.698987	1.870707	-1.593160	0.194630	-1.850322	1.676361	-0.686035	0.577148	0.367676	0.096934	0.029135	0.010429	0.395662	-0.703314	-0.398842	-0.435575	-145.780310	-68.172258	35.580538
12396		10.540539	2.672018	-0.430511	5.590206	0.957476	-0.525376	0.112651	-1.897558	1.820478	-0.671631	0.581543	0.381104	0.105191	0.027680	-0.003291	0.396186	-0.710783	-0.396442	-0.425039	-145.142281	-66.686140	34.960393
12397		11.326911	2.050424	-1.806469	5.125600	0.234790	0.648269	-0.033253	-1.905246	1.964343	-0.642578	0.591553	0.388916	0.113226	0.021614	-0.016989	0.396412	-0.718712	-0.393164	-0.414406	-144.518992	-65.146739	34.257966
12398		11.889452	1.898284	-1.898098	5.426576	0.452650	1.091606	-0.164463	-1.919904	2.058071	-0.625244	0.608643	0.414307	0.118866	0.020191	-0.017856	0.396255	-0.726980	-0.389232	-0.403710	-143.967925	-63.565951	33.543098
12399		12.612512	1.368296	-1.944378	5.503320	0.904332	1.746425	-0.294535	-1.954415	2.163684	-0.603516	0.621582	0.417725	0.126150	0.015020	-0.018233	0.395689	-0.735628	-0.384640	-0.392853	-143.490517	-61.931146	32.817161
12400		13.481328	0.585543	-2.696118	5.274535	0.890965	2.865283	-0.392334	-1.982068	2.175785	-0.583984	0.624756	0.439209	0.134998	0.007272	-0.025637	0.394647	-0.744390	-0.379784	-0.381969	-143.140958	-60.276706	32.162083
12401		13.567563	-0.614208	-3.080236	4.509868	1.196924	3.308240	-0.507436	-2.018057	2.212223	-0.559082	0.639404	0.456299	0.136035	-0.004714	-0.029418	0.393091	-0.753347	-0.374558	-0.371017	-142.901918	-58.592246	31.547743
12402		12.606911	-0.891702	-2.955327	4.218054	1.306132	2.391948	-0.560471	-2.099815	2.187887	-0.540039	0.645752	0.459961	0.126458	-0.007615	-0.028204	0.391044	-0.762341	-0.369398	-0.359813	-142.797933	-56.877338	31.045958
12403		12.280576	-0.250455	-3.134099	4.878255	0.939899	1.849456	-0.629533	-2.194443	2.136070	-0.510010	0.658203	0.484619	0.123158	-0.001286	-0.029986	0.388372	-0.771358	-0.364408	-0.348397	-142.845446	-55.137802	30.669118
12404		12.320982	0.038288	-3.214113	5.415656	0.916315	1.674638	-0.853609	-2.281501	1.990337	-0.486572	0.662354	0.502686	0.123555	0.001478	-0.030738	0.384327	-0.780510	-0.359669	-0.337244	-143.167593	-53.408613	30.464431
12405		12.519502	-1.802125	-3.691421	4.184066	1.576279	2.581208	-1.074580	-2.276509	1.966980	-0.462646	0.661865	0.510742	0.125774	-0.016979	-0.035392	0.379294	-0.789839	-0.354548	-0.326476	-143.623034	-51.691377	30.263190
12406		12.381370	-3.945038	-4.228847	2.560846	2.283492	3.414517	-1.040204	-2.182924	1.921834	-0.450684	0.666504	0.533447	0.124637	-0.038470	-0.040729	0.374395	-0.798677	-0.349398	-0.316015	-144.038810	-50.032847	30.031824
12407		11.524006	-4.670853	-4.938957	1.641435	1.986611	3.315936	-0.889459	-2.047881	1.729544	-0.425293	0.666504	0.546875	0.116136	-0.045922	-0.047998	0.369950	-0.806504	-0.344926	-0.306129	-144.415996	-48.503765	29.858181
12408		10.862563	-4.864992	-4.856383	1.398768	2.128398	2.787033	-0.728389	-1.883549	1.471279	-0.408203	0.664551	0.561035	0.109430	-0.048021	-0.047360	0.365975	-0.813198	-0.341375	-0.297043	-144.769593	-47.136695	29.773209
12409		10.178555	-5.316626	-5.114743	0.817032	2.091296	2.555933	-0.556512	-1.700790	1.266930	-0.393311	0.670166	0.566650	0.102549	-0.052659	-0.050131	0.362657	-0.818841	-0.338531	-0.288749	-145.057151	-45.924237	29.730931
12410		9.213425	-5.589714	-5.389580	0.158716	1.830848	2.095220	-0.415582	-1.499638	1.039163	-0.374268	0.665527	0.582764	0.092823	-0.055527	-0.053086	0.359891	-0.823472	-0.336421	-0.281413	-145.301181	-44.879774	29.740338
12411		8.531146	-5.495878	-5.364135	-0.032993	1.686912	1.541162	-0.295827	-1.254863	0.723147	-0.361816	0.664307	0.585205	0.085844	-0.054728	-0.053023	0.357560	-0.826949	-0.335317	-0.275443	-145.540245	-44.054855	29.840713
12412		7.339797	-5.919029	-6.030102	-1.124741	1.066497	1.271790	-0.272232	-1.052945	0.555330	-0.353760	0.671631	0.593018	0.073878	-0.059067	-0.059832	0.355416	-0.829791	-0.334562	-0.270545	-145.774225	-43.378081	29.954713
12413		6.859933	-7.474408	-6.604497	-2.610054	1.350919	1.930652	-0.169170	-0.902538	0.605712	-0.341064	0.677246	0.595215	0.069122	-0.074591	-0.065671	0.354009	-0.832299	-0.333459	-0.266010	-145.877931	-42.757326	29.965553
12414		7.921315	-6.405433	-6.016846	-0.926738	1.690235	1.860478	0.037091	-0.680314	0.422602	-0.335938	0.676514	0.594727	0.079552	-0.063875	-0.059910	0.353578	-0.833825	-0.332991	-0.262364	-145.876975	-42.299647	29.996739
12415		9.100533	-2.817952	-4.688664	2.807517	1.284980	0.346577	0.043828	-0.405535	0.064129	-0.327637	0.668945	0.601807	0.091109	-0.028140	-0.046708	0.353165	-0.834369	-0.333539	-0.260490	-145.945063	-42.088465	30.137530
12416		9.172210	0.021996	-3.851511	5.129930	0.480327	-1.302865	-0.238457	-0.158387	-0.182568	-0.338867	0.666260	0.601074	0.091753	0.000090	-0.038443	0.351657	-0.834680	-0.334309	-0.260545	-146.209320	-42.072356	30.329145
12417		7.838573	-1.010966	-3.973706	3.466289	0.456517	-1.686682	-0.490363	0.037550	-0.147929	-0.338135	0.659668	0.607666	0.078371	-0.010265	-0.039727	0.349467	-0.835230	-0.334259	-0.261790	-146.547327	-42.139329	30.414395
12418		6.890142	-3.084967	-4.399013	1.201808	0.896478	-1.204888	-0.469405	0.252298	-0.274712	-0.331055	0.652832	0.606445	0.068803	-0.031047	-0.044004	0.347557	-0.835246	-0.334390	-0.264104	-146.867254	-42.347323	30.491390
12419		6.734116	-3.795286	-4.609643	0.475120	1.060444	-0.887966	-0.263609	0.496916	-0.542846	-0.348389	0.657471	0.607666	0.067123	-0.038196	-0.046213	0.346553	-0.834122	-0.335480	-0.267572	-147.119669	-42.757557	30.640981
12420		6.448184	-3.636067	-4.645605	0.326417	0.822374	-1.117969	-0.050365	0.737694	-0.778858	-0.347900	0.638672	0.610840	0.064168	-0.036623	-0.046684	0.346523	-0.831893	-0.337417	-0.272075	-147.288808	-43.355289	30.847603
12421		6.005167	-3.338323	-4.543683	0.197130	0.538379	-1.595532	0.098480	0.984004	-1.045722	-0.375000	0.640381	0.604736	0.059652	-0.033673	-0.045748	0.347145	-0.828587	-0.340223	-0.277817	-147.428766	-44.155241	31.131123
12422		5.625973	-3.283347	-4.464479	-0.091198	0.375784	-1.925202	0.209443	1.222198	-1.253003	-0.382568	0.637207	0.602539	0.055778	-0.033137	-0.045021	0.348327	-0.824351	-0.343610	-0.284685	-147.538842	-45.132346	31.459653
12423		5.291518	-3.187673	-4.440145	-0.342640	0.153529	-2.214441	0.308603	1.455483	-1.454596	-0.399414	0.633057	0.595215	0.052357	-0.032190	-0.044833	0.349994	-0.819185	-0.347528	-0.292685	-147.629855	-46.285437	31.833328
12424		4.975304	-2.965375	-4.431221	-0.493500	-0.150016	-2.538458	0.417185	1.682262	-1.636715	-0.428223	0.624268	0.577393	0.049133	-0.029964	-0.044790	0.352194	-0.813080	-0.351913	-0.301691	-147.691328	-47.602137	32.245651
12425		4.720554	-2.599135	-4.492908	-0.513185	-0.565860	-2.838510	0.455488	1.894901	-1.791615	-0.445068	0.623291	0.578125	0.046542	-0.026307	-0.045432	0.354632	-0.806183	-0.356551	-0.311732	-147.759077	-49.070356	32.685620
12426		4.625808	-2.228809	-4.505149	-0.427905	-0.888739	-3.053534	0.419467	2.100858	-1.939853	-0.463623	0.608643	0.569092	0.045563	-0.022637	-0.045580	0.356995	-0.798611	-0.361301	-0.322856	-147.879160	-50.681772	33.157971
12427		4.545625	-1.917938	-4.569591	-0.399892	-1.218535	-3.211602	0.321289	2.302313	-2.064355	-0.491455	0.605957	0.556152	0.044725	-0.019570	-0.046245	0.359041	-0.790486	-0.365939	-0.335125	-148.083205	-52.429032	33.652521
12428		4.524598	-1.799050	-4.628125	-0.504599	-1.432660	-3.269205	0.192781	2.510100	-2.173320	-0.510498	0.593750	0.536133	0.044462	-0.018432	-0.046860	0.360691	-0.781838	-0.370334	-0.348546	-148.384019	-54.307986	34.165933
12429		4.408530	-1.964401	-4.759976	-0.924873	-1.610419	-3.293639	0.067111	2.722292	-2.270760	-0.547119	0.589111	0.531982	0.043205	-0.020122	-0.048199	0.361960	-0.772635	-0.374390	-0.363114	-148.781609	-56.318968	34.695457
12430		4.446768	-2.282949	-4.870251	-1.414305	-1.659855	-3.183660	-0.041353	2.927233	-2.366450	-0.571289	0.567627	0.501465	0.043474	-0.023358	-0.049339	0.362904	-0.762818	-0.378131	-0.378715	-149.280263	-58.455354	35.260149
12431		4.660979	-2.590717	-4.926324	-1.829919	-1.629014	-2.979243	-0.127724	3.148509	-2.477046	-0.598145	0.539551	0.489258	0.045501	-0.026507	-0.049969	0.363586	-0.752241	-0.381579	-0.395393	-149.890746	-60.731238	35.882473
12432		5.041315	-2.728110	-5.002555	-2.075000	-1.660962	-2.684581	-0.208833	3.363533	-2.601512	-0.633789	0.534424	0.470459	0.049202	-0.027979	-0.050831	0.363975	-0.740828	-0.384788	-0.413080	-150.654218	-63.144416	36.612770
12433		5.548895	-3.019333	-5.048182	-2.442943	-1.587514	-2.270037	-0.269014	3.579308	-2.713739	-0.660645	0.516846	0.451904	0.054157	-0.031003	-0.051418	0.364143	-0.728507	-0.387703	-0.431699	-151.593973	-65.692562	37.482730
12434		6.016174	-3.527914	-5.193111	-3.103669	-1.545296	-1.839351	-0.293255	3.787944	-2.833093	-0.691406	0.493164	0.424561	0.058656	-0.036194	-0.052999	0.364182	-0.715159	-0.390421	-0.451099	-152.770524	-68.370008	38.578616
12435		6.724675	-4.387242	-5.625096	-4.173277	-1.588050	-1.086125	-0.213699	4.009148	-2.946165	-0.723877	0.470703	0.401855	0.065446	-0.044906	-0.057527	0.364460	-0.700525	-0.393082	-0.471084	-154.224517	-71.180203	39.996532
12436		7.494185	-5.249578	-5.742098	-5.198359	-1.401687	-0.449018	-0.053439	4.235596	-3.102581	-0.744629	0.449463	0.379639	0.072878	-0.053653	-0.058965	0.365144	-0.684299	-0.396005	-0.491513	-156.178120	-74.129332	42.011258
12437		8.150235	-5.545750	-5.571632	-5.708238	-1.283527	-0.119376	0.199793	4.445702	-3.357085	-0.771973	0.422363	0.338623	0.079291	-0.056744	-0.057552	0.366207	-0.666091	-0.399739	-0.512274	-159.273600	-77.217234	45.321990
12438		8.985702	-5.656581	-4.975470	-5.927262	-0.887789	0.263793	0.460380	4.589236	-3.588110	-0.804443	0.389404	0.304199	0.087650	-0.058034	-0.051915	0.367544	-0.646031	-0.404329	-0.532986	-164.813209	-80.356000	51.236783
12439		8.550185	-3.846237	-3.913789	-4.387786	-1.020306	-0.708146	0.389177	4.559259	-3.824352	-0.831299	0.372559	0.263184	0.083824	-0.039997	-0.041139	0.367631	-0.625144	-0.409187	-0.553723	-176.809976	-83.300714	63.575953
12440		8.953972	0.414040	-2.732152	-0.477982	-1.830884	-0.636450	-0.227613	4.366369	-4.185294	-0.856445	0.326904	0.230469	0.088975	0.002242	-0.029272	0.364073	-0.604619	-0.413459	-0.575273	154.103270	-85.343904	92.665326
12441		13.297820	1.361976	-1.945949	0.077606	-1.387658	3.622065	-0.821314	4.073264	-3.916144	-0.863281	0.292969	0.190674	0.132776	0.010931	-0.022214	0.358564	-0.586052	-0.415377	-0.596185	113.098603	-85.322530	133.322216
12442		15.274108	0.720789	-0.833034	-0.904926	-0.298649	5.469609	-1.192941	3.784570	-3.628543	-0.893555	0.255859	0.160889	0.152643	0.004376	-0.011251	0.351957	-0.569156	-0.415552	-0.616040	86.527182	-83.594660	159.325336
12443		14.772372	-2.475560	-0.876530	-4.458122	0.663999	4.496866	-1.085432	3.493153	-3.222953	-0.903320	0.234863	0.146484	0.147117	-0.027186	-0.011195	0.346058	-0.553437	-0.415135	-0.633730	73.372874	-81.409531	171.961893
12444		13.741495	-4.560625	-2.545598	-7.449196	-0.241300	2.857098	-0.378922	3.310463	-3.085878	-0.914063	0.198730	0.106201	0.136244	-0.047766	-0.027629	0.341986	-0.537048	-0.416670	-0.648853	66.350566	-79.088883	178.865951
12445		11.776566	-3.847646	-1.723828	-6.584624	-0.006946	0.821297	0.163926	3.147511	-3.006895	-0.920166	0.174805	0.080811	0.116879	-0.040223	-0.019115	0.339109	-0.520164	-0.419819	-0.661957	62.349614	-76.750323	-176.948272
12446		10.989964	-0.553971	-0.533281	-3.419716	-0.466789	0.648743	0.307529	2.886020	-2.861792	-0.935059	0.150635	0.057129	0.109713	-0.007101	-0.006927	0.336395	-0.503969	-0.423329	-0.673533	59.974027	-74.512913	-174.313784
12447		10.834988	2.302409	0.235120	-0.939300	-1.099493	1.171378	0.115817	2.555621	-2.446253	-0.931885	0.121582	0.039307	0.108639	0.021696	0.000977	0.333766	-0.489910	-0.425541	-0.683742	58.237901	-72.555278	-172.435350
12448		8.998648	3.607104	0.156705	0.417801	-1.770803	-0.289286	-0.277579	2.156923	-1.773177	-0.939697	0.108643	0.015381	0.090311	0.035273	0.000545	0.331550	-0.479172	-0.425323	-0.692509	56.589542	-71.030884	-170.866873
12449		7.773964	3.318159	0.101285	0.348706	-1.751568	-1.550564	-0.777801	1.667781	-1.063678	-0.942139	0.099609	0.003174	0.077919	0.032769	0.000236	0.329488	-0.472398	-0.422412	-0.699890	54.894485	-69.986653	-169.542645
12450		6.861450	2.693520	0.906069	0.322667	-0.798018	-2.436129	-1.011484	1.088623	-0.438429	-0.930664	0.085938	-0.013672	0.068721	0.026829	0.008551	0.327823	-0.469309	-0.418130	-0.705300	53.358616	-69.415158	-168.522175
12451		5.761621	1.742168	0.720547	-0.219817	-0.537942	-3.778391	-0.988119	0.479111	0.105275	-0.933594	0.090820	-0.009033	0.057624	0.017487	0.006981	0.326830	-0.469452	-0.413629	-0.708314	52.128087	-69.294649	-167.813104
12452		5.924120	-0.340563	0.274721	-2.213190	-0.050098	-4.300353	-0.729182	-0.078929	0.542544	-0.932373	0.098877	-0.011719	0.059249	-0.003235	0.002783	0.326842	-0.472034	-0.409927	-0.708744	51.303921	-69.564435	-167.378219
12453		6.953939	-1.607638	0.217974	-3.616031	0.391262	-3.667769	-0.242497	-0.542432	0.893051	-0.941162	0.103760	0.002686	0.069604	-0.015763	0.002388	0.328274	-0.476178	-0.407862	-0.706498	50.962296	-70.155701	-167.163324
12454		7.849958	-1.697710	0.000550	-3.995573	0.184321	-2.848179	0.254267	-0.917516	1.157742	-0.930664	0.125244	0.011475	0.078595	-0.016523	0.000345	0.331058	-0.481344	-0.407527	-0.701876	51.097000	-70.999861	-167.150848
12455		8.888705	-1.273461	-0.200405	-3.925739	-0.235596	-1.737912	0.635999	-1.168420	1.349202	-0.923584	0.125488	0.010986	0.088980	-0.012129	-0.001524	0.334883	-0.487123	-0.408449	-0.695510	51.595198	-72.019680	-167.293248
12456		10.238075	-0.910877	-0.853687	-4.119602	-1.034640	-0.414217	0.970360	-1.371335	1.551426	-0.929199	0.145996	0.034180	0.102503	-0.008275	-0.007876	0.339788	-0.493397	-0.410343	-0.687547	52.394887	-73.201625	-167.547780
12457		10.614362	-0.002189	-0.539283	-3.110730	-1.118565	0.287984	1.114583	-1.334599	1.557188	-0.920166	0.157715	0.036133	0.106172	0.000832	-0.004681	0.345087	-0.499257	-0.412594	-0.679282	53.292166	-74.372567	-167.818348
12458		10.959903	3.267677	0.798982	0.400703	-1.227866	1.578695	1.171608	-1.136436	1.237929	-0.920166	0.167969	0.049072	0.109346	0.033304	0.008805	0.349824	-0.503616	-0.415452	-0.671859	54.375328	-75.327032	-168.244216
12459		10.915045	3.497309	0.372493	0.640004	-1.617746	1.522119	0.929345	-1.051680	1.292919	-0.914795	0.178711	0.052246	0.108899	0.035658	0.004463	0.354265	-0.508190	-0.417160	-0.664994	55.182933	-76.277655	-168.529174
12460		9.171939	-0.571753	-1.333702	-3.071647	-1.411824	-1.164023	0.978608	-1.041394	1.441345	-0.915527	0.194580	0.060059	0.091825	-0.004992	-0.012885	0.359324	-0.512892	-0.418605	-0.657721	55.866029	-77.293671	-168.654073
12461		8.106877	-2.211522	-2.420123	-4.584176	-1.716894	-2.566654	1.386844	-0.917366	1.249282	-0.908447	0.206299	0.066406	0.081314	-0.021441	-0.023979	0.365010	-0.516007	-0.421610	-0.650192	56.870891	-78.178619	-168.870291
12462		7.598452	-0.989033	-2.052360	-3.121981	-1.825743	-2.752538	1.664252	-0.738437	0.873570	-0.898438	0.215820	0.066650	0.076102	-0.009388	-0.020322	0.370539	-0.517178	-0.426124	-0.643153	58.281496	-78.825295	-169.335893
12463		8.057128	-0.233663	-2.475527	-2.569892	-2.505104	-2.182516	1.550914	-0.573628	0.554582	-0.913330	0.216064	0.064453	0.080648	-0.001922	-0.024540	0.375058	-0.517315	-0.430746	-0.637318	59.804598	-79.264687	-169.983228
12464		8.274653	-0.940564	-2.542715	-3.207471	-2.324905	-2.058563	1.308077	-0.432699	0.426360	-0.906982	0.225098	0.069580	0.082821	-0.009063	-0.025308	0.378830	-0.517138	-0.434642	-0.632568	61.085798	-79.596612	-170.523332
12465		7.810652	-1.825958	-2.523056	-3.885073	-2.003105	-2.629388	1.015627	-0.268634	0.293568	-0.907471	0.223389	0.064697	0.078167	-0.018017	-0.025218	0.381756	-0.516698	-0.437621	-0.629105	61.995531	-79.815626	-170.857529
12466		7.540482	-0.778540	-2.275457	-2.756653	-2.110925	-2.700195	0.733584	-0.070191	-0.082408	-0.907715	0.232666	0.060059	0.075410	-0.007733	-0.022757	0.383208	-0.515326	-0.440303	-0.627474	62.757574	-79.789444	-171.203949
12467		8.692678	2.517713	-0.409470	0.682736	-1.420221	-0.891595	0.304861	0.116567	-0.501448	-0.902344	0.228271	0.066895	0.086987	0.024965	-0.004107	0.382638	-0.513274	-0.442349	-0.628064	63.342701	-79.500890	-171.622017
12468		13.751345	1.759107	1.629417	-0.312670	0.626202	4.128578	-0.337787	-0.167284	0.268354	-0.902100	0.223633	0.065674	0.137476	0.017803	0.016379	0.382215	-0.515029	-0.440950	-0.627870	63.260460	-79.678261	-171.734382
12469		22.773620	3.708943	0.998191	-0.121013	-0.806526	13.268005	-0.172597	-0.561353	1.119716	-0.904297	0.236816	0.077393	0.227495	0.038372	0.010588	0.384002	-0.519584	-0.438611	-0.624656	63.175387	-80.393731	-171.749415
12470		17.367123	2.852250	-2.783588	-0.952674	-3.953831	7.535387	-0.006766	-0.556399	1.227692	-0.898926	0.253418	0.085693	0.173568	0.029587	-0.027354	0.386562	-0.524007	-0.436490	-0.620857	62.984741	-81.162218	-171.559412
12471		12.242748	-0.294576	-5.256979	-3.696289	-5.148850	1.910424	0.359074	-0.668873	1.189618	-0.893311	0.254395	0.079590	0.122617	-0.002123	-0.052164	0.389687	-0.527978	-0.435793	-0.616009	63.456657	-81.941244	-171.829663
12472		10.669583	-2.941930	-4.102984	-5.431252	-3.173398	0.175151	0.740426	-0.776050	1.435593	-0.890869	0.281982	0.088379	0.107061	-0.028501	-0.040722	0.394329	-0.532024	-0.435810	-0.609528	64.180548	-82.872483	-172.131163
12473		9.337382	-0.424044	-1.722694	-2.007961	-1.653765	-0.671255	0.794209	-0.713922	1.137448	-0.896729	0.279053	0.090820	0.093456	-0.003642	-0.016909	0.398304	-0.535102	-0.436623	-0.603639	65.458694	-83.634263	-172.960836
12474		8.716488	1.969335	-0.387734	0.838647	-1.061242	-0.971004	0.382266	-0.674986	0.844122	-0.891357	0.288818	0.095459	0.087093	0.020068	-0.003545	0.400367	-0.538203	-0.436887	-0.599311	67.218559	-84.229265	-174.509551
12475		8.552963	2.261051	-0.599430	1.166035	-1.310696	-1.120948	0.017942	-0.715458	0.998128	-0.884766	0.297119	0.091797	0.085436	0.023038	-0.005686	0.401799	-0.542488	-0.435703	-0.595338	69.036099	-84.910519	-176.325873
12476		8.898102	-0.458515	-1.723485	-1.680056	-1.541862	-1.028849	-0.403310	-0.727951	1.128426	-0.884521	0.307861	0.101563	0.089067	-0.004117	-0.016902	0.402442	-0.547901	-0.432926	-0.591964	70.913285	-85.657452	-178.440473
12477		9.928257	-2.949422	-2.349375	-4.206050	-1.348362	-0.154606	-0.466656	-0.662939	1.059221	-0.881836	0.318848	0.116455	0.099514	-0.029022	-0.023096	0.402821	-0.553087	-0.429994	-0.589013	73.201741	-86.349466	178.997069
12478		11.046506	-4.356397	-1.733780	-5.310765	-0.287146	0.944688	-0.263114	-0.581591	1.011094	-0.871826	0.331055	0.113525	0.110733	-0.043027	-0.016959	0.403787	-0.557484	-0.427619	-0.585926	75.982092	-86.992974	176.061840
12479		10.803663	-1.747102	-1.385377	-2.608662	-0.726092	0.881129	-0.031698	-0.491873	0.686782	-0.870361	0.327881	0.121338	0.108129	-0.017102	-0.013585	0.404621	-0.560459	-0.426626	-0.583230	80.030710	-87.433949	171.989514
12480		9.677201	2.094601	-0.661109	1.389597	-1.203216	-0.061096	-0.162150	-0.467655	0.569422	-0.868652	0.337646	0.125977	0.096727	0.021216	-0.006402	0.404801	-0.563353	-0.425533	-0.581112	85.378531	-87.787858	166.544870
12481		8.579608	2.785962	-0.195895	2.298095	-0.967585	-1.141369	-0.496491	-0.531641	0.724604	-0.867920	0.342285	0.126953	0.085699	0.028166	-0.001801	0.404337	-0.567444	-0.423146	-0.579195	93.819215	-88.202841	157.813681
12482		8.896429	2.467789	0.306936	2.221573	-0.375950	-0.854267	-0.726921	-0.601058	0.836080	-0.859863	0.355225	0.136230	0.088850	0.025061	0.003246	0.403390	-0.572402	-0.419908	-0.577329	108.997482	-88.603277	142.213807
12483		9.394647	1.249445	1.078107	1.405354	0.767140	-0.409592	-0.865657	-0.673405	0.970970	-0.860352	0.364502	0.152832	0.093847	0.012998	0.011042	0.402259	-0.578120	-0.416005	-0.575243	137.175199	-88.862042	113.533078
12484		9.485056	0.218056	1.627174	0.730232	1.648651	-0.357059	-0.811171	-0.702099	1.004618	-0.854492	0.376465	0.159668	0.094780	0.002724	0.016594	0.401307	-0.583836	-0.412202	-0.572868	170.312079	-88.747281	79.925321
12485		9.431697	0.118022	2.004763	0.885314	2.063925	-0.434785	-0.683253	-0.735043	0.949791	-0.848389	0.384033	0.159180	0.094235	0.001697	0.020389	0.400475	-0.589262	-0.408964	-0.570209	-169.094723	-88.309816	58.933347
12486		9.254531	-0.220853	2.248036	0.767659	2.436021	-0.635325	-0.558254	-0.776784	0.953694	-0.854248	0.387939	0.170898	0.092466	-0.001704	0.022845	0.399927	-0.594523	-0.406142	-0.567142	-158.032086	-87.724787	47.545006
12487		8.978842	-0.551213	1.772166	0.400655	2.134022	-0.904924	-0.400545	-0.815505	0.958958	-0.840088	0.394775	0.168213	0.089740	-0.005046	0.018098	0.399762	-0.599573	-0.403806	-0.563598	-151.775175	-87.066381	41.051920
12488		8.978162	-1.217784	0.701736	-0.488639	1.410096	-0.848620	-0.226683	-0.846470	0.972197	-0.840820	0.402832	0.176025	0.089809	-0.011733	0.007411	0.400080	-0.604353	-0.401970	-0.559566	-147.845659	-86.367127	36.986713
12489		9.282205	-2.302072	-0.178731	-1.685212	1.028886	-0.453681	-0.015205	-0.839724	0.990325	-0.841064	0.406006	0.193604	0.092941	-0.022561	-0.001396	0.401084	-0.608710	-0.400637	-0.555062	-144.959047	-85.651858	34.084849
12490		9.463283	-2.755450	-0.885220	-2.234546	0.578717	-0.189770	0.151326	-0.803651	0.935971	-0.830811	0.422119	0.197754	0.094795	-0.027105	-0.008492	0.402501	-0.612491	-0.399846	-0.550428	-142.947406	-84.964890	32.154262
12491		9.436546	-2.811812	-1.369978	-2.351441	0.179562	-0.155103	0.258930	-0.759269	0.880188	-0.822266	0.428955	0.205322	0.094539	-0.027685	-0.013377	0.404163	-0.615811	-0.399412	-0.545801	-141.443112	-84.311796	30.792205
12492		9.657666	-2.257366	-1.968235	-1.923350	-0.532386	0.099756	0.262464	-0.699214	0.751798	-0.824463	0.438965	0.203613	0.096729	-0.022185	-0.019374	0.405597	-0.618673	-0.399255	-0.541599	-140.548030	-83.730595	30.044229
12493		10.139268	-1.858709	-2.538172	-1.609835	-1.144554	0.618012	0.186321	-0.656464	0.648648	-0.813965	0.442383	0.208252	0.101535	-0.018234	-0.025066	0.406590	-0.621363	-0.399108	-0.537871	-140.079189	-83.203640	29.679795
12494		9.856480	-2.356166	-2.890501	-2.136852	-1.281554	0.426817	0.110457	-0.605527	0.649781	-0.811523	0.444824	0.212891	0.098728	-0.023225	-0.028619	0.407445	-0.624049	-0.398648	-0.534445	-139.562580	-82.699695	29.223814
12495		9.760251	-2.368487	-3.114240	-2.157550	-1.459894	0.374750	0.055223	-0.545907	0.529101	-0.807373	0.450928	0.218750	0.097749	-0.023418	-0.030882	0.407915	-0.626447	-0.398283	-0.531545	-139.358555	-82.264838	29.050089
12496		10.270906	-2.255620	-3.074570	-1.910349	-1.396123	0.884660	-0.016986	-0.499998	0.485987	-0.806152	0.454590	0.224365	0.102840	-0.022309	-0.030487	0.408132	-0.628766	-0.397768	-0.529020	-139.226883	-81.867444	28.908108
12497		10.061626	-2.963571	-3.243799	-2.588890	-1.287538	0.778854	-0.077846	-0.463574	0.484841	-0.804932	0.461670	0.228271	0.100763	-0.029404	-0.032193	0.408220	-0.631115	-0.397009	-0.526720	-139.053268	-81.484568	28.687534
12498		9.998017	-3.164628	-3.304458	-2.747263	-1.247103	0.760467	-0.084131	-0.407923	0.403257	-0.793213	0.472900	0.229980	0.100111	-0.031458	-0.032827	0.408183	-0.633150	-0.396381	-0.524776	-138.992373	-81.157999	28.577963
12499		10.140218	-2.666027	-3.094287	-2.145256	-1.188282	0.840574	-0.082862	-0.340995	0.308965	-0.804932	0.474609	0.236084	0.101496	-0.026516	-0.030759	0.408031	-0.634828	-0.395908	-0.523221	-139.031867	-80.893884	28.570028
12500		10.479478	-2.170242	-2.729876	-1.478205	-0.972880	1.089144	-0.113532	-0.274721	0.196643	-0.797119	0.473633	0.235596	0.104853	-0.021615	-0.027142	0.407618	-0.636158	-0.395582	-0.522174	-139.234564	-80.702518	28.710262
12501		10.532514	-2.347586	-2.677416	-1.591294	-0.833254	1.159411	-0.150214	-0.235445	0.172927	-0.800781	0.475586	0.240479	0.105377	-0.023405	-0.026633	0.407102	-0.637424	-0.395147	-0.521361	-139.423504	-80.535022	28.814727
12502		10.398293	-2.590556	-2.807845	-1.860245	-0.857384	1.074176	-0.151465	-0.190875	0.131523	-0.796875	0.479736	0.238281	0.104027	-0.025858	-0.027960	0.406562	-0.638480	-0.394757	-0.520785	-139.618645	-80.404272	28.925394
12503		10.375332	-2.906632	-2.985837	-2.202633	-0.892287	1.112670	-0.176871	-0.150415	0.101134	-0.802002	0.473877	0.251221	0.103790	-0.029040	-0.029755	0.405942	-0.639435	-0.394307	-0.520439	-139.812434	-80.300385	29.019516
12504		10.445579	-3.365354	-3.065049	-2.635707	-0.777997	1.245251	-0.171813	-0.099608	0.050537	-0.793213	0.478760	0.243408	0.104480	-0.033653	-0.030570	0.405305	-0.640133	-0.393936	-0.520358	-140.022361	-80.239397	29.133421
12505		10.454721	-3.527967	-2.848002	-2.709963	-0.502297	1.244557	-0.161102	-0.034575	-0.054245	-0.796143	0.480957	0.239746	0.104543	-0.035331	-0.028434	0.404555	-0.640449	-0.393788	-0.520665	-140.352563	-80.243231	29.374741
12506		10.306717	-3.214478	-2.610785	-2.372507	-0.398272	1.031206	-0.130075	0.045332	-0.158349	-0.802490	0.480469	0.249756	0.103036	-0.032243	-0.026110	0.403792	-0.640273	-0.393899	-0.521388	-140.766404	-80.322198	29.719787
12507		10.535687	-2.300411	-2.395013	-1.444591	-0.507325	1.127348	-0.115615	0.128867	-0.269148	-0.795898	0.475830	0.242432	0.105310	-0.023160	-0.024005	0.402952	-0.639644	-0.394228	-0.522560	-141.291512	-80.475648	30.185623
12508		10.758238	-1.959100	-2.317157	-1.107241	-0.541028	1.297134	-0.165606	0.171026	-0.299866	-0.804688	0.473877	0.242188	0.107533	-0.019771	-0.023247	0.401953	-0.638929	-0.394444	-0.524039	-141.857513	-80.660384	30.663987
12509		10.189629	-1.022759	-1.976029	-0.244362	-0.617686	0.595858	-0.155485	0.241491	-0.382416	-0.803467	0.480469	0.242676	0.101853	-0.010438	-0.019875	0.400908	-0.637857	-0.394802	-0.525872	-142.516190	-80.902997	31.241584
12510		9.254636	0.408647	-0.805342	1.322808	-0.141996	-0.609769	-0.204799	0.254381	-0.371054	-0.812500	0.476074	0.250488	0.092543	0.003906	-0.008175	0.399758	-0.636856	-0.394971	-0.527832	-143.178220	-81.148647	31.793813
12511		8.290493	1.615922	0.477564	2.736546	0.513421	-1.823996	-0.300143	0.198439	-0.269529	-0.810059	0.472656	0.246582	0.082931	0.016055	0.004669	0.398459	-0.636404	-0.394668	-0.529583	-143.743551	-81.330771	32.192155
12512		8.099464	2.652221	1.706848	4.094004	1.238335	-2.246014	-0.391983	0.091556	-0.124107	-0.806396	0.477051	0.244873	0.081019	0.026505	0.016979	0.397040	-0.636687	-0.393877	-0.530896	-144.174152	-81.416017	32.401314
12513		7.653670	2.049015	2.644673	3.822660	2.283120	-2.745436	-0.392263	-0.043390	0.053790	-0.805664	0.470703	0.253662	0.076525	0.020563	0.026423	0.395825	-0.637690	-0.392780	-0.531412	-144.357631	-81.376799	32.360060
12514		7.690727	2.286354	3.529017	4.386954	3.007841	-2.845900	-0.221397	-0.204961	0.181288	-0.812988	0.482178	0.255127	0.076850	0.022972	0.035344	0.395175	-0.639019	-0.392054	-0.530835	-144.409827	-81.221799	32.285326
12515		8.402318	2.405609	3.883911	4.748369	3.355046	-2.218799	-0.080285	-0.369541	0.326446	-0.802490	0.477539	0.259277	0.083912	0.024209	0.038985	0.395035	-0.640800	-0.391556	-0.529157	-144.300871	-80.939888	32.128752
12516		9.093668	2.388169	3.595359	4.761710	3.175174	-1.532065	0.070908	-0.535003	0.481920	-0.796143	0.485596	0.265869	0.090782	0.024088	0.036205	0.395465	-0.643006	-0.391289	-0.526350	-144.016678	-80.530692	31.882760
12517		9.546015	2.238448	2.965286	4.517609	2.725884	-1.032598	0.150400	-0.691136	0.634729	-0.793701	0.496826	0.264648	0.095285	0.022665	0.029999	0.396239	-0.645764	-0.391035	-0.522566	-143.607455	-79.995818	31.555197
12518		9.839387	1.550826	2.175682	3.722121	2.331637	-0.611580	0.177588	-0.834687	0.763974	-0.784180	0.499023	0.265137	0.098242	0.015864	0.022181	0.397147	-0.649068	-0.390715	-0.518003	-143.167892	-79.351917	31.212623
12519		10.336840	1.027715	1.633288	3.225537	2.131242	-0.033818	0.130715	-0.950013	0.869101	-0.772461	0.504639	0.283447	0.103243	0.010715	0.016830	0.397938	-0.652951	-0.390143	-0.512921	-142.756471	-78.617306	30.870560
12520		10.576741	-0.319795	0.556784	1.764015	1.735680	0.490396	0.068166	-1.041022	0.957296	-0.776611	0.508301	0.291016	0.105750	-0.002694	0.006117	0.398553	-0.657328	-0.389289	-0.507474	-142.389021	-77.811395	30.535902
12521		10.934487	-0.391359	-0.965280	1.356797	0.471026	1.076895	0.192502	-1.120144	0.945653	-0.765625	0.523193	0.294678	0.109414	-0.003387	-0.009044	0.399372	-0.661609	-0.388920	-0.501515	-142.137959	-76.972174	30.391836
12522		11.245568	0.891865	-1.524085	2.537167	-0.414717	1.276474	0.211531	-1.140698	0.912244	-0.757568	0.531006	0.309082	0.112498	0.009447	-0.014589	0.400108	-0.665794	-0.388736	-0.495496	-141.991961	-76.136518	30.367144
12523		10.835303	0.126158	-1.940805	1.754520	-0.478344	1.044423	0.181038	-1.171457	1.005975	-0.747070	0.538330	0.318848	0.108456	0.001824	-0.018772	0.400893	-0.670267	-0.388198	-0.489213	-141.751712	-75.252739	30.226614
12524		10.664031	-0.723195	-2.505839	0.901737	-0.620492	1.110822	0.273772	-1.210168	1.037828	-0.732178	0.549561	0.314697	0.106825	-0.006644	-0.024422	0.401966	-0.674662	-0.387838	-0.482531	-141.480425	-74.341184	30.108853
12525		10.425673	-0.580699	-2.656800	1.084209	-0.766563	0.879584	0.394365	-1.245378	1.040245	-0.726807	0.553467	0.323486	0.104448	-0.005213	-0.025929	0.403356	-0.678866	-0.387801	-0.475453	-141.200925	-73.411830	30.053503
12526		10.531620	-0.422322	-2.480393	1.474653	-0.569331	0.899184	0.419508	-1.265379	1.060363	-0.707764	0.559570	0.334961	0.105491	-0.003613	-0.024145	0.404812	-0.683050	-0.387774	-0.468190	-140.920015	-72.467299	30.011911
12527		10.736134	-0.937783	-2.110613	1.346023	0.074044	1.085865	0.391733	-1.298403	1.108915	-0.702148	0.577881	0.337646	0.107545	-0.008741	-0.020426	0.406192	-0.687417	-0.387548	-0.460730	-140.641342	-71.489461	29.955266
12528		11.032863	-1.125704	-1.474804	1.628822	0.858587	1.222391	0.397474	-1.325035	1.109332	-0.684326	0.580566	0.339844	0.110483	-0.010616	-0.014038	0.407510	-0.691775	-0.387363	-0.453136	-140.403364	-70.500636	29.945266
12529		11.494992	-0.572881	-0.544561	2.721114	1.674683	1.257417	0.387311	-1.342255	1.112042	-0.681152	0.592773	0.350342	0.115013	-0.005080	-0.004684	0.408735	-0.696149	-0.387147	-0.445455	-140.195602	-69.502321	29.960994
12530		11.235428	0.091862	0.232363	3.642683	2.190253	0.590560	0.337482	-1.371956	1.150827	-0.666748	0.601807	0.360840	0.112327	0.001560	0.003097	0.409781	-0.700704	-0.386717	-0.437657	-140.009250	-68.477624	29.969347
12531		11.000837	0.745967	0.820059	4.490867	2.538705	-0.033584	0.263373	-1.428680	1.223768	-0.656006	0.615967	0.368652	0.109898	0.008121	0.008996	0.410582	-0.705620	-0.385949	-0.429612	-139.844794	-67.400430	29.955287
12532		11.276630	1.011097	0.888723	5.006218	2.652938	0.029561	0.174761	-1.510728	1.337996	-0.644043	0.621826	0.371826	0.112624	0.010856	0.009748	0.411118	-0.711042	-0.384723	-0.421177	-139.693508	-66.245803	29.900498
12533		11.923767	2.009015	0.761087	6.269754	2.401851	0.272315	0.086178	-1.588549	1.442849	-0.613525	0.628418	0.380859	0.119023	0.020946	0.008566	0.411366	-0.716937	-0.383052	-0.412373	-139.564074	-65.017785	29.813311
12534		12.435491	3.277796	1.172415	7.893923	2.515305	0.092470	-0.124770	-1.671666	1.549644	-0.604736	0.641602	0.396729	0.123992	0.033747	0.012741	0.410868	-0.723551	-0.380690	-0.403406	-139.531513	-63.714236	29.698774
12535		12.720326	4.016865	1.827361	9.038496	2.984067	-0.290421	-0.401684	-1.773862	1.673889	-0.586426	0.653809	0.409424	0.126693	0.041269	0.019317	0.409365	-0.731076	-0.377474	-0.394285	-139.629848	-62.319869	29.551383
12536		13.132432	4.009658	2.392583	9.569444	3.666000	-0.366084	-0.670367	-1.875300	1.800212	-0.573730	0.653076	0.430664	0.130725	0.041358	0.025016	0.406871	-0.739467	-0.373414	-0.384976	-139.850418	-60.834679	29.366328
12537		13.880311	4.404564	2.229439	10.424621	3.613256	-0.050886	-0.859957	-1.944546	1.901807	-0.549561	0.662598	0.442627	0.138151	0.045461	0.023446	0.403663	-0.748425	-0.368680	-0.375490	-140.144620	-59.282436	29.137535
12538		14.719679	4.449752	1.794465	10.986425	3.478417	0.525278	-1.033079	-1.975390	2.051835	-0.529053	0.671631	0.457764	0.146544	0.046100	0.019159	0.399946	-0.757904	-0.363045	-0.365818	-140.447615	-57.661952	28.799490
12539		14.742401	3.065683	0.852143	9.878413	3.295551	1.096156	-1.157183	-2.032737	2.274773	-0.511230	0.671387	0.474609	0.146967	0.032385	0.009833	0.395962	-0.767952	-0.356362	-0.355627	-140.708678	-55.936765	28.319461
12540		14.300171	2.041620	-0.181500	8.866276	2.798313	1.243417	-1.281745	-2.162229	2.480215	-0.474854	0.670166	0.499512	0.142743	0.022182	-0.000409	0.391522	-0.778623	-0.348824	-0.344643	-140.992022	-54.080081	27.769843
12541		14.092520	1.401073	-1.117391	8.331159	2.321681	1.456541	-1.517343	-2.290987	2.477272	-0.452881	0.681396	0.514404	0.140854	0.015679	-0.009675	0.385804	-0.789716	-0.341026	-0.333475	-141.487228	-52.170480	27.302069
12542		14.165956	0.679985	-1.633733	8.001897	2.365462	1.770193	-1.730900	-2.403200	2.365194	-0.427490	0.675537	0.537354	0.141750	0.008344	-0.014702	0.378733	-0.800942	-0.333416	-0.322314	-142.216352	-50.251742	26.966088
12543		13.883067	-0.531278	-2.437633	7.022678	2.368254	2.188194	-1.818932	-2.408417	2.217496	-0.395752	0.691650	0.547852	0.139160	-0.003982	-0.022662	0.370927	-0.811810	-0.326145	-0.311461	-143.062880	-48.386862	26.708158
12544		13.498830	-2.208442	-3.706869	5.518435	2.274656	3.040094	-1.631763	-2.282425	2.081158	-0.374756	0.670166	0.569336	0.135620	-0.020968	-0.035349	0.363754	-0.821650	-0.319380	-0.300949	-143.807227	-46.627201	26.450678
12545		13.055571	-3.171572	-4.555551	4.627439	2.175195	3.419949	-1.261164	-2.047854	1.828158	-0.355469	0.671631	0.587891	0.131296	-0.030799	-0.044017	0.358004	-0.829833	-0.313704	-0.291205	-144.368919	-45.065778	26.227662
12546		12.269738	-3.189946	-5.208427	4.225256	1.610293	3.125466	-1.013318	-1.772627	1.504037	-0.336426	0.676025	0.596680	0.123388	-0.031233	-0.050833	0.353169	-0.836510	-0.309177	-0.282722	-144.841540	-43.739658	26.074447
12547		10.925308	-3.901720	-5.727692	2.931051	1.336560	2.717663	-0.896713	-1.439962	1.241733	-0.323486	0.669922	0.610840	0.109901	-0.038590	-0.056314	0.348921	-0.841984	-0.305286	-0.275893	-145.255191	-42.659270	25.929440
12548		9.242718	-4.927095	-6.964738	0.953290	0.576041	2.716001	-0.767643	-1.086144	1.030736	-0.303223	0.670898	0.623535	0.093056	-0.049058	-0.068955	0.345431	-0.846356	-0.301812	-0.270681	-145.577831	-41.812579	25.756258
12549		7.790169	-6.665778	-7.316735	-1.189573	0.954514	2.690348	-0.605857	-0.685554	0.950423	-0.299072	0.665527	0.628418	0.078468	-0.066506	-0.072697	0.343103	-0.849729	-0.298191	-0.267065	-145.726710	-41.184475	25.458028
12550		7.639407	-5.550731	-6.373497	-0.189274	1.007320	1.533747	-0.199648	-0.315611	0.696081	-0.300781	0.670166	0.634277	0.076687	-0.055304	-0.063559	0.342701	-0.851515	-0.295547	-0.264822	-145.646733	-40.811135	25.162942
12551		8.505294	-1.439881	-4.537688	3.721465	0.220212	-0.806798	-0.171687	0.071076	0.380159	-0.298340	0.664063	0.635010	0.085064	-0.014276	-0.045395	0.342571	-0.852257	-0.293622	-0.264743	-145.573518	-40.725168	24.901230
12552		7.019982	0.311937	-3.772075	4.084502	-0.746833	-3.003503	-0.503160	0.409660	0.229876	-0.296631	0.658447	0.634033	0.070119	0.003105	-0.037872	0.341321	-0.852900	-0.291313	-0.266829	-145.657004	-40.845343	24.588899
12553		5.622990	-1.527902	-4.128179	1.749073	-0.368408	-2.898993	-0.738950	0.680236	0.021786	-0.300781	0.656982	0.639160	0.056091	-0.015426	-0.041416	0.339176	-0.853258	-0.289112	-0.270785	-145.884280	-41.164138	24.290574
12554		5.477560	-4.076317	-4.652494	-0.278279	0.729108	-1.587351	-0.667960	0.938932	-0.330709	-0.310059	0.644531	0.632568	0.054489	-0.041009	-0.046645	0.337220	-0.852618	-0.288061	-0.276309	-146.143641	-41.716946	24.105375
12555		5.297343	-5.697900	-5.047231	-1.709145	1.351993	-0.798693	-0.394905	1.214540	-0.708108	-0.322998	0.638428	0.638672	0.052464	-0.057265	-0.050679	0.336290	-0.850546	-0.288521	-0.283261	-146.328739	-42.524532	24.044740
12556		5.033683	-5.847900	-4.947892	-2.098310	1.393044	-0.999535	-0.024532	1.508947	-1.132935	-0.337891	0.629883	0.628906	0.049629	-0.058768	-0.049848	0.336732	-0.846769	-0.290795	-0.291602	-146.404048	-43.604693	24.135584
12557		4.765204	-5.127771	-4.658692	-1.862216	1.019734	-1.676746	0.258227	1.794553	-1.564399	-0.367432	0.638184	0.623779	0.046828	-0.051586	-0.047076	0.338117	-0.841367	-0.294791	-0.301457	-146.433790	-44.960534	24.390079
12558		4.552409	-4.425913	-4.383159	-1.611537	0.655035	-2.296367	0.423452	2.054867	-1.931370	-0.397217	0.619873	0.611816	0.044640	-0.044599	-0.044387	0.339971	-0.834613	-0.300090	-0.312708	-146.474245	-46.554091	24.786294
12559		4.418511	-3.874598	-4.027294	-1.390552	0.464836	-2.841269	0.505956	2.304921	-2.261049	-0.416504	0.618408	0.601318	0.043275	-0.039136	-0.040874	0.341950	-0.826627	-0.306399	-0.325387	-146.572380	-48.373753	25.313692
12560		4.293444	-3.451311	-3.897958	-1.327269	0.185192	-3.199184	0.527391	2.531917	-2.552517	-0.446045	0.610352	0.590332	0.041991	-0.034949	-0.039607	0.343787	-0.817551	-0.313467	-0.339350	-146.770437	-50.390186	25.973665
12561		4.171322	-3.435796	-4.030580	-1.656530	-0.065057	-3.278466	0.588562	2.748103	-2.811833	-0.481201	0.594482	0.572021	0.040666	-0.034815	-0.040971	0.345646	-0.807293	-0.321210	-0.354445	-147.054701	-52.592182	26.767776
12562		4.184688	-3.707672	-4.460156	-2.252756	-0.368642	-3.035301	0.694310	2.954196	-3.065137	-0.517334	0.596191	0.559082	0.040608	-0.037549	-0.045337	0.347667	-0.795739	-0.329671	-0.370465	-147.428657	-54.966675	27.725245
12563		4.245877	-3.960866	-4.888892	-2.842947	-0.701098	-2.810302	0.844184	3.147602	-3.305600	-0.552734	0.576660	0.529297	0.041021	-0.040086	-0.049711	0.349980	-0.782762	-0.338861	-0.387260	-147.902638	-57.506700	28.876810
12564		4.266578	-3.840147	-5.180545	-3.128311	-1.160470	-2.838171	0.977564	3.340473	-3.563786	-0.587158	0.547607	0.501709	0.041101	-0.038887	-0.052690	0.352440	-0.768295	-0.348789	-0.404790	-148.554988	-60.209791	30.294038
12565		4.351382	-3.275800	-5.071508	-2.876616	-1.510031	-3.118003	1.058051	3.513552	-3.829744	-0.629883	0.538818	0.480713	0.041978	-0.033300	-0.051637	0.354738	-0.752354	-0.359363	-0.423063	-149.524736	-63.068155	32.084548
12566		4.725198	-2.675423	-4.994877	-2.494641	-1.822392	-3.113607	1.029261	3.676805	-4.069922	-0.668945	0.515869	0.456055	0.045768	-0.027435	-0.050939	0.356451	-0.735138	-0.370225	-0.442095	-151.005080	-66.055033	34.377054
12567		5.513134	-2.593577	-4.907106	-2.452076	-1.781295	-2.601566	0.933611	3.827332	-4.264710	-0.705322	0.491943	0.426025	0.053611	-0.026857	-0.050231	0.357366	-0.716796	-0.381019	-0.461862	-153.235116	-69.139344	37.366273
12568		6.753933	-3.051468	-5.084855	-2.958906	-1.655908	-1.490214	0.879937	3.975198	-4.420765	-0.727539	0.455566	0.391357	0.065816	-0.031754	-0.052306	0.357703	-0.697292	-0.391655	-0.482119	-156.536244	-72.278615	41.397226
12569		8.346461	-3.887180	-5.600867	-4.016382	-1.668797	0.045935	0.978357	4.142241	-4.498987	-0.771484	0.431641	0.362549	0.081380	-0.040438	-0.057904	0.358179	-0.676402	-0.402132	-0.502472	-161.362046	-75.424457	47.001738
12570		9.234330	-4.454484	-6.086922	-5.110360	-2.009140	0.768791	1.191396	4.323027	-4.614792	-0.806885	0.396973	0.313477	0.089941	-0.046267	-0.063103	0.359099	-0.653773	-0.412815	-0.522697	-169.014503	-78.502625	55.554471
12571		10.369012	-4.497864	-6.148221	-5.639899	-2.230114	1.532269	1.452217	4.507957	-4.809308	-0.827148	0.359863	0.281738	0.101151	-0.046972	-0.064118	0.360346	-0.629075	-0.424030	-0.542783	177.368377	-81.301529	70.223891
12572		11.258364	-3.711969	-6.046587	-5.468419	-2.717736	2.008366	1.532143	4.614394	-4.965768	-0.855957	0.320068	0.237549	0.110185	-0.039398	-0.063323	0.361230	-0.602879	-0.435269	-0.562664	152.856602	-83.168760	95.838594
12573		8.697171	1.087150	-2.399859	-0.243104	-1.682278	-0.887225	0.414507	4.423818	-5.265294	-0.885254	0.274658	0.199219	0.086660	0.008639	-0.025899	0.357043	-0.577863	-0.444085	-0.584280	120.364506	-82.923472	128.796663
12574		13.234777	5.070907	-1.357874	2.769267	-1.913619	4.018910	-0.850627	4.117488	-5.209295	-0.910645	0.229980	0.165527	0.133287	0.047179	-0.016522	0.348284	-0.555457	-0.449083	-0.607034	97.348702	-80.815481	151.544761
12575		18.026733	4.488297	-0.656338	0.839592	-1.034766	8.725255	-1.531905	3.878547	-4.491952	-0.920898	0.181641	0.131348	0.181037	0.040752	-0.010392	0.338902	-0.535998	-0.449971	-0.628791	84.231063	-78.252150	163.985898
12576		15.146602	0.968571	-1.433172	-2.981541	-0.996092	5.102869	-1.499029	3.722076	-3.698081	-0.928711	0.158691	0.102051	0.151307	0.006765	-0.017207	0.331478	-0.518309	-0.448725	-0.648169	75.854593	-75.786997	171.698854
12577		12.928216	0.380983	-0.967057	-3.434201	-0.713910	2.672625	-1.310953	3.538861	-3.165153	-0.941162	0.122803	0.066406	0.129122	0.001692	-0.011972	0.325622	-0.501746	-0.446704	-0.665340	70.001425	-73.450968	176.988192
12578		11.728271	-2.197933	-1.003637	-5.848305	0.008657	0.635656	-1.401621	3.250825	-2.678148	-0.942383	0.092773	0.048096	0.116792	-0.023624	-0.011776	0.320347	-0.487102	-0.443387	-0.680822	65.603006	-71.322095	-179.239699
12579		10.078097	-3.242783	-0.481984	-6.363265	0.757932	-1.372327	-1.587029	2.920667	-2.379380	-0.941162	0.075684	0.020020	0.100303	-0.033668	-0.006023	0.314747	-0.474318	-0.439034	-0.695130	62.177669	-69.356913	-176.569181
12580		8.545728	-2.550852	0.528871	-5.085949	1.323234	-2.588229	-1.722567	2.533812	-2.235855	-0.947998	0.049072	0.003174	0.085225	-0.026422	0.004433	0.308365	-0.463222	-0.434311	-0.708315	59.569303	-67.528151	-174.825327
12581		6.613668	-0.211455	1.532111	-2.170411	1.203931	-3.490482	-1.807705	2.072151	-1.826945	-0.946533	0.039795	-0.018555	0.066269	-0.002585	0.014657	0.302121	-0.454637	-0.428909	-0.719767	57.458546	-66.012012	-173.656553
12582		5.604892	1.545313	2.600804	0.000998	1.325966	-3.583117	-1.993198	1.415194	-1.106280	-0.948486	0.023926	-0.025391	0.056316	0.015398	0.025457	0.296585	-0.450135	-0.422102	-0.728866	55.608231	-65.033511	-172.877521
12583		5.395565	1.386011	2.117250	-0.278909	0.900609	-3.928255	-2.064420	0.682657	-0.216810	-0.944824	0.033447	-0.030762	0.054042	0.014018	0.020844	0.292526	-0.450222	-0.414050	-0.735045	53.906861	-64.703303	-172.305791
12584		5.411408	-0.515301	0.399250	-2.521531	0.283106	-4.988801	-1.879341	0.032628	0.558652	-0.940674	0.026855	-0.041016	0.054129	-0.004964	0.004031	0.290369	-0.453980	-0.405846	-0.738158	52.399683	-64.945892	-171.829364
12585		6.564265	-1.453950	-0.514987	-4.102623	-0.103362	-4.462359	-1.432580	-0.462867	1.038922	-0.944336	0.032471	-0.030518	0.065729	-0.014234	-0.004895	0.289956	-0.459855	-0.398876	-0.738483	51.242587	-65.574943	-171.460055
12586		7.400085	-1.623468	-0.984777	-4.711262	-0.454352	-3.815768	-0.933027	-0.831844	1.324804	-0.941406	0.045654	-0.019775	0.074146	-0.015789	-0.009465	0.290999	-0.466898	-0.393602	-0.736480	50.472322	-66.462339	-171.201275
12587		8.064415	-1.521562	-1.600011	-5.066795	-1.053535	-3.245682	-0.433347	-1.110769	1.548792	-0.941650	0.070801	-0.003906	0.080846	-0.014624	-0.015519	0.293445	-0.474645	-0.390008	-0.732459	50.051516	-67.549149	-171.015074
12588		8.732164	-1.830791	-2.679013	-5.930941	-1.831609	-2.866814	-0.060119	-1.340549	1.797954	-0.937744	0.078857	0.005859	0.087658	-0.017529	-0.026198	0.297222	-0.483114	-0.387492	-0.726711	49.841360	-68.829831	-170.824989
12589		8.750681	-2.748612	-3.571160	-6.934989	-2.101514	-3.151848	0.256094	-1.514434	2.036985	-0.936768	0.107422	0.011230	0.088048	-0.026546	-0.035081	0.302239	-0.492147	-0.385741	-0.719477	49.757795	-70.279289	-170.580483
12590		8.355229	-3.374561	-4.213166	-7.442374	-2.307660	-3.629833	0.602004	-1.627006	2.174397	-0.938965	0.114258	0.042725	0.084251	-0.032706	-0.041548	0.308344	-0.501232	-0.385007	-0.710957	49.848082	-71.830469	-170.310443
12591		8.391314	-3.555661	-4.050986	-7.340139	-2.099177	-3.395811	0.961138	-1.683828	2.191211	-0.940430	0.135742	0.049805	0.084633	-0.034439	-0.039967	0.315225	-0.509906	-0.385507	-0.701437	50.198975	-73.410750	-170.102339
12592		10.475090	-1.783982	-1.163419	-4.876049	-0.618624	-0.320586	1.302497	-1.392078	1.854465	-0.927002	0.162598	0.058838	0.104988	-0.016794	-0.011016	0.322308	-0.516260	-0.387537	-0.692393	50.747422	-74.735783	-169.895783
12593		13.668505	4.952362	3.182089	2.225097	-0.242102	4.900086	1.370621	-0.863836	1.051501	-0.924316	0.168701	0.062988	0.136283	0.050019	0.032752	0.327755	-0.519063	-0.390962	-0.685783	51.579793	-75.514108	-169.945872
12594		12.640889	3.655649	2.546387	1.263882	-0.053497	3.530356	0.901664	-0.634372	1.232071	-0.912598	0.178955	0.068115	0.126099	0.037217	0.026031	0.333038	-0.522146	-0.391913	-0.680333	51.499278	-76.290726	-169.329402
12595		9.137022	-4.161376	-0.605833	-5.938254	0.997098	-1.755983	1.122344	-0.589974	1.340254	-0.911133	0.185791	0.079834	0.091664	-0.040966	-0.006019	0.339317	-0.524895	-0.393218	-0.674336	51.251663	-77.100223	-168.415348
12596		6.555407	-6.045034	-2.990055	-7.989511	-0.232136	-4.856104	2.111351	-0.498136	0.874603	-0.913818	0.204102	0.074707	0.065892	-0.059844	-0.030371	0.346775	-0.524670	-0.398890	-0.667349	52.093240	-77.668092	-168.037298
12597		7.472427	-1.224494	-4.054572	-4.312595	-3.453557	-3.236251	2.896613	-0.325789	-0.085109	-0.916504	0.196289	0.058838	0.074785	-0.011689	-0.040596	0.353361	-0.520521	-0.409319	-0.660797	54.594887	-77.739252	-168.900810
12598		9.577780	4.654148	-3.141937	0.942281	-5.117621	-0.005198	2.716527	-0.206870	-0.672330	-0.913330	0.196533	0.069580	0.095966	0.046639	-0.030687	0.357722	-0.514971	-0.420400	-0.655823	57.596910	-77.483077	-170.380030
12599		9.613422	6.571907	-3.562878	2.563325	-6.126607	0.394858	1.998870	-0.156874	-0.696892	-0.917236	0.190918	0.048828	0.096391	0.065735	-0.034896	0.360194	-0.510426	-0.429026	-0.652428	60.024939	-77.186595	-171.696015
12600		10.756391	8.392967	-0.098025	5.209500	-3.503186	2.300895	1.168667	-0.031151	-0.585207	-0.918945	0.179199	0.054688	0.107809	0.083618	-0.000474	0.361164	-0.507148	-0.434409	-0.650884	61.491822	-76.899854	-172.513326
12601		17.601455	6.173652	0.526921	1.924496	-2.238168	8.612505	-0.008542	-0.538622	0.662377	-0.922363	0.186768	0.061035	0.175794	0.062319	0.005740	0.362088	-0.510357	-0.433695	-0.648334	61.909181	-77.378456	-172.947065
12602		22.296808	3.314673	-2.256427	-2.344086	-3.869477	12.384987	0.043464	-1.063012	2.018496	-0.910645	0.215088	0.070557	0.222734	0.035400	-0.021372	0.366384	-0.518060	-0.430612	-0.641833	61.919259	-78.682563	-172.931114
12603		17.013685	0.840072	-4.498544	-3.928068	-4.887263	6.651829	0.256354	-1.036896	1.969538	-0.911133	0.225098	0.083252	0.170273	0.010134	-0.044091	0.371075	-0.525133	-0.428230	-0.634947	62.062763	-79.956006	-172.928354
12604		11.295846	-2.698724	-6.056875	-6.436152	-4.924661	0.477207	0.459317	-1.054949	1.853614	-0.902588	0.239746	0.094727	0.113519	-0.025799	-0.060031	0.375857	-0.531559	-0.426784	-0.627719	62.603557	-81.174291	-173.208970
12605		8.702751	-3.434296	-4.365416	-5.928704	-3.028960	-1.922130	0.714385	-1.063461	1.737353	-0.902100	0.257568	0.090088	0.087551	-0.033429	-0.043310	0.380876	-0.537242	-0.426408	-0.620065	63.697758	-82.336068	-173.902014
12606		8.188962	-2.691539	-2.320311	-4.308436	-1.353841	-2.112730	0.504920	-0.998653	1.607927	-0.895264	0.272949	0.103271	0.082217	-0.026197	-0.022860	0.385043	-0.542771	-0.425567	-0.613216	64.949381	-83.411211	-174.870995
12607		7.969086	-1.735774	-1.108809	-2.846358	-0.517927	-2.107025	0.232184	-0.904457	1.330564	-0.891113	0.282715	0.103271	0.079853	-0.016814	-0.010747	0.387778	-0.547922	-0.424421	-0.607681	66.617012	-84.317682	-176.415159
12608		9.474253	-1.548486	-2.234924	-3.077849	-1.615768	-0.589416	-0.142665	-0.837283	1.137255	-0.891602	0.299316	0.113525	0.094921	-0.014961	-0.021941	0.389029	-0.553134	-0.422517	-0.603472	68.689989	-85.099553	-178.578266
12609		11.237546	-2.897330	-2.868829	-4.579421	-1.711211	1.096289	-0.367149	-0.726389	1.104036	-0.880615	0.306152	0.119629	0.112636	-0.028404	-0.028227	0.389766	-0.558371	-0.419785	-0.600071	70.696679	-85.835786	179.197115
12610		11.561973	-4.227624	-2.551483	-5.610789	-0.907078	1.401431	-0.388213	-0.636331	1.001094	-0.884766	0.315918	0.122314	0.115910	-0.041745	-0.025065	0.390316	-0.563119	-0.417090	-0.597149	73.027775	-86.490953	176.638674
12611		10.127679	-4.105266	-2.536257	-5.293483	-0.898173	0.037538	-0.223157	-0.560749	0.835348	-0.871826	0.323242	0.127686	0.101518	-0.040657	-0.025033	0.390973	-0.566977	-0.415186	-0.594389	76.220908	-87.036160	173.311771
12612		9.879262	0.899288	-1.659490	-0.222828	-1.794338	0.081396	-0.149238	-0.466334	0.353897	-0.878662	0.326904	0.133057	0.098815	0.009155	-0.016371	0.390606	-0.569379	-0.414681	-0.592684	80.652421	-87.284636	168.789993
12613		10.033637	3.716910	-0.056714	3.020974	-1.261631	0.374274	-0.578644	-0.488819	0.542500	-0.874756	0.338623	0.133789	0.100236	0.037440	-0.000430	0.389515	-0.573090	-0.412398	-0.591416	85.863616	-87.624340	163.241253
12614		9.337022	0.986758	0.220991	0.675810	-0.026834	-0.445493	-0.873624	-0.586453	0.853982	-0.879639	0.342285	0.142822	0.093320	0.010276	0.002439	0.388293	-0.578266	-0.408533	-0.589863	94.488598	-88.109717	154.110277
