// General information: 
//  MT Manager version: 2019.2.0 
//  XDA version: 2019.2.0 build 3853 rev 94535 built on 2019-09-09
// Device information: 
//  DeviceId: 00B47786
//  ProductCode: MTW2-3A7G6
//  Firmware Version: 4.6.0
//  Hardware Version: 2.0.0
// Device settings: 
//  Filter Profile: human(46.1)
//  Option Flags: Orientation Smoother Disabled, AHS Disabled, ICC Disabled
// Coordinate system: ENU
PacketCounter	SampleTimeFine	Acc_X	Acc_Y	Acc_Z	FreeAcc_E	FreeAcc_N	FreeAcc_U	Gyr_X	Gyr_Y	Gyr_Z	Mag_X	Mag_Y	Mag_Z	VelInc_X	VelInc_Y	VelInc_Z	Quat_q0	Quat_q1	Quat_q2	Quat_q3	Roll	Pitch	Yaw
60776		9.756776	0.154968	-0.220483	0.000000	0.000000	-0.052191	0.006713	0.007114	-0.008490	-0.975586	0.284424	0.302979	0.097568	0.001546	-0.002208	0.257102	-0.660695	-0.273486	-0.650066	145.010856	-88.417545	79.064769
60777		9.769948	0.176303	-0.222661	0.000000	-0.000000	-0.038613	0.000922	0.003886	-0.011385	-0.972656	0.289551	0.303955	0.097700	0.001757	-0.002229	0.259691	-0.659052	-0.277579	-0.648969	141.739361	-88.336053	82.921440
60778		9.797751	0.130427	-0.219760	-0.022697	0.027292	-0.011669	0.001834	0.006881	-0.009973	-0.967041	0.289307	0.293945	0.097977	0.001299	-0.002201	0.258384	-0.659857	-0.275549	-0.649537	143.199015	-88.376996	81.169403
60779		9.765696	0.126555	-0.191930	-0.006882	0.048879	-0.044410	0.005143	0.007405	-0.011661	-0.970215	0.289063	0.301270	0.097657	0.001260	-0.001923	0.258373	-0.659811	-0.275595	-0.649570	142.923560	-88.376372	81.447917
60780		9.784581	0.112065	-0.215844	-0.035156	0.041668	-0.025236	0.003958	0.003163	-0.008218	-0.969971	0.285156	0.297363	0.097846	0.001117	-0.002160	0.258444	-0.659748	-0.275600	-0.649602	142.789099	-88.384932	81.588966
60781		9.782974	0.110834	-0.239683	-0.054033	0.026224	-0.026334	0.011005	0.005674	-0.011681	-0.966064	0.284668	0.300049	0.097830	0.001103	-0.002400	0.258450	-0.659700	-0.275667	-0.649621	142.536870	-88.383457	81.847604
60782		9.796140	0.132412	-0.241815	-0.041664	0.009649	-0.012762	0.003195	0.006304	-0.013155	-0.966553	0.286865	0.308105	0.097961	0.001318	-0.002421	0.258450	-0.659648	-0.275703	-0.649659	142.262387	-88.384546	82.125200
60783		9.777239	0.149058	-0.216922	-0.013479	0.015157	-0.031928	0.002388	0.003452	-0.011389	-0.973145	0.296143	0.304199	0.097772	0.001485	-0.002171	0.258425	-0.659618	-0.275744	-0.649682	142.038184	-88.382104	82.350861
60784		9.775630	0.148061	-0.240690	-0.032324	-0.000522	-0.033027	0.001729	0.006737	-0.013149	-0.969727	0.287354	0.301270	0.097756	0.001474	-0.002410	0.258409	-0.659572	-0.275779	-0.649720	141.757762	-88.381829	82.632923
60785		9.756722	0.164705	-0.215734	-0.004139	0.004987	-0.052193	-0.000543	0.004317	-0.011379	-0.968018	0.287842	0.295898	0.097567	0.001641	-0.002159	0.258376	-0.659543	-0.275809	-0.649749	141.522299	-88.379723	82.868168
60786		9.778814	0.154756	-0.191228	0.005436	0.029404	-0.030825	-0.003904	0.003720	-0.011280	-0.967285	0.289795	0.311035	0.097788	0.001542	-0.001914	0.258378	-0.659502	-0.275810	-0.649789	141.320414	-88.382951	83.070254
60787		9.796118	0.138320	-0.239398	-0.041625	0.008447	-0.012761	-0.003097	0.006573	-0.013045	-0.961426	0.286377	0.305664	0.097961	0.001377	-0.002397	0.258334	-0.659467	-0.275835	-0.649832	141.028901	-88.381199	83.360109
60788		9.771440	0.190705	-0.192806	0.027234	0.004121	-0.037523	-0.000920	0.002927	-0.009701	-0.964355	0.294922	0.302002	0.097714	0.001902	-0.001929	0.258269	-0.659464	-0.275871	-0.649846	140.845015	-88.374614	83.541504
60789		9.782955	0.120073	-0.236006	-0.053881	0.025278	-0.026331	0.003426	0.001559	-0.011304	-0.967773	0.286377	0.303467	0.097830	0.001195	-0.002361	0.258245	-0.659439	-0.275918	-0.649861	140.650513	-88.371207	83.738049
60790		9.766633	0.186184	-0.264994	-0.029331	-0.042953	-0.040825	0.003299	0.006449	-0.009976	-0.971436	0.286133	0.302490	0.097666	0.001857	-0.002653	0.258268	-0.659388	-0.275937	-0.649895	140.443511	-88.374705	83.948744
60791		9.764029	0.137736	-0.210689	-0.025635	0.030047	-0.045494	-0.000646	0.004174	-0.014554	-0.972412	0.285889	0.302734	0.097640	0.001370	-0.002109	0.258224	-0.659355	-0.275978	-0.649929	140.163479	-88.371219	84.228519
60792		9.794494	0.141772	-0.261697	-0.060181	-0.007035	-0.013859	0.002389	0.003453	-0.011387	-0.975342	0.294434	0.305664	0.097945	0.001412	-0.002619	0.258203	-0.659330	-0.276015	-0.649947	139.974107	-88.368682	84.419297
60793		9.760831	0.135715	-0.258554	-0.063245	-0.000880	-0.047694	0.005321	0.002590	-0.011396	-0.965576	0.288818	0.306885	0.097608	0.001352	-0.002587	0.258187	-0.659299	-0.276067	-0.649963	139.768474	-88.365608	84.628064
60794		9.775545	0.159563	-0.236781	-0.031753	-0.001811	-0.033025	0.006683	0.002014	-0.014577	-0.980957	0.289795	0.300781	0.097756	0.001589	-0.002369	0.258181	-0.659266	-0.276125	-0.649974	139.578269	-88.362628	84.822846
60795		9.775529	0.160898	-0.236521	-0.031753	-0.001811	-0.033025	0.007164	0.003548	-0.013077	-0.970215	0.286133	0.298828	0.097755	0.001603	-0.002367	0.258167	-0.659227	-0.276186	-0.649993	139.337211	-88.359303	85.068110
60796		9.796037	0.148854	-0.236351	-0.040812	0.007320	-0.012756	0.003855	0.003021	-0.011391	-0.971191	0.288086	0.303467	0.097960	0.001483	-0.002365	0.258189	-0.659190	-0.276214	-0.650010	139.191970	-88.360889	85.217636
60797		9.760798	0.140679	-0.257127	-0.062754	-0.001966	-0.047691	0.001119	0.010092	-0.013318	-0.974854	0.299316	0.306152	0.097608	0.001400	-0.002576	0.258163	-0.659137	-0.276249	-0.650059	138.858840	-88.360251	85.551544
60798		9.781319	0.128732	-0.256655	-0.071638	0.007170	-0.027420	0.005270	0.002518	-0.012983	-0.960938	0.296631	0.296143	0.097813	0.001281	-0.002568	0.258186	-0.659103	-0.276285	-0.650069	138.731972	-88.360871	85.683612
60799		9.779736	0.127725	-0.280395	-0.090513	-0.008276	-0.028521	0.002208	0.008270	-0.011646	-0.970215	0.289307	0.306396	0.097797	0.001272	-0.002808	0.258167	-0.659057	-0.276320	-0.650109	138.448921	-88.360011	85.968045
60800		9.785462	0.182889	-0.284917	-0.056002	-0.051489	-0.021665	0.000314	0.007239	-0.011553	-0.973633	0.289795	0.306641	0.097855	0.001823	-0.002853	0.258200	-0.659010	-0.276324	-0.650141	138.286820	-88.364960	86.133462
60801		9.785463	0.184023	-0.284164	-0.056002	-0.051489	-0.021665	-0.002618	0.008101	-0.011544	-0.965820	0.284668	0.297852	0.097855	0.001835	-0.002846	0.258166	-0.658971	-0.276343	-0.650186	138.004337	-88.364006	86.414560
60802		9.805999	0.171877	-0.283380	-0.064854	-0.041624	-0.001392	-0.005071	0.010498	-0.010035	-0.969482	0.290771	0.306641	0.098060	0.001714	-0.002839	0.258142	-0.658943	-0.276342	-0.650225	137.804364	-88.364798	86.612348
60803		9.762389	0.149741	-0.228261	-0.042557	0.011528	-0.046582	-0.006588	0.010857	-0.011618	-0.962646	0.284424	0.300781	0.097624	0.001492	-0.002288	0.258098	-0.658900	-0.276345	-0.650285	137.481392	-88.364908	86.931674
60804		9.794478	0.155742	-0.254250	-0.057553	-0.009936	-0.013846	-0.003126	0.011601	-0.008539	-0.969482	0.291992	0.301514	0.097945	0.001553	-0.002548	0.258083	-0.658883	-0.276343	-0.650308	137.359103	-88.365368	87.052544
60805		9.760847	0.149539	-0.250176	-0.060628	-0.003770	-0.047679	-0.005732	0.013781	-0.011794	-0.968262	0.285645	0.303955	0.097608	0.001490	-0.002509	0.258045	-0.658829	-0.276346	-0.650377	136.993945	-88.366562	87.414563
60806		9.781393	0.137407	-0.249225	-0.068999	0.006000	-0.027400	-0.002566	0.008174	-0.009954	-0.970459	0.292969	0.300537	0.097814	0.001369	-0.002496	0.258040	-0.658819	-0.276348	-0.650389	136.927242	-88.366752	87.481016
60807		9.790397	0.106909	-0.221185	-0.071809	0.047464	-0.019587	-0.003309	0.016419	-0.008797	-0.972412	0.293701	0.302246	0.097904	0.001065	-0.002220	0.258023	-0.658757	-0.276345	-0.650459	136.570192	-88.370148	87.836312
60808		9.749341	0.134319	-0.219574	-0.051830	0.026634	-0.060123	-0.003227	0.011457	-0.011713	-0.969238	0.287109	0.297119	0.097493	0.001337	-0.002201	0.258059	-0.658734	-0.276325	-0.650477	136.529807	-88.375746	87.878074
60809		9.803535	0.129496	-0.221379	-0.058046	0.030386	-0.006017	-0.003227	0.011457	-0.011712	-0.971680	0.287598	0.305664	0.098035	0.001289	-0.002219	0.258027	-0.658684	-0.276338	-0.650534	136.197102	-88.375876	88.209067
60810		9.758345	0.105112	-0.190588	-0.053905	0.067891	-0.052301	-0.002138	0.009636	-0.010041	-0.968262	0.282227	0.303467	0.097583	0.001046	-0.001911	0.258022	-0.658662	-0.276340	-0.650558	136.067987	-88.376930	88.337965
60811		9.764013	0.160296	-0.194854	-0.019837	0.025784	-0.045469	-0.000345	0.010525	-0.013307	-0.973145	0.293701	0.302246	0.097640	0.001596	-0.001954	0.257992	-0.658610	-0.276369	-0.650610	135.726483	-88.375960	88.679411
60812		9.764012	0.161676	-0.193785	-0.018733	0.025579	-0.045466	-0.003328	0.011314	-0.014887	-0.968750	0.291748	0.301514	0.097640	0.001609	-0.001943	0.257974	-0.658589	-0.276374	-0.650636	135.578983	-88.375688	88.825751
60813		9.760925	0.158580	-0.241414	-0.056479	-0.005318	-0.047654	-0.004509	0.007069	-0.011449	-0.977783	0.292969	0.300781	0.097609	0.001580	-0.002418	0.257932	-0.658556	-0.276388	-0.650680	135.311411	-88.373973	89.090847
60814		9.764001	0.164253	-0.192146	-0.017231	0.024549	-0.045461	-0.007542	0.007786	-0.014616	-0.962646	0.293945	0.302490	0.097640	0.001635	-0.001925	0.257940	-0.658551	-0.276361	-0.650693	135.301229	-88.377172	89.099423
60815		9.796098	0.170677	-0.218423	-0.033008	0.002922	-0.012725	-0.007492	0.007858	-0.013028	-0.968262	0.282471	0.304932	0.097961	0.001700	-0.002188	0.257884	-0.658517	-0.276370	-0.650746	134.998397	-88.375117	89.398091
60816		9.784535	0.153717	-0.190843	-0.025369	0.034448	-0.025177	-0.008345	0.004933	-0.012854	-0.971680	0.294678	0.297852	0.097845	0.001531	-0.001911	0.257840	-0.658532	-0.276365	-0.650751	134.979051	-88.371923	89.413214
60817		9.775837	0.096487	-0.233644	-0.097183	0.045652	-0.034172	-0.003469	0.005177	-0.011364	-0.968506	0.293701	0.300293	0.097758	0.000959	-0.002339	0.257799	-0.658504	-0.276384	-0.650787	134.742548	-88.369407	89.647827
60818		9.769899	0.133561	-0.211433	-0.055148	0.033503	-0.039801	-0.003569	0.005035	-0.014538	-0.974609	0.288818	0.294922	0.097699	0.001328	-0.002117	0.257841	-0.658492	-0.276361	-0.650793	134.770504	-88.374789	89.621392
60819		9.788916	0.119712	-0.235245	-0.083302	0.027960	-0.020608	-0.003192	0.006426	-0.016213	-0.966553	0.289551	0.305420	0.097889	0.001189	-0.002356	0.257787	-0.658453	-0.276395	-0.650839	134.448192	-88.370810	89.942025
60820		9.769883	0.136423	-0.210319	-0.054067	0.032700	-0.039793	-0.002003	0.004748	-0.011366	-0.974854	0.293213	0.297852	0.097699	0.001359	-0.002106	0.257800	-0.658446	-0.276387	-0.650844	134.440159	-88.372721	89.950542
60821		9.760856	0.169175	-0.236995	-0.051249	-0.008768	-0.047628	-0.002391	-0.001747	-0.015784	-0.977783	0.291016	0.309570	0.097609	0.001684	-0.002369	0.257739	-0.658433	-0.276434	-0.650862	134.243167	-88.365610	90.146269
60822		9.756776	0.119033	-0.207263	-0.064328	0.047897	-0.053314	-0.009585	0.006537	-0.019285	-0.971436	0.292236	0.297607	0.097568	0.001181	-0.002076	0.257726	-0.658452	-0.276412	-0.650857	134.312006	-88.365546	90.074452
60823		9.756759	0.120755	-0.207049	-0.064320	0.047886	-0.053314	-0.005750	-0.002351	-0.015690	-0.972168	0.286133	0.300293	0.097568	0.001200	-0.002069	0.257654	-0.658445	-0.276448	-0.650877	134.125044	-88.358228	90.258223
60824		9.795933	0.183732	-0.215189	-0.026117	-0.001465	-0.012703	-0.005374	-0.000959	-0.017363	-0.966309	0.286377	0.306885	0.097959	0.001829	-0.002151	0.257636	-0.658447	-0.276449	-0.650882	134.097394	-88.356964	90.284434
60825		9.768248	0.142437	-0.234152	-0.069785	0.015263	-0.040856	-0.004997	0.000433	-0.019037	-0.966797	0.288818	0.301270	0.097683	0.001415	-0.002342	0.257559	-0.658426	-0.276494	-0.650915	133.826256	-88.349371	90.552857
60826		9.760706	0.177904	-0.236766	-0.046660	-0.010727	-0.047607	-0.002490	-0.001888	-0.018957	-0.974121	0.296387	0.298340	0.097607	0.001770	-0.002367	0.257509	-0.658456	-0.276535	-0.650886	133.885557	-88.340749	90.492852
60827		9.800290	0.151133	-0.261553	-0.084075	-0.006373	-0.008106	-0.004708	-0.004243	-0.015605	-0.966309	0.282227	0.306885	0.098003	0.001504	-0.002613	0.257438	-0.658455	-0.276577	-0.650898	133.732674	-88.332675	90.643128
60828		9.787206	0.132538	-0.259026	-0.094839	0.009152	-0.021620	0.001621	0.001502	-0.022398	-0.978760	0.288574	0.297363	0.097872	0.001314	-0.002591	0.257423	-0.658460	-0.276621	-0.650879	133.736785	-88.327442	90.641654
60829		9.785661	0.132158	-0.283110	-0.113693	-0.006311	-0.022702	0.000403	0.002286	-0.014458	-0.967041	0.290283	0.305420	0.097857	0.001315	-0.002832	0.257381	-0.658433	-0.276667	-0.650905	133.512512	-88.322415	90.866282
60830		9.765065	0.147017	-0.282690	-0.102736	-0.017060	-0.042980	0.003989	0.004072	-0.020986	-0.967529	0.288818	0.302002	0.097651	0.001460	-0.002829	0.257394	-0.658426	-0.276703	-0.650891	133.508629	-88.320387	90.874475
60831		9.784111	0.133514	-0.306673	-0.130861	-0.022622	-0.023762	-0.000688	0.004106	-0.016127	-0.968018	0.287842	0.308594	0.097841	0.001327	-0.003069	0.257346	-0.658392	-0.276749	-0.650926	133.237413	-88.315371	91.145450
60832		9.817722	0.142516	-0.309064	-0.125569	-0.028721	0.010087	0.000729	0.003607	-0.017717	-0.968750	0.289551	0.308350	0.098177	0.001416	-0.003092	0.257330	-0.658424	-0.276787	-0.650882	133.379486	-88.309048	91.005427
60833		9.798646	0.159490	-0.284143	-0.097403	-0.023183	-0.009136	-0.001305	0.007460	-0.016296	-0.965576	0.292236	0.303467	0.097986	0.001587	-0.002845	0.257284	-0.658380	-0.276826	-0.650929	133.062579	-88.305233	91.321751
60834		9.802600	0.212826	-0.312761	-0.079434	-0.080894	-0.003445	-0.003715	0.009921	-0.013201	-0.974121	0.292725	0.302002	0.098026	0.002122	-0.003133	0.257299	-0.658418	-0.276817	-0.650888	133.289888	-88.304844	91.094921
60835		9.778061	0.175443	-0.282189	-0.085352	-0.033254	-0.029411	-0.010058	0.010097	-0.014687	-0.959961	0.293945	0.314453	0.097781	0.001747	-0.002827	0.257233	-0.658379	-0.276818	-0.650953	132.956233	-88.302718	91.422983
60836		9.773538	0.170384	-0.353708	-0.138441	-0.079706	-0.032572	-0.008359	0.015950	-0.015032	-0.978760	0.292725	0.299072	0.097735	0.001696	-0.003545	0.257250	-0.658426	-0.276789	-0.650911	133.227865	-88.303614	91.150238
60837		9.798684	0.165223	-0.279545	-0.091017	-0.023447	-0.009075	-0.010626	0.013521	-0.013269	-0.968262	0.280518	0.303955	0.097987	0.001646	-0.002802	0.257192	-0.658380	-0.276780	-0.650985	132.869510	-88.303413	91.502686
60838		9.744488	0.172290	-0.275215	-0.083291	-0.027294	-0.063186	-0.009777	0.016448	-0.013440	-0.969482	0.282959	0.302002	0.097445	0.001716	-0.002760	0.257175	-0.658370	-0.276753	-0.651013	132.776931	-88.305228	91.591448
60839		9.798724	0.168058	-0.276406	-0.089303	-0.023595	-0.009060	-0.001690	0.017098	-0.016801	-0.966797	0.296387	0.302979	0.097987	0.001672	-0.002772	0.257139	-0.658295	-0.276780	-0.651091	132.325303	-88.304830	92.042332
60840		9.784240	0.146896	-0.296258	-0.118363	-0.023240	-0.023605	0.002190	0.019312	-0.013805	-0.969238	0.286133	0.299805	0.097842	0.001462	-0.002972	0.257183	-0.658276	-0.276782	-0.651093	132.311928	-88.308574	92.059619
60841		9.776687	0.181830	-0.296871	-0.096608	-0.049253	-0.030406	-0.000744	0.020166	-0.013798	-0.964111	0.280518	0.302979	0.097767	0.001812	-0.002979	0.257165	-0.658194	-0.276797	-0.651176	131.856718	-88.310549	92.514639
60842		9.804930	0.136432	-0.292189	-0.126431	-0.012630	-0.003279	0.008761	0.025420	-0.012654	-0.969238	0.281006	0.308350	0.098049	0.001358	-0.002934	0.257185	-0.658126	-0.276851	-0.651214	131.554038	-88.310854	92.823762
60843		9.754703	0.195251	-0.316191	-0.105055	-0.073898	-0.051753	0.001849	0.029017	-0.012725	-0.969727	0.288574	0.299316	0.097547	0.001946	-0.003176	0.257191	-0.658014	-0.276860	-0.651321	130.982472	-88.316406	93.396656
60844		9.794513	0.168123	-0.337925	-0.140312	-0.068674	-0.012150	0.001002	0.026090	-0.012552	-0.969482	0.282715	0.306885	0.097945	0.001675	-0.003392	0.257200	-0.657988	-0.276884	-0.651334	130.867562	-88.316319	93.514341
60845		9.820611	0.210291	-0.340020	-0.115360	-0.100859	0.014863	0.002973	0.038296	-0.011646	-0.964844	0.287354	0.307617	0.098206	0.002097	-0.003419	0.257225	-0.657846	-0.276881	-0.651468	130.168743	-88.325523	94.215163
60846		9.775552	0.185382	-0.306782	-0.109193	-0.061522	-0.031369	-0.000619	0.036505	-0.005122	-0.962891	0.288086	0.298584	0.097755	0.001851	-0.003086	0.257257	-0.657835	-0.276877	-0.651469	130.168879	-88.328592	94.217390
60847		9.775655	0.186134	-0.303018	-0.109093	-0.061504	-0.031368	-0.009140	0.040314	-0.009954	-0.971191	0.280518	0.299316	0.097756	0.001856	-0.003050	0.257251	-0.657705	-0.276827	-0.651623	129.448566	-88.338937	94.932726
60848		9.815560	0.158644	-0.323268	-0.145036	-0.056705	0.008241	-0.003373	0.043568	-0.007038	-0.969482	0.282715	0.305420	0.098155	0.001583	-0.003254	0.257293	-0.657605	-0.276791	-0.651723	128.977927	-88.349729	95.403775
60849		9.774467	0.185440	-0.318726	-0.126470	-0.076502	-0.032384	-0.005413	0.047418	-0.005615	-0.974609	0.283203	0.300537	0.097744	0.001852	-0.003210	0.257323	-0.657454	-0.276729	-0.651890	128.185273	-88.364105	96.193610
60850		9.785045	0.156710	-0.262752	-0.108102	-0.018072	-0.023475	-0.008921	0.051695	-0.004191	-0.971924	0.282715	0.303711	0.097850	0.001565	-0.002653	0.257344	-0.657383	-0.276680	-0.651974	127.815318	-88.373037	96.561127
60851		9.787771	0.207038	-0.311290	-0.111615	-0.091044	-0.018838	-0.005229	0.053628	-0.007530	-0.968994	0.287842	0.306396	0.097877	0.002067	-0.003139	0.257376	-0.657208	-0.276618	-0.652163	126.877648	-88.388125	97.496095
60852		9.770082	0.224990	-0.257201	-0.061327	-0.068441	-0.037063	-0.006756	0.059083	-0.003017	-0.973633	0.287842	0.303711	0.097700	0.002248	-0.002601	0.257431	-0.657147	-0.276552	-0.652231	126.606353	-88.400221	97.766355
60853		9.758594	0.206903	-0.224411	-0.054791	-0.036846	-0.049544	-0.016982	0.062137	-0.001424	-0.968262	0.288818	0.303955	0.097585	0.002068	-0.002275	0.257456	-0.656970	-0.276421	-0.652456	125.569253	-88.420349	98.794003
60854		9.804010	0.232856	-0.247490	-0.054188	-0.073617	-0.003216	-0.019068	0.065916	-0.001585	-0.967041	0.288818	0.300293	0.098039	0.002328	-0.002507	0.257512	-0.656911	-0.276272	-0.652555	125.250232	-88.439454	99.104802
60855		9.763808	0.169309	-0.257722	-0.110282	-0.040773	-0.044719	-0.024272	0.064337	0.000172	-0.979492	0.289795	0.296387	0.097637	0.001693	-0.002609	0.257521	-0.656739	-0.276108	-0.652795	124.151454	-88.460341	100.189937
60856		9.779189	0.102115	-0.246243	-0.150609	0.011170	-0.031031	-0.020869	0.065018	0.001685	-0.966064	0.292725	0.304443	0.097791	0.001022	-0.002494	0.257603	-0.656652	-0.275919	-0.652930	123.652211	-88.485465	100.679636
60857		9.771746	0.135664	-0.242307	-0.128782	-0.014780	-0.037856	-0.018596	0.067449	-0.000058	-0.976807	0.291260	0.294189	0.097717	0.001356	-0.002456	0.257634	-0.656462	-0.275771	-0.653171	122.443832	-88.506416	101.877659
60858		9.779510	0.102132	-0.233130	-0.146470	0.010958	-0.030968	-0.018594	0.067449	-0.000050	-0.973877	0.290771	0.300781	0.097794	0.001021	-0.002364	0.257740	-0.656392	-0.275569	-0.653285	122.044116	-88.533447	102.268822
60859		9.739703	0.130548	-0.202342	-0.109019	0.006630	-0.070620	-0.010450	0.068176	-0.001782	-0.974365	0.294189	0.293457	0.097396	0.001305	-0.002057	0.257794	-0.656188	-0.275451	-0.653518	120.750073	-88.552946	103.557202
60860		9.821379	0.168101	-0.178444	-0.067251	-0.006922	0.011518	-0.013920	0.072520	0.001230	-0.966553	0.288330	0.302246	0.098213	0.001681	-0.001820	0.257933	-0.656090	-0.275243	-0.653649	120.177218	-88.583526	104.123827
60861		9.776091	0.142116	-0.142352	-0.063930	0.030820	-0.034785	-0.022911	0.068865	0.003131	-0.973877	0.291016	0.297119	0.097760	0.001423	-0.001457	0.257965	-0.655907	-0.275066	-0.653896	118.851032	-88.604690	105.437222
60862		9.806162	0.143122	-0.210804	-0.113248	-0.020983	-0.003892	-0.018204	0.068842	-0.001692	-0.971191	0.285645	0.298828	0.098061	0.001430	-0.002142	0.258039	-0.655841	-0.274910	-0.653997	118.377363	-88.624794	105.903641
60863		9.781469	0.104371	-0.174579	-0.119100	0.026676	-0.029865	-0.021292	0.074580	-0.000347	-0.969727	0.283936	0.302734	0.097814	0.001043	-0.001782	0.258072	-0.655633	-0.274743	-0.654263	116.831640	-88.644649	107.437529
60864		9.753385	0.151259	-0.169943	-0.084782	-0.006993	-0.057020	-0.027662	0.074682	-0.003450	-0.979248	0.291748	0.290771	0.097533	0.001511	-0.001736	0.258071	-0.655557	-0.274622	-0.654391	116.156520	-88.655519	108.101912
60865		9.761096	0.118135	-0.160040	-0.106178	0.019060	-0.050161	-0.024340	0.075225	-0.005097	-0.976563	0.292480	0.287598	0.097610	0.001179	-0.001637	0.258078	-0.655345	-0.274459	-0.654668	114.487047	-88.671512	109.757759
60866		9.816619	0.114904	-0.130388	-0.090464	0.036597	0.004985	-0.022333	0.076468	-0.000400	-0.978516	0.289551	0.294922	0.098166	0.001149	-0.001342	0.258197	-0.655194	-0.274189	-0.654886	113.216773	-88.703931	111.014515
60867		9.775479	0.141194	-0.123301	-0.071855	0.016795	-0.035690	-0.026152	0.074324	-0.001833	-0.963379	0.294189	0.299072	0.097754	0.001411	-0.001270	0.258209	-0.654991	-0.274010	-0.655159	111.501143	-88.719589	112.715525
60868		9.761426	0.118965	-0.137727	-0.098554	0.017665	-0.050079	-0.024950	0.078578	-0.005230	-0.968750	0.287598	0.292236	0.097614	0.001187	-0.001416	0.258283	-0.654917	-0.273798	-0.655293	110.714718	-88.742445	113.489848
60869		9.783230	0.108662	-0.105851	-0.088532	0.043077	-0.028777	-0.030077	0.071975	-0.008023	-0.978027	0.283447	0.285645	0.097832	0.001083	-0.001094	0.258260	-0.654720	-0.273629	-0.655569	108.931484	-88.752702	115.256205
60870		9.774629	0.140903	-0.125706	-0.084083	0.001808	-0.036596	-0.028997	0.070153	-0.006345	-0.972412	0.290771	0.289551	0.097746	0.001406	-0.001292	0.258268	-0.654572	-0.273460	-0.655784	107.527115	-88.765059	116.646452
60871		9.805033	0.099050	-0.067359	-0.076846	0.068681	-0.007464	-0.030039	0.072042	-0.006419	-0.979004	0.288330	0.289795	0.098050	0.000987	-0.000709	0.258250	-0.654377	-0.273286	-0.656058	105.698907	-88.774033	118.457801
60872		9.801953	0.093504	-0.133150	-0.130387	0.021818	-0.010276	-0.026678	0.072654	-0.006470	-0.969482	0.299316	0.286377	0.098019	0.000932	-0.001367	0.258302	-0.654260	-0.273072	-0.656244	104.421947	-88.792427	119.720525
60873		9.781418	0.107476	-0.126175	-0.120910	0.011924	-0.030620	-0.021527	0.074102	-0.011350	-0.976563	0.292969	0.292725	0.097814	0.001069	-0.001298	0.258299	-0.654041	-0.272939	-0.656519	102.456772	-88.796844	121.673752
60874		9.794529	0.128985	-0.121026	-0.103574	-0.006041	-0.017111	-0.020611	0.077164	-0.008315	-0.971436	0.288086	0.286865	0.097945	0.001286	-0.001248	0.258429	-0.653946	-0.272658	-0.656679	101.185312	-88.825941	122.931867
60875		9.766392	0.176478	-0.116138	-0.072416	-0.041950	-0.044370	-0.021652	0.079053	-0.008387	-0.977051	0.296387	0.285889	0.097664	0.001761	-0.001200	0.258443	-0.653715	-0.272507	-0.656965	99.039203	-88.830397	125.066032
60876		9.803624	0.234810	-0.163656	-0.069170	-0.122434	-0.005895	-0.021226	0.080517	-0.008451	-0.978271	0.285156	0.291992	0.098036	0.002344	-0.001676	0.258543	-0.653567	-0.272266	-0.657173	97.323869	-88.850343	126.768949
60877		9.791659	0.216891	-0.128865	-0.062423	-0.090907	-0.018400	-0.035347	0.086501	-0.002257	-0.976563	0.293213	0.290283	0.097916	0.002168	-0.001331	0.258545	-0.653339	-0.272039	-0.657494	94.922161	-88.855868	129.150942
60878		9.833013	0.191040	-0.119617	-0.076473	-0.070098	0.022361	-0.041213	0.088202	-0.002283	-0.982666	0.291992	0.288574	0.098330	0.001909	-0.001240	0.258570	-0.653244	-0.271798	-0.657678	93.497094	-88.869571	130.557102
60879		9.831314	0.187218	-0.159091	-0.113785	-0.101042	0.020518	-0.046818	0.096251	-0.001017	-0.985107	0.293457	0.292969	0.098312	0.001871	-0.001639	0.258551	-0.653001	-0.271517	-0.658043	90.763021	-88.872751	133.264913
60880		9.809087	0.196457	-0.198256	-0.137233	-0.141544	-0.001612	-0.058127	0.101117	-0.001155	-0.974365	0.282715	0.285645	0.098090	0.001963	-0.002033	0.258569	-0.652914	-0.271155	-0.658270	88.948145	-88.891624	135.049655
60881		9.781083	0.243044	-0.190643	-0.106028	-0.177460	-0.028912	-0.063648	0.109360	0.004880	-0.978516	0.287842	0.286133	0.097810	0.002432	-0.001961	0.258532	-0.652658	-0.270782	-0.658692	85.758174	-88.893508	138.203785
60882		9.817917	0.164268	-0.149807	-0.136933	-0.098606	0.006296	-0.061466	0.116809	0.007734	-0.971924	0.280273	0.288574	0.098178	0.001646	-0.001556	0.258533	-0.652458	-0.270452	-0.659026	83.110382	-88.897305	140.822830
60883		9.800573	0.224690	-0.215757	-0.149782	-0.196994	-0.010289	-0.059258	0.124320	0.012181	-0.976074	0.284912	0.282471	0.098004	0.002252	-0.002219	0.258554	-0.652157	-0.270050	-0.659480	79.451584	-88.895576	144.448354
60884		9.819958	0.206687	-0.251369	-0.194153	-0.215480	0.008379	-0.070139	0.130652	0.011975	-0.982422	0.289063	0.281982	0.098198	0.002072	-0.002579	0.258536	-0.651930	-0.269712	-0.659850	76.610188	-88.890103	147.258721
60885		9.816283	0.155190	-0.184883	-0.190131	-0.142452	0.003688	-0.075694	0.138825	0.016441	-0.977783	0.288330	0.280273	0.098161	0.001559	-0.001918	0.258537	-0.651608	-0.269223	-0.660367	72.576164	-88.880394	151.250078
60886		9.815226	0.243060	-0.153338	-0.112137	-0.194570	0.004176	-0.083544	0.144557	0.022618	-0.989990	0.279785	0.281738	0.098151	0.002441	-0.001605	0.258578	-0.651381	-0.268673	-0.660799	68.877704	-88.881248	154.904120
60887		9.783824	0.145633	-0.130415	-0.170937	-0.120346	-0.029144	-0.102559	0.150218	0.025651	-0.976807	0.287109	0.282471	0.097837	0.001468	-0.001378	0.258536	-0.651068	-0.268050	-0.661376	64.569111	-88.863346	159.154728
60888		9.812805	0.098412	-0.088213	-0.179993	-0.066262	-0.000868	-0.093516	0.153942	0.025524	-0.988281	0.288086	0.281250	0.098127	0.000996	-0.000958	0.258517	-0.650825	-0.267562	-0.661820	61.282825	-88.846394	162.396809
60889		9.781617	0.095908	0.026024	-0.107515	0.001825	-0.031157	-0.088445	0.160409	0.025297	-0.986816	0.292969	0.276611	0.097816	0.000972	0.000181	0.258532	-0.650460	-0.266974	-0.662410	57.051584	-88.814461	166.578142
60890		9.823878	0.070913	0.091537	-0.083811	0.053245	0.011371	-0.096214	0.161018	0.023738	-0.983398	0.290283	0.271240	0.098239	0.000721	0.000836	0.258560	-0.650227	-0.266347	-0.662881	53.396584	-88.796081	170.180886
60891		9.783404	0.003259	0.064164	-0.158713	0.070527	-0.030615	-0.095763	0.162541	0.025320	-0.981934	0.286377	0.272705	0.097835	0.000045	0.000562	0.258554	-0.649864	-0.265731	-0.663486	49.544006	-88.752349	173.979365
60892		9.784704	0.006238	0.152839	-0.099642	0.116965	-0.027996	-0.094153	0.157122	0.020814	-0.988525	0.287598	0.277100	0.097848	0.000073	0.001451	0.258566	-0.649574	-0.265121	-0.664009	46.159119	-88.715306	177.312341
60893		9.790530	0.060182	0.188825	-0.046051	0.090421	-0.020678	-0.100666	0.162013	0.015896	-0.985352	0.279053	0.273682	0.097907	0.000611	0.001809	0.258512	-0.649205	-0.264520	-0.664631	42.986311	-88.658591	-179.571792
60894		9.784964	0.005821	0.232421	-0.058692	0.150609	-0.026297	-0.091470	0.149926	0.019604	-0.986328	0.294434	0.265381	0.097851	0.000069	0.002251	0.258474	-0.648960	-0.264061	-0.665067	40.814192	-88.618533	-177.442760
60895		9.731037	0.013108	0.296119	-0.014895	0.177827	-0.078774	-0.091941	0.148240	0.013348	-0.978027	0.282227	0.267822	0.097313	0.000139	0.002889	0.258420	-0.648622	-0.263514	-0.665634	38.328943	-88.560997	-175.009593
60896		9.785212	0.007697	0.334268	0.000673	0.196565	-0.023739	-0.092214	0.141793	0.008855	-0.986328	0.292969	0.272949	0.097854	0.000083	0.003273	0.258384	-0.648351	-0.262945	-0.666137	36.015921	-88.512162	-172.749160
60897		9.764166	0.019865	0.347125	0.010262	0.186683	-0.044122	-0.088089	0.134065	0.004416	-0.984131	0.291260	0.276123	0.097644	0.000202	0.003406	0.258294	-0.648043	-0.262458	-0.666664	34.211884	-88.453880	-170.995096
60898		9.730511	0.015214	0.409375	0.050071	0.224456	-0.076273	-0.085855	0.125304	-0.000002	-0.978516	0.286865	0.270264	0.097308	0.000154	0.004033	0.258240	-0.647936	-0.261964	-0.666982	32.648731	-88.427454	-169.479578
60899		9.757785	-0.033473	0.399621	0.001101	0.244940	-0.049738	-0.088427	0.116469	-0.001265	-0.985352	0.289063	0.260010	0.097580	-0.000334	0.003940	0.258107	-0.647681	-0.261516	-0.667458	31.340566	-88.373825	-168.221723
60900		9.757735	-0.030279	0.459301	0.041473	0.275547	-0.048078	-0.073181	0.108681	-0.005664	-0.986572	0.282471	0.265381	0.097580	-0.000304	0.004540	0.258039	-0.647492	-0.261101	-0.667830	30.101369	-88.333448	-167.024401
60901		9.710396	-0.057536	0.471573	0.025914	0.297781	-0.095274	-0.069494	0.099343	-0.014850	-0.988770	0.295898	0.260254	0.097106	-0.000581	0.004668	0.257900	-0.647251	-0.260782	-0.668241	29.337863	-88.283211	-166.300523
60902		9.743528	-0.050348	0.455440	0.013199	0.275099	-0.062280	-0.059315	0.085095	-0.019070	-0.986084	0.289063	0.265869	0.097437	-0.000511	0.004513	0.257808	-0.647100	-0.260447	-0.668554	28.514686	-88.248440	-165.514268
60903		9.709848	-0.051373	0.537140	0.066817	0.327701	-0.093611	-0.048455	0.078648	-0.021956	-0.986572	0.273438	0.264893	0.097101	-0.000523	0.005333	0.257686	-0.646892	-0.260248	-0.668880	28.131423	-88.206235	-165.158701
60904		9.737496	-0.095869	0.546994	0.037905	0.365242	-0.066284	-0.035958	0.066805	-0.029431	-0.988037	0.283691	0.261475	0.097377	-0.000972	0.005438	0.257562	-0.646746	-0.260202	-0.669086	28.220701	-88.177162	-165.262624
60905		9.716509	-0.081147	0.527789	0.028669	0.339888	-0.087496	-0.023461	0.054915	-0.038496	-0.982910	0.284180	0.262207	0.097166	-0.000830	0.005251	0.257434	-0.646564	-0.260171	-0.669323	28.330006	-88.142482	-165.385592
60906		9.742432	-0.037653	0.505498	0.036882	0.292081	-0.061520	-0.015778	0.042945	-0.044414	-0.986084	0.279785	0.273193	0.097425	-0.000398	0.005034	0.257321	-0.646445	-0.260173	-0.669481	28.526687	-88.119093	-165.591737
60907		9.762776	-0.047715	0.485540	0.009602	0.286588	-0.041935	-0.012487	0.032255	-0.050406	-0.986572	0.272705	0.264404	0.097628	-0.000501	0.004840	0.257159	-0.646309	-0.260246	-0.669646	29.000066	-88.092517	-166.072702
60908		9.747444	0.020016	0.411105	-0.001597	0.191435	-0.058436	-0.011267	0.025447	-0.053357	-0.989258	0.287109	0.268311	0.097475	0.000174	0.004099	0.256950	-0.646266	-0.260484	-0.669675	30.051649	-88.081675	-167.121669
60909		9.773448	0.065092	0.386372	0.005380	0.143953	-0.032450	-0.012554	0.020856	-0.059576	-0.980469	0.281494	0.258301	0.097735	0.000622	0.003853	0.256740	-0.646158	-0.260602	-0.669814	30.733040	-88.057747	-167.810916
60910		9.773166	0.066168	0.314994	-0.048242	0.096806	-0.034821	-0.011321	0.014245	-0.056174	-0.982910	0.283447	0.265869	0.097732	0.000634	0.003143	0.256578	-0.646152	-0.260647	-0.669865	31.191026	-88.050379	-168.279087
60911		9.801160	0.022256	0.270361	-0.115963	0.101865	-0.008989	0.002293	0.011690	-0.062340	-0.991211	0.281738	0.261230	0.098012	0.000192	0.002698	0.256396	-0.646052	-0.260834	-0.669958	31.975104	-88.029738	-169.062589
60912		9.785901	0.094034	0.242995	-0.088790	0.033984	-0.023780	0.013409	0.011699	-0.060657	-0.986328	0.283203	0.265381	0.097859	0.000910	0.002424	0.256288	-0.646012	-0.260995	-0.669975	32.572158	-88.021144	-169.654944
60913		9.785766	0.098422	0.219856	-0.106999	0.018611	-0.024560	0.028307	0.013794	-0.059008	-0.985107	0.283203	0.262207	0.097858	0.000955	0.002192	0.256203	-0.645877	-0.261256	-0.670036	33.280579	-88.000005	-170.347855
60914		9.798743	0.126548	0.244255	-0.072198	0.017273	-0.010365	0.031662	0.014313	-0.062169	-0.986572	0.279053	0.261963	0.097988	0.001235	0.002436	0.256164	-0.645820	-0.261453	-0.670029	33.799372	-87.992030	-170.852886
60915		9.749678	0.192155	0.241910	-0.031917	-0.028470	-0.058210	0.039423	0.013763	-0.058902	-0.983643	0.280273	0.263428	0.097498	0.001892	0.002413	0.256115	-0.645672	-0.261751	-0.670074	34.489443	-87.970570	-171.521080
60916		9.770124	0.181927	0.195326	-0.076185	-0.049692	-0.039341	0.033556	0.015454	-0.058998	-0.987061	0.279541	0.256836	0.097702	0.001790	0.001946	0.256076	-0.645586	-0.261986	-0.670080	35.058361	-87.958182	-172.072902
60917		9.785402	0.123591	0.249785	-0.080994	0.033357	-0.023710	0.032091	0.015926	-0.057430	-0.981445	0.279541	0.267822	0.097855	0.001207	0.002490	0.256011	-0.645442	-0.262252	-0.670140	35.681437	-87.935792	-172.678291
60918		9.785319	0.130846	0.275438	-0.059461	0.048453	-0.022918	0.037115	0.011308	-0.057232	-0.985840	0.287109	0.262207	0.097854	0.001280	0.002749	0.255988	-0.645374	-0.262484	-0.670123	36.217185	-87.926613	-173.195755
60919		9.751577	0.130420	0.301454	-0.043539	0.070173	-0.055930	0.037538	0.012774	-0.057268	-0.985596	0.275879	0.259033	0.097516	0.001276	0.003009	0.255938	-0.645235	-0.262771	-0.670164	36.849370	-87.905399	-173.807157
60920		9.805805	0.130834	0.302938	-0.045987	0.072517	-0.001708	0.043830	0.012608	-0.055611	-0.991455	0.283691	0.268066	0.098059	0.001280	0.003023	0.255964	-0.645155	-0.262961	-0.670155	37.167291	-87.896329	-174.106168
60921		9.764318	0.165585	0.351122	0.010417	0.083718	-0.041020	0.041941	0.011460	-0.058760	-0.989746	0.276855	0.257324	0.097644	0.001626	0.003506	0.255922	-0.645013	-0.263269	-0.670188	37.812666	-87.874927	-174.728241
60922		9.777105	0.190372	0.326448	0.007250	0.051497	-0.028420	0.037119	0.011358	-0.055617	-0.982666	0.276611	0.267334	0.097772	0.001876	0.003259	0.255914	-0.644959	-0.263475	-0.670162	38.251086	-87.867774	-175.149320
60923		9.789887	0.216600	0.325983	0.020632	0.035544	-0.015066	0.041103	0.008633	-0.055484	-0.989746	0.278809	0.267090	0.097900	0.002138	0.003256	0.255877	-0.644832	-0.263773	-0.670181	38.864689	-87.848482	-175.740092
60924		9.776823	0.199730	0.303883	-0.006860	0.037070	-0.029177	0.048235	0.011460	-0.052327	-0.980469	0.277588	0.268799	0.097769	0.001971	0.003034	0.255896	-0.644813	-0.264069	-0.670075	39.505569	-87.848473	-176.353522
60925		9.781763	0.262556	0.349641	0.065893	0.026093	-0.021413	0.050961	0.004286	-0.053643	-0.979492	0.277344	0.260498	0.097818	0.002598	0.003495	0.255890	-0.644692	-0.264400	-0.670064	40.131426	-87.831476	-176.950953
60926		9.765928	0.329842	0.272474	0.056234	-0.072150	-0.037821	0.051800	0.007432	-0.047382	-0.981689	0.280518	0.261475	0.097660	0.003275	0.002722	0.255938	-0.644677	-0.264657	-0.669959	40.632976	-87.832885	-177.425891
60927		9.745010	0.347381	0.272244	0.065983	-0.081951	-0.058256	0.045928	0.009158	-0.045903	-0.995850	0.275146	0.266113	0.097451	0.003451	0.002719	0.255948	-0.644557	-0.264939	-0.669959	41.107979	-87.816467	-177.875274
60928		9.786334	0.324317	0.250444	0.032418	-0.077689	-0.018141	0.038168	0.009996	-0.039652	-0.991943	0.285400	0.266113	0.097864	0.003223	0.002500	0.255984	-0.644536	-0.265121	-0.669893	41.442388	-87.815936	-178.190747
60929		9.827704	0.299132	0.204588	-0.022361	-0.088630	0.021271	0.039423	0.014505	-0.036614	-0.987793	0.284912	0.261719	0.098278	0.002973	0.002039	0.256012	-0.644420	-0.265344	-0.669906	41.748200	-87.800666	-178.474562
60930		9.776157	0.218150	0.187331	-0.086891	-0.041884	-0.032779	0.038372	0.016498	-0.033514	-0.992188	0.286377	0.257324	0.097762	0.002165	0.001866	0.256123	-0.644438	-0.265368	-0.669836	41.644454	-87.809803	-178.359127
60931		9.776011	0.224666	0.237731	-0.048278	-0.010823	-0.031331	0.048854	0.020030	-0.028762	-0.993408	0.272705	0.267578	0.097761	0.002232	0.002368	0.256216	-0.644302	-0.265589	-0.669843	41.809053	-87.795360	-178.496191
60932		9.780827	0.281681	0.235886	-0.010950	-0.053627	-0.025115	0.052625	0.022241	-0.025619	-0.985107	0.279541	0.263672	0.097809	0.002804	0.002349	0.256372	-0.644233	-0.265731	-0.669795	41.776894	-87.794158	-178.438039
60933		9.772706	0.321346	0.284352	0.049258	-0.048570	-0.030811	0.045284	0.024268	-0.027350	-0.992188	0.281494	0.260986	0.097728	0.003199	0.002832	0.256465	-0.644089	-0.265930	-0.669818	41.879731	-87.778532	-178.515340
60934		9.759807	0.299574	0.239236	0.002401	-0.064314	-0.045566	0.036683	0.022228	-0.019431	-0.991699	0.272461	0.261475	0.097599	0.002986	0.002382	0.256594	-0.644066	-0.265979	-0.669771	41.747583	-87.782522	-178.367576
60935		9.746769	0.284390	0.291541	0.028393	-0.017197	-0.057470	0.030810	0.023836	-0.021136	-0.986328	0.284912	0.261719	0.097468	0.002833	0.002904	0.256661	-0.643952	-0.266110	-0.669803	41.777200	-87.769599	-178.379895
60936		9.796187	0.225616	0.273601	-0.026909	0.012787	-0.010129	0.031443	0.020542	-0.019423	-0.996338	0.279297	0.262695	0.097962	0.002246	0.002726	0.256759	-0.643920	-0.266181	-0.669768	41.732263	-87.770631	-178.320200
60937		9.783204	0.208558	0.301473	-0.019776	0.044438	-0.022739	0.028921	0.022898	-0.017945	-0.990234	0.284424	0.252197	0.097833	0.002076	0.003004	0.256830	-0.643816	-0.266296	-0.669795	41.734857	-87.759432	-178.306560
60938		9.770276	0.189755	0.305070	-0.030000	0.058451	-0.036029	0.031861	0.022010	-0.019465	-0.979980	0.279297	0.256836	0.097703	0.001888	0.003040	0.256950	-0.643751	-0.266287	-0.669815	41.429263	-87.756554	-177.991178
60939		9.757233	0.174467	0.356997	-0.003978	0.105549	-0.047939	0.028307	0.015146	-0.017671	-0.987793	0.270752	0.261475	0.097573	0.001736	0.003563	0.257010	-0.643675	-0.266409	-0.669817	41.502307	-87.748840	-178.048360
60940		9.785752	0.133629	0.410590	0.005249	0.172568	-0.018935	0.022017	0.015283	-0.019335	-0.992188	0.280762	0.257813	0.097858	0.001326	0.004099	0.257052	-0.643639	-0.266501	-0.669799	41.593826	-87.746151	-178.128153
60941		9.761905	0.232705	0.355494	0.033097	0.063738	-0.041804	0.025816	0.006170	-0.022134	-0.991455	0.282959	0.263672	0.097619	0.002316	0.003552	0.257076	-0.643590	-0.266640	-0.669781	41.800239	-87.740633	-178.320247
60942		9.782543	0.224036	0.381322	0.046446	0.087968	-0.020658	0.014287	0.004615	-0.023801	-0.998291	0.276611	0.261475	0.097826	0.002228	0.003811	0.257099	-0.643638	-0.266643	-0.669725	41.834620	-87.748993	-178.352445
60943		9.769680	0.205593	0.383056	0.034731	0.104143	-0.033955	0.010098	0.001101	-0.022136	-0.985596	0.275146	0.261719	0.097697	0.002045	0.003830	0.257067	-0.643627	-0.266735	-0.669712	42.079898	-87.745715	-178.592434
60944		9.790502	0.193324	0.359723	0.009071	0.099071	-0.014177	0.009684	-0.000424	-0.023672	-0.982666	0.271729	0.267090	0.097905	0.001921	0.003598	0.257037	-0.643660	-0.266837	-0.669651	42.407696	-87.749109	-178.913988
60945		9.790463	0.195749	0.359474	0.010047	0.099174	-0.014179	0.011794	-0.004246	-0.025094	-0.989502	0.278076	0.260986	0.097905	0.001945	0.003597	0.256993	-0.643661	-0.266952	-0.669621	42.738636	-87.746889	-179.238750
60946		9.782495	0.230017	0.332026	0.015461	0.058753	-0.022045	0.012435	-0.007654	-0.026548	-0.998047	0.284180	0.263916	0.097825	0.002287	0.003324	0.256945	-0.643741	-0.267096	-0.669505	43.259140	-87.755988	-179.750940
60947		9.756978	0.189362	0.309842	-0.027814	0.075561	-0.049287	0.015374	-0.008482	-0.026481	-0.990479	0.281738	0.258301	0.097570	0.001880	0.003103	0.256902	-0.643750	-0.267233	-0.669458	43.651480	-87.754892	179.864875
60948		9.769733	0.212661	0.307349	-0.011899	0.057799	-0.035986	0.014541	-0.011359	-0.024798	-0.991455	0.279785	0.252686	0.097697	0.002114	0.003079	0.256905	-0.643843	-0.267231	-0.669368	43.784193	-87.768753	179.732240
60949		9.782482	0.235962	0.304682	0.001806	0.041823	-0.022707	0.016013	-0.011831	-0.026348	-0.983887	0.278564	0.257568	0.097825	0.002346	0.003053	0.256861	-0.643863	-0.267373	-0.669309	44.209986	-87.769052	179.314968
60950		9.774474	0.270251	0.276620	0.005851	-0.001815	-0.030568	0.006367	-0.012285	-0.026445	-0.988525	0.276367	0.258301	0.097745	0.002690	0.002772	0.256817	-0.643900	-0.267354	-0.669298	44.291741	-87.771868	179.227710
60951		9.803440	0.222970	0.230393	-0.061280	0.003300	-0.004197	0.010548	-0.008650	-0.024941	-0.992188	0.281006	0.262451	0.098035	0.002217	0.002308	0.256765	-0.643919	-0.267468	-0.669254	44.664908	-87.771317	178.860003
60952		9.774582	0.269741	0.201778	-0.047575	-0.049012	-0.032542	0.008021	-0.006297	-0.023470	-0.984863	0.284180	0.270996	0.097746	0.002686	0.002021	0.256741	-0.643973	-0.267494	-0.669202	44.847285	-87.777654	178.677620
60953		9.816300	0.242941	0.154717	-0.101988	-0.059985	0.007124	0.011145	-0.000780	-0.022049	-0.986572	0.278564	0.261475	0.098163	0.002419	0.001548	0.256711	-0.643968	-0.267591	-0.669178	45.108412	-87.775019	178.422390
60954		9.841857	0.283039	0.103197	-0.110071	-0.123382	0.032391	0.011332	0.005505	-0.022278	-0.991943	0.279785	0.259766	0.098419	0.002819	0.001029	0.256726	-0.644058	-0.267602	-0.669081	45.259055	-87.789036	178.273911
60955		9.787331	0.291465	0.127869	-0.085193	-0.111607	-0.021189	0.006688	0.011737	-0.017803	-0.991943	0.276367	0.265381	0.097874	0.002906	0.001273	0.256713	-0.644025	-0.267654	-0.669098	45.342308	-87.783210	178.194129
60956		9.837085	0.232692	0.109182	-0.140916	-0.081537	0.026408	-0.002953	0.011157	-0.021068	-0.998047	0.278320	0.257568	0.098371	0.002317	0.001086	0.256679	-0.644042	-0.267644	-0.669098	45.401573	-87.783778	178.131069
60957		9.795360	0.259781	0.109014	-0.122230	-0.101301	-0.014563	-0.000299	0.026545	-0.013672	-0.990234	0.274902	0.257080	0.097954	0.002591	0.001077	0.256678	-0.643974	-0.267640	-0.669166	45.281873	-87.773725	178.250384
60958		9.816047	0.250173	0.137022	-0.111310	-0.077000	0.006570	-0.008064	0.027198	-0.012203	-0.997559	0.270508	0.261963	0.098161	0.002496	0.001357	0.256676	-0.643899	-0.267552	-0.669274	44.961311	-87.762821	178.563121
60959		9.799848	0.316562	0.110546	-0.086113	-0.144400	-0.008546	-0.008290	0.031955	-0.013965	-0.990234	0.276123	0.251709	0.097999	0.003159	0.001090	0.256655	-0.643822	-0.267515	-0.669371	44.786398	-87.750387	178.733127
60960		9.807882	0.284233	0.116529	-0.107373	-0.118703	-0.001301	-0.027408	0.037489	-0.009644	-0.990234	0.280762	0.258057	0.098079	0.002838	0.001147	0.256599	-0.643723	-0.267392	-0.669537	44.441565	-87.732676	179.062430
60961		9.824035	0.218147	0.125558	-0.149350	-0.066602	0.013211	-0.027640	0.042364	-0.008236	-0.994873	0.269775	0.261963	0.098241	0.002178	0.001234	0.256549	-0.643643	-0.267258	-0.669686	44.097013	-87.718135	179.391122
60962		9.823958	0.219008	0.130042	-0.147757	-0.066592	0.013235	-0.024513	0.047766	-0.009974	-0.992188	0.273438	0.257813	0.098240	0.002185	0.001277	0.256522	-0.643555	-0.267127	-0.669833	43.714564	-87.703756	179.759863
60963		9.785314	0.162901	0.212342	-0.128167	0.028103	-0.024593	-0.022220	0.050350	-0.008447	-0.986572	0.271484	0.251221	0.097854	0.001625	0.002099	0.256500	-0.643442	-0.267002	-0.670001	43.306392	-87.685655	-179.844661
60964		9.789794	0.217784	0.213498	-0.093592	-0.014409	-0.018602	-0.021402	0.053403	-0.005370	-0.990479	0.269531	0.263672	0.097899	0.002175	0.002109	0.256497	-0.643291	-0.266856	-0.670204	42.775657	-87.663167	-179.326728
60965		9.768674	0.232868	0.241795	-0.064861	-0.008811	-0.038466	-0.019692	0.048058	-0.008323	-0.985840	0.273682	0.264160	0.097687	0.002325	0.002394	0.256480	-0.643182	-0.266742	-0.670361	42.402920	-87.645781	-178.965250
60966		9.784598	0.168491	0.276298	-0.086609	0.060446	-0.023309	-0.026858	0.056402	-0.008713	-0.986572	0.274658	0.262451	0.097847	0.001681	0.002735	0.256437	-0.643112	-0.266660	-0.670477	42.198875	-87.632722	-178.772018
60967		9.768179	0.236357	0.276829	-0.042537	0.008504	-0.037825	-0.019083	0.055697	-0.011747	-0.996582	0.271973	0.257813	0.097683	0.002358	0.002741	0.256420	-0.642972	-0.266550	-0.670662	41.802505	-87.610684	-178.386562
60968		9.809678	0.212028	0.284510	-0.058218	0.029054	0.003190	-0.025381	0.055933	-0.010253	-0.992432	0.284180	0.257813	0.098098	0.002116	0.002817	0.256389	-0.642874	-0.266433	-0.670814	41.474843	-87.594018	-178.071628
60969		9.800946	0.250024	0.336214	0.002139	0.034031	-0.002849	-0.022434	0.055053	-0.011761	-0.987549	0.281250	0.259521	0.098011	0.002495	0.003335	0.256360	-0.642740	-0.266313	-0.671001	41.096039	-87.572085	-177.705679
60970		9.767625	0.239307	0.293341	-0.035914	0.007804	-0.037798	-0.023505	0.057047	-0.008668	-0.991455	0.276123	0.254883	0.097677	0.002389	0.002905	0.256393	-0.642690	-0.266052	-0.671140	40.437424	-87.565360	-177.066892
60971		9.800984	0.248301	0.298833	-0.030872	0.001716	-0.004054	-0.021201	0.059516	-0.010300	-0.998047	0.277100	0.247314	0.098011	0.002478	0.002959	0.256380	-0.642543	-0.265924	-0.671336	40.017907	-87.541850	-176.659457
60972		9.800531	0.250981	0.328899	-0.011173	0.015682	-0.003447	-0.025379	0.055934	-0.010234	-0.993164	0.277100	0.252686	0.098006	0.002505	0.003261	0.256375	-0.642390	-0.265717	-0.671566	39.424292	-87.517544	-176.084115
60973		9.766760	0.243536	0.335015	-0.014066	0.021921	-0.037184	-0.028162	0.063211	-0.005762	-0.996582	0.288086	0.259033	0.097669	0.002433	0.003319	0.256360	-0.642245	-0.265546	-0.671778	38.940118	-87.493686	-175.615918
60974		9.761400	0.193269	0.393481	-0.007409	0.093338	-0.041897	-0.024981	0.057516	-0.007099	-0.983643	0.275146	0.255859	0.097615	0.001930	0.003906	0.256395	-0.642173	-0.265285	-0.671937	38.282346	-87.482735	-174.977773
60975		9.808011	0.219519	0.348906	-0.027399	0.040229	0.003862	-0.022021	0.056582	-0.010186	-0.993164	0.270020	0.261963	0.098081	0.002191	0.003461	0.256377	-0.642036	-0.265158	-0.672125	37.914798	-87.459996	-174.622760
60976		9.746190	0.253177	0.278017	-0.055467	-0.034615	-0.059466	-0.024970	0.057460	-0.008672	-0.990479	0.277344	0.253662	0.097463	0.002528	0.002752	0.256350	-0.641955	-0.265055	-0.672253	37.671093	-87.445533	-174.390192
60977		9.799761	0.252782	0.333210	-0.021327	0.000089	-0.004029	-0.031040	0.052875	-0.007027	-0.992432	0.269043	0.251953	0.097999	0.002525	0.003306	0.256308	-0.641847	-0.264892	-0.672436	37.306797	-87.425481	-174.043620
60978		9.753302	0.224407	0.340107	-0.036830	0.022373	-0.050973	-0.037564	0.057868	-0.007295	-0.995850	0.275391	0.252197	0.097534	0.002241	0.003372	0.256255	-0.641734	-0.264699	-0.672640	36.901073	-87.403733	-173.659135
60979		9.816327	0.183637	0.300720	-0.099759	0.021314	0.009431	-0.040503	0.058690	-0.007365	-0.990234	0.273682	0.255615	0.098164	0.001833	0.002978	0.256189	-0.641618	-0.264497	-0.672855	36.502974	-87.380682	-173.284142
60980		9.774438	0.209708	0.304256	-0.080473	0.001527	-0.031598	-0.030422	0.060521	-0.010417	-0.990723	0.274170	0.256348	0.097745	0.002092	0.003013	0.256158	-0.641503	-0.264328	-0.673043	36.122829	-87.359747	-172.921282
60981		9.781987	0.178847	0.337180	-0.081958	0.043054	-0.023695	-0.035888	0.063634	-0.010605	-0.995361	0.280273	0.250244	0.097821	0.001784	0.003340	0.256103	-0.641360	-0.264146	-0.673272	35.737224	-87.333108	-172.556139
60982		9.778548	0.265996	0.313181	-0.042735	-0.041027	-0.025689	-0.035036	0.066463	-0.013844	-0.998535	0.279053	0.250000	0.097787	0.002654	0.003099	0.256068	-0.641244	-0.263926	-0.673482	35.278454	-87.311086	-172.119425
60983		9.798748	0.255993	0.345139	-0.031453	-0.015601	-0.004585	-0.057070	0.061684	-0.009321	-0.998291	0.279297	0.258545	0.097989	0.002556	0.003420	0.255946	-0.641137	-0.263671	-0.673731	34.895846	-87.285586	-171.769414
60984		9.772242	0.218517	0.402653	-0.016397	0.046923	-0.029840	-0.058744	0.066805	-0.012673	-0.990234	0.275146	0.247314	0.097724	0.002180	0.003993	0.255847	-0.641063	-0.263361	-0.673960	34.411657	-87.265545	-171.320670
60985		9.797786	0.259441	0.382534	-0.008660	-0.000660	-0.004009	-0.067343	0.064505	-0.011162	-1.000488	0.274414	0.252686	0.097979	0.002590	0.003793	0.255690	-0.640957	-0.263073	-0.674232	34.035730	-87.237926	-170.983222
60986		9.758965	0.199487	0.416765	-0.026522	0.062678	-0.043028	-0.070678	0.063806	-0.012776	-0.994385	0.275635	0.251465	0.097591	0.001990	0.004136	0.255531	-0.640865	-0.262754	-0.674504	33.623525	-87.211862	-170.612390
60987		9.737824	0.212929	0.421886	-0.016687	0.052808	-0.063560	-0.064416	0.063738	-0.009472	-0.994141	0.273438	0.249268	0.097380	0.002126	0.004187	0.255389	-0.640760	-0.262471	-0.674768	33.251607	-87.184928	-170.277258
60988		9.750227	0.234548	0.426984	-0.002080	0.036478	-0.050366	-0.070029	0.060460	-0.012641	-0.991455	0.271973	0.248047	0.097504	0.002341	0.004240	0.255228	-0.640692	-0.262161	-0.675015	32.886355	-87.162399	-169.952864
60989		9.762623	0.256386	0.431993	0.011809	0.020428	-0.037178	-0.071481	0.060820	-0.014253	-0.994141	0.272705	0.249512	0.097628	0.002558	0.004289	0.255043	-0.640599	-0.261873	-0.675284	32.587051	-87.135215	-169.694473
60990		9.749121	0.238086	0.463375	0.019386	0.051916	-0.049814	-0.077142	0.057695	-0.012674	-0.994385	0.278809	0.252197	0.097493	0.002376	0.004605	0.254847	-0.640536	-0.261557	-0.675540	32.275284	-87.111681	-169.427059
60991		9.799243	0.178617	0.449500	-0.037265	0.082382	-0.001931	-0.080921	0.055627	-0.011091	-0.994141	0.281738	0.255615	0.097994	0.001783	0.004467	0.254635	-0.640477	-0.261234	-0.675801	31.981600	-87.087852	-169.179699
60992		9.806596	0.147683	0.481563	-0.035798	0.123119	0.005998	-0.076851	0.052732	-0.017258	-0.991943	0.270264	0.249756	0.098067	0.001470	0.004789	0.254455	-0.640512	-0.260864	-0.675979	31.619061	-87.079339	-168.864953
60993		9.772788	0.140866	0.486385	-0.038728	0.129340	-0.027721	-0.074716	0.048926	-0.018684	-0.993896	0.280518	0.254150	0.097729	0.001401	0.004839	0.254229	-0.640458	-0.260594	-0.676219	31.447044	-87.056494	-168.735850
60994		9.746034	0.103642	0.541694	-0.023539	0.192296	-0.052984	-0.075931	0.044471	-0.020162	-0.991455	0.270996	0.253418	0.097462	0.001029	0.005395	0.254010	-0.640481	-0.260294	-0.676394	31.257467	-87.045489	-168.591332
60995		9.805246	0.153824	0.519844	-0.011628	0.138511	0.006550	-0.068308	0.037510	-0.022983	-1.003906	0.273926	0.250244	0.098054	0.001529	0.005180	0.253776	-0.640453	-0.260074	-0.676595	31.198716	-87.026997	-168.571970
60996		9.748832	0.164560	0.595204	0.051796	0.181474	-0.046139	-0.067857	0.038886	-0.026170	-0.983398	0.277100	0.254883	0.097490	0.001635	0.005933	0.253542	-0.640450	-0.259870	-0.676763	31.179300	-87.012902	-168.590521
60997		9.778272	0.119276	0.577462	0.003925	0.202016	-0.018737	-0.063777	0.025037	-0.027307	-0.990479	0.272217	0.251709	0.097784	0.001181	0.005762	0.253290	-0.640452	-0.259694	-0.676923	31.235078	-86.999277	-168.683255
60998		9.749613	0.166557	0.552278	0.018922	0.150577	-0.047204	-0.066637	0.025673	-0.033713	-0.992188	0.268311	0.251221	0.097497	0.001651	0.005510	0.253032	-0.640542	-0.259478	-0.677017	31.277343	-86.998365	-168.766771
60999		9.770317	0.156877	0.555610	0.011444	0.160538	-0.026651	-0.056930	0.015053	-0.033241	-0.992920	0.261963	0.249268	0.097704	0.001554	0.005548	0.252770	-0.640562	-0.259358	-0.677142	31.447514	-86.987958	-168.970135
61000		9.762566	0.192066	0.530600	0.015009	0.120261	-0.034578	-0.049539	0.012919	-0.036200	-0.994385	0.274170	0.247559	0.097626	0.001904	0.005299	0.252501	-0.640577	-0.259337	-0.677236	31.789621	-86.977983	-169.337345
61001		9.770689	0.161956	0.533784	-0.005258	0.146331	-0.027184	-0.042989	0.007892	-0.037522	-0.999023	0.277832	0.249756	0.097707	0.001602	0.005334	0.252259	-0.640598	-0.259287	-0.677326	32.046102	-86.969661	-169.619162
61002		9.788206	0.239267	0.506367	0.025408	0.070990	-0.008763	-0.037518	0.004789	-0.037331	-0.997559	0.272461	0.244141	0.097883	0.002375	0.005061	0.252069	-0.640661	-0.259146	-0.677391	32.105536	-86.968749	-169.707335
61003		9.774864	0.223114	0.531872	0.032715	0.102567	-0.021414	-0.031006	-0.000148	-0.035491	-1.003906	0.270752	0.252930	0.097749	0.002215	0.005318	0.251862	-0.640697	-0.259139	-0.677436	32.393837	-86.964897	-170.014128
61004		9.767749	0.257430	0.481039	0.017761	0.044754	-0.029832	-0.034704	-0.002402	-0.040263	-0.999268	0.264893	0.238281	0.097678	0.002555	0.004811	0.251643	-0.640740	-0.259088	-0.677496	32.627995	-86.960864	-170.271781
61005		9.780881	0.280610	0.455831	0.012848	0.013244	-0.017188	-0.037276	-0.000030	-0.037198	-1.001221	0.261719	0.242188	0.097809	0.002789	0.004558	0.251411	-0.640781	-0.259065	-0.677552	32.925492	-86.956271	-170.591375
61006		9.780778	0.284008	0.455941	0.011202	0.012282	-0.017184	-0.032476	0.000261	-0.035520	-0.993408	0.266357	0.250244	0.097808	0.002823	0.004559	0.251189	-0.640708	-0.259049	-0.677710	33.149942	-86.934506	-170.836277
61007		9.790252	0.251191	0.409350	-0.046883	0.007458	-0.010777	-0.033966	0.000711	-0.033973	-1.000732	0.259766	0.249756	0.097903	0.002496	0.004093	0.250979	-0.640746	-0.259027	-0.677761	33.412568	-86.930290	-171.119047
61008		9.817194	0.292386	0.335027	-0.077343	-0.070325	0.014016	-0.027901	0.005330	-0.035538	-1.003662	0.269043	0.254639	0.098173	0.002907	0.003347	0.250773	-0.640744	-0.259068	-0.677823	33.750498	-86.920946	-171.471190
61009		9.818957	0.291829	0.262685	-0.132892	-0.116604	0.012526	-0.028576	0.008720	-0.034043	-0.993896	0.272461	0.257813	0.098190	0.002902	0.002622	0.250590	-0.640748	-0.259054	-0.677892	33.967952	-86.912725	-171.705644
61010		9.818828	0.294947	0.264026	-0.129605	-0.116485	0.012572	-0.034339	0.016717	-0.031171	-0.995361	0.260986	0.251709	0.098189	0.002935	0.002632	0.250431	-0.640811	-0.258974	-0.677922	34.084965	-86.913957	-171.843529
61011		9.786480	0.286811	0.216851	-0.170408	-0.141140	-0.022105	-0.036099	0.022025	-0.028156	-0.999023	0.263916	0.244141	0.097865	0.002855	0.002157	0.250261	-0.640787	-0.258899	-0.678036	34.165855	-86.901343	-171.945548
61012		9.765407	0.302088	0.218420	-0.161446	-0.150906	-0.042667	-0.039517	0.032431	-0.030039	-0.997559	0.270264	0.244629	0.097655	0.003007	0.002168	0.250078	-0.640699	-0.258826	-0.678214	34.225022	-86.878293	-172.026747
61013		9.800035	0.310692	0.173544	-0.193909	-0.187929	-0.009912	-0.042093	0.034796	-0.026971	-1.002441	0.270020	0.255127	0.098001	0.003094	0.001718	0.249909	-0.640641	-0.258711	-0.678376	34.215710	-86.859961	-172.041876
61014		9.786004	0.294910	0.227213	-0.166785	-0.142071	-0.022056	-0.049519	0.047890	-0.028988	-0.999756	0.265381	0.246338	0.097861	0.002935	0.002248	0.249760	-0.640570	-0.258490	-0.678582	34.005907	-86.839344	-171.864046
61015		9.828362	0.271105	0.210481	-0.201757	-0.137643	0.018632	-0.053862	0.055556	-0.022901	-0.997070	0.261475	0.249512	0.098285	0.002700	0.002077	0.249594	-0.640461	-0.258296	-0.678820	33.835991	-86.812471	-171.725068
61016		9.806542	0.287034	0.239478	-0.173346	-0.132198	-0.001445	-0.054091	0.060335	-0.024582	-1.000244	0.265381	0.246338	0.098066	0.002859	0.002364	0.249430	-0.640321	-0.258102	-0.679086	33.650323	-86.780902	-171.570156
61017		9.784665	0.302937	0.269147	-0.144640	-0.126653	-0.021522	-0.057964	0.069350	-0.023257	-1.003418	0.265381	0.241943	0.097848	0.003019	0.002657	0.249268	-0.640169	-0.257878	-0.679373	33.409845	-86.747255	-171.362849
61018		9.778136	0.254007	0.351709	-0.121629	-0.039342	-0.025766	-0.069549	0.067889	-0.018713	-0.988525	0.274902	0.243652	0.097783	0.002532	0.003483	0.249101	-0.640010	-0.257558	-0.679706	33.030283	-86.710867	-171.025137
61019		9.804987	0.213436	0.434803	-0.093773	0.042921	0.003714	-0.062780	0.069098	-0.023327	-0.999023	0.266846	0.245850	0.098052	0.002124	0.004313	0.248923	-0.639865	-0.257318	-0.679999	32.799074	-86.677151	-170.829851
61020		9.782169	0.230169	0.489226	-0.044681	0.061731	-0.015885	-0.057985	0.069394	-0.021632	-0.997803	0.261963	0.247070	0.097824	0.002293	0.004858	0.248822	-0.639752	-0.256960	-0.680277	32.319803	-86.650257	-170.390161
61021		9.754436	0.193667	0.570226	-0.012405	0.140256	-0.040694	-0.059151	0.064907	-0.024727	-1.004639	0.263184	0.239502	0.097546	0.001926	0.005670	0.248646	-0.639614	-0.256741	-0.680553	32.132829	-86.618047	-170.237070
61022		9.765736	0.217929	0.600360	0.019831	0.139037	-0.027097	-0.045480	0.062703	-0.025951	-1.004150	0.260498	0.252441	0.097660	0.002168	0.005972	0.248514	-0.639436	-0.256563	-0.680837	31.937060	-86.582024	-170.067879
61023		9.742739	0.234964	0.653922	0.067429	0.159988	-0.046744	-0.046265	0.059724	-0.027488	-0.996582	0.266602	0.248779	0.097430	0.002338	0.006510	0.248363	-0.639296	-0.256403	-0.681083	31.812160	-86.551406	-169.969560
61024		9.739085	0.181946	0.637558	0.016786	0.187350	-0.052873	-0.028585	0.054841	-0.028568	-1.004150	0.268066	0.237305	0.097393	0.001806	0.006349	0.248266	-0.639201	-0.256329	-0.681236	31.772358	-86.531360	-169.944393
61025		9.784635	0.214132	0.642946	0.035025	0.165039	-0.006064	-0.017193	0.050103	-0.029796	-1.000732	0.265137	0.238281	0.097848	0.002127	0.006405	0.248188	-0.639055	-0.256287	-0.681417	31.733056	-86.504771	-169.915148
61026		9.785108	0.216002	0.623236	0.016709	0.147148	-0.006491	-0.009121	0.044667	-0.032671	-0.999023	0.257080	0.246338	0.097853	0.002144	0.006210	0.248159	-0.638873	-0.256181	-0.681637	31.527004	-86.473913	-169.720518
61027		9.782504	0.162403	0.580924	-0.054186	0.158415	-0.013034	-0.001158	0.039376	-0.029219	-0.995117	0.259766	0.244141	0.097826	0.001610	0.005790	0.248121	-0.638744	-0.256205	-0.681763	31.545155	-86.452678	-169.739602
61028		9.762106	0.177064	0.559239	-0.063226	0.133819	-0.034093	0.004637	0.042368	-0.038628	-0.993408	0.261963	0.248535	0.097623	0.001752	0.005572	0.248060	-0.638596	-0.256309	-0.681885	31.694386	-86.428610	-169.884820
61029		9.768391	0.231734	0.487831	-0.084545	0.045376	-0.029849	0.011910	0.040461	-0.033666	-1.000000	0.263184	0.246094	0.097685	0.002301	0.004859	0.248049	-0.638441	-0.256391	-0.682003	31.748619	-86.405508	-169.932568
61030		9.781452	0.255355	0.466783	-0.087857	0.014062	-0.017179	0.013120	0.038408	-0.041511	-1.002197	0.262451	0.239990	0.097816	0.002533	0.004649	0.248026	-0.638341	-0.256492	-0.682067	31.869496	-86.390519	-170.046492
61031		9.808751	0.297917	0.396541	-0.117739	-0.064468	0.007678	0.009023	0.041195	-0.036907	-1.002197	0.263428	0.243164	0.098089	0.002961	0.003945	0.247997	-0.638183	-0.256574	-0.682195	31.941847	-86.366127	-170.114059
61032		9.819739	0.264851	0.329534	-0.194441	-0.085641	0.013852	0.007290	0.046415	-0.037038	-1.003174	0.255615	0.251465	0.098199	0.002630	0.003273	0.247989	-0.638012	-0.256598	-0.682349	31.902220	-86.339764	-170.072663
61033		9.819483	0.268513	0.334187	-0.193253	-0.085650	0.013875	0.004750	0.048691	-0.037136	-0.999023	0.255371	0.239014	0.098196	0.002667	0.003318	0.247955	-0.637834	-0.256656	-0.682506	31.937009	-86.311651	-170.105041
61034		9.798207	0.284568	0.338039	-0.183465	-0.094104	-0.006690	0.005696	0.057926	-0.037268	-0.999268	0.259521	0.253662	0.097984	0.002827	0.003352	0.247910	-0.637634	-0.256778	-0.682663	32.061229	-86.280636	-170.222123
61035		9.775944	0.301807	0.366922	-0.154802	-0.088583	-0.026831	0.005463	0.062709	-0.038934	-0.999756	0.259521	0.249512	0.097761	0.002999	0.003639	0.247890	-0.637405	-0.256828	-0.682866	32.043914	-86.245168	-170.201896
61036		9.766040	0.339748	0.395737	-0.110727	-0.097336	-0.033841	0.003169	0.066636	-0.031142	-1.006592	0.267578	0.241211	0.097662	0.003382	0.003925	0.247889	-0.637280	-0.256892	-0.682958	32.074053	-86.226916	-170.226224
61037		9.778058	0.364061	0.401889	-0.096678	-0.113434	-0.020739	0.005540	0.069073	-0.035861	-0.996826	0.263184	0.243164	0.097783	0.003623	0.003985	0.247887	-0.637034	-0.256924	-0.683176	32.006301	-86.189393	-170.155429
61038		9.778630	0.366327	0.384819	-0.112559	-0.130022	-0.021145	-0.000944	0.080384	-0.033055	-0.999023	0.249023	0.240234	0.097788	0.003647	0.003809	0.247931	-0.636818	-0.256827	-0.683399	31.735333	-86.156676	-169.888662
61039		9.798180	0.358326	0.418664	-0.100982	-0.104671	-0.000102	0.003205	0.084002	-0.032994	-1.002930	0.256104	0.238770	0.097984	0.003567	0.004146	0.247951	-0.636527	-0.256822	-0.683664	31.583406	-86.112755	-169.734826
61040		9.783233	0.342680	0.476231	-0.075470	-0.056380	-0.012331	-0.003786	0.087512	-0.031652	-1.001953	0.259277	0.238037	0.097835	0.003411	0.004719	0.247929	-0.636218	-0.256862	-0.683944	31.527357	-86.064976	-169.676542
61041		9.765420	0.412347	0.481194	-0.031462	-0.108417	-0.027379	-0.010813	0.091057	-0.028731	-1.000244	0.259033	0.233887	0.097657	0.004110	0.004767	0.247928	-0.635926	-0.256788	-0.684244	31.313890	-86.018814	-169.469065
61042		9.736860	0.376171	0.564055	0.001062	-0.030548	-0.052300	-0.017171	0.091255	-0.025737	-1.001221	0.259033	0.245117	0.097372	0.003750	0.005596	0.247933	-0.635651	-0.256646	-0.684551	31.020169	-85.974415	-169.186650
61043		9.784716	0.322764	0.626759	0.001617	0.046182	-0.002717	-0.018241	0.093129	-0.025785	-1.005127	0.254395	0.233643	0.097850	0.003216	0.006222	0.247920	-0.635364	-0.256534	-0.684864	30.783642	-85.927970	-168.960295
61044		9.771679	0.304197	0.636324	-0.009221	0.063092	-0.015796	-0.019676	0.093494	-0.027402	-1.004150	0.255859	0.240967	0.097720	0.003029	0.006317	0.247896	-0.635110	-0.256451	-0.685139	30.611355	-85.886448	-168.796790
61045		9.756335	0.287808	0.694538	0.016946	0.110085	-0.028063	-0.015296	0.092334	-0.025659	-1.001953	0.255127	0.236572	0.097567	0.002866	0.006900	0.247892	-0.634822	-0.256350	-0.685445	30.388520	-85.840349	-168.582455
61046		9.798862	0.264414	0.682171	-0.016913	0.115600	0.012755	-0.018006	0.088350	-0.024083	-1.001953	0.264893	0.237305	0.097992	0.002633	0.006778	0.247872	-0.634594	-0.256281	-0.685690	30.245859	-85.803124	-168.446940
61047		9.789513	0.299926	0.688960	0.005699	0.089596	0.005211	-0.022861	0.088109	-0.022633	-0.999268	0.256348	0.241211	0.097898	0.002989	0.006846	0.247848	-0.634334	-0.256150	-0.685987	30.023469	-85.759926	-168.237387
61048		9.756690	0.292293	0.671863	-0.013774	0.080553	-0.028867	-0.023581	0.085094	-0.025761	-1.000732	0.251953	0.237061	0.097570	0.002911	0.006677	0.247831	-0.634176	-0.255999	-0.686196	29.808763	-85.732340	-168.036873
61049		9.800587	0.267983	0.634683	-0.067399	0.069547	0.011607	-0.030229	0.083708	-0.027517	-1.004150	0.259277	0.226563	0.098009	0.002667	0.006305	0.247762	-0.633935	-0.255863	-0.686494	29.638675	-85.689922	-167.883990
61050		9.777837	0.226455	0.594805	-0.129507	0.070907	-0.015271	-0.030107	0.083605	-0.032245	-1.012939	0.262207	0.232910	0.097781	0.002250	0.005907	0.247680	-0.633697	-0.255738	-0.686790	29.497975	-85.647598	-167.760642
61051		9.815745	0.233937	0.507229	-0.199557	0.003009	0.016912	-0.019317	0.088621	-0.030380	-1.007080	0.252197	0.229980	0.098160	0.002325	0.005029	0.247642	-0.633421	-0.255642	-0.687094	29.340746	-85.601864	-167.614370
61052		9.768016	0.349229	0.508639	-0.125364	-0.085204	-0.026380	-0.022219	0.089384	-0.032054	-0.999756	0.252441	0.226807	0.097683	0.003477	0.005042	0.247600	-0.633152	-0.255527	-0.687400	29.170732	-85.556630	-167.457264
61053		9.761363	0.383119	0.467324	-0.140579	-0.142074	-0.034681	-0.034087	0.099027	-0.024657	-1.000488	0.262695	0.228760	0.097616	0.003820	0.004624	0.247548	-0.632866	-0.255350	-0.687748	28.938032	-85.507206	-167.243760
61054		9.808286	0.356700	0.383370	-0.231122	-0.184889	0.005106	-0.032492	0.104924	-0.024670	-1.003418	0.255127	0.235596	0.098085	0.003556	0.003782	0.247532	-0.632585	-0.255108	-0.688102	28.606864	-85.458593	-166.934274
61055		9.821449	0.378986	0.369928	-0.235914	-0.216415	0.017818	-0.027077	0.119301	-0.023081	-1.007080	0.259277	0.221436	0.098217	0.003779	0.003640	0.247533	-0.632222	-0.254924	-0.688503	28.309841	-85.399233	-166.652176
61056		9.791107	0.426759	0.378517	-0.203745	-0.252698	-0.010351	-0.023213	0.127750	-0.023038	-1.007568	0.261475	0.220947	0.097914	0.004257	0.003722	0.247577	-0.631861	-0.254710	-0.688898	27.950845	-85.341081	-166.307070
61057		9.820090	0.524072	0.365037	-0.161364	-0.342479	0.020863	-0.042510	0.139403	-0.014347	-1.002930	0.254639	0.229980	0.098204	0.005234	0.003581	0.247585	-0.631459	-0.254420	-0.689370	27.541819	-85.273606	-165.921416
61058		9.781715	0.519175	0.450929	-0.106630	-0.290729	-0.011722	-0.055431	0.150877	-0.008593	-1.006592	0.257324	0.224609	0.097821	0.005189	0.004434	0.247613	-0.631077	-0.254000	-0.689865	26.993772	-85.207095	-165.406356
61059		9.764135	0.501375	0.539385	-0.061536	-0.228316	-0.023678	-0.078058	0.155456	-0.004685	-1.004395	0.253174	0.225342	0.097646	0.005014	0.005316	0.247563	-0.630676	-0.253536	-0.690420	26.481580	-85.133375	-164.937527
61060		9.732453	0.462832	0.652721	-0.009308	-0.134072	-0.048323	-0.086243	0.160886	-0.000262	-1.013428	0.255859	0.223877	0.097330	0.004631	0.006447	0.247520	-0.630312	-0.253025	-0.690955	25.935801	-85.064434	-164.438723
61061		9.695662	0.426667	0.838988	0.098544	0.006175	-0.071946	-0.097065	0.155903	-0.000569	-1.007080	0.255615	0.221191	0.096963	0.004270	0.008312	0.247424	-0.629937	-0.252482	-0.691530	25.416255	-84.990819	-163.973348
61062		9.693336	0.397921	1.001978	0.192807	0.124986	-0.062290	-0.113948	0.146245	0.000510	-1.015625	0.259277	0.217285	0.096941	0.003985	0.009947	0.247279	-0.629649	-0.251891	-0.692060	24.916541	-84.927515	-163.536482
61063		9.667720	0.325526	1.139723	0.241449	0.260399	-0.079053	-0.117065	0.140781	0.002068	-1.007568	0.241699	0.223145	0.096685	0.003263	0.011327	0.247109	-0.629354	-0.251289	-0.692607	24.437221	-84.861733	-163.122904
61064		9.713732	0.324152	1.254332	0.314134	0.327163	-0.023444	-0.114251	0.127348	-0.000827	-1.010498	0.252441	0.226318	0.097145	0.003248	0.012480	0.246908	-0.629096	-0.250797	-0.693091	24.105614	-84.803204	-162.850402
61065		9.675434	0.315645	1.313057	0.348760	0.364230	-0.056486	-0.108205	0.114650	-0.000450	-1.005127	0.255127	0.220215	0.096762	0.003163	0.013073	0.246724	-0.628876	-0.250266	-0.693548	23.731608	-84.750043	-162.537411
61066		9.658244	0.294870	1.372071	0.376766	0.412501	-0.069018	-0.103695	0.096027	-0.001686	-1.015869	0.247314	0.211914	0.096589	0.002955	0.013673	0.246529	-0.628790	-0.249816	-0.693858	23.460853	-84.719002	-162.321996
61067		9.686798	0.248263	1.384343	0.348201	0.448464	-0.040803	-0.091313	0.076840	-0.005781	-1.011475	0.252197	0.222656	0.096873	0.002486	0.013805	0.246333	-0.628673	-0.249406	-0.694180	23.229756	-84.684308	-162.142783
61068		9.684056	0.192529	1.368389	0.295797	0.476357	-0.046620	-0.066750	0.062293	-0.006257	-1.010986	0.247803	0.214600	0.096845	0.001927	0.013653	0.246177	-0.628567	-0.249172	-0.694416	23.130785	-84.656833	-162.077134
61069		9.707884	0.234744	1.374149	0.322895	0.444167	-0.020606	-0.044737	0.043670	-0.009987	-1.017334	0.252197	0.218018	0.097082	0.002346	0.013720	0.246071	-0.628503	-0.248978	-0.694581	23.033563	-84.638596	-162.005570
61070		9.723260	0.254826	1.329451	0.298794	0.398112	-0.008281	-0.037160	0.030545	-0.011183	-1.012695	0.250977	0.213379	0.097235	0.002545	0.013279	0.245953	-0.628462	-0.248885	-0.694693	23.040308	-84.626188	-162.030383
61071		9.707385	0.265551	1.256653	0.251753	0.341907	-0.029910	-0.021606	0.012111	-0.010445	-1.008545	0.252930	0.215576	0.097075	0.002652	0.012560	0.245878	-0.628479	-0.248813	-0.694731	23.034979	-84.624477	-162.037810
61072		9.714575	0.263480	1.159849	0.177260	0.280096	-0.031186	-0.015898	-0.002091	-0.011720	-1.017578	0.254883	0.209473	0.097146	0.002630	0.011599	0.245797	-0.628533	-0.248776	-0.694724	23.070383	-84.629258	-162.083443
61073		9.744728	0.248756	1.039591	0.075508	0.212869	-0.012109	-0.001855	-0.009058	-0.014269	-1.006836	0.250244	0.225586	0.097447	0.002481	0.010400	0.245745	-0.628594	-0.248810	-0.694675	23.148548	-84.637839	-162.163367
61074		9.790708	0.309848	0.917705	0.021499	0.087692	0.025402	0.011393	-0.012631	-0.013704	-1.007568	0.256836	0.216553	0.097907	0.003091	0.009183	0.245730	-0.628673	-0.248897	-0.694577	23.247263	-84.651777	-162.256107
61075		9.789161	0.397585	0.864768	0.040594	-0.011308	0.022545	0.014675	-0.011927	-0.011990	-1.008301	0.252686	0.213135	0.097891	0.003969	0.008654	0.245733	-0.628727	-0.248985	-0.694496	23.329774	-84.662380	-162.330887
61076		9.733380	0.432450	0.760417	-0.007931	-0.103752	-0.040630	0.003400	-0.012027	-0.007709	-1.008057	0.252441	0.220947	0.097334	0.004321	0.007610	0.245731	-0.628818	-0.248956	-0.694425	23.312842	-84.675612	-162.316861
61077		9.745822	0.398314	0.712229	-0.065865	-0.108567	-0.033585	-0.007758	-0.012175	-0.006585	-1.010986	0.252686	0.228027	0.097458	0.003980	0.007128	0.245682	-0.628906	-0.248949	-0.694364	23.352691	-84.687578	-162.361699
61078		9.737220	0.376250	0.662305	-0.113334	-0.121813	-0.047137	-0.014780	-0.008694	-0.005309	-1.008301	0.257324	0.221924	0.097372	0.003760	0.006627	0.245615	-0.629079	-0.248952	-0.694230	23.424918	-84.712121	-162.439929
61079		9.763549	0.418085	0.638401	-0.105097	-0.169419	-0.021391	-0.017548	0.004713	-0.003906	-1.018066	0.260498	0.218506	0.097636	0.004180	0.006381	0.245566	-0.629125	-0.248882	-0.694231	23.403152	-84.715891	-162.428535
61080		9.740671	0.430842	0.661535	-0.074668	-0.164814	-0.041751	-0.029676	0.008027	0.005071	-1.009277	0.251221	0.217285	0.097407	0.004312	0.006611	0.245539	-0.629250	-0.248654	-0.694208	23.221577	-84.728657	-162.269224
61081		9.761657	0.417735	0.664690	-0.081796	-0.154860	-0.021079	-0.040776	0.014196	0.007752	-1.015381	0.253906	0.215088	0.097617	0.004182	0.006639	0.245470	-0.629307	-0.248455	-0.694253	23.096103	-84.730100	-162.167048
61082		9.782608	0.404367	0.668465	-0.089211	-0.145115	-0.000411	-0.050344	0.019946	0.008919	-1.008057	0.240234	0.217529	0.097827	0.004050	0.006674	0.245381	-0.629345	-0.248205	-0.694340	22.937501	-84.726746	-162.037765
61083		9.777040	0.404829	0.744037	-0.031185	-0.098790	0.000429	-0.051595	0.028225	0.016746	-1.005859	0.259033	0.216797	0.097771	0.004058	0.007426	0.245326	-0.629377	-0.247922	-0.694431	22.720644	-84.722715	-161.850042
61084		9.739929	0.395316	0.793636	0.003162	-0.061053	-0.032677	-0.050403	0.032650	0.016783	-1.011230	0.249756	0.215576	0.097400	0.003963	0.007919	0.245269	-0.629389	-0.247676	-0.694528	22.538682	-84.716337	-161.694247
61085		9.739766	0.393134	0.796715	0.004436	-0.061023	-0.032677	-0.045826	0.026682	0.020161	-1.015625	0.254395	0.217773	0.097398	0.003943	0.007953	0.245242	-0.629423	-0.247405	-0.694603	22.310161	-84.713750	-161.491493
61086		9.740970	0.360150	0.898779	0.059606	0.026940	-0.023932	-0.035623	0.034995	0.018978	-1.005859	0.252197	0.218262	0.097411	0.003612	0.008970	0.245248	-0.629400	-0.247179	-0.694703	22.093997	-84.704407	-161.294213
61087		9.705607	0.349597	0.924062	0.075227	0.048581	-0.057336	-0.026295	0.029327	0.024131	-1.005615	0.257080	0.216797	0.097057	0.003509	0.009226	0.245299	-0.629406	-0.246960	-0.694757	21.848659	-84.701107	-161.063328
61088		9.696152	0.350174	1.048572	0.171957	0.125511	-0.056040	-0.014182	0.027640	0.026224	-1.010498	0.257568	0.218506	0.096963	0.003515	0.010472	0.245401	-0.629438	-0.246747	-0.694768	21.568130	-84.703459	-160.792456
61089		9.710138	0.367737	1.027181	0.167275	0.094003	-0.043333	-0.002589	0.024519	0.031464	-1.007080	0.252686	0.211426	0.097102	0.003693	0.010260	0.245546	-0.629441	-0.246593	-0.694768	21.305198	-84.704084	-160.530263
61090		9.690388	0.290434	1.078742	0.159157	0.182490	-0.061122	0.010258	0.019462	0.032018	-1.012939	0.257324	0.226318	0.096904	0.002919	0.010778	0.245734	-0.629445	-0.246451	-0.694749	21.018408	-84.706318	-160.239505
61091		9.732304	0.262896	1.084175	0.143677	0.202368	-0.019798	0.026047	0.013605	0.032698	-1.006348	0.249512	0.220215	0.097323	0.002643	0.010835	0.245961	-0.629452	-0.246406	-0.694678	20.788354	-84.712807	-159.993855
61092		9.728534	0.261435	1.133719	0.184096	0.235001	-0.019377	0.041496	0.006251	0.031790	-1.007813	0.261230	0.220459	0.097285	0.002627	0.011335	0.246210	-0.629524	-0.246494	-0.694493	20.662545	-84.733790	-159.839272
61093		9.742794	0.279006	1.109870	0.179436	0.203503	-0.006664	0.047075	-0.001574	0.036801	-1.012207	0.256104	0.215576	0.097427	0.002805	0.011100	0.246498	-0.629564	-0.246528	-0.694343	20.452305	-84.749171	-159.601447
61094		9.751634	0.242682	1.110592	0.160282	0.229141	0.001001	0.061323	-0.013355	0.035865	-1.004883	0.261475	0.221191	0.097515	0.002441	0.011113	0.246821	-0.629657	-0.246587	-0.694123	20.234387	-84.774605	-159.350835
61095		9.709950	0.264602	1.104773	0.178297	0.209321	-0.040377	0.065271	-0.022344	0.034490	-1.004150	0.252441	0.217529	0.097098	0.002659	0.011059	0.247132	-0.629743	-0.246717	-0.693888	20.089707	-84.800572	-159.168394
61096		9.739934	0.216208	1.105748	0.150892	0.245726	-0.012045	0.074709	-0.028064	0.036503	-1.002441	0.256836	0.216553	0.097397	0.002176	0.011072	0.247471	-0.629881	-0.246880	-0.693584	19.950700	-84.836301	-158.986622
61097		9.704018	0.291882	1.072672	0.184288	0.168341	-0.048391	0.081135	-0.039303	0.036836	-1.017822	0.263672	0.218506	0.097038	0.002932	0.010747	0.247819	-0.630009	-0.247078	-0.693272	19.834120	-84.871822	-158.823294
61098		9.715042	0.254987	1.045573	0.145668	0.178488	-0.040932	0.093114	-0.047298	0.038977	-1.001465	0.261719	0.220215	0.097147	0.002564	0.010480	0.248207	-0.630164	-0.247285	-0.692919	19.688646	-84.912782	-158.627035
61099		9.717475	0.251432	1.016288	0.128045	0.163100	-0.041178	0.106755	-0.049423	0.039579	-1.011963	0.265137	0.213623	0.097172	0.002528	0.010188	0.248633	-0.630298	-0.247575	-0.692541	19.587551	-84.954234	-158.464538
61100		9.753936	0.342029	0.912364	0.114571	0.025811	-0.010909	0.105879	-0.058687	0.038038	-1.007080	0.256104	0.218018	0.097536	0.003434	0.009154	0.249054	-0.630482	-0.247795	-0.692143	19.419461	-85.001080	-158.241761
61101		9.744246	0.373015	0.928806	0.156115	0.015245	-0.018426	0.092555	-0.059740	0.047008	-1.010742	0.263672	0.214844	0.097439	0.003749	0.009319	0.249448	-0.630679	-0.248025	-0.691739	19.280790	-85.049456	-158.049736
61102		9.738214	0.401801	0.896401	0.158936	-0.026400	-0.026380	0.079181	-0.062423	0.046490	-1.009766	0.259033	0.223633	0.097378	0.004037	0.008996	0.249788	-0.630867	-0.248215	-0.691377	19.149071	-85.093855	-157.872894
61103		9.735449	0.399232	0.938556	0.198071	0.004499	-0.025963	0.066932	-0.065337	0.055522	-1.002441	0.265137	0.223877	0.097350	0.004016	0.009419	0.250124	-0.631125	-0.248337	-0.690976	18.947357	-85.146743	-157.632358
61104		9.738042	0.393398	0.907572	0.181271	-0.010021	-0.026220	0.063474	-0.065948	0.058567	-1.010986	0.262451	0.217529	0.097376	0.003960	0.009109	0.250448	-0.631431	-0.248464	-0.690534	18.754124	-85.206874	-157.400921
61105		9.709443	0.433895	0.896974	0.212217	-0.045937	-0.054667	0.051454	-0.068966	0.061285	-1.012695	0.271729	0.218994	0.097090	0.004366	0.009004	0.250750	-0.631727	-0.248519	-0.690133	18.503764	-85.262674	-157.120518
61106		9.706387	0.373497	0.891760	0.178600	-0.005002	-0.059905	0.041085	-0.070791	0.070396	-0.997070	0.264648	0.222900	0.097059	0.003767	0.008953	0.251056	-0.632026	-0.248452	-0.689772	18.119144	-85.314807	-156.715971
61107		9.726543	0.355373	0.910614	0.190491	0.020398	-0.039027	0.041896	-0.078898	0.073689	-1.008789	0.269287	0.218994	0.097261	0.003588	0.009145	0.251358	-0.632383	-0.248446	-0.689336	17.786745	-85.377905	-156.358794
61108		9.723493	0.293943	0.904527	0.157516	0.061933	-0.044257	0.042798	-0.080680	0.078512	-1.011230	0.267578	0.224854	0.097230	0.002976	0.009085	0.251681	-0.632751	-0.248390	-0.688901	17.371314	-85.441250	-155.921255
61109		9.731242	0.254180	0.922358	0.156424	0.103442	-0.036326	0.061048	-0.088841	0.080922	-1.007568	0.271729	0.233398	0.097307	0.002578	0.009268	0.252056	-0.633128	-0.248440	-0.688400	17.000059	-85.510621	-155.514159
61110		9.747433	0.180802	0.941368	0.134939	0.171649	-0.020669	0.062259	-0.095473	0.084233	-1.007324	0.268555	0.228027	0.097469	0.001846	0.009461	0.252432	-0.633568	-0.248507	-0.687832	16.624133	-85.590485	-155.100977
61111		9.721821	0.132386	0.956134	0.129169	0.219345	-0.046382	0.081829	-0.099293	0.083481	-1.007568	0.270508	0.222168	0.097213	0.001361	0.009610	0.252869	-0.633957	-0.248633	-0.687268	16.242623	-85.665625	-154.671745
61112		9.766268	0.099017	0.925321	0.094214	0.223785	-0.005188	0.082329	-0.108930	0.083644	-1.007568	0.276611	0.230225	0.097657	0.001027	0.009307	0.253287	-0.634352	-0.248780	-0.686696	15.887996	-85.741955	-154.269218
61113		9.711502	0.096780	0.935064	0.118050	0.235518	-0.059352	0.093681	-0.113646	0.084170	-0.998047	0.274902	0.228027	0.097109	0.001004	0.009406	0.253745	-0.634775	-0.248962	-0.686070	15.509619	-85.824680	-153.836408
61114		9.714193	0.088412	0.899291	0.101274	0.219482	-0.059553	0.093520	-0.119933	0.084285	-1.003174	0.278320	0.220459	0.097136	0.000921	0.009052	0.254203	-0.635249	-0.249095	-0.685414	15.047401	-85.913348	-153.324248
61115		9.708612	0.113583	0.860791	0.104954	0.178072	-0.067521	0.091168	-0.128824	0.081189	-0.998535	0.275879	0.225342	0.097080	0.001171	0.008671	0.254624	-0.635722	-0.249297	-0.684745	14.686464	-86.003589	-152.910463
61116		9.726299	0.039603	0.851852	0.062601	0.228048	-0.051941	0.089172	-0.136208	0.079679	-1.005127	0.282471	0.227539	0.097257	0.000431	0.008585	0.255038	-0.636170	-0.249405	-0.684135	14.212366	-86.086010	-152.392035
61117		9.741562	0.052368	0.813744	0.057978	0.196558	-0.039206	0.090883	-0.141431	0.079864	-0.999268	0.274658	0.227051	0.097410	0.000559	0.008207	0.255438	-0.636684	-0.249626	-0.683427	13.849288	-86.182591	-151.976348
61118		9.790286	0.073441	0.776606	0.057079	0.157380	0.007199	0.073824	-0.146235	0.076210	-0.998779	0.275635	0.239014	0.097897	0.000769	0.007838	0.255772	-0.637186	-0.249741	-0.682791	13.422009	-86.271817	-151.511163
61119		9.782922	0.015425	0.837353	0.080863	0.245845	0.002605	0.060944	-0.152074	0.080656	-0.997803	0.277100	0.244629	0.097823	0.000191	0.008448	0.256066	-0.637774	-0.249870	-0.682085	13.013696	-86.373992	-151.067422
61120		9.749420	0.001026	0.844879	0.097318	0.269415	-0.030922	0.048473	-0.162879	0.078870	-1.007080	0.287109	0.233887	0.097487	0.000047	0.008528	0.256270	-0.638463	-0.250049	-0.681298	12.725744	-86.492208	-150.747696
61121		9.787633	0.057680	0.851874	0.156577	0.236547	0.008019	0.038374	-0.171227	0.073968	-0.997559	0.284668	0.234619	0.097869	0.000611	0.008603	0.256444	-0.639136	-0.250146	-0.680565	12.357706	-86.603978	-150.357383
61122		9.794800	0.019437	0.885320	0.174059	0.291397	0.016201	0.016133	-0.182380	0.076661	-0.995850	0.288330	0.245361	0.097940	0.000231	0.008943	0.256562	-0.639851	-0.250069	-0.679877	11.786323	-86.713935	-149.783674
61123		9.727117	-0.060769	0.818221	0.093741	0.315162	-0.056570	0.014831	-0.193189	0.072111	-0.998047	0.291504	0.238770	0.097263	-0.000573	0.008276	0.256627	-0.640625	-0.250120	-0.679104	11.407288	-86.837384	-149.395940
61124		9.804769	-0.145120	0.684237	-0.044406	0.292133	0.012555	0.027713	-0.198438	0.069492	-0.989258	0.286621	0.239014	0.098041	-0.001418	0.006939	0.256744	-0.641434	-0.250104	-0.678302	10.800569	-86.964205	-148.781714
61125		9.807737	-0.129173	0.443604	-0.192189	0.127389	0.003217	0.053283	-0.197684	0.070304	-0.994629	0.285156	0.249023	0.098073	-0.001258	0.004533	0.256920	-0.642169	-0.250296	-0.677468	10.397084	-87.089608	-148.347529
61126		9.846204	-0.132454	0.327850	-0.261785	0.058706	0.036208	0.083363	-0.198297	0.066493	-0.990723	0.290283	0.250977	0.098459	-0.001293	0.003376	0.257181	-0.642863	-0.250546	-0.676617	9.925611	-87.212369	-147.832802
61127		9.828667	-0.045650	0.156590	-0.310235	-0.111874	0.011797	0.109990	-0.188374	0.065528	-0.996094	0.291992	0.252197	0.098285	-0.000425	0.001658	0.257534	-0.643487	-0.250933	-0.675746	9.512573	-87.331689	-147.356620
61128		9.815775	0.011170	0.061312	-0.321938	-0.210918	-0.004264	0.123565	-0.179472	0.067374	-0.997314	0.282227	0.255859	0.098157	0.000144	0.000701	0.257960	-0.644109	-0.251275	-0.674864	8.847925	-87.449592	-146.626251
61129		9.819819	0.060021	0.065788	-0.267399	-0.237638	0.001016	0.126392	-0.169058	0.072057	-0.995850	0.289795	0.246338	0.098197	0.000635	0.000741	0.258412	-0.644653	-0.251671	-0.674024	8.220277	-87.558054	-145.925941
61130		9.801017	0.207852	0.040329	-0.169322	-0.357615	-0.017373	0.119642	-0.159179	0.073316	-0.992188	0.290039	0.256836	0.098009	0.002114	0.000483	0.258839	-0.645128	-0.252062	-0.673259	7.637281	-87.655172	-145.272632
61131		9.734868	0.245672	0.142430	-0.048604	-0.310263	-0.078744	0.097935	-0.151300	0.078994	-0.988770	0.289063	0.260498	0.097347	0.002494	0.001499	0.259244	-0.645656	-0.252315	-0.672502	6.739535	-87.753272	-144.318429
61132		9.729986	0.329776	0.195721	0.065496	-0.331286	-0.081006	0.086901	-0.144808	0.086557	-0.990234	0.296143	0.248291	0.097297	0.003339	0.002029	0.259626	-0.646210	-0.252529	-0.671741	5.700320	-87.852759	-143.228102
61133		9.744693	0.403107	0.299581	0.208782	-0.312466	-0.062301	0.060943	-0.140340	0.096986	-0.986328	0.297119	0.258789	0.097443	0.004077	0.003065	0.259985	-0.646771	-0.252585	-0.671041	4.297486	-87.944005	-141.789813
61134		9.683279	0.349565	0.384441	0.254772	-0.214041	-0.121189	0.047107	-0.137633	0.110930	-0.991699	0.298828	0.255615	0.096828	0.003548	0.003912	0.260370	-0.647341	-0.252457	-0.670390	2.315704	-88.025305	-139.786246
61135		9.722230	0.320208	0.495445	0.334274	-0.117099	-0.079020	0.042199	-0.137655	0.117219	-0.989502	0.295898	0.257080	0.097217	0.003258	0.005022	0.260740	-0.647941	-0.252381	-0.669694	0.257931	-88.111646	-137.703539
61136		9.709117	0.208695	0.633963	0.379708	0.058613	-0.088246	0.036598	-0.145285	0.128461	-0.989746	0.307617	0.256104	0.097085	0.002148	0.006411	0.261128	-0.648548	-0.252216	-0.669018	-2.239979	-88.190871	-135.186694
61137		9.681396	0.162059	0.742967	0.449630	0.167970	-0.113343	0.038376	-0.155101	0.136758	-0.987793	0.301025	0.267090	0.096807	0.001685	0.007505	0.261528	-0.649234	-0.252086	-0.668244	-5.114738	-88.280051	-132.288994
61138		9.669951	0.046242	0.830850	0.458479	0.312428	-0.122870	0.026971	-0.172333	0.141818	-0.980225	0.307617	0.263184	0.096692	0.000530	0.008392	0.261913	-0.650002	-0.251836	-0.667442	-8.714424	-88.367908	-128.678087
61139		9.727024	-0.057517	0.868980	0.438697	0.415216	-0.065455	0.028596	-0.188626	0.143960	-0.979492	0.306152	0.261230	0.097262	-0.000506	0.008781	0.262262	-0.650820	-0.251693	-0.666560	-12.568248	-88.463734	-124.806817
61140		9.697566	-0.168208	0.830442	0.361158	0.472200	-0.096348	0.017437	-0.210852	0.142863	-0.984131	0.295654	0.265625	0.096968	-0.001614	0.008407	0.262576	-0.651726	-0.251428	-0.665651	-17.365218	-88.554638	-120.006050
61141		9.680960	-0.257894	0.788766	0.296211	0.515158	-0.114417	0.012182	-0.234958	0.135598	-0.984375	0.312500	0.273682	0.096802	-0.002514	0.008001	0.262786	-0.652707	-0.251317	-0.664647	-22.526762	-88.658506	-114.836410
61142		9.731565	-0.332203	0.744972	0.240109	0.545632	-0.065213	0.012093	-0.257160	0.136344	-0.981689	0.307617	0.265869	0.097308	-0.003256	0.007575	0.262956	-0.653736	-0.251238	-0.663598	-28.591356	-88.759008	-108.764330
61143		9.782009	-0.406172	0.698690	0.184806	0.576140	-0.016020	0.017926	-0.281405	0.126135	-0.982666	0.313721	0.272217	0.097813	-0.004001	0.007124	0.263093	-0.654849	-0.251237	-0.662446	-36.022946	-88.859065	-101.321279
61144		9.729201	-0.412487	0.669501	0.188266	0.570464	-0.070266	0.029807	-0.300881	0.122250	-0.975830	0.307129	0.279785	0.097284	-0.004066	0.006841	0.263255	-0.655944	-0.251235	-0.661298	-44.656931	-88.933788	-92.673714
61145		9.743893	-0.403269	0.638339	0.202601	0.554349	-0.057427	0.044006	-0.317961	0.115150	-0.980225	0.318115	0.282959	0.097431	-0.003978	0.006537	0.263394	-0.657126	-0.251403	-0.660004	-55.158489	-89.000754	-82.145642
61146		9.723508	-0.317675	0.527005	0.210885	0.429386	-0.081484	0.053531	-0.339901	0.112927	-0.979004	0.318604	0.277100	0.097228	-0.003123	0.005434	0.263532	-0.658364	-0.251597	-0.658640	-67.314626	-89.032668	-69.960740
61147		9.683764	-0.304986	0.443033	0.190703	0.378793	-0.123280	0.058473	-0.355741	0.110491	-0.977295	0.319580	0.286133	0.096831	-0.002998	0.004602	0.263655	-0.659641	-0.251876	-0.657205	-80.308042	-89.025394	-56.932368
61148		9.698061	-0.296530	0.382114	0.185324	0.344673	-0.110468	0.075129	-0.374922	0.111458	-0.971191	0.319336	0.291748	0.096975	-0.002913	0.004002	0.263854	-0.660909	-0.252120	-0.655757	-92.306528	-88.961595	-44.895153
61149		9.726444	-0.357209	0.299438	0.119298	0.349852	-0.082105	0.098336	-0.388037	0.113864	-0.972412	0.318604	0.297363	0.097260	-0.003518	0.003181	0.264076	-0.662238	-0.252559	-0.654155	-103.632069	-88.859834	-33.511617
61150		9.665972	-0.326289	0.284070	0.164355	0.334727	-0.144234	0.121922	-0.400015	0.106675	-0.966064	0.329590	0.303223	0.096656	-0.003213	0.003032	0.264346	-0.663568	-0.253060	-0.652503	-112.968995	-88.719292	-24.107038
61151		9.666711	-0.336076	0.244808	0.165645	0.334747	-0.144257	0.139561	-0.421278	0.102984	-0.968018	0.323486	0.301270	0.096663	-0.003313	0.002649	0.264626	-0.664930	-0.253711	-0.650747	-120.916740	-88.549785	-16.077454
61152		9.682257	-0.411239	0.232482	0.144775	0.400553	-0.128282	0.155558	-0.437303	0.099121	-0.965576	0.318115	0.308350	0.096819	-0.004066	0.002533	0.264965	-0.666350	-0.254335	-0.648911	-127.090256	-88.345016	-9.818940
61153		9.643571	-0.479558	0.219600	0.125893	0.464433	-0.166706	0.176910	-0.456703	0.090622	-0.959229	0.328613	0.306152	0.096433	-0.004754	0.002412	0.265281	-0.667755	-0.255192	-0.646998	-132.480615	-88.129822	-4.325017
61154		9.620506	-0.521273	0.276563	0.176689	0.557427	-0.191864	0.186693	-0.477469	0.082239	-0.964111	0.333008	0.310547	0.096200	-0.005176	0.002990	0.265577	-0.669189	-0.256081	-0.645041	-136.882583	-87.897367	0.181881
61155		9.597377	-0.563411	0.307281	0.208738	0.635945	-0.217203	0.197567	-0.505141	0.069408	-0.956787	0.333496	0.318604	0.095968	-0.005604	0.003310	0.265829	-0.670686	-0.257136	-0.642959	-140.886899	-87.645333	4.302114
61156		9.635261	-0.556330	0.329669	0.272499	0.673380	-0.183122	0.200655	-0.532119	0.056674	-0.947998	0.325684	0.324707	0.096345	-0.005539	0.003547	0.266071	-0.672248	-0.258147	-0.640820	-144.085571	-87.373510	7.612408
61157		9.644910	-0.592426	0.304639	0.271535	0.714847	-0.175100	0.180612	-0.561782	0.044382	-0.951904	0.330078	0.322021	0.096441	-0.005906	0.003312	0.266108	-0.673906	-0.259303	-0.638592	-147.275733	-87.085598	10.909522
61158		9.719608	-0.617160	0.223450	0.242435	0.711986	-0.100035	0.173474	-0.590690	0.028839	-0.950439	0.332031	0.329590	0.097190	-0.006160	0.002516	0.266031	-0.675637	-0.260457	-0.636321	-150.065509	-86.781989	13.796701
61159		9.814642	-0.608347	0.037368	0.163648	0.616248	0.000154	0.146175	-0.602025	0.022419	-0.945068	0.335938	0.326172	0.098145	-0.006073	0.000665	0.265825	-0.677428	-0.261626	-0.634019	-152.565782	-86.465670	16.384834
61160		9.840807	-0.477930	-0.230617	0.107392	0.373439	0.034739	0.138957	-0.615863	0.022236	-0.950684	0.332031	0.333984	0.098415	-0.004767	-0.002006	0.265627	-0.679222	-0.262661	-0.631750	-154.476426	-86.145222	18.372782
61161		9.849163	-0.505836	-0.436829	-0.013167	0.291026	0.054811	0.108588	-0.621455	0.017394	-0.946533	0.337891	0.333984	0.098505	-0.005048	-0.004065	0.265248	-0.681104	-0.263749	-0.629426	-156.357083	-85.809947	20.320092
61162		9.868558	-0.513499	-0.646606	-0.122932	0.188789	0.087775	0.103109	-0.629463	0.016960	-0.942871	0.339111	0.352295	0.098706	-0.005123	-0.006158	0.264901	-0.682902	-0.264709	-0.627217	-157.792223	-85.486760	21.813807
61163		9.963126	-0.449326	-0.820572	-0.148505	0.066139	0.192929	0.096803	-0.629367	0.014543	-0.930176	0.337158	0.347656	0.099657	-0.004482	-0.007894	0.264457	-0.684806	-0.265775	-0.624873	-159.218798	-85.141086	23.300493
61164		9.962219	-0.439388	-0.982589	-0.209900	-0.014601	0.205284	0.075276	-0.626501	0.009256	-0.927002	0.335693	0.354492	0.099653	-0.004386	-0.009515	0.263999	-0.686691	-0.266654	-0.622620	-160.311005	-84.802250	24.435646
61165		10.029114	-0.550514	-1.066310	-0.294345	0.051771	0.283528	0.069574	-0.618743	0.004800	-0.932129	0.337402	0.365967	0.100324	-0.005499	-0.010355	0.263441	-0.688571	-0.267649	-0.620349	-161.444637	-84.459454	25.614015
61166		10.057398	-0.592120	-1.053678	-0.265757	0.131209	0.312723	0.077818	-0.612076	-0.001702	-0.931152	0.340820	0.363037	0.100606	-0.005918	-0.010231	0.262955	-0.690373	-0.268568	-0.618152	-162.337183	-84.127827	26.551189
61167		10.102194	-0.601129	-1.143431	-0.286594	0.119382	0.367019	0.083798	-0.596795	-0.008685	-0.924316	0.334717	0.364990	0.101055	-0.006011	-0.011135	0.262429	-0.692135	-0.269619	-0.615943	-163.256882	-83.795857	27.524027
61168		10.125725	-0.645590	-1.177443	-0.297495	0.166662	0.395980	0.092589	-0.587428	-0.020270	-0.923828	0.347900	0.380859	0.101291	-0.006461	-0.011480	0.262001	-0.693734	-0.270601	-0.613892	-163.986472	-83.489653	28.309051
61169		10.025600	-0.698464	-1.219660	-0.332063	0.211690	0.303276	0.102283	-0.580040	-0.033419	-0.916992	0.333496	0.374756	0.100290	-0.006995	-0.011909	0.261482	-0.695374	-0.271768	-0.611739	-164.817317	-83.168079	29.204337
61170		10.093436	-0.814944	-1.176501	-0.334959	0.367500	0.369563	0.107684	-0.577342	-0.039720	-0.920898	0.342529	0.390869	0.100966	-0.008163	-0.011478	0.261074	-0.696934	-0.272849	-0.609653	-165.456735	-82.859050	29.910425
61171		10.165207	-0.867535	-1.263274	-0.385090	0.391530	0.452693	0.136258	-0.570760	-0.052257	-0.911621	0.346436	0.379150	0.101685	-0.008693	-0.012349	0.260625	-0.698463	-0.274168	-0.607499	-166.199141	-82.542824	30.737420
61172		10.153006	-0.750370	-1.206049	-0.225455	0.385755	0.429443	0.146232	-0.565750	-0.074964	-0.910400	0.338623	0.399902	0.101561	-0.007533	-0.011779	0.260305	-0.699865	-0.275464	-0.605434	-166.804021	-82.244513	31.436127
61173		10.134950	-0.813467	-1.204328	-0.233454	0.474932	0.412234	0.153530	-0.565790	-0.089224	-0.903564	0.336182	0.390869	0.101379	-0.008171	-0.011763	0.259808	-0.701293	-0.276954	-0.603312	-167.561761	-81.933410	32.289835
61174		10.082523	-0.832866	-1.250384	-0.250556	0.494866	0.366039	0.170546	-0.559327	-0.106121	-0.902344	0.343018	0.408691	0.100855	-0.008372	-0.012229	0.259390	-0.702610	-0.278450	-0.601266	-168.235334	-81.636864	33.067005
61175		10.178472	-0.874938	-1.092649	-0.124058	0.688782	0.437708	0.177793	-0.563155	-0.128118	-0.903076	0.344238	0.409912	0.101809	-0.008805	-0.010648	0.258861	-0.703932	-0.280141	-0.599159	-169.009364	-81.328815	33.952577
61176		10.325697	-0.786365	-1.304562	-0.157218	0.535306	0.609824	0.223503	-0.555847	-0.148576	-0.894043	0.340332	0.409912	0.103287	-0.007926	-0.012767	0.258550	-0.705142	-0.281952	-0.597017	-169.669553	-81.026822	34.754399
61177		10.234622	-0.900954	-1.382906	-0.272119	0.601785	0.533092	0.175548	-0.562494	-0.145967	-0.900146	0.341309	0.408447	0.102378	-0.009072	-0.013549	0.257956	-0.706426	-0.283693	-0.594928	-170.399779	-80.717773	35.595801
61178		10.149763	-1.127036	-1.549362	-0.526632	0.682171	0.480293	0.176037	-0.567363	-0.143484	-0.886963	0.335205	0.419678	0.101533	-0.011330	-0.015216	0.257459	-0.707678	-0.285361	-0.592855	-171.003107	-80.414149	36.312737
61179		10.111649	-0.992661	-1.538061	-0.396738	0.640267	0.435671	0.198347	-0.569066	-0.161945	-0.895264	0.334229	0.427490	0.101152	-0.009993	-0.015103	0.256884	-0.708915	-0.287229	-0.590719	-171.681335	-80.099820	37.116176
61180		10.092278	-0.947635	-1.619643	-0.393164	0.597816	0.427581	0.209154	-0.565953	-0.181590	-0.887207	0.337402	0.425537	0.100959	-0.009551	-0.015921	0.256305	-0.710091	-0.289139	-0.588623	-172.344113	-79.790912	37.907738
61181		10.070184	-0.825381	-1.634119	-0.290361	0.550368	0.403609	0.208230	-0.563134	-0.206738	-0.885742	0.341064	0.426270	0.100739	-0.008341	-0.016066	0.255637	-0.711220	-0.291182	-0.586540	-173.063957	-79.480076	38.760788
61182		10.056574	-0.798210	-1.788853	-0.351793	0.471067	0.415991	0.202972	-0.556437	-0.219100	-0.883545	0.333008	0.436279	0.100606	-0.008074	-0.017617	0.254985	-0.712287	-0.293210	-0.584515	-173.740436	-79.177426	39.570744
61183		10.013252	-0.723481	-1.942443	-0.383961	0.357440	0.399377	0.217939	-0.543536	-0.240026	-0.874023	0.333984	0.437988	0.100176	-0.007334	-0.019160	0.254277	-0.713283	-0.295369	-0.582519	-174.459595	-78.876084	40.430487
61184		10.007079	-0.573042	-1.935459	-0.249090	0.308349	0.388225	0.239359	-0.523312	-0.265392	-0.883301	0.325195	0.435059	0.100113	-0.005840	-0.019100	0.253619	-0.714144	-0.297617	-0.580603	-175.173858	-78.588401	41.297392
61185		9.927077	-0.517229	-2.024661	-0.261398	0.248092	0.325532	0.256683	-0.500353	-0.290748	-0.887939	0.327393	0.443359	0.099313	-0.005291	-0.020005	0.252961	-0.714875	-0.300009	-0.578756	-175.922369	-78.309944	42.211476
61186		9.857555	-0.363477	-2.050085	-0.161832	0.164776	0.259689	0.295660	-0.472731	-0.320096	-0.883545	0.327881	0.453857	0.098618	-0.003763	-0.020273	0.252410	-0.715410	-0.302547	-0.577012	-176.675509	-78.051018	43.152171
61187		9.794699	-0.190968	-2.101745	-0.067785	0.050721	0.206422	0.351569	-0.441768	-0.348177	-0.872070	0.329834	0.449707	0.097990	-0.002044	-0.020805	0.252008	-0.715751	-0.305338	-0.575292	-177.440817	-77.803055	44.140763
61188		9.691942	-0.042343	-2.113145	0.027203	-0.026051	0.106954	0.387856	-0.406799	-0.375013	-0.874268	0.330322	0.455811	0.096961	-0.000564	-0.020935	0.251731	-0.715893	-0.308253	-0.573680	-178.202884	-77.575607	45.147637
61189		9.587397	-0.023463	-2.177682	-0.011344	-0.053826	0.018784	0.427771	-0.365928	-0.396505	-0.873047	0.326904	0.457764	0.095913	-0.000378	-0.021602	0.251574	-0.715830	-0.311333	-0.572162	-178.977835	-77.366327	46.192545
61190		9.470650	-0.052751	-2.328482	-0.146908	-0.117704	-0.061674	0.520850	-0.318520	-0.414118	-0.871826	0.319336	0.467041	0.094742	-0.000663	-0.023136	0.251793	-0.715472	-0.314654	-0.570695	-179.700929	-77.184184	47.239757
61191		9.355511	0.046323	-2.418226	-0.149100	-0.229155	-0.153459	0.620927	-0.268263	-0.432788	-0.868896	0.324463	0.469238	0.093588	0.000336	-0.024056	0.252369	-0.714810	-0.318285	-0.569254	179.597346	-77.025133	48.324582
61192		9.253754	0.085337	-2.574071	-0.237442	-0.351398	-0.216587	0.725341	-0.226683	-0.447772	-0.868896	0.329102	0.461182	0.092568	0.000739	-0.025633	0.253336	-0.713870	-0.322158	-0.567825	178.948779	-76.889490	49.412371
61193		9.205290	0.247364	-2.684743	-0.195447	-0.517924	-0.236682	0.825483	-0.187307	-0.450917	-0.872559	0.329590	0.457764	0.092083	0.002377	-0.026751	0.254711	-0.712663	-0.326320	-0.566347	178.353665	-76.771130	50.509267
61194		9.179501	0.157383	-2.804885	-0.344393	-0.527005	-0.233596	0.894023	-0.143311	-0.446868	-0.864746	0.327393	0.461670	0.091818	0.001494	-0.027976	0.256435	-0.711224	-0.330583	-0.564904	177.828630	-76.678435	51.576167
61195		9.198878	0.068226	-2.828292	-0.425536	-0.464158	-0.209213	1.002587	-0.093614	-0.440816	-0.872314	0.323242	0.456055	0.092003	0.000621	-0.028237	0.258610	-0.709506	-0.335073	-0.563426	177.374648	-76.609399	52.633141
61196		9.297819	-0.207981	-2.491354	-0.418026	-0.006897	-0.193710	1.036079	-0.013775	-0.417449	-0.872559	0.327148	0.460449	0.092975	-0.002145	-0.024918	0.261106	-0.707536	-0.339432	-0.562141	177.001299	-76.587560	53.625565
61197		9.265214	-0.491870	-2.797033	-0.841273	-0.064690	-0.158798	1.156041	0.108743	-0.372656	-0.867188	0.338623	0.454834	0.092628	-0.004929	-0.028049	0.264340	-0.705117	-0.343828	-0.560996	176.778988	-76.633394	54.534916
61198		9.096291	0.657064	-2.669161	0.106179	-0.728305	-0.338673	1.390636	0.210570	-0.344428	-0.877930	0.335205	0.451904	0.090946	0.006600	-0.026742	0.268655	-0.702122	-0.348601	-0.559755	176.749687	-76.740216	55.382149
61199		9.316290	1.498079	-2.192633	1.080549	-0.844515	-0.222883	1.195718	0.291739	-0.326365	-0.877930	0.340576	0.439941	0.093155	0.014960	-0.021973	0.272455	-0.699159	-0.352671	-0.559077	176.622294	-76.891509	56.216587
61200		9.401132	1.278793	-2.034779	0.996689	-0.584862	-0.178301	0.999115	0.388365	-0.273843	-0.885742	0.345947	0.440674	0.093989	0.012761	-0.020467	0.275883	-0.696261	-0.355838	-0.559006	176.492106	-77.101833	56.936130
61201		9.335356	1.056226	-2.006405	0.807136	-0.465062	-0.251187	0.963733	0.489640	-0.213565	-0.883789	0.342285	0.441895	0.093315	0.010560	-0.020242	0.279520	-0.693216	-0.358572	-0.559238	176.455626	-77.369572	57.539652
61202		9.332414	0.981930	-1.943682	0.761047	-0.406873	-0.268521	0.908957	0.572343	-0.152627	-0.888672	0.354248	0.420410	0.093276	0.009837	-0.019659	0.283274	-0.690110	-0.360779	-0.559770	176.524315	-77.688870	57.999053
61203		9.353791	0.756462	-1.989530	0.529718	-0.352340	-0.240913	0.806433	0.636391	-0.106683	-0.889160	0.356689	0.416992	0.093478	0.007596	-0.020162	0.286914	-0.687029	-0.362476	-0.560610	176.629315	-78.044436	58.364206
61204		9.356769	0.637259	-2.001530	0.399674	-0.345677	-0.237626	0.770139	0.698780	-0.065480	-0.887939	0.355957	0.411377	0.093499	0.006420	-0.020317	0.290664	-0.683873	-0.363819	-0.561665	176.814843	-78.439510	58.625642
61205		9.429780	0.681796	-1.941264	0.451152	-0.369058	-0.178686	0.732642	0.749708	-0.019340	-0.897461	0.359863	0.402344	0.094225	0.006881	-0.019741	0.294486	-0.680701	-0.364827	-0.562872	177.095678	-78.863068	58.767293
61206		9.414780	0.566715	-1.940253	0.329091	-0.372150	-0.196213	0.664435	0.785309	0.038904	-0.897949	0.364746	0.398438	0.094070	0.005751	-0.019753	0.298295	-0.677620	-0.365356	-0.564240	177.516995	-79.310797	58.723140
61207		9.465952	0.511703	-1.837487	0.320192	-0.320730	-0.167142	0.597774	0.809535	0.097058	-0.898438	0.369629	0.388428	0.094582	0.005219	-0.018742	0.302081	-0.674657	-0.365480	-0.565694	178.096468	-79.771530	58.482104
61208		9.450612	0.434567	-1.791725	0.257203	-0.319115	-0.192674	0.552763	0.825430	0.156939	-0.901367	0.369873	0.378418	0.094428	0.004470	-0.018295	0.305898	-0.671813	-0.365213	-0.567197	178.889783	-80.243608	57.994666
61209		9.515589	0.497819	-1.649796	0.373676	-0.306238	-0.154421	0.485514	0.825748	0.212319	-0.905762	0.369141	0.374268	0.095081	0.005120	-0.016878	0.309647	-0.669152	-0.364589	-0.568708	179.897868	-80.712952	57.254506
61210		9.512090	0.491176	-1.474410	0.445628	-0.238552	-0.187775	0.387215	0.814099	0.261064	-0.907471	0.378906	0.366455	0.095053	0.005065	-0.015121	0.313161	-0.666757	-0.363497	-0.570294	-178.878187	-81.174833	56.234848
61211		9.568719	0.391726	-1.357487	0.415657	-0.161036	-0.150527	0.279485	0.788307	0.296164	-0.911377	0.387207	0.362061	0.095627	0.004078	-0.013946	0.316379	-0.664647	-0.362049	-0.571900	-177.465155	-81.615597	54.967625
61212		9.581034	0.315594	-1.243989	0.401576	-0.103487	-0.155005	0.175504	0.749502	0.316959	-0.914551	0.387939	0.353760	0.095758	0.003319	-0.012796	0.319216	-0.662846	-0.360254	-0.573545	-175.889092	-82.030182	53.471909
61213		9.617843	0.231049	-1.186568	0.354758	-0.082729	-0.126045	0.067949	0.710947	0.332490	-0.921875	0.396240	0.347168	0.096131	0.002474	-0.012207	0.321686	-0.661336	-0.358190	-0.575198	-174.163472	-82.413934	51.769495
61214		9.536527	0.101575	-1.049352	0.304258	0.020167	-0.222932	-0.066147	0.659766	0.334375	-0.918701	0.394287	0.338623	0.095328	0.001172	-0.010808	0.323603	-0.660188	-0.355778	-0.576935	-172.356192	-82.763052	49.904039
61215		9.391999	-0.135320	-0.977664	0.125558	0.126965	-0.370677	-0.184953	0.600937	0.333614	-0.921143	0.392090	0.336670	0.093892	-0.001206	-0.010058	0.325035	-0.659387	-0.353150	-0.578659	-170.488322	-83.069146	47.914946
61216		9.311233	-0.355748	-0.927802	-0.043126	0.220664	-0.451297	-0.281382	0.531340	0.324319	-0.918701	0.399902	0.329102	0.093093	-0.003420	-0.009520	0.325974	-0.658925	-0.350347	-0.580358	-168.612001	-83.330786	45.857741
61217		9.258587	-0.519354	-0.856962	-0.147470	0.312833	-0.506467	-0.365977	0.453555	0.304653	-0.919922	0.388672	0.327637	0.092574	-0.005068	-0.008770	0.326458	-0.658779	-0.347521	-0.581948	-166.819497	-83.541391	43.842258
61218		9.336930	-0.597881	-0.760226	-0.153449	0.399020	-0.435546	-0.442455	0.376969	0.276272	-0.924805	0.396240	0.331055	0.093363	-0.005867	-0.007765	0.326451	-0.658930	-0.344652	-0.583486	-165.187454	-83.708349	41.939668
61219		9.454077	-0.608096	-0.671588	-0.100956	0.452065	-0.326605	-0.509994	0.287313	0.241686	-0.922852	0.401367	0.329590	0.094538	-0.005984	-0.006836	0.325983	-0.659381	-0.341878	-0.584869	-163.817168	-83.823544	40.267201
61220		9.501153	-0.636519	-0.602086	-0.077765	0.502304	-0.284771	-0.565952	0.204970	0.202203	-0.926025	0.388428	0.335693	0.095012	-0.006286	-0.006100	0.325044	-0.660100	-0.339156	-0.586164	-162.750618	-83.898028	38.861672
61221		9.519839	-0.707759	-0.549272	-0.099662	0.569988	-0.268310	-0.616166	0.120642	0.159530	-0.926514	0.389648	0.330078	0.095201	-0.007019	-0.005528	0.323694	-0.661058	-0.336607	-0.587299	-162.053624	-83.929686	37.805596
61222		9.488788	-0.770295	-0.578434	-0.162690	0.571698	-0.293668	-0.646505	0.033207	0.112079	-0.921143	0.395020	0.338623	0.094891	-0.007668	-0.005775	0.321913	-0.662252	-0.334202	-0.588306	-161.751242	-83.923275	37.119487
61223		9.562239	-0.755644	-0.648779	-0.176042	0.512099	-0.213985	-0.652287	-0.036040	0.070810	-0.917725	0.398926	0.344482	0.095626	-0.007544	-0.006446	0.319914	-0.663565	-0.332085	-0.589114	-161.788503	-83.884332	36.781000
61224		9.638182	-0.729482	-0.702108	-0.170394	0.467489	-0.134255	-0.651001	-0.102716	0.027236	-0.926025	0.392822	0.345703	0.096386	-0.007304	-0.006948	0.317641	-0.665011	-0.330158	-0.589796	-162.143519	-83.818650	36.753967
61225		9.714660	-0.790283	-0.761507	-0.238947	0.476314	-0.050769	-0.627112	-0.163526	-0.009759	-0.920410	0.389160	0.336426	0.097152	-0.007931	-0.007511	0.315270	-0.666513	-0.328580	-0.590255	-162.774299	-83.724408	37.026943
61226		9.823449	-0.748718	-0.831586	-0.228210	0.425230	0.062499	-0.580310	-0.205660	-0.050201	-0.916748	0.390869	0.345215	0.098241	-0.007536	-0.008193	0.312838	-0.668000	-0.327287	-0.590585	-163.613859	-83.615564	37.530285
61227		9.980565	-0.670679	-0.894302	-0.180086	0.367167	0.221950	-0.511757	-0.245289	-0.075630	-0.913818	0.376953	0.351318	0.099814	-0.006767	-0.008803	0.310518	-0.669441	-0.326391	-0.590674	-164.579884	-83.485802	38.207269
61228		10.047055	-0.597206	-0.972279	-0.153374	0.296361	0.293442	-0.455174	-0.265041	-0.099163	-0.913818	0.374756	0.351563	0.100480	-0.006044	-0.009576	0.308256	-0.670820	-0.325713	-0.590669	-165.605652	-83.349415	38.969843
61229		10.051789	-0.574567	-1.055715	-0.176927	0.249572	0.306080	-0.370018	-0.280510	-0.114557	-0.911133	0.382080	0.355957	0.100529	-0.005823	-0.010405	0.306233	-0.672074	-0.325416	-0.590460	-166.648063	-83.202798	39.805882
61230		10.071522	-0.524748	-1.122662	-0.168478	0.201413	0.331387	-0.280261	-0.284879	-0.133498	-0.914795	0.376953	0.361328	0.100728	-0.005330	-0.011076	0.304425	-0.673176	-0.325400	-0.590147	-167.679249	-83.056641	40.676012
61231		10.052383	-0.442592	-1.166284	-0.125029	0.149330	0.314923	-0.185906	-0.273443	-0.145404	-0.915527	0.371826	0.359863	0.100536	-0.004510	-0.011521	0.302939	-0.674071	-0.325736	-0.589705	-168.672171	-82.914205	41.568978
61232		10.028393	-0.463313	-1.257446	-0.193926	0.119295	0.302281	-0.099601	-0.256304	-0.156475	-0.903076	0.371826	0.367676	0.100296	-0.004718	-0.012444	0.301718	-0.674773	-0.326286	-0.589224	-169.602882	-82.783109	42.442941
61233		9.951944	-0.378282	-1.213477	-0.103815	0.126018	0.218768	-0.001919	-0.233355	-0.160836	-0.913330	0.367676	0.369629	0.099530	-0.003863	-0.012019	0.300871	-0.675243	-0.327154	-0.588637	-170.458501	-82.661374	43.304271
61234		9.932150	-0.343941	-1.211986	-0.075602	0.131176	0.197898	0.095760	-0.204277	-0.167785	-0.903320	0.365723	0.367432	0.099331	-0.003517	-0.012020	0.300353	-0.675483	-0.328228	-0.588029	-171.229672	-82.557279	44.129159
61235		9.878222	-0.179789	-1.235503	0.036811	0.032343	0.144000	0.189076	-0.174368	-0.166802	-0.910156	0.372559	0.364258	0.098791	-0.001869	-0.012271	0.300228	-0.675480	-0.329587	-0.587335	-171.914412	-82.466589	44.928917
61236		9.842408	-0.031799	-1.178325	0.185101	0.005095	0.098324	0.254791	-0.134670	-0.163202	-0.903076	0.372314	0.365967	0.098432	-0.000383	-0.011717	0.300388	-0.675271	-0.331024	-0.586685	-172.496055	-82.399313	45.657659
61237		9.727507	0.029919	-1.161437	0.231929	-0.012411	-0.018798	0.296589	-0.099923	-0.162978	-0.905029	0.370605	0.372070	0.097281	0.000237	-0.011565	0.300760	-0.674891	-0.332572	-0.586056	-173.034040	-82.348514	46.371755
61238		9.652411	0.110192	-1.100784	0.321895	-0.006178	-0.102423	0.336436	-0.061670	-0.153637	-0.907227	0.371094	0.367676	0.096528	0.001046	-0.010976	0.301342	-0.674360	-0.334103	-0.585497	-173.471876	-82.320099	47.002628
61239		9.597767	0.126129	-1.099020	0.325904	-0.009477	-0.156882	0.359395	-0.019866	-0.152327	-0.911865	0.366455	0.372559	0.095980	0.001208	-0.010978	0.302088	-0.673664	-0.335676	-0.585014	-173.880016	-82.312720	47.622105
61240		9.541125	0.140379	-1.015992	0.373723	0.048975	-0.223999	0.365787	0.025415	-0.147877	-0.906494	0.366943	0.364258	0.095411	0.001352	-0.010170	0.302919	-0.672842	-0.337131	-0.584693	-174.237167	-82.332627	48.186808
61241		9.529963	0.182316	-0.942470	0.439953	0.085185	-0.244988	0.367084	0.070062	-0.146449	-0.905273	0.367920	0.378662	0.095298	0.001771	-0.009455	0.303857	-0.671876	-0.338569	-0.584486	-174.580821	-82.375143	48.745605
61242		9.479639	0.204164	-0.905320	0.462865	0.096737	-0.299474	0.374804	0.109339	-0.147654	-0.901611	0.374512	0.370605	0.094793	0.001989	-0.009101	0.304847	-0.670798	-0.339907	-0.584433	-174.906907	-82.441839	49.281821
61243		9.549912	0.477913	-0.875255	0.695014	-0.034184	-0.236098	0.368934	0.145233	-0.143199	-0.903320	0.370850	0.360840	0.095496	0.004727	-0.008813	0.305926	-0.669610	-0.341222	-0.584465	-175.220694	-82.526256	49.811383
61244		9.646908	0.556413	-0.841882	0.770877	-0.049370	-0.143950	0.313387	0.191666	-0.127939	-0.913086	0.373291	0.364502	0.096464	0.005516	-0.008503	0.306916	-0.668407	-0.342197	-0.584753	-175.484166	-82.638354	50.250733
61245		9.675098	0.514377	-0.837521	0.724236	-0.028581	-0.114844	0.258196	0.228112	-0.114489	-0.900635	0.374756	0.354248	0.096744	0.005099	-0.008479	0.307847	-0.667191	-0.342963	-0.585204	-175.727043	-82.768199	50.644571
61246		9.652618	0.483471	-0.799924	0.699122	0.003613	-0.140159	0.204330	0.270493	-0.111758	-0.917969	0.375977	0.367188	0.096518	0.004789	-0.008125	0.308654	-0.665945	-0.343446	-0.585914	-175.980773	-82.924472	51.011321
61247		9.705627	0.390191	-0.723686	0.648542	0.107265	-0.094509	0.150347	0.306063	-0.101660	-0.908936	0.369385	0.365723	0.097047	0.003858	-0.007382	0.309396	-0.664684	-0.343731	-0.586786	-176.227451	-83.097939	51.346461
61248		9.680785	0.352031	-0.701322	0.604404	0.124151	-0.119774	0.107769	0.342715	-0.095270	-0.908691	0.365723	0.353516	0.096797	0.003478	-0.007177	0.310027	-0.663413	-0.343738	-0.587887	-176.467712	-83.294500	51.639019
61249		9.682729	0.314915	-0.627973	0.590615	0.182000	-0.124204	0.068173	0.372550	-0.086314	-0.912598	0.363281	0.358887	0.096817	0.003110	-0.006459	0.310653	-0.662106	-0.343626	-0.589094	-176.698280	-83.505125	51.910267
61250		9.697804	0.244495	-0.620306	0.511651	0.203303	-0.107600	0.024228	0.398355	-0.079902	-0.921387	0.378174	0.347412	0.096966	0.002407	-0.006396	0.311143	-0.660822	-0.343246	-0.590497	-176.928508	-83.732968	52.143983
61251		9.685149	0.179508	-0.557448	0.465735	0.262150	-0.124586	-0.016484	0.424021	-0.068772	-0.916748	0.367432	0.344727	0.096840	0.001761	-0.005780	0.311626	-0.659520	-0.342743	-0.591988	-177.135537	-83.972275	52.342523
61252		9.619395	0.020367	-0.511143	0.329104	0.355086	-0.191882	-0.046957	0.429090	-0.068954	-0.920166	0.371826	0.342773	0.096183	0.000169	-0.005318	0.311979	-0.658259	-0.342082	-0.593586	-177.373918	-84.217312	52.546035
61253		9.671192	0.008436	-0.519938	0.289696	0.328061	-0.137427	-0.043272	0.441526	-0.054687	-0.921387	0.371582	0.343018	0.096700	0.000057	-0.005413	0.312443	-0.656965	-0.341423	-0.595153	-177.545641	-84.466119	52.693491
61254		9.674253	0.059011	-0.515886	0.305816	0.270006	-0.133111	-0.081213	0.448243	-0.047173	-0.920410	0.370117	0.341309	0.096731	0.000565	-0.005376	0.312768	-0.655736	-0.340546	-0.596837	-177.703603	-84.721543	52.794645
61255		9.744601	-0.018893	-0.505586	0.224484	0.295268	-0.062022	-0.110566	0.445334	-0.035074	-0.920654	0.373291	0.334229	0.097434	-0.000209	-0.005273	0.313073	-0.654563	-0.339613	-0.598495	-177.817364	-84.972014	52.845060
61256		9.770919	-0.080185	-0.521894	0.139619	0.285074	-0.032670	-0.132855	0.444966	-0.025054	-0.926270	0.364746	0.335449	0.097697	-0.000818	-0.005436	0.313282	-0.653457	-0.338506	-0.600219	-177.881264	-85.225138	52.821288
61257		9.778380	-0.123195	-0.516496	0.081879	0.280799	-0.024278	-0.151051	0.447941	-0.017191	-0.924316	0.364014	0.329102	0.097772	-0.001244	-0.005383	0.313509	-0.652362	-0.337386	-0.601919	-177.904201	-85.476717	52.757260
61258		9.766768	-0.213956	-0.598016	-0.065374	0.231260	-0.028248	-0.162606	0.446010	-0.008605	-0.927002	0.366699	0.330811	0.097654	-0.002149	-0.006196	0.313660	-0.651324	-0.336121	-0.603669	-177.863179	-85.730152	52.609493
61259		9.664507	-0.295064	-0.549435	-0.132970	0.277904	-0.132988	-0.164433	0.438730	-0.007210	-0.923584	0.362305	0.319336	0.096633	-0.002959	-0.005704	0.313853	-0.650288	-0.334939	-0.605340	-177.806423	-85.976240	52.457910
61260		9.630411	-0.314740	-0.550292	-0.175258	0.253515	-0.166363	-0.177545	0.431103	-0.007433	-0.925049	0.366943	0.321289	0.096292	-0.003156	-0.005708	0.313932	-0.649313	-0.333646	-0.607058	-177.743072	-86.221106	52.279476
61261		9.530364	-0.311059	-0.605479	-0.231924	0.169445	-0.262370	-0.180527	0.425463	-0.007923	-0.930420	0.364014	0.330078	0.095290	-0.003120	-0.006255	0.314046	-0.648335	-0.332435	-0.608707	-177.678115	-86.459593	52.110515
61262		9.507720	-0.317203	-0.638434	-0.280194	0.113525	-0.283079	-0.185573	0.418389	-0.000251	-0.929932	0.367676	0.317383	0.095064	-0.003178	-0.006580	0.314085	-0.647421	-0.331100	-0.610384	-177.518408	-86.696941	51.829061
61263		9.537561	-0.373492	-0.635752	-0.345793	0.119135	-0.253667	-0.184144	0.411345	-0.002130	-0.926758	0.364502	0.315674	0.095362	-0.003742	-0.006550	0.314178	-0.646494	-0.329878	-0.611979	-177.357046	-86.927148	51.561544
61264		9.550229	-0.332338	-0.735732	-0.392882	-0.016210	-0.236473	-0.181712	0.408286	0.003407	-0.931641	0.359619	0.310791	0.095487	-0.003329	-0.007549	0.314228	-0.645602	-0.328562	-0.613601	-177.085888	-87.158466	51.172061
61265		9.638793	-0.340948	-0.749413	-0.426974	-0.049656	-0.148357	-0.169092	0.407633	0.011934	-0.934082	0.362061	0.313965	0.096373	-0.003410	-0.007688	0.314402	-0.644679	-0.327343	-0.615131	-176.656527	-87.385956	50.644979
61266		9.588154	-0.303387	-0.794606	-0.446557	-0.141535	-0.198293	-0.162234	0.408760	0.010554	-0.925781	0.359131	0.312988	0.095865	-0.003035	-0.008140	0.314527	-0.643765	-0.326053	-0.616708	-176.133534	-87.616849	50.013481
61267		9.601067	-0.302426	-0.832437	-0.489354	-0.203500	-0.185440	-0.149312	0.409134	0.015785	-0.943115	0.364746	0.303223	0.095994	-0.003023	-0.008518	0.314777	-0.642806	-0.324878	-0.618199	-175.419602	-87.844520	49.213120
61268		9.623004	-0.190504	-0.875039	-0.445336	-0.335496	-0.164207	-0.142319	0.411307	0.022272	-0.936279	0.362061	0.299805	0.096212	-0.001901	-0.008947	0.315002	-0.641866	-0.323604	-0.619727	-174.384858	-88.075329	48.081027
61269		9.682824	-0.162103	-0.920923	-0.469745	-0.420226	-0.105264	-0.142835	0.414850	0.023640	-0.945557	0.363037	0.301025	0.096809	-0.001616	-0.009409	0.315303	-0.640887	-0.322411	-0.621207	-173.053123	-88.304494	46.666489
61270		9.655328	-0.137972	-0.962760	-0.497240	-0.502194	-0.134272	-0.127974	0.417097	0.035125	-0.938232	0.357422	0.297363	0.096533	-0.001369	-0.009828	0.315624	-0.639919	-0.321135	-0.622701	-170.985047	-88.535089	44.510116
61271		9.641430	-0.088115	-0.986264	-0.492290	-0.584944	-0.150751	-0.127210	0.425636	0.040662	-0.935303	0.359131	0.296631	0.096393	-0.000868	-0.010067	0.316043	-0.638903	-0.319917	-0.624158	-167.995505	-88.764700	41.446574
61272		9.594075	-0.053068	-1.030456	-0.512058	-0.676712	-0.200681	-0.128223	0.422510	0.050907	-0.932861	0.357910	0.290039	0.095919	-0.000513	-0.010507	0.316409	-0.637943	-0.318571	-0.625641	-163.287881	-88.987956	36.648987
61273		9.601994	-0.016806	-1.051137	-0.514935	-0.749604	-0.196230	-0.130342	0.421036	0.059301	-0.939453	0.355225	0.286133	0.095998	-0.000147	-0.010713	0.316864	-0.636969	-0.317287	-0.627054	-155.797780	-89.195820	29.082992
61274		9.568510	0.043424	-1.077802	-0.502579	-0.842415	-0.233672	-0.136935	0.420561	0.065827	-0.936279	0.360352	0.292969	0.095662	0.000458	-0.010980	0.317246	-0.636045	-0.315872	-0.628511	-143.070940	-89.379437	16.261957
61275		9.585110	0.027877	-1.160982	-0.583589	-0.934825	-0.220587	-0.148398	0.419832	0.072219	-0.934326	0.365723	0.272461	0.095826	0.000305	-0.011811	0.317680	-0.635118	-0.314490	-0.629921	-121.904404	-89.505893	-4.990862
61276		9.573605	0.074981	-1.184784	-0.579045	-1.017720	-0.237090	-0.160282	0.418247	0.083484	-0.940430	0.354736	0.278320	0.095711	0.000780	-0.012049	0.318041	-0.634258	-0.312954	-0.631369	-93.097454	-89.525983	-33.904177
61277		9.490542	0.065603	-1.144336	-0.580642	-1.014571	-0.324929	-0.173012	0.412152	0.082485	-0.950195	0.356689	0.271973	0.094881	0.000685	-0.011639	0.318414	-0.633404	-0.311471	-0.632771	-68.761719	-89.435088	-58.340301
61278		9.378753	0.089182	-1.164167	-0.592112	-1.078003	-0.441912	-0.195892	0.404900	0.087608	-0.941406	0.365234	0.276123	0.093763	0.000921	-0.011832	0.318647	-0.632645	-0.309828	-0.634217	-53.503282	-89.274155	-73.725845
61279		9.280063	0.133067	-1.190502	-0.590197	-1.157720	-0.546307	-0.217724	0.395793	0.092956	-0.939209	0.364258	0.271484	0.092776	0.001361	-0.012090	0.318882	-0.631923	-0.308192	-0.635614	-44.629930	-89.083659	-82.725152
61280		9.282831	0.194722	-1.246724	-0.591723	-1.272057	-0.550139	-0.235718	0.376995	0.093198	-0.937988	0.363770	0.270020	0.092804	0.001976	-0.012645	0.318962	-0.631318	-0.306452	-0.637015	-39.268619	-88.886170	-88.235560
61281		9.374069	0.259955	-1.303143	-0.590027	-1.389460	-0.466025	-0.262831	0.365816	0.095273	-0.945068	0.353760	0.274658	0.093715	0.002627	-0.013206	0.319013	-0.630761	-0.304711	-0.638375	-35.795876	-88.687046	-91.860007
61282		9.392860	0.263078	-1.320998	-0.614241	-1.436061	-0.453178	-0.291640	0.348812	0.097912	-0.948242	0.367676	0.270996	0.093904	0.002657	-0.013378	0.318875	-0.630340	-0.302814	-0.639761	-33.526118	-88.491242	-94.312266
61283		9.389811	0.290781	-1.296480	-0.592145	-1.462206	-0.461474	-0.329465	0.327274	0.094214	-0.947266	0.357178	0.264648	0.093875	0.002931	-0.013123	0.318650	-0.630004	-0.300921	-0.641096	-31.982168	-88.305394	-96.045971
61284		9.341140	0.279749	-1.315883	-0.627012	-1.495809	-0.515589	-0.359585	0.306105	0.098750	-0.948486	0.361084	0.267090	0.093390	0.002820	-0.013307	0.318238	-0.629821	-0.298879	-0.642434	-31.036907	-88.127739	-97.210982
61285		9.290960	0.280400	-1.290027	-0.623378	-1.499158	-0.569928	-0.395975	0.284582	0.098175	-0.949219	0.359131	0.263184	0.092890	0.002824	-0.013038	0.317748	-0.629726	-0.296825	-0.643721	-30.459841	-87.960188	-98.015706
61286		9.250267	0.232815	-1.330244	-0.698182	-1.521664	-0.615502	-0.440296	0.256714	0.091463	-0.952148	0.349365	0.260498	0.092484	0.002341	-0.013426	0.316980	-0.629812	-0.294626	-0.645024	-30.134799	-87.808902	-98.606227
61287		9.207705	0.197527	-1.326092	-0.734504	-1.514011	-0.661316	-0.463102	0.225852	0.084448	-0.951172	0.362061	0.263428	0.092061	0.001983	-0.013369	0.316144	-0.629984	-0.292488	-0.646239	-30.009159	-87.674104	-98.997825
61288		9.175168	0.199291	-1.257882	-0.700695	-1.476739	-0.694907	-0.488642	0.190880	0.076049	-0.946289	0.351318	0.256348	0.091739	0.001997	-0.012671	0.315074	-0.630328	-0.290287	-0.647417	-30.065313	-87.560353	-99.234027
61289		9.195040	0.118118	-1.297933	-0.798422	-1.469861	-0.677625	-0.514066	0.155268	0.061245	-0.942871	0.358398	0.252930	0.091940	0.001176	-0.013054	0.313894	-0.630766	-0.288165	-0.648511	-30.204142	-87.467224	-99.390201
61290		9.196869	0.119783	-1.284750	-0.797332	-1.469436	-0.677462	-0.527315	0.118005	0.048718	-0.939453	0.356934	0.251709	0.091961	0.001186	-0.012905	0.312519	-0.631352	-0.286055	-0.649538	-30.456875	-87.397957	-99.448738
61291		9.278747	0.158149	-1.278975	-0.772259	-1.498697	-0.597838	-0.539434	0.078419	0.031582	-0.946777	0.356201	0.258057	0.092782	0.001562	-0.012830	0.311048	-0.632027	-0.284060	-0.650462	-30.771555	-87.351438	-99.443442
61292		9.313189	0.170369	-1.273117	-0.765701	-1.504704	-0.564179	-0.561980	0.031059	0.017769	-0.947998	0.359375	0.261719	0.093130	0.001676	-0.012750	0.309342	-0.632894	-0.282078	-0.651295	-31.255888	-87.334527	-99.288173
61293		9.327064	0.115026	-1.234028	-0.786976	-1.437026	-0.547386	-0.567207	-0.011820	0.002692	-0.941895	0.352783	0.265137	0.093271	0.001117	-0.012338	0.307557	-0.633854	-0.280219	-0.652008	-31.848500	-87.340735	-99.020573
61294		9.400407	0.109022	-1.206398	-0.776685	-1.407990	-0.471957	-0.572592	-0.061362	-0.016702	-0.946533	0.345459	0.260986	0.094008	0.001048	-0.012038	0.305565	-0.634983	-0.278451	-0.652604	-32.583873	-87.379508	-98.620498
61295		9.446863	0.063643	-1.177190	-0.792541	-1.346788	-0.421677	-0.572404	-0.107145	-0.029885	-0.937744	0.345215	0.263184	0.094475	0.000589	-0.011723	0.303519	-0.636206	-0.276820	-0.653061	-33.503001	-87.441355	-98.029043
61296		9.459168	0.011934	-1.152964	-0.813734	-1.278531	-0.404792	-0.557553	-0.152969	-0.050502	-0.947510	0.353516	0.268555	0.094600	0.000063	-0.011458	0.301338	-0.637552	-0.275351	-0.653380	-34.584135	-87.534328	-97.273074
61297		9.510463	0.022699	-1.142805	-0.795660	-1.259930	-0.350399	-0.541091	-0.203825	-0.069191	-0.948486	0.341553	0.272705	0.095116	0.000163	-0.011332	0.299124	-0.638979	-0.274089	-0.653534	-35.909619	-87.653345	-96.257027
61298		9.480758	-0.000380	-1.134528	-0.801373	-1.211414	-0.375413	-0.517389	-0.252304	-0.092690	-0.944336	0.340332	0.277832	0.094822	-0.000077	-0.011226	0.296796	-0.640519	-0.273039	-0.653527	-37.530382	-87.805141	-94.936879
61299		9.525549	-0.039881	-1.125595	-0.817177	-1.150229	-0.325131	-0.490971	-0.296617	-0.114944	-0.933105	0.333984	0.279541	0.095272	-0.000481	-0.011114	0.294461	-0.642100	-0.272220	-0.653373	-39.495677	-87.979477	-93.252057
61300		9.505426	-0.024582	-1.032864	-0.733314	-1.057241	-0.338253	-0.465438	-0.343665	-0.135569	-0.946533	0.339600	0.291260	0.095072	-0.000334	-0.010165	0.292026	-0.643795	-0.271607	-0.653053	-42.118490	-88.183255	-90.900281
61301		9.508689	-0.035683	-1.037990	-0.733724	-1.015846	-0.329891	-0.433145	-0.378310	-0.156964	-0.945068	0.331299	0.277344	0.095106	-0.000454	-0.010199	0.289624	-0.645490	-0.271228	-0.652608	-45.479534	-88.401655	-87.786335
61302		9.639116	0.015304	-1.077398	-0.710531	-1.041008	-0.195782	-0.410000	-0.416084	-0.170597	-0.933838	0.332764	0.282715	0.096413	0.000049	-0.010574	0.287161	-0.647277	-0.271022	-0.652011	-50.402198	-88.637194	-83.100415
61303		9.717210	-0.013841	-1.110111	-0.739956	-1.001487	-0.111862	-0.400860	-0.442247	-0.190290	-0.931396	0.326172	0.294189	0.097196	-0.000253	-0.010886	0.284662	-0.649076	-0.270943	-0.651351	-57.451501	-88.873223	-76.279490
61304		9.756219	-0.100211	-1.113610	-0.789278	-0.896964	-0.065572	-0.357624	-0.453186	-0.194214	-0.926270	0.329346	0.296387	0.097586	-0.001117	-0.010913	0.282248	-0.650861	-0.271047	-0.650576	-68.421584	-89.092115	-65.513687
61305		9.738171	-0.094557	-1.131691	-0.781975	-0.865482	-0.078167	-0.308717	-0.461139	-0.201534	-0.929932	0.323975	0.300293	0.097406	-0.001061	-0.011091	0.279981	-0.652564	-0.271326	-0.649733	-85.163060	-89.262192	-48.947712
61306		9.745302	-0.038463	-1.082824	-0.690763	-0.820360	-0.066174	-0.295786	-0.466173	-0.198853	-0.929932	0.325195	0.311035	0.097477	-0.000497	-0.010600	0.277737	-0.654284	-0.271668	-0.648823	-109.117496	-89.338498	-25.160766
61307		9.798168	-0.092780	-0.995539	-0.650792	-0.672189	-0.008188	-0.285614	-0.463804	-0.191979	-0.930420	0.321777	0.311279	0.098003	-0.001036	-0.009727	0.275568	-0.655964	-0.271990	-0.647916	-133.254650	-89.286292	-1.185859
61308		9.776948	-0.134092	-0.934754	-0.619674	-0.551734	-0.025357	-0.276086	-0.458294	-0.188532	-0.924561	0.312256	0.313721	0.097789	-0.001446	-0.009122	0.273428	-0.657635	-0.272349	-0.646977	-151.513860	-89.131990	16.917312
61309		9.794164	-0.120445	-0.929487	-0.587802	-0.511529	-0.004694	-0.271189	-0.446081	-0.174496	-0.932861	0.317627	0.317871	0.097961	-0.001302	-0.009075	0.271383	-0.659251	-0.272631	-0.646074	-162.788113	-88.927417	28.037486
61310		9.815340	-0.060422	-0.977467	-0.559857	-0.543479	0.020471	-0.256662	-0.421744	-0.151616	-0.923340	0.313232	0.321777	0.098173	-0.000691	-0.009567	0.269478	-0.660816	-0.272884	-0.645166	-169.727788	-88.702202	34.833082
61311		9.842889	0.067968	-0.883540	-0.383729	-0.527712	0.048441	-0.267925	-0.393011	-0.121365	-0.931641	0.303467	0.328857	0.098446	0.000608	-0.008643	0.267683	-0.662320	-0.272927	-0.644352	-173.794120	-88.483349	38.746819
61312		9.824385	-0.130580	-0.846908	-0.479387	-0.326163	0.031932	-0.310633	-0.351680	-0.077777	-0.929932	0.305420	0.331787	0.098258	-0.001357	-0.008294	0.265927	-0.663824	-0.272663	-0.643643	-176.069288	-88.275973	40.846091
61313		9.915210	-0.344094	-0.833076	-0.598897	-0.133764	0.124472	-0.287285	-0.306888	-0.041951	-0.922363	0.306641	0.331299	0.099164	-0.003474	-0.008174	0.264438	-0.665178	-0.272262	-0.643028	-177.147792	-88.096463	41.760202
61314		10.000035	-0.375914	-0.737567	-0.532166	-0.017437	0.207415	-0.297200	-0.256447	-0.011334	-0.923340	0.308594	0.332764	0.100009	-0.003776	-0.007242	0.263073	-0.666440	-0.271697	-0.642519	-177.602918	-87.939481	42.047432
61315		10.232856	-0.248929	-0.461686	-0.223169	0.108588	0.430595	-0.325162	-0.196886	0.009299	-0.923096	0.307129	0.337646	0.102333	-0.002492	-0.004512	0.261770	-0.667555	-0.270856	-0.642249	-177.622531	-87.821241	41.880389
61316		10.737249	0.649747	0.497778	1.118615	0.156700	0.896309	-0.492718	-0.109140	0.017602	-0.920654	0.307129	0.326416	0.107369	0.006519	0.005020	0.260054	-0.668629	-0.269381	-0.642449	-177.620340	-87.747873	41.599699
61317		11.208860	-1.047108	0.760035	0.161779	1.564746	1.360403	-0.967400	0.029658	0.205483	-0.929199	0.300049	0.346924	0.112100	-0.010319	0.007634	0.257536	-0.670103	-0.265522	-0.643534	-175.018398	-87.751837	38.440817
61318		11.187469	-2.230864	1.546823	-0.049536	2.931414	1.319828	-0.824122	0.252445	0.425569	-0.919434	0.305420	0.342041	0.111941	-0.022007	0.015418	0.256498	-0.670964	-0.261139	-0.644843	-168.600039	-87.850155	31.549296
