// General information: 
//  MT Manager version: 2019.2.0 
//  XDA version: 2019.2.0 build 3853 rev 94535 built on 2019-09-09
// Device information: 
//  DeviceId: 00B4778E
//  ProductCode: MTW2-3A7G6
//  Firmware Version: 4.6.0
//  Hardware Version: 2.0.0
// Device settings: 
//  Filter Profile: human(46.1)
//  Option Flags: Orientation Smoother Disabled, AHS Disabled, ICC Disabled
// Coordinate system: ENU
PacketCounter	SampleTimeFine	Acc_X	Acc_Y	Acc_Z	FreeAcc_E	FreeAcc_N	FreeAcc_U	Gyr_X	Gyr_Y	Gyr_Z	Mag_X	Mag_Y	Mag_Z	VelInc_X	VelInc_Y	VelInc_Z	Quat_q0	Quat_q1	Quat_q2	Quat_q3	Roll	Pitch	Yaw
60776		5.816277	-0.782278	7.767031	0.000000	0.000000	-0.077811	-0.001713	0.011604	0.000974	-0.629883	0.436768	-0.582275	0.058167	-0.007822	0.077667	0.515376	-0.287521	-0.135722	-0.795801	-5.750857	-36.692104	-112.235806
60777		5.816561	-0.793815	7.789290	-0.000000	-0.000000	-0.058941	-0.001668	0.011177	0.002712	-0.627930	0.435547	-0.582764	0.058170	-0.007937	0.077890	0.515463	-0.287259	-0.134911	-0.795977	-5.818175	-36.611568	-112.220638
60778		5.836101	-0.792337	7.762152	-0.014729	-0.020413	-0.069062	-0.001669	0.011177	0.002711	-0.624756	0.437256	-0.594971	0.058365	-0.007922	0.077618	0.515529	-0.287356	-0.135331	-0.795828	-5.785743	-36.648612	-112.212916
60779		5.803547	-0.813725	7.780984	-0.018351	0.021633	-0.071732	-0.002290	0.010015	-0.001359	-0.628418	0.437988	-0.585205	0.058039	-0.008137	0.077807	0.515527	-0.287321	-0.135298	-0.795847	-5.786049	-36.642982	-112.214603
60780		5.801599	-0.802806	7.759910	-0.014888	0.004895	-0.090598	-0.002884	0.009163	0.007565	-0.623047	0.433105	-0.588135	0.058020	-0.008025	0.077597	0.515614	-0.287240	-0.135199	-0.795837	-5.793968	-36.627781	-112.203357
60781		5.833745	-0.793343	7.763820	-0.014905	-0.022095	-0.069066	-0.002245	0.009588	0.000379	-0.621094	0.432617	-0.588867	0.058341	-0.007932	0.077635	0.515618	-0.287208	-0.135165	-0.795852	-5.795003	-36.622294	-112.203779
60782		5.822849	-0.824153	7.776457	-0.035692	0.003270	-0.062980	0.002661	0.010080	0.002966	-0.620117	0.434814	-0.581543	0.058233	-0.008242	0.077762	0.515693	-0.287113	-0.135094	-0.795850	-5.798120	-36.607570	-112.195944
60783		5.800414	-0.814785	7.783209	-0.018614	0.018367	-0.071726	-0.003018	0.010444	0.002349	-0.630127	0.443359	-0.583252	0.058008	-0.008146	0.077829	0.515705	-0.287081	-0.135051	-0.795861	-5.800394	-36.601481	-112.195029
60784		5.842621	-0.774409	7.775133	0.002069	-0.036299	-0.056290	-0.000897	0.010322	0.000738	-0.627197	0.436768	-0.586670	0.058430	-0.007744	0.077748	0.515737	-0.287021	-0.134996	-0.795871	-5.802716	-36.591602	-112.192152
60785		5.798814	-0.815108	7.784367	-0.018624	0.017645	-0.071724	0.001312	0.009347	0.002605	-0.628174	0.437256	-0.591797	0.057992	-0.008151	0.077841	0.515756	-0.286982	-0.134973	-0.795877	-5.802665	-36.586123	-112.190977
60786		5.796894	-0.803807	7.763322	-0.014989	0.001757	-0.090598	0.001268	0.009774	0.000866	-0.624268	0.437744	-0.578125	0.057973	-0.008038	0.077630	0.515796	-0.286915	-0.134923	-0.795883	-5.804138	-36.575930	-112.187477
60787		5.829083	-0.793904	7.767264	-0.015002	-0.025239	-0.069073	-0.001473	0.008733	-0.001594	-0.619873	0.434814	-0.583252	0.058294	-0.007939	0.077670	0.515793	-0.286883	-0.134897	-0.795901	-5.803932	-36.571044	-112.189238
60788		5.786298	-0.786346	7.801674	0.015528	0.019396	-0.067685	-0.000766	0.009042	0.005952	-0.621094	0.443604	-0.588379	0.057867	-0.007861	0.078014	0.515843	-0.286836	-0.134841	-0.795895	-5.808346	-36.562247	-112.182825
60789		5.827536	-0.794368	7.768377	-0.014979	-0.025854	-0.069075	-0.001758	0.012032	-0.000770	-0.624756	0.437744	-0.585449	0.058280	-0.007943	0.077680	0.515846	-0.286792	-0.134804	-0.795916	-5.808511	-36.555433	-112.184240
60790		5.826728	-0.794480	7.768971	-0.015012	-0.027341	-0.069079	-0.000038	0.008613	0.002243	-0.625000	0.435059	-0.585449	0.058271	-0.007944	0.077687	0.515911	-0.286713	-0.134729	-0.795914	-5.812982	-36.542225	-112.176817
60791		5.837255	-0.775308	7.779073	0.002053	-0.039239	-0.056301	-0.003019	0.010444	0.002345	-0.628174	0.435303	-0.586914	0.058377	-0.007751	0.077788	0.515923	-0.286681	-0.134687	-0.795925	-5.815253	-36.536135	-112.175907
60792		5.792206	-0.804948	7.766702	-0.014955	-0.000526	-0.090597	-0.001671	0.011178	0.002706	-0.633057	0.445313	-0.583984	0.057927	-0.008048	0.077664	0.515947	-0.286639	-0.134640	-0.795932	-5.817708	-36.528700	-112.173496
60793		5.824270	-0.795311	7.770729	-0.014964	-0.027527	-0.069080	-0.000855	0.009896	0.002474	-0.622803	0.438721	-0.580078	0.058247	-0.007952	0.077704	0.515962	-0.286604	-0.134608	-0.795941	-5.818816	-36.522916	-112.172456
60794		5.823461	-0.795602	7.771306	-0.014877	-0.027522	-0.069079	-0.003020	0.010445	0.002344	-0.635010	0.440186	-0.588867	0.058239	-0.007954	0.077710	0.515978	-0.286575	-0.134565	-0.795949	-5.821661	-36.517052	-112.170826
60795		5.811329	-0.815225	7.762357	-0.031942	-0.015624	-0.081857	0.000450	0.011056	0.001096	-0.629883	0.434082	-0.590088	0.058118	-0.008152	0.077620	0.515990	-0.286530	-0.134536	-0.795961	-5.821391	-36.510685	-112.170848
60796		5.820705	-0.784701	7.750867	-0.011099	-0.042199	-0.087956	-0.003552	0.008429	0.001750	-0.627441	0.436035	-0.584961	0.058210	-0.007845	0.077506	0.515990	-0.286523	-0.134508	-0.795969	-5.823684	-36.508085	-112.170773
60797		5.808717	-0.804410	7.741801	-0.028164	-0.030301	-0.100734	-0.002246	0.009589	0.000373	-0.631592	0.447998	-0.583008	0.058091	-0.008043	0.077415	0.515994	-0.286491	-0.134474	-0.795983	-5.824716	-36.502597	-112.171202
60798		5.829534	-0.814062	7.736268	-0.045028	-0.045191	-0.091991	0.000450	0.011057	0.001096	-0.618652	0.445557	-0.593750	0.058300	-0.008140	0.077359	0.516006	-0.286460	-0.134449	-0.795991	-5.825285	-36.497867	-112.170547
60799		5.819619	-0.796440	7.774097	-0.014532	-0.026938	-0.069077	-0.000613	0.007024	-0.000090	-0.625488	0.436035	-0.581055	0.058199	-0.007964	0.077739	0.516010	-0.286434	-0.134429	-0.796001	-5.825297	-36.493868	-112.171119
60800		5.818943	-0.796518	7.774596	-0.014451	-0.027920	-0.069080	-0.000899	0.010323	0.000734	-0.630615	0.438232	-0.585449	0.058193	-0.007965	0.077743	0.516061	-0.286368	-0.134365	-0.796003	-5.828925	-36.482776	-112.165478
60801		5.838711	-0.794869	7.747400	-0.027878	-0.058070	-0.079219	-0.001430	0.008307	0.000141	-0.621094	0.434570	-0.590576	0.058390	-0.007948	0.077472	0.516065	-0.286339	-0.134338	-0.796015	-5.829447	-36.478031	-112.165978
60802		5.818603	-0.808007	7.797283	-0.018042	-0.012889	-0.050201	-0.000941	0.010750	-0.001005	-0.625977	0.439453	-0.585449	0.058190	-0.008080	0.077970	0.516078	-0.286298	-0.134310	-0.796027	-5.829496	-36.472010	-112.165750
60803		5.816548	-0.796719	7.776367	-0.014397	-0.027934	-0.069080	0.000980	0.013073	0.001687	-0.617920	0.433838	-0.589111	0.058171	-0.007967	0.077760	0.516095	-0.286245	-0.134277	-0.796040	-5.829080	-36.464459	-112.165502
60804		5.815690	-0.796692	7.777011	-0.014280	-0.028334	-0.069081	-0.001515	0.009161	-0.003337	-0.629150	0.442871	-0.584717	0.058160	-0.007967	0.077768	0.516112	-0.286201	-0.134240	-0.796051	-5.830032	-36.457510	-112.164542
60805		5.815034	-0.796689	7.777502	-0.014280	-0.028334	-0.069081	0.002167	0.007638	0.004109	-0.626465	0.435059	-0.581787	0.058153	-0.007967	0.077773	0.516136	-0.286167	-0.134223	-0.796050	-5.830190	-36.452915	-112.162184
60806		5.837059	-0.817700	7.793523	-0.034168	-0.027731	-0.041456	-0.004455	0.010566	-0.001500	-0.631104	0.439209	-0.587891	0.058375	-0.008176	0.077932	0.516127	-0.286187	-0.134186	-0.796055	-5.835433	-36.452447	-112.161801
60807		5.802204	-0.816420	7.769054	-0.030521	-0.015773	-0.081853	0.000448	0.011057	0.001093	-0.631836	0.441406	-0.587402	0.058026	-0.008164	0.077687	0.516139	-0.286143	-0.134157	-0.796068	-5.835163	-36.446089	-112.161829
60808		5.812598	-0.796978	7.779293	-0.012574	-0.026969	-0.069075	0.000406	0.011484	-0.000646	-0.625977	0.437988	-0.592285	0.058130	-0.007970	0.077790	0.516140	-0.286150	-0.134135	-0.796068	-5.838183	-36.445343	-112.160806
60809		5.810661	-0.785613	7.758308	-0.008929	-0.042013	-0.087953	0.001265	0.009775	0.000862	-0.629150	0.436035	-0.581787	0.058110	-0.007856	0.077580	0.516152	-0.286109	-0.134114	-0.796079	-5.837403	-36.439738	-112.160908
60810		5.821323	-0.825815	7.764844	-0.046527	-0.029611	-0.073101	-0.000984	0.011178	-0.002747	-0.624512	0.431152	-0.585938	0.058217	-0.008259	0.077645	0.516145	-0.286087	-0.134105	-0.796093	-5.836010	-36.437032	-112.163160
60811		5.811260	-0.808094	7.802748	-0.016029	-0.011349	-0.050195	0.001264	0.009775	0.000861	-0.628906	0.442627	-0.583984	0.058116	-0.008081	0.078025	0.516157	-0.286045	-0.134084	-0.796104	-5.835223	-36.431429	-112.163268
60812		5.797066	-0.805068	7.750461	-0.025482	-0.028892	-0.100722	-0.003555	0.008429	0.001744	-0.630127	0.438965	-0.586426	0.057974	-0.008049	0.077502	0.516160	-0.286053	-0.134065	-0.796103	-5.838060	-36.430858	-112.161947
60813		5.819944	-0.777605	7.791803	0.005018	-0.037625	-0.056296	0.002570	0.010936	-0.000515	-0.635254	0.440430	-0.587158	0.058204	-0.007777	0.077915	0.516169	-0.286002	-0.134048	-0.796118	-5.835895	-36.424679	-112.163119
60814		5.806669	-0.785909	7.761266	-0.007460	-0.039631	-0.087942	-0.006007	0.012278	0.002433	-0.622314	0.442383	-0.587402	0.058072	-0.007856	0.077609	0.516160	-0.286041	-0.134008	-0.796116	-5.843103	-36.425946	-112.161403
60815		5.838666	-0.776339	7.765409	-0.007455	-0.066619	-0.066416	-0.000943	0.010751	-0.001010	-0.623535	0.428467	-0.584961	0.058391	-0.007763	0.077651	0.516162	-0.286001	-0.133978	-0.796135	-5.842750	-36.419920	-112.162920
60816		5.826524	-0.795991	7.756454	-0.024749	-0.054429	-0.079189	-0.003842	0.011729	0.002564	-0.627930	0.444580	-0.590088	0.058270	-0.007958	0.077561	0.516185	-0.285961	-0.133953	-0.796138	-5.843172	-36.414203	-112.160997
60817		5.805143	-0.798081	7.784745	-0.011322	-0.024269	-0.069066	-0.002249	0.009591	0.000365	-0.626221	0.443359	-0.587646	0.058055	-0.007980	0.077845	0.516189	-0.285929	-0.133919	-0.796153	-5.844187	-36.408745	-112.161456
60818		5.814795	-0.827206	7.769586	-0.044281	-0.027336	-0.073084	-0.000043	0.008614	0.002236	-0.629883	0.441162	-0.595947	0.058151	-0.008271	0.077693	0.516227	-0.285946	-0.133874	-0.796130	-5.852399	-36.407117	-112.153570
60819		5.826397	-0.819113	7.801349	-0.030843	-0.024173	-0.041436	-0.002373	0.010872	-0.004851	-0.623047	0.438965	-0.583252	0.058268	-0.008192	0.078010	0.516211	-0.285906	-0.133843	-0.796159	-5.851273	-36.401223	-112.157786
60820		5.834627	-0.777047	7.768374	-0.005964	-0.065811	-0.066409	0.001834	0.011364	0.003191	-0.634277	0.443115	-0.591309	0.058351	-0.007770	0.077680	0.516249	-0.285886	-0.133823	-0.796146	-5.853638	-36.397633	-112.152465
60821		5.801975	-0.798485	7.787065	-0.009609	-0.023766	-0.069063	-0.004374	0.009713	0.001970	-0.634033	0.439941	-0.578369	0.058024	-0.007983	0.077868	0.516257	-0.285860	-0.133777	-0.796157	-5.856578	-36.391988	-112.151761
60822		5.801225	-0.798682	7.787603	-0.008187	-0.022083	-0.069058	-0.000126	0.009469	-0.001242	-0.630859	0.439697	-0.591309	0.058016	-0.007987	0.077873	0.516231	-0.285927	-0.133781	-0.796150	-5.860728	-36.399041	-112.152175
60823		5.811835	-0.779382	7.797676	0.008899	-0.033962	-0.056285	-0.002739	0.007147	0.001510	-0.628418	0.434326	-0.589844	0.058121	-0.007792	0.077975	0.516237	-0.285907	-0.133750	-0.796158	-5.862666	-36.394942	-112.151621
60824		5.842137	-0.806739	7.754780	-0.038630	-0.066307	-0.070402	-0.000085	0.009042	0.000497	-0.624268	0.436768	-0.586426	0.058425	-0.008067	0.077545	0.516238	-0.285899	-0.133769	-0.796157	-5.859925	-36.395454	-112.152349
60825		5.832063	-0.789294	7.792621	-0.008121	-0.048023	-0.047520	-0.003027	0.010447	0.002331	-0.623291	0.436035	-0.588135	0.058325	-0.007891	0.077923	0.516250	-0.285868	-0.133727	-0.796168	-5.862187	-36.389423	-112.151484
60826		5.797306	-0.788144	7.768036	-0.004638	-0.035545	-0.087924	-0.002250	0.009591	0.000362	-0.630859	0.444824	-0.588867	0.057977	-0.007880	0.077678	0.516265	-0.285841	-0.133726	-0.796167	-5.860721	-36.386596	-112.150550
60827		5.808101	-0.828663	7.774436	-0.042416	-0.023699	-0.073066	-0.002740	0.007148	0.001509	-0.623535	0.436035	-0.584473	0.058084	-0.008285	0.077742	0.516272	-0.285821	-0.133695	-0.796176	-5.862600	-36.382476	-112.150031
60828		5.796876	-0.799953	7.790711	-0.007483	-0.019683	-0.069052	0.000198	0.013930	0.003648	-0.637451	0.436768	-0.593750	0.057974	-0.007999	0.077903	0.516299	-0.285819	-0.133669	-0.796163	-5.866599	-36.380423	-112.145240
60829		5.817583	-0.809691	7.785323	-0.024542	-0.034778	-0.060287	-0.002250	0.009591	0.000361	-0.624512	0.438477	-0.583496	0.058180	-0.008096	0.077851	0.516303	-0.285787	-0.133635	-0.796177	-5.867634	-36.374987	-112.145698
60830		5.816834	-0.809887	7.785863	-0.024124	-0.033326	-0.060281	-0.002250	0.009591	0.000361	-0.626953	0.437744	-0.586914	0.058172	-0.008098	0.077856	0.516288	-0.285811	-0.133649	-0.796176	-5.867454	-36.378355	-112.147006
60831		5.816003	-0.810080	7.786463	-0.024122	-0.033311	-0.060280	-0.001721	0.011608	0.000953	-0.626709	0.436768	-0.581787	0.058165	-0.008100	0.077861	0.516297	-0.285770	-0.133611	-0.796191	-5.868311	-36.371764	-112.147230
60832		5.835767	-0.808371	7.759405	-0.037091	-0.062334	-0.070370	-0.000126	0.009470	-0.001244	-0.627930	0.439453	-0.582275	0.058361	-0.008084	0.077591	0.516288	-0.285781	-0.133624	-0.796191	-5.867414	-36.373701	-112.148281
60833		5.813431	-0.798809	7.765983	-0.020025	-0.047215	-0.079141	-0.001473	0.008736	-0.001607	-0.624268	0.441650	-0.584961	0.058138	-0.007988	0.077657	0.516285	-0.285749	-0.133599	-0.796209	-5.867179	-36.368928	-112.150121
60834		5.825119	-0.790689	7.797671	-0.005527	-0.043164	-0.047495	-0.000656	0.007453	-0.001836	-0.631104	0.438232	-0.585205	0.058254	-0.007907	0.077975	0.516282	-0.285785	-0.133589	-0.796200	-5.871243	-36.371847	-112.148352
60835		5.824492	-0.790549	7.798154	-0.005514	-0.043143	-0.047495	0.002039	0.008921	-0.001110	-0.616211	0.443359	-0.576416	0.058248	-0.007907	0.077979	0.516286	-0.285745	-0.133576	-0.796214	-5.869254	-36.366970	-112.149825
60836		5.812648	-0.809868	7.788990	-0.021451	-0.030585	-0.060265	-0.002003	0.006720	-0.002200	-0.635010	0.443115	-0.588379	0.058129	-0.008099	0.077888	0.516285	-0.285786	-0.133554	-0.796203	-5.875139	-36.369542	-112.147146
60837		5.810922	-0.798453	7.767897	-0.017793	-0.045632	-0.079129	0.002568	0.010937	-0.000518	-0.624023	0.432373	-0.583740	0.058113	-0.007986	0.077676	0.516293	-0.285737	-0.133536	-0.796218	-5.873100	-36.363515	-112.148297
60838		5.831834	-0.807703	7.762431	-0.034328	-0.059167	-0.070340	-0.000775	0.008736	-0.007054	-0.624268	0.433350	-0.590088	0.058321	-0.008079	0.077622	0.516249	-0.285763	-0.133571	-0.796232	-5.869428	-36.368671	-112.154584
60839		5.818942	-0.815660	7.731669	-0.047756	-0.062335	-0.101976	0.000770	0.007332	0.002004	-0.622559	0.444092	-0.585205	0.058192	-0.008156	0.077315	0.516262	-0.285735	-0.133552	-0.796237	-5.869610	-36.364596	-112.153722
60840		5.808808	-0.797920	7.769532	-0.016969	-0.043611	-0.079118	0.001710	0.012648	-0.002030	-0.626709	0.434570	-0.589355	0.058093	-0.007980	0.077692	0.516287	-0.285697	-0.133549	-0.796235	-5.867890	-36.360418	-112.151859
60841		5.819432	-0.837953	7.776122	-0.054716	-0.031742	-0.064250	0.002038	0.008921	-0.001111	-0.621338	0.431885	-0.586426	0.058198	-0.008381	0.077759	0.516291	-0.285657	-0.133536	-0.796249	-5.865979	-36.355586	-112.153295
60842		5.827927	-0.795678	7.743048	-0.030978	-0.072716	-0.089191	0.000652	0.008615	-0.003214	-0.626465	0.432617	-0.581299	0.058282	-0.007958	0.077428	0.516290	-0.285617	-0.133589	-0.796255	-5.856774	-36.355179	-112.156811
60843		5.818840	-0.789064	7.802522	-0.004087	-0.039315	-0.047478	0.002528	0.011365	-0.002259	-0.627686	0.438232	-0.588623	0.058193	-0.007892	0.078022	0.516292	-0.285565	-0.133574	-0.796275	-5.853903	-36.349000	-112.159293
60844		5.817168	-0.777311	7.781430	-0.000142	-0.052805	-0.066328	0.004453	0.005500	-0.003534	-0.628174	0.437744	-0.582275	0.058174	-0.007776	0.077813	0.516269	-0.285583	-0.133640	-0.796272	-5.847348	-36.355432	-112.163137
60845		5.805381	-0.796295	7.772261	-0.017217	-0.040902	-0.079107	0.001998	0.009349	-0.002851	-0.620361	0.439697	-0.582764	0.058057	-0.007965	0.077720	0.516266	-0.285541	-0.133629	-0.796291	-5.844580	-36.350484	-112.165939
60846		5.826268	-0.805427	7.766846	-0.033231	-0.055046	-0.070312	0.004692	0.010817	-0.002124	-0.619629	0.437988	-0.589600	0.058267	-0.008057	0.077665	0.516273	-0.285551	-0.133637	-0.796281	-5.845017	-36.351990	-112.164333
60847		5.825484	-0.805102	7.767468	-0.033210	-0.055008	-0.070312	-0.000167	0.009898	-0.002988	-0.627441	0.430176	-0.587646	0.058259	-0.008052	0.077672	0.516267	-0.285512	-0.133616	-0.796303	-5.843476	-36.346776	-112.167242
60848		5.804107	-0.806593	7.795696	-0.020271	-0.023937	-0.060244	0.003345	0.010083	-0.002488	-0.626709	0.434082	-0.583496	0.058045	-0.008068	0.077954	0.516283	-0.285460	-0.133668	-0.796303	-5.834225	-36.344941	-112.168746
60849		5.821952	-0.781710	7.725429	-0.026422	-0.084236	-0.108015	0.004124	0.009227	-0.004455	-0.630371	0.434082	-0.588379	0.058223	-0.007820	0.077251	0.516276	-0.285411	-0.133668	-0.796325	-5.829558	-36.340159	-112.172686
60850		5.823286	-0.803835	7.769247	-0.033536	-0.052070	-0.070297	0.003344	0.010083	-0.002489	-0.627686	0.431152	-0.582764	0.058237	-0.008040	0.077689	0.516244	-0.285420	-0.133736	-0.796330	-5.821570	-36.345884	-112.178535
60851		5.833658	-0.783953	7.779564	-0.016446	-0.063879	-0.057514	0.003834	0.012527	-0.003638	-0.625000	0.440674	-0.580811	0.058341	-0.007842	0.077792	0.516242	-0.285360	-0.133725	-0.796355	-5.817192	-36.339238	-112.182217
60852		5.820557	-0.791436	7.749024	-0.028956	-0.065382	-0.089132	0.005432	0.010389	-0.005832	-0.627930	0.438232	-0.582764	0.058209	-0.007918	0.077487	0.516207	-0.285387	-0.133772	-0.796360	-5.812873	-36.345233	-112.187158
60853		5.831090	-0.771309	7.759243	-0.011857	-0.077177	-0.076349	0.006327	0.008252	-0.002581	-0.623047	0.440674	-0.585449	0.058314	-0.007716	0.077590	0.516210	-0.285338	-0.133781	-0.796375	-5.807713	-36.341053	-112.189807
60854		5.830316	-0.771034	7.759852	-0.010500	-0.076126	-0.076339	-0.001767	0.012036	-0.000798	-0.625000	0.436768	-0.587891	0.058308	-0.007710	0.077595	0.516210	-0.285378	-0.133752	-0.796365	-5.814236	-36.343026	-112.186902
60855		5.840900	-0.810919	7.766528	-0.048245	-0.064204	-0.061472	0.006778	0.011123	-0.005469	-0.633545	0.437744	-0.586670	0.058413	-0.008113	0.077662	0.516203	-0.285315	-0.133760	-0.796391	-5.807567	-36.337420	-112.191761
60856		5.818346	-0.800839	7.773257	-0.030487	-0.047282	-0.070262	0.001706	0.012649	-0.002038	-0.624512	0.439209	-0.581543	0.058188	-0.008010	0.077729	0.516179	-0.285338	-0.133792	-0.796393	-5.804894	-36.341923	-112.195041
60857		5.816368	-0.789108	7.752407	-0.026837	-0.062298	-0.089106	0.003794	0.012955	-0.005380	-0.630371	0.441650	-0.591797	0.058168	-0.007894	0.077520	0.516169	-0.285276	-0.133783	-0.796423	-5.799872	-36.335326	-112.200009
60858		5.815476	-0.788561	7.753131	-0.025444	-0.061132	-0.089095	0.004689	0.010818	-0.002128	-0.628662	0.442139	-0.585693	0.058159	-0.007888	0.077528	0.516166	-0.285308	-0.133787	-0.796412	-5.802121	-36.338781	-112.198637
60859		5.794049	-0.789805	7.781373	-0.011977	-0.030869	-0.079062	0.005508	0.009535	-0.002355	-0.627930	0.444580	-0.591064	0.057944	-0.007901	0.077811	0.516169	-0.285258	-0.133790	-0.796428	-5.797606	-36.333996	-112.201182
60860		5.814787	-0.798923	7.776116	-0.027187	-0.045078	-0.070242	0.002232	0.014667	-0.001450	-0.621582	0.437744	-0.579346	0.058154	-0.007991	0.077757	0.516172	-0.285293	-0.133748	-0.796420	-5.805244	-36.334626	-112.197748
60861		5.802330	-0.758193	7.770910	0.010631	-0.056863	-0.085119	0.004613	0.011672	-0.005609	-0.628418	0.441406	-0.583984	0.058028	-0.007585	0.077706	0.516162	-0.285235	-0.133745	-0.796448	-5.799909	-36.328837	-112.202671
60862		5.803466	-0.780460	7.814828	0.005150	-0.025442	-0.047433	0.000434	0.011061	0.001073	-0.625732	0.435059	-0.585205	0.058039	-0.007804	0.078145	0.516165	-0.285296	-0.133719	-0.796429	-5.808233	-36.333106	-112.198155
60863		5.843716	-0.717173	7.763884	0.033216	-0.109447	-0.069578	0.001215	0.010206	-0.000893	-0.626709	0.431885	-0.582275	0.058441	-0.007172	0.077636	0.516168	-0.285258	-0.133700	-0.796444	-5.807012	-36.327964	-112.199581
60864		5.822471	-0.779004	7.788436	-0.008117	-0.053462	-0.057441	-0.007295	0.010691	0.005513	-0.633057	0.440186	-0.592773	0.058229	-0.007786	0.077882	0.516162	-0.285296	-0.133720	-0.796431	-5.807856	-36.333161	-112.198745
60865		5.811506	-0.870097	7.797461	-0.083614	-0.002695	-0.049282	-0.001948	0.014056	0.005230	-0.629150	0.440430	-0.592529	0.058121	-0.008699	0.077971	0.516186	-0.285254	-0.133670	-0.796438	-5.810788	-36.325552	-112.196196
60866		5.841102	-0.778059	7.762292	-0.020814	-0.082056	-0.067440	0.001742	0.012223	-0.000303	-0.629639	0.440430	-0.585938	0.058416	-0.007781	0.077619	0.516174	-0.285268	-0.133688	-0.796438	-5.809481	-36.328224	-112.197678
60867		5.840215	-0.777990	7.762966	-0.020743	-0.081953	-0.067439	-0.000950	0.010754	-0.001032	-0.615234	0.443115	-0.583984	0.058406	-0.007780	0.077627	0.516173	-0.285233	-0.133660	-0.796456	-5.809331	-36.322874	-112.199345
60868		5.818550	-0.779993	7.791267	-0.005583	-0.051601	-0.057429	-0.001949	0.014057	0.005228	-0.621338	0.437988	-0.588135	0.058191	-0.007798	0.077909	0.516228	-0.285258	-0.133575	-0.796426	-5.823389	-36.319256	-112.187441
60869		5.827926	-0.809144	7.776453	-0.039638	-0.054745	-0.061375	0.000923	0.013506	-0.000079	-0.628174	0.430420	-0.589844	0.058285	-0.008092	0.077761	0.516235	-0.285208	-0.133544	-0.796444	-5.822616	-36.312279	-112.188512
60870		5.825867	-0.797799	7.755647	-0.036623	-0.068533	-0.080204	-0.001279	0.014482	-0.001958	-0.625488	0.439209	-0.588623	0.058264	-0.007978	0.077552	0.516243	-0.285158	-0.133587	-0.796450	-5.814097	-36.310002	-112.191060
60871		5.804103	-0.799571	7.784028	-0.023112	-0.038243	-0.070202	0.000959	0.013079	0.001660	-0.631592	0.435791	-0.586670	0.058046	-0.007996	0.077836	0.516257	-0.285110	-0.133556	-0.796463	-5.813944	-36.303154	-112.190939
60872		5.835922	-0.789596	7.788514	-0.022387	-0.063244	-0.048575	0.000885	0.013934	-0.001820	-0.622803	0.448975	-0.590820	0.058365	-0.007897	0.077881	0.516230	-0.285131	-0.133585	-0.796468	-5.811282	-36.307322	-112.194565
60873		5.801153	-0.788036	7.763907	-0.018755	-0.051328	-0.089023	0.001214	0.010206	-0.000895	-0.629150	0.439941	-0.584473	0.058015	-0.007881	0.077636	0.516232	-0.285093	-0.133566	-0.796484	-5.810013	-36.302331	-112.196090
60874		5.811421	-0.768445	7.774269	0.000619	-0.062726	-0.076238	0.000885	0.013934	-0.001821	-0.623047	0.434082	-0.589844	0.058120	-0.007685	0.077739	0.516242	-0.285140	-0.133492	-0.796473	-5.822484	-36.301966	-112.190329
60875		5.832108	-0.777803	7.769077	-0.016319	-0.077703	-0.067395	0.000358	0.011917	-0.002411	-0.628174	0.446533	-0.588867	0.058326	-0.007779	0.077687	0.516238	-0.285097	-0.133467	-0.796495	-5.821187	-36.296108	-112.192923
60876		5.799284	-0.799070	7.787670	-0.019080	-0.034881	-0.070181	-0.000316	0.011492	0.004773	-0.629883	0.436523	-0.582764	0.057998	-0.007989	0.077873	0.516273	-0.285111	-0.133442	-0.796471	-5.826869	-36.295583	-112.185979
60877		5.829342	-0.766609	7.748801	-0.011696	-0.091932	-0.086216	0.002560	0.010941	-0.000532	-0.629639	0.443848	-0.585938	0.058298	-0.007667	0.077485	0.516279	-0.285068	-0.133425	-0.796486	-5.825190	-36.290168	-112.187136
60878		5.797444	-0.798952	7.789052	-0.017061	-0.032403	-0.070169	0.000921	0.013507	-0.000083	-0.633057	0.444092	-0.582520	0.057980	-0.007990	0.077887	0.516236	-0.285160	-0.133430	-0.796480	-5.830494	-36.299813	-112.188884
60879		5.806677	-0.768108	7.777846	0.003778	-0.059241	-0.076217	0.001740	0.012224	-0.000308	-0.636719	0.442871	-0.581299	0.058072	-0.007682	0.077775	0.516242	-0.285115	-0.133406	-0.796496	-5.829402	-36.293807	-112.189985
60880		5.806721	-0.779343	7.800152	0.003557	-0.040696	-0.057377	0.000430	0.011063	0.001066	-0.623535	0.432129	-0.589111	0.058072	-0.007793	0.077998	0.516146	-0.285316	-0.133399	-0.796488	-5.842726	-36.313842	-112.193760
60881		5.792734	-0.776166	7.747919	-0.006207	-0.058966	-0.107795	0.001776	0.011798	0.001431	-0.630615	0.440186	-0.584473	0.057932	-0.007762	0.077476	0.516158	-0.285277	-0.133374	-0.796498	-5.842525	-36.308254	-112.193602
60882		5.813530	-0.785556	7.742665	-0.023080	-0.072094	-0.098916	0.002559	0.010942	-0.000534	-0.620850	0.434326	-0.581787	0.058140	-0.007857	0.077423	0.516147	-0.285283	-0.133436	-0.796492	-5.836065	-36.313092	-112.196102
60883		5.847329	-0.798154	7.790374	-0.030018	-0.068558	-0.039631	0.002337	0.013388	0.003759	-0.625244	0.436279	-0.586914	0.058479	-0.007981	0.077900	0.516170	-0.285238	-0.133407	-0.796499	-5.836395	-36.306528	-112.194478
60884		5.790942	-0.786960	7.771635	-0.009231	-0.040372	-0.088958	0.005508	0.009537	-0.002357	-0.629639	0.439697	-0.585693	0.057913	-0.007872	0.077713	0.516182	-0.285226	-0.133466	-0.796485	-5.829634	-36.309164	-112.194404
60885		5.833533	-0.805499	7.760423	-0.043141	-0.070331	-0.071214	0.004688	0.010820	-0.002134	-0.624512	0.441895	-0.588135	0.058339	-0.008057	0.077601	0.516183	-0.285181	-0.133462	-0.796502	-5.826245	-36.304448	-112.196789
60886		5.831762	-0.793846	7.739463	-0.038053	-0.084149	-0.090013	0.002558	0.010942	-0.000535	-0.634277	0.430664	-0.585938	0.058322	-0.007940	0.077391	0.516172	-0.285230	-0.133454	-0.796493	-5.830701	-36.308836	-112.195682
60887		5.831949	-0.804533	7.761715	-0.041456	-0.068829	-0.071196	0.009802	0.008867	-0.003815	-0.626953	0.434570	-0.582031	0.058323	-0.008050	0.077614	0.516171	-0.285179	-0.133477	-0.796507	-5.823845	-36.305391	-112.199081
60888		5.809585	-0.794098	7.768230	-0.024427	-0.049972	-0.080052	0.007637	0.009415	-0.003957	-0.635254	0.441650	-0.586182	0.058099	-0.007945	0.077679	0.516099	-0.285224	-0.133640	-0.796511	-5.806760	-36.321090	-112.211339
60889		5.830460	-0.802762	7.763016	-0.041289	-0.064816	-0.071168	0.009507	0.012168	-0.003004	-0.630615	0.443115	-0.591064	0.058309	-0.008032	0.077626	0.516103	-0.285162	-0.133653	-0.796528	-5.800130	-36.315903	-112.214581
60890		5.809712	-0.814889	7.812965	-0.029399	-0.017135	-0.042423	0.009507	0.012168	-0.003005	-0.628174	0.438232	-0.595215	0.058102	-0.008153	0.078126	0.516038	-0.285241	-0.133686	-0.796537	-5.800207	-36.326349	-112.221126
60891		5.828762	-0.800771	7.764497	-0.039090	-0.062262	-0.071142	0.011931	0.008746	-0.005415	-0.622803	0.434326	-0.593750	0.058291	-0.008014	0.077642	0.516033	-0.285187	-0.133721	-0.796553	-5.791397	-36.323379	-112.225829
60892		5.807354	-0.801230	7.792645	-0.026704	-0.031520	-0.061229	0.011896	0.009172	-0.007157	-0.633301	0.438477	-0.584229	0.058077	-0.008019	0.077923	0.516061	-0.285075	-0.133823	-0.796558	-5.772295	-36.318986	-112.229766
60893		5.796215	-0.771006	7.808790	0.007621	-0.028057	-0.057334	0.010585	0.008011	-0.005782	-0.629395	0.428467	-0.584473	0.057965	-0.007716	0.078085	0.516052	-0.285026	-0.133856	-0.796576	-5.764013	-36.316359	-112.234720
60894		5.838061	-0.777657	7.775934	-0.022428	-0.069640	-0.058329	0.008385	0.008986	-0.007665	-0.629639	0.443115	-0.592285	0.058384	-0.007782	0.077756	0.515959	-0.285085	-0.134007	-0.796590	-5.748404	-36.332897	-112.249322
60895		5.838377	-0.787622	7.798156	-0.025834	-0.054218	-0.039529	0.012680	0.008316	-0.009122	-0.620361	0.431885	-0.590332	0.058387	-0.007884	0.077979	0.515938	-0.285028	-0.134053	-0.796616	-5.737408	-36.330481	-112.256814
60896		5.827297	-0.757167	7.814258	0.008374	-0.050536	-0.035637	0.011334	0.007581	-0.009488	-0.630127	0.442139	-0.585205	0.058276	-0.007579	0.078140	0.515945	-0.284971	-0.134119	-0.796620	-5.725716	-36.329171	-112.260343
60897		5.814706	-0.763960	7.783481	-0.004997	-0.053632	-0.067221	0.011369	0.007155	-0.007748	-0.625488	0.439209	-0.579102	0.058150	-0.007646	0.077832	0.515928	-0.284922	-0.134161	-0.796642	-5.716083	-36.327285	-112.266767
60898		5.814178	-0.762582	7.784011	-0.002019	-0.051813	-0.067210	0.012713	0.007891	-0.007384	-0.620117	0.435791	-0.586914	0.058145	-0.007633	0.077837	0.515864	-0.285034	-0.134179	-0.796641	-5.720689	-36.339903	-112.270958
60899		5.802355	-0.780573	7.775002	-0.018938	-0.039732	-0.079993	0.014582	0.010645	-0.006433	-0.625000	0.436768	-0.594238	0.058027	-0.007813	0.077746	0.515859	-0.284965	-0.134222	-0.796661	-5.709808	-36.336107	-112.276631
60900		5.824012	-0.740190	7.794931	0.015130	-0.063383	-0.054424	0.011333	0.007581	-0.009492	-0.627930	0.432617	-0.591064	0.058243	-0.007409	0.077947	0.515890	-0.284883	-0.134282	-0.796660	-5.697882	-36.331708	-112.277555
60901		5.854813	-0.766234	7.752403	-0.032294	-0.096583	-0.068185	0.010652	0.007162	-0.002306	-0.627441	0.444336	-0.591064	0.058551	-0.007667	0.077522	0.515894	-0.284841	-0.134313	-0.796668	-5.691120	-36.329582	-112.280032
60902		5.812586	-0.768719	7.808029	-0.004687	-0.035157	-0.048409	0.008941	0.010579	-0.005345	-0.625488	0.437256	-0.586426	0.058130	-0.007692	0.078077	0.515884	-0.284826	-0.134351	-0.796673	-5.685178	-36.330757	-112.283296
60903		5.832587	-0.766229	7.781175	-0.017954	-0.065119	-0.058289	0.003302	0.010512	-0.004254	-0.627686	0.426758	-0.585449	0.058330	-0.007665	0.077809	0.515871	-0.284788	-0.134347	-0.796695	-5.681687	-36.326834	-112.287377
60904		5.830899	-0.754340	7.760171	-0.014536	-0.077929	-0.077063	0.005432	0.010391	-0.005853	-0.626465	0.432617	-0.588379	0.058313	-0.007547	0.077598	0.515840	-0.284783	-0.134456	-0.796699	-5.668017	-36.333840	-112.294937
60905		5.852792	-0.774441	7.776564	-0.034950	-0.077526	-0.049355	0.004122	0.009229	-0.004477	-0.623291	0.436279	-0.591064	0.058531	-0.007747	0.077763	0.515826	-0.284749	-0.134460	-0.796720	-5.663928	-36.330748	-112.299184
60906		5.819212	-0.783841	7.773382	-0.035235	-0.049698	-0.071055	0.003301	0.010512	-0.004256	-0.623535	0.433838	-0.578369	0.058196	-0.007841	0.077731	0.515837	-0.284708	-0.134509	-0.796719	-5.655691	-36.329856	-112.300763
60907		5.828609	-0.752660	7.762055	-0.014358	-0.076404	-0.077050	0.002480	0.011795	-0.004035	-0.629150	0.423828	-0.587891	0.058291	-0.007529	0.077617	0.515825	-0.284667	-0.134499	-0.796743	-5.652575	-36.325261	-112.304902
60908		5.839919	-0.743902	7.793956	-0.001156	-0.069851	-0.045451	0.004942	0.007947	-0.004699	-0.628906	0.439209	-0.582764	0.058402	-0.007442	0.077937	0.515776	-0.284688	-0.134647	-0.796742	-5.636174	-36.337601	-112.314434
60909		5.828137	-0.762877	7.784837	-0.018101	-0.057750	-0.058243	0.001991	0.009351	-0.002880	-0.622803	0.437012	-0.592041	0.058285	-0.007630	0.077846	0.515765	-0.284660	-0.134641	-0.796760	-5.633798	-36.334470	-112.317731
60910		5.829249	-0.784922	7.828701	-0.023662	-0.026474	-0.020673	0.004121	0.009230	-0.004479	-0.624756	0.438477	-0.586426	0.058296	-0.007852	0.078284	0.515750	-0.284700	-0.134632	-0.796757	-5.637396	-36.337925	-112.317684
60911		5.826605	-0.761958	7.786074	-0.016335	-0.056542	-0.058232	0.001659	0.013079	-0.003816	-0.628418	0.433350	-0.590088	0.058271	-0.007621	0.077857	0.515737	-0.284658	-0.134616	-0.796783	-5.634759	-36.332756	-112.321851
60912		5.847419	-0.770995	7.780948	-0.032606	-0.070237	-0.049292	0.003266	0.010938	-0.006000	-0.625000	0.436279	-0.583984	0.058478	-0.007713	0.077806	0.515712	-0.284669	-0.134644	-0.796791	-5.631338	-36.335900	-112.325881
60913		5.825769	-0.772081	7.809132	-0.018945	-0.039699	-0.039443	0.004610	0.011674	-0.005636	-0.626465	0.437500	-0.590088	0.058262	-0.007724	0.078088	0.515695	-0.284623	-0.134646	-0.796818	-5.626321	-36.331671	-112.331242
60914		5.824035	-0.760189	7.788169	-0.014040	-0.053775	-0.058213	0.003266	0.010938	-0.006001	-0.625488	0.436523	-0.589355	0.058244	-0.007605	0.077878	0.515672	-0.284653	-0.134648	-0.796822	-5.627504	-36.334854	-112.333199
60915		5.822214	-0.748246	7.767279	-0.010271	-0.068656	-0.076988	0.005098	0.014119	-0.006793	-0.625244	0.433594	-0.587891	0.058227	-0.007486	0.077668	0.515653	-0.284596	-0.134647	-0.796854	-5.621689	-36.329338	-112.339518
60916		5.822182	-0.758614	7.789709	-0.013382	-0.052377	-0.058205	0.005362	0.011242	-0.009342	-0.625488	0.434082	-0.595947	0.058226	-0.007591	0.077894	0.515634	-0.284576	-0.134690	-0.796867	-5.614251	-36.330375	-112.344640
60917		5.832938	-0.797937	7.796515	-0.050893	-0.040115	-0.043280	0.006251	0.009110	-0.006079	-0.621582	0.433105	-0.579346	0.058333	-0.007984	0.077962	0.515616	-0.284537	-0.134706	-0.796890	-5.608284	-36.327688	-112.350108
60918		5.830868	-0.726034	7.779040	0.007757	-0.078116	-0.064178	0.004473	0.013376	-0.012607	-0.624268	0.440674	-0.588623	0.058313	-0.007266	0.077786	0.515600	-0.284493	-0.134750	-0.796908	-5.598882	-36.326368	-112.356140
60919		5.808584	-0.775253	7.782188	-0.029856	-0.039028	-0.070988	0.005917	0.012837	-0.007017	-0.625000	0.428711	-0.591064	0.058091	-0.007757	0.077818	0.515580	-0.284440	-0.134756	-0.796939	-5.592553	-36.321609	-112.362535
60920		5.818769	-0.754719	7.792637	-0.012509	-0.050078	-0.058191	0.006638	0.012830	-0.012464	-0.631348	0.438721	-0.582520	0.058192	-0.007553	0.077922	0.515566	-0.284387	-0.134801	-0.796960	-5.582383	-36.319470	-112.368734
60921		5.804958	-0.750621	7.740475	-0.022312	-0.068378	-0.108525	0.005883	0.013263	-0.008761	-0.631104	0.430664	-0.592285	0.058054	-0.007511	0.077401	0.515539	-0.284331	-0.134808	-0.796996	-5.575321	-36.314550	-112.376388
60922		5.815201	-0.730098	7.750876	-0.004106	-0.077239	-0.095708	0.007526	0.010698	-0.009201	-0.621094	0.430176	-0.583984	0.058156	-0.007307	0.077505	0.515440	-0.284393	-0.134899	-0.797022	-5.565891	-36.327475	-112.390613
60923		5.827310	-0.732085	7.804505	0.006122	-0.058279	-0.045377	0.004017	0.010507	-0.009712	-0.627686	0.434326	-0.585938	0.058277	-0.007325	0.078042	0.515404	-0.284353	-0.134907	-0.797058	-5.559594	-36.324313	-112.398818
60924		5.793555	-0.741017	7.801451	0.006718	-0.029777	-0.067120	0.008534	0.015162	-0.009776	-0.619385	0.434570	-0.584473	0.057941	-0.007416	0.078010	0.515378	-0.284335	-0.134971	-0.797071	-5.550014	-36.326997	-112.405281
60925		5.835197	-0.748029	7.768953	-0.023563	-0.074704	-0.067968	-0.000213	0.010323	-0.004777	-0.618408	0.432373	-0.588867	0.058356	-0.007482	0.077687	0.515356	-0.284311	-0.134956	-0.797097	-5.548224	-36.323728	-112.410003
60926		5.812661	-0.737931	7.775417	-0.005950	-0.060018	-0.076927	0.006736	0.011556	-0.007241	-0.619873	0.436035	-0.587646	0.058131	-0.007384	0.077751	0.515417	-0.284246	-0.134956	-0.797080	-5.545774	-36.316916	-112.403897
60927		5.809835	-0.714817	7.732964	0.001382	-0.090104	-0.114453	0.002692	0.017120	-0.002660	-0.632568	0.429443	-0.585449	0.058105	-0.007150	0.077325	0.515412	-0.284188	-0.134932	-0.797108	-5.542992	-36.309599	-112.407518
60928		5.810371	-0.736908	7.777225	-0.005052	-0.057750	-0.076913	0.000795	0.014788	-0.005353	-0.629883	0.441162	-0.583496	0.058109	-0.007371	0.077768	0.515374	-0.284203	-0.134965	-0.797121	-5.538870	-36.313584	-112.413318
60929		5.787535	-0.727094	7.783868	0.012195	-0.042378	-0.085874	0.000827	0.014363	-0.003611	-0.625244	0.441895	-0.584717	0.057881	-0.007272	0.077834	0.515361	-0.284161	-0.134942	-0.797149	-5.536863	-36.307961	-112.417456
60930		5.840550	-0.774791	7.757696	-0.051978	-0.074452	-0.071747	0.002203	0.014676	-0.001503	-0.626953	0.440674	-0.590332	0.058411	-0.007749	0.077573	0.515315	-0.284306	-0.134835	-0.797145	-5.558481	-36.315555	-112.414302
60931		5.807972	-0.747291	7.801402	-0.004076	-0.040612	-0.058140	0.001682	0.012656	-0.002088	-0.631836	0.432129	-0.582275	0.058085	-0.007474	0.078010	0.515308	-0.284271	-0.134817	-0.797165	-5.556937	-36.310936	-112.417122
60932		5.817241	-0.716239	7.790142	0.018509	-0.065319	-0.064098	0.003847	0.012111	-0.001942	-0.623535	0.434570	-0.587891	0.058177	-0.007164	0.077898	0.515249	-0.284359	-0.134832	-0.797169	-5.559997	-36.320971	-112.421804
60933		5.805203	-0.735456	7.781221	0.001646	-0.053180	-0.076885	0.003089	0.012544	0.001762	-0.631592	0.436523	-0.589355	0.058057	-0.007355	0.077808	0.515259	-0.284324	-0.134814	-0.797178	-5.559329	-36.316317	-112.421895
60934		5.815159	-0.715933	7.791725	0.019809	-0.063420	-0.064088	-0.000753	0.016079	0.000308	-0.629150	0.430908	-0.592041	0.058158	-0.007159	0.077913	0.515243	-0.284347	-0.134801	-0.797183	-5.561887	-36.317829	-112.422933
60935		5.824630	-0.744825	7.777186	-0.014069	-0.066295	-0.067889	0.002202	0.014676	-0.001507	-0.620850	0.438232	-0.590576	0.058252	-0.007450	0.077768	0.515239	-0.284305	-0.134779	-0.797204	-5.560296	-36.312190	-112.425487
60936		5.801737	-0.735334	7.783817	0.002984	-0.050683	-0.076872	-0.002064	0.014917	0.001684	-0.635742	0.435791	-0.591553	0.058023	-0.007352	0.077834	0.515273	-0.284264	-0.134764	-0.797200	-5.560102	-36.306856	-112.422178
60937		5.833399	-0.725511	7.788563	0.003388	-0.077109	-0.055092	0.000100	0.014372	0.001831	-0.628662	0.440430	-0.598389	0.058340	-0.007255	0.077881	0.515279	-0.284230	-0.134729	-0.797213	-5.561112	-36.301178	-112.422345
60938		5.811116	-0.775777	7.791613	-0.033884	-0.036779	-0.061911	-0.000972	0.010757	-0.001081	-0.615723	0.436279	-0.591309	0.058115	-0.007758	0.077913	0.515232	-0.284257	-0.134738	-0.797233	-5.560147	-36.304803	-112.428589
60939		5.810531	-0.727359	7.817446	0.017704	-0.044935	-0.045320	0.000100	0.014373	0.001830	-0.624268	0.427246	-0.589355	0.058111	-0.007273	0.078170	0.515238	-0.284224	-0.134704	-0.797246	-5.561144	-36.299152	-112.428778
60940		5.819315	-0.745217	7.781126	-0.013651	-0.063550	-0.067870	-0.000420	0.012353	0.001245	-0.627686	0.438477	-0.591553	0.058198	-0.007452	0.077808	0.515324	-0.284129	-0.134709	-0.797224	-5.556791	-36.289577	-112.420578
60941		5.795646	-0.724687	7.766016	0.007173	-0.063403	-0.095609	-0.000692	0.015231	0.003789	-0.627441	0.439453	-0.586670	0.057963	-0.007246	0.077656	0.515338	-0.284095	-0.134667	-0.797234	-5.558988	-36.283251	-112.419433
60942		5.795345	-0.736013	7.788513	0.005671	-0.047076	-0.076855	0.000890	0.013515	-0.000133	-0.635742	0.432861	-0.587891	0.057959	-0.007361	0.077881	0.515318	-0.284156	-0.134616	-0.797233	-5.568663	-36.286127	-112.418077
60943		5.827176	-0.726249	7.793152	0.006087	-0.073497	-0.055065	-0.003866	0.011312	0.004215	-0.624268	0.432617	-0.588623	0.058276	-0.007260	0.077928	0.515327	-0.284146	-0.134571	-0.797239	-5.573120	-36.282061	-112.416308
60944		5.838153	-0.718534	7.825127	0.020031	-0.067077	-0.023507	-0.003866	0.011312	0.004215	-0.621582	0.428467	-0.583740	0.058386	-0.007183	0.078248	0.515281	-0.284210	-0.134624	-0.797237	-5.570616	-36.292199	-112.421170
60945		5.814296	-0.746702	7.784735	-0.010447	-0.058406	-0.067834	-0.001732	0.011191	0.002620	-0.627686	0.432617	-0.585693	0.058147	-0.007466	0.077844	0.515285	-0.284195	-0.134590	-0.797245	-5.573128	-36.288396	-112.420607
60946		5.813384	-0.747069	7.785380	-0.010174	-0.056102	-0.067820	-0.003897	0.011737	0.002471	-0.634033	0.442139	-0.584229	0.058139	-0.007468	0.077851	0.515276	-0.284230	-0.134632	-0.797231	-5.571295	-36.294775	-112.420828
60947		5.833435	-0.745742	7.758597	-0.023379	-0.085961	-0.077546	-0.003075	0.010454	0.002253	-0.629150	0.437744	-0.592529	0.058338	-0.007456	0.077583	0.515277	-0.284221	-0.134596	-0.797240	-5.574415	-36.291491	-112.420534
60948		5.809977	-0.725611	7.743291	-0.000355	-0.084052	-0.105276	-0.004628	0.011745	0.007916	-0.629639	0.434326	-0.597168	0.058105	-0.007252	0.077430	0.515224	-0.284365	-0.134532	-0.797234	-5.590911	-36.301799	-112.419515
60949		5.810657	-0.748756	7.787254	-0.007082	-0.053140	-0.067800	-0.003867	0.011312	0.004212	-0.621826	0.433594	-0.590088	0.058111	-0.007485	0.077869	0.515231	-0.284357	-0.134487	-0.797240	-5.595370	-36.298026	-112.417871
60950		5.820014	-0.718455	7.775918	0.012827	-0.079432	-0.073736	-0.001733	0.011192	0.002618	-0.625000	0.433350	-0.590332	0.058205	-0.007183	0.077756	0.515267	-0.284300	-0.134510	-0.797233	-5.589780	-36.293662	-112.415963
60951		5.819043	-0.718989	7.776595	0.013122	-0.079027	-0.073733	-0.006855	0.013141	0.004278	-0.627197	0.439453	-0.589600	0.058196	-0.007186	0.077762	0.515271	-0.284292	-0.134449	-0.797243	-5.595835	-36.288804	-112.414429
60952		5.796765	-0.769897	7.779507	-0.023877	-0.039218	-0.080584	-0.005210	0.010575	0.003844	-0.622314	0.440186	-0.581055	0.057972	-0.007696	0.077792	0.515277	-0.284327	-0.134416	-0.797233	-5.602646	-36.290052	-112.410864
60953		5.806178	-0.739806	7.768120	-0.002910	-0.065825	-0.086518	-0.005210	0.010576	0.003843	-0.623047	0.437500	-0.589111	0.058066	-0.007395	0.077678	0.515280	-0.284325	-0.134369	-0.797239	-5.607708	-36.286697	-112.409449
60954		5.806856	-0.763004	7.812050	-0.007442	-0.034819	-0.049050	-0.004631	0.011745	0.007913	-0.628418	0.436279	-0.589600	0.058073	-0.007626	0.078117	0.515315	-0.284413	-0.134259	-0.797204	-5.628807	-36.287849	-112.396611
60955		5.826046	-0.750671	7.763672	-0.017114	-0.079931	-0.077481	-0.002526	0.012050	0.004576	-0.627930	0.433838	-0.586914	0.058265	-0.007504	0.077633	0.515326	-0.284400	-0.134217	-0.797208	-5.632722	-36.283645	-112.394691
60956		5.825067	-0.751084	7.764367	-0.016431	-0.077753	-0.077462	-0.002556	0.012475	0.002833	-0.635498	0.437012	-0.595947	0.058256	-0.007509	0.077640	0.515299	-0.284447	-0.134236	-0.797206	-5.633421	-36.289829	-112.396706
60957		5.803856	-0.764333	7.814150	-0.006107	-0.031811	-0.049039	-0.001244	0.013637	0.001457	-0.628174	0.430908	-0.591797	0.058044	-0.007642	0.078138	0.515301	-0.284423	-0.134200	-0.797220	-5.635217	-36.284965	-112.397142
60958		5.801398	-0.742141	7.771468	0.000109	-0.059854	-0.086479	-0.002223	0.008747	0.003775	-0.635498	0.427490	-0.587402	0.058018	-0.007419	0.077712	0.515266	-0.284431	-0.134283	-0.797225	-5.625291	-36.291565	-112.404003
60959		5.790318	-0.773020	7.783997	-0.020239	-0.032404	-0.080550	0.000372	0.011497	-0.000720	-0.627686	0.434082	-0.597168	0.057908	-0.007731	0.077837	0.515259	-0.284410	-0.134262	-0.797241	-5.625223	-36.288089	-112.405928
60960		5.822199	-0.763061	7.788687	-0.021456	-0.056040	-0.058698	-0.000421	0.012354	0.001239	-0.625488	0.437256	-0.591553	0.058227	-0.007630	0.077883	0.515215	-0.284389	-0.134391	-0.797255	-5.607559	-36.294886	-112.416652
60961		5.832327	-0.743600	7.799094	-0.004008	-0.067337	-0.045892	0.000372	0.011497	-0.000720	-0.633789	0.427490	-0.588379	0.058328	-0.007436	0.077988	0.515208	-0.284367	-0.134371	-0.797271	-5.607331	-36.291475	-112.418718
60962		5.831446	-0.743578	7.799755	-0.004356	-0.064721	-0.045874	0.000401	0.011072	0.001022	-0.629395	0.432861	-0.589355	0.058319	-0.007436	0.077994	0.515171	-0.284379	-0.134457	-0.797276	-5.597400	-36.298580	-112.425646
60963		5.797755	-0.753354	7.796422	-0.004198	-0.037528	-0.067726	0.002478	0.011801	-0.004056	-0.623535	0.428467	-0.593994	0.057982	-0.007536	0.077961	0.515153	-0.284348	-0.134450	-0.797300	-5.594471	-36.295247	-112.430180
60964		5.806778	-0.770676	7.760062	-0.036099	-0.054330	-0.090192	0.003849	0.012113	-0.001945	-0.626953	0.428955	-0.586182	0.058072	-0.007709	0.077597	0.515161	-0.284277	-0.134554	-0.797302	-5.577595	-36.295057	-112.435151
60965		5.817722	-0.761984	7.792138	-0.022186	-0.050312	-0.058668	0.004672	0.010830	-0.002162	-0.623291	0.434570	-0.584717	0.058181	-0.007622	0.077918	0.515152	-0.284246	-0.134557	-0.797319	-5.574128	-36.292177	-112.438358
60966		5.783192	-0.760343	7.767209	-0.018303	-0.036803	-0.099229	0.000832	0.014368	-0.003626	-0.623291	0.432129	-0.588135	0.057837	-0.007605	0.077668	0.515124	-0.284259	-0.134601	-0.797324	-5.569137	-36.296686	-112.442961
60967		5.816102	-0.712736	7.818806	0.029916	-0.056239	-0.042083	0.002449	0.012227	-0.005801	-0.632568	0.433350	-0.589111	0.058166	-0.007130	0.078184	0.515099	-0.284226	-0.134597	-0.797353	-5.565344	-36.293275	-112.448878
60968		5.792346	-0.739985	7.778422	-0.000677	-0.045894	-0.086404	0.002477	0.011802	-0.004058	-0.629883	0.445068	-0.590576	0.057928	-0.007402	0.077781	0.515054	-0.284237	-0.134663	-0.797367	-5.557012	-36.299064	-112.456794
60969		5.803178	-0.731307	7.810567	0.013241	-0.041839	-0.054885	0.002995	0.013822	-0.003476	-0.621582	0.439697	-0.588135	0.058037	-0.007315	0.078102	0.515039	-0.284198	-0.134653	-0.797392	-5.553775	-36.294671	-112.461226
60970		5.790328	-0.739119	7.780007	0.002405	-0.045426	-0.086402	0.002995	0.013822	-0.003477	-0.628418	0.435059	-0.588379	0.057909	-0.007393	0.077796	0.515020	-0.284255	-0.134545	-0.797403	-5.569250	-36.293188	-112.458827
60971		5.821339	-0.717585	7.763191	0.006339	-0.086952	-0.083224	-0.000511	0.013631	-0.003998	-0.630615	0.437012	-0.596436	0.058219	-0.007177	0.077628	0.514999	-0.284226	-0.134522	-0.797431	-5.567975	-36.288943	-112.463505
60972		5.821059	-0.728663	7.785639	0.003205	-0.070114	-0.064512	0.004450	0.012859	0.003864	-0.626465	0.434082	-0.593750	0.058216	-0.007287	0.077852	0.514991	-0.284224	-0.134548	-0.797432	-5.564706	-36.290612	-112.465346
60973		5.809040	-0.748131	7.776649	-0.013651	-0.057891	-0.077320	-0.001796	0.012044	-0.000880	-0.630371	0.442383	-0.584717	0.058095	-0.007481	0.077763	0.514979	-0.284207	-0.134520	-0.797451	-5.565521	-36.287125	-112.467730
60974		5.786286	-0.738638	7.783059	0.005022	-0.041539	-0.086385	0.000886	0.013518	-0.000145	-0.616699	0.436035	-0.588867	0.057868	-0.007387	0.077827	0.514941	-0.284262	-0.134487	-0.797461	-5.571829	-36.290718	-112.469958
60975		5.817955	-0.728750	7.787951	0.005468	-0.067749	-0.064496	-0.000705	0.015235	0.003770	-0.627197	0.429443	-0.583252	0.058186	-0.007286	0.077875	0.514951	-0.284233	-0.134449	-0.797471	-5.573898	-36.285201	-112.469249
60976		5.816862	-0.728940	7.788750	0.006063	-0.066735	-0.064489	-0.000427	0.012356	0.001229	-0.625244	0.436523	-0.591553	0.058173	-0.007289	0.077884	0.514982	-0.284232	-0.134450	-0.797452	-5.575318	-36.284927	-112.464342
60977		5.794044	-0.719542	7.795188	0.023389	-0.051271	-0.073567	0.000090	0.014377	0.001811	-0.627441	0.427979	-0.593018	0.057946	-0.007195	0.077948	0.514985	-0.284203	-0.134419	-0.797465	-5.576160	-36.280023	-112.464956
60978		5.814605	-0.729258	7.790405	0.005610	-0.064880	-0.064476	-0.002899	0.016206	0.001871	-0.630127	0.434814	-0.594482	0.058152	-0.007291	0.077899	0.515001	-0.284147	-0.134450	-0.797469	-5.568905	-36.276333	-112.466121
60979		5.802298	-0.749003	7.781597	-0.011245	-0.052654	-0.077287	0.000635	0.015972	0.004136	-0.625244	0.433105	-0.588135	0.058029	-0.007489	0.077811	0.515015	-0.284111	-0.134414	-0.797479	-5.570270	-36.270389	-112.465248
60980		5.823939	-0.721321	7.823580	0.019576	-0.059176	-0.032959	-0.000483	0.013207	-0.002260	-0.622803	0.432617	-0.586670	0.058244	-0.007214	0.078232	0.514990	-0.284101	-0.134448	-0.797493	-5.564541	-36.271769	-112.470484
60981		5.811031	-0.729819	7.793019	0.006211	-0.062262	-0.064460	-0.005037	0.016328	0.003457	-0.631348	0.439697	-0.593018	0.058117	-0.007295	0.077926	0.514993	-0.284079	-0.134390	-0.797509	-5.568822	-36.265684	-112.470150
60982		5.777414	-0.799805	7.786361	-0.047826	-0.010421	-0.084212	0.001430	0.015115	0.002177	-0.629639	0.438477	-0.596436	0.057780	-0.007998	0.077859	0.514985	-0.284093	-0.134379	-0.797511	-5.570799	-36.266399	-112.470456
60983		5.818642	-0.747878	7.757745	-0.023244	-0.078963	-0.086858	0.000061	0.014803	0.000064	-0.631348	0.438232	-0.583984	0.058192	-0.007479	0.077573	0.514980	-0.284061	-0.134350	-0.797530	-5.570822	-36.261404	-112.472415
60984		5.818453	-0.710606	7.805423	0.026119	-0.070272	-0.051624	0.001402	0.015540	0.000432	-0.624512	0.436279	-0.595459	0.058191	-0.007106	0.078050	0.514924	-0.284117	-0.134332	-0.797550	-5.574745	-36.266091	-112.477835
60985		5.773547	-0.740128	7.792373	0.009131	-0.031352	-0.086350	-0.000403	0.011932	0.002968	-0.632080	0.434814	-0.590332	0.057740	-0.007400	0.077920	0.514928	-0.284101	-0.134304	-0.797557	-5.576407	-36.262634	-112.477540
60986		5.794876	-0.761092	7.809229	-0.011245	-0.029640	-0.058565	-0.001560	0.016945	0.002232	-0.627441	0.434082	-0.592285	0.057955	-0.007610	0.078087	0.514922	-0.284080	-0.134301	-0.797570	-5.574601	-36.260425	-112.479710
60987		5.815086	-0.710885	7.807906	0.026864	-0.067891	-0.051609	0.000315	0.012350	-0.004221	-0.628662	0.435547	-0.591553	0.058156	-0.007110	0.078075	0.514899	-0.284055	-0.134286	-0.797596	-5.572806	-36.257143	-112.484548
60988		5.813733	-0.759230	7.783599	-0.024333	-0.057869	-0.068130	0.002795	0.015428	0.004286	-0.622559	0.433838	-0.591309	0.058143	-0.007592	0.077831	0.514903	-0.284036	-0.134309	-0.797596	-5.568969	-36.256776	-112.485359
60989		5.801846	-0.730452	7.799800	0.010150	-0.054110	-0.064414	-0.001202	0.012791	0.004922	-0.624268	0.436523	-0.591553	0.058024	-0.007303	0.077994	0.514915	-0.284020	-0.134274	-0.797600	-5.571823	-36.252757	-112.483788
60990		5.800589	-0.730885	7.800694	0.010415	-0.053680	-0.064412	-0.004550	0.018775	0.002285	-0.625488	0.439697	-0.588623	0.058013	-0.007306	0.078002	0.514951	-0.283976	-0.134224	-0.797601	-5.575196	-36.244824	-112.479473
60991		5.810108	-0.760294	7.786201	-0.023450	-0.056394	-0.068120	-0.002570	0.012479	0.002808	-0.625732	0.444092	-0.582764	0.058106	-0.007601	0.077858	0.514952	-0.283963	-0.134187	-0.797611	-5.577968	-36.241080	-112.479361
60992		5.798306	-0.731712	7.802314	0.014001	-0.052300	-0.064409	-0.003394	0.013763	0.003020	-0.620117	0.435059	-0.592285	0.057989	-0.007315	0.078019	0.514919	-0.284087	-0.134061	-0.797609	-5.600487	-36.245175	-112.474910
60993		5.819715	-0.752856	7.819103	-0.006150	-0.051388	-0.036615	-0.002570	0.012480	0.002807	-0.624756	0.442383	-0.580811	0.058202	-0.007527	0.078187	0.514920	-0.284075	-0.134024	-0.797619	-5.603413	-36.241487	-112.474716
60994		5.762687	-0.731166	7.778029	0.019717	-0.039986	-0.105014	-0.000713	0.015237	0.003757	-0.624023	0.434326	-0.589111	0.057633	-0.007310	0.077776	0.514941	-0.284118	-0.133936	-0.797605	-5.617518	-36.239793	-112.467140
60995		5.806758	-0.724252	7.836070	0.030450	-0.047169	-0.032921	0.001708	0.012237	-0.000367	-0.632568	0.437256	-0.587402	0.058072	-0.007243	0.078357	0.514935	-0.284094	-0.133921	-0.797620	-5.616774	-36.236438	-112.469111
60996		5.782910	-0.752196	7.795709	0.000575	-0.036964	-0.077208	-0.003677	0.016643	0.005554	-0.614258	0.437988	-0.583008	0.057836	-0.007519	0.077952	0.514912	-0.284142	-0.133906	-0.797620	-5.621332	-36.240413	-112.469742
60997		5.781683	-0.752491	7.796590	0.000926	-0.036436	-0.077206	-0.001306	0.014493	-0.002057	-0.621094	0.436035	-0.585693	0.057822	-0.007525	0.077962	0.514897	-0.284116	-0.133876	-0.797644	-5.621523	-36.235930	-112.473086
60998		5.813513	-0.742496	7.801476	0.002954	-0.063182	-0.055266	0.002582	0.010103	0.002907	-0.621826	0.431885	-0.590576	0.058139	-0.007425	0.078012	0.514958	-0.284142	-0.133811	-0.797607	-5.633781	-36.233720	-112.460570
60999		5.801640	-0.762050	7.792342	-0.013851	-0.050944	-0.068071	-0.001773	0.011622	0.000848	-0.623047	0.428223	-0.588623	0.058021	-0.007620	0.077920	0.514951	-0.284131	-0.133781	-0.797620	-5.635672	-36.230705	-112.461587
61000		5.768047	-0.723709	7.814059	0.036362	-0.031395	-0.073523	0.001450	0.014692	0.003912	-0.623047	0.439941	-0.594482	0.057686	-0.007237	0.078136	0.515007	-0.284058	-0.133845	-0.797599	-5.625364	-36.227368	-112.458194
61001		5.788782	-0.733367	7.809227	0.019707	-0.045813	-0.064386	-0.001773	0.011622	0.000846	-0.627441	0.440430	-0.588867	0.057892	-0.007333	0.078089	0.515000	-0.284047	-0.133816	-0.797612	-5.627180	-36.224352	-112.459261
61002		5.777490	-0.764277	7.821791	0.000466	-0.018385	-0.058530	-0.000408	0.011934	0.002959	-0.628662	0.439697	-0.594238	0.057780	-0.007642	0.078214	0.515008	-0.284071	-0.133752	-0.797609	-5.636542	-36.222492	-112.455269
61003		5.808615	-0.743263	7.805051	0.004447	-0.059864	-0.055246	-0.001257	0.013643	0.001427	-0.630615	0.435547	-0.584473	0.058092	-0.007432	0.078047	0.515007	-0.284051	-0.133718	-0.797623	-5.638282	-36.218289	-112.456022
61004		5.785255	-0.722710	7.789645	0.026118	-0.058169	-0.083042	-0.000924	0.009913	0.002377	-0.629150	0.434814	-0.600098	0.057856	-0.007226	0.077894	0.514957	-0.284129	-0.133725	-0.797626	-5.641717	-36.226776	-112.459673
61005		5.806819	-0.743608	7.806354	0.006026	-0.057217	-0.055231	-0.001798	0.012048	-0.000899	-0.627930	0.427979	-0.598633	0.058073	-0.007436	0.078060	0.514944	-0.284116	-0.133697	-0.797644	-5.642878	-36.223677	-112.461974
61006		5.783483	-0.723045	7.790930	0.024078	-0.056292	-0.083026	-0.001749	0.011197	0.002588	-0.625488	0.433105	-0.588135	0.057839	-0.007229	0.077906	0.514968	-0.284006	-0.133793	-0.797652	-5.624330	-36.218991	-112.466301
61007		5.803759	-0.721700	7.764302	0.010871	-0.086056	-0.092536	-0.001701	0.010347	0.006075	-0.627441	0.426025	-0.590576	0.058042	-0.007215	0.077640	0.514982	-0.284003	-0.133760	-0.797649	-5.628272	-36.216437	-112.463641
61008		5.803616	-0.733379	7.786505	0.006527	-0.068257	-0.073860	-0.002241	0.008751	0.003750	-0.634766	0.437988	-0.584961	0.058040	-0.007332	0.077863	0.514980	-0.284000	-0.133855	-0.797636	-5.617864	-36.222530	-112.466028
61009		5.792564	-0.764528	7.798848	-0.013762	-0.040644	-0.068023	-0.003582	0.008015	0.003379	-0.621582	0.436768	-0.582520	0.057929	-0.007643	0.077986	0.514978	-0.284010	-0.133825	-0.797638	-5.621764	-36.221498	-112.465190
61010		5.824682	-0.754872	7.803532	-0.011351	-0.064795	-0.046033	-0.000101	0.008630	0.002165	-0.625488	0.429932	-0.592529	0.058250	-0.007548	0.078033	0.514911	-0.284146	-0.133820	-0.797634	-5.630733	-36.235075	-112.467927
61011		5.801459	-0.734407	7.788016	0.009461	-0.064681	-0.073838	-0.003914	0.011745	0.002426	-0.628174	0.437256	-0.593750	0.058019	-0.007342	0.077877	0.514907	-0.284142	-0.133781	-0.797644	-5.634332	-36.232067	-112.468021
61012		5.822302	-0.744065	7.783138	-0.008175	-0.078196	-0.064668	0.001708	0.012239	-0.000371	-0.625732	0.437012	-0.598633	0.058228	-0.007441	0.077828	0.514909	-0.284096	-0.133838	-0.797650	-5.624459	-36.231371	-112.471469
61013		5.811102	-0.774769	7.795624	-0.028452	-0.050561	-0.058838	-0.000101	0.008630	0.002164	-0.630615	0.437256	-0.584717	0.058114	-0.007747	0.077954	0.514907	-0.284094	-0.133822	-0.797654	-5.625836	-36.230157	-112.471570
61014		5.799426	-0.746071	7.811613	0.006340	-0.045899	-0.055171	-0.003399	0.013766	0.003006	-0.630615	0.433594	-0.592041	0.058000	-0.007459	0.078112	0.514887	-0.284117	-0.133804	-0.797663	-5.628622	-36.231315	-112.473206
61015		5.820116	-0.755594	7.806868	-0.010322	-0.060257	-0.046003	0.004365	0.014138	-0.001375	-0.627686	0.431396	-0.586914	0.058207	-0.007558	0.078064	0.514881	-0.284079	-0.133797	-0.797681	-5.625736	-36.227184	-112.476202
61016		5.807952	-0.774763	7.797972	-0.027617	-0.046009	-0.058814	0.001375	0.015969	-0.001326	-0.630859	0.434814	-0.592773	0.058086	-0.007749	0.077975	0.514839	-0.284075	-0.133868	-0.797697	-5.615746	-36.231784	-112.484482
61017		5.795428	-0.734146	7.792529	0.010353	-0.057590	-0.073794	0.005166	0.013280	-0.003330	-0.634033	0.433594	-0.596436	0.057959	-0.007344	0.077921	0.514826	-0.284038	-0.133870	-0.797719	-5.611566	-36.228307	-112.488860
61018		5.784009	-0.764344	7.805213	-0.010814	-0.028148	-0.067975	0.003001	0.013827	-0.003491	-0.615234	0.444336	-0.593750	0.057845	-0.007646	0.078048	0.514766	-0.284016	-0.133956	-0.797751	-5.597459	-36.232253	-112.501391
61019		5.793264	-0.733190	7.794228	0.010138	-0.054644	-0.073777	0.003516	0.015848	-0.002911	-0.626465	0.436523	-0.593018	0.057939	-0.007334	0.077938	0.514753	-0.283973	-0.133944	-0.797777	-5.594224	-36.227326	-112.505714
61020		5.813371	-0.730806	7.767889	-0.002336	-0.085864	-0.083243	0.005944	0.012847	-0.007029	-0.625732	0.434326	-0.590332	0.058138	-0.007312	0.077675	0.514782	-0.283919	-0.133884	-0.797787	-5.597316	-36.217828	-112.503048
61021		5.780133	-0.751095	7.786171	-0.005599	-0.043294	-0.086608	0.007799	0.015606	-0.006079	-0.632080	0.435059	-0.598389	0.057807	-0.007516	0.077857	0.514762	-0.283864	-0.133895	-0.797818	-5.590384	-36.213161	-112.509519
61022		5.790525	-0.742154	7.818587	0.007800	-0.038039	-0.055138	0.003514	0.015849	-0.002915	-0.632813	0.431152	-0.582520	0.057911	-0.007424	0.078181	0.514739	-0.283817	-0.133944	-0.797841	-5.579923	-36.211978	-112.516870
61023		5.799567	-0.759195	7.782531	-0.022601	-0.056082	-0.077418	0.006436	0.015294	-0.008196	-0.625000	0.437256	-0.587158	0.058001	-0.007597	0.077821	0.514709	-0.283765	-0.133953	-0.797877	-5.572858	-36.207618	-112.524848
61024		5.797969	-0.698785	7.786927	0.033578	-0.077166	-0.079553	0.003513	0.015849	-0.002917	-0.630127	0.440430	-0.598145	0.057986	-0.006990	0.077865	0.514637	-0.283830	-0.133991	-0.797894	-5.570615	-36.217075	-112.533460
61025		5.786995	-0.740201	7.821385	0.009876	-0.034084	-0.055126	0.004315	0.014991	-0.004871	-0.624512	0.437012	-0.596680	0.057876	-0.007405	0.078209	0.514617	-0.283787	-0.133988	-0.797923	-5.566178	-36.212790	-112.539096
61026		5.807627	-0.749226	7.816777	-0.006973	-0.048745	-0.045935	0.003534	0.015424	-0.001174	-0.626709	0.428711	-0.590088	0.058082	-0.007494	0.078163	0.514622	-0.283729	-0.133969	-0.797944	-5.563437	-36.205733	-112.541266
61027		5.794412	-0.745636	7.764492	-0.016930	-0.067282	-0.096015	0.005943	0.012848	-0.007034	-0.623779	0.429932	-0.593262	0.057949	-0.007461	0.077641	0.514594	-0.283689	-0.133980	-0.797974	-5.557256	-36.202762	-112.548267
61028		5.750883	-0.748309	7.819738	0.009190	-0.004926	-0.077144	0.007015	0.016041	-0.002387	-0.622803	0.434814	-0.587402	0.057515	-0.007487	0.078193	0.514613	-0.283602	-0.134084	-0.797976	-5.539720	-36.200843	-112.552262
61029		5.792827	-0.755434	7.787914	-0.021057	-0.049554	-0.077379	0.002439	0.012657	-0.007569	-0.629639	0.435059	-0.588379	0.057933	-0.007557	0.077875	0.514577	-0.283572	-0.134083	-0.798009	-5.535255	-36.198018	-112.559682
61030		5.791896	-0.706295	7.813878	0.031410	-0.056348	-0.060896	0.005653	0.015729	-0.004504	-0.628418	0.435303	-0.594971	0.057925	-0.007066	0.078134	0.514541	-0.283585	-0.134103	-0.798025	-5.532382	-36.200878	-112.565128
61031		5.791220	-0.765248	7.811345	-0.023040	-0.031881	-0.058745	0.005117	0.014133	-0.006829	-0.629395	0.436768	-0.587402	0.057917	-0.007656	0.078109	0.514513	-0.283542	-0.134108	-0.798057	-5.526653	-36.197211	-112.572128
61032		5.822367	-0.743062	7.794855	-0.018598	-0.072207	-0.055316	0.007238	0.014437	-0.010156	-0.628906	0.429932	-0.583008	0.058229	-0.007436	0.077944	0.514444	-0.283543	-0.134150	-0.798094	-5.518748	-36.200535	-112.584040
61033		5.788519	-0.751855	7.791463	-0.018418	-0.045026	-0.077351	0.008577	0.015175	-0.009786	-0.625244	0.429932	-0.596924	0.057891	-0.007525	0.077910	0.514410	-0.283486	-0.134170	-0.798133	-5.509768	-36.196471	-112.593209
61034		5.820712	-0.751807	7.818424	-0.022028	-0.054024	-0.036683	0.009915	0.015913	-0.009416	-0.622559	0.430664	-0.584229	0.058213	-0.007525	0.078179	0.514375	-0.283431	-0.134284	-0.798156	-5.491121	-36.198859	-112.604156
61035		5.786130	-0.749258	7.793487	-0.018422	-0.042265	-0.077339	0.010428	0.017935	-0.008838	-0.627441	0.433105	-0.585449	0.057868	-0.007499	0.077929	0.514349	-0.283359	-0.134304	-0.798195	-5.481315	-36.193201	-112.612891
61036		5.773460	-0.707672	7.788146	0.020298	-0.052436	-0.092312	0.008533	0.016025	-0.013280	-0.630859	0.440918	-0.592285	0.057740	-0.007084	0.077877	0.514284	-0.283366	-0.134366	-0.798224	-5.472016	-36.198405	-112.624143
61037		5.783639	-0.746272	7.795623	-0.016970	-0.039611	-0.077325	0.012527	0.018664	-0.013913	-0.622803	0.437256	-0.586426	0.057843	-0.007472	0.077950	0.514241	-0.283282	-0.134400	-0.798276	-5.458875	-36.192660	-112.636525
61038		5.793306	-0.725172	7.806523	0.002289	-0.050351	-0.064481	0.009891	0.016339	-0.011167	-0.622314	0.423828	-0.589844	0.057939	-0.007259	0.078060	0.514173	-0.283303	-0.134378	-0.798316	-5.459406	-36.193760	-112.645756
61039		5.770170	-0.714099	7.813109	0.019654	-0.034843	-0.073700	0.015245	0.019293	-0.009684	-0.626953	0.430664	-0.592773	0.057709	-0.007150	0.078125	0.514151	-0.283213	-0.134415	-0.798355	-5.446523	-36.187453	-112.655150
61040		5.812418	-0.731306	7.803387	-0.015355	-0.062919	-0.055246	0.012525	0.018665	-0.013919	-0.625732	0.432129	-0.594971	0.058131	-0.007322	0.078028	0.514142	-0.283093	-0.134550	-0.798382	-5.421266	-36.184537	-112.666261
61041		5.767950	-0.721884	7.837149	0.015589	-0.017082	-0.055089	0.010380	0.018786	-0.012340	-0.623047	0.434326	-0.595459	0.057686	-0.007226	0.078366	0.514101	-0.283016	-0.134573	-0.798431	-5.410015	-36.178667	-112.677544
61042		5.787202	-0.707444	7.789562	0.005284	-0.062428	-0.083066	0.012250	0.021124	-0.009648	-0.625000	0.431641	-0.586426	0.057880	-0.007082	0.077889	0.514113	-0.282894	-0.134611	-0.798460	-5.396001	-36.169038	-112.683336
61043		5.796562	-0.686410	7.800660	0.022804	-0.073473	-0.070220	0.010891	0.020810	-0.011767	-0.628906	0.429199	-0.594482	0.057973	-0.006872	0.078000	0.514078	-0.282807	-0.134630	-0.798510	-5.384610	-36.161956	-112.694340
61044		5.784604	-0.715678	7.813849	0.002410	-0.044508	-0.064453	0.010083	0.021670	-0.009817	-0.628174	0.430176	-0.588135	0.057854	-0.007164	0.078132	0.514040	-0.282746	-0.134699	-0.798545	-5.370017	-36.160709	-112.705278
61045		5.772102	-0.733701	7.805361	-0.014424	-0.032218	-0.077294	0.010869	0.021234	-0.013517	-0.623779	0.430420	-0.589600	0.057729	-0.007345	0.078047	0.513997	-0.282657	-0.134719	-0.798600	-5.357874	-36.153506	-112.717570
61046		5.781651	-0.712758	7.816300	0.003301	-0.042048	-0.064442	0.009927	0.015494	-0.007688	-0.624756	0.437256	-0.590576	0.057822	-0.007134	0.078158	0.513963	-0.282636	-0.134789	-0.798618	-5.346894	-36.156295	-112.725645
61047		5.791938	-0.703076	7.848766	0.017406	-0.037626	-0.033000	0.012071	0.015374	-0.009270	-0.624512	0.432617	-0.588867	0.057925	-0.007038	0.078483	0.513935	-0.282570	-0.134824	-0.798654	-5.336056	-36.152242	-112.734565
61048		5.758037	-0.711723	7.845364	0.018751	-0.010222	-0.055085	0.009906	0.015918	-0.009437	-0.624023	0.429199	-0.587646	0.057586	-0.007124	0.078449	0.513900	-0.282563	-0.134824	-0.798679	-5.333614	-36.151795	-112.740588
61049		5.788642	-0.726463	7.782300	-0.025264	-0.058588	-0.086627	0.010733	0.014635	-0.009644	-0.625488	0.431641	-0.599609	0.057892	-0.007272	0.077818	0.513868	-0.282504	-0.134855	-0.798715	-5.323466	-36.148199	-112.749695
61050		5.777669	-0.718257	7.841844	0.001972	-0.023496	-0.045840	0.012857	0.014939	-0.012972	-0.634277	0.437012	-0.590820	0.057782	-0.007191	0.078414	0.513851	-0.282419	-0.134937	-0.798742	-5.306522	-36.145327	-112.758780
61051		5.787097	-0.734271	7.805849	-0.028451	-0.041535	-0.068028	0.012327	0.013339	-0.015296	-0.625000	0.429199	-0.594238	0.057876	-0.007352	0.078054	0.513798	-0.282357	-0.134986	-0.798789	-5.293136	-36.142762	-112.771803
61052		5.763679	-0.711618	7.790516	-0.007181	-0.040402	-0.095854	0.017675	0.016299	-0.013814	-0.622559	0.427734	-0.596436	0.057643	-0.007127	0.077900	0.513725	-0.282324	-0.135070	-0.798834	-5.277543	-36.145466	-112.787062
61053		5.774475	-0.712213	7.844747	0.003532	-0.020502	-0.045833	0.018501	0.015017	-0.014020	-0.619873	0.436523	-0.594482	0.057750	-0.007133	0.078442	0.513687	-0.282240	-0.135138	-0.798877	-5.261095	-36.141906	-112.799301
61054		5.794640	-0.708191	7.818726	-0.009945	-0.051067	-0.055169	0.018990	0.017464	-0.015195	-0.625244	0.432373	-0.585449	0.057953	-0.007094	0.078182	0.513709	-0.282103	-0.135192	-0.798902	-5.244661	-36.131708	-112.804560
61055		5.760738	-0.715915	7.815401	-0.009769	-0.023906	-0.077264	0.018480	0.015441	-0.015772	-0.628418	0.435303	-0.598389	0.057613	-0.007171	0.078149	0.513664	-0.282016	-0.135261	-0.798950	-5.227492	-36.127953	-112.818034
61056		5.802164	-0.661513	7.787250	0.015720	-0.091928	-0.079483	0.019796	0.016605	-0.017151	-0.627197	0.436279	-0.598877	0.058028	-0.006628	0.077867	0.513602	-0.281975	-0.135321	-0.798994	-5.214216	-36.128265	-112.831665
61057		5.747388	-0.681841	7.832758	0.026095	-0.018974	-0.073672	0.021112	0.017769	-0.018531	-0.620361	0.431396	-0.589844	0.057480	-0.006832	0.078322	0.513551	-0.281870	-0.135399	-0.799051	-5.194340	-36.123340	-112.847218
61058		5.767606	-0.677387	7.806749	0.013466	-0.049140	-0.082997	0.021431	0.014463	-0.019312	-0.624756	0.433594	-0.593262	0.057681	-0.006788	0.078063	0.513520	-0.281789	-0.135456	-0.799090	-5.179566	-36.119208	-112.857972
61059		5.788391	-0.684043	7.802427	-0.003180	-0.063381	-0.073733	0.021937	0.016487	-0.018742	-0.622314	0.431152	-0.593018	0.057890	-0.006854	0.078019	0.513469	-0.281687	-0.135540	-0.799144	-5.159219	-36.115005	-112.873554
61060		5.819934	-0.671076	7.807970	-0.002014	-0.089492	-0.051624	0.021916	0.016910	-0.020493	-0.630615	0.430176	-0.593018	0.058205	-0.006725	0.078074	0.513433	-0.281600	-0.135605	-0.799186	-5.142960	-36.110880	-112.885408
61061		5.774889	-0.649376	7.819882	0.032358	-0.059128	-0.070149	0.021613	0.019796	-0.017972	-0.624756	0.431885	-0.594238	0.057756	-0.006507	0.078192	0.513387	-0.281487	-0.135677	-0.799244	-5.123034	-36.104736	-112.900626
61062		5.762921	-0.628769	7.858009	0.063958	-0.039148	-0.047991	0.021611	0.019797	-0.017976	-0.634033	0.437500	-0.594238	0.057636	-0.006301	0.078574	0.513329	-0.281410	-0.135764	-0.799293	-5.104196	-36.103251	-112.915931
61063		5.771607	-0.633155	7.800631	0.036927	-0.072675	-0.088721	0.016850	0.017168	-0.011894	-0.625000	0.415527	-0.590820	0.057722	-0.006342	0.078001	0.513299	-0.281324	-0.135816	-0.799334	-5.089641	-36.098310	-112.926683
61064		5.781147	-0.611655	7.811512	0.054276	-0.082071	-0.075860	0.014685	0.017710	-0.012065	-0.627197	0.429199	-0.588135	0.057818	-0.006126	0.078110	0.513241	-0.281276	-0.135931	-0.799369	-5.070226	-36.101463	-112.941035
61065		5.790578	-0.590405	7.822444	0.071828	-0.093083	-0.063011	0.013063	0.019433	-0.008165	-0.620850	0.434082	-0.589844	0.057913	-0.005912	0.078218	0.513221	-0.281193	-0.135957	-0.799406	-5.059282	-36.095078	-112.949328
61066		5.757535	-0.621384	7.862543	0.066730	-0.034658	-0.047993	0.009886	0.015924	-0.009480	-0.631104	0.423584	-0.598145	0.057581	-0.006220	0.078621	0.513186	-0.281204	-0.135952	-0.799426	-5.058934	-36.096005	-112.954350
61067		5.777890	-0.667339	7.811652	0.002110	-0.055923	-0.073687	0.007491	0.017666	-0.000132	-0.629150	0.426025	-0.588867	0.057786	-0.006676	0.078111	0.513189	-0.281148	-0.135949	-0.799444	-5.054650	-36.090247	-112.956827
61068		5.798763	-0.638596	7.853907	0.032886	-0.061316	-0.029412	0.006442	0.014458	-0.004775	-0.623047	0.421143	-0.594482	0.057993	-0.006390	0.078535	0.513149	-0.281126	-0.136048	-0.799461	-5.040128	-36.094847	-112.966529
61069		5.786777	-0.657698	7.845039	0.016070	-0.049024	-0.042256	0.001320	0.015980	-0.001414	-0.633789	0.427734	-0.590576	0.057874	-0.006578	0.078446	0.513137	-0.281092	-0.136026	-0.799484	-5.038864	-36.090155	-112.969852
61070		5.763912	-0.648013	7.851089	0.032975	-0.031965	-0.051535	0.001967	0.009364	-0.002961	-0.626953	0.424805	-0.594727	0.057643	-0.006482	0.078508	0.513105	-0.281101	-0.136109	-0.799487	-5.029206	-36.096680	-112.976209
61071		5.773745	-0.665809	7.814846	0.002539	-0.050013	-0.073655	-0.000990	0.010345	0.000569	-0.625977	0.430176	-0.595947	0.057742	-0.006658	0.078146	0.513094	-0.281097	-0.136090	-0.799499	-5.030260	-36.095140	-112.977819
61072		5.784237	-0.657365	7.846940	0.016437	-0.045023	-0.042237	0.001174	0.009805	0.000738	-0.630615	0.432129	-0.602539	0.057846	-0.006574	0.078467	0.513098	-0.281088	-0.136116	-0.799495	-5.026923	-36.095878	-112.978156
61073		5.783564	-0.657311	7.847440	0.016806	-0.044366	-0.042235	-0.000685	0.007458	-0.001953	-0.622803	0.427979	-0.584961	0.057839	-0.006573	0.078472	0.513076	-0.281093	-0.136110	-0.799509	-5.026844	-36.096117	-112.981378
61074		5.772208	-0.676938	7.838063	0.000516	-0.031670	-0.055082	-0.000649	0.006616	0.001545	-0.623047	0.431641	-0.592529	0.057725	-0.006769	0.078379	0.513062	-0.281136	-0.136103	-0.799503	-5.030654	-36.100057	-112.980907
61075		5.793505	-0.686316	7.833206	-0.016115	-0.045859	-0.045780	0.000632	0.008622	-0.003332	-0.624512	0.427002	-0.599365	0.057938	-0.006864	0.078330	0.513037	-0.281133	-0.136101	-0.799521	-5.029221	-36.099715	-112.985167
61076		5.781389	-0.646178	7.826965	0.021797	-0.057806	-0.060787	-0.001984	0.005873	0.001174	-0.622070	0.424805	-0.589600	0.057816	-0.006461	0.078268	0.513059	-0.281134	-0.136088	-0.799509	-5.031911	-36.098897	-112.981285
61077		5.780674	-0.683699	7.780762	-0.025836	-0.064228	-0.095738	-0.000702	0.007880	-0.003703	-0.626953	0.433105	-0.587402	0.057810	-0.006838	0.077805	0.513029	-0.281137	-0.136083	-0.799528	-5.031125	-36.098981	-112.985746
61078		5.780046	-0.683557	7.781240	-0.024401	-0.062901	-0.095726	0.002003	0.008522	0.000536	-0.623779	0.434082	-0.586670	0.057804	-0.006836	0.077810	0.513017	-0.281195	-0.136080	-0.799516	-5.035799	-36.104627	-112.984485
61079		5.746459	-0.644893	7.802074	0.027172	-0.044193	-0.101490	0.001462	0.007339	-0.003534	-0.633057	0.439697	-0.591064	0.057467	-0.006451	0.078019	0.512991	-0.281194	-0.136084	-0.799532	-5.033897	-36.105041	-112.988781
61080		5.778903	-0.645700	7.828840	0.027033	-0.054065	-0.060778	0.000343	0.011088	0.000937	-0.625244	0.425781	-0.592773	0.057793	-0.006457	0.078285	0.512929	-0.281318	-0.135993	-0.799544	-5.051108	-36.111704	-112.989879
61081		5.766758	-0.654153	7.797976	0.013598	-0.057280	-0.092174	0.000325	0.011509	-0.000813	-0.631592	0.429199	-0.595459	0.057672	-0.006542	0.077976	0.512915	-0.281306	-0.135978	-0.799559	-5.050931	-36.109645	-112.992464
61082		5.744352	-0.655762	7.825718	0.027454	-0.025356	-0.082936	0.000830	0.013535	-0.000242	-0.624756	0.418701	-0.595947	0.057449	-0.006558	0.078253	0.512901	-0.281301	-0.136005	-0.799566	-5.046828	-36.111015	-112.995579
61083		5.787029	-0.674576	7.815976	-0.006157	-0.054366	-0.064290	-0.000000	0.014817	-0.000042	-0.621582	0.432373	-0.593262	0.057876	-0.006746	0.078155	0.512892	-0.281277	-0.135980	-0.799584	-5.047022	-36.107048	-112.997844
61084		5.753072	-0.636108	7.837035	0.044730	-0.035550	-0.070084	0.001172	0.009805	0.000735	-0.626221	0.422607	-0.595947	0.057535	-0.006361	0.078367	0.512930	-0.281236	-0.136013	-0.799568	-5.041959	-36.104874	-112.994639
61085		5.785060	-0.674792	7.817415	-0.006078	-0.052929	-0.064282	-0.002944	0.015377	0.005233	-0.631348	0.426758	-0.593262	0.057857	-0.006745	0.078170	0.512938	-0.281221	-0.135967	-0.799576	-5.045993	-36.100311	-112.993219
61086		5.740093	-0.656193	7.828806	0.027537	-0.021356	-0.082926	-0.001352	0.014497	-0.002165	-0.622070	0.425537	-0.595215	0.057407	-0.006562	0.078284	0.512919	-0.281198	-0.136020	-0.799588	-5.037280	-36.101593	-112.998787
61087		5.782785	-0.675309	7.819053	-0.006079	-0.050355	-0.064269	-0.003449	0.013352	0.004661	-0.621094	0.430908	-0.594238	0.057833	-0.006750	0.078187	0.512922	-0.281192	-0.135978	-0.799595	-5.041399	-36.098236	-112.997681
61088		5.770073	-0.635666	7.813204	0.031717	-0.062471	-0.079288	-0.002962	0.015799	0.003481	-0.623779	0.431396	-0.595459	0.057707	-0.006354	0.078128	0.512975	-0.281147	-0.135935	-0.799584	-5.044953	-36.090614	-112.990840
61089		5.791555	-0.667895	7.852311	0.008372	-0.045599	-0.032870	-0.003759	0.016239	0.007179	-0.621826	0.426025	-0.598877	0.057922	-0.006675	0.078519	0.512990	-0.281132	-0.135881	-0.799589	-5.050196	-36.085461	-112.988121
61090		5.768397	-0.659258	7.858433	0.025337	-0.030601	-0.042201	-0.006429	0.014755	0.006435	-0.624512	0.429688	-0.587646	0.057690	-0.006588	0.078580	0.513047	-0.281091	-0.135827	-0.799576	-5.055305	-36.077489	-112.980279
61091		5.788176	-0.647429	7.810558	0.015453	-0.075818	-0.069948	-0.005892	0.015938	0.010503	-0.621338	0.421387	-0.587402	0.057888	-0.006469	0.078101	0.513072	-0.281085	-0.135760	-0.799573	-5.063159	-36.072315	-112.975185
61092		5.765489	-0.650248	7.838348	0.029871	-0.043856	-0.060735	-0.011263	0.013812	0.005516	-0.624756	0.435547	-0.590576	0.057660	-0.006496	0.078380	0.513079	-0.281136	-0.135721	-0.799558	-5.072092	-36.074669	-112.970457
61093		5.764392	-0.651297	7.839067	0.030257	-0.043193	-0.060734	-0.005583	0.013051	0.007982	-0.628418	0.427490	-0.593994	0.057649	-0.006508	0.078387	0.513093	-0.281139	-0.135666	-0.799557	-5.078832	-36.071297	-112.966970
61094		5.785620	-0.672884	7.856259	0.011150	-0.041357	-0.032854	-0.007732	0.013170	0.009557	-0.618408	0.432373	-0.590332	0.057862	-0.006723	0.078559	0.513099	-0.281198	-0.135594	-0.799545	-5.091933	-36.072331	-112.961297
61095		5.751350	-0.673175	7.830713	0.014696	-0.029774	-0.073583	-0.010727	0.014995	0.009582	-0.618408	0.420410	-0.594482	0.057520	-0.006725	0.078303	0.513113	-0.281207	-0.135512	-0.799546	-5.102239	-36.067787	-112.956791
61096		5.760944	-0.655084	7.841287	0.031936	-0.041130	-0.060730	-0.012047	0.013832	0.010957	-0.617432	0.429199	-0.595215	0.057615	-0.006543	0.078409	0.513198	-0.281189	-0.135441	-0.799510	-5.112675	-36.060796	-112.942698
61097		5.770930	-0.685585	7.826914	-0.001873	-0.043679	-0.064235	-0.011233	0.012970	0.009008	-0.634033	0.431641	-0.591309	0.057715	-0.006849	0.078266	0.513208	-0.281208	-0.135363	-0.799510	-5.123104	-36.057415	-112.938462
61098		5.758742	-0.658030	7.842657	0.033079	-0.039369	-0.060727	-0.009868	0.012869	0.012878	-0.620361	0.433105	-0.593750	0.057593	-0.006573	0.078423	0.513237	-0.281252	-0.135295	-0.799488	-5.135578	-36.057096	-112.930069
61099		5.736168	-0.661226	7.870283	0.047109	-0.008345	-0.051545	-0.011218	0.012549	0.010755	-0.631592	0.431641	-0.597900	0.057367	-0.006605	0.078700	0.513254	-0.281273	-0.135215	-0.799483	-5.146750	-36.053876	-112.924571
61100		5.756210	-0.649850	7.822257	0.037508	-0.053535	-0.079256	-0.011234	0.012972	0.009005	-0.623779	0.424072	-0.591797	0.057567	-0.006492	0.078219	0.513270	-0.281304	-0.135133	-0.799475	-5.159027	-36.051414	-112.918527
61101		5.788579	-0.701037	7.824278	-0.016647	-0.055367	-0.054866	-0.012525	0.010964	0.013877	-0.625977	0.432129	-0.598877	0.057891	-0.007001	0.078240	0.513296	-0.281338	-0.135048	-0.799461	-5.172316	-36.048936	-112.910715
61102		5.754200	-0.653504	7.823432	0.037741	-0.051808	-0.079247	-0.019004	0.012168	0.015100	-0.629150	0.427002	-0.587402	0.057547	-0.006523	0.078231	0.513340	-0.281366	-0.134974	-0.799435	-5.184900	-36.046611	-112.900591
61103		5.752911	-0.644549	7.802199	0.041483	-0.066687	-0.097772	-0.016530	0.008740	0.012754	-0.620605	0.428955	-0.591064	0.057533	-0.006435	0.078020	0.513355	-0.281418	-0.134880	-0.799423	-5.200081	-36.045456	-112.893443
61104		5.752108	-0.646839	7.802602	0.042123	-0.064946	-0.097763	-0.019482	0.009299	0.018021	-0.630615	0.425049	-0.598145	0.057525	-0.006456	0.078024	0.513382	-0.281516	-0.134807	-0.799384	-5.217734	-36.050174	-112.882148
61105		5.773477	-0.670048	7.819524	0.022169	-0.063552	-0.069873	-0.020313	0.010584	0.018217	-0.628906	0.437256	-0.596680	0.057740	-0.006687	0.078193	0.513414	-0.281574	-0.134686	-0.799363	-5.237278	-36.047707	-112.871275
61106		5.772487	-0.672776	7.820021	0.022163	-0.062096	-0.069864	-0.021129	0.011445	0.020160	-0.615967	0.431152	-0.590576	0.057730	-0.006714	0.078198	0.513439	-0.281636	-0.134599	-0.799340	-5.253155	-36.048016	-112.861987
61107		5.793666	-0.696309	7.837037	0.002210	-0.060690	-0.041973	-0.021946	0.012307	0.022104	-0.627441	0.433350	-0.597656	0.057942	-0.006948	0.078368	0.513486	-0.281694	-0.134462	-0.799313	-5.275162	-36.044367	-112.848502
61108		5.749055	-0.728975	7.823060	-0.014729	-0.022308	-0.077052	-0.026809	0.012217	0.017680	-0.628418	0.428711	-0.594238	0.057496	-0.007274	0.078228	0.513544	-0.281752	-0.134306	-0.799281	-5.299613	-36.039463	-112.832894
61109		5.769328	-0.681783	7.821571	0.023424	-0.060401	-0.069856	-0.023804	0.009966	0.019402	-0.626709	0.435303	-0.583740	0.057698	-0.006803	0.078214	0.513575	-0.281822	-0.134171	-0.799259	-5.321660	-36.037272	-112.821152
61110		5.768194	-0.685034	7.822124	0.024546	-0.058433	-0.069847	-0.024399	0.014890	0.027931	-0.624023	0.428223	-0.592285	0.057689	-0.006833	0.078218	0.513611	-0.281947	-0.134036	-0.799215	-5.348661	-36.040580	-112.805708
61111		5.734556	-0.709676	7.839802	0.021383	-0.015786	-0.073563	-0.026281	0.013398	0.021736	-0.626709	0.428955	-0.597900	0.057352	-0.007080	0.078395	0.513650	-0.282012	-0.133879	-0.799193	-5.372972	-36.036337	-112.792555
61112		5.765740	-0.691678	7.823348	0.024351	-0.056361	-0.069834	-0.024118	0.012854	0.021909	-0.626709	0.434570	-0.590088	0.057663	-0.006901	0.078231	0.513711	-0.282046	-0.133800	-0.799155	-5.387437	-36.034050	-112.779315
61113		5.764816	-0.743386	7.798868	-0.026668	-0.047292	-0.086171	-0.024107	0.012431	0.023652	-0.618652	0.433350	-0.594482	0.057654	-0.007418	0.077986	0.513761	-0.282110	-0.133652	-0.799125	-5.411294	-36.030252	-112.764776
61114		5.774430	-0.727241	7.809359	-0.008769	-0.058151	-0.073306	-0.027102	0.014262	0.023669	-0.625488	0.437988	-0.598145	0.057751	-0.007255	0.078090	0.513825	-0.282186	-0.133487	-0.799085	-5.438636	-36.026429	-112.746953
61115		5.783658	-0.700015	7.798217	0.012173	-0.084637	-0.078952	-0.027104	0.014263	0.023664	-0.619629	0.433594	-0.597168	0.057843	-0.006983	0.077979	0.513871	-0.282250	-0.133322	-0.799060	-5.464151	-36.021576	-112.732524
61116		5.728087	-0.715220	7.821081	0.025721	-0.027754	-0.092070	-0.025759	0.014578	0.025782	-0.628174	0.436768	-0.595459	0.057287	-0.007135	0.078208	0.513966	-0.282279	-0.133153	-0.799017	-5.489492	-36.012650	-112.712330
61117		5.770847	-0.748798	7.832946	-0.011212	-0.041130	-0.054788	-0.024955	0.014144	0.022086	-0.621338	0.429688	-0.596191	0.057715	-0.007472	0.078326	0.514009	-0.282337	-0.132999	-0.798994	-5.513122	-36.007918	-112.698999
61118		5.769149	-0.692266	7.836961	0.043341	-0.064066	-0.056956	-0.020605	0.012202	0.025932	-0.623047	0.429688	-0.588379	0.057697	-0.006907	0.078367	0.514088	-0.282375	-0.132900	-0.798946	-5.530973	-36.004578	-112.682206
61119		5.736012	-0.727793	7.876070	0.036830	-0.005853	-0.042191	-0.023808	0.009554	0.021108	-0.623779	0.432129	-0.583740	0.057365	-0.007263	0.078759	0.514126	-0.282448	-0.132764	-0.798919	-5.553700	-36.002509	-112.669266
61120		5.789334	-0.756257	7.807437	-0.024036	-0.067766	-0.063882	-0.020827	0.008147	0.019340	-0.630615	0.434814	-0.595947	0.057897	-0.007549	0.078073	0.514149	-0.282563	-0.132698	-0.798875	-5.571861	-36.009361	-112.657844
61121		5.734216	-0.722137	7.854977	0.041199	-0.018696	-0.060696	-0.020519	0.005265	0.016818	-0.624023	0.437256	-0.594727	0.057345	-0.007208	0.078549	0.514171	-0.282642	-0.132592	-0.798850	-5.591095	-36.010003	-112.647650
61122		5.755936	-0.745579	7.871486	0.021052	-0.016617	-0.032797	-0.021006	0.002391	0.019732	-0.621826	0.437988	-0.586426	0.057561	-0.007442	0.078715	0.514193	-0.282743	-0.132518	-0.798812	-5.608768	-36.015024	-112.637004
61123		5.733636	-0.727524	7.854903	0.041770	-0.016712	-0.060695	-0.019858	-0.002202	0.018758	-0.626953	0.436523	-0.594971	0.057336	-0.007262	0.078550	0.514219	-0.282851	-0.132432	-0.798772	-5.628722	-36.019819	-112.624932
61124		5.776890	-0.726716	7.800791	0.015359	-0.076304	-0.078888	-0.019020	-0.003913	0.020303	-0.620850	0.436768	-0.594971	0.057768	-0.007254	0.078010	0.514244	-0.283000	-0.132355	-0.798715	-5.651019	-36.029289	-112.610895
61125		5.756013	-0.802040	7.845581	-0.028671	-0.005694	-0.049120	-0.019351	-0.000178	0.019329	-0.623535	0.433838	-0.587402	0.057561	-0.008007	0.078457	0.514275	-0.283099	-0.132265	-0.798675	-5.670857	-36.032905	-112.598550
61126		5.799471	-0.763838	7.838278	-0.007592	-0.058281	-0.032480	-0.016560	-0.006916	0.016213	-0.617676	0.437744	-0.587646	0.057993	-0.007627	0.078385	0.514310	-0.283217	-0.132229	-0.798617	-5.686740	-36.041884	-112.585424
61127		5.778026	-0.804750	7.817906	-0.041625	-0.034418	-0.058204	-0.012572	-0.003853	0.013854	-0.626953	0.438721	-0.586426	0.057779	-0.008039	0.078181	0.514326	-0.283310	-0.132182	-0.798581	-5.700577	-36.047903	-112.576677
61128		5.767059	-0.814534	7.785966	-0.054199	-0.037323	-0.089552	-0.010429	-0.003549	0.010543	-0.629150	0.428955	-0.585693	0.057670	-0.008138	0.077861	0.514329	-0.283443	-0.132140	-0.798539	-5.716861	-36.058246	-112.567780
61129		5.789053	-0.776797	7.805628	-0.019374	-0.059808	-0.063820	-0.007469	-0.004103	0.005288	-0.630127	0.432861	-0.592041	0.057889	-0.007764	0.078058	0.514317	-0.283519	-0.132126	-0.798522	-5.724261	-36.064912	-112.565037
61130		5.800103	-0.758198	7.815398	-0.002446	-0.068596	-0.050936	-0.005623	-0.001345	0.006243	-0.625977	0.433838	-0.586182	0.058001	-0.007578	0.078155	0.514278	-0.283607	-0.132216	-0.798501	-5.720384	-36.079885	-112.568121
61131		5.778227	-0.749349	7.820594	0.014937	-0.053112	-0.060350	-0.006483	0.001222	0.001207	-0.622559	0.431396	-0.580566	0.057783	-0.007491	0.078206	0.514255	-0.283656	-0.132199	-0.798502	-5.725259	-36.083789	-112.568679
61132		5.756056	-0.740597	7.826001	0.032621	-0.036117	-0.069762	-0.008435	0.006248	0.005869	-0.625977	0.438965	-0.596191	0.057563	-0.007401	0.078259	0.514231	-0.283746	-0.132209	-0.798483	-5.730760	-36.093492	-112.567583
61133		5.754748	-0.707733	7.761305	0.042983	-0.082221	-0.125208	-0.007608	0.004962	0.005670	-0.622559	0.437988	-0.589355	0.057550	-0.007073	0.077612	0.514226	-0.283786	-0.132172	-0.798478	-5.737972	-36.095047	-112.565276
61134		5.765330	-0.700710	7.793266	0.057256	-0.077463	-0.093853	-0.008723	0.008275	0.011877	-0.628906	0.438232	-0.591309	0.057657	-0.007000	0.077931	0.514260	-0.283818	-0.132120	-0.798454	-5.748070	-36.094510	-112.557002
61135		5.765090	-0.724920	7.836996	0.051009	-0.045556	-0.056889	-0.015206	0.009498	0.013082	-0.624268	0.434082	-0.593750	0.057655	-0.007239	0.078368	0.514277	-0.283865	-0.132030	-0.798441	-5.762528	-36.093050	-112.549783
61136		5.796867	-0.717244	7.842249	0.051200	-0.070533	-0.034581	-0.017659	0.012075	0.018909	-0.629883	0.444824	-0.596680	0.057974	-0.007160	0.078420	0.514315	-0.283909	-0.131959	-0.798413	-5.775906	-36.092495	-112.539767
61137		5.762573	-0.707171	7.794721	0.058007	-0.074690	-0.093836	-0.018977	0.010485	0.022016	-0.625488	0.435791	-0.582275	0.057631	-0.007058	0.077945	0.514363	-0.283968	-0.131839	-0.798381	-5.796178	-36.089961	-112.526331
61138		5.772659	-0.702092	7.826879	0.072939	-0.069191	-0.062485	-0.022768	0.012326	0.027462	-0.619141	0.439941	-0.590820	0.057732	-0.007004	0.078266	0.514397	-0.284083	-0.131697	-0.798341	-5.823020	-36.091707	-112.511370
61139		5.760954	-0.736276	7.838978	0.052805	-0.041297	-0.056880	-0.023261	0.009451	0.030368	-0.620850	0.439453	-0.591064	0.057614	-0.007345	0.078388	0.514472	-0.284162	-0.131551	-0.798289	-5.849272	-36.089289	-112.491970
61140		5.770984	-0.720561	7.849288	0.070532	-0.052599	-0.044011	-0.027274	0.007246	0.029226	-0.625488	0.428467	-0.591309	0.057714	-0.007186	0.078492	0.514571	-0.284247	-0.131386	-0.798221	-5.879410	-36.086041	-112.467778
61141		5.748507	-0.763475	7.829351	0.036496	-0.028747	-0.069752	-0.031261	0.003759	0.033313	-0.626953	0.440918	-0.585693	0.057488	-0.007613	0.078294	0.514643	-0.284372	-0.131218	-0.798159	-5.911722	-36.086665	-112.445874
61142		5.748235	-0.778993	7.850945	0.033049	-0.011109	-0.051276	-0.026935	0.002656	0.033669	-0.623291	0.437012	-0.595215	0.057485	-0.007770	0.078510	0.514710	-0.284500	-0.131142	-0.798082	-5.934490	-36.093861	-112.426142
61143		5.791675	-0.802145	7.840215	-0.000532	-0.039941	-0.032385	-0.024960	-0.003653	0.034232	-0.629395	0.437988	-0.592041	0.057917	-0.008002	0.078404	0.514789	-0.284639	-0.131018	-0.798002	-5.963871	-36.098660	-112.403069
61144		5.759206	-0.778839	7.881957	0.046850	-0.004988	-0.019931	-0.026308	-0.003957	0.032104	-0.624512	0.431396	-0.586426	0.057592	-0.007769	0.078822	0.514865	-0.284756	-0.130950	-0.797922	-5.985310	-36.105243	-112.382755
61145		5.759322	-0.819727	7.834327	-0.000867	-0.011530	-0.054702	-0.024847	-0.012287	0.032086	-0.628174	0.444092	-0.586670	0.057590	-0.008178	0.078348	0.514930	-0.284927	-0.130851	-0.797836	-6.014091	-36.115078	-112.360566
61146		5.770976	-0.804017	7.843465	0.016689	-0.021113	-0.041821	-0.022693	-0.012411	0.030520	-0.627441	0.442871	-0.593506	0.057706	-0.008022	0.078439	0.514968	-0.285124	-0.130816	-0.797746	-6.037112	-36.131869	-112.342333
61147		5.804309	-0.786463	7.825682	0.020619	-0.062353	-0.037949	-0.021861	-0.014126	0.032058	-0.627197	0.442627	-0.588623	0.058039	-0.007847	0.078262	0.515035	-0.285295	-0.130734	-0.797655	-6.064257	-36.142765	-112.320027
61148		5.761754	-0.830672	7.831385	0.000286	-0.007570	-0.054698	-0.025870	-0.016753	0.032653	-0.623047	0.441895	-0.585693	0.057612	-0.008287	0.078320	0.515082	-0.285504	-0.130660	-0.797563	-6.092777	-36.158110	-112.299038
61149		5.773670	-0.803656	7.818568	0.021204	-0.034047	-0.060276	-0.023413	-0.019755	0.028565	-0.625732	0.440430	-0.582031	0.057730	-0.008019	0.078192	0.515129	-0.285698	-0.130592	-0.797474	-6.119627	-36.172418	-112.278756
61150		5.807290	-0.774948	7.778779	0.028933	-0.090059	-0.074843	-0.027727	-0.019502	0.031681	-0.618408	0.449463	-0.580078	0.058067	-0.007729	0.077795	0.515164	-0.285950	-0.130520	-0.797372	-6.151253	-36.192223	-112.257028
61151		5.830705	-0.811434	7.815423	0.005729	-0.072819	-0.028463	-0.028023	-0.017053	0.035937	-0.625732	0.440918	-0.587402	0.058302	-0.008093	0.078160	0.515236	-0.286151	-0.130415	-0.797271	-6.183729	-36.204544	-112.231724
61152		5.809977	-0.806128	7.819472	0.024080	-0.057195	-0.037925	-0.029365	-0.017783	0.035549	-0.627686	0.436523	-0.582275	0.058094	-0.008039	0.078201	0.515299	-0.286403	-0.130285	-0.797161	-6.223000	-36.220212	-112.204393
61153		5.833038	-0.831673	7.834526	0.004190	-0.055583	-0.009999	-0.032349	-0.016366	0.037302	-0.621338	0.446533	-0.585205	0.058326	-0.008293	0.078351	0.515370	-0.286614	-0.130159	-0.797060	-6.258549	-36.232040	-112.178132
61154		5.822757	-0.784725	7.805499	0.045519	-0.082080	-0.043486	-0.034516	-0.015807	0.037113	-0.629150	0.443604	-0.585205	0.058223	-0.007823	0.078061	0.515429	-0.286855	-0.130057	-0.796952	-6.293698	-36.248556	-112.152589
61155		5.801566	-0.768800	7.788099	0.066204	-0.082246	-0.071406	-0.036966	-0.013232	0.042927	-0.622803	0.447754	-0.579346	0.058012	-0.007661	0.077886	0.515518	-0.287068	-0.129897	-0.796844	-6.334121	-36.258237	-112.122582
61156		5.803103	-0.808498	7.851669	0.057507	-0.033738	-0.016059	-0.041508	-0.017439	0.041190	-0.617188	0.439209	-0.579834	0.058026	-0.008057	0.078523	0.515558	-0.287368	-0.129736	-0.796736	-6.379663	-36.276744	-112.095339
61157		5.748937	-0.839560	7.782125	0.029822	-0.014882	-0.101071	-0.036328	-0.021567	0.048294	-0.620605	0.441650	-0.585938	0.057483	-0.008368	0.077829	0.515664	-0.287617	-0.129593	-0.796601	-6.422402	-36.290817	-112.060849
61158		5.695973	-0.856555	7.802648	0.043182	0.042805	-0.114470	-0.039540	-0.024610	0.045196	-0.623779	0.439941	-0.582275	0.056952	-0.008537	0.078035	0.515795	-0.287861	-0.129491	-0.796444	-6.461704	-36.307043	-112.023332
61159		5.654463	-0.854311	7.832989	0.074270	0.088680	-0.115000	-0.037570	-0.031787	0.049208	-0.620605	0.447998	-0.587891	0.056534	-0.008514	0.078340	0.515896	-0.288154	-0.129367	-0.796293	-6.506049	-36.326833	-111.987341
61160		5.689448	-0.898521	7.809713	0.023023	0.071712	-0.108920	-0.033670	-0.043985	0.048546	-0.629150	0.439941	-0.589600	0.056879	-0.008958	0.078111	0.516018	-0.288468	-0.129325	-0.796107	-6.544811	-36.353923	-111.948339
61161		5.747431	-0.903877	7.805982	0.006670	0.031397	-0.077068	-0.029256	-0.054166	0.048464	-0.626465	0.447266	-0.591797	0.057455	-0.009013	0.078077	0.516113	-0.288828	-0.129293	-0.795920	-6.585210	-36.386458	-111.911000
61162		5.718981	-0.929615	7.819224	0.002065	0.074675	-0.081007	-0.024871	-0.063049	0.043163	-0.628174	0.451416	-0.580322	0.057167	-0.009274	0.078211	0.516206	-0.289158	-0.129387	-0.795724	-6.609681	-36.424360	-111.878159
61163		5.779142	-0.885736	7.839896	0.037137	0.026016	-0.032865	-0.021524	-0.076399	0.038423	-0.621582	0.446045	-0.584961	0.057763	-0.008838	0.078422	0.516258	-0.289580	-0.129458	-0.795526	-6.642557	-36.470177	-111.846043
61164		5.763523	-0.879828	7.840389	0.054664	0.041759	-0.042362	-0.019807	-0.088033	0.037556	-0.619629	0.444580	-0.584961	0.057602	-0.008780	0.078430	0.516302	-0.290055	-0.129575	-0.795305	-6.674973	-36.524406	-111.812907
61165		5.749942	-0.837064	7.887251	0.120192	0.064547	-0.017147	-0.023181	-0.105446	0.032624	-0.625977	0.446289	-0.577393	0.057459	-0.008352	0.078904	0.516309	-0.290593	-0.129723	-0.795080	-6.707909	-36.587115	-111.782372
61166		5.758331	-0.900643	7.876387	0.065320	0.089509	-0.014998	-0.022462	-0.123704	0.040969	-0.632080	0.448486	-0.580322	0.057536	-0.008986	0.078800	0.516370	-0.291184	-0.129945	-0.794788	-6.740757	-36.659542	-111.741344
61167		5.758483	-0.816032	7.888061	0.154650	0.069425	-0.013770	-0.022576	-0.146696	0.036902	-0.625000	0.441406	-0.586670	0.057528	-0.008141	0.078924	0.516368	-0.291887	-0.130196	-0.794491	-6.777372	-36.745401	-111.704160
61168		5.781115	-0.849087	7.863143	0.119581	0.067563	-0.017160	-0.022108	-0.170264	0.043802	-0.627930	0.455078	-0.574707	0.057746	-0.008470	0.078682	0.516397	-0.292645	-0.130569	-0.794132	-6.807890	-36.844659	-111.660839
61169		5.783687	-0.943640	7.859872	0.044730	0.119534	-0.009486	-0.021724	-0.191658	0.041988	-0.625977	0.440918	-0.581299	0.057763	-0.009416	0.078655	0.516386	-0.293526	-0.130932	-0.793754	-6.848689	-36.955713	-111.616004
61170		5.704383	-0.925586	7.971957	0.133627	0.245270	0.029606	-0.024551	-0.224695	0.034852	-0.634766	0.451416	-0.571533	0.056956	-0.009236	0.079785	0.516344	-0.294521	-0.131408	-0.793334	-6.886314	-37.085791	-111.571248
61171		5.798950	-0.856854	7.912009	0.161590	0.134897	0.031984	-0.021999	-0.255685	0.032628	-0.626465	0.456299	-0.585205	0.057890	-0.008550	0.079195	0.516252	-0.295650	-0.131948	-0.792884	-6.926937	-37.233857	-111.527218
61172		5.809357	-0.820407	7.890166	0.199393	0.122742	0.016938	-0.025028	-0.289285	0.041756	-0.629395	0.448730	-0.569092	0.057981	-0.008182	0.078987	0.516190	-0.296909	-0.132540	-0.792355	-6.975863	-37.397858	-111.470858
61173		5.843937	-0.794112	7.860542	0.220293	0.096268	0.011388	-0.023034	-0.323553	0.043958	-0.630615	0.447021	-0.582275	0.058314	-0.007919	0.078701	0.516094	-0.298316	-0.133234	-0.791772	-7.026170	-37.583659	-111.412221
61174		5.879250	-1.017840	7.833667	0.017603	0.181092	0.032855	-0.017013	-0.356064	0.048908	-0.631104	0.453613	-0.567139	0.058655	-0.010157	0.078442	0.516071	-0.299759	-0.134072	-0.791100	-7.069152	-37.782134	-111.341681
61175		5.819473	-1.017016	7.788649	0.037783	0.233445	-0.039888	0.063696	-0.388743	0.073102	-0.636719	0.454102	-0.564697	0.058047	-0.010174	0.077996	0.516174	-0.301218	-0.135233	-0.790281	-7.086930	-38.002857	-111.255584
61176		5.654173	-0.473201	8.146194	0.712669	0.344820	0.083125	-0.000353	-0.454721	0.065122	-0.632568	0.450439	-0.564453	0.056358	-0.004713	0.081590	0.516131	-0.303087	-0.136308	-0.789409	-7.144616	-38.259521	-111.164066
61177		5.912858	-1.596466	7.676970	-0.505032	0.432648	-0.014523	0.020547	-0.507572	0.034979	-0.645020	0.452637	-0.566650	0.058936	-0.015962	0.076918	0.515932	-0.305097	-0.137661	-0.788530	-7.177916	-38.550411	-111.093762
61178		5.945937	-0.856173	7.791916	0.209636	0.198060	0.021831	0.038140	-0.547489	0.011231	-0.634766	0.446289	-0.558105	0.059246	-0.008573	0.078080	0.515693	-0.307134	-0.139242	-0.787617	-7.188212	-38.860084	-111.031917
61179		6.010209	-1.053811	7.761163	0.025543	0.271768	0.056152	0.041102	-0.591014	0.002800	-0.649414	0.444580	-0.549805	0.059873	-0.010553	0.077787	0.515332	-0.309393	-0.140938	-0.786667	-7.200868	-39.200660	-110.976614
61180		6.075888	-1.036603	7.675661	0.014192	0.226270	0.028808	0.063933	-0.619105	-0.004780	-0.646729	0.449707	-0.551025	0.060521	-0.010392	0.076941	0.515008	-0.311628	-0.142860	-0.785650	-7.190325	-39.554252	-110.920432
61181		6.115328	-1.001329	7.653575	0.048765	0.230225	0.032178	0.088950	-0.658054	-0.007906	-0.651123	0.452393	-0.551270	0.060901	-0.010050	0.076732	0.514622	-0.314012	-0.144931	-0.784573	-7.175306	-39.933699	-110.866333
61182		6.220981	-0.993613	7.609218	0.031515	0.188876	0.064106	0.111996	-0.681642	-0.011086	-0.656738	0.444336	-0.543213	0.061949	-0.009982	0.076298	0.514316	-0.316349	-0.147163	-0.783419	-7.144342	-40.319067	-110.804232
61183		6.290489	-1.029392	7.513545	-0.033252	0.167513	0.038896	0.165315	-0.702959	-0.003140	-0.649902	0.446777	-0.538574	0.062640	-0.010357	0.075347	0.514024	-0.318708	-0.149638	-0.782185	-7.091201	-40.723721	-110.742304
61184		6.433957	-1.060075	7.383335	-0.129621	0.073731	0.036706	0.246533	-0.719705	0.008689	-0.665771	0.437500	-0.547119	0.064074	-0.010689	0.074051	0.513977	-0.320841	-0.152479	-0.780794	-6.992756	-41.129429	-110.661942
61185		6.468066	-0.910754	7.353667	-0.002824	0.041241	0.022942	0.335574	-0.733760	0.034311	-0.675293	0.438232	-0.530029	0.064412	-0.009220	0.073758	0.514064	-0.322901	-0.155634	-0.779263	-6.862654	-41.549137	-110.569818
61186		6.650280	-1.042665	7.408633	-0.147410	0.074965	0.195980	0.446428	-0.717332	0.062439	-0.676270	0.441406	-0.523926	0.066240	-0.010572	0.074301	0.514468	-0.324517	-0.159225	-0.777598	-6.662294	-41.952963	-110.465046
61187		6.687635	-0.773001	7.407329	0.085554	0.010212	0.196439	0.564777	-0.703021	0.100843	-0.671631	0.437256	-0.526611	0.066619	-0.007906	0.074286	0.515191	-0.325909	-0.163081	-0.775736	-6.432496	-42.351256	-110.327181
61188		6.646647	-0.663181	7.330346	0.162939	0.022822	0.103167	0.656948	-0.680541	0.152746	-0.676270	0.438721	-0.527100	0.066222	-0.006822	0.073507	0.516292	-0.326974	-0.167177	-0.773681	-6.169892	-42.732110	-110.152383
61189		6.669490	-0.662261	7.274012	0.128791	0.046605	0.077344	0.757425	-0.653981	0.207361	-0.679932	0.435791	-0.520996	0.066464	-0.006830	0.072932	0.517758	-0.327752	-0.171470	-0.771430	-5.882514	-43.096959	-109.938943
61190		6.724468	-0.459887	7.204047	0.261838	-0.044152	0.049225	0.836674	-0.625289	0.261659	-0.683350	0.425781	-0.513184	0.067025	-0.004813	0.072230	0.519627	-0.328200	-0.175911	-0.768978	-5.574831	-43.438359	-109.681153
61191		6.790049	-0.436019	7.100286	0.217550	-0.092755	0.018518	0.908378	-0.586823	0.317055	-0.679688	0.427002	-0.511719	0.067699	-0.004576	0.071181	0.521791	-0.328403	-0.180422	-0.766377	-5.256898	-43.760595	-109.389284
61192		7.001927	-0.507421	6.989375	0.047501	-0.212512	0.091254	0.962952	-0.546148	0.367344	-0.683350	0.428955	-0.518555	0.069838	-0.005283	0.070060	0.524242	-0.328349	-0.184979	-0.763636	-4.930000	-44.061158	-109.064289
61193		6.939532	-0.640696	6.944486	-0.096667	-0.088256	0.024794	1.035919	-0.487935	0.397198	-0.685059	0.429688	-0.518799	0.069239	-0.006630	0.069580	0.526976	-0.327891	-0.189575	-0.760818	-4.579490	-44.325553	-108.717446
61194		6.937926	-0.740801	7.046830	-0.188026	0.068021	0.102005	1.130152	-0.421488	0.413127	-0.677979	0.419922	-0.518311	0.069246	-0.007663	0.070572	0.530010	-0.326933	-0.194307	-0.757924	-4.185777	-44.551525	-108.355228
61195		6.153832	-0.347780	8.064081	0.600589	1.159005	0.252872	1.229321	-0.291705	0.400591	-0.685547	0.414795	-0.524902	0.061428	-0.003851	0.080708	0.533220	-0.325196	-0.199097	-0.755172	-3.718770	-44.707076	-108.019170
61196		5.235481	0.778230	9.286067	2.120427	2.228420	0.423716	1.284320	-0.126939	0.299898	-0.687988	0.407715	-0.520996	0.052285	0.007264	0.092942	0.536325	-0.322537	-0.203825	-0.752849	-3.154872	-44.770995	-107.768602
61197		7.354827	2.247759	10.198122	3.184095	0.943427	2.520915	1.276214	0.092217	0.084980	-0.680420	0.415283	-0.528076	0.073586	0.021858	0.102088	0.538764	-0.318880	-0.208258	-0.751451	-2.469129	-44.720430	-107.705782
61198		6.773496	2.439580	10.580984	3.470109	1.554685	2.407333	1.134386	0.437065	-0.031104	-0.683594	0.399658	-0.534180	0.067970	0.023785	0.105798	0.540863	-0.314218	-0.211393	-0.751030	-1.796854	-44.478777	-107.745258
61199		5.385036	1.676676	9.589874	2.693047	2.086060	0.778359	0.947424	0.662417	-0.064591	-0.679443	0.396484	-0.544189	0.054173	0.016295	0.095798	0.542778	-0.309128	-0.213275	-0.751230	-1.207997	-44.104923	-107.812973
61200		4.628788	0.549893	8.621479	1.466264	2.296197	-0.398092	0.854838	0.741550	-0.051732	-0.682861	0.389404	-0.546875	0.046609	0.005119	0.086065	0.544625	-0.304027	-0.214565	-0.751607	-0.683433	-43.688107	-107.870795
61201		4.842810	-0.314629	8.364060	0.447849	2.209717	-0.409234	0.872617	0.774341	-0.014155	-0.676758	0.381836	-0.545654	0.048751	-0.003514	0.083437	0.546697	-0.298754	-0.215771	-0.751872	-0.172376	-43.249085	-107.888763
61202		5.482738	-0.275777	8.709642	0.319395	1.928576	0.295316	0.923711	0.845444	0.024756	-0.670166	0.385986	-0.567871	0.055195	-0.003152	0.086850	0.548891	-0.293230	-0.216921	-0.752117	0.343358	-42.782649	-107.891024
61203		5.902352	0.168406	8.966565	0.597996	1.602408	0.786310	0.902476	0.954898	0.079210	-0.662842	0.379150	-0.571777	0.059450	0.001304	0.089389	0.551512	-0.287275	-0.217592	-0.752304	0.814060	-42.240613	-107.824317
61204		5.800046	0.359325	8.831792	0.681117	1.454052	0.636746	0.815007	1.056708	0.119028	-0.650146	0.374268	-0.577148	0.058464	0.003269	0.088024	0.554167	-0.281308	-0.217542	-0.752622	1.201630	-41.647529	-107.727503
61205		5.601079	0.342965	8.540602	0.569248	1.327873	0.303786	0.718941	1.111878	0.145519	-0.653076	0.370850	-0.587158	0.056482	0.003164	0.085105	0.556900	-0.275318	-0.216975	-0.752984	1.527150	-41.017239	-107.598694
61206		5.532760	0.228367	8.266606	0.350915	1.146045	0.064690	0.638709	1.138854	0.140838	-0.644775	0.367432	-0.588135	0.055796	0.002060	0.082356	0.559403	-0.269566	-0.215990	-0.753493	1.798079	-40.382164	-107.479969
61207		5.650938	0.284331	8.219695	0.297215	0.920231	0.119128	0.567734	1.152623	0.107627	-0.635254	0.368408	-0.598389	0.056980	0.002641	0.081877	0.561783	-0.263781	-0.214773	-0.754116	2.053083	-39.728839	-107.372882
61208		5.744212	0.444844	8.159519	0.355480	0.674671	0.146674	0.480195	1.156323	0.066325	-0.626953	0.359863	-0.608398	0.057911	0.004272	0.081272	0.563709	-0.258379	-0.213223	-0.754989	2.263932	-39.089878	-107.310428
61209		5.817044	0.487895	8.018887	0.297253	0.423704	0.092341	0.379832	1.148298	0.029337	-0.620361	0.352783	-0.610840	0.058629	0.004736	0.079862	0.565501	-0.253036	-0.211397	-0.755971	2.446477	-38.437889	-107.256658
61210		5.919825	0.570759	7.868247	0.277622	0.135509	0.045452	0.282627	1.125625	-0.006150	-0.614258	0.357666	-0.617188	0.059640	0.005595	0.078356	0.566851	-0.248124	-0.209300	-0.757171	2.586480	-37.808818	-107.245596
61211		6.083126	0.629837	7.765283	0.233666	-0.163634	0.067514	0.192421	1.093616	-0.037171	-0.609619	0.358154	-0.621094	0.061256	0.006213	0.077325	0.568062	-0.243431	-0.206990	-0.758421	2.690975	-37.186633	-107.238516
61212		6.200872	0.733153	7.704291	0.255169	-0.414074	0.092207	0.103843	1.062266	-0.068012	-0.605957	0.356934	-0.625977	0.062419	0.007270	0.076716	0.568874	-0.239144	-0.204427	-0.759870	2.754734	-36.585621	-107.270385
61213		6.076559	0.906067	7.406998	0.375445	-0.632798	-0.217535	0.020562	1.017592	-0.110913	-0.607178	0.361572	-0.630371	0.061146	0.009019	0.073760	0.569486	-0.235139	-0.201759	-0.761373	2.792398	-36.004939	-107.316589
61214		5.946462	1.002235	7.084369	0.426456	-0.832226	-0.556444	-0.069484	0.950804	-0.152041	-0.594971	0.355713	-0.640381	0.059808	0.010002	0.070556	0.569643	-0.231600	-0.198940	-0.763080	2.797497	-35.458140	-107.411439
61215		5.829522	1.109380	6.709405	0.484440	-1.062658	-0.932050	-0.140790	0.862048	-0.217278	-0.594971	0.354492	-0.639160	0.058596	0.011077	0.066834	0.569480	-0.228530	-0.196214	-0.764831	2.787524	-34.963490	-107.536607
61216		5.738646	1.125652	6.404633	0.460197	-1.237052	-1.240873	-0.204895	0.756819	-0.290933	-0.587402	0.356445	-0.643311	0.057645	0.011238	0.063817	0.568749	-0.225954	-0.193587	-0.766807	2.773461	-34.522606	-107.732529
61217		5.764804	1.194351	6.291520	0.483337	-1.399063	-1.324380	-0.254292	0.642127	-0.380258	-0.586426	0.347168	-0.641846	0.057872	0.011913	0.062714	0.567598	-0.223882	-0.191232	-0.768856	2.764148	-34.149340	-107.976958
61218		5.858132	1.249124	6.299067	0.489803	-1.535268	-1.271078	-0.295083	0.527729	-0.463376	-0.588623	0.346436	-0.639404	0.058776	0.012448	0.062817	0.565863	-0.222270	-0.189102	-0.771126	2.766679	-33.835331	-108.298203
61219		5.963390	1.216019	6.300828	0.408264	-1.649803	-1.218942	-0.335028	0.414406	-0.539363	-0.586426	0.355957	-0.639404	0.059797	0.012104	0.062864	0.563776	-0.221145	-0.187253	-0.773426	2.772859	-33.587973	-108.657879
61220		6.035983	1.059129	6.307415	0.216240	-1.690153	-1.185125	-0.367770	0.300952	-0.611342	-0.588135	0.341797	-0.638184	0.060487	0.010522	0.062964	0.561147	-0.220473	-0.185643	-0.775914	2.790976	-33.400158	-109.088014
61221		6.113964	0.891122	6.353647	0.018785	-1.698497	-1.114516	-0.387785	0.195320	-0.659742	-0.591309	0.340576	-0.638672	0.061231	0.008832	0.063460	0.558314	-0.220227	-0.184334	-0.778336	2.813376	-33.274633	-109.535781
61222		6.164936	0.657497	6.394833	-0.234476	-1.656584	-1.064354	-0.384762	0.094454	-0.696166	-0.587402	0.344971	-0.633057	0.061702	0.006483	0.063907	0.555124	-0.220323	-0.183328	-0.780824	2.855290	-33.202934	-110.029817
61223		6.130441	0.478619	6.593247	-0.386413	-1.469760	-0.926026	-0.376333	0.013209	-0.708002	-0.585938	0.346436	-0.627197	0.061325	0.004693	0.065920	0.551931	-0.220702	-0.182617	-0.783144	2.904270	-33.179720	-110.515902
61224		6.275886	0.353263	6.863856	-0.527313	-1.393996	-0.625591	-0.360849	-0.063750	-0.707758	-0.598633	0.345215	-0.626465	0.062749	0.003434	0.068652	0.548659	-0.221312	-0.182180	-0.785369	2.966612	-33.197955	-111.008187
61225		6.339538	0.211919	7.144712	-0.654115	-1.235258	-0.361349	-0.345789	-0.116424	-0.689825	-0.597168	0.344482	-0.631592	0.063361	0.002024	0.071480	0.545435	-0.222126	-0.181920	-0.787443	3.029117	-33.248619	-111.486604
61226		6.336013	-0.008220	7.340831	-0.844168	-1.035480	-0.208103	-0.318365	-0.156657	-0.655869	-0.598633	0.342773	-0.625732	0.063302	-0.000173	0.073458	0.542224	-0.223050	-0.181819	-0.789420	3.099214	-33.321334	-111.960185
61227		6.303737	-0.144739	7.585632	-0.933888	-0.810795	-0.026458	-0.285384	-0.190012	-0.596417	-0.599121	0.333984	-0.624023	0.062961	-0.001527	0.075918	0.539353	-0.224068	-0.181888	-0.791081	3.164182	-33.416085	-112.378315
61228		6.320049	-0.304874	7.823170	-1.058262	-0.615098	0.174286	-0.242051	-0.209587	-0.526074	-0.602051	0.333984	-0.624756	0.063110	-0.003120	0.078302	0.536693	-0.225109	-0.182087	-0.792547	3.231711	-33.522753	-112.763855
61229		6.297542	-0.431158	8.018130	-1.141476	-0.421874	0.319160	-0.184557	-0.213621	-0.440348	-0.603271	0.337891	-0.621338	0.062880	-0.004376	0.080253	0.534521	-0.226086	-0.182440	-0.793655	3.297679	-33.635289	-113.077033
61230		6.209139	-0.410384	8.209721	-1.064774	-0.233129	0.431004	-0.128758	-0.202340	-0.342969	-0.610840	0.336914	-0.617920	0.062001	-0.004157	0.082163	0.532726	-0.226959	-0.182863	-0.794515	3.361704	-33.743488	-113.335777
61231		6.110058	-0.405905	8.372478	-1.001537	-0.048829	0.511578	-0.081208	-0.179666	-0.235328	-0.616699	0.332764	-0.618652	0.061021	-0.004097	0.083781	0.531511	-0.227711	-0.183301	-0.795012	3.409204	-33.842988	-113.507539
61232		5.947785	-0.386970	8.412424	-0.922933	0.109150	0.455274	-0.025696	-0.152350	-0.125731	-0.607422	0.330566	-0.611816	0.059411	-0.003896	0.084170	0.530728	-0.228314	-0.183748	-0.795259	3.448508	-33.929860	-113.616832
61233		5.771729	-0.331470	8.441795	-0.806523	0.254113	0.383957	0.033388	-0.124478	-0.017319	-0.616699	0.329834	-0.613037	0.057664	-0.003334	0.084453	0.530559	-0.228742	-0.184246	-0.795134	3.477104	-34.005150	-113.636469
61234		5.601522	-0.204346	8.498514	-0.621825	0.378957	0.341783	0.094138	-0.088311	0.079754	-0.609131	0.330811	-0.613281	0.055979	-0.002061	0.085009	0.530875	-0.228942	-0.184786	-0.794739	3.504149	-34.062423	-113.588916
61235		5.492715	0.004051	8.560820	-0.381965	0.427131	0.342569	0.148009	-0.057207	0.169584	-0.616455	0.336914	-0.617676	0.054903	0.000024	0.085624	0.531642	-0.228971	-0.185347	-0.794088	3.524590	-34.105791	-113.476754
61236		5.380144	0.331246	8.613206	-0.033115	0.426637	0.339154	0.183451	-0.012211	0.248202	-0.610840	0.333984	-0.615234	0.053792	0.003300	0.086138	0.532721	-0.228806	-0.185824	-0.793300	3.535485	-34.125531	-113.320754
61237		5.191487	0.564233	8.632976	0.247111	0.498482	0.261469	0.212502	0.026422	0.306542	-0.614746	0.334961	-0.614258	0.051918	0.005630	0.086329	0.534181	-0.228457	-0.186261	-0.792317	3.537708	-34.125950	-113.110375
61238		4.906015	0.856420	8.541343	0.594122	0.561102	0.040696	0.231566	0.067773	0.341974	-0.613770	0.335205	-0.617920	0.049074	0.008549	0.085407	0.535751	-0.227933	-0.186603	-0.791326	3.537862	-34.103129	-112.887065
61239		4.685570	1.119456	8.441755	0.890113	0.579998	-0.151307	0.250185	0.103371	0.365330	-0.615479	0.333008	-0.616211	0.046879	0.011175	0.084407	0.537554	-0.227232	-0.186915	-0.790231	3.537281	-34.061622	-112.632921
61240		4.472000	1.375423	8.441609	1.190436	0.650076	-0.256977	0.273213	0.131319	0.360572	-0.611816	0.331299	-0.622559	0.044751	0.013720	0.084405	0.539288	-0.226361	-0.187224	-0.789225	3.553112	-34.002898	-112.396116
61241		4.429573	1.581283	8.506757	1.396290	0.642596	-0.214567	0.292087	0.167009	0.334565	-0.609375	0.335205	-0.606689	0.044340	0.015763	0.085054	0.541070	-0.225264	-0.187563	-0.788238	3.587479	-33.924021	-112.160776
61242		4.330900	1.798135	8.546700	1.621940	0.659861	-0.222592	0.300697	0.207481	0.293483	-0.606201	0.339600	-0.613281	0.043371	0.017916	0.085449	0.542724	-0.223929	-0.187873	-0.787407	3.643936	-33.819138	-111.954678
61243		4.195148	1.940728	8.611950	1.790087	0.743602	-0.232813	0.293184	0.236276	0.250667	-0.603271	0.333984	-0.621094	0.042029	0.019334	0.086098	0.544236	-0.222475	-0.188121	-0.786716	3.710208	-33.697935	-111.774366
61244		4.196588	1.975640	8.700548	1.814875	0.768250	-0.151942	0.280972	0.259367	0.201082	-0.610840	0.336670	-0.618896	0.042059	0.019676	0.086979	0.545545	-0.220897	-0.188313	-0.786208	3.790458	-33.559938	-111.630316
61245		4.195579	2.071003	8.783246	1.894627	0.768762	-0.073248	0.260843	0.286322	0.152934	-0.596680	0.338623	-0.626709	0.042066	0.020628	0.087799	0.546679	-0.219241	-0.188404	-0.785862	3.874710	-33.406789	-111.514879
61246		4.192127	2.122583	8.827743	1.925867	0.761256	-0.029039	0.249290	0.316328	0.093498	-0.611084	0.337646	-0.618164	0.042051	0.021135	0.088237	0.547471	-0.217444	-0.188404	-0.785810	3.976877	-33.232046	-111.457588
61247		4.123445	2.124228	8.778027	1.915272	0.768021	-0.101319	0.225307	0.345303	0.037825	-0.600586	0.330566	-0.616699	0.041382	0.021151	0.087733	0.548166	-0.215543	-0.188319	-0.785870	4.082656	-33.040881	-111.417716
61248		4.095623	2.052662	8.709764	1.818592	0.753884	-0.170499	0.211478	0.364815	-0.023397	-0.599121	0.327881	-0.625732	0.041117	0.020430	0.087044	0.548599	-0.213518	-0.188190	-0.786151	4.205611	-32.833319	-111.422721
61249		4.095622	1.926003	8.678794	1.664820	0.754199	-0.196842	0.199296	0.376729	-0.089113	-0.600342	0.322021	-0.620605	0.041128	0.019155	0.086730	0.548792	-0.211443	-0.188051	-0.786611	4.342049	-32.618919	-111.466688
61250		4.129902	1.824654	8.607616	1.516845	0.696353	-0.237166	0.187196	0.383655	-0.144681	-0.607422	0.334473	-0.629883	0.041477	0.018136	0.086014	0.548731	-0.209292	-0.187902	-0.787264	4.494376	-32.394836	-111.552303
61251		4.247886	1.667925	8.577964	1.294836	0.612329	-0.202471	0.177991	0.388187	-0.196672	-0.599365	0.322754	-0.630127	0.042662	0.016561	0.085712	0.548483	-0.207127	-0.187758	-0.788042	4.655968	-32.168781	-111.666764
61252		4.357414	1.447023	8.504592	1.006962	0.531924	-0.215192	0.174163	0.391351	-0.255548	-0.599121	0.327148	-0.631348	0.043759	0.014340	0.084973	0.547822	-0.204908	-0.187612	-0.789117	4.838967	-31.934396	-111.846838
61253		4.410707	1.273692	8.467725	0.784772	0.500317	-0.225580	0.161919	0.391970	-0.292321	-0.597412	0.323242	-0.631104	0.044291	0.012604	0.084601	0.547178	-0.202680	-0.187491	-0.790167	5.023145	-31.700870	-112.023109
61254		4.498704	1.170381	8.429391	0.616652	0.417481	-0.215395	0.147812	0.379879	-0.309105	-0.596191	0.321533	-0.632813	0.045165	0.011572	0.084217	0.546256	-0.200524	-0.187324	-0.791394	5.207863	-31.469201	-112.237852
61255		4.592817	1.007987	8.477090	0.402237	0.395727	-0.135265	0.122283	0.361782	-0.320777	-0.597656	0.318604	-0.634521	0.046097	0.009954	0.084694	0.545423	-0.198495	-0.187156	-0.792519	5.377645	-31.250447	-112.432417
61256		4.705228	0.886067	8.462412	0.213669	0.314512	-0.097134	0.102498	0.349415	-0.320082	-0.599365	0.309082	-0.632324	0.047214	0.008742	0.084546	0.544527	-0.196533	-0.186938	-0.793675	5.538551	-31.034384	-112.632166
61257		4.789623	0.805837	8.534628	0.084880	0.287085	0.002605	0.086080	0.337029	-0.317088	-0.596191	0.307861	-0.637451	0.048053	0.007946	0.085269	0.543643	-0.194702	-0.186688	-0.794790	5.684734	-30.829025	-112.823602
61258		4.887057	0.752848	8.591036	-0.024347	0.231821	0.096982	0.074950	0.333236	-0.312385	-0.600830	0.312012	-0.631104	0.049025	0.007420	0.085832	0.542729	-0.192885	-0.186394	-0.795926	5.825386	-30.621682	-113.017257
61259		4.925456	0.703431	8.465533	-0.128180	0.130124	0.004985	0.064832	0.339072	-0.306457	-0.593506	0.303711	-0.641113	0.049409	0.006931	0.084574	0.541863	-0.191111	-0.186042	-0.797025	5.953560	-30.414986	-113.199548
61260		4.896222	0.676600	8.366303	-0.184556	0.087401	-0.097546	0.052502	0.334700	-0.303799	-0.597900	0.307861	-0.638916	0.049112	0.006670	0.083583	0.540956	-0.189355	-0.185644	-0.798152	6.076173	-30.206572	-113.385525
61261		4.836147	0.637367	8.260600	-0.240272	0.071226	-0.222632	0.046440	0.333781	-0.296225	-0.601318	0.301758	-0.629639	0.048509	0.006283	0.082527	0.540104	-0.187660	-0.185221	-0.799228	6.188586	-30.002849	-113.559676
61262		4.801942	0.647368	8.222434	-0.251500	0.051467	-0.272240	0.040126	0.326039	-0.294917	-0.600342	0.303711	-0.639160	0.048163	0.006386	0.082147	0.539207	-0.185979	-0.184786	-0.800326	6.299388	-29.799330	-113.738643
61263		4.803685	0.615545	8.175592	-0.313404	0.014679	-0.315528	0.032635	0.317736	-0.295653	-0.594238	0.301025	-0.638428	0.048176	0.006071	0.081680	0.538324	-0.184384	-0.184349	-0.801390	6.402429	-29.604201	-113.911995
61264		4.828018	0.627211	8.219888	-0.333923	-0.009843	-0.265017	0.031434	0.307696	-0.293827	-0.602783	0.295654	-0.645020	0.048416	0.006188	0.082125	0.537402	-0.182800	-0.183925	-0.802468	6.506615	-29.410697	-114.089951
61265		4.929423	0.631102	8.269906	-0.387975	-0.089115	-0.172652	0.032902	0.299511	-0.293232	-0.603027	0.294434	-0.637695	0.049427	0.006225	0.082626	0.536507	-0.181278	-0.183535	-0.803501	6.607978	-29.225555	-114.261632
61266		4.971542	0.620384	8.360649	-0.431836	-0.096464	-0.075867	0.034422	0.302288	-0.291454	-0.592529	0.292969	-0.636719	0.049851	0.006117	0.083532	0.535588	-0.179710	-0.183133	-0.804557	6.711475	-29.034838	-114.436855
61267		5.048330	0.633609	8.335100	-0.476561	-0.197079	-0.061025	0.030131	0.309943	-0.284478	-0.608643	0.296631	-0.647217	0.050621	0.006252	0.083274	0.534730	-0.178159	-0.182694	-0.805572	6.806448	-28.843821	-114.600669
61268		4.999636	0.540100	8.291004	-0.576505	-0.169034	-0.134476	0.032539	0.313604	-0.267686	-0.602783	0.290039	-0.650635	0.050133	0.005320	0.082832	0.533913	-0.176572	-0.182232	-0.806568	6.899212	-28.647923	-114.758003
61269		5.096433	0.536642	8.289769	-0.641476	-0.268315	-0.091663	0.035439	0.313052	-0.260469	-0.606689	0.288574	-0.644775	0.051101	0.005285	0.082819	0.533155	-0.175015	-0.181783	-0.807509	6.988080	-28.456335	-114.904723
61270		5.232762	0.627794	8.372312	-0.627635	-0.394324	0.052504	0.043394	0.321246	-0.251580	-0.600342	0.283936	-0.650391	0.052470	0.006194	0.083640	0.532415	-0.173382	-0.181329	-0.808451	7.080144	-28.256971	-115.049500
61271		5.249748	0.691121	8.357212	-0.603921	-0.463012	0.051453	0.037285	0.336943	-0.244074	-0.598389	0.283691	-0.647217	0.052647	0.006831	0.083485	0.531742	-0.171737	-0.180808	-0.809361	7.162700	-28.052562	-115.182503
61272		5.219272	0.703539	8.220375	-0.619750	-0.534424	-0.084352	0.025696	0.341778	-0.238530	-0.594727	0.278564	-0.653809	0.052341	0.006962	0.082115	0.531056	-0.170081	-0.180216	-0.810292	7.238331	-27.842348	-115.315651
61273		5.249438	0.732759	8.121926	-0.638098	-0.641919	-0.156607	0.017675	0.340638	-0.242333	-0.600830	0.277832	-0.654541	0.052641	0.007257	0.081130	0.530372	-0.168473	-0.179603	-0.811212	7.307613	-27.635652	-115.446115
61274		5.279997	0.763186	8.100940	-0.649205	-0.713796	-0.161006	0.011673	0.338773	-0.244047	-0.598145	0.279541	-0.648926	0.052946	0.007563	0.080920	0.529648	-0.166861	-0.178967	-0.812159	7.375529	-27.426754	-115.581524
61275		5.343004	0.871765	8.055756	-0.602178	-0.851925	-0.163109	0.004361	0.334741	-0.251776	-0.590820	0.284668	-0.666260	0.053576	0.008649	0.080468	0.528904	-0.165303	-0.178321	-0.813103	7.438866	-27.222437	-115.717485
61276		5.355358	0.916395	7.934437	-0.600856	-0.961022	-0.263330	-0.007023	0.333209	-0.256211	-0.597656	0.271484	-0.659180	0.053697	0.009098	0.079255	0.528108	-0.163753	-0.177634	-0.814084	7.498458	-27.015888	-115.859579
61277		5.306505	0.935508	7.797185	-0.599044	-1.017679	-0.408665	-0.021141	0.321330	-0.269570	-0.604004	0.268066	-0.661865	0.053203	0.009292	0.077885	0.527255	-0.162299	-0.176933	-0.815080	7.551526	-26.817603	-116.007041
61278		5.283540	0.943806	7.582473	-0.622650	-1.124938	-0.612296	-0.034887	0.304455	-0.287110	-0.592285	0.274414	-0.659668	0.052964	0.009375	0.075743	0.526285	-0.160913	-0.176235	-0.816133	7.603788	-26.625226	-116.169660
61279		5.327197	0.986039	7.436870	-0.634884	-1.264190	-0.721097	-0.041502	0.277589	-0.306312	-0.591553	0.274658	-0.664795	0.053390	0.009794	0.074293	0.525222	-0.159658	-0.175595	-0.817201	7.655997	-26.448743	-116.343269
61280		5.399134	1.036174	7.398917	-0.642834	-1.377891	-0.721131	-0.057060	0.251457	-0.319459	-0.592773	0.270508	-0.664551	0.054101	0.010296	0.073918	0.524056	-0.158519	-0.174973	-0.818304	7.705413	-26.284200	-116.529315
61281		5.505222	1.107765	7.422349	-0.639449	-1.497515	-0.648934	-0.070673	0.221683	-0.340149	-0.595459	0.262939	-0.657227	0.055153	0.011010	0.074158	0.522778	-0.157537	-0.174385	-0.819436	7.751234	-26.136582	-116.728311
61282		5.685496	1.169137	7.478228	-0.673797	-1.656382	-0.516560	-0.084827	0.199464	-0.365916	-0.599854	0.271973	-0.658936	0.056951	0.011619	0.074721	0.521355	-0.156644	-0.173825	-0.820632	7.798478	-25.998228	-116.946599
61283		5.769298	1.243541	7.446091	-0.664228	-1.781589	-0.503544	-0.107572	0.184495	-0.392583	-0.599121	0.259521	-0.663818	0.057786	0.012362	0.074401	0.519796	-0.155864	-0.173223	-0.821896	7.837855	-25.867353	-117.181186
61284		5.728821	1.249364	7.271683	-0.676837	-1.842511	-0.680072	-0.136779	0.164786	-0.417191	-0.600586	0.260010	-0.661865	0.057374	0.012424	0.072661	0.518093	-0.155205	-0.172583	-0.823229	7.869648	-25.745028	-117.433161
61285		5.778701	1.214307	7.122524	-0.760740	-1.945586	-0.799686	-0.156216	0.131073	-0.441580	-0.597412	0.259033	-0.660400	0.057860	0.012071	0.071178	0.516243	-0.154727	-0.171955	-0.824611	7.895392	-25.640385	-117.702627
61286		5.869529	1.215861	6.988184	-0.827778	-2.086236	-0.883703	-0.169227	0.101857	-0.466449	-0.602295	0.247070	-0.661133	0.058759	0.012081	0.069842	0.514259	-0.154370	-0.171386	-0.826035	7.923430	-25.550346	-117.989483
61287		5.851654	1.193791	6.802144	-0.874359	-2.150141	-1.063487	-0.180340	0.064351	-0.490053	-0.602295	0.258789	-0.660156	0.058568	0.011856	0.067992	0.512127	-0.154186	-0.170866	-0.827501	7.950028	-25.479502	-118.294765
61288		5.869300	1.127999	6.707829	-0.967719	-2.179347	-1.150703	-0.190673	0.019274	-0.508740	-0.597168	0.250732	-0.666016	0.058728	0.011195	0.067062	0.509882	-0.154190	-0.170456	-0.828970	7.979694	-25.433465	-118.613885
61289		5.932253	1.113904	6.658266	-1.029788	-2.242262	-1.171120	-0.195742	-0.027872	-0.526868	-0.591797	0.255127	-0.666748	0.059342	0.011048	0.066580	0.507499	-0.154394	-0.170134	-0.830459	8.010313	-25.411737	-118.950117
61290		6.035997	1.137383	6.622416	-1.074793	-2.342559	-1.155869	-0.201510	-0.079499	-0.543874	-0.596191	0.255371	-0.667236	0.060364	0.011276	0.066237	0.505016	-0.154806	-0.169961	-0.831930	8.046912	-25.419382	-119.298707
61291		6.141999	1.088353	6.637534	-1.180386	-2.386826	-1.102048	-0.218543	-0.129245	-0.547661	-0.599121	0.250977	-0.661377	0.061407	0.010788	0.066403	0.502434	-0.155468	-0.169813	-0.833399	8.074030	-25.453149	-119.657026
61292		6.184936	0.989062	6.623425	-1.303041	-2.366887	-1.106292	-0.229117	-0.187801	-0.551422	-0.609619	0.255859	-0.655762	0.061814	0.009796	0.066281	0.499806	-0.156394	-0.169808	-0.834805	8.101730	-25.522120	-120.019003
61293		6.339871	0.911054	6.678362	-1.449051	-2.408338	-0.996531	-0.231220	-0.234820	-0.552636	-0.601563	0.250977	-0.650146	0.063345	0.009013	0.066848	0.497094	-0.157521	-0.169873	-0.836198	8.127958	-25.615067	-120.390341
61294		6.469657	0.907435	6.775689	-1.512358	-2.439298	-0.848738	-0.232913	-0.270864	-0.546983	-0.610596	0.242432	-0.653809	0.064629	0.008976	0.067834	0.494410	-0.158808	-0.170058	-0.837507	8.157068	-25.732043	-120.756390
61295		6.451258	0.816216	6.718162	-1.597709	-2.380597	-0.913325	-0.242151	-0.319084	-0.534607	-0.603271	0.243652	-0.650635	0.064427	0.008071	0.067275	0.491682	-0.160326	-0.170268	-0.838780	8.177139	-25.873948	-121.124808
61296		6.494868	0.664771	6.696395	-1.757472	-2.321398	-0.925098	-0.241285	-0.364937	-0.512604	-0.612549	0.249268	-0.644043	0.064843	0.006562	0.067074	0.489054	-0.162058	-0.170626	-0.839911	8.198016	-26.047676	-121.477458
61297		6.540737	0.592291	6.748960	-1.838034	-2.262962	-0.858302	-0.230669	-0.412038	-0.485287	-0.621338	0.240479	-0.635742	0.065282	0.005842	0.067617	0.486452	-0.163976	-0.171069	-0.840959	8.217186	-26.246102	-121.824371
61298		6.583079	0.577474	6.791081	-1.863770	-2.228509	-0.793311	-0.217253	-0.454399	-0.449282	-0.619141	0.236328	-0.632813	0.065689	0.005701	0.068054	0.484031	-0.166079	-0.171697	-0.841815	8.240695	-26.476361	-122.145314
61299		6.565138	0.603545	6.838144	-1.821357	-2.162870	-0.744612	-0.205417	-0.492804	-0.409280	-0.610352	0.232910	-0.626709	0.065495	0.005972	0.068537	0.481689	-0.168337	-0.172375	-0.842571	8.259234	-26.726612	-122.452975
61300		6.465459	0.597081	6.812566	-1.772354	-2.050074	-0.800169	-0.191253	-0.531592	-0.369024	-0.628662	0.240967	-0.621582	0.064484	0.005917	0.068292	0.479557	-0.170771	-0.173234	-0.843120	8.281298	-27.007850	-122.730555
61301		6.307182	0.549326	6.792352	-1.726896	-1.869994	-0.883014	-0.173271	-0.575646	-0.327029	-0.629150	0.235107	-0.630615	0.062885	0.005449	0.068100	0.477506	-0.173368	-0.174174	-0.843561	8.301311	-27.311678	-122.995212
61302		6.167586	0.636669	6.897797	-1.553190	-1.708167	-0.829727	-0.145976	-0.625927	-0.288434	-0.624268	0.238037	-0.621338	0.061469	0.006328	0.069166	0.475668	-0.176160	-0.175382	-0.843771	8.333338	-27.653586	-123.230967
61303		5.999531	0.690783	7.040459	-1.386130	-1.489301	-0.762829	-0.121765	-0.676880	-0.262466	-0.625977	0.234863	-0.608887	0.059766	0.006872	0.070603	0.473833	-0.179113	-0.176719	-0.843902	8.371700	-28.019935	-123.465752
61304		5.887254	0.650742	7.178886	-1.324444	-1.262215	-0.687343	-0.078125	-0.724171	-0.240984	-0.623291	0.239014	-0.605469	0.058620	0.006465	0.071999	0.472161	-0.182198	-0.178405	-0.843824	8.436573	-28.421743	-123.681827
61305		5.751091	0.683096	7.365651	-1.180657	-1.025992	-0.574319	-0.034088	-0.761559	-0.232071	-0.628906	0.234131	-0.601318	0.057238	0.006777	0.073874	0.470444	-0.185322	-0.180280	-0.843704	8.523830	-28.838197	-123.907807
61306		5.698063	0.806791	7.614119	-0.988073	-0.859622	-0.358696	-0.000081	-0.791459	-0.220154	-0.635254	0.237793	-0.589111	0.056688	0.008005	0.076366	0.468859	-0.188521	-0.182432	-0.843415	8.634600	-29.279699	-124.119666
61307		5.537382	0.811408	7.763708	-0.858350	-0.601614	-0.299699	0.016291	-0.804936	-0.212620	-0.639160	0.234863	-0.583496	0.055069	0.008049	0.077860	0.467217	-0.191721	-0.184598	-0.843134	8.751442	-29.721679	-124.340984
61308		5.408354	0.729323	7.911273	-0.817008	-0.320697	-0.241921	0.040159	-0.828484	-0.203835	-0.633301	0.226318	-0.579834	0.053763	0.007222	0.079337	0.465690	-0.194991	-0.186987	-0.842703	8.886941	-30.184997	-124.549756
61309		5.362851	0.817894	8.199566	-0.648098	-0.111892	-0.003054	0.071414	-0.829678	-0.202337	-0.645996	0.235107	-0.573730	0.053296	0.008096	0.082220	0.464103	-0.198168	-0.189427	-0.842292	9.038561	-30.640999	-124.771324
61310		5.144532	0.914344	8.463070	-0.390362	0.206757	0.123615	0.069516	-0.822526	-0.204210	-0.642334	0.229248	-0.569580	0.051106	0.009062	0.084845	0.462591	-0.201336	-0.191919	-0.841808	9.196188	-31.099975	-124.984564
61311		4.820623	0.902709	8.667342	-0.181340	0.621032	0.124969	0.058597	-0.808337	-0.207975	-0.652832	0.221436	-0.556641	0.047865	0.008952	0.086870	0.460972	-0.204440	-0.194255	-0.841412	9.346818	-31.542367	-125.212527
61312		4.662231	0.989780	8.990598	0.053023	0.931151	0.320255	0.032201	-0.794321	-0.211655	-0.651123	0.225098	-0.552002	0.046275	0.009834	0.090092	0.459399	-0.207561	-0.196524	-0.840981	9.489536	-31.983508	-125.432874
61313		4.611242	1.023103	9.221583	0.176740	1.143000	0.483413	-0.006029	-0.770652	-0.210988	-0.647705	0.225586	-0.548096	0.045767	0.010185	0.092392	0.457720	-0.210644	-0.198499	-0.840666	9.607409	-32.403387	-125.663285
61314		4.633579	1.408388	9.759800	0.621787	1.288579	0.988228	-0.051128	-0.733816	-0.204539	-0.652100	0.226563	-0.543701	0.045992	0.014062	0.097764	0.456130	-0.213700	-0.200262	-0.840341	9.701121	-32.809820	-125.876890
61315		7.548205	9.148895	18.161537	7.363621	-0.104453	10.590323	-0.769105	-0.551940	-0.031432	-0.653076	0.231201	-0.534668	0.074996	0.092175	0.181469	0.454594	-0.217777	-0.198333	-0.840584	9.306052	-33.123256	-125.963292
