// General information: 
//  MT Manager version: 2021.4.0 
//  XDA version: 2021.4.0 build 6323 rev 112641 built on 2021-09-28
// Device information: 
//  DeviceId: 00B47791
//  ProductCode: MTW2-3A7G6
//  Firmware Version: 4.6.0
//  Hardware Version: 2.0.0
// Device settings: 
//  Filter Profile: human(46.1)
//  Option Flags: Orientation Smoother Disabled, Position/Velocity Smoother Disabled, Continuous Zero Rotation Update Disabled, AHS Disabled, ICC Disabled
// Coordinate system: ENU
PacketCounter	SampleTimeFine	Acc_X	Acc_Y	Acc_Z	FreeAcc_E	FreeAcc_N	FreeAcc_U	Gyr_X	Gyr_Y	Gyr_Z	Mag_X	Mag_Y	Mag_Z	VelInc_X	VelInc_Y	VelInc_Z	Quat_q0	Quat_q1	Quat_q2	Quat_q3	Roll	Pitch	Yaw
64210		9.706318	0.542597	1.432862	0.033694	0.011100	0.013750	-0.006905	-0.012045	-0.008430	-0.916748	-0.214111	-0.583496	0.097063	0.005422	0.014334	0.753137	0.110089	-0.642832	0.086212	20.218247	-80.845409	-4.209326
64211		9.656213	0.573492	1.482305	-0.030849	0.027709	-0.026633	-0.005831	-0.007155	-0.009549	-0.925293	-0.207764	-0.581055	0.096562	0.005731	0.014826	0.753108	0.110047	-0.642877	0.086175	20.220320	-80.851398	-4.217983
64212		9.663137	0.536594	1.463953	-0.003091	-0.002575	-0.024567	-0.008958	-0.002054	-0.008475	-0.916992	-0.212891	-0.579102	0.096631	0.005362	0.014640	0.753098	0.109986	-0.642905	0.086135	20.210118	-80.854733	-4.216107
64213		9.665839	0.541252	1.523010	-0.060904	-0.014506	-0.012838	-0.015067	-0.011069	-0.014658	-0.917725	-0.216553	-0.586914	0.096658	0.005407	0.015235	0.753064	0.109927	-0.642967	0.086047	20.228793	-80.861815	-4.246940
64214		9.674546	0.519868	1.472984	-0.007522	-0.021749	-0.012878	-0.012453	-0.012449	-0.013875	-0.927246	-0.210449	-0.583008	0.096745	0.005193	0.014736	0.753025	0.109877	-0.643031	0.085971	20.247894	-80.869586	-4.276444
64215		9.659003	0.521047	1.432592	0.026676	-0.009676	-0.034173	-0.010511	-0.011692	-0.013180	-0.916992	-0.215820	-0.574951	0.096590	0.005205	0.014331	0.752986	0.109831	-0.643094	0.085903	20.265085	-80.877293	-4.303129
64216		9.689412	0.533561	1.419372	0.039255	0.005186	-0.005422	-0.007421	-0.013209	-0.014038	-0.924316	-0.210449	-0.576172	0.096894	0.005329	0.014200	0.752941	0.109801	-0.643160	0.085842	20.288621	-80.885569	-4.334206
64217		9.711273	0.568561	1.454780	-0.002145	0.028310	0.023352	-0.010910	-0.018718	-0.011971	-0.915527	-0.211914	-0.570557	0.097112	0.005681	0.014557	0.752879	0.109752	-0.643250	0.085773	20.310329	-80.897288	-4.365696
64218		9.709756	0.554465	1.484388	-0.028383	0.006278	0.025470	-0.005320	-0.010869	-0.011400	-0.915527	-0.213867	-0.579590	0.097097	0.005540	0.014849	0.752839	0.109721	-0.643308	0.085730	20.323430	-80.904909	-4.384978
64219		9.712538	0.559167	1.543163	-0.086204	-0.005627	0.037184	-0.005358	-0.007287	-0.011183	-0.924561	-0.200684	-0.582764	0.097125	0.005587	0.015435	0.752811	0.109685	-0.643353	0.085689	20.331552	-80.910641	-4.399485
64220		9.732506	0.518809	1.503961	-0.036082	-0.034033	0.048868	-0.014236	-0.011619	-0.012618	-0.921875	-0.221924	-0.578613	0.097325	0.005183	0.015045	0.752775	0.109621	-0.643417	0.085609	20.343845	-80.918295	-4.423715
64221		9.699511	0.504977	1.455917	0.007327	-0.033974	0.008413	-0.009044	0.000228	-0.015499	-0.925781	-0.214844	-0.583252	0.096996	0.005043	0.014559	0.752774	0.109582	-0.643432	0.085543	20.355023	-80.919129	-4.443456
64222		9.682113	0.491152	1.447672	0.015938	-0.044979	-0.010747	-0.004961	-0.000259	-0.012388	-0.919434	-0.214355	-0.577148	0.096821	0.004906	0.014477	0.752769	0.109554	-0.643449	0.085506	20.359064	-80.920701	-4.452918
64223		9.672438	0.526173	1.405768	0.044192	0.000247	-0.024575	-0.004723	-0.005840	-0.010879	-0.922119	-0.217041	-0.584717	0.096724	0.005257	0.014060	0.752744	0.109519	-0.643488	0.085468	20.364765	-80.925715	-4.464605
64224		9.705506	0.542078	1.452570	-0.000433	0.002222	0.015875	-0.000600	-0.009908	-0.007985	-0.916504	-0.215820	-0.572998	0.097055	0.005417	0.014530	0.752704	0.109495	-0.643541	0.085455	20.368238	-80.933328	-4.471202
64225		9.704634	0.614473	1.467453	-0.035341	0.067733	0.021187	-0.001473	-0.005773	-0.009796	-0.916016	-0.210205	-0.577148	0.097046	0.006140	0.014677	0.752677	0.109470	-0.643580	0.085432	20.372093	-80.938522	-4.479133
64226		9.714340	0.581383	1.508544	-0.064819	0.024532	0.035019	-0.005198	-0.005703	-0.009238	-0.922607	-0.217773	-0.578369	0.097143	0.005810	0.015088	0.752653	0.109430	-0.643619	0.085401	20.371848	-80.943693	-4.484687
64227		9.709999	0.563469	1.479397	-0.033852	0.015400	0.025443	-0.011698	-0.005836	-0.011401	-0.927002	-0.211670	-0.579346	0.097100	0.005630	0.014796	0.752633	0.109371	-0.643661	0.085339	20.375344	-80.948601	-4.498186
64228		9.691069	0.534186	1.501610	-0.050876	-0.018643	0.008416	-0.011698	-0.005836	-0.011400	-0.923584	-0.218750	-0.584473	0.096911	0.005337	0.015019	0.752612	0.109315	-0.643702	0.085279	20.378893	-80.953428	-4.511304
64229		9.682313	0.497601	1.444130	0.011676	-0.037934	-0.010712	-0.009996	0.000502	-0.012215	-0.918945	-0.218262	-0.580811	0.096823	0.004971	0.014441	0.752612	0.109262	-0.643719	0.085223	20.378184	-80.954769	-4.519558
64230		9.629303	0.525048	1.435106	0.004448	-0.008492	-0.062888	-0.005164	0.001744	-0.014108	-0.918457	-0.218506	-0.579346	0.096294	0.005244	0.014350	0.752614	0.109237	-0.643727	0.085180	20.385438	-80.954843	-4.532400
64231		9.635265	0.560133	1.432491	-0.002117	0.025700	-0.055462	-0.007299	-0.008039	-0.011871	-0.926025	-0.213135	-0.574463	0.096352	0.005596	0.014329	0.752584	0.109197	-0.643775	0.085129	20.395830	-80.960839	-4.550330
64232		9.664009	0.557403	1.450364	-0.015186	0.017555	-0.024594	-0.012250	-0.014442	-0.012135	-0.920410	-0.211182	-0.580811	0.096639	0.005569	0.014510	0.752537	0.109146	-0.643848	0.085061	20.412634	-80.970137	-4.577008
64233		9.692799	0.554633	1.467964	-0.028274	0.009427	0.006274	-0.010308	-0.013685	-0.011442	-0.922119	-0.210693	-0.582275	0.096927	0.005542	0.014686	0.752490	0.109096	-0.643919	0.084999	20.427012	-80.979249	-4.600719
64234		9.747440	0.544481	1.445169	0.003407	0.005053	0.056331	-0.012333	-0.007280	-0.011698	-0.916016	-0.206055	-0.583740	0.097474	0.005440	0.014455	0.752467	0.109036	-0.643966	0.084933	20.432549	-80.984710	-4.616630
64235		9.710218	0.571623	1.474828	-0.038690	0.023493	0.025409	-0.012374	-0.003698	-0.011479	-0.923584	-0.210205	-0.581299	0.097102	0.005712	0.014750	0.752453	0.108974	-0.644000	0.084869	20.433321	-80.988451	-4.627762
64236		9.701456	0.535187	1.417328	0.023900	0.004194	0.006320	-0.012102	-0.001832	-0.014841	-0.918701	-0.214600	-0.574463	0.097015	0.005346	0.014174	0.752449	0.108920	-0.644024	0.084794	20.442417	-80.990336	-4.647419
64237		9.698150	0.506452	1.479431	-0.027991	-0.040849	0.010595	-0.002007	0.004103	-0.020051	-0.924561	-0.222656	-0.579102	0.096982	0.005055	0.014792	0.752459	0.108922	-0.644020	0.084736	20.468308	-80.988172	-4.677969
64238		9.654830	0.500162	1.512140	-0.064112	-0.055635	-0.027736	-0.010000	0.000505	-0.012207	-0.926270	-0.210938	-0.576172	0.096549	0.004996	0.015121	0.752458	0.108875	-0.644035	0.084685	20.468324	-80.989393	-4.686032
64239		9.652016	0.497706	1.452479	-0.007500	-0.041774	-0.039406	-0.001876	-0.001763	-0.013240	-0.926025	-0.211914	-0.575195	0.096520	0.004971	0.014526	0.752446	0.108857	-0.644057	0.084649	20.478648	-80.991742	-4.700745
64240		9.652049	0.498814	1.451883	-0.008113	-0.040764	-0.039402	-0.002062	-0.010790	-0.010314	-0.911865	-0.214111	-0.577881	0.096520	0.004983	0.014524	0.752404	0.108834	-0.644114	0.084622	20.490234	-80.999528	-4.716551
64241		9.686793	0.529850	1.467227	-0.027164	-0.015665	-0.001139	-0.004909	-0.014859	-0.007946	-0.922119	-0.211426	-0.576172	0.096867	0.005295	0.014679	0.752349	0.108793	-0.644189	0.084590	20.497493	-81.009966	-4.729920
64242		9.694461	0.579641	1.432693	-0.008054	0.041565	0.004103	-0.004952	-0.011278	-0.007727	-0.917969	-0.212646	-0.578857	0.096944	0.005793	0.014332	0.752306	0.108752	-0.644249	0.084562	20.499427	-81.018375	-4.737548
64243		9.687520	0.617657	1.450131	-0.036977	0.073907	0.001873	-0.009076	-0.002339	-0.003150	-0.914551	-0.218018	-0.575439	0.096875	0.006176	0.014502	0.752292	0.108675	-0.644282	0.084541	20.472136	-81.023056	-4.718355
64244		9.584221	0.613993	1.385068	0.009161	0.090141	-0.109880	-0.018829	-0.002542	-0.006384	-0.924316	-0.209473	-0.578613	0.095842	0.006138	0.013851	0.752285	0.108576	-0.644315	0.084480	20.450799	-81.027010	-4.710223
64245		9.574281	0.588551	1.237046	0.154613	0.106617	-0.142721	-0.019665	-0.001986	-0.008409	-0.920410	-0.214844	-0.583984	0.095743	0.005883	0.012371	0.752280	0.108476	-0.644348	0.084406	20.434840	-81.030446	-4.708644
64246		9.698081	0.638327	1.247756	0.149380	0.150492	-0.016149	-0.015289	-0.011635	-0.004019	-0.921387	-0.214600	-0.578125	0.096980	0.006382	0.012483	0.752240	0.108383	-0.644416	0.084358	20.418438	-81.039771	-4.703859
64247		9.880308	0.608804	1.280558	0.153342	0.111680	0.167040	-0.022235	0.000683	-0.001936	-0.910889	-0.202148	-0.583496	0.098803	0.006089	0.012805	0.752242	0.108251	-0.644443	0.084301	20.375553	-81.043066	-4.676513
64248		9.882373	0.525676	1.357108	0.104119	0.012339	0.175725	-0.002062	0.033333	-0.002075	-0.921143	-0.216064	-0.582031	0.098826	0.005256	0.013555	0.752340	0.108181	-0.644337	0.084326	20.302855	-81.028573	-4.607376
64249		9.907436	0.551542	1.547942	-0.077445	-0.013024	0.229795	0.008076	0.040565	-0.000037	-0.914307	-0.206787	-0.583984	0.099078	0.005515	0.015460	0.752454	0.108140	-0.644202	0.084395	20.220819	-81.010798	-4.522809
64250		10.029835	0.487154	1.698681	-0.182667	-0.115442	0.369343	-0.002229	0.013276	0.005492	-0.926514	-0.210205	-0.582764	0.100299	0.004874	0.016980	0.752484	0.108055	-0.644176	0.084438	20.148182	-81.008528	-4.453557
64251		10.052215	0.448933	1.722029	-0.189885	-0.156665	0.392868	-0.002606	0.029600	0.004652	-0.914551	-0.210938	-0.573730	0.100525	0.004492	0.017205	0.752566	0.107964	-0.644089	0.084485	20.058200	-80.997540	-4.367137
64252		9.866482	0.474296	1.634401	-0.137772	-0.103078	0.198011	0.000034	0.079804	0.008826	-0.910400	-0.219971	-0.582031	0.098671	0.004747	0.016305	0.752806	0.107849	-0.643814	0.084585	19.893961	-80.960203	-4.203688
64253		9.628398	0.514322	1.631049	-0.175098	-0.057018	-0.035317	0.005007	0.093676	0.004258	-0.919189	-0.202637	-0.582275	0.096291	0.005145	0.016266	0.753090	0.107760	-0.643483	0.084689	19.732633	-80.914531	-4.040588
64254		9.559922	0.615258	1.666320	-0.238812	0.035000	-0.092141	0.001611	0.081007	0.005889	-0.915771	-0.215332	-0.585205	0.095606	0.006155	0.016625	0.753336	0.107661	-0.643200	0.084784	19.580577	-80.875710	-3.888506
64255		9.528329	0.603391	1.685886	-0.252551	0.022062	-0.120883	-0.002428	0.077924	0.002572	-0.916992	-0.211914	-0.582275	0.095290	0.006035	0.016822	0.753574	0.107556	-0.642930	0.084849	19.442313	-80.838087	-3.753046
64256		9.568675	0.595865	1.691788	-0.243285	0.015878	-0.080405	0.003125	0.073462	0.000562	-0.910645	-0.211182	-0.585449	0.095693	0.005959	0.016883	0.753796	0.107485	-0.642671	0.084926	19.320552	-80.802227	-3.630489
64257		9.646498	0.562329	1.667363	-0.192638	-0.007674	-0.008909	-0.002499	0.069197	0.000206	-0.904541	-0.214844	-0.579590	0.096471	0.005624	0.016640	0.754006	0.107391	-0.642433	0.084977	19.202372	-80.768784	-3.515389
64258		9.617873	0.494727	1.639619	-0.146453	-0.062184	-0.044819	0.008391	0.078178	-0.002702	-0.909912	-0.206543	-0.586426	0.096185	0.004945	0.016359	0.754242	0.107348	-0.642152	0.085061	19.090948	-80.729629	-3.400181
64259		9.542710	0.476522	1.691661	-0.195680	-0.090962	-0.111887	0.028604	0.090082	-0.013021	-0.917725	-0.205811	-0.590332	0.095435	0.004757	0.016874	0.754509	0.107405	-0.641815	0.085174	19.012231	-80.682334	-3.306985
64260		9.431739	0.255360	1.757193	-0.209283	-0.319037	-0.222846	0.047389	0.080306	-0.009161	-0.916748	-0.212891	-0.589844	0.094325	0.002545	0.017535	0.754733	0.107524	-0.641507	0.085356	18.942735	-80.640814	-3.212386
64261		9.463986	0.114936	1.809490	-0.211252	-0.468981	-0.190321	0.093067	0.027629	-0.022411	-0.914063	-0.216797	-0.585205	0.094642	0.001130	0.018082	0.754769	0.107881	-0.641372	0.085606	19.003446	-80.625588	-3.223048
64262		9.616876	-0.005172	1.932730	-0.269281	-0.621833	-0.026953	0.133251	0.006709	-0.013875	-0.914795	-0.216797	-0.582520	0.096169	-0.000071	0.019324	0.754712	0.108376	-0.641301	0.086010	19.083076	-80.623083	-3.228880
64263		9.676357	-0.053932	1.834775	-0.152207	-0.644671	0.013931	0.170013	0.012434	-0.002888	-0.904053	-0.209961	-0.591797	0.096765	-0.000556	0.018341	0.754647	0.108967	-0.641201	0.086573	19.140902	-80.619741	-3.191935
64264		9.759191	0.042608	1.636600	0.024119	-0.498861	0.070260	0.202777	0.006671	0.023934	-0.915039	-0.217041	-0.584229	0.097592	0.000421	0.016363	0.754536	0.109601	-0.641120	0.087341	19.136020	-80.624303	-3.072023
64265		9.835344	0.162922	1.546539	0.089194	-0.357463	0.138021	0.220779	0.013832	0.050244	-0.913086	-0.213135	-0.585693	0.098354	0.001637	0.015460	0.754424	0.110212	-0.641020	0.088267	19.047043	-80.630159	-2.856810
64266		9.797574	0.431794	1.562228	-0.004109	-0.099362	0.117548	0.255933	0.059145	0.072273	-0.904297	-0.215088	-0.591553	0.097979	0.004333	0.015599	0.754427	0.110868	-0.640743	0.089417	18.854779	-80.615310	-2.516045
64267		9.552743	0.664152	1.570425	-0.112243	0.129855	-0.110483	0.242005	0.091541	0.098376	-0.905029	-0.215820	-0.586914	0.095531	0.006670	0.015669	0.754529	0.111371	-0.640365	0.090636	18.534279	-80.587587	-2.053814
64268		9.259670	0.792720	1.506836	-0.132688	0.281127	-0.402915	0.249448	0.065924	0.106703	-0.905762	-0.221191	-0.587646	0.092597	0.007958	0.015048	0.754541	0.111888	-0.640081	0.091897	18.220251	-80.574518	-1.593583
64269		9.301582	1.085703	1.594199	-0.291878	0.543517	-0.333286	0.251586	0.016971	0.101132	-0.908691	-0.218994	-0.592041	0.093012	0.010884	0.015948	0.754394	0.112451	-0.639980	0.093115	17.978982	-80.587115	-1.206074
64270		9.370685	1.202961	1.731136	-0.446506	0.621782	-0.238362	0.208304	0.016068	0.095411	-0.912598	-0.216797	-0.592529	0.093702	0.012056	0.017316	0.754272	0.112874	-0.639894	0.094175	17.732087	-80.598573	-0.837461
64271		9.238307	1.182257	1.677061	-0.413298	0.623664	-0.378876	0.175191	0.032035	0.079732	-0.914307	-0.220947	-0.590820	0.092381	0.011845	0.016766	0.754224	0.113211	-0.639757	0.095076	17.500489	-80.598697	-0.504141
64272		9.115212	1.287522	1.662815	-0.451737	0.733568	-0.497777	0.168125	0.021914	0.069668	-0.912109	-0.220703	-0.588623	0.091149	0.012893	0.016629	0.754154	0.113559	-0.639654	0.095912	17.308442	-80.602116	-0.214704
64273		9.154946	1.333285	1.705083	-0.502394	0.769018	-0.450305	0.128928	-0.028216	0.073218	-0.912109	-0.220459	-0.587402	0.091542	0.013355	0.017072	0.753942	0.113771	-0.639761	0.096606	17.133082	-80.633733	0.034730
64274		9.249709	1.216843	1.634789	-0.395230	0.682791	-0.374046	0.104478	-0.077446	0.087283	-0.915527	-0.212158	-0.580566	0.092485	0.012200	0.016390	0.753580	0.113873	-0.640072	0.097250	16.945636	-80.694277	0.282721
64275		9.372301	1.185802	1.413028	-0.168991	0.723622	-0.289526	0.099457	-0.094805	0.091863	-0.913330	-0.213135	-0.586670	0.093711	0.011894	0.014181	0.753162	0.113946	-0.640455	0.097882	16.754233	-80.765241	0.531221
64276		9.466684	1.138965	1.352808	-0.096055	0.702019	-0.208346	0.101093	-0.095808	0.096028	-0.920410	-0.216553	-0.587158	0.094655	0.011428	0.013579	0.752738	0.114012	-0.640842	0.098534	16.546826	-80.837132	0.796801
64277		9.578874	1.089779	1.482131	-0.198303	0.621131	-0.080575	0.092278	-0.099153	0.074976	-0.916748	-0.214600	-0.582031	0.095777	0.010927	0.014874	0.752317	0.114114	-0.641234	0.099077	16.406686	-80.907479	0.989114
64278		9.689059	1.090982	1.747646	-0.443351	0.546187	0.067974	0.096188	-0.088023	0.064397	-0.927002	-0.208008	-0.582520	0.096879	0.010933	0.017524	0.751935	0.114260	-0.641574	0.099600	16.291686	-80.969714	1.158406
64279		9.716066	1.181560	2.029101	-0.742185	0.550075	0.140294	0.082649	-0.087413	0.047289	-0.916016	-0.208008	-0.582520	0.097149	0.011830	0.020338	0.751571	0.114409	-0.641911	0.100015	16.225870	-81.029046	1.269815
64280		9.858193	1.435358	2.198871	-0.968078	0.741726	0.316079	0.068461	-0.128113	0.038682	-0.915039	-0.216309	-0.582520	0.098565	0.014365	0.022057	0.751089	0.114549	-0.642401	0.100326	16.221665	-81.109208	1.310201
64281		10.409346	1.873099	2.317554	-1.144188	1.123394	0.895385	0.073989	-0.202710	0.042422	-0.911865	-0.211670	-0.579102	0.104066	0.018744	0.023288	0.750360	0.114739	-0.643171	0.100628	16.284946	-81.231177	1.285891
64282		10.635706	2.134520	2.201219	-1.101679	1.408040	1.110840	-0.011341	-0.199950	0.070867	-0.917725	-0.215576	-0.566406	0.106327	0.021384	0.022117	0.749676	0.114516	-0.643987	0.100764	16.194667	-81.355827	1.367569
64283		10.080165	1.600034	1.711952	-0.580584	1.050342	0.466433	-0.162785	-0.069659	0.084666	-0.910400	-0.211914	-0.571289	0.100789	0.016057	0.017142	0.749488	0.113614	-0.644400	0.100539	15.827188	-81.411212	1.641741
64284		9.395144	0.934148	1.239746	-0.046016	0.561493	-0.306850	-0.160840	-0.039323	0.029537	-0.924072	-0.205078	-0.576660	0.093948	0.009365	0.012408	0.749425	0.112886	-0.644665	0.100132	15.629024	-81.440878	1.746283
64285		9.190042	0.532209	1.249102	0.026646	0.174496	-0.524565	-0.128672	-0.114951	-0.041932	-0.930420	-0.209229	-0.570801	0.091894	0.005311	0.012540	0.749134	0.112543	-0.645158	0.099517	15.788784	-81.501387	1.507021
64286		9.300348	0.224132	1.139573	0.226920	-0.093392	-0.443316	-0.185068	-0.140838	-0.094355	-0.922363	-0.213379	-0.576904	0.092996	0.002208	0.011459	0.748817	0.112170	-0.645745	0.098508	16.141484	-81.567573	1.040072
64287		9.547369	-0.051336	0.668389	0.779015	-0.227673	-0.276288	-0.197455	-0.124069	-0.122588	-0.926270	-0.213379	-0.578857	0.095469	-0.000565	0.006744	0.748574	0.111834	-0.646259	0.097363	16.579985	-81.619671	0.479280
64288		9.839874	-0.214738	0.115677	1.383790	-0.235523	-0.070396	-0.161347	-0.109112	-0.143563	-0.923096	-0.208984	-0.574219	0.098397	-0.002217	0.001212	0.748369	0.111696	-0.646685	0.096266	17.107468	-81.659047	-0.150077
64289		10.041037	-0.454335	-0.153944	1.731884	-0.402697	0.081297	-0.103526	-0.076553	-0.165377	-0.916016	-0.208496	-0.566406	0.100407	-0.004627	-0.001499	0.748245	0.111826	-0.646950	0.095291	17.715317	-81.676319	-0.827526
64290		10.141276	-0.522876	-0.136534	1.749956	-0.491299	0.178998	0.030515	-0.007299	-0.193898	-0.924561	-0.208984	-0.574707	0.101408	-0.005327	-0.001362	0.748284	0.112518	-0.646875	0.094681	18.423286	-81.649448	-1.528398
64291		10.185884	-0.180178	0.207474	1.339313	-0.281246	0.284582	0.196862	0.044379	-0.196420	-0.923828	-0.210449	-0.574707	0.101857	-0.001904	0.002050	0.748395	0.113815	-0.646526	0.094629	19.164875	-81.593020	-2.167144
64292		10.202678	0.219089	0.731082	0.741200	-0.068868	0.391379	0.229900	0.063694	-0.164571	-0.914795	-0.205566	-0.566406	0.102031	0.002099	0.007281	0.748536	0.115122	-0.646105	0.094813	19.775286	-81.530947	-2.654415
64293		10.253421	0.439577	1.136640	0.309974	0.009676	0.508244	0.176653	0.049948	-0.100799	-0.918457	-0.222412	-0.575195	0.102539	0.004334	0.011345	0.748629	0.116031	-0.645798	0.095056	20.136806	-81.488343	-2.920772
64294		10.290288	0.594785	1.456170	-0.026436	0.057407	0.596935	0.076257	0.036026	-0.024414	-0.924072	-0.220947	-0.582764	0.102906	0.005930	0.014545	0.748701	0.116324	-0.645634	0.095252	20.182869	-81.467994	-2.926434
64295		10.254816	0.499771	1.337140	0.108538	0.005116	0.540435	-0.067923	-0.013179	0.055101	-0.914551	-0.220947	-0.574463	0.102546	0.005031	0.013376	0.748658	0.115844	-0.645769	0.095253	19.925551	-81.489929	-2.708763
64296		10.220556	0.395491	0.834806	0.603776	0.063888	0.431552	-0.136118	-0.025741	0.101274	-0.921875	-0.219727	-0.582764	0.102202	0.004012	0.008358	0.748594	0.114967	-0.646009	0.095199	19.477301	-81.527066	-2.337394
64297		9.819305	0.405303	0.314182	1.031296	0.242062	-0.037231	-0.137362	0.047246	0.118871	-0.923584	-0.201416	-0.573975	0.098191	0.004114	0.003116	0.748755	0.113992	-0.645987	0.095248	18.868698	-81.527801	-1.804814
64298		9.552743	0.424629	0.321300	0.981658	0.272972	-0.299525	-0.104256	0.068996	0.100774	-0.923584	-0.213135	-0.577393	0.095526	0.004296	0.003178	0.748977	0.113188	-0.645857	0.095347	18.318486	-81.512447	-1.312371
64299		9.449805	0.401619	0.733575	0.584951	0.141765	-0.345059	-0.096544	0.034120	0.078401	-0.922363	-0.204102	-0.578857	0.094498	0.004057	0.007318	0.749091	0.112503	-0.645841	0.095370	17.897582	-81.511666	-0.945902
64300		9.443395	0.312316	0.983552	0.372855	-0.007661	-0.320399	-0.176417	0.009671	0.055803	-0.933105	-0.206299	-0.575928	0.094434	0.003158	0.009828	0.749182	0.111603	-0.645941	0.095035	17.542173	-81.519796	-0.692006
64301		9.449442	0.206030	0.861002	0.517607	-0.067137	-0.336227	-0.268382	-0.026265	0.030421	-0.919189	-0.203125	-0.577393	0.094493	0.002086	0.008620	0.749218	0.110458	-0.646205	0.094289	17.267755	-81.543141	-0.573197
64302		9.552208	0.035821	0.575000	0.846950	-0.144872	-0.281776	-0.323857	-0.057066	-0.000254	-0.925537	-0.204834	-0.581787	0.095520	0.000367	0.005777	0.749199	0.109218	-0.646592	0.093231	17.109069	-81.578036	-0.603542
64303		9.520279	-0.098317	0.372107	1.067526	-0.216116	-0.347091	-0.322973	-0.034114	-0.032384	-0.923096	-0.206543	-0.580078	0.095202	-0.000993	0.003739	0.749265	0.108075	-0.646873	0.092068	17.043180	-81.595013	-0.727166
64304		9.390167	-0.152216	0.241248	1.186564	-0.233578	-0.496352	-0.263874	0.008938	-0.058362	-0.919922	-0.194580	-0.579102	0.093901	-0.001546	0.002410	0.749450	0.107218	-0.646950	0.091022	17.059045	-81.583934	-0.898979
64305		9.146042	-0.152960	0.265425	1.130299	-0.245021	-0.734895	-0.184270	0.025450	-0.084513	-0.917725	-0.198486	-0.574463	0.091460	-0.001566	0.002644	0.749656	0.106735	-0.646914	0.090144	17.197315	-81.559484	-1.148657
64306		8.969213	-0.193131	0.367950	1.019709	-0.318263	-0.897624	-0.154301	-0.013513	-0.105407	-0.929932	-0.195068	-0.579346	0.089691	-0.001976	0.003687	0.749729	0.106449	-0.646999	0.089264	17.473582	-81.552613	-1.520571
64307		9.099670	-0.417207	0.371027	1.093248	-0.544928	-0.778112	-0.156123	-0.102854	-0.118428	-0.918701	-0.197510	-0.578369	0.090992	-0.004223	0.003760	0.749518	0.106239	-0.647412	0.088281	17.902080	-81.591940	-2.047342
64308		9.338067	-0.651872	0.231159	1.313815	-0.746233	-0.571753	-0.145148	-0.169366	-0.113367	-0.916748	-0.198730	-0.572754	0.093375	-0.006570	0.002395	0.749083	0.106082	-0.648071	0.087317	18.404683	-81.667761	-2.642658
64309		9.609559	-0.844270	0.013102	1.598829	-0.887549	-0.341016	-0.090480	-0.159573	-0.112564	-0.923340	-0.202637	-0.583252	0.096091	-0.008497	0.000212	0.748650	0.106123	-0.648669	0.086539	18.933145	-81.737624	-3.232266
64310		9.769163	-0.930907	-0.234426	1.868697	-0.918438	-0.219851	-0.036060	-0.135764	-0.105724	-0.918457	-0.194824	-0.568359	0.097688	-0.009361	-0.002276	0.748261	0.106337	-0.649158	0.085976	19.445453	-81.795087	-3.773798
64311		9.721367	-1.052212	-0.484915	2.124247	-0.979102	-0.306049	0.049824	-0.098710	-0.109302	-0.931152	-0.200195	-0.575684	0.097210	-0.010574	-0.004804	0.747948	0.106866	-0.649469	0.085698	19.977034	-81.831193	-4.285176
64312		9.533663	-1.133060	-0.503774	2.134151	-1.060464	-0.498765	0.173519	-0.037465	-0.120527	-0.927002	-0.202148	-0.573486	0.095331	-0.011384	-0.005030	0.747771	0.107868	-0.649491	0.085812	20.540354	-81.831548	-4.757006
64313		9.262185	-1.127692	-0.496737	2.090635	-1.063275	-0.768065	0.281488	0.005273	-0.134342	-0.923828	-0.205078	-0.565918	0.092614	-0.011332	-0.004986	0.747680	0.109300	-0.649299	0.086247	21.155664	-81.805418	-5.218869
64314		9.004752	-1.111168	-0.540178	2.095178	-1.041321	-1.029868	0.352882	-0.036893	-0.145343	-0.918945	-0.211182	-0.576172	0.090040	-0.011168	-0.005405	0.747415	0.111053	-0.649226	0.086852	21.911064	-81.798803	-5.780809
64315		8.989676	-1.013262	-0.597841	2.121191	-0.942200	-1.048488	0.416309	-0.108157	-0.165691	-0.920166	-0.212891	-0.568604	0.089892	-0.010195	-0.005951	0.746890	0.113139	-0.649377	0.087545	22.885651	-81.824148	-6.527615
64316		9.014737	-0.936501	-0.629455	2.131149	-0.872966	-1.024351	0.482802	-0.108208	-0.178962	-0.919189	-0.219238	-0.566650	0.090142	-0.009431	-0.006268	0.746328	0.115516	-0.649489	0.088405	23.952148	-81.844689	-7.328567
64317		8.968044	-0.863213	-0.646289	2.118400	-0.810886	-1.069492	0.530079	-0.101684	-0.199742	-0.921387	-0.209717	-0.559326	0.089675	-0.008705	-0.006440	0.745764	0.118133	-0.649538	0.089343	25.114682	-81.854579	-8.199315
64318		8.929359	-0.812851	-0.711365	2.159555	-0.757272	-1.114236	0.546592	-0.094710	-0.207352	-0.923340	-0.226563	-0.558105	0.089288	-0.008202	-0.007094	0.745209	0.120831	-0.649545	0.090310	26.303537	-81.856666	-9.087105
64319		8.874296	-0.714944	-0.678191	2.092892	-0.686750	-1.159805	0.568143	-0.063526	-0.215656	-0.917480	-0.231689	-0.555664	0.088737	-0.007226	-0.006774	0.744740	0.123623	-0.649413	0.091333	27.477476	-81.837847	-9.947348
64320		8.873519	-0.627195	-0.665653	2.058181	-0.621283	-1.155108	0.575154	-0.037531	-0.225441	-0.921387	-0.225830	-0.558838	0.088729	-0.006353	-0.006658	0.744348	0.126460	-0.649172	0.092361	28.635493	-81.801032	-10.787208
64321		8.908240	-0.592954	-0.618425	2.013314	-0.618968	-1.114745	0.592573	-0.021983	-0.234027	-0.925537	-0.242920	-0.550537	0.089076	-0.006015	-0.006192	0.743993	0.129380	-0.648851	0.093420	29.793181	-81.751369	-11.617042
64322		8.868482	-0.616527	-0.427482	1.842793	-0.715499	-1.134844	0.608816	0.008407	-0.244143	-0.918701	-0.250000	-0.551514	0.088677	-0.006260	-0.004298	0.743722	0.132378	-0.648399	0.094513	30.920799	-81.681745	-12.407195
64323		8.803273	-0.575713	-0.057672	1.484804	-0.809533	-1.154030	0.644452	0.047126	-0.252787	-0.916992	-0.252930	-0.551758	0.088025	-0.005866	-0.000616	0.743551	0.135517	-0.647771	0.095714	32.002088	-81.588081	-13.130063
64324		9.044319	-0.116478	0.322216	1.028568	-0.526903	-0.835969	0.730115	0.017414	-0.250493	-0.920898	-0.258057	-0.551514	0.090442	-0.001290	0.003210	0.743212	0.138981	-0.647206	0.097182	33.167010	-81.507725	-13.887660
64325		9.318655	0.224205	0.980487	0.350435	-0.457390	-0.457641	0.691147	0.009170	-0.209452	-0.919434	-0.266846	-0.546631	0.093189	0.002111	0.009808	0.742846	0.142167	-0.646710	0.098666	34.179381	-81.441937	-14.514086
64326		9.821237	0.697492	2.695576	-1.321253	-0.641431	0.289394	0.763981	0.098464	-0.184623	-0.916992	-0.280518	-0.547607	0.098232	0.006781	0.026934	0.742691	0.145499	-0.645856	0.100543	34.951597	-81.341004	-14.855249
64327		12.612038	3.513758	5.008137	-4.014484	1.033953	3.577822	0.836493	-0.090612	-0.230210	-0.909668	-0.270020	-0.542236	0.126138	0.034782	0.050284	0.741886	0.149340	-0.645622	0.102343	36.303100	-81.311630	-15.740735
64328		16.355436	7.690024	7.369743	-7.183149	3.890455	7.913404	0.528478	-0.651074	0.322150	-0.911377	-0.281006	-0.529541	0.163189	0.076967	0.074432	0.739203	0.150540	-0.648026	0.104780	37.079615	-81.726602	-16.222487
64329		12.246001	4.133910	5.062540	-4.474019	1.621301	3.227078	-0.939557	-0.298568	0.847347	-0.917725	-0.261963	-0.530273	0.122207	0.042095	0.050611	0.738470	0.144421	-0.650269	0.104660	34.434036	-82.154462	-14.097401
64330		8.199599	0.520489	0.727671	0.205084	-0.009979	-1.567011	-0.939727	-0.388457	0.803716	-0.926514	-0.250977	-0.531982	0.081960	0.005569	0.007410	0.737435	0.138487	-0.652786	0.104312	31.891899	-82.597979	-12.078545
64331		8.517739	-1.229978	-0.162109	1.576012	-1.330828	-1.455963	-0.988100	-1.207409	0.496306	-0.933594	-0.239014	-0.517578	0.085215	-0.012094	-0.001047	0.733881	0.133795	-0.658098	0.102097	32.316281	-83.340150	-13.079716
64332		11.161072	-3.819556	0.022048	2.383385	-3.921477	1.054552	-0.823356	-1.564815	0.299410	-0.941162	-0.234375	-0.506104	0.111661	-0.038025	0.001251	0.729085	0.130529	-0.664458	0.099458	35.048819	-84.187096	-16.305854
64333		12.675947	-5.332708	-0.779183	3.597959	-5.179507	2.432727	-0.308994	-1.010562	-0.006118	-0.949707	-0.234619	-0.491699	0.126795	-0.053342	-0.007069	0.725909	0.129869	-0.668305	0.097767	38.403478	-84.654637	-19.857472
64334		12.386613	-4.855333	-1.111096	3.673058	-4.640474	2.154418	0.544479	-0.141223	-0.151540	-0.946533	-0.246338	-0.490479	0.123837	-0.048617	-0.011156	0.725138	0.132369	-0.668475	0.098968	39.943530	-84.668462	-21.093453
64335		11.094765	-3.010796	0.415307	1.574833	-3.349301	1.079178	1.141224	0.388100	-0.148991	-0.949463	-0.241455	-0.493896	0.110933	-0.030213	0.003766	0.725727	0.136756	-0.666415	0.102516	39.749658	-84.448572	-20.245018
64336		10.520322	-1.113039	2.712356	-1.191264	-2.324443	0.791573	1.493383	0.330633	-0.097361	-0.932861	-0.249512	-0.494141	0.105242	-0.011383	0.026865	0.725819	0.142275	-0.664389	0.107386	39.775510	-84.273241	-19.413549
64337		10.840466	1.657679	5.180603	-4.382925	-0.649053	1.477600	1.414288	0.119146	0.069824	-0.935059	-0.258789	-0.492676	0.108430	0.016248	0.051857	0.725140	0.147054	-0.663254	0.112439	39.806828	-84.251923	-18.633766
64338		10.052260	3.169884	5.120018	-4.948203	0.778373	0.780709	0.583107	0.005715	0.426887	-0.942139	-0.253662	-0.491455	0.100456	0.031764	0.051290	0.724470	0.147696	-0.663238	0.115947	38.163892	-84.408933	-16.649744
64339		9.197469	1.856523	2.417203	-2.082258	0.595726	-0.368536	0.159822	-0.334079	0.553920	-0.949463	-0.248535	-0.490479	0.091882	0.018800	0.024341	0.722906	0.146577	-0.664785	0.118255	36.784408	-84.759348	-15.175246
64340		9.853591	1.693999	0.629038	-0.369934	1.114180	0.136176	0.549654	-0.517344	0.453850	-0.950684	-0.262695	-0.483887	0.098480	0.017146	0.006592	0.720493	0.147304	-0.666680	0.121364	36.697892	-85.158070	-14.775177
64341		10.662885	2.366887	0.616814	-0.600280	1.740170	0.971145	0.712816	-0.164715	0.292142	-0.946289	-0.251953	-0.476807	0.106589	0.023802	0.006341	0.719221	0.148943	-0.667075	0.124689	36.109959	-85.338687	-13.778540
64342		10.296775	2.522870	1.235388	-1.283417	1.670661	0.650407	0.594594	0.155901	0.227750	-0.954346	-0.259766	-0.477051	0.102949	0.025309	0.012349	0.719137	0.150174	-0.666333	0.127629	34.458414	-85.346446	-11.782128
64343		9.633558	2.161999	1.496299	-1.441627	1.264296	-0.012594	0.374628	0.135935	0.205516	-0.946045	-0.253662	-0.470459	0.096323	0.021691	0.014938	0.719161	0.150696	-0.665782	0.129737	32.884072	-85.352038	-9.990374
64344		9.330450	1.913915	1.306447	-1.207054	1.125152	-0.341458	0.269057	-0.126020	0.175012	-0.946289	-0.261475	-0.480957	0.093279	0.019203	0.013149	0.718408	0.151112	-0.666216	0.131190	32.416370	-85.472180	-9.368954
64345		9.599611	2.100974	1.015543	-1.021594	1.409821	-0.088152	0.231025	-0.311380	0.144028	-0.951660	-0.260498	-0.473145	0.095965	0.021067	0.010329	0.717086	0.151612	-0.667315	0.132259	32.836191	-85.671979	-9.660410
64346		9.929623	2.252977	0.849305	-0.938895	1.608373	0.233514	0.224874	-0.250619	0.107325	-0.958008	-0.252197	-0.465820	0.099273	0.022573	0.008643	0.715992	0.152176	-0.668168	0.133227	33.266157	-85.830924	-9.964796
64347		10.067578	2.358219	0.949499	-1.087767	1.659966	0.379472	0.212465	-0.138152	0.042260	-0.950684	-0.257324	-0.457764	0.100664	0.023593	0.009590	0.715325	0.152834	-0.668577	0.134001	33.652631	-85.915422	-10.233364
64348		10.230872	2.655490	1.093756	-1.345654	1.863745	0.562007	0.188124	-0.183330	-0.043812	-0.952637	-0.248535	-0.462646	0.102304	0.026522	0.011056	0.714581	0.153725	-0.669098	0.134355	34.828836	-85.993489	-11.306995
64349		10.601684	2.776637	0.912738	-1.225295	2.024186	0.926947	0.097771	-0.269550	-0.091514	-0.957764	-0.259033	-0.461182	0.106017	0.027713	0.009284	0.713650	0.154508	-0.669949	0.134166	36.746111	-86.093393	-13.175836
64350		10.790701	2.504970	0.588990	-0.830275	1.881915	1.088229	-0.022027	-0.232597	-0.102622	-0.961670	-0.261475	-0.461182	0.107913	0.024995	0.006013	0.712940	0.154877	-0.670738	0.133567	38.566410	-86.168464	-15.015717
64351		10.501239	1.871433	0.281276	-0.327004	1.414121	0.758534	-0.101218	-0.105561	-0.098065	-0.949951	-0.257080	-0.455811	0.105020	0.018664	0.002859	0.712715	0.154862	-0.671130	0.132814	39.674985	-86.185427	-16.188026
64352		10.228385	1.404173	0.256124	-0.137685	0.990644	0.466263	-0.059075	-0.027015	-0.093943	-0.955078	-0.255371	-0.455811	0.102290	0.013994	0.002571	0.712717	0.154933	-0.671217	0.132281	40.351500	-86.168236	-16.902620
64353		10.001271	1.278104	0.435738	-0.265782	0.800955	0.243986	-0.034673	-0.018544	-0.063449	-0.957031	-0.263672	-0.459473	0.100016	0.012750	0.004364	0.712709	0.154981	-0.671281	0.131942	40.791855	-86.158242	-17.367015
64354		9.780491	1.264094	0.581653	-0.407962	0.732158	0.030674	-0.064444	-0.005980	-0.006222	-0.953369	-0.256348	-0.456787	0.097805	0.012640	0.005815	0.712728	0.154725	-0.671364	0.131720	40.774545	-86.164122	-17.389348
64355		9.596987	1.122608	0.617087	-0.395278	0.595685	-0.157009	-0.116477	0.038119	0.035987	-0.951660	-0.253906	-0.449219	0.095969	0.011247	0.006146	0.712907	0.154111	-0.671357	0.131504	40.207572	-86.166476	-16.891128
64356		9.529301	1.169078	0.715197	-0.504037	0.608183	-0.217799	-0.084757	0.079271	0.037910	-0.956299	-0.249268	-0.460449	0.095294	0.011712	0.007109	0.713198	0.153578	-0.671183	0.131436	39.422169	-86.151077	-16.155352
64357		9.547869	1.479190	0.865938	-0.755445	0.843146	-0.178475	-0.094160	0.133805	0.056428	-0.955811	-0.254883	-0.457764	0.095480	0.014823	0.008589	0.713667	0.152911	-0.670835	0.131442	38.227527	-86.117090	-15.015197
64358		9.507148	1.552702	0.891681	-0.799645	0.915599	-0.215081	-0.154523	0.162213	0.084204	-0.954834	-0.248047	-0.465576	0.095072	0.015574	0.008828	0.714259	0.151918	-0.670446	0.131368	36.691039	-86.078049	-13.566715
64359		9.508774	1.520669	0.975114	-0.851845	0.870755	-0.210804	-0.176217	0.160935	0.100422	-0.951172	-0.255371	-0.467773	0.095088	0.015263	0.009661	0.714851	0.150793	-0.670087	0.131276	35.068751	-86.042334	-12.044928
64360		9.555635	1.366408	1.035979	-0.832394	0.722917	-0.167225	-0.195485	0.173929	0.097650	-0.957764	-0.248291	-0.464600	0.095559	0.013721	0.010263	0.715501	0.149601	-0.669690	0.131121	33.425423	-85.996558	-10.512711
64361		9.393735	1.276832	1.053192	-0.809031	0.654851	-0.331213	-0.201837	0.235088	0.078499	-0.958008	-0.255859	-0.467041	0.093945	0.012816	0.010409	0.716372	0.148408	-0.669064	0.130920	31.686462	-85.912266	-8.888479
64362		9.050934	1.201304	0.972583	-0.708959	0.638780	-0.680452	-0.188012	0.291560	0.050141	-0.956055	-0.243652	-0.466797	0.090520	0.012045	0.009583	0.717438	0.147326	-0.668202	0.130707	29.996678	-85.788452	-7.304851
64363		8.686724	1.299060	0.914592	-0.695614	0.771286	-1.043173	-0.164447	0.307975	0.024077	-0.955566	-0.247070	-0.477783	0.086880	0.013008	0.009001	0.718556	0.146400	-0.667246	0.130489	28.527053	-85.646040	-5.928738
64364		8.423703	1.291320	0.942840	-0.715843	0.769091	-1.303208	-0.163682	0.257943	0.011357	-0.948730	-0.250977	-0.476074	0.084248	0.012926	0.009309	0.719513	0.145555	-0.666457	0.130193	27.399846	-85.523219	-4.894974
64365		8.391345	1.206878	0.970787	-0.695444	0.690944	-1.336097	-0.179109	0.150375	0.004843	-0.954346	-0.248291	-0.485840	0.083920	0.012079	0.009634	0.720126	0.144742	-0.666059	0.129742	26.707182	-85.452368	-4.306240
64366		8.623422	1.177817	0.714493	-0.421120	0.767298	-1.123897	-0.190071	0.054887	0.008241	-0.954102	-0.245361	-0.482178	0.086236	0.011788	0.007110	0.720426	0.143945	-0.666014	0.129199	26.308733	-85.430814	-4.018352
64367		8.692543	0.958044	0.334707	0.022537	0.713688	-1.090284	-0.201579	0.057431	0.031154	-0.955322	-0.243408	-0.477783	0.086925	0.009597	0.003312	0.720727	0.143025	-0.665983	0.128700	25.750234	-85.413614	-3.577074
64368		8.401647	0.700212	0.054485	0.359628	0.589566	-1.410069	-0.185186	0.078111	0.055803	-0.950928	-0.245850	-0.491699	0.084015	0.007026	0.000506	0.721068	0.142071	-0.665883	0.128361	24.985281	-85.391312	-2.918732
64369		8.245732	0.599960	-0.027677	0.462842	0.535493	-1.575464	-0.132743	0.020394	0.063027	-0.951660	-0.230957	-0.489502	0.082455	0.006025	-0.000289	0.721175	0.141316	-0.665963	0.128179	24.377892	-85.400196	-2.388822
64370		8.393743	0.652298	-0.136815	0.552946	0.630138	-1.434364	-0.119518	-0.049840	0.073556	-0.944580	-0.241699	-0.482910	0.083935	0.006553	-0.001351	0.721031	0.140620	-0.666294	0.128031	23.911705	-85.447764	-1.992733
64371		8.562600	0.533585	-0.273998	0.729747	0.576167	-1.279611	-0.148035	-0.081491	0.096687	-0.960449	-0.229980	-0.489746	0.085625	0.005375	-0.002709	0.720787	0.139762	-0.666774	0.127848	23.355985	-85.517080	-1.523506
64372		8.770992	0.331543	-0.426358	0.949965	0.450659	-1.088212	-0.146249	-0.133467	0.121037	-0.954590	-0.224365	-0.482666	0.087711	0.003365	-0.004207	0.720351	0.138866	-0.667456	0.127723	22.769794	-85.618843	-1.022407
64373		9.147404	0.443533	-0.730661	1.201183	0.671493	-0.729087	-0.077276	-0.205008	0.115846	-0.959717	-0.220215	-0.477539	0.091479	0.004486	-0.007215	0.719631	0.138278	-0.668347	0.127758	22.442199	-85.757038	-0.741425
64374		9.463479	0.542523	-0.693473	1.132276	0.754460	-0.406234	-0.035894	-0.182641	0.143218	-0.955078	-0.224609	-0.481934	0.094637	0.005492	-0.006849	0.718938	0.137733	-0.669150	0.128046	21.849782	-85.889160	-0.171148
64375		9.459933	0.381590	-0.724616	1.199522	0.625720	-0.414252	-0.043927	-0.149631	0.186514	-0.959229	-0.226318	-0.482666	0.094601	0.003903	-0.007176	0.718333	0.136993	-0.669867	0.128485	20.783458	-86.012010	0.869473
64376		9.631616	0.336999	-0.696403	1.179356	0.587124	-0.240284	0.045438	-0.179586	0.220940	-0.955078	-0.224609	-0.478516	0.096319	0.003478	-0.006877	0.717543	0.136480	-0.670657	0.129326	19.514181	-86.156237	2.164876
64377		9.728403	0.358356	-0.386825	0.866026	0.508838	-0.121925	0.111319	-0.165959	0.247309	-0.960938	-0.221924	-0.470215	0.097283	0.003706	-0.003785	0.716734	0.136103	-0.671372	0.130492	17.922896	-86.295678	3.820397
64378		9.463363	0.557241	-0.354966	0.721875	0.698803	-0.379647	0.116902	-0.140011	0.259605	-0.958008	-0.211914	-0.469971	0.094629	0.005697	-0.003480	0.715998	0.135691	-0.671996	0.131739	16.037946	-86.419647	5.773488
64379		9.323859	0.706688	-0.268105	0.554591	0.822835	-0.511023	0.126186	-0.139293	0.253916	-0.957275	-0.204102	-0.473633	0.093231	0.007187	-0.002612	0.715261	0.135327	-0.672607	0.132995	14.071069	-86.538072	7.813380
64380		9.483631	0.734594	0.046950	0.241373	0.750231	-0.333239	0.151837	-0.099188	0.231380	-0.963623	-0.212402	-0.467529	0.094827	0.007455	0.000522	0.714655	0.135103	-0.673041	0.134283	12.114658	-86.626912	9.857181
64381		9.720621	1.092929	-0.070473	0.212192	1.145077	-0.100135	0.153151	-0.079036	0.197828	-0.964111	-0.208496	-0.468018	0.097196	0.011026	-0.000658	0.714137	0.134984	-0.673377	0.135470	10.345952	-86.696587	11.713653
64382		9.725911	1.639134	-0.484668	0.374908	1.821126	-0.114341	0.087730	-0.071236	0.169901	-0.954590	-0.210449	-0.467041	0.097247	0.016476	-0.004805	0.713706	0.134721	-0.673710	0.136342	8.733545	-86.756103	13.376055
64383		9.471236	1.917252	-0.547611	0.302534	2.112905	-0.372130	-0.008303	-0.029642	0.163493	-0.958008	-0.203369	-0.471924	0.094697	0.019250	-0.005463	0.713484	0.134107	-0.673955	0.136896	7.016490	-86.788597	15.087934
64384		9.323825	1.993351	0.091721	-0.330078	1.955350	-0.486208	-0.043613	0.051863	0.136340	-0.962158	-0.204346	-0.469482	0.093225	0.019997	0.000889	0.713579	0.133404	-0.673914	0.137287	5.447746	-86.770256	16.631042
64385		9.297739	1.503466	1.268856	-1.234972	1.075963	-0.451305	-0.191870	0.081341	0.140309	-0.964355	-0.202148	-0.468262	0.092972	0.015112	0.012636	0.713868	0.132137	-0.673872	0.137214	3.750034	-86.732733	18.218238
64386		9.327622	0.580444	2.439382	-1.971495	-0.196975	-0.359307	-0.267055	0.044944	0.133375	-0.959229	-0.187012	-0.469482	0.093278	0.005899	0.024365	0.714088	0.130651	-0.674006	0.136837	2.134422	-86.713379	19.680178
64387		10.177328	-0.627001	4.349298	-3.256888	-1.992995	0.594432	-0.278090	-0.082595	0.057710	-0.963867	-0.189941	-0.471436	0.101757	-0.006180	0.043544	0.713935	0.129466	-0.674552	0.136070	1.308338	-86.763857	20.344872
64388		13.368439	-2.590022	6.287362	-4.219778	-4.476969	3.865892	-0.487565	-0.650619	-0.179032	-0.969727	-0.187988	-0.462158	0.133456	-0.025866	0.063371	0.712156	0.128717	-0.677108	0.133380	3.105328	-87.134761	18.262186
64389		15.975191	-4.474004	4.408913	-1.810276	-5.578453	6.319923	-0.729348	-1.178358	-0.430362	-0.966797	-0.195801	-0.457764	0.159391	-0.044920	0.045193	0.708889	0.128305	-0.681518	0.128634	9.780603	-87.781901	11.159031
64390		13.173038	-3.173673	-1.493118	3.034736	-2.370513	3.264049	-0.240835	-0.041895	-0.557942	-0.968018	-0.195557	-0.457275	0.131644	-0.032122	-0.014865	0.709241	0.129325	-0.681483	0.125825	17.582190	-87.732856	3.210234
64391		8.802734	0.100911	-3.729091	3.837429	1.434695	-1.174429	0.481993	0.892867	-0.609158	-0.972900	-0.208496	-0.453369	0.087862	0.000832	-0.037681	0.712328	0.132492	-0.677631	0.125901	21.287076	-87.137993	-0.225012
64392		7.427406	2.603651	-1.058345	0.432630	2.789961	-2.390138	0.966790	0.396993	-0.697880	-0.955078	-0.218262	-0.451904	0.074343	0.025828	-0.010606	0.713442	0.137994	-0.675156	0.126969	26.867742	-86.771244	-5.261851
64393		10.266972	6.816488	3.277929	-4.983396	5.019438	0.798145	1.005320	0.031028	-0.621542	-0.960205	-0.232422	-0.467285	0.102886	0.067680	0.033104	0.713221	0.143602	-0.673991	0.128183	32.542413	-86.583977	-10.372218
64394		11.756133	9.608322	6.049525	-8.497982	6.500172	2.542677	-0.307707	0.197745	-0.072022	-0.957520	-0.224121	-0.467041	0.117656	0.096134	0.060231	0.714138	0.142569	-0.673453	0.127048	31.877331	-86.471028	-9.885505
64395		10.933114	4.745545	4.519337	-5.275368	2.649396	1.484547	-1.597015	0.007257	0.224233	-0.963379	-0.216553	-0.467041	0.109279	0.047937	0.044808	0.715121	0.136049	-0.674603	0.122491	29.040098	-86.537467	-7.962849
64396		10.805877	0.319717	2.828315	-2.128976	-0.786670	1.128828	-1.308702	-0.331966	0.228925	-0.961914	-0.209473	-0.465820	0.108008	0.003507	0.028440	0.714720	0.130744	-0.676754	0.118682	27.787994	-86.771660	-7.462960
64397		11.178633	-1.674443	1.581331	-0.303524	-2.199941	1.382583	-1.134580	-0.281170	0.031331	-0.956787	-0.202148	-0.469238	0.111766	-0.016636	0.016065	0.714465	0.126694	-0.678463	0.114787	28.135748	-86.927066	-8.465428
64398		11.353519	-2.499283	0.322959	1.129573	-2.558372	1.475885	-0.943976	0.029829	-0.090383	-0.961426	-0.197266	-0.468750	0.113524	-0.025029	0.003331	0.715195	0.123557	-0.678855	0.111296	28.207342	-86.891969	-9.081917
64399		11.069833	-2.705832	-0.790205	2.231418	-2.402028	1.129804	-0.758433	0.274078	-0.171279	-0.959473	-0.188477	-0.469727	0.110664	-0.027183	-0.007951	0.716668	0.121218	-0.678207	0.108296	27.915542	-86.711930	-9.228027
64400		10.552631	-2.534936	-0.938472	2.313724	-2.207064	0.600768	-0.412833	0.374353	-0.254957	-0.964111	-0.195801	-0.474854	0.105476	-0.025503	-0.009530	0.718309	0.120345	-0.676953	0.106225	28.075606	-86.458489	-9.628618
64401		10.182084	-1.449559	-0.052541	1.152620	-1.470849	0.300999	-0.093536	0.443313	-0.297303	-0.956299	-0.192627	-0.489746	0.101798	-0.014647	-0.000744	0.720007	0.120725	-0.675251	0.105125	28.411106	-86.158832	-10.021656
64402		9.488446	-0.372560	0.795006	0.020796	-0.719520	-0.310952	0.006346	0.581077	-0.288965	-0.958008	-0.196289	-0.480713	0.094902	-0.003863	0.007674	0.722100	0.121363	-0.672999	0.104474	28.177480	-85.791737	-9.787092
64403		8.977552	0.363570	1.514910	-0.871072	-0.248555	-0.746113	-0.019972	0.564252	-0.259140	-0.955322	-0.201660	-0.489990	0.089822	0.003521	0.014895	0.724128	0.121813	-0.670834	0.103831	27.832956	-85.441277	-9.456177
64404		8.937616	0.666358	2.181358	-1.557095	-0.174926	-0.722687	-0.210088	0.293843	-0.192922	-0.955322	-0.196289	-0.501953	0.089414	0.006600	0.021675	0.725327	0.121493	-0.669782	0.102625	27.888565	-85.245324	-9.635916
64405		9.480848	0.497605	2.397196	-1.648180	-0.409654	-0.169228	-0.444497	0.016008	-0.091964	-0.948975	-0.195557	-0.499268	0.094813	0.004986	0.023953	0.725682	0.120126	-0.669917	0.100831	28.081999	-85.217192	-10.088728
64406		10.003183	-0.044221	1.952936	-1.020081	-0.787684	0.297632	-0.612221	-0.031240	-0.007707	-0.955322	-0.196289	-0.501953	0.100029	-0.000386	0.019546	0.725933	0.117890	-0.670352	0.098750	27.821239	-85.235398	-10.182486
64407		10.123519	-0.329468	1.174298	-0.185248	-0.813065	0.349879	-0.587208	0.116834	0.024213	-0.953125	-0.180420	-0.496094	0.101242	-0.003248	0.011693	0.726642	0.115565	-0.670251	0.096957	26.911993	-85.186969	-9.610823
64408		9.708433	-0.203825	0.822494	0.092242	-0.568277	-0.084367	-0.521603	0.280684	0.030491	-0.947754	-0.193604	-0.504883	0.097096	-0.002002	0.008094	0.727853	0.113375	-0.669519	0.095498	25.539364	-85.054763	-8.536573
64409		8.989910	-0.020856	0.981886	-0.149602	-0.414183	-0.780024	-0.534824	0.344384	0.033060	-0.949951	-0.180908	-0.519775	0.089916	-0.000168	0.009665	0.729276	0.111098	-0.668558	0.094042	24.039165	-84.887991	-7.341339
64410		8.365191	0.141403	1.110934	-0.350306	-0.271630	-1.384518	-0.576803	0.291759	0.031753	-0.947266	-0.175049	-0.514893	0.083668	0.001459	0.010983	0.730541	0.108696	-0.667800	0.092409	22.736365	-84.745845	-6.368356
64411		8.184591	0.341429	0.961499	-0.263584	-0.021647	-1.568985	-0.625182	0.151070	0.010606	-0.940186	-0.176758	-0.522217	0.081853	0.003449	0.009542	0.731362	0.106252	-0.667560	0.090462	21.905111	-84.672300	-5.896427
64412		8.455790	0.473137	0.671583	0.009450	0.190337	-1.319222	-0.661715	-0.002242	-0.018549	-0.942871	-0.170654	-0.517334	0.084558	0.004746	0.006701	0.731698	0.103839	-0.667874	0.088201	21.580212	-84.673498	-5.954361
64413		8.911361	0.494976	0.414416	0.292686	0.277821	-0.887092	-0.676704	-0.047167	-0.055960	-0.950684	-0.164795	-0.522461	0.089114	0.004939	0.004148	0.731899	0.101515	-0.668333	0.085731	21.561891	-84.690994	-6.328505
64414		9.059633	0.223929	0.377120	0.414598	0.022385	-0.751952	-0.696534	0.019909	-0.083917	-0.942871	-0.161377	-0.517822	0.090598	0.002214	0.003754	0.732338	0.099181	-0.668531	0.083123	21.541047	-84.666662	-6.711876
64415		8.782014	-0.174516	0.180596	0.685180	-0.314105	-1.059477	-0.661572	0.079228	-0.118660	-0.941406	-0.153809	-0.524658	0.087820	-0.001791	0.001777	0.732963	0.097067	-0.668474	0.080535	21.600341	-84.603603	-7.155297
64416		8.546067	-0.345385	-0.005130	0.889506	-0.439949	-1.317407	-0.585768	0.019075	-0.160520	-0.948242	-0.157471	-0.517334	0.085458	-0.003523	-0.000049	0.733360	0.095391	-0.668578	0.078015	22.066338	-84.563224	-7.964121
64417		8.736773	-0.460208	-0.197222	1.116058	-0.523208	-1.148825	-0.491816	-0.155497	-0.190293	-0.940674	-0.158447	-0.523682	0.087365	-0.004690	-0.001893	0.733133	0.094229	-0.669267	0.075618	23.151953	-84.607801	-9.340801
64418		9.193498	-0.503481	-0.292112	1.244146	-0.572347	-0.703151	-0.391884	-0.262503	-0.214749	-0.952148	-0.147705	-0.521973	0.091933	-0.005139	-0.002790	0.732506	0.093554	-0.670293	0.073413	24.726419	-84.699525	-11.151119
64419		9.401740	-0.571940	-0.383660	1.349941	-0.646595	-0.505350	-0.342272	-0.187485	-0.224903	-0.952881	-0.160400	-0.516846	0.094014	-0.005832	-0.003739	0.732105	0.093067	-0.671019	0.071374	26.235108	-84.745554	-12.866318
64420		9.299200	-0.775131	-0.339952	1.335934	-0.876421	-0.612762	-0.280395	-0.067796	-0.230447	-0.958496	-0.162354	-0.522217	0.092984	-0.007863	-0.003357	0.732077	0.092781	-0.671278	0.069575	27.489689	-84.724991	-14.291130
64421		9.147337	-0.721933	-0.211963	1.183098	-0.873533	-0.753048	-0.189754	-0.062570	-0.247844	-0.946289	-0.155762	-0.520264	0.091465	-0.007335	-0.002084	0.732028	0.092884	-0.671477	0.068022	28.863201	-84.694246	-15.782848
64422		9.201472	-0.616045	-0.121069	1.068991	-0.816010	-0.688402	-0.183040	-0.163903	-0.233210	-0.947998	-0.160645	-0.524902	0.092008	-0.006269	-0.001130	0.731629	0.092996	-0.672049	0.066495	30.461546	-84.714416	-17.496852
64423		9.299953	-0.549646	-0.373137	1.292477	-0.721260	-0.607271	-0.176551	-0.240809	-0.211710	-0.948242	-0.156006	-0.515381	0.092998	-0.005598	-0.003614	0.730958	0.093086	-0.672908	0.065035	32.216981	-84.774132	-19.364426
64424		9.353066	-0.614899	-0.579769	1.494521	-0.763745	-0.572714	-0.180027	-0.211653	-0.197994	-0.951172	-0.162598	-0.507324	0.093531	-0.006247	-0.005693	0.730381	0.093105	-0.673667	0.063624	33.835261	-84.818959	-21.096553
64425		9.365437	-0.651886	-0.668076	1.575876	-0.803098	-0.568539	-0.108310	-0.151388	-0.208503	-0.953369	-0.164795	-0.510742	0.093653	-0.006620	-0.006606	0.729975	0.093404	-0.674176	0.062447	35.354925	-84.827723	-22.687897
64426		9.530677	-0.548136	-0.603563	1.493312	-0.744359	-0.393853	-0.057900	-0.161974	-0.212532	-0.958252	-0.157715	-0.506836	0.095306	-0.005584	-0.005957	0.729509	0.093903	-0.674705	0.061418	36.968367	-84.836033	-24.344626
64427		9.671884	-0.515119	-0.657321	1.537203	-0.727960	-0.254980	-0.058939	-0.187101	-0.196837	-0.949951	-0.163086	-0.498779	0.096720	-0.005248	-0.006481	0.728953	0.094354	-0.675332	0.060433	38.606890	-84.857056	-26.026850
64428		9.881805	-0.497209	-0.840318	1.714656	-0.700354	-0.057031	-0.014807	-0.172382	-0.190374	-0.958008	-0.176514	-0.508789	0.098820	-0.005067	-0.008318	0.728423	0.094936	-0.675894	0.059625	40.190544	-84.869633	-27.628953
64429		9.894775	-0.359813	-0.888315	1.722649	-0.576534	-0.038989	0.041822	-0.111102	-0.184243	-0.953369	-0.176758	-0.510010	0.098949	-0.003687	-0.008829	0.728070	0.095689	-0.676217	0.059062	41.524437	-84.854317	-28.947313
64430		9.757335	-0.636255	-0.853585	1.733042	-0.864736	-0.190433	0.042706	-0.051489	-0.163866	-0.951660	-0.170166	-0.507568	0.097570	-0.006441	-0.008512	0.727911	0.096357	-0.676333	0.058604	42.499778	-84.819049	-29.905289
64431		9.635544	-0.903880	-0.948210	1.871280	-1.114307	-0.335535	0.127527	-0.063006	-0.167518	-0.951904	-0.168701	-0.505371	0.096351	-0.009113	-0.009458	0.727673	0.097350	-0.676464	0.058415	43.576527	-84.785650	-30.916260
64432		9.627126	-1.096083	-0.908446	1.870016	-1.323993	-0.354448	0.192672	-0.097570	-0.153610	-0.949463	-0.172607	-0.508789	0.096267	-0.011026	-0.009048	0.727281	0.098541	-0.676707	0.058478	44.766737	-84.770265	-32.004118
64433		9.616308	-1.302038	-0.758486	1.763147	-1.570462	-0.369757	0.203105	-0.106727	-0.144186	-0.958252	-0.175537	-0.499023	0.096158	-0.013082	-0.007547	0.726849	0.099743	-0.676984	0.058607	45.956050	-84.760294	-33.084700
64434		9.474040	-1.493775	-0.651184	1.685809	-1.785115	-0.518375	0.224688	-0.085812	-0.115628	-0.944580	-0.181152	-0.495850	0.094735	-0.014985	-0.006488	0.726467	0.100917	-0.677192	0.058922	46.936001	-84.752169	-33.943011
64435		9.468144	-1.449016	-0.635129	1.657189	-1.752730	-0.521270	0.294377	-0.075754	-0.090331	-0.955566	-0.177002	-0.496582	0.094677	-0.014524	-0.006337	0.726076	0.102259	-0.677354	0.059572	47.800571	-84.749436	-34.644991
64436		9.509907	-1.405478	-0.814695	1.823185	-1.676114	-0.488307	0.280447	-0.060142	-0.063165	-0.956055	-0.178955	-0.496094	0.095097	-0.014073	-0.008138	0.725734	0.103451	-0.677477	0.060280	48.470959	-84.751622	-35.160269
64437		9.536745	-1.248133	-1.126078	2.090532	-1.454202	-0.469756	0.308055	-0.044657	-0.047349	-0.950439	-0.182373	-0.486816	0.095367	-0.012487	-0.011259	0.725424	0.104687	-0.677540	0.061148	49.020039	-84.754111	-35.537560
64438		9.438209	-1.198037	-1.405221	2.343636	-1.333737	-0.581315	0.318633	0.002458	-0.041251	-0.953857	-0.187256	-0.501953	0.094379	-0.011977	-0.014072	0.725265	0.105923	-0.677433	0.062097	49.327746	-84.741552	-35.666697
64439		9.181013	-1.029787	-1.473166	2.357047	-1.137774	-0.830957	0.414603	0.060928	-0.065022	-0.957520	-0.192871	-0.497559	0.091802	-0.010297	-0.014781	0.725258	0.107571	-0.677067	0.063317	49.509930	-84.696591	-35.614240
64440		9.082454	-0.858885	-1.175810	2.031138	-1.036041	-0.901331	0.479023	0.087116	-0.081787	-0.951416	-0.191162	-0.492920	0.090816	-0.008598	-0.011818	0.725306	0.109499	-0.676576	0.064707	49.672305	-84.634860	-35.505058
64441		9.053002	-0.662478	-0.676994	1.510478	-0.966555	-0.888660	0.473610	0.095524	-0.085735	-0.948730	-0.193604	-0.494385	0.090524	-0.006647	-0.006829	0.725383	0.111420	-0.676047	0.066070	49.807870	-84.568060	-35.371805
64442		9.089475	-0.665700	-0.227179	1.090926	-1.085757	-0.826903	0.428222	0.085398	-0.072299	-0.952393	-0.200439	-0.492676	0.090891	-0.006685	-0.002325	0.725442	0.113131	-0.675576	0.067321	49.911895	-84.511224	-35.233263
64443		9.330232	-0.503131	-0.055829	0.913283	-0.988751	-0.566187	0.454977	0.053979	-0.078151	-0.946289	-0.191650	-0.485596	0.093300	-0.005066	-0.000595	0.725379	0.114971	-0.675202	0.068624	50.195932	-84.463109	-35.259873
64444		9.802002	-0.245063	0.532682	0.327106	-0.925027	-0.042306	0.516366	0.078243	-0.093856	-0.948486	-0.210449	-0.493896	0.098021	-0.002510	0.005282	0.725362	0.117075	-0.674708	0.070090	50.461538	-84.399524	-35.232920
64445		10.682760	-0.117615	1.899290	-0.935260	-1.226906	0.928002	0.636688	0.132745	-0.118928	-0.955811	-0.203125	-0.493896	0.106839	-0.001300	0.018918	0.725463	0.119683	-0.673951	0.071903	50.642540	-84.304673	-35.051377
64446		12.672673	1.500884	3.945470	-3.149686	-0.372643	3.162535	0.875956	0.140317	-0.149678	-0.944580	-0.228516	-0.489502	0.126765	0.014741	0.039431	0.725445	0.123254	-0.673053	0.074415	51.035869	-84.193850	-34.945641
64447		14.103871	4.681701	5.295731	-5.189962	2.176575	4.925324	0.650082	0.109097	0.036379	-0.941650	-0.223877	-0.490234	0.141059	0.046670	0.053032	0.725381	0.125393	-0.672456	0.076820	50.776259	-84.176718	-34.313442
64448		12.017513	4.239518	3.920668	-3.928191	2.279248	2.722855	-0.295915	0.061463	0.347460	-0.948975	-0.223389	-0.490234	0.120113	0.042662	0.039107	0.725625	0.123073	-0.672585	0.077145	49.038942	-84.312639	-32.740713
64449		10.238214	1.333987	0.987878	-0.477912	0.469173	0.537565	-0.625595	-0.267052	0.380551	-0.949951	-0.203369	-0.483154	0.102343	0.013566	0.009973	0.724946	0.119570	-0.674046	0.076276	48.352255	-84.583439	-32.414068
64450		9.837553	-0.784457	0.071232	0.898393	-1.261791	-0.065978	-0.553737	-0.506560	0.335069	-0.948730	-0.204102	-0.489258	0.098386	-0.007677	0.000983	0.723423	0.116569	-0.676310	0.075341	48.995792	-84.925494	-33.382078
64451		9.709352	-2.525997	-0.154391	1.516154	-2.854560	-0.313814	-0.212922	-0.378175	0.232679	-0.953125	-0.190674	-0.482910	0.097125	-0.025148	-0.001333	0.722166	0.115099	-0.677912	0.075261	49.737291	-85.173818	-34.251948
64452		9.844317	-3.411650	-0.101935	1.682565	-3.716878	-0.225502	0.396383	-0.179425	0.104774	-0.952637	-0.198486	-0.486816	0.098462	-0.034063	-0.000999	0.721275	0.116184	-0.678491	0.076898	50.413582	-85.292151	-34.706042
64453		10.175596	-3.426789	0.670327	0.973201	-3.947073	0.147656	0.899259	-0.084349	0.089669	-0.953125	-0.204590	-0.472168	0.101769	-0.034252	0.006592	0.720412	0.119099	-0.678516	0.080241	50.955347	-85.368618	-34.735800
64454		10.491537	-2.894439	1.859286	-0.268996	-3.776348	0.559093	1.134914	-0.033031	0.176976	-0.947510	-0.214111	-0.473633	0.104938	-0.028956	0.018446	0.719527	0.122541	-0.678296	0.084728	50.957472	-85.465711	-34.088779
64455		10.847657	-2.027120	2.977184	-1.536860	-3.282131	1.027521	1.212298	0.015241	0.316072	-0.955322	-0.214111	-0.468750	0.108511	-0.020280	0.029641	0.718675	0.125766	-0.677929	0.090003	50.056151	-85.606012	-32.491149
64456		10.916024	-0.417593	3.295162	-2.301665	-1.841941	1.210091	1.314056	0.032978	0.422005	-0.946777	-0.212891	-0.467529	0.109174	-0.004162	0.032906	0.717740	0.128984	-0.677491	0.096014	48.483393	-85.783280	-30.161820
64457		10.725053	1.528695	2.957781	-2.609633	0.125080	1.109138	1.330412	0.033788	0.498117	-0.957031	-0.225830	-0.459473	0.107217	0.015357	0.029662	0.716725	0.131997	-0.677057	0.102346	46.320893	-85.986281	-27.232637
64458		10.608693	2.914367	2.331837	-2.512820	1.658876	1.022854	1.156005	-0.039926	0.598996	-0.961670	-0.218750	-0.449463	0.105995	0.029326	0.023509	0.715491	0.134074	-0.677012	0.108400	43.590124	-86.251148	-23.834560
64459		10.781804	3.218244	1.547134	-1.924029	2.234349	1.155602	0.906258	-0.168109	0.604286	-0.955811	-0.215576	-0.453369	0.107707	0.032437	0.015709	0.713962	0.135305	-0.677540	0.113534	41.008382	-86.561198	-20.730611
64460		11.011578	2.728426	0.627312	-0.938913	2.124180	1.309302	0.769687	-0.142767	0.503801	-0.956055	-0.214844	-0.446777	0.110042	0.027537	0.006457	0.712649	0.136371	-0.677969	0.117864	38.447963	-86.814424	-17.727006
64461		10.866756	2.382927	0.089852	-0.365228	2.028930	1.119955	0.716346	0.001336	0.389602	-0.959473	-0.215332	-0.457764	0.108621	0.024037	0.000984	0.711915	0.137547	-0.677825	0.121698	35.500778	-86.953485	-14.367555
64462		10.438815	2.061024	0.049179	-0.254416	1.779925	0.674741	0.652098	0.141357	0.270884	-0.959961	-0.214600	-0.452637	0.104360	0.020750	0.000486	0.711762	0.138808	-0.677130	0.124990	32.507050	-86.978382	-10.998405
64463		10.311440	1.768331	0.544666	-0.622453	1.348540	0.557627	0.582883	0.100390	0.178962	-0.962402	-0.209229	-0.456299	0.103101	0.017760	0.005447	0.711567	0.140159	-0.676553	0.127687	30.527329	-86.987918	-8.684642
64464		10.504132	1.570004	0.921350	-0.900759	1.030315	0.759807	0.538617	-0.085308	0.102552	-0.962158	-0.224854	-0.455811	0.105029	0.015729	0.009301	0.710818	0.141727	-0.676605	0.129833	30.243580	-87.064750	-8.094587
64465		10.899051	1.642312	0.908786	-0.921213	1.093105	1.154026	0.564214	-0.213435	0.040096	-0.951660	-0.223877	-0.441895	0.108977	0.016419	0.009250	0.709652	0.143680	-0.677047	0.131751	31.330717	-87.186479	-8.862553
64466		11.142561	1.649072	0.685942	-0.737208	1.169115	1.387143	0.559002	-0.225353	0.004373	-0.959473	-0.226318	-0.446533	0.111417	0.016474	0.007031	0.708466	0.145744	-0.677501	0.133517	32.939142	-87.302192	-10.154947
64467		11.110448	1.681435	0.428750	-0.541549	1.283182	1.345861	0.588495	-0.157558	-0.040407	-0.961670	-0.224609	-0.439941	0.111104	0.016779	0.004424	0.707512	0.148016	-0.677658	0.135270	34.678370	-87.369458	-11.561645
64468		11.021000	1.759573	0.251948	-0.431183	1.410664	1.252849	0.607061	-0.045126	-0.065537	-0.959961	-0.236816	-0.438232	0.110215	0.017552	0.002598	0.706936	0.150362	-0.677379	0.137081	35.926136	-87.374136	-12.465455
64469		10.745378	1.875369	0.178447	-0.427966	1.537362	0.979224	0.613985	0.073132	-0.084248	-0.963623	-0.230713	-0.437256	0.107462	0.018703	0.001803	0.706761	0.152712	-0.676657	0.138934	36.497579	-87.317112	-12.688482
64470		10.475944	1.939231	0.277841	-0.554253	1.550486	0.716890	0.559558	0.127080	-0.069130	-0.953857	-0.240234	-0.445557	0.104768	0.019348	0.002766	0.706794	0.154782	-0.675788	0.140700	36.490304	-87.240369	-12.363076
64471		10.265317	1.851857	0.407553	-0.639283	1.417042	0.509885	0.465441	0.174662	-0.027988	-0.964600	-0.242920	-0.440430	0.102659	0.018495	0.004029	0.707026	0.156344	-0.674844	0.142325	35.734361	-87.155363	-11.342367
64472		9.964491	1.598863	0.554252	-0.669653	1.133057	0.208408	0.394235	0.253326	0.009951	-0.958496	-0.244141	-0.436523	0.099651	0.015983	0.005448	0.707549	0.157471	-0.673698	0.143908	34.142832	-87.044809	-9.525514
64473		9.675546	1.565999	0.668086	-0.752816	1.068493	-0.075829	0.381098	0.357866	0.026444	-0.955322	-0.251221	-0.436768	0.096765	0.015660	0.006538	0.708417	0.158418	-0.672201	0.145584	31.931257	-86.886222	-7.095314
64474		9.282589	1.710329	0.844369	-0.966086	1.142950	-0.455077	0.353895	0.446542	0.046126	-0.963135	-0.252930	-0.450439	0.092841	0.017110	0.008267	0.709586	0.159140	-0.670419	0.147311	29.326496	-86.684369	-4.286023
64475		8.896085	1.718122	0.930380	-1.037927	1.134662	-0.835327	0.227414	0.476053	0.081700	-0.957275	-0.245117	-0.446045	0.088976	0.017207	0.009112	0.710922	0.159269	-0.668651	0.148759	26.548668	-86.469951	-1.375844
64476		8.761970	1.548722	1.013366	-1.019012	0.968634	-0.968434	0.111590	0.425288	0.101004	-0.944092	-0.247314	-0.454834	0.087633	0.015526	0.009956	0.712163	0.158960	-0.667159	0.149849	24.063206	-86.278775	1.175883
64477		8.908698	1.544640	1.098369	-1.059068	0.950848	-0.816499	0.065460	0.341629	0.102176	-0.943359	-0.245117	-0.462891	0.089098	0.015488	0.010837	0.713157	0.158542	-0.665999	0.150721	22.056137	-86.125865	3.221816
64478		9.093329	1.727877	1.162606	-1.159262	1.110928	-0.623144	0.045266	0.351163	0.091711	-0.949951	-0.239990	-0.463867	0.090946	0.017318	0.011470	0.714206	0.158081	-0.664808	0.151496	20.246076	-85.961142	5.059286
64479		8.816834	1.770791	1.053798	-1.070215	1.217642	-0.904567	-0.011708	0.458627	0.083959	-0.946045	-0.253174	-0.462646	0.088185	0.017746	0.010335	0.715658	0.157360	-0.663269	0.152137	18.342895	-85.732939	6.957606
64480		8.313491	1.677812	1.019601	-1.002094	1.168311	-1.410339	-0.030603	0.516981	0.061323	-0.950439	-0.247070	-0.466553	0.083156	0.016805	0.009979	0.717332	0.156602	-0.661512	0.152682	16.659886	-85.464665	8.625193
64481		7.979077	1.763375	1.011055	-1.024097	1.265606	-1.741333	0.006518	0.419125	0.016597	-0.945068	-0.237305	-0.476563	0.079810	0.017640	0.009944	0.718684	0.156197	-0.660041	0.153109	15.658975	-85.240304	9.630008
64482		7.618061	1.973260	0.812349	-0.936961	1.549540	-2.111422	0.000708	0.368046	-0.002485	-0.945068	-0.239990	-0.478516	0.076196	0.019732	0.007983	0.719883	0.155874	-0.658739	0.153409	14.953176	-85.040007	10.335857
64483		7.221171	2.069854	0.628594	-0.823272	1.720537	-2.519769	-0.037111	0.316902	-0.011527	-0.943115	-0.235840	-0.489746	0.072223	0.020696	0.006168	0.720948	0.155482	-0.657642	0.153511	14.417186	-84.866204	10.849443
64484		7.127406	2.107681	0.369390	-0.597313	1.871332	-2.634943	-0.076595	0.168315	-0.024628	-0.948975	-0.243652	-0.489502	0.071280	0.021069	0.003626	0.721565	0.155105	-0.657099	0.153319	14.196977	-84.772594	11.023349
64485		7.445158	2.146609	-0.074945	-0.178214	2.103317	-2.356936	-0.127446	-0.020690	-0.026146	-0.944092	-0.248535	-0.484863	0.074454	0.021456	-0.000755	0.721600	0.154694	-0.657276	0.152809	14.250671	-84.783874	10.892960
64486		7.646250	1.912084	-0.554534	0.370153	2.096282	-2.203660	-0.217828	-0.114451	-0.000722	-0.947021	-0.244629	-0.481201	0.076466	0.019115	-0.005522	0.721378	0.153948	-0.657878	0.152021	14.245345	-84.850654	10.770140
64487		7.488733	1.488810	-1.059054	0.987263	1.921867	-2.413294	-0.297749	-0.075366	0.043077	-0.940674	-0.233643	-0.479248	0.074888	0.014888	-0.010584	0.721310	0.152736	-0.658434	0.151158	13.859313	-84.901988	10.983294
64488		7.376596	1.075349	-1.271900	1.340848	1.635255	-2.552085	-0.323791	-0.067744	0.092762	-0.941406	-0.231934	-0.479492	0.073765	0.010767	-0.012711	0.721247	0.151263	-0.659017	0.150394	13.128887	-84.955464	11.527431
64489		7.709864	0.534600	-1.270562	1.585390	1.151380	-2.229615	-0.306815	-0.163270	0.139739	-0.939453	-0.223389	-0.481201	0.077105	0.005380	-0.012651	0.720819	0.149766	-0.659966	0.149781	12.225416	-85.067621	12.254732
64490		8.284355	0.072639	-1.111663	1.659803	0.677535	-1.648280	-0.250299	-0.310392	0.184326	-0.950684	-0.234375	-0.469727	0.082860	0.000789	-0.010989	0.719827	0.148435	-0.661433	0.149405	11.216962	-85.266389	13.119696
64491		8.929838	-0.314006	-1.013963	1.748356	0.299596	-0.996674	-0.179187	-0.375756	0.225757	-0.944824	-0.221191	-0.480225	0.089321	-0.003048	-0.009969	0.718531	0.147271	-0.663110	0.149364	9.954238	-85.504901	14.280380
64492		9.340337	-0.577667	-0.956127	1.796637	0.049418	-0.579091	-0.050584	-0.331416	0.247249	-0.953613	-0.219482	-0.472168	0.093426	-0.005664	-0.009405	0.717268	0.146466	-0.664543	0.149859	8.421269	-85.717967	15.785868
64493		9.451073	-0.369091	-0.678727	1.431247	0.139450	-0.439766	0.112576	-0.265676	0.256192	-0.944580	-0.208496	-0.468994	0.094524	-0.003566	-0.006664	0.716093	0.146164	-0.665622	0.150975	6.690926	-85.890988	17.582390
64494		9.491503	0.088814	-0.176534	0.757618	0.366221	-0.356500	0.168421	-0.217975	0.266570	-0.953369	-0.216064	-0.467529	0.094916	0.001016	-0.001661	0.715026	0.145990	-0.666494	0.152348	4.723233	-86.033100	19.648455
64495		9.526817	0.304354	0.147133	0.348056	0.446394	-0.296700	0.118211	-0.181778	0.273477	-0.955078	-0.208252	-0.462646	0.095262	0.003173	0.001560	0.714109	0.145587	-0.667277	0.153605	2.505657	-86.149329	21.935946
64496		9.601813	0.568101	0.037733	0.318411	0.749975	-0.228582	0.108012	-0.126477	0.232400	-0.956787	-0.207275	-0.465332	0.096011	0.005792	0.000441	0.713413	0.145241	-0.667839	0.154720	0.503896	-86.227497	24.001007
64497		9.558331	1.123984	-0.034767	0.132821	1.299254	-0.277463	0.116757	-0.065110	0.181237	-0.960693	-0.206787	-0.461914	0.095573	0.011327	-0.000310	0.712954	0.145050	-0.668136	0.155727	-1.113804	-86.266214	25.686084
64498		9.550549	1.918460	0.414470	-0.619172	1.846196	-0.258975	0.074719	-0.056966	0.127563	-0.954102	-0.202881	-0.463135	0.095492	0.019244	0.004179	0.712594	0.144881	-0.668399	0.156406	-2.308518	-86.298535	26.922976
64499		9.758503	2.584384	1.235683	-1.642666	2.122983	-0.003054	-0.107952	-0.135155	0.076604	-0.952881	-0.203369	-0.464844	0.097567	0.025888	0.012409	0.712144	0.144293	-0.669044	0.156238	-3.215597	-86.375461	27.766795
64500		9.949255	2.644132	1.947407	-2.317749	1.893441	0.227951	-0.366930	-0.207907	0.042953	-0.953369	-0.200439	-0.456543	0.099467	0.026498	0.019529	0.711662	0.142952	-0.670125	0.155029	-4.043318	-86.494402	28.382122
64501		10.192955	1.757636	3.006893	-2.916787	0.664090	0.535179	-0.489956	-0.161711	-0.042337	-0.960449	-0.201904	-0.459961	0.101909	0.017629	0.030108	0.711485	0.141422	-0.671072	0.153139	-4.141686	-86.590094	28.196295
64502		11.434837	0.214281	4.984281	-4.040919	-1.516184	1.892720	-0.458067	-0.193496	-0.224107	-0.959229	-0.200684	-0.456055	0.114302	0.002129	0.049949	0.711312	0.140639	-0.671975	0.150683	-2.429773	-86.709826	26.215333
64503		14.408229	-1.877829	6.887588	-4.839302	-4.163331	4.945653	-0.595037	-0.698696	-0.503068	-0.959229	-0.187500	-0.450684	0.143793	-0.018934	0.069435	0.709736	0.140684	-0.674569	0.146419	2.455271	-87.112501	20.978658
64504		15.793919	-3.586079	4.568673	-2.100217	-4.891375	6.151017	-0.777198	-1.119718	-0.638749	-0.966553	-0.210205	-0.446045	0.157564	-0.036184	0.046710	0.706939	0.140842	-0.678667	0.140754	11.665020	-87.708967	11.310479
64505		13.519307	-2.684978	-1.022643	2.518756	-2.016346	3.626656	-0.361229	-0.201531	-0.648142	-0.963379	-0.206055	-0.444580	0.135115	-0.027306	-0.010041	0.706945	0.141851	-0.679196	0.137112	21.070466	-87.718816	1.687308
64506		10.690779	0.346305	-3.275979	3.348612	1.585256	0.742780	0.555810	0.589362	-0.691242	-0.963379	-0.212646	-0.448730	0.106822	0.003185	-0.033066	0.709002	0.145704	-0.676254	0.136989	26.437470	-87.253851	-3.369211
64507		9.984569	3.460569	-0.330731	-0.559812	3.249336	0.232432	1.047546	0.304671	-0.791272	-0.957520	-0.228760	-0.449951	0.099977	0.034228	-0.003280	0.709780	0.151828	-0.673889	0.137962	32.951249	-86.881959	-9.293630
64508		11.830104	6.973521	3.829477	-5.652082	4.696664	2.403719	0.650784	0.166228	-0.586116	-0.953613	-0.235352	-0.443359	0.118536	0.069263	0.038422	0.710230	0.155942	-0.672423	0.138215	37.130781	-86.616063	-13.109781
64509		12.152797	6.270531	5.659654	-6.981548	3.288690	2.815995	-0.855540	0.177369	-0.110909	-0.961670	-0.227539	-0.447266	0.121613	0.062879	0.056220	0.711548	0.153099	-0.672316	0.135099	36.408937	-86.501956	-12.880846
64510		11.779310	1.233264	3.580914	-3.079332	-0.432062	2.163404	-1.462036	-0.132506	0.071864	-0.958740	-0.229980	-0.461426	0.117765	0.012637	0.035796	0.712140	0.147687	-0.673835	0.130350	35.695479	-86.592623	-13.008665
64511		11.786229	-1.651550	2.148462	-0.686703	-2.506427	1.998525	-1.153172	-0.208981	0.015788	-0.961670	-0.213379	-0.453369	0.117841	-0.016381	0.021702	0.712250	0.143608	-0.675355	0.126382	36.037269	-86.700237	-14.016030
64512		11.645153	-3.088267	0.924453	0.945067	-3.375285	1.750871	-0.944771	0.154760	-0.106221	-0.960449	-0.215332	-0.455322	0.116442	-0.030901	0.009300	0.713497	0.140448	-0.675339	0.122938	35.387083	-86.597571	-13.910412
64513		10.527535	-3.288739	-0.085550	1.912326	-3.180784	0.573722	-0.541125	0.609081	-0.217054	-0.960693	-0.218994	-0.469238	0.105236	-0.033004	-0.001087	0.716047	0.138820	-0.673363	0.120781	33.493789	-86.244576	-12.327214
64514		9.471280	-1.974968	-0.092426	1.433059	-1.943529	-0.443434	-0.089717	0.592004	-0.295676	-0.947021	-0.219971	-0.475098	0.094680	-0.019890	-0.001196	0.718264	0.139083	-0.671111	0.119847	32.749681	-85.872694	-11.636138
64515		9.552900	-0.507048	0.648025	0.269401	-0.854796	-0.266403	0.023776	0.262924	-0.314728	-0.950195	-0.224121	-0.477295	0.095529	-0.005222	0.006354	0.719302	0.140012	-0.669956	0.118997	33.628193	-85.652997	-12.506537
64516		10.122969	0.469401	1.186241	-0.506602	-0.163713	0.376446	-0.043418	0.248253	-0.252896	-0.944092	-0.224121	-0.473633	0.101250	0.004569	0.011736	0.720301	0.140502	-0.668932	0.118132	34.077014	-85.458889	-12.984925
64517		9.630571	0.728135	1.432705	-0.823942	-0.003590	-0.083783	-0.278616	0.534306	-0.140409	-0.952393	-0.219238	-0.482666	0.096349	0.007233	0.014060	0.722350	0.139597	-0.667094	0.117088	32.631000	-85.164029	-11.697376
64518		8.685329	0.096359	1.559427	-0.747137	-0.608480	-1.040721	-0.407408	0.529830	-0.075100	-0.948486	-0.223389	-0.485352	0.086895	0.000962	0.015362	0.724428	0.138011	-0.665385	0.115844	30.929092	-84.888007	-10.226685
64519		8.727474	-0.272906	1.750008	-0.760512	-1.009968	-0.997510	-0.359857	0.234397	-0.082260	-0.941650	-0.219238	-0.486572	0.087294	-0.002734	0.017403	0.725488	0.136791	-0.664709	0.114529	30.363784	-84.753340	-9.869233
64520		9.484165	-0.309988	2.037041	-0.936754	-1.151248	-0.221435	-0.409481	0.062729	-0.057983	-0.941895	-0.215088	-0.493408	0.094847	-0.003086	0.020347	0.725996	0.135409	-0.664697	0.113018	30.193726	-84.710165	-9.937280
64521		9.917348	-0.479904	1.906387	-0.711738	-1.262489	0.193208	-0.504927	0.145553	0.000385	-0.944336	-0.212891	-0.497314	0.099187	-0.004751	0.019004	0.726805	0.133438	-0.664475	0.111459	29.406896	-84.642742	-9.440743
64522		9.498867	-0.489743	1.541857	-0.390406	-1.122499	-0.250620	-0.522676	0.334095	0.041228	-0.948486	-0.214844	-0.497070	0.095015	-0.004838	0.015273	0.728225	0.131159	-0.663597	0.110111	27.873502	-84.490470	-8.204713
64523		8.728845	-0.359714	1.149510	-0.113304	-0.834911	-1.041514	-0.525123	0.418708	0.054844	-0.940186	-0.199219	-0.512451	0.087313	-0.003543	0.011322	0.729910	0.128779	-0.662417	0.108862	26.127367	-84.295580	-6.755653
64524		8.136742	-0.253491	1.095677	-0.130518	-0.689447	-1.628624	-0.517553	0.352379	0.041377	-0.940918	-0.212158	-0.506592	0.081387	-0.002490	0.010820	0.731373	0.126505	-0.661457	0.107542	24.713563	-84.127561	-5.636167
64525		8.042026	-0.136560	1.150188	-0.210479	-0.579464	-1.711105	-0.518518	0.247745	0.024022	-0.940918	-0.198975	-0.524658	0.080435	-0.001326	0.011406	0.732490	0.124341	-0.660865	0.106091	23.685549	-84.008108	-4.904456
64526		8.209246	0.019723	1.140121	-0.221635	-0.417415	-1.538111	-0.511554	0.139240	0.003379	-0.933105	-0.195068	-0.513916	0.082100	0.000228	0.011344	0.733252	0.122328	-0.660646	0.104517	23.025906	-83.939554	-4.539204
64527		8.477245	0.079820	0.917093	0.004255	-0.282987	-1.290304	-0.559527	0.069517	-0.002619	-0.932861	-0.198242	-0.521729	0.084776	0.000823	0.009139	0.733809	0.120194	-0.660701	0.102721	22.523491	-83.906506	-4.359497
64528		8.592046	-0.016714	0.491118	0.452409	-0.237300	-1.221777	-0.587775	0.050737	-0.020323	-0.932129	-0.193359	-0.521729	0.085922	-0.000161	0.004890	0.734325	0.118022	-0.660822	0.100753	22.133682	-83.879039	-4.309562
64529		8.608844	-0.083514	0.260300	0.696906	-0.229051	-1.230801	-0.536994	0.057507	-0.052482	-0.937744	-0.189209	-0.521729	0.086089	-0.000851	0.002581	0.734842	0.116140	-0.660870	0.098839	21.920235	-83.841410	-4.407484
64530		8.585637	-0.142136	0.292924	0.685462	-0.297017	-1.253419	-0.481064	0.044133	-0.087380	-0.934082	-0.189453	-0.531006	0.085856	-0.001452	0.002914	0.735297	0.114584	-0.660913	0.096972	21.936234	-83.803095	-4.704210
64531		8.640922	-0.231761	0.287762	0.723580	-0.388285	-1.202942	-0.453793	-0.041878	-0.121940	-0.934570	-0.187500	-0.520752	0.086407	-0.002364	0.002901	0.735462	0.113284	-0.661236	0.095020	22.306017	-83.803214	-5.340850
64532		8.912185	-0.376782	0.212012	0.860513	-0.519669	-0.946832	-0.435313	-0.136225	-0.147497	-0.938965	-0.187988	-0.523682	0.089118	-0.003829	0.002189	0.735315	0.112180	-0.661878	0.092979	23.005515	-83.846588	-6.298679
64533		9.193443	-0.571421	-0.027413	1.162621	-0.657251	-0.698800	-0.379846	-0.162215	-0.167580	-0.939697	-0.182861	-0.514893	0.091930	-0.005792	-0.000189	0.735053	0.111358	-0.662577	0.091035	23.903793	-83.897952	-7.424156
64534		9.375783	-0.585755	-0.245113	1.383597	-0.631426	-0.539316	-0.260668	-0.116623	-0.194798	-0.930908	-0.183838	-0.523926	0.093753	-0.005952	-0.002389	0.734888	0.111043	-0.663035	0.089409	24.916198	-83.916864	-8.595830
64535		9.444155	-0.388397	-0.306419	1.389773	-0.446809	-0.468937	-0.157074	-0.069069	-0.214684	-0.929932	-0.185303	-0.520996	0.094438	-0.003988	-0.003028	0.734828	0.111153	-0.663261	0.088081	25.978748	-83.904230	-9.758068
64536		9.528951	-0.231480	-0.230985	1.282615	-0.339919	-0.370910	-0.121933	-0.048693	-0.222006	-0.938477	-0.189697	-0.525635	0.095287	-0.002422	-0.002285	0.734820	0.111407	-0.663389	0.086852	27.040543	-83.876698	-10.899632
64537		9.470829	-0.012599	-0.278239	1.261882	-0.136646	-0.423166	-0.116577	-0.054547	-0.225733	-0.936523	-0.187988	-0.525146	0.094709	-0.000234	-0.002756	0.734788	0.111696	-0.663535	0.085626	28.128438	-83.849168	-12.064126
64538		9.448549	0.166116	-0.323938	1.255826	0.026948	-0.440935	-0.098090	-0.033275	-0.229398	-0.936035	-0.182861	-0.520996	0.094488	0.001551	-0.003224	0.734819	0.112054	-0.663590	0.084457	29.177379	-83.807362	-13.179126
64539		9.342325	0.328028	-0.298608	1.179814	0.157716	-0.535892	-0.087926	-0.011964	-0.223318	-0.938965	-0.187744	-0.520264	0.093427	0.003175	-0.002982	0.734909	0.112422	-0.663567	0.083358	30.134633	-83.754831	-14.195873
64540		9.271894	0.197096	0.029825	0.897571	-0.075834	-0.582502	-0.098178	-0.021613	-0.210984	-0.944824	-0.202637	-0.516602	0.092721	0.001873	0.000307	0.734969	0.112713	-0.663589	0.082263	31.038963	-83.708745	-15.165844
64541		9.338800	0.116169	0.169091	0.794365	-0.213076	-0.507913	-0.108383	-0.065538	-0.217919	-0.937012	-0.194824	-0.523438	0.093389	0.001061	0.001721	0.734888	0.113009	-0.663772	0.081085	32.075720	-83.680365	-16.274539
64542		9.457840	0.172321	-0.032893	0.982313	-0.128594	-0.405244	-0.133732	-0.112901	-0.220897	-0.930908	-0.194824	-0.523438	0.094580	0.001619	-0.000277	0.734666	0.113242	-0.664136	0.079786	33.234455	-83.671426	-17.520614
64543		9.362160	-0.000205	-0.379556	1.346657	-0.218528	-0.542691	-0.162909	-0.085088	-0.214215	-0.937256	-0.201416	-0.518066	0.093623	-0.000105	-0.003756	0.734548	0.113334	-0.664412	0.078430	34.263507	-83.648904	-18.653064
64544		9.201043	-0.323724	-0.564539	1.592759	-0.495031	-0.740713	-0.104274	-0.031378	-0.230192	-0.938232	-0.200684	-0.521240	0.092008	-0.003346	-0.005629	0.734581	0.113672	-0.664458	0.077239	35.225170	-83.593537	-19.684148
64545		9.121396	-0.632402	-0.473972	1.581835	-0.834525	-0.833502	0.005905	-0.023319	-0.245075	-0.937500	-0.197754	-0.510498	0.091207	-0.006436	-0.004729	0.734581	0.114462	-0.664422	0.076365	36.269711	-83.527613	-20.735068
64546		9.122795	-0.866225	-0.407176	1.581367	-1.098669	-0.844204	0.044158	-0.059364	-0.236891	-0.935303	-0.202393	-0.519287	0.091219	-0.008769	-0.004047	0.734437	0.115377	-0.664508	0.075627	37.390828	-83.478769	-21.841295
64547		8.950273	-1.252876	-0.505459	1.758835	-1.455830	-1.053715	0.033999	-0.067298	-0.192951	-0.934326	-0.198486	-0.515137	0.089492	-0.012614	-0.005027	0.734254	0.116114	-0.664652	0.075012	38.342959	-83.446756	-22.783201
64548		8.648024	-1.632735	-0.651689	1.967093	-1.782838	-1.396580	0.080528	-0.040412	-0.154509	-0.937500	-0.202637	-0.515381	0.086469	-0.016392	-0.006506	0.734119	0.116880	-0.664701	0.074707	39.078803	-83.414903	-23.480944
64549		8.394225	-1.789471	-0.918141	2.238048	-1.860164	-1.686242	0.148299	-0.041920	-0.132126	-0.939697	-0.208496	-0.513428	0.083932	-0.017943	-0.009177	0.733929	0.117825	-0.664743	0.074711	39.767376	-83.390890	-24.091725
64550		8.357334	-1.590122	-1.172995	2.425359	-1.605573	-1.732515	0.279540	-0.080618	-0.134271	-0.932861	-0.213135	-0.512207	0.083567	-0.015941	-0.011719	0.733534	0.119270	-0.664876	0.075119	40.657195	-83.382114	-24.829641
64551		8.504238	-1.110074	-1.339511	2.469882	-1.112258	-1.565798	0.365081	-0.079226	-0.120112	-0.932861	-0.216797	-0.512207	0.085041	-0.011127	-0.013382	0.733084	0.120982	-0.664978	0.075864	41.537863	-83.376694	-25.508794
64552		8.445839	-0.693306	-1.471950	2.477167	-0.675861	-1.603768	0.339327	-0.005520	-0.089109	-0.931641	-0.218506	-0.510742	0.084456	-0.006946	-0.014729	0.732881	0.122469	-0.664836	0.076683	42.044968	-83.350729	-25.826760
64553		8.081717	-0.754023	-1.299275	2.293992	-0.764409	-1.956220	0.304882	0.030536	-0.064471	-0.936768	-0.218994	-0.513672	0.080813	-0.007546	-0.013017	0.732807	0.123733	-0.664589	0.077498	42.322046	-83.318633	-25.933005
64554		8.052275	-0.764914	-1.113017	2.117229	-0.826112	-1.970627	0.330952	-0.053532	-0.054801	-0.934814	-0.230713	-0.504395	0.080524	-0.007653	-0.011121	0.732432	0.125092	-0.664644	0.078384	42.854506	-83.325774	-26.281433
64555		8.566007	-0.669347	-0.521955	1.573440	-0.933740	-1.401425	0.387448	-0.168905	-0.049150	-0.933105	-0.217773	-0.508301	0.085663	-0.006704	-0.005160	0.731634	0.126685	-0.665100	0.079405	43.791804	-83.382595	-27.004733
64556		9.482223	-1.043698	1.185089	0.139861	-1.844272	-0.379482	0.551798	-0.124098	-0.050508	-0.936768	-0.220703	-0.500732	0.094812	-0.010494	0.011881	0.730876	0.128865	-0.665322	0.080997	44.685540	-83.419311	-27.589295
64557		12.219005	0.348897	4.427749	-3.071289	-1.658320	2.711193	1.022962	-0.080940	-0.133098	-0.937988	-0.237061	-0.505127	0.122174	0.003181	0.044344	0.729979	0.133022	-0.665131	0.083880	45.992451	-83.403512	-28.318038
64558		17.310914	6.349621	6.711189	-6.578584	2.989974	8.430274	0.808798	-0.535500	-0.037467	-0.940674	-0.235107	-0.489502	0.172940	0.063190	0.067831	0.727655	0.136265	-0.666737	0.086096	48.533743	-83.602135	-30.412624
64559		15.485355	7.667258	5.709999	-6.322940	4.675260	6.599096	-0.638647	-0.628810	0.755031	-0.940430	-0.225586	-0.487549	0.154382	0.077439	0.057339	0.725643	0.131638	-0.669825	0.086303	47.959502	-84.170773	-30.206265
64560		10.716305	1.593400	0.357853	0.096766	0.905607	0.988966	-1.775653	-0.404906	0.927210	-0.936523	-0.207275	-0.490723	0.107080	0.016463	0.003651	0.725005	0.122202	-0.672657	0.083468	44.869696	-84.721578	-28.127350
64561		9.276177	-1.581849	-1.132976	2.239244	-1.580750	-0.739675	-1.338768	-0.716234	0.591263	-0.946777	-0.199951	-0.483643	0.092848	-0.015618	-0.010892	0.723130	0.115600	-0.676172	0.080688	44.615211	-85.257339	-28.645034
64562		10.330558	-3.649969	-0.702396	2.380505	-3.730465	0.234816	-0.414526	-0.646990	0.052161	-0.947754	-0.196289	-0.477295	0.103337	-0.036487	-0.006614	0.721144	0.114129	-0.678724	0.079119	47.393038	-85.542178	-31.673285
64563		12.309156	-3.027270	0.599431	1.026148	-3.594935	2.314229	0.641705	-0.654329	-0.151882	-0.953613	-0.195557	-0.468262	0.123048	-0.030386	0.006300	0.718597	0.117161	-0.680756	0.080394	52.211141	-85.723879	-36.139798
64564		14.088617	-1.758352	2.130544	-0.729301	-2.907827	4.227707	0.747793	-0.358352	0.054586	-0.955811	-0.208740	-0.461182	0.140853	-0.017625	0.021492	0.716898	0.119748	-0.681790	0.082944	54.597103	-85.877752	-38.105716
64565		13.852068	-1.805379	2.967320	-1.532442	-3.163640	4.028803	0.524835	0.254161	0.393132	-0.958740	-0.201660	-0.467529	0.138593	-0.017859	0.029450	0.717269	0.120128	-0.680914	0.086313	51.325827	-85.976071	-34.527833
64566		12.274989	-1.494749	3.222671	-1.919857	-2.818993	2.502430	0.751777	0.397931	0.612714	-0.950439	-0.200928	-0.475342	0.122859	-0.014692	0.031927	0.717885	0.120511	-0.679542	0.091328	45.894773	-86.094927	-28.654852
64567		10.661890	-0.249698	3.114143	-2.250348	-1.484594	0.965428	0.834106	0.283194	0.687522	-0.958740	-0.192627	-0.476807	0.106671	-0.002260	0.030981	0.718006	0.120982	-0.678570	0.096818	40.362430	-86.251750	-22.634339
64568		9.886114	0.386860	2.294243	-1.706289	-0.553666	0.183825	0.632805	0.118819	0.685114	-0.952393	-0.196777	-0.473145	0.098861	0.004135	0.022896	0.717675	0.120813	-0.678264	0.101515	35.138529	-86.443687	-17.039765
64569		10.392693	0.876635	1.560905	-1.153947	0.179469	0.668197	0.657727	-0.136336	0.586924	-0.966553	-0.190918	-0.472656	0.103890	0.009020	0.015709	0.716496	0.121196	-0.678788	0.105787	31.467342	-86.698871	-12.987623
64570		11.478919	1.925978	0.921634	-0.857324	1.400442	1.747067	0.699278	-0.121864	0.413204	-0.963379	-0.191650	-0.464600	0.114743	0.019464	0.009354	0.715421	0.122308	-0.679120	0.109586	28.753382	-86.882778	-9.871100
64571		11.881587	2.684180	0.417171	-0.626886	2.310737	2.137977	0.524321	0.176432	0.304039	-0.960938	-0.190918	-0.461426	0.118779	0.027012	0.004138	0.715515	0.122999	-0.678406	0.112580	25.275373	-86.876455	-6.090208
64572		10.991680	2.479222	0.172159	-0.370084	2.238825	1.225599	0.281450	0.342042	0.245855	-0.958008	-0.199219	-0.467529	0.109889	0.024925	0.001569	0.716347	0.122925	-0.677195	0.114645	21.616451	-86.756992	-2.266984
64573		10.274029	2.467700	0.462896	-0.662772	2.161513	0.519207	0.313691	0.298711	0.134482	-0.960205	-0.188232	-0.474121	0.102730	0.024739	0.004514	0.717072	0.123367	-0.676049	0.116390	19.417118	-86.627734	0.112911
64574		10.051662	2.493971	0.775754	-0.967689	2.096448	0.312828	0.210519	0.139827	0.072550	-0.947754	-0.188965	-0.468262	0.100513	0.024968	0.007714	0.717358	0.123744	-0.675490	0.117469	18.348607	-86.569069	1.301380
64575		10.077513	1.871624	0.929605	-0.898805	1.464529	0.334761	0.073377	0.027409	0.017534	-0.954102	-0.192627	-0.472168	0.100775	0.018722	0.009289	0.717380	0.123877	-0.675381	0.117815	18.058259	-86.561134	1.631229
64576		10.372361	1.355166	0.682193	-0.477581	1.058956	0.605482	0.137997	-0.060787	-0.063094	-0.952393	-0.193604	-0.466309	0.103726	0.013514	0.006863	0.717113	0.124568	-0.675500	0.118037	18.801806	-86.586388	0.962645
64577		10.584502	1.092558	0.434271	-0.148182	0.883574	0.799158	0.217765	-0.059305	-0.129982	-0.959717	-0.203613	-0.471924	0.105851	0.010852	0.004386	0.716838	0.125768	-0.675525	0.118288	20.205051	-86.597520	-0.321232
64578		10.479239	0.902650	0.059756	0.264448	0.817012	0.670410	0.261978	0.060277	-0.174325	-0.955322	-0.203613	-0.467773	0.104800	0.008934	0.000578	0.716965	0.127210	-0.675064	0.118606	21.618246	-86.533485	-1.589231
64579		9.896829	0.883716	-0.205300	0.501959	0.878492	0.073998	0.364254	0.246843	-0.204039	-0.947754	-0.206787	-0.471436	0.098975	0.008740	-0.002159	0.717671	0.129003	-0.673854	0.119279	22.629272	-86.362635	-2.396235
64580		9.320924	1.204122	0.163334	0.035702	1.044403	-0.471163	0.429508	0.291366	-0.174196	-0.955566	-0.206787	-0.473877	0.093222	0.011957	0.001523	0.718463	0.130907	-0.672458	0.120309	23.210798	-86.174002	-2.735002
64581		9.075460	1.435976	0.559782	-0.411804	1.116808	-0.684572	0.372751	0.187269	-0.110058	-0.956055	-0.215332	-0.478027	0.090768	0.014299	0.005540	0.718898	0.132449	-0.671511	0.121308	23.573365	-86.054799	-2.887482
64582		9.146380	1.472196	0.687445	-0.528323	1.101277	-0.603764	0.298283	0.107560	-0.030719	-0.954102	-0.212891	-0.477539	0.091470	0.014698	0.006847	0.719066	0.133508	-0.670944	0.122290	23.548840	-85.995368	-2.694356
64583		9.168939	1.451298	0.688015	-0.510627	1.083307	-0.581503	0.234833	0.184569	0.014057	-0.953125	-0.214600	-0.478516	0.091695	0.014511	0.006813	0.719504	0.134138	-0.670168	0.123270	22.916473	-85.905665	-1.928661
64584		8.878182	1.223467	0.668249	-0.413728	0.888251	-0.879305	0.168018	0.330326	0.057203	-0.954834	-0.213867	-0.478760	0.088789	0.012255	0.006546	0.720448	0.134295	-0.668935	0.124280	21.544341	-85.746814	-0.459212
64585		8.481555	1.046907	0.843424	-0.516391	0.676542	-1.267531	0.174703	0.419295	0.071545	-0.949463	-0.212402	-0.479004	0.084829	0.010492	0.008266	0.721672	0.134370	-0.667385	0.125422	19.953328	-85.540734	1.233653
64586		8.302002	1.072193	1.143407	-0.790159	0.607037	-1.422974	0.202554	0.390113	0.056578	-0.949707	-0.218750	-0.483398	0.083039	0.010734	0.011283	0.722786	0.134615	-0.665910	0.126584	18.689847	-85.344379	2.614733
64587		8.576433	1.252107	1.158993	-0.824987	0.781924	-1.142382	0.177230	0.266355	0.042401	-0.939209	-0.215576	-0.488281	0.085777	0.012529	0.011487	0.723511	0.134892	-0.664886	0.127525	17.865346	-85.210935	3.540790
64588		9.154609	1.355320	0.958903	-0.612257	0.964005	-0.579104	0.112797	0.209315	0.046477	-0.955078	-0.211426	-0.492188	0.091553	0.013569	0.009501	0.724087	0.134962	-0.664109	0.128230	17.139946	-85.108106	4.330966
64589		9.325843	1.214270	0.717936	-0.300827	0.936502	-0.432197	0.041461	0.373521	0.064301	-0.947021	-0.222168	-0.491699	0.093268	0.012171	0.007008	0.725242	0.134605	-0.662796	0.128871	15.994501	-84.917166	5.501464
64590		8.845577	1.095127	0.570055	-0.127177	0.896828	-0.927428	0.037886	0.542207	0.066040	-0.943359	-0.216553	-0.502930	0.088467	0.010979	0.005463	0.726953	0.134124	-0.660869	0.129621	14.657894	-84.630964	6.862692
64591		8.367336	1.199759	0.739770	-0.326802	0.948578	-1.386998	0.080051	0.534494	0.050889	-0.939209	-0.210693	-0.504883	0.083690	0.012016	0.007179	0.728615	0.133846	-0.658930	0.130448	13.575859	-84.344524	7.992682
64592		8.305011	1.491723	0.770099	-0.433839	1.225864	-1.440086	0.051258	0.405017	0.033408	-0.936523	-0.213379	-0.510498	0.083063	0.014929	0.007537	0.729878	0.133606	-0.657464	0.131029	12.837580	-84.126045	8.761264
64593		8.286142	1.626260	0.483620	-0.192058	1.470808	-1.485712	-0.023431	0.367106	0.031407	-0.929443	-0.212646	-0.515625	0.082868	0.016276	0.004682	0.731064	0.133123	-0.656183	0.131331	12.163784	-83.927885	9.422089
64594		7.936839	1.436572	0.240892	0.093702	1.392685	-1.864936	-0.066503	0.409788	0.036331	-0.927734	-0.215088	-0.521729	0.079370	0.014381	0.002242	0.732415	0.132439	-0.654772	0.131538	11.439793	-83.705143	10.108964
64595		7.591282	1.308278	0.125731	0.236339	1.323091	-2.226616	-0.010643	0.354207	0.027748	-0.931641	-0.217773	-0.518799	0.075913	0.013093	0.001122	0.733547	0.132023	-0.653523	0.131859	10.889217	-83.512279	10.653694
64596		7.505913	1.552856	0.047118	0.228227	1.587946	-2.317446	0.063593	0.214685	0.027363	-0.935303	-0.213623	-0.523926	0.075057	0.015539	0.000396	0.734175	0.131976	-0.652732	0.132329	10.541406	-83.397068	11.037694
64597		7.568504	1.810438	-0.013140	0.205406	1.858680	-2.258667	0.070036	0.118966	0.052977	-0.931152	-0.214111	-0.525879	0.075680	0.018124	-0.000170	0.734467	0.131928	-0.652307	0.132850	10.166448	-83.338554	11.452422
64598		7.637613	1.796096	-0.080964	0.284154	1.879580	-2.200062	0.053605	0.068281	0.084735	-0.935059	-0.209961	-0.532227	0.076368	0.017994	-0.000831	0.734584	0.131752	-0.652098	0.133401	9.680260	-83.311154	11.969926
64599		7.675963	1.635690	-0.276487	0.526565	1.811965	-2.189575	0.026506	0.010344	0.116316	-0.931396	-0.212158	-0.533691	0.076750	0.016402	-0.002767	0.734508	0.131410	-0.652142	0.133941	9.073224	-83.319149	12.593254
64600		7.675343	1.430599	-0.546072	0.845662	1.730132	-2.226701	0.010188	-0.024352	0.144556	-0.926270	-0.210938	-0.527100	0.076744	0.014362	-0.005451	0.734312	0.130940	-0.652341	0.134508	8.345018	-83.347964	13.329087
64601		7.705707	1.148092	-0.713864	1.100827	1.541214	-2.222005	-0.028089	-0.033928	0.173966	-0.925049	-0.201172	-0.521973	0.077048	0.011547	-0.007127	0.734087	0.130239	-0.652621	0.135052	7.449017	-83.383747	14.211771
64602		7.795395	0.786204	-0.761119	1.278769	1.237373	-2.144621	-0.069353	-0.063380	0.204214	-0.933838	-0.211670	-0.525391	0.077948	0.007939	-0.007589	0.733774	0.129309	-0.653055	0.135553	6.389055	-83.436359	15.235628
64603		8.164403	0.418951	-0.546948	1.242966	0.842039	-1.757992	-0.073844	-0.135959	0.231545	-0.925781	-0.193359	-0.521484	0.081643	0.004282	-0.005416	0.733205	0.128320	-0.653776	0.136093	5.204402	-83.529877	16.382247
64604		8.645289	0.136952	-0.506267	1.340004	0.593777	-1.276421	-0.060102	-0.208672	0.242172	-0.935303	-0.196777	-0.511230	0.086456	0.001473	-0.004973	0.732381	0.127399	-0.654759	0.136669	3.968142	-83.662466	17.588521
64605		8.933666	0.080662	-0.689921	1.536741	0.631801	-1.007457	-0.006791	-0.185073	0.230628	-0.939941	-0.188232	-0.516846	0.089342	0.000909	-0.006817	0.731606	0.126692	-0.655611	0.137393	2.763274	-83.778443	18.793594
64606		9.045193	0.203264	-0.406382	1.226299	0.661888	-0.863942	0.178389	0.017257	0.189194	-0.940430	-0.193604	-0.519775	0.090450	0.002122	-0.004070	0.731403	0.126659	-0.655569	0.138699	1.810068	-83.775254	19.852047
64607		8.881515	1.086275	0.250711	0.276041	1.250429	-0.953547	0.388467	0.153315	0.110326	-0.929688	-0.193359	-0.522461	0.088811	0.010907	0.002460	0.731566	0.127558	-0.654830	0.140492	1.375482	-83.691367	20.510006
64608		8.474543	2.278562	0.356414	-0.307168	2.309769	-1.344667	0.337682	0.065888	0.054127	-0.940186	-0.201660	-0.522949	0.084740	0.022803	0.003575	0.731512	0.128517	-0.654408	0.141855	1.224678	-83.656332	20.853128
64609		8.273933	3.153882	-0.037532	-0.303963	3.261289	-1.586027	0.095694	-0.145793	0.049467	-0.935791	-0.188721	-0.516113	0.082732	0.031559	-0.000300	0.730923	0.128756	-0.654929	0.142275	0.978026	-83.742507	21.153289
64610		8.811898	3.370007	0.769702	-1.092015	3.179187	-0.964006	-0.095179	-0.246959	0.056631	-0.938232	-0.186035	-0.513916	0.088100	0.033729	0.007790	0.730119	0.128346	-0.655958	0.142029	0.584135	-83.886482	21.491389
64611		10.937088	2.527076	4.406122	-3.939971	1.121034	1.529259	-0.167925	-0.276971	0.017308	-0.930420	-0.193848	-0.513184	0.109308	0.025317	0.044191	0.729290	0.127819	-0.657122	0.141383	0.344158	-84.047294	21.632802
64612		16.276094	-0.002543	10.185747	-7.893532	-3.203077	7.394600	-0.273313	-0.879941	-0.212411	-0.936768	-0.186279	-0.506592	0.162311	-0.000058	0.102572	0.726701	0.128088	-0.660404	0.139162	1.421990	-84.551546	20.388821
64613		20.070682	-4.569924	10.246303	-6.212126	-7.453620	11.032785	-0.868504	-2.113765	-0.390693	-0.944336	-0.197998	-0.489990	0.199518	-0.045638	0.104774	0.720485	0.127631	-0.668417	0.133531	4.183892	-85.753030	17.114625
64614		16.120737	-4.405373	0.143413	2.524737	-3.847479	6.253607	-0.685260	-0.954864	-0.123037	-0.964844	-0.186279	-0.475830	0.161170	-0.044146	0.002355	0.717789	0.126155	-0.672244	0.130202	5.371580	-86.294360	15.527207
64615		10.372614	-2.371401	-6.624878	7.716242	0.332243	0.059069	-0.101591	1.016078	-0.118951	-0.939941	-0.178955	-0.488770	0.103374	-0.023809	-0.066762	0.721321	0.125473	-0.668602	0.130092	5.412049	-85.710932	15.425151
64616		7.194750	0.411052	-2.570364	2.779242	1.441458	-2.831418	1.033892	0.378598	-0.437823	-0.950195	-0.196533	-0.488525	0.071908	0.004086	-0.025819	0.722196	0.130360	-0.666301	0.132221	8.802163	-85.467197	12.615480
64617		12.657848	6.461673	2.128480	-3.414688	5.362452	3.074683	1.311274	-0.788818	-0.843535	-0.951660	-0.199951	-0.476563	0.126763	0.063939	0.022205	0.719229	0.138368	-0.667731	0.133043	16.975574	-85.804005	5.168748
64618		16.081727	12.886314	5.786692	-9.010500	9.862528	6.911733	-0.448309	-0.251504	-0.210494	-0.951904	-0.206299	-0.475586	0.160880	0.128823	0.057780	0.718822	0.137568	-0.668810	0.130631	18.836151	-85.907928	3.042078
64619		13.322421	6.827375	3.879270	-5.081729	5.049570	3.892037	-2.702667	0.575685	0.190539	-0.956787	-0.200684	-0.493408	0.133268	0.068913	0.037481	0.722397	0.126774	-0.668596	0.122680	14.518995	-85.626918	5.815135
64620		10.513329	0.191418	2.273245	-1.375820	-0.489133	0.845718	-2.097757	0.535864	0.136279	-0.951660	-0.184814	-0.507324	0.105192	0.002222	0.022428	0.725379	0.118352	-0.668016	0.116507	11.409854	-85.348288	7.724843
64621		9.455855	-2.537270	2.263800	-0.557560	-3.034886	-0.249517	-1.549747	0.100283	-0.253768	-0.951416	-0.169189	-0.503662	0.094538	-0.025316	0.022787	0.726741	0.113462	-0.668406	0.110485	12.041184	-85.265695	6.197321
64622		9.987785	-3.719460	2.080924	-0.017078	-4.115593	0.236275	-1.187967	-0.217849	-0.477905	-0.950928	-0.168701	-0.510254	0.099766	-0.037308	0.021139	0.726925	0.110801	-0.669588	0.104667	14.877156	-85.326273	2.664874
64623		10.853843	-3.989020	1.025365	1.089560	-4.102931	0.992307	-0.919988	-0.142792	-0.543912	-0.949219	-0.175781	-0.503662	0.108422	-0.040137	0.010515	0.727216	0.109297	-0.670299	0.099549	18.217640	-85.319627	-1.218780
64624		10.814352	-3.512578	-0.099183	2.004484	-3.376063	0.858874	-0.559231	0.126790	-0.506168	-0.946045	-0.174072	-0.503418	0.108054	-0.035402	-0.000962	0.728183	0.108835	-0.669854	0.095919	20.818452	-85.157720	-4.154022
64625		10.358121	-2.343600	0.126051	1.437362	-2.363142	0.441500	-0.128323	0.240688	-0.441954	-0.942627	-0.177246	-0.512207	0.103531	-0.023664	0.001151	0.729255	0.109678	-0.668817	0.094030	22.805725	-84.939738	-6.225677
64626		10.122994	-0.948081	1.227703	0.002949	-1.371424	0.336210	0.183056	0.247325	-0.372805	-0.952148	-0.180908	-0.511230	0.101227	-0.009681	0.012143	0.730144	0.111416	-0.667643	0.093435	24.387732	-84.728364	-7.712595
64627		10.157502	-0.211536	2.132193	-1.037623	-0.944396	0.473092	0.038592	0.195621	-0.125139	-0.945068	-0.181641	-0.512207	0.101594	-0.002183	0.021222	0.730819	0.111829	-0.666862	0.093236	24.556265	-84.601051	-7.862799
64628		10.343059	-0.231000	2.400387	-1.260558	-1.034932	0.681785	-0.281067	0.044881	0.128927	-0.939453	-0.183594	-0.512695	0.103437	-0.002210	0.023984	0.731053	0.110291	-0.666921	0.092812	23.511830	-84.612013	-6.979270
64629		10.279358	-1.037092	1.484431	-0.174804	-1.517526	0.512560	-0.608784	-0.018341	0.278655	-0.947754	-0.157959	-0.514893	0.102806	-0.010182	0.014885	0.731180	0.107089	-0.667442	0.091809	21.574911	-84.687171	-5.387356
64630		9.862037	-1.586440	0.510299	0.857254	-1.734546	0.000229	-0.577949	0.111955	0.321187	-0.948730	-0.160156	-0.516846	0.098649	-0.015691	0.005093	0.731700	0.103789	-0.667486	0.091131	19.081973	-84.694863	-3.220392
64631		9.083766	-1.750886	0.438119	0.898491	-1.836244	-0.779792	-0.380530	0.231223	0.277367	-0.941162	-0.155518	-0.519287	0.090867	-0.017375	0.004309	0.732526	0.101310	-0.666976	0.091015	16.750605	-84.621499	-1.100983
64632		8.520713	-1.420150	1.035677	0.192554	-1.650294	-1.272700	-0.207086	0.232201	0.209892	-0.948242	-0.161377	-0.533203	0.085234	-0.014101	0.010272	0.733297	0.099683	-0.666345	0.091228	14.964589	-84.529838	0.569760
64633		8.311345	-1.209943	1.460468	-0.282476	-1.539112	-1.432551	-0.249092	0.172209	0.164177	-0.943848	-0.150635	-0.526123	0.083136	-0.012013	0.014548	0.733905	0.098089	-0.665929	0.091105	13.562714	-84.460854	1.831601
64634		8.366505	-1.261127	1.163928	0.023063	-1.493030	-1.403532	-0.304538	0.065064	0.097614	-0.947510	-0.148682	-0.526367	0.083675	-0.012553	0.011631	0.734215	0.096557	-0.665894	0.090498	12.677668	-84.440102	2.541753
64635		8.580115	-1.225874	0.652201	0.523925	-1.315000	-1.236979	-0.230957	0.028157	0.035667	-0.947754	-0.145020	-0.524902	0.085804	-0.012236	0.006524	0.734390	0.095523	-0.665932	0.089894	12.243418	-84.432052	2.841956
64636		8.564105	-1.271071	0.539777	0.644347	-1.324939	-1.263990	-0.134670	0.109424	0.004449	-0.950195	-0.144531	-0.525879	0.085644	-0.012705	0.005359	0.734804	0.094905	-0.665612	0.089532	11.943740	-84.374358	3.061789
64637		8.416987	-1.196379	0.737837	0.430299	-1.301253	-1.389923	-0.049948	0.174872	-0.020516	-0.944092	-0.149658	-0.528809	0.084175	-0.011971	0.007308	0.735405	0.094657	-0.665003	0.089393	11.763211	-84.277118	3.211299
64638		8.243320	-1.157461	1.073459	0.093666	-1.348636	-1.529164	0.001109	0.162276	-0.028178	-0.941895	-0.151123	-0.526367	0.082440	-0.011586	0.010668	0.735944	0.094625	-0.664411	0.089388	11.673134	-84.185777	3.298919
64639		8.180796	-1.019868	1.109897	0.027584	-1.224334	-1.584829	0.001565	0.102156	-0.034770	-0.943848	-0.148682	-0.530518	0.081812	-0.010213	0.011057	0.736284	0.094646	-0.664038	0.089334	11.689882	-84.127640	3.279836
64640		8.074857	-0.804227	0.931225	0.141230	-0.970525	-1.703717	-0.018905	0.102182	-0.042946	-0.940918	-0.146484	-0.529541	0.080752	-0.008059	0.009272	0.736640	0.094617	-0.663669	0.089180	11.738616	-84.068249	3.216565
64641		7.872679	-0.687732	0.627141	0.391711	-0.781208	-1.933498	-0.034054	0.128152	-0.055121	-0.948975	-0.151855	-0.537109	0.078729	-0.006898	0.006222	0.737092	0.094562	-0.663206	0.088945	11.813734	-83.993149	3.118270
64642		7.590654	-0.596711	0.481291	0.488834	-0.659012	-2.227671	-0.029145	0.118283	-0.080664	-0.948975	-0.138916	-0.540771	0.075907	-0.005997	0.004769	0.737522	0.094613	-0.662764	0.088626	12.034253	-83.920222	2.876253
64643		7.576383	-0.529385	0.323854	0.628439	-0.558925	-2.257598	-0.012696	0.038375	-0.129523	-0.943359	-0.150635	-0.539063	0.075761	-0.005343	0.003224	0.737698	0.094924	-0.662587	0.088145	12.605535	-83.886185	2.291256
64644		7.803884	-0.390659	0.177285	0.759252	-0.396787	-2.044114	-0.005051	-0.066127	-0.166587	-0.941162	-0.153076	-0.540039	0.078035	-0.003972	0.001799	0.737543	0.095427	-0.662772	0.087499	13.494747	-83.904575	1.390331
64645		8.315106	-0.273677	0.054986	0.896837	-0.266117	-1.545660	-0.017028	-0.122630	-0.189382	-0.942139	-0.152832	-0.540771	0.083148	-0.002815	0.000601	0.737214	0.095991	-0.663162	0.086707	14.579088	-83.949870	0.286909
64646		8.724250	-0.303201	-0.162272	1.150650	-0.255911	-1.161602	-0.065248	-0.100593	-0.187245	-0.944092	-0.149170	-0.535156	0.087240	-0.003114	-0.001578	0.736981	0.096357	-0.663489	0.085770	15.607249	-83.980811	-0.788093
64647		9.050313	-0.448717	-0.263113	1.315704	-0.389125	-0.851872	-0.058565	-0.056968	-0.202029	-0.940918	-0.157227	-0.529541	0.090499	-0.004579	-0.002604	0.736893	0.096781	-0.663647	0.084824	16.659737	-83.983650	-1.883305
64648		9.166295	-0.501928	-0.298623	1.378242	-0.450381	-0.742978	0.028633	0.021858	-0.226728	-0.940430	-0.148682	-0.534668	0.091657	-0.005123	-0.002997	0.737036	0.097572	-0.663463	0.084113	17.758777	-83.936778	-2.975515
64649		9.073828	-0.549709	-0.250169	1.345248	-0.527489	-0.834318	0.107904	0.114419	-0.267158	-0.941895	-0.156250	-0.536865	0.090729	-0.005617	-0.002557	0.737461	0.098753	-0.662885	0.083562	18.931274	-83.830227	-4.095696
64650		8.877932	-0.570830	-0.089137	1.192974	-0.607997	-1.017317	0.149260	0.158251	-0.302632	-0.935059	-0.165283	-0.540527	0.088770	-0.005842	-0.000966	0.738025	0.100181	-0.662109	0.083037	20.181105	-83.690503	-5.270687
64651		8.633534	-0.708536	0.034707	1.102301	-0.792737	-1.257130	0.190022	0.140273	-0.331096	-0.935303	-0.163330	-0.539307	0.086324	-0.007229	0.000280	0.738517	0.101865	-0.661365	0.082534	21.570345	-83.551888	-6.562179
64652		8.645474	-0.847360	0.137078	1.057988	-0.978707	-1.245090	0.232432	0.066659	-0.355053	-0.937744	-0.175781	-0.543701	0.086440	-0.008629	0.001332	0.738752	0.103812	-0.660861	0.082044	23.177779	-83.443149	-8.049566
64653		8.969332	-0.936514	0.068225	1.195241	-1.080049	-0.939389	0.265078	-0.012517	-0.350552	-0.933594	-0.175049	-0.537842	0.089677	-0.009523	0.000675	0.738702	0.105899	-0.660635	0.081639	24.896737	-83.372243	-9.630229
64654		9.180139	-1.120983	-0.258336	1.588882	-1.202798	-0.777923	0.264552	-0.007332	-0.307720	-0.933838	-0.183350	-0.540771	0.091784	-0.011348	-0.002595	0.738651	0.107838	-0.660410	0.081391	26.379256	-83.304089	-10.973719
64655		9.120009	-1.267812	-0.697673	2.050239	-1.247655	-0.895934	0.286111	0.009971	-0.260851	-0.929443	-0.183838	-0.534668	0.091183	-0.012787	-0.007000	0.738621	0.109697	-0.660136	0.081398	27.607128	-83.235770	-12.048198
64656		9.093700	-1.404094	-1.089267	2.466482	-1.289047	-0.974805	0.402601	-0.016833	-0.230261	-0.927002	-0.197266	-0.539795	0.090922	-0.014124	-0.010913	0.738425	0.111893	-0.659927	0.081886	28.809496	-83.186531	-13.030233
64657		9.364554	-1.348436	-1.219454	2.612675	-1.220199	-0.719545	0.587909	-0.079841	-0.221509	-0.925049	-0.200928	-0.531738	0.093635	-0.013552	-0.012197	0.737907	0.114772	-0.659875	0.082984	30.217501	-83.168629	-14.112185
64658		9.772285	-1.062721	-0.963944	2.338778	-1.040425	-0.273099	0.754009	-0.114917	-0.188568	-0.931885	-0.206055	-0.533447	0.097718	-0.010683	-0.009624	0.737155	0.118167	-0.659893	0.084730	31.665259	-83.174418	-15.138404
64659		10.124731	-0.967181	-0.738124	2.137399	-1.031986	0.104821	0.713923	-0.065650	-0.106497	-0.931396	-0.211182	-0.529785	0.101245	-0.009699	-0.007383	0.736544	0.121122	-0.659787	0.086674	32.634853	-83.178806	-15.706104
64660		10.246889	-1.214342	-0.786328	2.271373	-1.257290	0.204885	0.665597	-0.010749	-0.023795	-0.922119	-0.208496	-0.521484	0.102468	-0.012129	-0.007898	0.736100	0.123599	-0.659542	0.088795	33.100313	-83.181675	-15.794066
64661		10.079350	-1.355094	-1.171624	2.665709	-1.260878	-0.009298	0.661113	0.032247	0.024809	-0.933838	-0.213623	-0.520996	0.100793	-0.013500	-0.011777	0.735770	0.125881	-0.659164	0.091106	33.257325	-83.179076	-15.573863
64662		9.869502	-1.393288	-1.544701	3.012856	-1.159858	-0.256965	0.651330	0.018796	0.057250	-0.928467	-0.220215	-0.524414	0.098698	-0.013854	-0.015501	0.735378	0.128022	-0.658853	0.093495	33.312037	-83.193346	-15.256463
64663		9.663651	-1.242656	-1.783123	3.172845	-0.917284	-0.474514	0.667927	0.014219	0.037198	-0.927002	-0.212402	-0.523682	0.096638	-0.012349	-0.017879	0.734963	0.130294	-0.658531	0.095861	33.470262	-83.203376	-15.033559
64664		9.755697	-0.931693	-1.643345	2.958110	-0.653799	-0.348841	0.720434	0.016732	-0.012876	-0.927734	-0.226563	-0.523682	0.097555	-0.009264	-0.016475	0.734537	0.132917	-0.658135	0.098216	33.850212	-83.196620	-15.003941
64665		10.024031	-0.650417	-1.041190	2.336036	-0.583587	-0.005003	0.723025	-0.004884	-0.072744	-0.925537	-0.235840	-0.523438	0.100238	-0.006503	-0.010433	0.734058	0.135759	-0.657768	0.100344	34.529245	-83.180672	-15.273749
64666		10.715482	-0.427252	-0.049885	1.415871	-0.729645	0.792476	0.777880	-0.037681	-0.162744	-0.928223	-0.235596	-0.522217	0.107151	-0.004358	-0.000496	0.733469	0.139112	-0.657424	0.102300	35.677184	-83.150092	-15.984191
64667		12.348048	-0.099759	2.539114	-0.907804	-1.383861	2.684986	1.108385	0.152798	-0.257955	-0.923096	-0.249756	-0.522217	0.123498	-0.001297	0.025290	0.733307	0.143890	-0.656129	0.105121	36.832240	-82.997391	-16.511168
64668		16.242390	4.014694	6.233892	-5.260865	0.951507	7.222875	1.275734	0.314736	-0.423930	-0.923828	-0.258789	-0.512695	0.162606	0.039405	0.062336	0.733614	0.149733	-0.654008	0.107997	38.189360	-82.711951	-17.145456
64669		18.637229	11.111533	8.016096	-9.141357	6.735559	10.340167	0.819225	0.077483	0.185854	-0.924561	-0.257324	-0.519775	0.186300	0.110959	0.080543	0.733134	0.152034	-0.653439	0.111434	37.754467	-82.747888	-16.237012
64670		12.276516	7.196517	4.995276	-5.691577	4.512642	3.404474	-1.221414	0.564722	0.776403	-0.912842	-0.243896	-0.519531	0.122623	0.072743	0.049164	0.735440	0.144646	-0.652643	0.110736	32.696929	-82.745412	-11.847320
64671		8.114696	2.127166	0.646045	-0.340990	1.580344	-1.555794	-0.981254	0.155425	0.698904	-0.916504	-0.230469	-0.515625	0.081077	0.021586	0.006292	0.736242	0.138615	-0.653132	0.110234	29.008636	-82.879287	-8.699659
64672		8.835586	1.494141	0.474234	0.101639	1.078925	-0.904810	-0.304926	-0.532835	0.383504	-0.922607	-0.232422	-0.511719	0.088314	0.015118	0.004955	0.734484	0.136479	-0.655546	0.110300	28.414832	-83.257374	-8.280565
64673		10.187583	-0.585046	1.668824	-0.215119	-1.282129	0.445154	-0.642341	-0.623817	0.449574	-0.927246	-0.223389	-0.505859	0.101836	-0.005567	0.017024	0.732606	0.132935	-0.658513	0.109439	27.478343	-83.698525	-7.711567
64674		12.175906	-3.757832	1.697713	0.915274	-4.271528	2.277399	-0.847799	-0.902579	0.616211	-0.940186	-0.211914	-0.510498	0.121795	-0.037129	0.017685	0.729828	0.128241	-0.662701	0.108323	26.168194	-84.324088	-6.885344
64675		13.672001	-5.916546	0.484022	2.757855	-5.885166	3.600756	-0.268118	-0.792287	0.622569	-0.941895	-0.203613	-0.500244	0.136882	-0.058732	0.005461	0.727013	0.125573	-0.666150	0.109216	24.608518	-84.891653	-5.476204
64676		12.827895	-5.618941	0.037704	2.962815	-5.387083	2.770196	0.721087	0.310404	0.477237	-0.943115	-0.198975	-0.505615	0.128413	-0.055883	-0.000024	0.727312	0.126380	-0.664942	0.113568	21.386825	-84.839058	-1.829733
64677		9.867253	-2.555309	1.808519	0.115307	-3.008021	0.091823	1.451699	1.242046	0.408479	-0.935791	-0.203369	-0.512451	0.098834	-0.025479	0.017287	0.730243	0.129535	-0.659851	0.120678	17.375287	-84.248839	3.032384
64678		7.805686	0.436680	3.751613	-2.817319	-0.857267	-1.656656	1.548241	1.258014	0.275438	-0.924316	-0.210693	-0.522217	0.078285	0.004186	0.037057	0.733173	0.133457	-0.654491	0.127622	14.896414	-83.603691	6.414034
64679		8.582981	3.672441	5.278656	-5.258430	1.598642	-0.603358	1.013034	0.423268	0.240527	-0.928955	-0.212891	-0.522461	0.085897	0.036560	0.052790	0.733703	0.136058	-0.652467	0.132119	13.725323	-83.406218	8.173709
64680		10.504346	5.216043	4.113059	-4.576355	3.492541	1.202029	0.139456	-0.565073	0.533235	-0.928467	-0.217285	-0.522217	0.104787	0.052411	0.041463	0.731393	0.135148	-0.654828	0.134166	11.728735	-83.792497	10.260117
64681		11.881876	4.102838	0.601285	-0.861366	3.828724	2.144404	-0.360524	-0.610645	0.528852	-0.929443	-0.208252	-0.518555	0.118691	0.041354	0.006301	0.729260	0.132453	-0.657677	0.134526	9.237114	-84.194837	12.554618
64682		11.480651	2.952035	-1.199335	1.149445	3.464529	1.528997	-0.155204	0.172858	0.433826	-0.934326	-0.201172	-0.515381	0.114732	0.029760	-0.012116	0.729626	0.130294	-0.657455	0.135731	6.548002	-84.132955	15.165568
64683		10.042125	2.157976	-0.742535	0.901899	2.568418	0.119179	0.183845	0.616515	0.209612	-0.929199	-0.202148	-0.519043	0.100375	0.021692	-0.007715	0.731371	0.129803	-0.655237	0.137521	5.123535	-83.796346	16.700738
64684		9.946076	2.126623	1.656357	-1.279033	1.673696	0.274595	0.302395	0.262083	0.042355	-0.934814	-0.198975	-0.517090	0.099478	0.021262	0.016465	0.731989	0.130539	-0.654119	0.138857	4.901493	-83.651171	17.095606
64685		10.772014	1.300704	2.408976	-1.580060	0.655771	1.169325	-0.108745	-0.242482	0.016957	-0.940186	-0.192871	-0.522217	0.107690	0.013029	0.024213	0.731239	0.130200	-0.655116	0.138424	4.799779	-83.792940	17.132098
64686		11.235132	0.172268	1.087352	0.075623	0.110447	1.475456	-0.159310	-0.324146	0.057062	-0.936279	-0.197754	-0.507324	0.112333	0.001763	0.011054	0.730224	0.129600	-0.656471	0.137920	4.483102	-83.983234	17.355581
64687		10.737403	-0.429912	-0.387828	1.591607	0.079973	0.821571	0.053508	-0.010235	-0.004353	-0.933594	-0.203369	-0.511963	0.107374	-0.004300	-0.003874	0.730143	0.129764	-0.656492	0.138093	4.480920	-83.991360	17.385453
64688		9.932479	-0.140596	-0.337243	1.372258	0.306167	0.026556	0.461486	0.312819	-0.122074	-0.933105	-0.208252	-0.521484	0.099318	-0.001459	-0.003531	0.730935	0.131584	-0.654974	0.139386	5.198336	-83.809551	16.927250
64689		9.435783	0.811852	0.988726	-0.225914	0.674368	-0.317174	0.586425	0.343184	-0.136102	-0.942871	-0.203613	-0.515137	0.094380	0.008026	0.009749	0.731749	0.133880	-0.653241	0.141054	6.006427	-83.608838	16.449146
64690		9.188999	1.138359	1.505977	-0.824271	0.769194	-0.499771	0.290438	0.266173	-0.050903	-0.928467	-0.214600	-0.525635	0.091913	0.011338	0.014954	0.732442	0.134870	-0.652051	0.142015	6.230305	-83.456770	16.388489
64691		8.836040	0.821561	0.900189	-0.166264	0.701062	-0.922145	0.111079	0.213427	-0.000140	-0.932861	-0.206787	-0.522217	0.088370	0.008211	0.008912	0.733047	0.135072	-0.651214	0.142540	6.125992	-83.337839	16.554413
64692		8.562904	0.807366	0.449732	0.239079	0.858763	-1.246314	0.165050	0.251387	-0.009543	-0.928467	-0.217773	-0.530273	0.085635	0.008066	0.004396	0.733746	0.135479	-0.650190	0.143233	6.084293	-83.196487	16.688751
64693		8.401121	1.158444	0.612770	-0.043243	1.121273	-1.384334	0.203523	0.316516	-0.028268	-0.925293	-0.210693	-0.529541	0.084022	0.011566	0.006007	0.734641	0.136037	-0.648887	0.144025	6.121857	-83.017087	16.765217
64694		8.177508	1.410858	0.924698	-0.427811	1.232652	-1.565584	0.168157	0.357195	-0.028775	-0.925293	-0.220215	-0.526123	0.081793	0.014089	0.009113	0.735691	0.136441	-0.647454	0.144728	6.125016	-82.814181	16.856286
64695		7.959601	1.561590	1.188902	-0.725649	1.269298	-1.746118	0.131081	0.420081	-0.039126	-0.920898	-0.219238	-0.534668	0.079624	0.015593	0.011732	0.736972	0.136692	-0.645810	0.145315	6.123746	-82.575121	16.930126
64696		7.759172	1.364591	1.528417	-0.951956	0.958531	-1.902073	0.003287	0.430808	-0.032293	-0.923340	-0.219238	-0.541504	0.077627	0.013633	0.015117	0.738367	0.136449	-0.644220	0.145522	6.022198	-82.330293	17.031967
64697		7.813513	1.085389	1.637579	-0.905551	0.671702	-1.835254	-0.037466	0.366661	-0.049911	-0.924072	-0.219727	-0.541748	0.078168	0.010837	0.016230	0.739593	0.136151	-0.642882	0.145488	6.000767	-82.121007	17.028769
64698		8.107527	1.161774	1.599018	-0.832724	0.776766	-1.545784	-0.010902	0.364437	-0.080807	-0.914063	-0.221191	-0.544189	0.081109	0.011586	0.015842	0.740815	0.136057	-0.641509	0.145423	6.121817	-81.910999	16.897524
64699		8.148726	1.418577	1.425334	-0.735072	1.091117	-1.523256	-0.034505	0.472998	-0.077607	-0.908691	-0.230469	-0.552246	0.081526	0.014157	0.014058	0.742394	0.135781	-0.639752	0.145367	6.162655	-81.639437	16.833121
64700		7.739644	1.490479	1.260848	-0.630375	1.216980	-1.949178	-0.085214	0.548551	-0.050045	-0.914551	-0.221191	-0.551514	0.077434	0.014891	0.012390	0.744226	0.135180	-0.637762	0.145302	6.041692	-81.326210	16.903663
64701		7.434267	1.573079	1.159784	-0.576040	1.333518	-2.264325	-0.110936	0.488114	-0.040895	-0.913086	-0.221191	-0.571045	0.074374	0.015722	0.011408	0.745870	0.134490	-0.636021	0.145147	5.898934	-81.048252	16.980635
64702		7.334508	1.810515	0.952644	-0.462537	1.640307	-2.391375	-0.180132	0.367842	-0.041345	-0.908691	-0.223877	-0.571777	0.073366	0.018098	0.009375	0.747175	0.133633	-0.634773	0.144688	5.769875	-80.838584	17.003964
64703		7.220848	1.933096	0.520325	-0.106837	1.924423	-2.571600	-0.234087	0.320825	-0.040073	-0.909668	-0.213867	-0.563232	0.072221	0.019322	0.005065	0.748362	0.132601	-0.633740	0.144031	5.623904	-80.655996	17.012795
64704		6.998302	2.099846	0.270688	0.045935	2.171354	-2.831146	-0.202557	0.275152	-0.049152	-0.906738	-0.212891	-0.575928	0.069992	0.020984	0.002589	0.749388	0.131750	-0.632846	0.143408	5.546122	-80.498794	16.971071
64705		6.904850	2.352249	0.107580	0.101720	2.466918	-2.947882	-0.190525	0.145397	-0.053558	-0.908447	-0.220947	-0.581787	0.069056	0.023505	0.001003	0.749996	0.131049	-0.632426	0.142722	5.531826	-80.415499	16.871695
64706		7.101773	2.163405	-0.018001	0.329378	2.351554	-2.778661	-0.288258	0.000749	-0.016240	-0.908936	-0.220703	-0.582031	0.071019	0.021628	-0.000211	0.750184	0.129968	-0.632640	0.141770	5.383613	-80.416513	16.851398
64707		7.358333	1.570106	-0.316134	0.868083	1.927785	-2.584941	-0.324044	-0.080691	0.029086	-0.904297	-0.213623	-0.575439	0.073582	0.015707	-0.003157	0.750103	0.128665	-0.633214	0.140823	5.085438	-80.466626	16.962317
64708		7.424984	1.188109	-0.641901	1.315150	1.698201	-2.578013	-0.245459	-0.122660	0.037754	-0.906982	-0.207764	-0.571533	0.074252	0.011887	-0.006388	0.749830	0.127661	-0.633893	0.140130	4.814686	-80.540872	17.091292
64709		7.405790	0.967016	-0.962823	1.679309	1.610577	-2.650717	-0.229816	-0.162858	0.081421	-0.909668	-0.207031	-0.572510	0.074062	0.009689	-0.009579	0.749388	0.126603	-0.634740	0.139624	4.407934	-80.640119	17.366945
64710		7.556139	0.526210	-1.127170	2.002726	1.271011	-2.531462	-0.270753	-0.202483	0.160992	-0.908447	-0.204590	-0.570557	0.075568	0.005308	-0.011202	0.748788	0.125167	-0.635812	0.139259	3.701821	-80.764788	17.922132
64711		7.912947	-0.009758	-1.089597	2.201627	0.782442	-2.174453	-0.250071	-0.203816	0.208765	-0.914307	-0.196045	-0.565430	0.079141	-0.000029	-0.010815	0.748134	0.123656	-0.636902	0.139139	2.819020	-80.890526	18.668058
64712		8.557984	-0.272115	-0.604975	1.928314	0.404998	-1.458247	-0.176047	-0.182730	0.221183	-0.911621	-0.193848	-0.568604	0.085588	-0.002632	-0.005969	0.747491	0.122369	-0.637868	0.139313	1.910132	-81.002668	19.483118
64713		9.315847	-0.350325	-0.322179	1.785120	0.283397	-0.661486	-0.149189	-0.185303	0.251388	-0.909912	-0.194580	-0.568115	0.093166	-0.003389	-0.003133	0.746800	0.121086	-0.638840	0.139684	0.883381	-81.114465	20.432798
64714		9.703628	-0.161684	-0.506454	1.918762	0.564356	-0.302544	-0.069597	-0.133129	0.271326	-0.909424	-0.182861	-0.562500	0.097042	-0.001487	-0.004999	0.746211	0.120000	-0.639573	0.140414	-0.194210	-81.193732	21.479807
64715		9.762358	0.673797	-0.630266	1.721163	1.413155	-0.263059	0.086321	-0.003778	0.262898	-0.905273	-0.182617	-0.560059	0.097615	0.006869	-0.006298	0.745946	0.119431	-0.639707	0.141689	-1.160917	-81.196032	22.504920
64716		9.719380	1.756711	0.266719	0.487521	2.121746	-0.175054	0.137501	0.095108	0.248895	-0.908691	-0.183350	-0.564697	0.097173	0.017686	0.002633	0.745975	0.119027	-0.639427	0.143133	-2.032445	-81.139515	23.463253
64717		10.511281	2.090445	3.618560	-2.606195	1.298454	1.117668	0.129328	0.155169	0.264461	-0.910156	-0.173096	-0.568115	0.105113	0.021020	0.036118	0.746188	0.118500	-0.638935	0.144646	-2.943146	-81.045831	24.456904
64718		13.838401	0.839469	9.284029	-6.905529	-1.674937	5.283910	-0.089642	-0.240922	0.206502	-0.915527	-0.166992	-0.562744	0.138263	0.008579	0.093003	0.745306	0.117627	-0.640044	0.145005	-3.844549	-81.178311	25.313778
64719		18.453405	-3.227649	11.733181	-7.237205	-6.077461	10.169461	-0.616112	-1.806287	-0.152579	-0.925537	-0.171387	-0.545410	0.183439	-0.032052	0.119091	0.739948	0.117071	-0.647126	0.141417	-4.140529	-82.218362	25.252975
64720		16.659735	-4.135515	3.656987	0.024176	-4.262777	7.212121	-0.478250	-1.545809	-0.289013	-0.926514	-0.165771	-0.535156	0.166248	-0.041506	0.037955	0.735391	0.117270	-0.653015	0.137908	-3.650655	-83.114792	24.479193
64721		10.615887	-2.816799	-5.273444	7.088966	-0.256292	0.092911	-0.499384	0.706295	-0.163975	-0.925537	-0.174072	-0.544678	0.105949	-0.028387	-0.053038	0.738080	0.115428	-0.650683	0.136107	-3.046080	-82.717905	23.578489
64722		6.710441	-1.769403	-3.874155	5.021300	0.040460	-3.651965	0.505539	0.623413	-0.213054	-0.924805	-0.172119	-0.541016	0.066964	-0.017667	-0.038995	0.739941	0.117506	-0.647933	0.137342	-1.761273	-82.367746	22.571316
64723		10.360196	1.226638	2.963557	-1.935320	0.538088	0.844838	1.773174	-0.864128	-1.015167	-0.919434	-0.187500	-0.536865	0.103532	0.011475	0.030187	0.736736	0.127888	-0.649299	0.138835	3.756054	-82.855129	18.029191
64724		18.411507	10.469161	6.979034	-8.194695	7.692028	9.447697	1.019528	-0.774145	-1.032030	-0.925293	-0.203613	-0.530029	0.184377	0.103381	0.071033	0.734248	0.135470	-0.650786	0.137862	9.522617	-83.230460	12.804770
64725		16.718155	9.358432	5.817355	-6.872901	6.967347	7.655377	-1.919826	0.255093	-0.273346	-0.921631	-0.195313	-0.537842	0.167383	0.093907	0.057060	0.736516	0.129076	-0.650980	0.130797	9.455787	-83.063473	11.761031
64726		12.069361	0.940118	1.756197	-0.500402	0.565987	2.396576	-2.199790	0.534722	-0.142289	-0.924316	-0.191895	-0.542236	0.120747	0.009505	0.017135	0.739710	0.121023	-0.650338	0.123465	8.410623	-82.750761	11.540241
64727		9.521310	-1.648101	1.809572	0.064488	-1.941370	-0.175630	-0.946234	0.319774	-0.626330	-0.920166	-0.183105	-0.554443	0.095190	-0.016694	0.018022	0.741681	0.119307	-0.649372	0.118283	10.328090	-82.514494	9.056998
64728		10.465489	-0.122419	3.279432	-1.655268	-1.028672	0.980700	-0.090994	0.159101	-0.968200	-0.913574	-0.205078	-0.545898	0.104673	-0.001716	0.032712	0.742804	0.121961	-0.648271	0.114507	14.155941	-82.310637	5.138984
64729		12.242929	1.061483	4.965306	-3.338618	-0.520628	3.003411	-0.563987	0.096554	-0.844352	-0.915283	-0.206543	-0.551758	0.122497	0.010238	0.049565	0.743921	0.122493	-0.647735	0.109621	17.091248	-82.130597	1.847125
64730		12.108811	-0.335405	3.643294	-1.637037	-1.461191	2.645013	-0.993291	0.118151	-0.606640	-0.914795	-0.198730	-0.564209	0.121099	-0.003541	0.036379	0.745219	0.120645	-0.647478	0.104236	18.702642	-81.962808	-0.357712
64731		11.690622	-0.855879	2.256551	-0.207298	-1.550582	2.021490	-0.625194	0.155416	-0.474899	-0.914551	-0.201416	-0.560303	0.116903	-0.008766	0.022502	0.746327	0.119717	-0.646956	0.100556	19.897821	-81.792761	-1.930003
64732		11.768782	-0.493813	2.577328	-0.586023	-1.331557	2.157031	-0.390193	0.144487	-0.295498	-0.916260	-0.209961	-0.565674	0.117699	-0.005062	0.025698	0.747164	0.119085	-0.646454	0.098294	20.530172	-81.660115	-2.798857
64733		11.600979	-0.552825	2.709960	-0.697798	-1.429441	2.006871	-0.479548	0.207150	-0.065002	-0.917480	-0.198486	-0.567627	0.116036	-0.005501	0.026993	0.748136	0.117348	-0.645897	0.096645	20.174228	-81.539923	-2.719960
64734		10.510524	-1.126737	1.736053	0.246360	-1.654343	0.768281	-0.628529	0.263235	0.139764	-0.914795	-0.190918	-0.568115	0.105136	-0.011140	0.017257	0.749271	0.114362	-0.645314	0.095310	18.935358	-81.428181	-1.834986
64735		9.658396	-1.777914	1.160197	0.856208	-2.070189	-0.180825	-0.679215	0.168677	0.263930	-0.911621	-0.186035	-0.576660	0.096617	-0.017612	0.011580	0.750060	0.110830	-0.645174	0.094224	17.357609	-81.387276	-0.636077
64736		9.298672	-2.287665	0.991167	1.099957	-2.478040	-0.575238	-0.609440	0.130283	0.244733	-0.906982	-0.181641	-0.576416	0.093021	-0.022733	0.009921	0.750687	0.107633	-0.645124	0.093265	15.941349	-81.359337	0.439234
64737		8.693564	-2.308859	0.889185	1.108609	-2.445485	-1.181924	-0.479673	0.229129	0.170081	-0.914307	-0.177490	-0.571045	0.086965	-0.022993	0.008847	0.751589	0.105123	-0.644598	0.092500	14.784978	-81.262137	1.327837
64738		8.050147	-2.102539	0.811504	1.032375	-2.209415	-1.816641	-0.377020	0.213463	0.118321	-0.914551	-0.176514	-0.574219	0.080523	-0.020963	0.008069	0.752406	0.103168	-0.644052	0.091861	13.908202	-81.163737	1.992782
64739		7.953773	-1.770591	0.775697	0.962165	-1.868948	-1.901906	-0.240837	0.031204	0.081951	-0.909424	-0.174072	-0.581299	0.079546	-0.017664	0.007766	0.752579	0.101930	-0.644108	0.091431	13.410448	-81.160863	2.353698
64740		8.145088	-1.521948	0.615062	1.071689	-1.578469	-1.725846	-0.177129	-0.034959	0.052061	-0.910889	-0.166260	-0.583252	0.081454	-0.015193	0.006178	0.752520	0.101056	-0.644367	0.091059	13.112056	-81.190464	2.549522
64741		8.091539	-1.391751	0.462468	1.170587	-1.408301	-1.795813	-0.101017	0.040221	0.024478	-0.916992	-0.174561	-0.581055	0.080918	-0.013905	0.004615	0.752676	0.100525	-0.644295	0.090867	12.893168	-81.174511	2.709287
64742		7.706306	-1.203380	0.591180	0.944951	-1.260706	-2.150935	-0.038137	0.165128	-0.013408	-0.916260	-0.162842	-0.588379	0.077067	-0.012038	0.005850	0.753222	0.100292	-0.643704	0.090797	12.744431	-81.083675	2.834089
64743		7.276097	-0.928400	0.800369	0.620247	-1.053275	-2.536014	0.039908	0.221270	-0.062704	-0.914307	-0.166016	-0.579834	0.072767	-0.009308	0.007921	0.753928	0.100489	-0.642842	0.090821	12.772941	-80.955415	2.825203
64744		7.081418	-0.696824	1.268955	0.097549	-0.958121	-2.649255	0.086406	0.172931	-0.074412	-0.909424	-0.176514	-0.587891	0.070823	-0.007000	0.012625	0.754462	0.100915	-0.642134	0.090925	12.903671	-80.852624	2.738999
64745		7.006308	-0.512863	1.373957	-0.052827	-0.813404	-2.701097	0.041205	0.079373	-0.105026	-0.911133	-0.172119	-0.586670	0.070066	-0.005168	0.013711	0.754730	0.101317	-0.641784	0.090723	13.188645	-80.798086	2.471073
64746		7.006525	-0.400519	1.178262	0.108305	-0.658280	-2.727841	-0.012607	0.022173	-0.111471	-0.910889	-0.175537	-0.596680	0.070064	-0.004043	0.011775	0.754846	0.101562	-0.641669	0.090294	13.508364	-80.774133	2.136479
64747		6.833251	-0.609105	0.650145	0.640240	-0.723706	-2.989685	-0.076343	0.011071	-0.097081	-0.912598	-0.173340	-0.589600	0.068330	-0.006122	0.006500	0.754951	0.101526	-0.641634	0.089710	13.750345	-80.758269	1.843831
64748		6.782293	-0.863935	0.183395	1.144781	-0.850190	-3.123430	0.007538	-0.004994	-0.115033	-0.910400	-0.178223	-0.591064	0.067818	-0.008678	0.001835	0.754972	0.101869	-0.641610	0.089317	14.113400	-80.748283	1.476806
64749		6.820442	-0.996837	0.023268	1.338321	-0.943455	-3.117059	0.166643	-0.075954	-0.144049	-0.908447	-0.175293	-0.589355	0.068197	-0.010018	0.000250	0.754694	0.102940	-0.641769	0.089291	14.729621	-80.773359	0.946046
64750		7.300143	-1.028338	0.083162	1.362136	-1.000451	-2.636328	0.257241	-0.183931	-0.160071	-0.909424	-0.177490	-0.589600	0.072992	-0.010343	0.000885	0.754030	0.104450	-0.642285	0.089438	15.556597	-80.854436	0.254148
64751		7.752446	-0.843474	0.137372	1.323089	-0.851877	-2.173679	0.301293	-0.227610	-0.163115	-0.913818	-0.185059	-0.583008	0.077516	-0.008500	0.001449	0.753200	0.106157	-0.642943	0.089694	16.478022	-80.957636	-0.507353
64752		7.932106	-0.555697	-0.046090	1.436874	-0.540791	-2.010627	0.348719	-0.189127	-0.170458	-0.915771	-0.184570	-0.584473	0.079317	-0.005624	-0.000396	0.752470	0.108046	-0.643427	0.090092	17.428522	-81.036357	-1.270932
64753		7.941238	-0.144507	-0.276659	1.536966	-0.097911	-2.015970	0.379130	-0.122967	-0.208682	-0.912354	-0.194092	-0.578369	0.079413	-0.001523	-0.002721	0.751948	0.110145	-0.643626	0.090482	18.469200	-81.070357	-2.107699
64754		8.116393	0.115737	-0.092230	1.314253	0.080115	-1.802442	0.447464	-0.068902	-0.255679	-0.916504	-0.200684	-0.576904	0.081166	0.001056	-0.000892	0.751581	0.112625	-0.643561	0.090943	19.650927	-81.063631	-3.047848
64755		8.384950	0.210978	0.399075	0.863572	0.005669	-1.460124	0.461458	-0.072139	-0.275106	-0.915527	-0.195313	-0.576904	0.083851	0.001985	0.004026	0.751199	0.115222	-0.643487	0.091375	20.910019	-81.051798	-4.057955
64756		8.516464	0.132910	0.712224	0.610560	-0.185948	-1.289327	0.314437	-0.062381	-0.256211	-0.911621	-0.215576	-0.570557	0.085164	0.001209	0.007151	0.750920	0.117199	-0.643450	0.091408	22.003636	-81.035470	-4.986133
