// General information: 
//  MT Manager version: 2019.2.0 
//  XDA version: 2019.2.0 build 3853 rev 94535 built on 2019-09-09
// Device information: 
//  DeviceId: 00B47795
//  ProductCode: MTW2-3A7G6
//  Firmware Version: 4.6.0
//  Hardware Version: 2.0.0
// Device settings: 
//  Filter Profile: human(46.1)
//  Option Flags: Orientation Smoother Disabled, AHS Disabled, ICC Disabled
// Coordinate system: ENU
PacketCounter	SampleTimeFine	Acc_X	Acc_Y	Acc_Z	FreeAcc_E	FreeAcc_N	FreeAcc_U	Gyr_X	Gyr_Y	Gyr_Z	Mag_X	Mag_Y	Mag_Z	VelInc_X	VelInc_Y	VelInc_Z	Quat_q0	Quat_q1	Quat_q2	Quat_q3	Roll	Pitch	Yaw
61638		9.526488	0.091698	-2.089219	-0.095824	-0.061282	-0.060032	0.000156	0.003453	0.006094	-0.819092	0.299805	0.384766	0.095264	0.000920	-0.020894	0.274408	-0.693863	-0.346846	-0.568289	176.228386	-78.232615	56.186089
61639		9.532388	0.094473	-2.065330	-0.078777	-0.043377	-0.059080	0.001347	0.005241	0.005850	-0.817139	0.295410	0.388184	0.095323	0.000948	-0.020656	0.274412	-0.693854	-0.346858	-0.568291	176.224122	-78.233100	56.191798
61640		9.538320	0.097321	-2.041277	-0.061752	-0.025492	-0.058131	0.002353	0.006920	0.004066	-0.811768	0.304199	0.391602	0.095382	0.000975	-0.020416	0.274420	-0.693833	-0.346880	-0.568299	176.215056	-78.234646	56.203542
61641		9.553556	0.157346	-2.002262	0.010613	-0.029248	-0.050347	-0.001922	0.006198	0.006245	-0.813477	0.297363	0.392822	0.095535	0.001576	-0.020026	0.274416	-0.693826	-0.346880	-0.568310	176.209827	-78.235693	56.208323
61642		9.562896	0.134351	-2.000580	-0.006013	-0.012421	-0.041855	-0.004372	0.008728	0.003318	-0.812012	0.300293	0.396484	0.095628	0.001345	-0.020010	0.274400	-0.693810	-0.346880	-0.568337	176.194998	-78.238108	56.221565
61643		9.563046	0.133825	-1.999901	-0.006335	-0.011644	-0.041854	-0.007498	0.005308	0.010175	-0.816895	0.295898	0.400391	0.095630	0.001342	-0.020002	0.274386	-0.693820	-0.346852	-0.568349	176.197525	-78.238795	56.215160
61644		9.541319	0.124540	-1.992644	-0.011985	-0.004192	-0.064726	-0.002217	0.007709	0.006214	-0.819824	0.301514	0.389648	0.095412	0.001248	-0.019930	0.274379	-0.693811	-0.346846	-0.568366	176.191802	-78.240646	56.219631
61645		9.565632	0.082140	-1.966501	-0.027564	0.045843	-0.046812	-0.002217	0.007709	0.006214	-0.813965	0.309814	0.386230	0.095656	0.000824	-0.019669	0.274376	-0.693800	-0.346843	-0.568383	176.186038	-78.242555	56.224786
61646		9.549816	0.156167	-1.921833	0.055781	0.032672	-0.070375	-0.000326	0.004856	0.004524	-0.822021	0.301270	0.388672	0.095498	0.001564	-0.019221	0.274376	-0.693789	-0.346860	-0.568386	176.177823	-78.242904	56.234455
61647		9.565994	0.160913	-1.951478	0.043426	0.009650	-0.048446	-0.001627	0.004687	0.006276	-0.814941	0.302246	0.395752	0.095659	0.001612	-0.019517	0.274370	-0.693786	-0.346863	-0.568391	176.173119	-78.243088	56.238872
61648		9.541684	0.042594	-2.004320	-0.084905	0.036575	-0.063108	0.003021	0.005623	0.007176	-0.818604	0.305420	0.384033	0.095416	0.000430	-0.020046	0.274386	-0.693775	-0.346875	-0.568390	176.173587	-78.243913	56.240982
61649		9.567320	0.184054	-2.005113	0.029699	-0.045806	-0.035930	0.007886	0.003322	0.005061	-0.815430	0.298584	0.396973	0.095673	0.001844	-0.020053	0.274407	-0.693760	-0.346911	-0.568375	176.171248	-78.243270	56.248552
61650		9.545503	0.174930	-1.998276	0.024047	-0.038389	-0.058802	-0.002711	0.001282	0.005011	-0.812256	0.291016	0.397461	0.095455	0.001751	-0.019983	0.274390	-0.693765	-0.346922	-0.568371	176.163345	-78.241546	56.255993
61651		9.539624	0.091261	-2.035458	-0.065276	-0.017044	-0.058135	-0.005903	0.003967	0.008452	-0.814941	0.299805	0.394531	0.095396	0.000916	-0.020356	0.274374	-0.693774	-0.346906	-0.568377	176.162302	-78.241401	56.254169
61652		9.527009	0.059591	-2.027467	-0.087245	0.006456	-0.072542	-0.001999	0.004472	0.003197	-0.814941	0.304199	0.402100	0.095270	0.000597	-0.020277	0.274355	-0.693768	-0.346915	-0.568388	176.148800	-78.241309	56.266718
61653		9.561712	0.098978	-2.041111	-0.060593	-0.022138	-0.035259	-0.005191	0.007157	0.006638	-0.811768	0.307373	0.394043	0.095616	0.000992	-0.020415	0.274342	-0.693764	-0.346904	-0.568407	176.142594	-78.242918	56.270584
61654		9.508917	0.103874	-2.028300	-0.055226	-0.024135	-0.089485	-0.004602	0.004135	0.006700	-0.813965	0.302734	0.394775	0.095089	0.001041	-0.020285	0.274326	-0.693769	-0.346896	-0.568414	176.138208	-78.242742	56.272811
61655		9.526383	0.113371	-1.957374	-0.003465	0.028058	-0.086673	-0.003409	0.005922	0.006457	-0.817871	0.299561	0.385254	0.095263	0.001136	-0.019577	0.274316	-0.693765	-0.346891	-0.568425	176.132751	-78.243638	56.276954
61656		9.551907	0.175342	-1.972091	0.039503	-0.016605	-0.057843	-0.000217	0.003237	0.003016	-0.817871	0.297852	0.403564	0.095519	0.001755	-0.019722	0.274306	-0.693757	-0.346913	-0.568427	176.120409	-78.242951	56.290367
61657		9.591224	0.193609	-1.907871	0.096585	0.028952	-0.032152	-0.000326	0.004855	0.004524	-0.812256	0.294922	0.391113	0.095912	0.001938	-0.019081	0.274299	-0.693749	-0.346926	-0.568432	176.111607	-78.243161	56.299732
61658		9.576177	0.132458	-1.945970	0.023578	0.034229	-0.039982	-0.000667	0.001880	0.009415	-0.815430	0.301758	0.393799	0.095762	0.001329	-0.019461	0.274297	-0.693760	-0.346921	-0.568422	176.116482	-78.241817	56.294270
61659		9.585601	0.188938	-1.930682	0.078580	0.013378	-0.033085	0.002649	0.005406	0.004099	-0.812012	0.298584	0.385986	0.095855	0.001892	-0.019309	0.274301	-0.693745	-0.346942	-0.568425	176.108115	-78.242327	56.304931
61660		9.567179	0.153878	-1.946227	0.039252	0.019704	-0.048443	0.001936	0.002216	0.005912	-0.810059	0.298828	0.396973	0.095672	0.001542	-0.019463	0.274304	-0.693743	-0.346961	-0.568415	176.105144	-78.241154	56.309939
61661		9.511885	0.129362	-1.979866	-0.006433	-0.000535	-0.096077	-0.002046	-0.000014	0.008119	-0.818359	0.301270	0.391357	0.095119	0.001297	-0.019799	0.274294	-0.693757	-0.346963	-0.568402	176.106141	-78.238721	56.308288
61662		9.527831	0.054174	-2.023754	-0.090432	0.014146	-0.072580	0.001642	0.003727	0.005881	-0.822021	0.305420	0.395508	0.095278	0.000545	-0.020239	0.274296	-0.693752	-0.346977	-0.568399	176.102624	-78.238345	56.313279
61663		9.524523	0.079534	-2.000957	-0.057073	0.015995	-0.080105	0.001936	0.002216	0.005912	-0.806885	0.295898	0.390869	0.095245	0.000798	-0.020011	0.274297	-0.693751	-0.346994	-0.568389	176.099427	-78.237100	56.318243
61664		9.506253	0.124153	-2.002755	-0.024741	-0.015375	-0.097008	0.002230	0.000705	0.005943	-0.816650	0.301025	0.399414	0.095062	0.001245	-0.020028	0.274297	-0.693753	-0.347014	-0.568374	176.097030	-78.235017	56.322573
61665		9.546483	0.086837	-2.007250	-0.052391	0.010904	-0.057224	-0.002634	0.003008	0.008056	-0.816650	0.302979	0.394775	0.095464	0.000872	-0.020074	0.274290	-0.693759	-0.347011	-0.568372	176.096954	-78.234309	56.321674
61666		9.548948	0.115418	-1.961035	-0.001665	0.029899	-0.063816	-0.002340	0.001497	0.008087	-0.816650	0.301270	0.391357	0.095489	0.001158	-0.019611	0.274280	-0.693771	-0.347008	-0.568365	176.097739	-78.232715	56.319851
61667		9.555941	0.142825	-1.991943	0.002303	-0.009163	-0.050302	-0.000108	0.001618	0.001508	-0.803711	0.302490	0.400635	0.095559	0.001429	-0.019920	0.274261	-0.693766	-0.347036	-0.568363	176.081403	-78.230957	56.337040
61668		9.555955	0.142443	-1.991906	0.002001	-0.008390	-0.050302	0.002524	-0.000806	0.005974	-0.808105	0.302490	0.393555	0.095560	0.001428	-0.019919	0.274258	-0.693774	-0.347057	-0.568341	176.079795	-78.227937	56.340482
61669		9.587068	0.127658	-1.997204	-0.009330	0.001836	-0.018970	-0.001842	0.007924	0.009289	-0.812256	0.302002	0.390381	0.095870	0.001281	-0.019976	0.274265	-0.693767	-0.347045	-0.568354	176.082631	-78.230087	56.337071
61670		9.522701	0.125590	-2.031458	-0.038656	-0.034527	-0.075041	-0.000667	0.001880	0.009414	-0.811035	0.306152	0.395020	0.095227	0.001260	-0.020315	0.274268	-0.693776	-0.347043	-0.568342	176.088136	-78.228804	56.331785
61671		9.522741	0.124622	-2.031333	-0.038977	-0.033754	-0.075040	0.001300	0.000751	0.010771	-0.810547	0.307373	0.399414	0.095227	0.001251	-0.020314	0.274278	-0.693788	-0.347045	-0.568322	176.098183	-78.226912	56.322848
61672		9.507859	0.142868	-2.055680	-0.040290	-0.066207	-0.084398	-0.003456	0.001437	0.011377	-0.818359	0.303955	0.405029	0.095078	0.001434	-0.020558	0.274275	-0.693807	-0.347028	-0.568311	176.107927	-78.225375	56.311421
61673		9.557229	0.082570	-2.059106	-0.084284	-0.023837	-0.036200	-0.005531	0.004184	0.011526	-0.814941	0.302246	0.405762	0.095572	0.000831	-0.020593	0.274270	-0.693819	-0.347002	-0.568313	176.115487	-78.225474	56.301026
61674		9.559733	0.110844	-2.012783	-0.033545	-0.004818	-0.042789	0.002494	0.002536	0.010528	-0.817383	0.306396	0.400146	0.095597	0.001114	-0.020129	0.274282	-0.693828	-0.346999	-0.568299	176.125623	-78.224440	56.291793
61675		9.513861	0.143145	-2.031374	-0.023872	-0.046725	-0.083465	0.001006	0.002262	0.010740	-0.803711	0.303711	0.398682	0.095138	0.001437	-0.020315	0.274294	-0.693836	-0.346998	-0.568284	176.135127	-78.223409	56.283238
61676		9.526708	0.173236	-2.038641	-0.002516	-0.068630	-0.068996	-0.006833	0.004017	0.013277	-0.808105	0.318848	0.404297	0.095267	0.001738	-0.020388	0.274287	-0.693856	-0.346960	-0.568286	176.147499	-78.223385	56.266840
61677		9.212401	-0.096078	-2.254050	-0.379145	-0.124606	-0.336452	0.000938	-0.020646	0.024363	-0.814209	0.310547	0.396240	0.092126	-0.000949	-0.022531	0.274298	-0.693953	-0.346942	-0.568173	176.198487	-78.209778	56.215867
61678		9.480323	0.322286	-2.357058	-0.075722	-0.411820	-0.047403	0.014097	-0.034526	0.009127	-0.805176	0.314941	0.401123	0.094807	0.003229	-0.023554	0.274289	-0.694046	-0.347033	-0.568009	176.219199	-78.187560	56.203776
61679		9.458236	-0.157009	-2.236339	-0.383163	-0.028050	-0.099990	-0.007528	-0.031526	0.027574	-0.810059	0.307129	0.397705	0.094586	-0.001558	-0.022348	0.274260	-0.694191	-0.346995	-0.567869	176.275805	-78.167839	56.142102
61680		9.763140	-0.083550	-2.121737	-0.218876	0.069486	0.176052	0.030798	-0.017365	0.006078	-0.801270	0.309326	0.397949	0.097633	-0.000829	-0.021209	0.274329	-0.694206	-0.347120	-0.567740	176.294207	-78.155319	56.141938
61681		9.613308	-0.091025	-2.084982	-0.218409	0.077707	0.021812	0.018683	-0.005146	0.014980	-0.803467	0.312988	0.399658	0.096134	-0.000901	-0.020847	0.274401	-0.694219	-0.347164	-0.567663	176.326633	-78.150203	56.120308
61682		9.493173	0.312202	-1.961292	0.163107	-0.091838	-0.115810	0.029228	-0.008193	0.007429	-0.808838	0.312988	0.401123	0.094932	0.003128	-0.019609	0.274484	-0.694213	-0.347267	-0.567567	176.346145	-78.142971	56.118044
61683		9.573579	0.317079	-1.957910	0.179733	-0.077614	-0.037768	-0.002647	-0.015406	0.016763	-0.813232	0.313965	0.400635	0.095737	0.003179	-0.019572	0.274469	-0.694287	-0.347258	-0.567489	176.372931	-78.132049	56.089689
61684		9.503485	-0.058591	-2.041133	-0.174202	0.075315	-0.094156	0.000995	-0.016155	0.019444	-0.812256	0.309326	0.403076	0.095037	-0.000577	-0.020404	0.274475	-0.694363	-0.347251	-0.567398	176.410006	-78.120741	56.053031
61685		9.497769	0.016070	-2.052134	-0.120201	0.021274	-0.096504	0.012522	-0.014182	0.014660	-0.807129	0.310303	0.395996	0.094979	0.000169	-0.020515	0.274509	-0.694408	-0.347291	-0.567301	176.439450	-78.110438	56.030839
61686		9.492779	0.035184	-2.131677	-0.150898	-0.052088	-0.084756	0.018610	-0.017466	0.020266	-0.806152	0.308350	0.405273	0.094930	0.000363	-0.021308	0.274574	-0.694465	-0.347332	-0.567174	176.488599	-78.098420	55.992025
61687		9.545749	0.107263	-2.131794	-0.085267	-0.086065	-0.031956	0.028567	-0.017496	0.012648	-0.811768	0.311035	0.400391	0.095459	0.001082	-0.021309	0.274653	-0.694495	-0.347429	-0.567041	176.522216	-78.086145	55.974962
61688		9.527432	0.015431	-2.217721	-0.209282	-0.099110	-0.033277	0.013669	-0.016881	0.019337	-0.804199	0.310547	0.399170	0.095276	0.000165	-0.022169	0.274698	-0.694556	-0.347458	-0.566926	176.565692	-78.074391	55.938815
61689		9.401577	-0.034370	-2.155609	-0.224103	-0.041697	-0.169787	0.027962	-0.011129	0.017133	-0.808838	0.319580	0.406738	0.094017	-0.000333	-0.021551	0.274799	-0.694576	-0.347528	-0.566810	176.609959	-78.065905	55.910510
61690		9.572649	0.112990	-2.119042	-0.063538	-0.073168	-0.008131	0.019378	-0.009795	0.013525	-0.808838	0.325439	0.402344	0.095727	0.001138	-0.021186	0.274861	-0.694599	-0.347584	-0.566717	176.639936	-78.058001	55.891718
61691		9.528140	0.014327	-2.120503	-0.146150	-0.021593	-0.052545	0.013990	-0.010561	0.018995	-0.809814	0.317871	0.401367	0.095283	0.000154	-0.021200	0.274919	-0.694640	-0.347608	-0.566624	176.681054	-78.049895	55.858447
61692		9.558344	0.053704	-2.058507	-0.072770	0.007991	-0.035320	0.013749	-0.004568	0.014039	-0.804443	0.312988	0.400635	0.095584	0.000545	-0.020583	0.274974	-0.694655	-0.347641	-0.566559	176.708357	-78.045026	55.839407
61693		9.657500	0.228313	-1.956473	0.139210	-0.001524	0.042659	0.016982	-0.002781	0.005673	-0.812256	0.311768	0.402588	0.096575	0.002288	-0.019563	0.275018	-0.694647	-0.347709	-0.566506	176.713934	-78.040926	55.844217
61694		9.663807	0.445551	-1.837377	0.384312	-0.039533	0.026743	0.005540	-0.003014	0.013509	-0.815674	0.318604	0.407715	0.096638	0.004463	-0.018372	0.275044	-0.694669	-0.347717	-0.566461	176.734396	-78.036929	55.826975
61695		9.667934	0.208237	-1.855850	0.186288	0.091329	0.031775	-0.002701	-0.009291	0.013354	-0.808350	0.316650	0.399170	0.096680	0.002089	-0.018554	0.275030	-0.694720	-0.347711	-0.566410	176.750419	-78.029356	55.809579
61696		9.575417	0.193981	-1.908346	0.134378	0.044254	-0.048057	0.010845	-0.014564	0.013336	-0.806396	0.321289	0.395508	0.095755	0.001947	-0.019076	0.275054	-0.694767	-0.347751	-0.566316	176.775248	-78.018751	55.791105
61697		9.600262	0.174658	-1.938967	0.105668	0.037383	-0.017660	0.001183	-0.016034	0.020989	-0.802734	0.314209	0.397217	0.096004	0.001757	-0.019382	0.275063	-0.694844	-0.347739	-0.566224	176.815024	-78.007561	55.751700
61698		9.504854	-0.004823	-2.120068	-0.153664	-0.009659	-0.075478	0.004843	-0.020135	0.019118	-0.799561	0.316895	0.408691	0.095051	-0.000039	-0.021191	0.275074	-0.694924	-0.347751	-0.566113	176.852696	-77.993967	55.716785
61699		9.501795	-0.036219	-2.167662	-0.205015	-0.027138	-0.068899	0.005647	-0.015220	0.020343	-0.801270	0.317627	0.402588	0.095020	-0.000352	-0.021669	0.275099	-0.694992	-0.347753	-0.566016	176.893020	-77.983212	55.679432
61700		9.574851	0.094455	-2.206370	-0.113429	-0.123476	0.012110	0.005152	-0.010468	0.023322	-0.811768	0.321289	0.398682	0.095750	0.000956	-0.022059	0.275138	-0.695053	-0.347735	-0.565933	176.940589	-77.975232	55.634174
61701		9.469719	-0.105976	-2.177716	-0.266287	0.002504	-0.098865	-0.002715	-0.005939	0.017903	-0.807373	0.318115	0.397949	0.094698	-0.001052	-0.021774	0.275142	-0.695102	-0.347709	-0.565887	176.968121	-77.969702	55.604999
61702		9.556275	0.037096	-2.068457	-0.075968	0.015709	-0.035354	0.020387	-0.008137	0.011727	-0.803711	0.321289	0.405273	0.095564	0.000379	-0.020681	0.275207	-0.695114	-0.347774	-0.565801	176.992854	-77.962728	55.592406
61703		9.648801	0.183697	-1.935587	0.131678	0.046103	0.029067	0.023501	-0.001385	0.009414	-0.807617	0.316895	0.398682	0.096488	0.001844	-0.019355	0.275287	-0.695099	-0.347845	-0.565736	177.011942	-77.959545	55.587222
61704		9.528830	0.002981	-1.930753	-0.022164	0.138806	-0.091234	0.029111	-0.003270	0.013444	-0.813232	0.321777	0.399658	0.095289	0.000039	-0.019306	0.275395	-0.695089	-0.347921	-0.565650	177.045560	-77.955390	55.570471
61705		9.549919	-0.070491	-1.951731	-0.088882	0.170647	-0.067014	0.056814	-0.009035	0.013081	-0.812256	0.321289	0.405762	0.095500	-0.000693	-0.019513	0.275587	-0.695056	-0.348084	-0.565496	177.094595	-77.947935	55.554182
61706		9.618378	0.080846	-2.068530	-0.027669	0.000237	0.025899	0.047988	-0.012282	0.012869	-0.806396	0.318359	0.407959	0.096185	0.000820	-0.020679	0.275743	-0.695044	-0.348228	-0.565346	177.138661	-77.938608	55.537876
61707		9.551543	0.127704	-2.136305	-0.036247	-0.092173	-0.024824	0.031218	-0.008770	0.021258	-0.804443	0.312012	0.404053	0.095516	0.001291	-0.021359	0.275870	-0.695060	-0.348290	-0.565226	177.194806	-77.931530	55.499318
61708		9.523984	0.058152	-2.222010	-0.143913	-0.121363	-0.034572	0.004827	-0.006192	0.015324	-0.806641	0.313232	0.403320	0.095240	0.000589	-0.022217	0.275893	-0.695096	-0.348293	-0.565170	177.219780	-77.925739	55.476941
61709		9.474119	0.036580	-2.232687	-0.172164	-0.124675	-0.081296	0.003062	-0.008304	0.010962	-0.800293	0.320801	0.400879	0.094742	0.000371	-0.022323	0.275894	-0.695131	-0.348311	-0.565115	177.232118	-77.918634	55.466683
61710		9.344865	-0.120887	-2.228901	-0.309635	-0.048148	-0.210035	-0.003570	-0.004737	0.013263	-0.811035	0.318848	0.403320	0.093449	-0.001203	-0.022287	0.275884	-0.695170	-0.348297	-0.565080	177.246573	-77.913620	55.450301
61711		9.409291	-0.121011	-2.195199	-0.281049	-0.010055	-0.154054	0.011180	-0.011602	0.008443	-0.803467	0.315430	0.408447	0.094094	-0.001205	-0.021947	0.275900	-0.695199	-0.348351	-0.565003	177.257231	-77.904558	55.446518
61712		9.502248	-0.029408	-2.131516	-0.158133	0.001069	-0.075545	0.023185	-0.011066	0.005208	-0.806396	0.317139	0.401123	0.095024	-0.000289	-0.021310	0.275950	-0.695206	-0.348448	-0.564912	177.266302	-77.895693	55.451236
61713		9.648903	0.136341	-2.066516	0.030697	-0.022380	0.055898	0.024914	-0.006210	0.001599	-0.797607	0.322266	0.396973	0.096490	0.001367	-0.020662	0.276004	-0.695189	-0.348557	-0.564839	177.265867	-77.889529	55.466846
61714		9.604486	-0.016666	-2.135380	-0.136624	0.009721	0.025378	0.026592	-0.005831	0.002919	-0.805664	0.324951	0.408203	0.096045	-0.000162	-0.021351	0.276069	-0.695170	-0.348666	-0.564762	177.270154	-77.883608	55.478691
61715		9.676729	0.091230	-2.119489	-0.032042	-0.029528	0.093762	0.025214	-0.011080	-0.002912	-0.801514	0.318359	0.401611	0.096768	0.000914	-0.021189	0.276103	-0.695159	-0.348798	-0.564678	177.258510	-77.874533	55.505942
61716		9.562941	0.149429	-2.151373	-0.017468	-0.107829	-0.010206	0.025304	-0.009347	0.000128	-0.812256	0.325195	0.407959	0.095630	0.001497	-0.021509	0.276149	-0.695148	-0.348918	-0.564595	177.255112	-77.866512	55.524758
61717		9.555392	0.177041	-2.053130	0.062606	-0.047925	-0.037924	0.021518	-0.014803	-0.000656	-0.810303	0.322754	0.405518	0.095555	0.001772	-0.020524	0.276170	-0.695156	-0.349037	-0.564501	177.247878	-77.855367	55.545334
61718		9.595354	0.176558	-1.836014	0.196630	0.129995	-0.044506	0.027230	-0.018311	0.001869	-0.808594	0.317871	0.402100	0.095955	0.001769	-0.018351	0.276212	-0.695171	-0.349168	-0.564381	177.251384	-77.842266	55.558267
61719		9.665282	0.236308	-1.712027	0.327231	0.204677	-0.001695	0.034969	-0.021835	-0.003727	-0.804932	0.318115	0.400879	0.096655	0.002364	-0.017109	0.276258	-0.695175	-0.349345	-0.564244	177.244649	-77.827012	55.586218
61720		9.567414	0.144723	-1.701980	0.250404	0.253052	-0.100512	0.038227	-0.030019	0.008775	-0.812500	0.322998	0.402344	0.095677	0.001455	-0.017005	0.276338	-0.695219	-0.349500	-0.564055	177.274211	-77.807411	55.578944
61721		9.540586	0.291039	-1.695506	0.370865	0.167986	-0.126798	0.045585	-0.044338	0.008468	-0.800293	0.314209	0.409180	0.095409	0.002918	-0.016933	0.276416	-0.695293	-0.349696	-0.563804	177.308679	-77.779613	55.570967
61722		9.491023	0.293043	-1.765019	0.329627	0.107671	-0.160722	0.033304	-0.057283	0.015504	-0.806152	0.319580	0.411377	0.094915	0.002941	-0.017623	0.276449	-0.695433	-0.349850	-0.563519	177.356381	-77.744582	55.542125
61723		9.475567	0.044175	-1.857425	0.079518	0.186865	-0.158822	0.025241	-0.060075	0.021458	-0.809814	0.319092	0.402100	0.094761	0.000454	-0.018546	0.276466	-0.695602	-0.349965	-0.563231	177.415005	-77.708114	55.497495
61724		9.463616	-0.095392	-1.891252	-0.047857	0.246719	-0.164744	0.040754	-0.069874	0.018223	-0.795410	0.322754	0.396484	0.094643	-0.000941	-0.018880	0.276510	-0.695772	-0.350148	-0.562886	177.475083	-77.665939	55.460362
61725		9.473877	0.119104	-1.857458	0.150578	0.150804	-0.160057	0.047051	-0.079776	0.016267	-0.811035	0.315674	0.412598	0.094746	0.001203	-0.018537	0.276554	-0.695957	-0.350370	-0.562497	177.534231	-77.618044	55.427974
61726		9.431497	0.017716	-1.941939	0.021274	0.144133	-0.184430	0.048883	-0.087121	0.019508	-0.803955	0.324707	0.411133	0.094323	0.000191	-0.019378	0.276600	-0.696165	-0.350595	-0.562076	177.603522	-77.566017	55.386220
61727		9.486594	-0.147388	-1.966236	-0.110944	0.240305	-0.126965	0.041598	-0.096189	0.022540	-0.801514	0.318848	0.401123	0.094876	-0.001459	-0.019617	0.276614	-0.696414	-0.350802	-0.561631	177.676761	-77.508859	55.336189
61728		9.413117	-0.122792	-1.910271	-0.059733	0.262760	-0.210690	0.048607	-0.102919	0.018745	-0.804443	0.322754	0.406738	0.094141	-0.001214	-0.019055	0.276629	-0.696666	-0.351051	-0.561156	177.744625	-77.447749	55.295747
61729		9.542645	-0.019056	-1.893720	0.056358	0.243860	-0.087156	0.034961	-0.102726	0.011232	-0.803955	0.326904	0.402100	0.095436	-0.000182	-0.018888	0.276576	-0.696923	-0.351288	-0.560715	177.784671	-77.386571	55.275806
61730		9.467533	-0.185426	-1.987180	-0.133577	0.265161	-0.141633	0.019767	-0.108360	0.018362	-0.807129	0.322021	0.406738	0.094686	-0.001844	-0.019821	0.276481	-0.697228	-0.351466	-0.560271	177.834723	-77.322335	55.236834
61731		9.488829	-0.074959	-2.046433	-0.069911	0.164904	-0.107056	0.019259	-0.113711	0.007707	-0.800049	0.323975	0.407471	0.094900	-0.000744	-0.020410	0.276344	-0.697530	-0.351686	-0.559824	177.857286	-77.254786	55.225582
61732		9.552531	-0.027382	-2.133439	-0.067388	0.089228	-0.025418	0.019127	-0.119928	0.009596	-0.797363	0.326660	0.408203	0.095538	-0.000267	-0.021277	0.276201	-0.697853	-0.351907	-0.559353	177.885196	-77.183730	55.208831
61733		9.611007	-0.113107	-2.224625	-0.174612	0.089811	0.051117	-0.003637	-0.118082	0.006473	-0.798584	0.325195	0.409668	0.096123	-0.001128	-0.022189	0.275973	-0.698196	-0.352073	-0.558933	177.891605	-77.113651	55.200687
61734		9.577905	-0.075358	-2.285108	-0.176844	0.024044	0.032707	-0.004166	-0.124530	0.005289	-0.802246	0.322021	0.410400	0.095793	-0.000752	-0.022791	0.275728	-0.698556	-0.352251	-0.558492	177.895592	-77.039863	55.194808
61735		9.549668	0.104850	-2.164579	0.041372	0.015295	-0.020313	-0.014285	-0.126831	-0.002567	-0.800537	0.325928	0.413086	0.095510	0.001046	-0.021585	0.275422	-0.698922	-0.352431	-0.558071	177.874206	-76.964583	55.208923
61736		9.516758	-0.057806	-2.041662	-0.014289	0.213745	-0.081577	-0.024513	-0.131971	-0.003981	-0.791016	0.325928	0.407959	0.095181	-0.000582	-0.020354	0.275067	-0.699313	-0.352594	-0.557653	177.844450	-76.886339	55.225678
61737		9.512669	-0.160352	-2.012553	-0.073349	0.309011	-0.093321	0.002190	-0.133917	-0.017216	-0.798096	0.329102	0.414063	0.095140	-0.001611	-0.020062	0.274765	-0.699650	-0.352880	-0.557198	177.797801	-76.806680	55.275440
61738		9.577541	0.002239	-1.966173	0.098602	0.272117	-0.039696	0.010375	-0.138881	-0.021327	-0.805420	0.323975	0.416260	0.095789	0.000013	-0.019595	0.274472	-0.699981	-0.353211	-0.556717	177.747244	-76.724093	55.334249
61739		9.747506	0.152958	-1.947462	0.258906	0.241489	0.122327	0.019053	-0.145246	-0.023879	-0.805420	0.318848	0.421875	0.097489	0.001520	-0.019404	0.274190	-0.700314	-0.353583	-0.556202	177.696442	-76.637776	55.398242
61740		9.685548	0.181223	-2.026681	0.234082	0.165028	0.080142	0.011590	-0.154443	-0.022340	-0.802734	0.314697	0.426514	0.096871	0.001803	-0.020192	0.273869	-0.700684	-0.353940	-0.555665	177.646929	-76.546235	55.456493
61741		9.766728	0.381264	-1.891263	0.491681	0.180839	0.128980	0.012099	-0.168710	-0.026447	-0.799072	0.322754	0.409668	0.097684	0.003801	-0.018830	0.273513	-0.701086	-0.354333	-0.555083	177.589877	-76.446399	55.522865
61742		9.860939	0.426261	-1.814166	0.593782	0.248110	0.202144	0.000196	-0.183189	-0.019266	-0.799072	0.321777	0.422363	0.098626	0.004253	-0.018051	0.273110	-0.701557	-0.354687	-0.554460	177.545520	-76.338463	55.569178
61743		9.819912	0.286771	-1.698710	0.554455	0.430467	0.132451	0.005040	-0.206809	-0.006295	-0.799316	0.327393	0.422363	0.098217	0.002865	-0.016885	0.272718	-0.702108	-0.355041	-0.553728	177.537117	-76.217291	55.581369
61744		9.971168	0.701797	-1.443664	1.069032	0.428098	0.220993	0.009446	-0.238517	0.003978	-0.795654	0.314697	0.419189	0.099729	0.007021	-0.014317	0.272313	-0.702759	-0.355414	-0.552862	177.558569	-76.078256	55.565511
61745		10.092920	1.374536	-0.992231	1.903260	0.419574	0.234323	-0.013481	-0.262561	0.019605	-0.786865	0.326172	0.423584	0.100941	0.013755	-0.009791	0.271828	-0.703534	-0.355701	-0.551930	177.604340	-75.925798	55.510949
61746		10.650010	2.180592	-0.100304	3.166346	0.760906	0.559532	-0.032397	-0.320308	0.070844	-0.787354	0.320557	0.432861	0.106494	0.021843	-0.000836	0.271314	-0.704583	-0.355834	-0.550758	177.759233	-75.741504	55.332720
61747		11.417809	3.034362	0.790536	4.507155	1.118273	1.079213	-0.052091	-0.408235	0.120467	-0.785645	0.321533	0.435791	0.114143	0.030414	0.008130	0.270710	-0.705987	-0.355855	-0.549242	178.015588	-75.507700	55.037839
61748		11.744738	3.533214	1.415706	5.360308	1.396506	1.221044	-0.089010	-0.516062	0.186227	-0.786865	0.323486	0.445068	0.117377	0.035448	0.014444	0.269961	-0.707850	-0.355685	-0.547319	178.392039	-75.212998	54.596431
61749		11.751247	3.831253	1.821727	5.892286	1.561145	1.092920	-0.154029	-0.636984	0.256949	-0.779297	0.320801	0.438477	0.117404	0.038478	0.018562	0.268959	-0.710250	-0.355248	-0.544982	178.870884	-74.849100	54.009989
61750		12.059126	4.430549	1.897813	6.534249	1.353952	1.328387	-0.214861	-0.781372	0.354598	-0.775146	0.319092	0.442383	0.120437	0.044540	0.019401	0.267746	-0.713287	-0.354485	-0.542102	179.493963	-74.401992	53.236525
61751		12.215030	4.949228	1.968756	7.104705	1.157712	1.401563	-0.297481	-0.923002	0.474314	-0.769043	0.330566	0.458984	0.121940	0.049811	0.020177	0.266306	-0.717014	-0.353254	-0.538688	-179.731456	-73.871244	52.254671
61752		12.181963	4.925667	1.778955	7.078878	1.048211	1.350471	-0.365365	-1.066036	0.584899	-0.765381	0.332031	0.463867	0.121578	0.049646	0.018348	0.264658	-0.721385	-0.351622	-0.534717	-178.845870	-73.254196	51.113629
61753		12.233846	3.954550	1.255679	6.143490	1.291271	1.477576	-0.339241	-1.202428	0.689153	-0.749268	0.336914	0.476563	0.122123	0.039989	0.013224	0.263131	-0.726238	-0.349848	-0.530044	-177.836089	-72.551760	49.854406
61754		12.432321	3.244002	0.534473	5.350396	1.276522	1.811110	-0.220601	-1.316197	0.768541	-0.734619	0.339111	0.484131	0.124159	0.032924	0.006126	0.262032	-0.731334	-0.348230	-0.524620	-176.720842	-71.775640	48.550703
61755		12.785600	3.160114	-0.174082	5.112816	0.937842	2.289554	-0.077643	-1.393249	0.809396	-0.728516	0.347900	0.503418	0.127735	0.032118	-0.000863	0.261413	-0.736472	-0.346918	-0.518576	-175.565879	-70.945798	47.285479
61756		12.567918	3.062219	-1.210465	4.564615	0.239482	2.348659	0.026535	-1.413969	0.821932	-0.712402	0.349365	0.511475	0.125633	0.031140	-0.011212	0.261155	-0.741500	-0.345832	-0.512226	-174.436765	-70.095822	46.104364
61757		11.624618	1.831450	-2.350034	2.901754	-0.000986	1.831420	0.117815	-1.423450	0.826556	-0.705566	0.357178	0.520996	0.116332	0.018809	-0.022662	0.261215	-0.746392	-0.344954	-0.505641	-173.345037	-69.232488	45.012684
61758		11.125278	0.626711	-3.782010	1.192461	-0.362180	1.888254	0.226286	-1.400052	0.788208	-0.687744	0.369629	0.522949	0.111488	0.006748	-0.037033	0.261603	-0.750967	-0.344437	-0.498975	-172.329957	-68.378558	44.063170
61759		10.440163	-1.029017	-5.183754	-0.900902	-0.470378	1.844564	0.384127	-1.326546	0.745110	-0.676270	0.363037	0.534912	0.104780	-0.009802	-0.051163	0.262588	-0.755030	-0.344359	-0.492335	-171.343409	-67.563783	43.236972
61760		8.858427	-2.708801	-6.934313	-3.469953	-1.074027	1.173558	0.496290	-1.204067	0.680184	-0.660400	0.384033	0.551758	0.089091	-0.026614	-0.068874	0.264031	-0.758488	-0.344621	-0.486025	-170.415418	-66.819513	42.539041
61761		7.042727	-4.345953	-8.232484	-5.851317	-1.469447	0.180411	0.603466	-1.038563	0.594173	-0.657471	0.386963	0.543945	0.070982	-0.043001	-0.082087	0.265946	-0.761217	-0.345235	-0.480244	-169.547384	-66.172677	41.970133
61762		4.579413	-5.450860	-9.195704	-7.866943	-2.163271	-1.525721	0.627071	-0.867703	0.519426	-0.647705	0.397949	0.552979	0.046334	-0.054100	-0.091927	0.268053	-0.763345	-0.345947	-0.475156	-168.754624	-65.627210	41.495422
61763		2.740796	-5.654340	-9.043854	-8.430744	-2.450228	-3.164911	0.578657	-0.653128	0.324423	-0.642090	0.394531	0.551270	0.027795	-0.056237	-0.090511	0.269877	-0.764669	-0.346993	-0.471215	-168.198392	-65.221906	41.248966
61764		1.418395	-4.893281	-7.498073	-7.379460	-2.168843	-5.015124	0.528075	-0.347188	-0.004596	-0.637939	0.407227	0.556885	0.014313	-0.048735	-0.075085	0.271258	-0.764757	-0.348758	-0.468971	-168.000160	-65.026616	41.364207
61765		1.617149	-4.618896	-5.856361	-6.218452	-1.093901	-5.525440	0.426148	-0.010858	-0.290576	-0.642822	0.406982	0.550049	0.016108	-0.046087	-0.058661	0.272164	-0.763691	-0.350920	-0.468571	-168.118660	-65.053513	41.764842
61766		1.449333	-4.184031	-5.222313	-5.600885	-0.964401	-5.994432	0.372117	0.352366	-0.526876	-0.640137	0.400879	0.545654	0.014291	-0.041781	-0.052326	0.272944	-0.761424	-0.353358	-0.469972	-168.466275	-65.311160	42.383082
61767		2.128078	-3.799226	-5.216583	-5.107963	-1.036669	-5.452739	0.315849	0.704283	-0.847894	-0.644531	0.399902	0.537109	0.020936	-0.037999	-0.052300	0.273371	-0.757822	-0.356399	-0.473237	-169.171806	-65.799717	43.357465
61768		2.338969	-3.371394	-5.346761	-4.816242	-1.372237	-5.302158	0.290791	1.028547	-1.123375	-0.656494	0.393311	0.538330	0.022925	-0.033766	-0.053635	0.273616	-0.752961	-0.359963	-0.478132	-170.209372	-66.493252	44.674444
61769		3.534158	-1.637226	-5.250970	-3.098758	-2.034247	-4.427334	0.267446	1.298469	-1.321111	-0.676514	0.393311	0.526123	0.034891	-0.016533	-0.052759	0.273767	-0.747075	-0.363822	-0.484318	-171.543974	-67.346208	46.292280
61770		5.280801	-0.723476	-5.155021	-1.943897	-2.055396	-2.958527	0.211083	1.524009	-1.493618	-0.682617	0.382813	0.514648	0.052357	-0.007572	-0.051958	0.273671	-0.740331	-0.367841	-0.491637	-173.232604	-68.323405	48.246486
61771		6.939917	1.253985	-4.565602	0.241685	-2.338077	-1.747190	0.187999	1.725953	-1.663637	-0.690674	0.376221	0.502930	0.069103	0.012007	-0.046242	0.273409	-0.732713	-0.372110	-0.499914	-175.335112	-69.400561	50.616603
61772		8.010332	2.493074	-4.219290	1.496404	-2.532787	-0.894982	0.049902	1.845084	-1.788676	-0.719971	0.353516	0.482666	0.079928	0.024226	-0.042925	0.272506	-0.724640	-0.376270	-0.508978	-177.953854	-70.514033	53.434778
61773		6.843869	-0.993860	-5.008197	-2.217921	-1.528544	-1.710268	0.008090	1.856473	-1.729602	-0.726318	0.347412	0.478516	0.067881	-0.010525	-0.050714	0.271580	-0.716587	-0.380034	-0.517998	179.184958	-71.586266	56.465197
61774		6.185876	-1.758198	-4.429239	-2.820972	-0.878864	-2.584846	0.128886	1.707572	-1.527484	-0.737549	0.334229	0.458496	0.061341	-0.018023	-0.044829	0.271286	-0.709035	-0.383532	-0.525905	176.428923	-72.528085	59.439991
61775		7.913712	-1.160981	-3.593647	-1.767935	-0.168113	-1.225921	0.206960	1.552802	-1.376317	-0.747559	0.328857	0.453857	0.078773	-0.012115	-0.036561	0.271338	-0.701988	-0.386865	-0.532845	173.725497	-73.344268	62.392396
61776		7.605355	-1.737497	-3.415682	-2.344525	0.154461	-1.627060	0.331042	1.390942	-1.283342	-0.757324	0.310303	0.438477	0.075700	-0.017804	-0.034713	0.271732	-0.695315	-0.390381	-0.538797	171.049858	-74.033936	65.378110
61777		6.589756	-1.909245	-2.953238	-2.477999	0.310422	-2.773248	0.454387	1.162505	-1.129015	-0.768066	0.305176	0.424072	0.065615	-0.019396	-0.029958	0.272504	-0.689332	-0.393972	-0.543460	168.612186	-74.572294	68.181151
61778		7.070377	-1.374530	-2.253225	-1.702553	0.660309	-2.490043	0.529277	0.906301	-0.939528	-0.774902	0.304688	0.420166	0.070535	-0.014017	-0.022889	0.273525	-0.684277	-0.397438	-0.546802	166.561396	-74.960366	70.621152
61779		7.341663	-0.994068	-2.207906	-1.411511	0.528442	-2.230406	0.526953	0.680659	-0.734542	-0.784912	0.295166	0.414795	0.073304	-0.010151	-0.022355	0.274642	-0.680219	-0.400489	-0.549074	164.956590	-75.231408	72.594816
61780		10.340895	0.159978	1.822109	1.848094	3.909252	-0.242859	0.298400	0.471631	-0.489958	-0.786865	0.297119	0.403320	0.103455	0.001319	0.017979	0.275225	-0.677525	-0.402358	-0.550744	163.804460	-75.412443	73.962770
61781		19.569254	4.836947	8.972593	10.179617	9.506123	7.300702	0.131721	0.145792	0.196161	-0.776367	0.303955	0.403809	0.195710	0.048502	0.089615	0.276478	-0.677331	-0.401890	-0.550697	164.194389	-75.520138	73.638488
61782		26.989170	6.732800	5.554023	10.644575	7.466710	15.397011	0.515195	-0.299759	0.903353	-0.776855	0.299561	0.403809	0.269501	0.068402	0.056120	0.280076	-0.679245	-0.400691	-0.547385	166.580149	-75.481086	71.479528
61783		17.581453	4.699840	0.282273	5.602358	1.981298	7.390868	1.044365	-0.335069	0.408336	-0.777344	0.313721	0.403809	0.175713	0.047341	0.003364	0.284038	-0.679501	-0.402660	-0.543568	168.202584	-75.341440	70.421929
61784		6.068253	7.134841	-2.214750	5.528713	-4.016381	-3.035079	1.065985	-0.289707	0.089453	-0.772705	0.312256	0.402344	0.060682	0.071492	-0.021679	0.287287	-0.678939	-0.405691	-0.540299	169.113833	-75.185671	70.111402
61785		3.832539	0.407857	-5.683367	-2.130124	-3.998162	-4.652039	0.765729	-0.378833	0.364736	-0.768555	0.314453	0.408936	0.038425	0.004366	-0.056745	0.290074	-0.679589	-0.407097	-0.536925	170.455534	-75.005915	69.177570
61786		7.518453	-2.569412	-7.963280	-5.413580	-3.527424	-0.604415	0.667880	-0.462967	0.552816	-0.761475	0.327637	0.403809	0.075439	-0.025220	-0.079543	0.292852	-0.680975	-0.407710	-0.533181	172.132145	-74.788667	67.837356
61787		10.332948	-5.613480	-8.403068	-7.888024	-1.729971	2.173859	0.610350	-0.350456	0.638490	-0.758545	0.334717	0.402588	0.103655	-0.055548	-0.084019	0.295889	-0.682304	-0.407708	-0.529798	173.884853	-74.630911	66.383448
61788		9.598938	-4.741498	-8.083381	-6.952812	-2.115457	1.463153	0.706225	-0.235108	0.519137	-0.760010	0.349121	0.405029	0.096207	-0.046880	-0.080887	0.299163	-0.682928	-0.408185	-0.526779	175.393567	-74.521775	65.238371
61789		8.623294	-3.068824	-7.886932	-5.426376	-3.050125	0.542653	0.671357	-0.126632	0.380338	-0.750000	0.348145	0.401855	0.086341	-0.030259	-0.078917	0.302171	-0.683022	-0.408876	-0.524399	176.565047	-74.461927	64.422397
61790		9.781862	-0.025610	-6.779424	-2.040518	-3.343255	1.425845	0.618173	-0.062351	0.276879	-0.757813	0.348145	0.397705	0.097840	0.000089	-0.067764	0.304852	-0.682808	-0.409677	-0.522496	177.480152	-74.431786	63.840477
61791		11.298065	1.279683	-5.468533	-0.053695	-2.519369	2.550096	0.472919	0.028710	0.204243	-0.752686	0.352051	0.401611	0.112960	0.013041	-0.054671	0.307032	-0.682422	-0.410206	-0.521308	178.153654	-74.450071	63.423199
61792		10.636464	-0.167260	-5.155374	-1.231437	-1.750241	1.813160	0.360317	0.138341	0.112371	-0.748291	0.368164	0.394775	0.106330	-0.001520	-0.051630	0.308810	-0.681733	-0.410583	-0.520863	178.568566	-74.528487	63.207126
61793		8.956465	-1.986926	-4.915166	-2.915559	-1.118614	0.115712	0.355283	0.215697	0.052699	-0.756836	0.368164	0.389648	0.089517	-0.019758	-0.049283	0.310574	-0.680723	-0.411030	-0.520782	178.856066	-74.650177	63.120631
61794		8.600142	-2.525016	-4.739674	-3.347639	-0.838391	-0.278909	0.423919	0.243759	0.057390	-0.755859	0.361328	0.390869	0.085951	-0.025125	-0.047555	0.312640	-0.679540	-0.411595	-0.520645	179.195068	-74.787749	63.021540
61795		8.986545	-2.165292	-4.547763	-2.889846	-0.794266	0.043599	0.530912	0.256413	0.046003	-0.749756	0.365967	0.389404	0.089812	-0.021511	-0.045650	0.315064	-0.678128	-0.412454	-0.520345	179.574930	-74.932447	62.943719
61796		9.364052	-0.656393	-3.611759	-1.082620	-0.641523	0.166160	0.584200	0.267718	0.007697	-0.759033	0.362061	0.384277	0.093592	-0.006455	-0.036262	0.317588	-0.676519	-0.413558	-0.520029	179.907694	-75.083234	62.946013
61797		9.999028	0.551924	-2.795436	0.428498	-0.378000	0.568694	0.528455	0.288810	-0.025415	-0.758545	0.359863	0.378418	0.099950	0.005581	-0.028084	0.319880	-0.674867	-0.414593	-0.519947	-179.860612	-75.246275	63.020124
61798		9.883717	0.476146	-1.927898	0.720155	0.349434	0.236718	0.444393	0.334097	-0.039440	-0.764160	0.378906	0.372559	0.098806	0.004785	-0.019433	0.321940	-0.673198	-0.415379	-0.520210	-179.705918	-75.435185	63.123639
61799		9.640930	0.165991	-1.552333	0.564865	0.729086	-0.089824	0.363969	0.359286	-0.054660	-0.764160	0.367188	0.367676	0.096382	0.001662	-0.015693	0.323742	-0.671556	-0.415966	-0.520746	-179.631052	-75.638803	63.262258
61800		9.640728	0.281551	-1.235170	0.789001	0.923347	-0.165233	0.306572	0.358588	-0.048065	-0.766357	0.370117	0.369629	0.096386	0.002811	-0.012520	0.325365	-0.670018	-0.416379	-0.521384	-179.574985	-75.841886	63.386119
61801		9.862397	0.073407	-1.590559	0.455441	0.724477	0.140690	0.206439	0.381238	-0.088444	-0.768066	0.371338	0.359619	0.098594	0.000707	-0.016093	0.326593	-0.668496	-0.416628	-0.522371	-179.670866	-76.058235	63.607453
61802		9.513801	0.064093	-2.226593	0.118603	0.067904	-0.042557	0.080269	0.370602	-0.038671	-0.776367	0.371826	0.360107	0.095097	0.000632	-0.022442	0.327504	-0.667310	-0.416395	-0.523501	-179.727694	-76.268133	63.713689
61803		8.693013	-0.884401	-2.932233	-1.137631	-0.336500	-0.672605	0.014093	0.360838	-0.018350	-0.768555	0.370850	0.354004	0.086876	-0.008850	-0.029480	0.328228	-0.666297	-0.415937	-0.524701	-179.777265	-76.472499	63.773573
61804		8.920732	0.762575	-2.936527	0.347678	-1.041666	-0.454367	-0.080892	0.320994	-0.014402	-0.781738	0.369873	0.348633	0.089161	0.007607	-0.029511	0.328561	-0.665552	-0.415280	-0.525958	-179.873692	-76.653873	63.825473
61805		9.523763	0.270365	-2.196004	0.264347	-0.077837	-0.039174	-0.304537	0.309710	-0.006432	-0.767334	0.370605	0.354004	0.095204	0.002667	-0.022112	0.328147	-0.665216	-0.414026	-0.527627	179.918003	-76.828884	63.860784
61806		9.388031	-0.307419	-1.362016	0.074155	0.855590	-0.360326	-0.301539	0.277849	0.022924	-0.772705	0.361328	0.350586	0.093862	-0.003084	-0.013746	0.327752	-0.665018	-0.412733	-0.529132	179.781548	-76.985518	63.823963
61807		9.573119	-1.030471	-0.813180	-0.329804	1.673715	-0.301767	-0.248658	0.253697	0.006655	-0.784424	0.375000	0.351807	0.095721	-0.010312	-0.008240	0.327439	-0.664761	-0.411672	-0.530474	179.633550	-77.128428	63.830201
61808		10.003849	-0.951285	-1.038524	-0.327621	1.510601	0.170858	-0.169101	0.232003	-0.028376	-0.777588	0.364014	0.359131	0.100025	-0.009536	-0.010493	0.327252	-0.664359	-0.410972	-0.531635	179.441725	-77.258616	63.927959
61809		9.638520	-1.091137	-1.535852	-0.719928	1.051076	-0.074752	-0.097561	0.225470	-0.035601	-0.780029	0.373779	0.349854	0.096366	-0.010936	-0.015462	0.327270	-0.663839	-0.410497	-0.532639	179.269458	-77.385071	64.047802
61810		9.210980	-0.916044	-2.205486	-0.913055	0.289103	-0.345472	-0.002857	0.224160	-0.070865	-0.777100	0.355957	0.352783	0.092082	-0.009193	-0.022158	0.327504	-0.663097	-0.410391	-0.533501	179.058103	-77.510275	64.262882
61811		9.304241	-0.633239	-2.568796	-0.826404	-0.151823	-0.176165	0.024941	0.212034	-0.070334	-0.789795	0.367920	0.352783	0.093013	-0.006362	-0.025787	0.327807	-0.662339	-0.410379	-0.534265	178.860019	-77.628486	64.480920
61812		9.618956	-0.639897	-2.835508	-0.935959	-0.335859	0.186564	0.019181	0.209496	-0.080236	-0.790039	0.364746	0.343506	0.096157	-0.006435	-0.028456	0.328058	-0.661579	-0.410385	-0.535047	178.629189	-77.744816	64.728549
61813		9.480897	-0.522909	-2.657688	-0.781931	-0.274224	0.012663	0.029451	0.204934	-0.081204	-0.782959	0.363770	0.338867	0.094780	-0.005264	-0.026675	0.328332	-0.660810	-0.410431	-0.535794	178.396946	-77.858431	64.983986
61814		9.361680	-0.308520	-2.334585	-0.474025	-0.124209	-0.171818	0.049197	0.186854	-0.078494	-0.789551	0.369629	0.340088	0.093594	-0.003116	-0.023434	0.328640	-0.660062	-0.410549	-0.536435	178.180935	-77.961404	65.234166
61815		9.616468	-0.524303	-2.223036	-0.610156	0.105688	0.051883	0.029575	0.173573	-0.078434	-0.789063	0.361328	0.338867	0.096143	-0.005277	-0.022315	0.328857	-0.659380	-0.410638	-0.537073	177.950464	-78.056688	65.487665
61816		9.634473	-0.284523	-1.946088	-0.287336	0.233752	0.013505	0.046180	0.154990	-0.097316	-0.795410	0.358643	0.338135	0.096328	-0.002888	-0.019536	0.329039	-0.658683	-0.410862	-0.537645	177.676892	-78.140563	65.794718
61817		9.517317	-0.069447	-1.761547	-0.038974	0.268843	-0.137287	0.041711	0.146438	-0.106553	-0.793945	0.358887	0.333008	0.095160	-0.000741	-0.017685	0.329164	-0.657996	-0.411119	-0.538213	177.371694	-78.219118	66.131509
61818		9.543345	-0.157287	-1.853104	-0.169898	0.225362	-0.093917	0.032884	0.127420	-0.094604	-0.802246	0.357666	0.341553	0.095421	-0.001615	-0.018592	0.329252	-0.657400	-0.411343	-0.538717	177.093510	-78.286646	66.435305
61819		9.197990	-0.140987	-1.735349	-0.144012	0.251488	-0.455854	0.018749	0.096650	-0.080164	-0.788818	0.363281	0.336182	0.091971	-0.001445	-0.017398	0.329270	-0.656937	-0.411533	-0.539125	176.847945	-78.336842	66.697604
61820		9.418340	0.496848	-1.336626	0.607990	0.355640	-0.313087	0.000066	0.071044	-0.100678	-0.791748	0.361816	0.329834	0.094181	0.004921	-0.013400	0.329117	-0.656534	-0.411780	-0.539520	176.537429	-78.371330	67.014960
61821		9.658249	0.161069	-1.161055	0.391178	0.702344	-0.116841	-0.031931	0.062992	-0.091665	-0.801514	0.353027	0.338379	0.096580	0.001565	-0.011641	0.328868	-0.656222	-0.411926	-0.539940	176.232565	-78.401318	67.308082
61822		9.617009	-0.058774	-1.119327	0.198556	0.829028	-0.168181	-0.057082	0.043432	-0.083581	-0.796631	0.353760	0.335449	0.096167	-0.000631	-0.011214	0.328517	-0.656022	-0.412009	-0.540334	175.938878	-78.420029	67.574865
61823		9.595170	0.051039	-0.774493	0.435529	1.080151	-0.256887	-0.061430	0.031096	-0.108131	-0.797852	0.351807	0.333008	0.095951	0.000456	-0.007760	0.328061	-0.655810	-0.412182	-0.540737	175.575198	-78.430446	67.910731
61824		10.046140	0.256373	-0.468239	0.775012	1.344388	0.127225	-0.042700	0.029341	-0.134406	-0.805664	0.349609	0.334229	0.100462	0.002495	-0.004698	0.327590	-0.655519	-0.412492	-0.541138	175.149422	-78.438090	68.320667
61825		9.684624	-0.154389	-0.525477	0.342579	1.414314	-0.222367	-0.002108	0.010761	-0.120190	-0.803223	0.355957	0.335449	0.096845	-0.001602	-0.005260	0.327253	-0.655239	-0.412898	-0.541371	174.790079	-78.435367	68.686785
61826		9.451669	0.298205	-0.651532	0.664925	1.066028	-0.417534	0.030550	-0.033391	-0.129663	-0.798340	0.348877	0.332520	0.094520	0.002922	-0.006499	0.326906	-0.655007	-0.413493	-0.541408	174.435979	-78.406435	69.066459
61827		9.421080	0.676659	-0.672050	0.984624	0.884975	-0.436463	0.025153	-0.082927	-0.113793	-0.804932	0.352051	0.328613	0.094217	0.006714	-0.006681	0.326482	-0.654949	-0.414104	-0.541267	174.138011	-78.349791	69.385940
61828		9.375912	0.585364	-0.451138	0.991603	1.124699	-0.527987	0.013825	-0.129512	-0.102240	-0.807861	0.344727	0.330322	0.093765	0.005806	-0.004450	0.325955	-0.655059	-0.414722	-0.540977	173.882762	-78.266957	69.655157
61829		9.448574	0.328479	-0.681197	0.663527	1.068095	-0.417670	0.013606	-0.165525	-0.087495	-0.809570	0.352539	0.334717	0.094493	0.003244	-0.006734	0.325393	-0.655297	-0.415350	-0.540546	173.681388	-78.164333	69.869394
61830		9.378852	0.016143	-0.756609	0.346419	1.147039	-0.479958	0.015657	-0.214049	-0.074453	-0.812744	0.347900	0.338623	0.093797	0.000127	-0.007466	0.324772	-0.655689	-0.416018	-0.539929	173.535297	-78.034784	70.028366
61831		9.625172	0.490112	-0.683744	0.823552	1.072922	-0.245964	-0.007590	-0.260826	-0.080166	-0.810303	0.346924	0.342285	0.096262	0.004862	-0.006712	0.323961	-0.656232	-0.416719	-0.539216	173.377878	-77.878143	70.185447
61832		9.734906	0.107448	-0.945795	0.378691	1.062358	-0.096598	-0.054646	-0.287968	-0.059760	-0.799316	0.348633	0.341797	0.097363	0.001043	-0.009318	0.322993	-0.656967	-0.417267	-0.538478	173.259962	-77.707344	70.274423
61833		9.239902	-0.505891	-1.354473	-0.378504	0.907367	-0.512168	-0.072188	-0.322467	-0.053826	-0.807129	0.345947	0.339600	0.092419	-0.005089	-0.013394	0.321911	-0.657832	-0.417805	-0.537652	173.160240	-77.517279	70.334741
61834		9.310921	-0.289686	-1.345711	-0.167846	0.866038	-0.441999	-0.078909	-0.362469	-0.067836	-0.802246	0.341797	0.350830	0.093132	-0.002934	-0.013287	0.320685	-0.658784	-0.418432	-0.536730	173.036641	-77.303512	70.415566
61835		10.098527	-0.140951	-1.417999	-0.000295	0.937875	0.342661	-0.114232	-0.391744	-0.088562	-0.791748	0.336670	0.352051	0.101012	-0.001462	-0.013981	0.319224	-0.659826	-0.419080	-0.535815	172.853300	-77.071552	70.537034
61836		10.172393	-0.858078	-1.677014	-0.742931	1.089438	0.448272	-0.139829	-0.396643	-0.096776	-0.806885	0.345215	0.351807	0.101753	-0.008642	-0.016562	0.317643	-0.660903	-0.419689	-0.534950	172.642823	-76.836121	70.671037
61837		9.906695	-0.371688	-2.134316	-0.523807	0.461893	0.304040	-0.135173	-0.397274	-0.129419	-0.797852	0.335205	0.355957	0.099107	-0.003795	-0.021144	0.315989	-0.661900	-0.420420	-0.534121	172.362851	-76.597764	70.879694
61838		9.526468	0.618314	-1.960677	0.411796	0.130462	-0.076497	-0.196051	-0.409620	-0.138871	-0.793457	0.333008	0.365234	0.095309	0.006098	-0.019418	0.314082	-0.663004	-0.421036	-0.533392	172.039276	-76.351505	71.097476
61839		9.607520	0.756740	-2.145159	0.461765	-0.029041	0.049592	-0.267149	-0.432214	-0.126109	-0.794922	0.338623	0.362793	0.096126	0.007478	-0.021254	0.311922	-0.664302	-0.421454	-0.532714	171.721015	-76.093091	71.268134
61840		9.746406	0.008462	-2.761960	-0.468954	-0.145710	0.305592	-0.320219	-0.430822	-0.138635	-0.805664	0.329590	0.377197	0.097523	-0.000027	-0.027410	0.309554	-0.665649	-0.421765	-0.532168	171.353487	-75.834211	71.458211
61841		9.616592	-0.745640	-3.359203	-1.420455	-0.298291	0.297317	-0.346020	-0.406032	-0.149204	-0.793945	0.331299	0.376709	0.096228	-0.007586	-0.033384	0.307121	-0.666941	-0.422003	-0.531771	170.948730	-75.588087	71.671875
61842		9.701467	-0.173860	-3.662602	-1.048314	-0.748532	0.478274	-0.393503	-0.378039	-0.161290	-0.794434	0.334229	0.387451	0.097082	-0.001889	-0.036439	0.304553	-0.668202	-0.422106	-0.531583	170.491602	-75.356306	71.911453
61843		9.708638	0.977011	-3.516789	0.028462	-1.101878	0.500648	-0.489708	-0.363029	-0.157041	-0.791992	0.325195	0.382813	0.097158	0.009608	-0.035015	0.301706	-0.669571	-0.421915	-0.531635	169.993535	-75.132898	72.136925
61844		9.757253	1.406642	-3.213568	0.535514	-0.986834	0.495022	-0.615352	-0.345522	-0.144896	-0.794434	0.320801	0.385254	0.097638	0.013897	-0.032010	0.298503	-0.671103	-0.421315	-0.531987	169.454167	-74.920094	72.330662
61845		9.836679	1.997783	-2.538760	1.357793	-0.631641	0.432018	-0.650648	-0.339409	-0.159355	-0.795410	0.312256	0.388428	0.098426	0.019817	-0.025285	0.295152	-0.672630	-0.420658	-0.532448	168.871724	-74.708687	72.548467
61846		10.541520	2.032558	-1.865803	1.742644	0.134720	0.942826	-0.668212	-0.355290	-0.163010	-0.788330	0.312744	0.394043	0.105465	0.020178	-0.018538	0.291696	-0.674207	-0.419983	-0.532891	168.289462	-74.487496	72.755881
61847		10.748089	1.565751	-1.537776	1.493851	0.725857	1.030705	-0.586749	-0.380604	-0.158700	-0.790527	0.305664	0.405273	0.107522	0.015527	-0.015219	0.288467	-0.675733	-0.419542	-0.533063	167.783600	-74.251996	72.932650
61848		11.046759	2.078757	-0.830650	2.300293	1.191795	1.156825	-0.481682	-0.433498	-0.163372	-0.798096	0.309570	0.401855	0.110502	0.020678	-0.008117	0.285467	-0.677231	-0.419467	-0.532837	167.361534	-73.985998	73.084945
61849		12.623024	3.128060	-0.141960	3.677989	1.718019	2.543132	-0.545899	-0.480064	-0.107599	-0.788330	0.303955	0.414063	0.126250	0.031209	-0.001202	0.282296	-0.679052	-0.419094	-0.532501	167.038926	-73.700744	73.095755
61850		12.431391	2.456411	-0.249976	3.041446	1.950737	2.335561	-0.584029	-0.531687	-0.001786	-0.787109	0.309570	0.422119	0.124320	0.024556	-0.002241	0.279167	-0.681276	-0.418327	-0.531913	166.921288	-73.400513	72.870175
61851		10.940211	2.867359	-0.542645	3.150775	1.143636	1.002531	-0.537201	-0.592296	-0.004447	-0.781982	0.297607	0.429443	0.109418	0.028657	-0.005179	0.276058	-0.683580	-0.417772	-0.531015	166.848751	-73.066030	72.625051
61852		11.032749	4.450043	-0.619418	4.511137	0.360104	1.206745	-0.601873	-0.680462	0.029831	-0.779297	0.295166	0.429199	0.110341	0.044499	-0.005953	0.272630	-0.686268	-0.417040	-0.529894	166.834682	-72.686957	72.279329
61853		11.066148	3.922969	-0.855768	3.969947	0.485197	1.259146	-0.687685	-0.751133	0.099403	-0.774414	0.294189	0.439453	0.110673	0.039256	-0.008277	0.268937	-0.689387	-0.415930	-0.528602	166.914502	-72.277367	71.783032
61854		10.784279	2.443720	-1.648910	2.308989	0.565356	1.111592	-0.699919	-0.795790	0.139788	-0.775635	0.301025	0.454102	0.107890	0.024456	-0.016145	0.265209	-0.692705	-0.414697	-0.527115	167.060362	-71.847962	71.208687
61855		10.625963	1.267844	-2.372523	0.959413	0.604402	1.089656	-0.651572	-0.795650	0.156469	-0.772461	0.286621	0.458496	0.106343	0.012685	-0.023344	0.261686	-0.695975	-0.413522	-0.525489	167.244669	-71.420053	70.621712
61856		10.707368	1.198402	-2.865347	0.697357	0.338430	1.309036	-0.552186	-0.783340	0.162183	-0.767578	0.283203	0.464111	0.107175	0.011993	-0.028267	0.258541	-0.699077	-0.412561	-0.523681	167.472770	-70.999226	70.046970
61857		10.008087	0.679607	-3.207199	0.043732	0.191225	0.716836	-0.477228	-0.732214	0.161428	-0.760254	0.288330	0.476074	0.100192	0.006801	-0.031722	0.255757	-0.701931	-0.411725	-0.521885	167.707206	-70.606026	69.509785
61858		9.353511	0.328479	-3.890026	-0.649050	-0.305110	0.297389	-0.405083	-0.662443	0.159887	-0.755371	0.286377	0.481445	0.093661	0.003281	-0.038597	0.253359	-0.704495	-0.410984	-0.520181	167.941376	-70.251129	69.015134
61859		8.898466	-0.515464	-4.545820	-1.726475	-0.458227	0.032203	-0.356242	-0.592520	0.185605	-0.744141	0.292969	0.481201	0.089124	-0.005153	-0.045185	0.251342	-0.706858	-0.410187	-0.518580	168.208180	-69.937623	68.514886
61860		8.369789	-0.891066	-5.012871	-2.324432	-0.741391	-0.324624	-0.294889	-0.519721	0.189542	-0.750244	0.299072	0.494141	0.083836	-0.008905	-0.049898	0.249699	-0.708956	-0.409437	-0.517100	168.482281	-69.664701	68.043229
61861		7.686374	-1.025936	-5.199568	-2.599723	-0.991739	-0.900555	-0.301315	-0.459510	0.184620	-0.748047	0.288086	0.501221	0.076992	-0.010266	-0.051803	0.248141	-0.710889	-0.408611	-0.515848	168.717228	-69.424242	67.608802
61862		6.879152	-2.257904	-5.639156	-3.951404	-0.886056	-1.577271	-0.354847	-0.402953	0.233228	-0.747070	0.285156	0.502930	0.068931	-0.022599	-0.056213	0.246632	-0.712838	-0.407398	-0.514841	168.970539	-69.220294	67.121145
61863		6.322065	-3.712790	-5.941614	-5.380831	-0.469228	-2.074317	-0.282157	-0.368295	0.347934	-0.738037	0.301514	0.504639	0.063394	-0.037101	-0.059247	0.245745	-0.714834	-0.405919	-0.513665	169.416577	-69.047153	66.471380
61864		6.364792	-4.032909	-5.802327	-5.534814	-0.141930	-2.080456	-0.163532	-0.363404	0.443463	-0.728027	0.298340	0.505127	0.063842	-0.040235	-0.057874	0.245536	-0.716861	-0.404392	-0.512142	170.060456	-68.884323	65.681620
61865		7.086037	-3.917153	-4.773738	-4.734083	0.837933	-1.736144	-0.004172	-0.389490	0.599006	-0.731201	0.293213	0.511963	0.071070	-0.038960	-0.047598	0.246241	-0.719064	-0.402746	-0.510008	171.015699	-68.717465	64.655076
61866		7.862694	-3.405010	-3.911674	-3.663776	1.473084	-1.261459	0.168109	-0.381733	0.699538	-0.731934	0.305664	0.511475	0.078820	-0.033742	-0.038995	0.247833	-0.721229	-0.401159	-0.507424	172.198230	-68.556447	63.489080
61867		7.571702	-3.237984	-4.117492	-3.615622	1.121466	-1.419945	0.322340	-0.338249	0.620761	-0.721436	0.317383	0.518066	0.075886	-0.032078	-0.041099	0.249865	-0.722922	-0.400190	-0.504777	173.329772	-68.405994	62.471880
61868		6.535189	-3.462829	-4.558204	-4.154428	0.556618	-2.202978	0.502503	-0.305795	0.490247	-0.722168	0.315918	0.519043	0.065506	-0.034353	-0.045569	0.252281	-0.724037	-0.400099	-0.502041	174.358851	-68.259006	61.674879
61869		5.841689	-2.620493	-4.880115	-3.692856	-0.401512	-2.670619	0.641900	-0.294328	0.401689	-0.719238	0.317871	0.513184	0.058541	-0.025931	-0.048799	0.254998	-0.724758	-0.400660	-0.499173	175.327082	-68.108901	61.028706
61870		6.133726	-1.346728	-5.077153	-2.625313	-1.176561	-2.267034	0.684399	-0.294914	0.369031	-0.716797	0.329590	0.507080	0.061437	-0.013180	-0.050726	0.257781	-0.725350	-0.401436	-0.496251	176.263181	-67.953093	60.442422
61871		6.617666	-0.255679	-5.086193	-1.567252	-1.635149	-1.775405	0.647184	-0.288833	0.392439	-0.716797	0.334229	0.514893	0.066255	-0.002262	-0.050774	0.260495	-0.726008	-0.402024	-0.493387	177.199261	-67.797998	59.832819
61872		6.977211	-0.025010	-5.175238	-1.288258	-1.723936	-1.396436	0.577187	-0.278528	0.429650	-0.711914	0.344482	0.520020	0.069844	0.000049	-0.051655	0.263066	-0.726796	-0.402283	-0.490645	178.136901	-67.645973	59.177560
61873		7.062368	-0.153553	-5.276501	-1.368181	-1.718407	-1.273548	0.524824	-0.261321	0.465631	-0.705811	0.349854	0.517578	0.070696	-0.001233	-0.052676	0.265564	-0.727672	-0.402255	-0.488017	179.082477	-67.500212	58.480522
61874		6.800128	-0.558386	-5.343149	-1.734110	-1.653370	-1.484322	0.482236	-0.248628	0.498159	-0.704590	0.350342	0.513672	0.068081	-0.005286	-0.053360	0.268008	-0.728631	-0.401980	-0.485469	-179.961153	-67.357289	57.744446
61875		6.895575	-0.509274	-5.187487	-1.535756	-1.542194	-1.447217	0.435295	-0.237121	0.544680	-0.704346	0.360840	0.514404	0.069031	-0.004792	-0.051804	0.270414	-0.729707	-0.401404	-0.482990	-178.979413	-67.216145	56.951145
61876		7.394186	-0.664899	-4.973234	-1.395565	-1.147045	-1.061376	0.380878	-0.210898	0.611107	-0.706787	0.369141	0.508789	0.074014	-0.006328	-0.049667	0.272831	-0.730918	-0.400411	-0.480618	-177.947727	-67.083535	56.068941
61877		7.749180	-0.743298	-5.015346	-1.341149	-1.044534	-0.709619	0.338678	-0.163511	0.650605	-0.705811	0.373291	0.514648	0.077556	-0.007096	-0.050102	0.275279	-0.732139	-0.399104	-0.478445	-176.895412	-66.970933	55.137346
61878		7.660479	-0.771035	-5.189956	-1.407503	-1.219327	-0.716263	0.286965	-0.099499	0.616024	-0.701416	0.381836	0.513428	0.076654	-0.007400	-0.051872	0.277582	-0.733201	-0.397706	-0.476649	-175.921764	-66.889771	54.258666
61879		7.461672	-0.676669	-5.335658	-1.390517	-1.472047	-0.840343	0.207682	-0.037779	0.570858	-0.705078	0.382813	0.514404	0.074646	-0.006498	-0.053349	0.279604	-0.734128	-0.396196	-0.475297	-175.053942	-66.840377	53.444954
61880		7.810868	-0.177543	-5.364888	-0.856125	-1.674810	-0.523712	0.091177	0.021627	0.554220	-0.690674	0.380615	0.518311	0.078107	-0.001535	-0.053658	0.281276	-0.735038	-0.394383	-0.474410	-174.269902	-66.821067	52.649732
61881		8.153121	0.095184	-5.241822	-0.449479	-1.643407	-0.270352	-0.018344	0.087335	0.537057	-0.699707	0.386719	0.519287	0.081505	0.001166	-0.052454	0.282630	-0.735906	-0.392278	-0.474004	-173.563588	-66.836262	51.870611
61882		8.425531	-0.005717	-5.259768	-0.450317	-1.550286	-0.012256	-0.126787	0.161158	0.515835	-0.706055	0.387451	0.503906	0.084213	0.000127	-0.052666	0.283676	-0.736709	-0.389884	-0.474107	-172.934172	-66.891006	51.107304
61883		8.493516	-0.325179	-5.199865	-0.658809	-1.343918	0.038399	-0.238202	0.248884	0.451210	-0.699463	0.396729	0.507813	0.084878	-0.003122	-0.052101	0.284329	-0.737327	-0.387340	-0.474840	-172.436147	-66.997679	50.418320
61884		8.419663	-0.280249	-4.929615	-0.507873	-1.209956	-0.140648	-0.345113	0.324599	0.362539	-0.704834	0.397217	0.507813	0.084121	-0.002735	-0.049428	0.284524	-0.737739	-0.384759	-0.476180	-172.098222	-67.152213	49.837737
61885		8.406646	-0.126567	-4.648612	-0.257487	-1.108407	-0.273173	-0.433471	0.393746	0.292203	-0.703857	0.389893	0.505127	0.083977	-0.001244	-0.046649	0.284354	-0.737970	-0.382125	-0.478042	-171.887087	-67.350498	49.340081
61886		8.589181	-0.330921	-4.642093	-0.401942	-0.971554	-0.100482	-0.507080	0.475043	0.223821	-0.705322	0.393066	0.507324	0.085785	-0.003331	-0.046616	0.283902	-0.737973	-0.379447	-0.480433	-171.788779	-67.599779	48.920012
61887		8.950372	-0.562598	-4.535341	-0.488282	-0.691513	0.201208	-0.566174	0.583817	0.105606	-0.707520	0.393311	0.504639	0.089374	-0.005708	-0.045598	0.283148	-0.737562	-0.376902	-0.483501	-171.861521	-67.920498	48.648730
61888		8.940322	0.014131	-4.553160	-0.077416	-1.065081	0.163280	-0.650950	0.688460	-0.060379	-0.717773	0.385986	0.509277	0.089246	-0.000035	-0.045839	0.281874	-0.736693	-0.374610	-0.487338	-172.194211	-68.313856	48.606151
61889		8.639207	0.852301	-4.367267	0.559894	-1.510618	-0.229412	-0.758537	0.767939	-0.165785	-0.722412	0.379883	0.504150	0.086230	0.008285	-0.044036	0.280087	-0.735564	-0.372321	-0.491807	-172.733115	-68.760675	48.718806
61890		8.660309	1.189138	-4.126792	0.879044	-1.548870	-0.311484	-0.817520	0.821518	-0.172920	-0.726074	0.375732	0.507813	0.086443	0.011647	-0.041671	0.278156	-0.734351	-0.369826	-0.496575	-173.320120	-69.237706	48.846441
61891		8.692811	0.763545	-3.659205	0.692948	-0.977761	-0.426489	-0.836981	0.879000	-0.192220	-0.730957	0.367432	0.491943	0.086773	0.007398	-0.037005	0.276202	-0.732958	-0.367262	-0.501601	-173.955181	-69.748506	49.013052
61892		8.966012	0.708513	-3.065823	0.934853	-0.462048	-0.367992	-0.820456	0.937417	-0.242872	-0.740967	0.356201	0.491699	0.089523	0.006849	-0.031106	0.274278	-0.731276	-0.364829	-0.506859	-174.671520	-70.294419	49.275711
61893		8.757554	0.758708	-2.748763	1.008189	-0.348868	-0.664627	-0.811848	0.979662	-0.276622	-0.743164	0.364746	0.487793	0.087450	0.007353	-0.027946	0.272366	-0.729382	-0.362468	-0.512284	-175.460338	-70.865228	49.619477
61894		9.526492	0.170818	-1.251199	1.432794	1.286489	-0.397810	-0.695760	1.007866	-0.226682	-0.751221	0.357666	0.479492	0.095202	0.001556	-0.012997	0.271046	-0.727320	-0.360170	-0.517510	-176.126813	-71.448232	49.903248
61895		10.627872	0.142130	-0.918760	1.746606	1.758684	0.563799	-0.295474	0.980064	-0.049914	-0.759277	0.354004	0.469238	0.106232	0.001381	-0.009710	0.271580	-0.725081	-0.358291	-0.521660	-176.283447	-72.008288	49.890496
61896		8.209155	-3.026151	-2.972183	-2.489967	1.434436	-1.030676	-0.126751	0.842874	-0.039900	-0.766602	0.353516	0.463379	0.081959	-0.030297	-0.030048	0.272501	-0.722973	-0.356996	-0.524983	-176.343484	-72.489266	49.878317
61897		9.414807	0.536541	-2.301263	0.927057	0.056010	-0.150428	0.142385	0.722678	-0.281136	-0.777588	0.351807	0.458740	0.094072	0.005250	-0.023349	0.273541	-0.720371	-0.357435	-0.527714	-176.711874	-72.910162	50.350185
61898		11.457783	4.139893	-2.137182	4.242883	-1.540581	1.703006	0.275717	0.686345	-0.187450	-0.790283	0.346436	0.459961	0.114542	0.041321	-0.021708	0.275243	-0.717839	-0.357935	-0.529936	-176.848047	-73.306364	50.658718
61899		10.020597	2.805900	-2.523350	2.647087	-1.410588	0.466208	0.508193	0.641594	-0.135562	-0.782227	0.346924	0.440186	0.100144	0.028056	-0.025484	0.277829	-0.715186	-0.358919	-0.531505	-176.764423	-73.675538	50.875768
61900		11.576093	1.643721	0.072964	3.401871	1.596885	1.259350	0.585264	0.574754	-0.120869	-0.788330	0.343994	0.447754	0.115772	0.016366	0.000445	0.280606	-0.712619	-0.360143	-0.532664	-176.616795	-74.005859	51.072178
61901		16.336221	6.336659	-0.538213	7.664790	-0.621542	5.941032	0.761478	0.445917	-0.084714	-0.788818	0.356689	0.433350	0.163377	0.063318	-0.005505	0.283869	-0.710200	-0.361880	-0.532989	-176.311215	-74.261695	51.208645
61902		15.441362	5.972062	-1.187169	6.847588	-1.120743	5.265941	0.812098	0.333517	-0.021183	-0.797119	0.357666	0.431152	0.154400	0.059753	-0.011887	0.287273	-0.708109	-0.363680	-0.532721	-175.858161	-74.450842	51.222181
61903		10.818266	5.756735	-1.016451	5.993655	-1.826972	0.767781	0.730512	0.279217	-0.029684	-0.793701	0.363037	0.428711	0.108177	0.057588	-0.010105	0.290261	-0.706253	-0.365364	-0.532414	-175.473453	-74.609552	51.257871
61904		7.746741	4.768465	-0.914845	4.735786	-1.819102	-2.206744	0.480700	0.141540	0.121850	-0.786133	0.361572	0.424805	0.077432	0.047754	-0.009089	0.292516	-0.705394	-0.366045	-0.531850	-174.936404	-74.682330	50.987459
61905		7.474947	0.836820	-0.733971	1.551179	0.470253	-2.431192	0.247104	0.015078	0.270339	-0.785156	0.366211	0.422119	0.074738	0.008478	-0.007335	0.294109	-0.705482	-0.365763	-0.531049	-174.245578	-74.674319	50.418545
61906		9.179931	-2.259890	-1.461049	-1.091887	1.951402	-0.511472	0.185214	-0.038793	0.344184	-0.792236	0.369385	0.425293	0.091841	-0.022427	-0.014614	0.295580	-0.705936	-0.365135	-0.530060	-173.450622	-74.629020	49.705032
61907		9.655468	-4.242441	-1.894156	-2.855771	2.784948	0.132295	0.262652	-0.005952	0.341227	-0.792725	0.376221	0.420898	0.096627	-0.042235	-0.018994	0.297374	-0.706180	-0.364671	-0.529049	-172.613069	-74.600034	48.993004
61908		9.048611	-4.611202	-2.929803	-3.790974	2.005549	-0.151920	0.349623	0.012648	0.296775	-0.791992	0.376221	0.424316	0.090552	-0.045926	-0.029384	0.299392	-0.706162	-0.364567	-0.528007	-171.814659	-74.582261	48.373477
61909		9.061126	-1.706227	-2.667092	-1.213702	0.581530	-0.309148	0.397119	0.015777	0.217665	-0.783203	0.382324	0.424072	0.090628	-0.016911	-0.026712	0.301372	-0.705916	-0.364859	-0.527006	-171.152027	-74.570979	47.922696
61910		9.463102	-0.820043	-2.717032	-0.412253	0.111564	0.057601	0.244828	0.050273	0.166809	-0.792480	0.383301	0.412598	0.094631	-0.008088	-0.027204	0.302743	-0.705714	-0.364876	-0.526479	-170.669886	-74.582495	47.568777
61911		9.535502	-1.698287	-3.204114	-1.371685	0.195563	0.294563	0.195818	0.067973	0.172080	-0.787109	0.383545	0.411865	0.095359	-0.016869	-0.032090	0.303986	-0.705547	-0.364718	-0.526096	-170.198361	-74.602850	47.196625
61912		9.431542	-2.021095	-3.488981	-1.794547	0.100450	0.285889	0.251588	0.069405	0.159343	-0.792969	0.385498	0.408447	0.094319	-0.020092	-0.034948	0.305395	-0.705267	-0.364751	-0.525632	-169.719105	-74.624346	46.850053
61913		9.288235	-0.875385	-3.004934	-0.598799	-0.180333	-0.031271	0.311008	0.064025	0.133955	-0.783203	0.391846	0.404541	0.092879	-0.008645	-0.030093	0.306936	-0.704863	-0.365034	-0.525080	-169.259039	-74.644828	46.558306
61914		9.405244	-0.531108	-2.407091	0.031078	0.126018	-0.090655	0.263586	0.056655	0.115780	-0.789551	0.396729	0.405518	0.094049	-0.005225	-0.024104	0.308249	-0.704515	-0.365270	-0.524613	-168.865083	-74.662434	46.307474
61915		9.572369	-0.818528	-2.314954	-0.122011	0.375640	0.061685	0.238154	0.048750	0.106529	-0.787842	0.392578	0.400635	0.095722	-0.008107	-0.023183	0.309431	-0.704209	-0.365481	-0.524181	-168.507542	-74.676332	46.078801
61916		9.622152	-0.731284	-2.242326	0.006374	0.384891	0.086828	0.201262	0.045516	0.098842	-0.789063	0.400391	0.402588	0.096220	-0.007243	-0.022452	0.310460	-0.703953	-0.365629	-0.523813	-168.187414	-74.688823	45.867584
61917		9.569027	-1.077620	-2.276015	-0.304132	0.523211	0.063624	0.149268	0.042692	0.085833	-0.786865	0.391846	0.407227	0.095690	-0.010718	-0.022789	0.311263	-0.703762	-0.365688	-0.523552	-167.924884	-74.701113	45.684643
61918		9.586884	-0.780412	-2.345859	-0.080516	0.299924	0.082968	0.126098	0.034772	0.071552	-0.790039	0.399658	0.400146	0.095868	-0.007755	-0.023480	0.311935	-0.703600	-0.365751	-0.523326	-167.707718	-74.710364	45.535392
61919		9.533546	-1.151327	-2.400973	-0.424770	0.437031	0.066953	0.052253	0.020876	0.077328	-0.790527	0.389893	0.401123	0.095337	-0.011470	-0.024023	0.312335	-0.703600	-0.365620	-0.523179	-167.527460	-74.711120	45.380131
61920		9.881268	-1.241561	-2.541412	-0.503058	0.429830	0.444109	0.050586	0.023035	0.050725	-0.792480	0.399414	0.405762	0.098813	-0.012384	-0.025429	0.312665	-0.703549	-0.365577	-0.523081	-167.401197	-74.716159	45.280309
61921		9.956214	-1.221598	-2.749826	-0.576574	0.256565	0.569113	0.013347	0.048545	0.029669	-0.793213	0.403320	0.404785	0.099557	-0.012199	-0.027523	0.312853	-0.703450	-0.365468	-0.523177	-167.327931	-74.738176	45.212861
61922		9.618791	-1.628205	-3.016747	-1.119138	0.187007	0.335491	-0.007892	0.074266	0.001185	-0.791260	0.401367	0.403564	0.096177	-0.016283	-0.030203	0.312942	-0.703266	-0.365366	-0.523444	-167.312780	-74.778011	45.193458
61923		9.751751	-1.220183	-3.429583	-0.967306	-0.352281	0.545293	-0.029859	0.093515	-0.028197	-0.798340	0.402100	0.395020	0.097500	-0.012221	-0.034340	0.312909	-0.703011	-0.365277	-0.523866	-167.362189	-74.832427	45.227502
61924		9.515940	-1.292088	-3.614450	-1.176617	-0.514884	0.367553	-0.076892	0.134142	-0.056818	-0.785400	0.393066	0.404541	0.095131	-0.012962	-0.036203	0.312713	-0.702671	-0.365105	-0.524560	-167.478948	-74.912986	45.303970
61925		9.030876	-1.378737	-3.689865	-1.392346	-0.624911	-0.079056	-0.088357	0.143755	-0.088722	-0.784424	0.398682	0.401855	0.090276	-0.013844	-0.036957	0.312407	-0.702265	-0.364996	-0.525360	-167.666023	-75.002939	45.445833
61926		9.260441	-0.805121	-3.297183	-0.686605	-0.572800	0.009525	-0.109660	0.159183	-0.108523	-0.783203	0.394287	0.396484	0.092574	-0.008120	-0.033041	0.312004	-0.701815	-0.364878	-0.526282	-167.901501	-75.103622	45.625380
61927		9.126700	-1.453605	-3.014271	-1.130876	-0.019448	-0.157836	-0.119100	0.160956	-0.107158	-0.793457	0.405518	0.403076	0.091235	-0.014603	-0.030207	0.311572	-0.701377	-0.364726	-0.527226	-168.142011	-75.205117	45.804170
61928		9.492165	-0.921536	-2.495084	-0.372522	0.182510	0.036361	-0.059128	0.157368	-0.127696	-0.802979	0.394287	0.393799	0.094896	-0.009283	-0.025023	0.311293	-0.700816	-0.364812	-0.528077	-168.395874	-75.306614	46.032691
61929		9.649063	-0.451598	-1.923546	0.322209	0.422431	0.022254	-0.076496	0.162802	-0.142626	-0.806641	0.396484	0.398193	0.096472	-0.004592	-0.019312	0.310920	-0.700240	-0.364892	-0.529005	-168.693485	-75.412759	46.295560
61930		9.684450	-0.125148	-1.570805	0.762564	0.538858	-0.045407	-0.077324	0.141731	-0.148587	-0.802246	0.400391	0.389160	0.096832	-0.001330	-0.015776	0.310493	-0.699709	-0.365027	-0.529865	-169.016922	-75.507192	46.585089
61931		9.686268	0.292413	-1.231248	1.269000	0.590879	-0.144919	-0.082182	0.105976	-0.135392	-0.812256	0.386719	0.392578	0.096858	0.002853	-0.012365	0.310015	-0.699304	-0.365155	-0.530591	-169.333612	-75.579841	46.864078
61932		9.577989	0.418477	-1.058741	1.428824	0.645535	-0.295563	-0.112758	0.068912	-0.127379	-0.795654	0.388184	0.391113	0.095779	0.004118	-0.010623	0.309387	-0.699057	-0.365234	-0.531228	-169.667499	-75.630239	47.143365
61933		9.333712	-0.294835	-1.212158	0.696293	0.865186	-0.461695	-0.137389	0.029305	-0.104443	-0.803467	0.384766	0.399414	0.093334	-0.003005	-0.012133	0.308657	-0.698997	-0.365225	-0.531738	-169.983104	-75.655723	47.388458
61934		9.107336	-1.084142	-1.386420	-0.103022	1.115784	-0.604783	-0.104772	-0.018895	-0.085247	-0.813965	0.385742	0.394531	0.091070	-0.010887	-0.013850	0.308007	-0.699048	-0.365312	-0.531988	-170.256317	-75.651672	47.609501
61935		9.287306	-0.645448	-1.355758	0.305121	0.944779	-0.457314	-0.079004	-0.061830	-0.084238	-0.799561	0.390381	0.403809	0.092875	-0.006499	-0.013526	0.307369	-0.699176	-0.365528	-0.532041	-170.528806	-75.623137	47.844625
61936		9.678335	-0.270401	-1.168534	0.777500	0.978258	-0.140704	-0.129169	-0.087509	-0.089804	-0.805908	0.380127	0.397705	0.096787	-0.002755	-0.011641	0.306496	-0.699438	-0.365671	-0.532102	-170.849786	-75.580187	48.100634
61937		9.746797	0.021136	-0.974317	1.130650	1.006013	-0.134912	-0.170680	-0.122378	-0.089741	-0.806152	0.379639	0.397461	0.097474	0.000159	-0.009684	0.305411	-0.699856	-0.365754	-0.532119	-171.205180	-75.517232	48.367224
61938		9.887754	0.250025	-0.635813	1.520939	1.202018	-0.092795	-0.227556	-0.173443	-0.084360	-0.802734	0.385986	0.402344	0.098884	0.002451	-0.006275	0.304050	-0.700505	-0.365747	-0.532049	-171.594642	-75.424374	48.635892
61939		9.778703	0.512986	-0.364371	1.866684	1.279917	-0.278737	-0.254906	-0.227319	-0.074152	-0.808838	0.384033	0.401367	0.097793	0.005089	-0.003539	0.302518	-0.701356	-0.365710	-0.531826	-171.990632	-75.299749	48.894788
61940		9.613523	0.271221	-0.234102	1.711847	1.511346	-0.467445	-0.254474	-0.282680	-0.058989	-0.805908	0.378906	0.407959	0.096139	0.002681	-0.002209	0.300930	-0.702377	-0.365706	-0.531382	-172.363846	-75.142049	49.131161
61941		9.341125	0.058271	-0.447618	1.387383	1.429970	-0.675366	-0.237630	-0.341789	-0.024338	-0.804932	0.383301	0.416748	0.093419	0.000566	-0.004317	0.299380	-0.703592	-0.365710	-0.530646	-172.664538	-74.947865	49.302041
61942		9.217826	-0.025921	-0.661842	1.200172	1.309389	-0.743399	-0.206445	-0.412912	0.008727	-0.806641	0.375000	0.416260	0.092192	-0.000262	-0.006428	0.297899	-0.705006	-0.365787	-0.529550	-172.890643	-74.710672	49.414805
61943		9.504800	0.376207	-0.823373	1.520059	1.047684	-0.445067	-0.185995	-0.466940	0.021710	-0.804932	0.379883	0.417236	0.095066	0.003765	-0.008015	0.296421	-0.706552	-0.365949	-0.528205	-173.087464	-74.441738	49.509004
61944		9.459169	0.257390	-1.145531	1.268726	0.882987	-0.407113	-0.222248	-0.515120	0.048418	-0.802490	0.375977	0.419189	0.094620	0.002584	-0.011214	0.294798	-0.708321	-0.365992	-0.526711	-173.257389	-74.143538	49.554385
61945		9.521262	0.096894	-1.500379	0.988331	0.742199	-0.253030	-0.243713	-0.564672	0.067938	-0.797607	0.376465	0.431396	0.095254	0.000983	-0.014736	0.293054	-0.710284	-0.365977	-0.525049	-173.409115	-73.815766	49.567537
61946		9.855818	0.738901	-1.483323	1.622886	0.512638	0.035486	-0.274253	-0.614801	0.079566	-0.801270	0.368164	0.436279	0.098600	0.007408	-0.014540	0.291141	-0.712435	-0.365912	-0.523241	-173.563148	-73.458762	49.565476
61947		10.226900	0.670420	-1.058724	1.900145	1.019842	0.262471	-0.321496	-0.680929	0.106168	-0.779297	0.371094	0.443848	0.102301	0.006742	-0.010250	0.289001	-0.714869	-0.365718	-0.521240	-173.705319	-73.062347	49.522161
61948		10.867929	0.214899	-0.771117	1.846709	1.705077	0.790826	-0.278340	-0.761611	0.096874	-0.786621	0.369385	0.450684	0.108707	0.002191	-0.007300	0.286841	-0.717421	-0.365782	-0.518876	-173.853568	-72.620676	49.511364
61949		11.752629	1.018661	0.120248	3.212373	2.219577	1.319688	-0.254222	-0.826264	0.118003	-0.781494	0.371582	0.457031	0.117514	0.010258	0.001675	0.284697	-0.720134	-0.365917	-0.516197	-173.960054	-72.140805	49.470843
61950		12.362920	1.902184	0.766685	4.473071	2.434250	1.637770	-0.294453	-0.895606	0.185879	-0.777588	0.377197	0.472656	0.123576	0.019149	0.008192	0.282453	-0.723190	-0.365797	-0.513234	-173.983305	-71.617503	49.318795
61951		11.477262	1.932608	0.746238	4.379959	2.254957	0.758477	-0.308170	-0.969642	0.214163	-0.775391	0.373535	0.472900	0.114714	0.019461	0.007989	0.280086	-0.726491	-0.365633	-0.509976	-173.984400	-71.050178	49.134163
61952		11.275195	3.020206	0.648994	5.252341	1.571201	0.512810	-0.288211	-1.104829	0.242140	-0.768311	0.373291	0.478516	0.112677	0.030348	0.007069	0.277611	-0.730135	-0.365598	-0.506136	-173.957792	-70.404366	48.932069
61953		11.425662	3.101453	0.292090	5.249722	1.359130	0.715452	-0.342677	-1.231310	0.314062	-0.755859	0.371338	0.494141	0.114187	0.031200	0.003571	0.274874	-0.734280	-0.365322	-0.501814	-173.879616	-69.681827	48.640607
61954		11.355014	2.561082	-0.125511	4.672864	1.414644	0.754834	-0.328060	-1.342133	0.364148	-0.754150	0.384521	0.508545	0.113508	0.025816	-0.000536	0.272104	-0.738736	-0.365037	-0.496967	-173.749965	-68.893219	48.302151
61955		11.390790	2.054536	-0.695424	4.080388	1.375616	0.953496	-0.272801	-1.437945	0.407289	-0.737305	0.383057	0.520752	0.113912	0.020769	-0.006163	0.269453	-0.743398	-0.364838	-0.491578	-173.560578	-68.046657	47.931131
61956		11.589847	2.378831	-1.012943	4.350396	1.098192	1.181618	-0.157602	-1.530612	0.464585	-0.729736	0.383301	0.529053	0.115916	0.024050	-0.009261	0.267188	-0.748187	-0.364814	-0.485529	-173.264447	-67.143422	47.514314
61957		11.808557	3.013676	-1.054315	5.037537	0.858752	1.301199	-0.097653	-1.593840	0.506812	-0.725098	0.378418	0.541748	0.118088	0.030431	-0.009617	0.265113	-0.753079	-0.364835	-0.479043	-172.917108	-66.200025	47.075736
61958		12.130200	3.389642	-0.923791	5.647509	0.935949	1.443902	-0.035689	-1.644922	0.544187	-0.707764	0.384277	0.550049	0.121280	0.034225	-0.008246	0.263252	-0.758022	-0.364907	-0.472170	-172.526866	-65.224265	46.626285
61959		12.296490	2.988305	-1.019025	5.484793	1.265139	1.566436	0.044025	-1.684117	0.588747	-0.697510	0.388428	0.563477	0.122956	0.030247	-0.009148	0.261703	-0.762978	-0.365019	-0.464905	-172.076975	-64.221018	46.157283
61960		12.318564	2.257712	-1.335477	4.912972	1.587941	1.674898	0.102725	-1.719949	0.613922	-0.679688	0.383057	0.580811	0.123224	0.022962	-0.012283	0.260352	-0.767920	-0.365193	-0.457329	-171.605773	-63.194397	45.698518
61961		12.483818	1.721203	-1.635711	4.562442	1.858196	1.900995	0.158083	-1.748203	0.659870	-0.661865	0.392090	0.590576	0.124917	0.017636	-0.015252	0.259243	-0.772877	-0.365318	-0.449441	-171.092190	-62.145528	45.223006
61962		12.466204	1.259014	-2.313592	4.034855	1.752570	2.145057	0.205008	-1.754824	0.690933	-0.651611	0.400879	0.593750	0.124814	0.013044	-0.022028	0.258350	-0.777773	-0.365405	-0.441366	-170.556826	-61.088750	44.748606
61963		11.970550	0.486760	-3.126875	3.039467	1.573602	2.086437	0.247076	-1.741837	0.719192	-0.639404	0.405273	0.608154	0.119953	0.005336	-0.030218	0.257682	-0.782570	-0.365425	-0.433184	-170.002156	-60.033845	44.274913
61964		11.408657	-0.445106	-3.986575	1.870714	1.427852	2.049262	0.297445	-1.685291	0.724154	-0.615479	0.414063	0.612549	0.114432	-0.003979	-0.038909	0.257306	-0.787116	-0.365432	-0.425091	-169.438802	-59.008818	43.820007
61965		10.828732	-0.459669	-4.732774	1.471725	0.798500	1.894775	0.318776	-1.602162	0.671004	-0.604736	0.418457	0.619141	0.108676	-0.004158	-0.046465	0.257028	-0.791300	-0.365554	-0.417314	-168.928137	-58.033444	43.436051
61966		9.968544	-0.810125	-5.603792	0.626022	0.169418	1.633143	0.340510	-1.495351	0.634783	-0.591553	0.424316	0.627441	0.100126	-0.007689	-0.055304	0.256940	-0.795104	-0.365704	-0.409942	-168.443564	-57.121210	43.094165
61967		8.738396	-1.647574	-6.411177	-0.738384	-0.278389	1.121304	0.431236	-1.357550	0.614251	-0.575195	0.432373	0.638428	0.087866	-0.016069	-0.063551	0.257404	-0.798425	-0.365918	-0.402946	-167.921397	-56.286325	42.765729
61968		7.930435	-2.045024	-7.220785	-1.601020	-0.860345	0.953380	0.574266	-1.191127	0.560555	-0.566650	0.432861	0.637695	0.079789	-0.020021	-0.071792	0.258622	-0.801079	-0.366401	-0.396405	-167.351587	-55.550236	42.475898
61969		6.752808	-2.907757	-8.233152	-3.084611	-1.475526	0.682380	0.660447	-1.042466	0.570978	-0.556396	0.444092	0.644531	0.068038	-0.028613	-0.082073	0.260464	-0.803312	-0.366801	-0.390264	-166.713622	-54.893392	42.160576
61970		5.605453	-2.592529	-8.351079	-3.244515	-2.174633	-0.188472	0.673611	-0.924714	0.540345	-0.542236	0.446045	0.646240	0.056509	-0.025492	-0.083337	0.262504	-0.805203	-0.367183	-0.384599	-166.086201	-54.305003	41.865065
61971		4.573494	-3.415343	-8.922179	-4.473476	-2.488759	-0.540171	0.635480	-0.787202	0.531619	-0.535156	0.449707	0.648438	0.046176	-0.033748	-0.089148	0.264616	-0.806838	-0.367331	-0.379550	-165.474003	-53.791699	41.559282
61972		3.338195	-3.005026	-6.900158	-3.759332	-1.798560	-2.712125	0.696818	-0.537946	0.405504	-0.524902	0.462158	0.647949	0.033628	-0.029742	-0.069015	0.267186	-0.807664	-0.367762	-0.375556	-164.883464	-53.433598	41.321946
61973		4.253986	-0.991845	-4.304782	-0.628799	-0.799517	-3.764836	0.716649	-0.287625	0.290169	-0.524902	0.464600	0.648926	0.042616	-0.009702	-0.043022	0.270075	-0.807765	-0.368356	-0.372677	-164.322451	-53.229409	41.135126
61974		5.121225	-2.834779	-3.976761	-1.540807	0.827523	-2.955679	0.507165	0.034516	0.241982	-0.514648	0.467529	0.642090	0.051240	-0.028185	-0.039848	0.272618	-0.807450	-0.368314	-0.371549	-163.852542	-53.209702	40.911570
61975		5.054613	-5.564045	-4.715532	-4.030711	1.816244	-2.118643	0.522433	0.332631	0.107100	-0.510986	0.475098	0.640381	0.050497	-0.055490	-0.047384	0.275519	-0.806306	-0.368436	-0.371774	-163.408338	-53.374185	40.731553
61976		4.139384	-5.426255	-5.051326	-4.475941	1.077200	-2.678278	0.595503	0.613580	-0.082630	-0.524658	0.482666	0.632324	0.041216	-0.054129	-0.050801	0.278874	-0.804177	-0.369063	-0.373257	-162.997221	-53.723704	40.644832
61977		3.506935	-3.069968	-4.994160	-2.872385	-0.540691	-3.638423	0.566208	0.875097	-0.353113	-0.521240	0.480713	0.627930	0.034796	-0.030619	-0.050181	0.282084	-0.801083	-0.370353	-0.376209	-162.741959	-54.261432	40.731001
61978		3.537760	-0.632550	-4.959390	-0.918757	-1.942423	-4.077370	0.380747	1.105472	-0.594351	-0.539063	0.484619	0.619873	0.035084	-0.006335	-0.049800	0.284513	-0.797340	-0.371920	-0.380758	-162.723375	-54.966773	40.976200
61979		3.805565	0.665395	-5.218095	0.091448	-2.810407	-3.960658	0.190267	1.333444	-0.850161	-0.550049	0.481934	0.601074	0.037735	0.006543	-0.052427	0.286105	-0.792917	-0.373801	-0.386910	-162.969153	-55.839454	41.407871
61980		4.240893	0.981461	-5.706913	0.258689	-3.239309	-3.412980	0.095697	1.555027	-1.058874	-0.548096	0.468018	0.604736	0.042015	0.009619	-0.057392	0.287311	-0.787748	-0.375982	-0.394389	-163.406651	-56.867253	41.999937
61981		4.558846	0.472733	-6.221445	-0.339578	-3.289463	-2.828745	0.128675	1.739333	-1.264989	-0.574707	0.465088	0.596436	0.045074	0.004481	-0.062605	0.288557	-0.781702	-0.378737	-0.402785	-163.991754	-58.026128	42.782182
61982		4.875874	-0.426464	-6.474031	-1.185778	-2.952410	-2.346503	0.244036	1.899473	-1.478642	-0.593018	0.464111	0.578857	0.048108	-0.004543	-0.065205	0.290086	-0.774660	-0.382274	-0.411848	-164.717700	-59.301832	43.795698
61983		5.534927	-0.585908	-6.124497	-1.074282	-2.458816	-1.984196	0.416210	2.040526	-1.708532	-0.602783	0.450928	0.566650	0.054669	-0.006200	-0.061818	0.292033	-0.766511	-0.386793	-0.421389	-165.607390	-60.681529	45.099042
61984		6.632657	-0.260829	-5.773284	-0.444017	-2.080892	-1.276890	0.530434	2.150594	-1.904055	-0.623779	0.444580	0.546631	0.065673	-0.003081	-0.058449	0.294160	-0.757433	-0.392062	-0.431337	-166.715243	-62.138056	46.706955
61985		6.915147	-0.677991	-5.918053	-0.962672	-1.992703	-0.958316	0.517132	2.223136	-2.013694	-0.647705	0.434082	0.537354	0.068416	-0.007317	-0.059962	0.296078	-0.747836	-0.397526	-0.441647	-168.084399	-63.631608	48.578507
61986		6.726442	-2.100459	-6.024715	-2.493171	-1.540202	-1.017235	0.430092	2.274165	-2.104192	-0.669189	0.422607	0.528076	0.066348	-0.021575	-0.061051	0.297499	-0.737896	-0.402964	-0.452354	-169.794883	-65.140673	50.748623
61987		6.791999	-4.422009	-5.865123	-4.643359	-0.376084	-0.959746	0.369107	2.329314	-2.146274	-0.682129	0.416748	0.498535	0.066751	-0.044831	-0.059516	0.298639	-0.727653	-0.408239	-0.463332	-171.831066	-66.653121	53.211323
61988		6.836474	-5.428828	-5.753502	-5.703220	0.058280	-1.050674	0.428729	2.356307	-2.135407	-0.708008	0.396729	0.480957	0.067096	-0.054885	-0.058448	0.299997	-0.717095	-0.413464	-0.474156	-174.117271	-68.141411	55.953577
61989		7.243143	-5.147251	-5.820701	-5.645068	-0.180801	-0.816658	0.516970	2.366415	-2.185419	-0.722656	0.394531	0.459717	0.071168	-0.052103	-0.059188	0.301498	-0.706089	-0.418958	-0.484781	-176.784026	-69.590766	59.130452
61990		7.822613	-3.402023	-5.629316	-4.162486	-0.835823	-0.516306	0.632629	2.320924	-2.240964	-0.742432	0.376221	0.444092	0.077179	-0.034709	-0.057302	0.303095	-0.694713	-0.424882	-0.494958	-179.906922	-70.955573	62.833060
61991		8.720260	-1.230015	-5.373540	-2.231919	-1.502280	0.146489	0.671648	2.223629	-2.235758	-0.763672	0.366211	0.431396	0.086454	-0.013087	-0.054742	0.304554	-0.683345	-0.430921	-0.504573	176.507801	-72.189285	67.017926
61992		9.818876	1.133544	-4.518824	0.128207	-1.636503	0.930395	0.614079	2.091427	-2.192629	-0.764648	0.350342	0.401123	0.097827	0.010402	-0.046180	0.305563	-0.672321	-0.436759	-0.513671	172.453661	-73.259229	71.631848
61993		10.640527	2.359648	-3.559916	1.450119	-1.215181	1.495520	0.457357	1.962757	-2.044145	-0.777344	0.330078	0.394287	0.106284	0.022593	-0.036590	0.306079	-0.662041	-0.441796	-0.522335	168.099855	-74.167461	76.440897
61994		10.577017	0.212486	-3.352049	-0.666527	-0.244702	1.261807	0.197119	1.845370	-1.752225	-0.797852	0.318848	0.379883	0.105468	0.001234	-0.034493	0.306177	-0.652989	-0.445284	-0.530645	163.742092	-74.945972	81.078898
61995		9.996713	-2.516576	-3.565415	-3.481483	0.441303	0.514896	0.056922	1.753732	-1.463882	-0.812256	0.308105	0.366699	0.099462	-0.025885	-0.036535	0.306336	-0.644939	-0.447535	-0.538446	159.523016	-75.632065	85.475040
61996		8.914836	-2.836168	-3.567117	-3.979120	0.190718	-0.627419	-0.026266	1.663232	-1.219685	-0.818848	0.297607	0.355713	0.088672	-0.028908	-0.036406	0.306643	-0.637733	-0.448857	-0.545705	155.461017	-76.241322	89.646850
61997		8.424410	-1.514393	-3.346709	-2.835705	-0.372067	-1.078702	-0.166986	1.549813	-0.961340	-0.824463	0.297363	0.346436	0.083907	-0.015576	-0.034105	0.306925	-0.631568	-0.449106	-0.552469	151.647477	-76.787193	93.470575
61998		8.756097	0.175524	-2.933121	-1.258244	-0.711626	-0.690637	-0.355144	1.412151	-0.687915	-0.835938	0.284424	0.331299	0.087356	0.001402	-0.029951	0.307033	-0.626643	-0.448146	-0.558762	148.189285	-77.285575	96.810190
61999		8.995853	0.788746	-2.792339	-0.756403	-0.874994	-0.431566	-0.567469	1.257653	-0.404689	-0.833008	0.277100	0.325439	0.089796	0.007625	-0.028510	0.306906	-0.623071	-0.445920	-0.564577	145.189920	-77.756065	99.549642
62000		8.463463	0.341261	-1.756526	-0.775891	0.034947	-1.197119	-0.668831	1.066313	-0.159311	-0.843018	0.275391	0.315430	0.084542	0.003285	-0.018027	0.306712	-0.620715	-0.442913	-0.569621	142.763890	-78.191925	101.638156
62001		8.610288	-1.008010	-4.129607	-3.061771	-1.531760	-0.841296	-0.069324	0.505461	0.222477	-0.853516	0.270996	0.312012	0.086009	-0.009999	-0.041510	0.308220	-0.619866	-0.441282	-0.570997	142.351798	-78.494700	102.018933
62002		5.904655	-3.001146	-3.597539	-4.494576	-0.782199	-3.812612	0.319857	-0.088894	0.490122	-0.832520	0.275879	0.314453	0.059136	-0.029809	-0.035997	0.310381	-0.620702	-0.440841	-0.569256	143.785716	-78.618034	100.742867
62003		12.801447	6.098427	1.075368	5.517269	0.910534	3.262263	0.729430	-0.272472	0.280042	-0.833252	0.280029	0.311523	0.127914	0.061123	0.011151	0.312810	-0.620951	-0.442501	-0.566359	145.290352	-78.579377	99.634854
62004		17.551134	6.947534	-0.572273	5.473787	0.061509	8.261374	0.477116	-0.036055	0.127100	-0.833008	0.290527	0.315186	0.175468	0.069600	-0.005525	0.314538	-0.620583	-0.443542	-0.564990	145.908707	-78.598859	99.282673
62005		12.046092	-0.917882	-3.950695	-2.851406	-0.813134	2.547195	0.727466	-0.027473	0.367221	-0.835205	0.294434	0.311523	0.120483	-0.008814	-0.039523	0.317740	-0.620319	-0.444531	-0.562706	147.231980	-78.697133	98.358684
62006		7.363587	3.645378	-1.878505	2.367800	-1.704457	-1.905251	1.332792	-0.282828	0.551796	-0.832520	0.298828	0.309814	0.073561	0.036780	-0.018437	0.322757	-0.620203	-0.447037	-0.557973	149.757860	-78.719689	96.561487
62007		9.288226	6.807953	-0.841450	5.715629	-1.593338	0.092842	0.797167	-0.303975	0.371647	-0.828613	0.305908	0.310303	0.092768	0.068284	-0.008002	0.325554	-0.620582	-0.448628	-0.554640	151.556927	-78.667888	95.193164
62008		11.308372	2.957349	-3.030082	1.350318	-1.650793	2.072497	0.515678	-0.274069	0.408933	-0.821777	0.312012	0.303955	0.113064	0.029882	-0.030069	0.327639	-0.621411	-0.449263	-0.551963	153.235585	-78.632932	93.782191
62009		10.076401	-0.208852	-3.227855	-1.545715	-0.856715	0.621523	0.431616	-0.258089	0.651362	-0.819336	0.315918	0.300293	0.100811	-0.001691	-0.032152	0.330167	-0.622867	-0.448883	-0.549118	155.462717	-78.657049	91.763402
62010		7.780601	-3.777660	-3.060061	-4.681695	0.184980	-1.924759	0.437816	-0.240777	0.760175	-0.818359	0.327393	0.312744	0.077986	-0.037413	-0.030589	0.333043	-0.624500	-0.448143	-0.546123	157.968821	-78.698379	89.463507
62011		8.608950	-2.995578	-2.962456	-3.857636	0.123916	-1.039628	0.585287	-0.227504	0.526280	-0.812988	0.324707	0.297852	0.086201	-0.029642	-0.029614	0.335767	-0.625313	-0.448507	-0.543218	159.929383	-78.681149	87.806671
62012		11.599374	-1.656766	-3.226224	-2.635534	-0.043013	2.051150	0.549120	-0.135487	0.401640	-0.810547	0.339111	0.308838	0.116048	-0.016246	-0.032229	0.338238	-0.625651	-0.448999	-0.540884	161.440878	-78.680095	86.586083
62013		10.981639	-2.983249	-3.422247	-3.888388	0.122814	1.415533	0.554282	-0.038267	0.412695	-0.814697	0.338867	0.301025	0.109884	-0.029511	-0.034284	0.340973	-0.625732	-0.449303	-0.538816	162.901967	-78.727926	85.420551
62014		9.792597	-2.778667	-3.480081	-3.687821	-0.269777	0.289480	0.683854	0.009042	0.342153	-0.814453	0.345947	0.299805	0.097972	-0.027500	-0.034900	0.344021	-0.625302	-0.450088	-0.536720	164.215141	-78.784641	84.481196
62015		10.009708	-0.441193	-3.574366	-1.494710	-1.182190	0.653116	0.707928	0.062488	0.246324	-0.817139	0.346436	0.302734	0.100091	-0.004162	-0.035790	0.347006	-0.624458	-0.451142	-0.534892	165.243789	-78.852817	83.846670
62016		9.848029	-0.085006	-4.125156	-1.318453	-1.869996	0.616713	0.636384	0.109178	0.235426	-0.809570	0.350098	0.294434	0.098459	-0.000603	-0.041307	0.349837	-0.623585	-0.451948	-0.533385	166.178134	-78.943099	83.266100
62017		9.438537	-0.637837	-4.535063	-1.946683	-2.161795	0.266819	0.578106	0.108336	0.260906	-0.812256	0.353760	0.294189	0.094369	-0.006124	-0.045420	0.352551	-0.622863	-0.452519	-0.531955	167.164429	-79.034555	82.599314
62018		9.452724	0.077009	-4.719074	-1.296506	-2.601531	0.345092	0.545298	0.119044	0.245326	-0.811768	0.354004	0.290527	0.094498	0.001015	-0.047244	0.355139	-0.622133	-0.453025	-0.530655	168.094316	-79.127737	81.970495
62019		9.781947	1.942301	-3.648219	0.865057	-2.204717	0.539091	0.419670	0.160984	0.207626	-0.808350	0.360352	0.293213	0.097770	0.019601	-0.036520	0.357331	-0.621421	-0.453240	-0.529834	168.828386	-79.238618	81.468511
62020		9.659336	1.397916	-2.923124	0.617064	-1.398437	0.260301	0.201339	0.201997	0.239215	-0.812500	0.362793	0.285156	0.096547	0.014124	-0.029315	0.359017	-0.621064	-0.452699	-0.529575	169.522098	-79.374518	80.879837
62021		9.349163	0.462613	-2.541967	-0.126469	-0.818325	-0.148490	0.099069	0.211771	0.276977	-0.818115	0.369629	0.280029	0.093458	0.004768	-0.025516	0.360509	-0.620943	-0.451755	-0.529509	170.282477	-79.518611	80.164676
62022		9.425898	0.827121	-2.037507	0.406675	-0.486333	-0.154473	0.051584	0.211711	0.291468	-0.813232	0.368896	0.279297	0.094225	0.008414	-0.020473	0.361889	-0.620942	-0.450637	-0.529522	171.081638	-79.661940	79.382342
62023		9.703661	0.428796	-1.314205	0.297601	0.337375	-0.021387	-0.039565	0.212292	0.257402	-0.817627	0.365479	0.275879	0.097017	0.004410	-0.013246	0.362898	-0.621023	-0.449383	-0.529803	171.741780	-79.801153	78.688979
62024		9.566219	-1.071603	-0.941437	-0.982343	1.131506	-0.257490	-0.059929	0.219694	0.258548	-0.816406	0.371582	0.281250	0.095666	-0.010595	-0.009516	0.363860	-0.621125	-0.448055	-0.530148	172.410040	-79.942934	77.975429
62025		9.218527	-0.585059	-0.657370	-0.426975	1.147393	-0.633539	0.009198	0.211779	0.249052	-0.822754	0.375977	0.279541	0.092185	-0.005735	-0.006672	0.364995	-0.621096	-0.446955	-0.530330	173.109252	-80.078307	77.271366
62026		9.210266	-0.840939	-0.416641	-0.572060	1.430335	-0.683800	0.022991	0.184893	0.276642	-0.817139	0.370850	0.272949	0.092110	-0.008282	-0.004253	0.366183	-0.621177	-0.445850	-0.530346	173.937027	-80.198234	76.444544
62027		9.241964	-0.351261	-0.214755	-0.023556	1.437320	-0.673930	0.110516	0.137703	0.277721	-0.812256	0.379395	0.271973	0.092423	-0.003383	-0.002213	0.367541	-0.621220	-0.445063	-0.530017	174.852569	-80.289432	75.580378
62028		9.839349	0.571515	0.213163	1.034644	1.606220	-0.141372	0.120572	0.084334	0.288967	-0.812256	0.385986	0.279053	0.098386	0.005856	0.002094	0.368839	-0.621413	-0.444361	-0.529477	175.842445	-80.347979	74.646386
62029		9.680265	0.170054	-0.038226	0.590625	1.466189	-0.260761	0.115849	0.043148	0.302883	-0.817383	0.383545	0.272461	0.096800	0.001847	-0.000402	0.370069	-0.621750	-0.443682	-0.528794	176.894862	-80.380923	73.646797
62030		9.684285	0.139791	-0.257910	0.517935	1.261819	-0.220456	0.132509	-0.010947	0.327802	-0.813232	0.381348	0.273682	0.096841	0.001558	-0.002573	0.371293	-0.622256	-0.443064	-0.527858	178.055076	-80.380063	72.546986
62031		9.622994	0.261133	-0.378502	0.621056	1.092965	-0.261086	0.122430	-0.062150	0.336567	-0.820313	0.392822	0.271729	0.096227	0.002776	-0.003753	0.372397	-0.622929	-0.442489	-0.526767	179.240097	-80.346466	71.416716
62032		9.565793	0.133679	-0.633030	0.448464	0.886570	-0.276663	0.115127	-0.106734	0.351566	-0.815186	0.393799	0.268799	0.095659	0.001509	-0.006278	0.373415	-0.623768	-0.441927	-0.525523	-179.537655	-80.283178	70.243728
62033		9.780719	-0.144877	-0.929982	0.137601	0.736830	-0.015425	0.096260	-0.139605	0.356119	-0.817871	0.393066	0.275879	0.097816	-0.001270	-0.009232	0.374314	-0.624733	-0.441364	-0.524209	-178.330860	-80.197046	69.075735
62034		9.581615	-0.823409	-1.281806	-0.591695	0.604517	-0.147662	0.100835	-0.161210	0.348706	-0.816895	0.399414	0.274902	0.095841	-0.008061	-0.012745	0.375158	-0.625731	-0.440872	-0.522828	-177.169718	-80.094458	67.955920
62035		9.871744	-0.804059	-1.633613	-0.632317	0.321574	0.200463	0.096505	-0.167229	0.308941	-0.809570	0.394043	0.273438	0.098743	-0.007880	-0.016257	0.375871	-0.626659	-0.440506	-0.521511	-176.165526	-79.986334	66.993065
62036		9.783761	-1.100453	-1.945117	-0.983893	0.120771	0.173990	0.087077	-0.164138	0.301523	-0.811035	0.399170	0.261719	0.097870	-0.010849	-0.019376	0.376539	-0.627582	-0.440128	-0.520237	-175.210128	-79.877281	66.073444
62037		9.626619	-1.051184	-2.241685	-1.011454	-0.191212	0.073781	0.095320	-0.155450	0.268102	-0.803711	0.400879	0.269287	0.096298	-0.010372	-0.022347	0.377166	-0.628388	-0.439862	-0.519033	-174.373750	-79.772610	65.279750
62038		9.678097	-0.876915	-2.310355	-0.836013	-0.298288	0.136399	0.066991	-0.146257	0.236619	-0.802490	0.404541	0.280518	0.096808	-0.008647	-0.023036	0.377642	-0.629155	-0.439602	-0.517978	-173.664439	-79.673021	64.598278
62039		9.791886	-1.011886	-2.378659	-0.950886	-0.292979	0.265650	0.025889	-0.131332	0.212203	-0.803467	0.407959	0.274170	0.097945	-0.010012	-0.023724	0.377957	-0.629904	-0.439284	-0.517106	-173.062600	-79.582317	64.002082
62040		9.589413	-1.085495	-2.457373	-1.039348	-0.369787	0.084625	0.025222	-0.101696	0.186873	-0.798096	0.407959	0.280518	0.095917	-0.010762	-0.024526	0.378267	-0.630525	-0.438984	-0.516376	-172.536376	-79.509006	63.481718
62041		9.649784	-0.849666	-2.464997	-0.795869	-0.440875	0.141642	0.006955	-0.078153	0.154234	-0.806641	0.411377	0.276611	0.096514	-0.008421	-0.024613	0.378489	-0.631044	-0.438699	-0.515822	-172.118081	-79.451007	63.060886
62042		9.509784	-0.750967	-2.467205	-0.699728	-0.495761	0.003199	-0.006087	-0.057044	0.143708	-0.797119	0.404541	0.281494	0.095110	-0.007442	-0.024645	0.378687	-0.631513	-0.438370	-0.515382	-171.733537	-79.405061	62.666232
62043		9.318851	-0.912181	-2.218465	-0.774977	-0.240521	-0.224352	-0.037757	-0.059444	0.142449	-0.804688	0.411133	0.280762	0.093202	-0.009060	-0.022155	0.378778	-0.632042	-0.437970	-0.515007	-171.376227	-79.357626	62.281248
62044		9.577265	-0.821111	-2.168668	-0.638649	-0.178900	0.018968	-0.085017	-0.060055	0.123973	-0.805176	0.412598	0.268311	0.095784	-0.008161	-0.021654	0.378668	-0.632625	-0.437505	-0.514767	-171.104067	-79.310810	61.954725
62045		9.584558	-1.242199	-2.089279	-0.999099	0.039593	0.024595	-0.156933	-0.057277	0.125981	-0.796875	0.412598	0.275635	0.095859	-0.012378	-0.020856	0.378344	-0.633337	-0.436846	-0.514690	-170.869152	-79.265379	61.624695
62046		9.815312	-0.891148	-1.853116	-0.562855	0.185442	0.198174	-0.190633	-0.053071	0.096549	-0.806152	0.403564	0.281250	0.098162	-0.008882	-0.018497	0.377846	-0.634039	-0.436184	-0.514753	-170.740151	-79.224614	61.382651
62047		9.538978	-1.024453	-1.678866	-0.649763	0.352070	-0.101145	-0.199189	-0.056119	0.088835	-0.803223	0.423340	0.279785	0.095399	-0.010219	-0.016752	0.377294	-0.634745	-0.435531	-0.514841	-170.642849	-79.182965	61.167974
62048		9.743046	-0.767852	-1.444325	-0.307822	0.523404	0.048038	-0.181040	-0.061937	0.053832	-0.805176	0.407715	0.285156	0.097437	-0.007665	-0.014406	0.376696	-0.635358	-0.435043	-0.514935	-170.641297	-79.141000	61.061021
62049		9.787573	-0.950162	-1.460636	-0.476239	0.584681	0.100142	-0.169469	-0.071213	0.046015	-0.806152	0.406982	0.282715	0.097883	-0.009491	-0.014563	0.376094	-0.635953	-0.434630	-0.514989	-170.662053	-79.094775	60.983842
62050		9.694219	-1.059623	-1.506871	-0.598802	0.571765	0.020209	-0.124389	-0.073978	0.035086	-0.805664	0.399658	0.280273	0.096950	-0.010589	-0.015026	0.375600	-0.636449	-0.434370	-0.514957	-170.689568	-79.047760	60.939427
62051		9.568157	-0.263185	-1.336549	0.197114	0.445451	-0.160332	-0.081914	-0.081079	0.012671	-0.805664	0.411621	0.283936	0.095687	-0.002631	-0.013326	0.375170	-0.636831	-0.434306	-0.514852	-170.762425	-78.999053	60.966396
62052		9.452512	-0.186058	-1.161283	0.319602	0.570951	-0.309791	-0.077615	-0.103495	0.016552	-0.801270	0.412598	0.293701	0.094531	-0.001857	-0.011563	0.374713	-0.637274	-0.434281	-0.514658	-170.830566	-78.937097	60.990813
62053		9.403092	-0.325730	-1.041256	0.228313	0.732528	-0.377662	-0.066107	-0.139972	0.031735	-0.807373	0.410889	0.284668	0.094039	-0.003246	-0.010346	0.374254	-0.637818	-0.434307	-0.514295	-170.865928	-78.853329	60.988812
62054		9.494731	-0.456298	-0.826216	0.193088	1.005612	-0.326266	-0.044655	-0.181919	0.043306	-0.806885	0.406982	0.292725	0.094956	-0.004544	-0.008175	0.373800	-0.638459	-0.434426	-0.513728	-170.873743	-78.744532	60.970885
62055		9.511475	-0.312630	-0.615074	0.409333	1.170983	-0.357244	-0.027276	-0.210634	0.052788	-0.802490	0.406738	0.289063	0.095122	-0.003102	-0.006050	0.373365	-0.639158	-0.434617	-0.513015	-170.859363	-78.618876	60.940845
62056		9.567074	0.301200	-0.608806	1.004228	0.994506	-0.326238	-0.043095	-0.238474	0.054359	-0.801758	0.413574	0.297363	0.095677	0.003037	-0.005975	0.372821	-0.639963	-0.434810	-0.512243	-170.861562	-78.477138	60.918081
62057		9.386384	0.512080	-0.524096	1.225999	0.989848	-0.530545	-0.077941	-0.281977	0.081095	-0.806152	0.414795	0.284424	0.093869	0.005157	-0.005111	0.372139	-0.640998	-0.434911	-0.511357	-170.830886	-78.308544	60.841739
62058		9.453423	0.632252	-0.353108	1.418607	1.142156	-0.508141	-0.124087	-0.334340	0.096993	-0.811768	0.412842	0.297852	0.094537	0.006366	-0.003377	0.371236	-0.642287	-0.434938	-0.510372	-170.806716	-78.108756	60.744891
62059		9.384305	0.217296	-0.429253	1.017256	1.231297	-0.552794	-0.145770	-0.386384	0.126522	-0.808838	0.408691	0.303223	0.093850	0.002229	-0.004113	0.370224	-0.643810	-0.434911	-0.509211	-170.742751	-77.876923	60.594672
62060		9.325880	0.092479	-0.484029	0.900291	1.245842	-0.601169	-0.150166	-0.447026	0.154948	-0.802002	0.412109	0.307373	0.093269	0.000994	-0.004633	0.369135	-0.645555	-0.434890	-0.507809	-170.637091	-77.608043	60.398821
62061		9.316969	0.200674	-0.804412	0.920925	0.949125	-0.552875	-0.170645	-0.506386	0.163274	-0.794189	0.407227	0.311768	0.093188	0.002076	-0.007810	0.367870	-0.647500	-0.434898	-0.506240	-170.554235	-77.304840	60.214342
62062		9.349555	0.419261	-0.943931	1.112511	0.792645	-0.505983	-0.205129	-0.573524	0.184872	-0.795166	0.415283	0.324951	0.093518	0.004270	-0.009176	0.366398	-0.649722	-0.434865	-0.504486	-170.471301	-76.961497	60.008897
62063		9.487719	0.587431	-0.792028	1.371081	0.945935	-0.420445	-0.243033	-0.639754	0.214743	-0.797607	0.410156	0.325439	0.094896	0.005967	-0.007624	0.364731	-0.652236	-0.434760	-0.502538	-170.373871	-76.577919	59.766334
62064		9.578117	0.123032	-0.651245	1.034755	1.309701	-0.357893	-0.282621	-0.693917	0.226558	-0.791992	0.411133	0.328369	0.095802	0.001330	-0.006182	0.362840	-0.654977	-0.434605	-0.500471	-170.301973	-76.162404	59.525754
62065		9.523483	-0.574725	-0.621865	0.430700	1.633023	-0.402002	-0.309148	-0.745177	0.251456	-0.793213	0.412842	0.333496	0.095264	-0.005637	-0.005855	0.360808	-0.657935	-0.434391	-0.498240	-170.219254	-75.715579	59.258450
62066		9.629238	-0.425088	-0.391138	0.708918	1.872225	-0.376185	-0.297230	-0.787470	0.248664	-0.786865	0.408447	0.341797	0.096312	-0.004137	-0.003526	0.358710	-0.660960	-0.434283	-0.495840	-170.161844	-75.245141	59.023584
62067		9.696197	-0.295692	-0.339427	0.905457	1.951744	-0.347536	-0.308449	-0.850601	0.266439	-0.788818	0.414551	0.351074	0.096979	-0.002833	-0.002977	0.356475	-0.664185	-0.434194	-0.493213	-170.106532	-74.737193	58.783920
62068		10.150755	-0.689536	-0.358715	0.650003	2.254695	0.093624	-0.331870	-0.917740	0.274223	-0.773193	0.419922	0.358643	0.101532	-0.006762	-0.003110	0.354027	-0.667619	-0.434129	-0.490390	-170.081783	-74.190656	58.561170
62069		10.665901	-0.663505	-0.434740	0.782185	2.379121	0.585275	-0.303123	-0.987157	0.285130	-0.778809	0.419922	0.364014	0.106688	-0.006489	-0.003811	0.351541	-0.671177	-0.434211	-0.487238	-170.052192	-73.603720	58.350177
62070		10.668191	0.139971	-0.880908	1.435127	1.767046	0.647847	-0.289059	-1.027501	0.285369	-0.765869	0.422363	0.379150	0.106723	0.001540	-0.008263	0.349007	-0.674790	-0.434382	-0.483907	-170.034848	-72.994111	58.159654
62071		10.831474	0.848161	-1.036177	2.126730	1.491187	0.787601	-0.340809	-1.061107	0.313309	-0.752441	0.421143	0.386230	0.108354	0.008634	-0.009802	0.346279	-0.678613	-0.434380	-0.480509	-170.015837	-72.362606	57.935774
62072		11.837584	1.599111	-1.164908	3.008805	1.441898	1.715938	-0.393357	-1.090860	0.347241	-0.753418	0.416504	0.395752	0.118409	0.016175	-0.011035	0.343379	-0.682650	-0.434170	-0.477050	-169.985026	-71.710955	57.666708
62073		12.186532	1.990237	-1.637910	3.339714	1.064568	2.140006	-0.440345	-1.116811	0.371475	-0.745117	0.430420	0.400146	0.121917	0.020094	-0.015742	0.340306	-0.686854	-0.433797	-0.473543	-169.959810	-71.042157	57.374443
62074		11.382336	2.343834	-2.062821	3.452356	0.431944	1.465595	-0.453288	-1.162967	0.396565	-0.736084	0.422363	0.419678	0.113894	0.023618	-0.020019	0.337136	-0.691216	-0.433365	-0.469846	-169.925546	-70.345010	57.063426
62075		11.172384	2.621800	-2.236815	3.686487	0.208826	1.280738	-0.475464	-1.233041	0.433758	-0.736328	0.423828	0.427490	0.111802	0.026408	-0.021742	0.333807	-0.695829	-0.432853	-0.465868	-169.879217	-69.604278	56.724755
62076		11.200335	2.349154	-2.290670	3.509371	0.382456	1.311591	-0.491383	-1.303450	0.475698	-0.723633	0.413574	0.434326	0.112094	0.023703	-0.022234	0.330351	-0.700688	-0.432250	-0.461589	-169.812859	-68.819667	56.352775
62077		11.312459	1.913148	-2.018381	3.329065	0.937783	1.311232	-0.499838	-1.387076	0.531997	-0.724854	0.428955	0.449707	0.113210	0.019383	-0.019447	0.326795	-0.705835	-0.431548	-0.456912	-169.710082	-67.981795	55.934821
62078		11.491210	2.239563	-1.754330	3.865729	1.197702	1.312083	-0.488271	-1.466389	0.579130	-0.707764	0.420166	0.462891	0.114971	0.022687	-0.016756	0.323196	-0.711198	-0.430804	-0.451829	-169.577171	-67.094553	55.488562
62079		11.680217	2.362903	-1.394795	4.266263	1.627481	1.282531	-0.529432	-1.533078	0.620949	-0.693604	0.429932	0.477295	0.116831	0.023956	-0.013116	0.319378	-0.716819	-0.429898	-0.446493	-169.451540	-66.164492	55.021859
62080		11.762732	2.738923	-1.085099	4.861592	1.869796	1.137513	-0.541918	-1.585350	0.669287	-0.687988	0.434326	0.492676	0.117616	0.027755	-0.009994	0.315484	-0.722624	-0.428837	-0.440888	-169.308892	-65.199765	54.524604
62081		11.745486	3.058973	-1.078277	5.277631	1.842296	1.014405	-0.544708	-1.626423	0.722933	-0.678223	0.429688	0.504639	0.117426	0.030986	-0.009912	0.311586	-0.728579	-0.427609	-0.435015	-169.138435	-64.205309	53.991489
62082		11.974542	3.146445	-1.208456	5.504174	1.886935	1.182326	-0.527140	-1.657508	0.772671	-0.649414	0.436279	0.515625	0.119718	0.031897	-0.011176	0.307764	-0.734615	-0.426244	-0.428880	-168.936100	-63.187632	53.428915
62083		12.040363	2.823071	-1.521387	5.265978	1.910953	1.316947	-0.523643	-1.682390	0.843043	-0.642578	0.436035	0.531494	0.120406	0.028700	-0.014276	0.304026	-0.740781	-0.424631	-0.422493	-168.690028	-62.146756	52.814822
62084		12.054658	2.646941	-1.932770	5.120211	1.775632	1.442679	-0.491943	-1.705600	0.925829	-0.627930	0.442139	0.542480	0.120582	0.026982	-0.018365	0.300499	-0.747054	-0.422765	-0.415788	-168.377594	-61.082103	52.139170
62085		11.802296	2.172672	-2.718552	4.504775	1.383676	1.553649	-0.474528	-1.724628	0.987800	-0.606934	0.439453	0.546875	0.118143	0.022247	-0.026219	0.297098	-0.753393	-0.420696	-0.408837	-168.034301	-59.997651	51.433294
62086		11.625960	1.672099	-3.408571	3.929994	1.120949	1.714312	-0.461726	-1.717526	1.035136	-0.603271	0.451416	0.560059	0.116458	0.017246	-0.033126	0.293824	-0.759718	-0.418415	-0.401777	-167.674871	-58.909797	50.708768
62087		11.396555	1.111563	-3.901809	3.360826	1.028715	1.762447	-0.464662	-1.672807	1.064078	-0.578857	0.456055	0.567627	0.114226	0.011634	-0.038090	0.290660	-0.765939	-0.415913	-0.394804	-167.318882	-57.840656	49.978706
62088		11.143429	0.358240	-4.567731	2.552987	0.892330	1.928298	-0.480853	-1.593668	1.081345	-0.567627	0.456543	0.586914	0.111772	0.004078	-0.044797	0.287607	-0.771983	-0.413154	-0.388109	-166.976109	-56.812055	49.244789
62089		10.565233	-0.709545	-5.561375	1.237314	0.537267	2.071476	-0.491297	-1.511274	1.087374	-0.549072	0.458252	0.592285	0.106105	-0.006655	-0.054796	0.284665	-0.777823	-0.410196	-0.381702	-166.650621	-55.825491	48.516048
62090		9.790078	-2.051040	-6.142818	-0.244252	0.563011	1.909371	-0.476969	-1.408111	1.101654	-0.530762	0.462891	0.596680	0.098441	-0.020114	-0.060688	0.281991	-0.783405	-0.407022	-0.375620	-166.315502	-54.892915	47.776473
62091		9.309032	-2.284024	-6.608959	-0.640923	0.238016	1.809837	-0.390645	-1.240705	1.064407	-0.522949	0.455322	0.610840	0.093618	-0.022471	-0.065466	0.279906	-0.788415	-0.403892	-0.370034	-165.954974	-54.055302	47.059160
62092		8.436353	-1.863013	-6.849308	-0.585183	-0.443271	1.188004	-0.281559	-1.066312	0.964939	-0.507568	0.466553	0.626953	0.084816	-0.018318	-0.068016	0.278400	-0.792699	-0.401084	-0.365039	-165.597749	-53.326773	46.415606
62093		7.547034	-2.978884	-7.533169	-2.015801	-0.674453	1.052873	-0.155705	-0.890249	0.844792	-0.498047	0.472412	0.622070	0.075930	-0.029527	-0.074971	0.277515	-0.796211	-0.398721	-0.360631	-165.241431	-52.710034	45.858575
62094		5.824100	-4.345563	-8.309085	-4.057261	-1.208757	0.381495	-0.029325	-0.758050	0.805014	-0.481934	0.471191	0.625244	0.058730	-0.043232	-0.082863	0.277314	-0.799202	-0.396543	-0.356550	-164.830795	-52.170886	45.319088
62095		4.428301	-4.690941	-8.566326	-4.952175	-1.767831	-0.466748	-0.084271	-0.694014	0.738202	-0.466553	0.478516	0.633057	0.044753	-0.046781	-0.085489	0.276895	-0.802000	-0.394439	-0.352907	-164.498454	-51.674370	44.836263
62096		4.118355	-3.783220	-7.592322	-3.933079	-1.637155	-1.400373	-0.173944	-0.575661	0.738694	-0.458984	0.477295	0.634033	0.041541	-0.037745	-0.075771	0.276342	-0.804696	-0.391995	-0.349914	-164.204090	-51.242114	44.332175
62097		3.711251	-3.077748	-6.764816	-3.206701	-1.561901	-2.310288	-0.344145	-0.317090	0.593296	-0.453369	0.486328	0.634766	0.037311	-0.030783	-0.067536	0.275353	-0.806874	-0.389480	-0.348483	-164.063114	-50.973294	43.898419
62098		4.924859	-1.371445	-5.215567	-0.699776	-0.830672	-2.590671	-0.411208	-0.079847	0.491348	-0.455078	0.482910	0.640625	0.049303	-0.013701	-0.052108	0.274374	-0.808523	-0.386922	-0.348281	-163.986740	-50.851298	43.496293
62099		5.549046	-1.112089	-4.707919	-0.021329	-0.338192	-2.458892	-0.507191	0.221532	0.428600	-0.456787	0.476807	0.635498	0.055462	-0.011121	-0.047112	0.273479	-0.809649	-0.384039	-0.349560	-163.949617	-50.904361	43.074574
62100		5.178109	-1.930303	-5.094611	-1.009411	-0.328905	-2.371801	-0.441015	0.477503	0.239688	-0.448730	0.486084	0.641357	0.051683	-0.019354	-0.051027	0.273009	-0.809864	-0.381677	-0.352007	-163.951468	-51.128790	42.751853
62101		4.311352	-2.770673	-5.387656	-2.225736	-0.454309	-2.732379	-0.298313	0.691105	0.036486	-0.451172	0.473633	0.643555	0.042932	-0.027779	-0.053984	0.273164	-0.809110	-0.380098	-0.355315	-163.966311	-51.502461	42.552615
62102		3.209867	-3.464219	-5.757093	-3.470557	-0.818702	-3.275656	-0.152969	0.896210	-0.228611	-0.461914	0.464844	0.631104	0.031801	-0.034723	-0.057687	0.273819	-0.807276	-0.379555	-0.359537	-164.040030	-52.031574	42.534595
62103		2.988583	-2.585040	-5.607844	-2.854305	-1.338519	-3.719843	0.071232	1.073150	-0.450195	-0.468018	0.471191	0.623779	0.029526	-0.025897	-0.056247	0.275311	-0.804373	-0.380064	-0.364335	-164.107985	-52.692503	42.672641
62104		3.241613	-0.806331	-5.461695	-1.296144	-2.176846	-3.933140	0.231914	1.252182	-0.641121	-0.478027	0.471924	0.621094	0.032047	-0.008103	-0.054828	0.277428	-0.800526	-0.381365	-0.369801	-164.190774	-53.482338	42.942266
62105		3.921837	0.454442	-5.288956	0.032002	-2.531657	-3.717660	0.210100	1.420924	-0.845421	-0.488525	0.473877	0.611816	0.038860	0.004435	-0.053162	0.279387	-0.795959	-0.383192	-0.376240	-164.414593	-54.396025	43.368717
62106		4.520821	-0.418090	-5.670846	-0.662234	-2.154930	-2.907073	0.135426	1.601508	-1.042480	-0.504883	0.467041	0.605225	0.044730	-0.004376	-0.057071	0.280999	-0.790716	-0.385375	-0.383790	-164.816981	-55.438460	43.955159
62107		4.599685	-1.064738	-6.123190	-1.449541	-2.183003	-2.538377	0.179144	1.759890	-1.218191	-0.515625	0.461914	0.595703	0.045390	-0.010870	-0.061643	0.282725	-0.784686	-0.388078	-0.392084	-165.336409	-56.591355	44.706008
62108		4.599289	-1.109642	-6.228728	-1.654136	-2.324514	-2.529840	0.161838	1.903525	-1.400679	-0.537598	0.457764	0.583496	0.045318	-0.011365	-0.062730	0.284266	-0.777945	-0.391207	-0.401188	-166.039866	-57.845660	45.652781
62109		4.738412	-0.506994	-6.004712	-1.144866	-2.511312	-2.661029	0.158982	2.026753	-1.585834	-0.550781	0.455811	0.568359	0.046730	-0.005394	-0.060527	0.285624	-0.770479	-0.394819	-0.410973	-166.956254	-59.185688	46.834741
62110		5.071963	0.339274	-5.912105	-0.424586	-2.845805	-2.566219	0.081220	2.124587	-1.716088	-0.566650	0.437988	0.555908	0.050115	0.002985	-0.059654	0.286555	-0.762530	-0.398560	-0.421406	-168.120310	-60.585454	48.234117
62111		5.605229	-0.110661	-6.108544	-0.881621	-2.657986	-2.008887	0.011673	2.217593	-1.814793	-0.592773	0.428711	0.543701	0.055357	-0.001607	-0.061702	0.287144	-0.754139	-0.402324	-0.432388	-169.536203	-62.032032	49.856284
62112		6.270664	-1.216505	-6.461482	-1.972555	-2.232891	-1.229582	-0.000452	2.299507	-1.913141	-0.612549	0.423096	0.538086	0.061838	-0.012760	-0.065329	0.287575	-0.745228	-0.406224	-0.443754	-171.218186	-63.512992	51.747265
62113		6.553030	-1.555351	-6.638515	-2.482618	-2.221367	-0.962434	0.061403	2.367612	-2.010809	-0.628174	0.403320	0.517822	0.064578	-0.016185	-0.067158	0.288094	-0.735705	-0.410436	-0.455282	-173.178393	-65.011822	53.962786
62114		7.020310	-1.125040	-6.395310	-2.122967	-2.205954	-0.753414	0.031818	2.413860	-2.095750	-0.647949	0.393311	0.500488	0.069302	-0.011969	-0.064795	0.288330	-0.725764	-0.414721	-0.467053	-175.522182	-66.504833	56.552688
62115		7.989952	-0.735376	-5.963346	-1.637540	-1.851088	-0.126322	-0.040088	2.446079	-2.146194	-0.674316	0.382813	0.486816	0.079077	-0.008217	-0.060602	0.288183	-0.715556	-0.418871	-0.479038	-178.302481	-67.968811	59.543171
62116		8.697620	-0.595490	-5.572868	-1.490079	-1.499402	0.315619	-0.120059	2.475242	-2.175495	-0.684814	0.356201	0.468750	0.086206	-0.006929	-0.056795	0.287660	-0.705141	-0.422776	-0.491211	178.427242	-69.386583	62.979404
62117		9.341110	-1.347116	-5.634697	-2.381028	-1.124670	0.858587	-0.161361	2.491661	-2.180217	-0.705566	0.350098	0.454346	0.092545	-0.014529	-0.057492	0.286939	-0.694541	-0.426461	-0.503398	174.647694	-70.734200	66.901754
62118		9.643778	-1.538404	-5.621472	-2.821684	-1.075404	1.042758	-0.165927	2.481755	-2.133107	-0.729980	0.334961	0.444336	0.095559	-0.016454	-0.057391	0.286217	-0.683887	-0.429864	-0.515359	170.398568	-71.982832	71.285087
62119		9.891591	-0.744827	-4.925946	-2.090853	-0.936181	1.022678	-0.167445	2.433902	-2.058333	-0.729004	0.324951	0.425781	0.098223	-0.008503	-0.050451	0.285509	-0.673337	-0.432969	-0.526916	165.702501	-73.100600	76.107433
62120		10.206610	-0.048807	-4.021425	-1.340170	-0.544865	1.061459	-0.211530	2.350819	-1.947395	-0.751709	0.305664	0.403076	0.101573	-0.001522	-0.041409	0.284690	-0.663148	-0.435591	-0.538003	160.618904	-74.063719	81.279935
62121		10.165022	-0.178991	-3.699406	-1.596737	-0.354142	0.881344	-0.239675	2.245023	-1.802437	-0.770752	0.290039	0.385010	0.101205	-0.002749	-0.038129	0.283880	-0.653448	-0.437716	-0.548473	155.288233	-74.865249	86.670364
62122		9.776042	-0.484330	-3.817112	-2.190469	-0.541305	0.447827	-0.237414	2.126892	-1.634144	-0.783203	0.284424	0.367432	0.097303	-0.005686	-0.039201	0.283220	-0.644313	-0.439377	-0.558207	149.874360	-75.512176	92.129140
62123		9.546330	-0.063910	-3.583321	-1.941182	-0.706597	0.172496	-0.254601	1.998363	-1.473189	-0.797852	0.268555	0.357422	0.095091	-0.001387	-0.036783	0.282628	-0.635803	-0.440582	-0.567242	144.475755	-76.012854	97.548586
62124		9.571665	0.571260	-3.131434	-1.380934	-0.707918	0.154078	-0.340203	1.857791	-1.308698	-0.798828	0.257080	0.340088	0.095455	0.005033	-0.032211	0.281877	-0.628086	-0.441154	-0.575705	139.194503	-76.381983	102.785971
62125		9.535335	1.089495	-2.678868	-0.902856	-0.660993	0.088333	-0.493799	1.706668	-1.134468	-0.805664	0.242676	0.333008	0.095179	0.010287	-0.027627	0.280781	-0.621326	-0.440899	-0.583716	134.135028	-76.642533	107.698375
62126		9.316277	0.824490	-2.393658	-1.155515	-0.434259	-0.237939	-0.616956	1.534175	-0.951604	-0.815430	0.237061	0.319336	0.093013	0.007727	-0.024675	0.279423	-0.615586	-0.439911	-0.591148	129.457082	-76.816921	112.141224
62127		8.695951	-0.298383	-2.198591	-2.126167	0.038473	-1.093816	-0.638430	1.326200	-0.707150	-0.822266	0.216553	0.312744	0.086800	-0.003362	-0.022552	0.278246	-0.610976	-0.438366	-0.597598	125.441236	-76.952329	115.889525
62128		8.407227	-0.481161	-1.963977	-2.244343	0.203322	-1.464583	-0.568219	1.097921	-0.475597	-0.820801	0.221191	0.311523	0.083951	-0.005068	-0.020087	0.277454	-0.607428	-0.436613	-0.602842	122.191309	-77.070858	118.890431
62129		8.631817	-0.544854	-1.870475	-2.353415	0.303775	-1.287878	-0.494066	0.884134	-0.302605	-0.833252	0.210205	0.295166	0.086226	-0.005626	-0.019072	0.276938	-0.604774	-0.434843	-0.607013	119.616700	-77.177194	121.241614
62130		8.330104	-0.246136	-1.195453	-1.780429	0.643895	-1.609302	-0.379397	0.663648	-0.131101	-0.827881	0.206543	0.298340	0.083259	-0.002539	-0.012226	0.276798	-0.602995	-0.433194	-0.610019	117.769731	-77.288688	122.912201
62131		9.103907	0.559414	-2.687835	-1.943435	-0.913548	-0.549483	0.069591	0.296251	0.049284	-0.835449	0.214600	0.287354	0.090998	0.005626	-0.027011	0.277770	-0.602096	-0.432879	-0.610688	117.198346	-77.386975	123.539259
62132		7.344750	-1.018271	-2.182342	-2.824256	-0.071724	-2.618026	0.365610	-0.173365	0.409971	-0.830811	0.218262	0.295654	0.073487	-0.009992	-0.021778	0.279710	-0.603003	-0.433029	-0.608799	118.297394	-77.543459	122.627696
62133		8.114211	0.847684	0.290991	-0.040451	1.338254	-1.759688	0.788205	-0.476292	0.520254	-0.820068	0.223877	0.300781	0.081112	0.008676	0.003137	0.282605	-0.604463	-0.434552	-0.604916	120.496721	-77.664122	120.838833
62134		14.005639	6.956723	1.687080	5.357914	0.847181	4.951264	0.774651	-0.318653	0.320355	-0.821045	0.229980	0.291504	0.139917	0.069725	0.017364	0.285184	-0.605023	-0.436400	-0.601808	122.093706	-77.720971	119.658088
62135		14.521177	4.198627	-0.467505	1.931397	0.368973	5.182143	0.699485	-0.073211	0.218677	-0.819336	0.232666	0.293457	0.145167	0.042161	-0.004475	0.287767	-0.604713	-0.437977	-0.599741	122.967016	-77.798961	119.175126
62136		9.389349	-0.384553	-1.486377	-1.981721	0.596225	-0.526456	1.082619	-0.067774	0.438421	-0.827148	0.237061	0.284424	0.093907	-0.003559	-0.014852	0.292167	-0.604307	-0.440017	-0.596521	124.386602	-77.981330	118.357466
62137		7.090123	4.572629	0.397361	3.540864	-0.346646	-2.152521	1.364034	-0.241803	0.483631	-0.822754	0.243896	0.298584	0.070785	0.045869	0.004372	0.297161	-0.604077	-0.442998	-0.592063	126.458307	-78.121782	117.039291
62138		10.246333	6.657248	-0.171930	4.916507	-1.110828	1.319639	0.917757	-0.401587	0.489529	-0.814941	0.244385	0.295410	0.102303	0.066829	-0.001207	0.300454	-0.604976	-0.444855	-0.588078	128.667646	-78.198721	115.318936
62139		12.586774	2.305660	-3.124375	-0.367181	-1.406898	3.278874	0.661497	-0.525409	0.687563	-0.814453	0.255127	0.296387	0.125869	0.023592	-0.030836	0.303274	-0.607041	-0.445536	-0.583973	131.368852	-78.301865	112.947620
62140		11.675458	1.362092	-3.482156	-1.164795	-1.476084	2.301764	0.768004	-0.526055	0.752432	-0.811523	0.262939	0.302979	0.116793	0.014193	-0.034461	0.306589	-0.609077	-0.446313	-0.579512	134.299053	-78.407985	110.404698
62141		10.023608	0.571070	-2.914515	-1.395278	-0.941407	0.505220	0.719838	-0.451824	0.745294	-0.813965	0.272217	0.291504	0.100279	0.006189	-0.028897	0.309898	-0.610929	-0.446847	-0.575375	137.087567	-78.516153	107.980196
62142		9.037665	-1.496606	-3.304316	-3.268851	-0.632027	-0.661070	0.698493	-0.394609	0.739885	-0.803467	0.275146	0.292969	0.090496	-0.014516	-0.032916	0.313240	-0.612624	-0.447231	-0.571452	139.791563	-78.623238	105.629551
62143		9.380139	-2.210819	-3.956774	-4.117055	-0.874720	-0.283015	0.703108	-0.359476	0.717799	-0.802246	0.283691	0.307129	0.093951	-0.021632	-0.039476	0.316608	-0.614140	-0.447631	-0.567643	142.428359	-78.716437	103.351780
62144		10.047893	-1.916852	-4.220442	-3.898393	-1.118217	0.482843	0.693431	-0.279064	0.633817	-0.800293	0.299561	0.298584	0.100598	-0.018704	-0.042129	0.319873	-0.615244	-0.448119	-0.564221	144.764633	-78.798427	101.374552
62145		10.271483	-1.661482	-4.560622	-3.728218	-1.502925	0.812949	0.677795	-0.176527	0.529184	-0.793945	0.300781	0.296875	0.102798	-0.016188	-0.045571	0.323024	-0.615830	-0.448715	-0.561305	146.700544	-78.881028	99.797726
62146		10.016809	-0.698938	-5.293847	-3.052664	-2.609977	0.804205	0.682358	-0.123076	0.502509	-0.796387	0.302490	0.301758	0.100217	-0.006557	-0.052900	0.326224	-0.616194	-0.449307	-0.558575	148.516515	-78.971031	98.345536
62147		9.454902	-0.527292	-5.559727	-2.903956	-3.045588	0.330025	0.596775	-0.118824	0.538210	-0.792480	0.307617	0.294434	0.094595	-0.004853	-0.055556	0.329267	-0.616749	-0.449539	-0.555984	150.392419	-79.064749	96.783507
62148		9.781240	1.286158	-4.878497	-0.902300	-3.073645	0.716545	0.546514	-0.036019	0.440832	-0.796143	0.313232	0.292969	0.097792	0.013210	-0.048732	0.332062	-0.616936	-0.449785	-0.553912	151.896291	-79.163920	95.570642
62149		10.637725	1.626323	-4.652913	-0.459001	-2.855699	1.549080	0.271876	0.057801	0.384614	-0.791992	0.320801	0.300049	0.106332	0.016531	-0.046538	0.334066	-0.617181	-0.449288	-0.552836	152.983960	-79.291005	94.622591
62150		9.216242	-1.005640	-4.185887	-2.647820	-1.738264	-0.146284	0.148427	0.131346	0.444910	-0.787109	0.329346	0.293945	0.092157	-0.009820	-0.041927	0.336015	-0.617567	-0.448135	-0.552160	154.094606	-79.467335	93.578822
62151		8.479169	-0.716196	-3.762758	-2.174587	-1.625845	-0.913519	0.251076	0.168750	0.407788	-0.789063	0.330566	0.283691	0.084774	-0.006942	-0.037708	0.338265	-0.617584	-0.447318	-0.551429	155.143388	-79.650719	92.659222
62152		9.303799	-0.020964	-2.877629	-1.171936	-0.960083	-0.192577	0.221731	0.192280	0.336513	-0.794189	0.337158	0.291504	0.093010	-0.000021	-0.028866	0.340274	-0.617429	-0.446595	-0.550952	155.974675	-79.826236	91.943445
62153		9.492000	-0.200578	-2.130364	-1.032035	-0.209635	-0.139654	0.228364	0.204626	0.318850	-0.793213	0.335693	0.289063	0.094901	-0.001830	-0.021403	0.342285	-0.617180	-0.445925	-0.550528	156.765287	-80.002845	91.273881
62154		9.181170	0.300440	-1.108109	-0.159252	0.456256	-0.572644	0.256721	0.200404	0.333576	-0.793213	0.335938	0.284668	0.091795	0.003172	-0.011169	0.344408	-0.616932	-0.445288	-0.549998	157.651765	-80.178213	90.522993
62155		9.419954	0.691740	-0.291805	0.531189	1.074095	-0.439148	0.225814	0.165015	0.332562	-0.792480	0.339600	0.285400	0.094185	0.007077	-0.002988	0.346358	-0.616821	-0.444632	-0.549428	158.587255	-80.333028	89.705644
62156		9.682077	1.133423	0.226270	1.159160	1.408566	-0.234032	0.199535	0.129033	0.356670	-0.783691	0.348389	0.279297	0.096802	0.011505	0.002212	0.348205	-0.616913	-0.443885	-0.548760	159.658899	-80.470512	88.734396
62157		9.939028	1.313359	0.422707	1.429970	1.544808	-0.001648	0.132479	0.083222	0.397091	-0.791504	0.345947	0.275879	0.099366	0.013328	0.004195	0.349860	-0.617326	-0.442912	-0.548028	160.902501	-80.588362	87.551124
62158		9.660997	0.858774	0.517913	1.075945	1.733217	-0.316438	0.087995	0.024456	0.445274	-0.798828	0.346436	0.284668	0.096591	0.008801	0.005171	0.351372	-0.618089	-0.441766	-0.547125	162.376303	-80.677815	86.108359
62159		9.402906	0.551699	0.674580	0.884066	1.932705	-0.611764	0.072254	-0.042245	0.454908	-0.786133	0.352295	0.277344	0.094015	0.005728	0.006768	0.352718	-0.619074	-0.440665	-0.546033	163.963080	-80.726484	84.542967
62160		9.722816	0.144488	0.503282	0.489836	1.965368	-0.288794	0.064240	-0.093491	0.462259	-0.790283	0.358398	0.283936	0.097222	0.001668	0.005079	0.353939	-0.620233	-0.439603	-0.544782	165.633001	-80.740227	82.887927
62161		9.781547	-0.258426	0.205911	0.053621	1.842646	-0.200746	0.084158	-0.143942	0.478801	-0.788330	0.363770	0.284180	0.097820	-0.002351	0.002128	0.355159	-0.621519	-0.438635	-0.543301	167.410965	-80.720544	81.135856
62162		9.629185	-0.358782	-0.084711	-0.099885	1.587022	-0.308569	0.129455	-0.204477	0.492514	-0.776855	0.359863	0.281250	0.096301	-0.003350	-0.000751	0.356417	-0.622922	-0.437847	-0.541502	169.294456	-80.659009	79.302016
62163		10.096994	-0.031635	-0.515714	0.114574	1.151196	0.231098	0.140856	-0.247429	0.465614	-0.790527	0.366455	0.280518	0.100977	-0.000078	-0.005032	0.357546	-0.624351	-0.437252	-0.539590	171.087348	-80.561585	77.567138
62164		10.097099	-0.725363	-1.178118	-0.717710	0.801225	0.321818	0.114577	-0.261197	0.461723	-0.785645	0.370850	0.293213	0.101003	-0.007014	-0.011653	0.358545	-0.625857	-0.436616	-0.537694	172.822563	-80.446950	75.874149
62165		9.766471	-0.953935	-1.791886	-1.113975	0.274831	0.096304	0.119007	-0.250597	0.422299	-0.795166	0.375244	0.275879	0.097707	-0.009322	-0.017802	0.359477	-0.627230	-0.436097	-0.535890	174.380924	-80.328290	74.363315
62166		9.947204	-1.044465	-2.505236	-1.400565	-0.310385	0.397891	0.085837	-0.220555	0.353844	-0.784912	0.379150	0.291016	0.099518	-0.010258	-0.024947	0.360182	-0.628436	-0.435643	-0.534371	175.650304	-80.216767	73.125165
62167		9.744909	-1.340634	-3.104041	-1.860598	-0.779152	0.302973	0.073148	-0.192356	0.330877	-0.779541	0.379150	0.284424	0.097501	-0.013234	-0.030952	0.360849	-0.629530	-0.435179	-0.533009	176.801163	-80.116537	72.000242
62168		9.419466	-1.563737	-3.434374	-2.167539	-1.049683	0.044613	0.081873	-0.167014	0.297730	-0.782471	0.380127	0.287598	0.094246	-0.015483	-0.034271	0.361506	-0.630473	-0.434791	-0.531765	177.825074	-80.025822	71.008187
62169		9.816531	-1.046140	-3.497997	-1.654324	-1.226235	0.456400	0.077308	-0.118499	0.231739	-0.773438	0.379883	0.291992	0.098198	-0.010334	-0.034926	0.362081	-0.631145	-0.434515	-0.530802	178.609047	-79.959509	70.257639
62170		9.561919	-1.031751	-3.336567	-1.573532	-1.123824	0.181734	0.047639	-0.073645	0.211179	-0.783203	0.386719	0.290039	0.095642	-0.010209	-0.033333	0.362600	-0.631712	-0.434137	-0.530081	179.300386	-79.916457	69.582957
62171		9.522866	-0.721357	-3.073059	-1.172184	-1.001122	0.100573	0.047614	-0.048656	0.184107	-0.779297	0.388916	0.294678	0.095243	-0.007119	-0.030709	0.363106	-0.632147	-0.433805	-0.529488	179.896545	-79.886845	69.005686
62172		9.652572	-0.419424	-2.565798	-0.685403	-0.624514	0.140783	0.006292	-0.030155	0.160684	-0.777832	0.385986	0.291748	0.096533	-0.004116	-0.025644	0.363455	-0.632563	-0.433399	-0.529084	-179.606597	-79.866306	68.504381
62173		9.672515	-0.189187	-2.056220	-0.274326	-0.238144	0.071107	-0.020928	-0.027194	0.151063	-0.782959	0.395264	0.287842	0.096729	-0.001821	-0.020549	0.363702	-0.632993	-0.432950	-0.528767	-179.160383	-79.847400	68.039460
62174		9.492528	-0.300236	-1.489958	-0.175086	0.290851	-0.205245	-0.052493	-0.031097	0.159242	-0.784180	0.393555	0.307861	0.094930	-0.002931	-0.014884	0.363860	-0.633515	-0.432394	-0.528489	-178.705685	-79.824927	67.546845
62175		9.884393	-0.532878	-1.316586	-0.291365	0.596834	0.151120	-0.067648	-0.024056	0.126570	-0.788086	0.385254	0.291016	0.098849	-0.005271	-0.013152	0.363901	-0.633968	-0.431893	-0.528327	-178.367560	-79.806969	67.164487
62176		9.487170	-0.612711	-1.205347	-0.342253	0.662355	-0.258693	-0.042177	-0.026630	0.123580	-0.786865	0.393555	0.291016	0.094877	-0.006071	-0.012040	0.364004	-0.634383	-0.431467	-0.528106	-178.023606	-79.786533	66.789981
62177		9.368781	-0.351415	-1.005256	-0.024050	0.732460	-0.412102	-0.040378	-0.060126	0.129674	-0.786621	0.388428	0.292480	0.093693	-0.003455	-0.010024	0.364062	-0.634887	-0.431094	-0.527765	-177.667390	-79.747042	66.405057
62178		9.392899	0.241805	-0.657985	0.667653	0.842889	-0.455246	-0.040497	-0.102142	0.134449	-0.791016	0.388672	0.291260	0.093931	0.002480	-0.006532	0.364038	-0.635519	-0.430776	-0.527279	-177.302861	-79.682368	66.010905
