// General information: 
//  MT Manager version: 2019.2.0 
//  XDA version: 2019.2.0 build 3853 rev 94535 built on 2019-09-09
// Device information: 
//  DeviceId: 00B47791
//  ProductCode: MTW2-3A7G6
//  Firmware Version: 4.6.0
//  Hardware Version: 2.0.0
// Device settings: 
//  Filter Profile: human(46.1)
//  Option Flags: Orientation Smoother Disabled, AHS Disabled, ICC Disabled
// Coordinate system: ENU
PacketCounter	SampleTimeFine	Acc_X	Acc_Y	Acc_Z	FreeAcc_E	FreeAcc_N	FreeAcc_U	Gyr_X	Gyr_Y	Gyr_Z	Mag_X	Mag_Y	Mag_Z	VelInc_X	VelInc_Y	VelInc_Z	Quat_q0	Quat_q1	Quat_q2	Quat_q3	Roll	Pitch	Yaw
61638		9.670132	-0.074164	1.592461	-0.003950	-0.022206	-0.012056	0.006806	0.016213	-0.013421	-0.952881	-0.128906	-0.603271	0.096703	-0.000749	0.015917	0.754498	0.087519	-0.641537	0.107254	-1.967470	-80.698146	17.852623
61639		9.688997	-0.045473	1.603097	-0.017787	0.003564	0.008124	0.007041	0.013922	-0.013826	-0.953857	-0.131836	-0.600342	0.096891	-0.000462	0.016024	0.754534	0.087526	-0.641493	0.107255	-1.957219	-80.691802	17.843139
61640		9.708849	-0.040787	1.617833	-0.029094	0.005112	0.030072	0.003756	0.010374	-0.013666	-0.951416	-0.123779	-0.600342	0.097089	-0.000415	0.016173	0.754559	0.087525	-0.641466	0.107247	-1.949742	-80.687717	17.834835
61641		9.722539	-0.042431	1.599396	-0.007892	0.009283	0.040610	0.002539	0.018182	-0.014600	-0.951416	-0.131592	-0.594727	0.097227	-0.000432	0.015985	0.754611	0.087516	-0.641408	0.107233	-1.938937	-80.678993	17.822274
61642		9.694400	-0.034817	1.640903	-0.052131	0.004183	0.019526	-0.001726	0.020149	-0.015782	-0.948730	-0.130615	-0.593506	0.096946	-0.000356	0.016399	0.754671	0.087495	-0.641346	0.107203	-1.926097	-80.669350	17.805351
61643		9.674050	-0.036693	1.629244	-0.042065	0.004764	-0.002426	-0.001219	0.019221	-0.013622	-0.952393	-0.129883	-0.594971	0.096742	-0.000373	0.016283	0.754725	0.087478	-0.641286	0.107192	-1.920315	-80.660121	17.797408
61644		9.679814	-0.029155	1.664651	-0.075179	0.003234	0.008975	-0.005214	0.022552	-0.012241	-0.956543	-0.126465	-0.602783	0.096800	-0.000297	0.016636	0.754792	0.087431	-0.641218	0.107165	-1.921561	-80.649034	17.792736
61645		9.659400	-0.031103	1.653364	-0.065108	0.003824	-0.012977	0.000430	0.024767	-0.016122	-0.950439	-0.117676	-0.606934	0.096596	-0.000319	0.016522	0.754866	0.087417	-0.641136	0.107144	-1.906014	-80.636639	17.774435
61646		9.693935	-0.053488	1.653810	-0.052057	-0.015737	0.021303	-0.000570	0.022746	-0.012603	-0.955566	-0.127686	-0.600830	0.096941	-0.000541	0.016527	0.754932	0.087389	-0.641065	0.107131	-1.903349	-80.625447	17.768495
61647		9.693548	-0.052197	1.656120	-0.052658	-0.014628	0.021302	-0.000190	0.024905	-0.014153	-0.947510	-0.123535	-0.596191	0.096938	-0.000529	0.016549	0.755008	0.087352	-0.640985	0.107100	-1.895724	-80.612816	17.755458
61648		9.678226	-0.023757	1.673948	-0.077649	0.007568	0.008953	-0.002205	0.024743	-0.014946	-0.953857	-0.122559	-0.606445	0.096784	-0.000245	0.016728	0.755082	0.087324	-0.640906	0.107073	-1.885689	-80.600525	17.741098
61649		9.678815	-0.046402	1.680558	-0.075694	-0.015539	0.010749	-0.003474	0.021357	-0.013993	-0.951904	-0.127930	-0.593506	0.096790	-0.000471	0.016795	0.755148	0.087279	-0.640841	0.107033	-1.880857	-80.589960	17.729376
61650		9.651426	-0.030565	1.631295	-0.035701	0.011823	-0.024395	-0.001349	0.022317	-0.017309	-0.946045	-0.135986	-0.595947	0.096516	-0.000314	0.016302	0.755216	0.087263	-0.640769	0.107000	-1.862506	-80.579101	17.707082
61651		9.686059	-0.052673	1.631355	-0.022651	-0.007734	0.009902	-0.004392	0.016473	-0.017564	-0.951172	-0.124756	-0.598389	0.096862	-0.000535	0.016306	0.755264	0.087251	-0.640720	0.106966	-1.845248	-80.571537	17.686184
61652		9.652803	-0.075324	1.643572	-0.031828	-0.034478	-0.020782	-0.003505	0.017704	-0.016958	-0.950195	-0.123535	-0.591309	0.096529	-0.000761	0.016427	0.755317	0.087229	-0.640667	0.106925	-1.829933	-80.563311	17.665714
61653		9.665491	-0.052828	1.621230	-0.013214	-0.006086	-0.012041	-0.001732	0.020163	-0.015748	-0.947754	-0.121094	-0.598389	0.096656	-0.000536	0.016203	0.755378	0.087202	-0.640605	0.106889	-1.818215	-80.553616	17.649022
61654		9.647168	-0.102737	1.618224	0.001964	-0.053958	-0.030350	-0.000100	0.018170	-0.013396	-0.950439	-0.127930	-0.599121	0.096473	-0.001034	0.016173	0.755429	0.087180	-0.640550	0.106873	-1.813207	-80.545057	17.640979
61655		9.672890	-0.091717	1.667000	-0.041840	-0.054923	0.002980	0.002533	0.018202	-0.014556	-0.949707	-0.125977	-0.608643	0.096730	-0.000924	0.016661	0.755481	0.087166	-0.640494	0.106854	-1.803278	-80.536369	17.628432
61656		9.671635	-0.066247	1.664221	-0.045023	-0.029641	0.001162	0.003899	0.014845	-0.014769	-0.950928	-0.127686	-0.590332	0.096718	-0.000670	0.016635	0.755521	0.087166	-0.640449	0.106843	-1.791653	-80.529739	17.616002
61657		9.684386	-0.043988	1.641512	-0.026391	-0.001252	0.009895	0.002658	0.015115	-0.010848	-0.949463	-0.130371	-0.601318	0.096845	-0.000445	0.016408	0.755561	0.087147	-0.640405	0.106843	-1.794444	-80.522763	17.617277
61658		9.704110	-0.039475	1.656701	-0.037722	0.000347	0.031831	0.001024	0.017109	-0.013194	-0.950928	-0.125488	-0.602051	0.097042	-0.000401	0.016559	0.755608	0.087129	-0.640353	0.106830	-1.789647	-80.514808	17.610099
61659		9.668896	-0.014586	1.659899	-0.051968	0.022019	-0.002497	-0.003761	0.012460	-0.011691	-0.946533	-0.125732	-0.607910	0.096690	-0.000151	0.016593	0.755642	0.087092	-0.640322	0.106806	-1.793338	-80.509328	17.608803
61660		9.669720	-0.037494	1.665321	-0.050046	-0.001121	-0.000670	-0.002393	0.009103	-0.011906	-0.943359	-0.127686	-0.597412	0.096698	-0.000380	0.016649	0.755665	0.087062	-0.640303	0.106784	-1.795778	-80.505935	17.606977
61661		9.664601	-0.066605	1.637158	-0.015588	-0.021686	-0.010212	-0.003786	0.008803	-0.014662	-0.953857	-0.124268	-0.601074	0.096647	-0.000673	0.016367	0.755690	0.087032	-0.640284	0.106744	-1.789734	-80.502519	17.595258
61662		9.649446	-0.038532	1.653469	-0.040556	0.000499	-0.022611	-0.006775	0.010269	-0.008978	-0.955078	-0.123291	-0.598633	0.096495	-0.000389	0.016530	0.755717	0.086976	-0.640264	0.106719	-1.804578	-80.498405	17.603463
61663		9.644327	-0.067866	1.625373	-0.006132	-0.020066	-0.032143	0.000239	0.009136	-0.013063	-0.939209	-0.124512	-0.600586	0.096444	-0.000685	0.016249	0.755740	0.086952	-0.640244	0.106693	-1.802318	-80.494954	17.597199
61664		9.629171	-0.039589	1.641645	-0.031095	0.002116	-0.044549	0.000239	0.009137	-0.013061	-0.948975	-0.124756	-0.594482	0.096292	-0.000402	0.016412	0.755762	0.086935	-0.640224	0.106675	-1.799295	-80.491562	17.591363
61665		9.635976	-0.055999	1.680475	-0.061658	-0.023559	-0.031337	-0.001130	0.012495	-0.012844	-0.951904	-0.124512	-0.602539	0.096361	-0.000566	0.016799	0.755796	0.086907	-0.640191	0.106651	-1.797850	-80.486102	17.585656
61666		9.655744	-0.051245	1.695311	-0.072997	-0.021940	-0.009408	0.000111	0.012229	-0.016759	-0.952148	-0.126221	-0.605469	0.096558	-0.000521	0.016947	0.755830	0.086900	-0.640157	0.106619	-1.781949	-80.481006	17.566688
61667		9.704534	-0.076467	1.675125	-0.038194	-0.038312	0.035508	0.003272	0.014990	-0.012790	-0.940186	-0.124512	-0.594238	0.097047	-0.000771	0.016744	0.755871	0.086886	-0.640112	0.106609	-1.777947	-80.474089	17.560695
61668		9.689302	-0.048335	1.691675	-0.063155	-0.016123	0.023086	-0.005029	0.009073	-0.010738	-0.941162	-0.129639	-0.601318	0.096894	-0.000488	0.016912	0.755894	0.086842	-0.640096	0.106582	-1.785897	-80.470692	17.562924
61669		9.698236	-0.080576	1.643863	-0.006921	-0.033614	0.024151	-0.002017	0.011267	-0.013443	-0.947754	-0.127930	-0.606445	0.096983	-0.000812	0.016433	0.755925	0.086818	-0.640067	0.106558	-1.782632	-80.465909	17.555820
61670		9.699145	-0.103414	1.649001	-0.005011	-0.056751	0.026015	-0.004543	0.004485	-0.011559	-0.944580	-0.128662	-0.602783	0.096992	-0.001039	0.016488	0.755933	0.086782	-0.640067	0.106528	-1.787991	-80.465153	17.555704
61671		9.698063	-0.078193	1.645001	-0.008139	-0.031459	0.024157	-0.000161	0.003323	-0.014480	-0.947998	-0.123047	-0.600342	0.096981	-0.000789	0.016448	0.755939	0.086772	-0.640066	0.106502	-1.780878	-80.464872	17.545636
61672		9.692061	-0.083209	1.612037	0.023739	-0.027853	0.012805	0.003620	0.005951	-0.012470	-0.954834	-0.129639	-0.597656	0.096921	-0.000838	0.016117	0.755949	0.086768	-0.640056	0.106495	-1.778297	-80.463293	17.542213
61673		9.677936	-0.078843	1.632471	0.001329	-0.029870	0.002236	0.001986	0.007945	-0.014814	-0.947021	-0.129150	-0.594482	0.096780	-0.000796	0.016321	0.755967	0.086764	-0.640038	0.106476	-1.768780	-80.460560	17.530841
61674		9.677806	-0.077421	1.633310	0.000701	-0.028799	0.002240	0.004882	0.009344	-0.013408	-0.949463	-0.126953	-0.601318	0.096779	-0.000781	0.016329	0.755988	0.086767	-0.640014	0.106471	-1.761927	-80.457055	17.523819
61675		9.643731	-0.076321	1.640023	-0.010976	-0.031400	-0.030257	0.002473	0.003358	-0.015634	-0.939697	-0.129639	-0.605469	0.096438	-0.000771	0.016399	0.755992	0.086774	-0.640011	0.106453	-1.749523	-80.456948	17.510539
61676		9.567710	-0.034100	1.610332	-0.006278	0.013253	-0.110358	0.004370	0.002729	-0.010726	-0.944580	-0.115967	-0.599365	0.095677	-0.000346	0.016102	0.755990	0.086769	-0.640014	0.106454	-1.752798	-80.457184	17.513488
61677		9.587642	-0.029670	1.624135	-0.017589	0.014921	-0.088437	-0.000032	0.000232	-0.010778	-0.950195	-0.124756	-0.605957	0.095876	-0.000302	0.016241	0.755985	0.086739	-0.640028	0.106429	-1.759272	-80.458599	17.515363
61678		9.624679	-0.100156	1.631796	0.000443	-0.052960	-0.050289	-0.001138	0.012500	-0.012829	-0.945801	-0.121826	-0.599609	0.096248	-0.001008	0.016312	0.756019	0.086714	-0.639995	0.106409	-1.757516	-80.453276	17.510011
61679		9.667481	-0.163880	1.673881	-0.014027	-0.123324	-0.000781	0.012181	0.020791	-0.016774	-0.944092	-0.128662	-0.606445	0.096676	-0.001648	0.016729	0.756077	0.086740	-0.639922	0.106410	-1.734502	-80.443096	17.489329
61680		9.736214	-0.185063	1.668008	0.009974	-0.139079	0.066124	0.025478	0.017879	-0.018857	-0.937500	-0.129395	-0.608887	0.097363	-0.001862	0.016671	0.756119	0.086832	-0.639853	0.106455	-1.696485	-80.434795	17.462671
61681		9.755905	-0.179461	1.683385	-0.001332	-0.137401	0.088060	0.031757	0.016093	-0.016862	-0.936523	-0.123291	-0.600342	0.097560	-0.001806	0.016826	0.756154	0.086944	-0.639785	0.106526	-1.661544	-80.427118	17.442833
61682		9.728752	-0.163300	1.633596	0.038753	-0.110197	0.052923	0.031394	0.017593	-0.012338	-0.943604	-0.125732	-0.601807	0.097289	-0.001642	0.016327	0.756189	0.087038	-0.639716	0.106614	-1.642395	-80.418868	17.438745
61683		9.702084	-0.053454	1.690140	-0.048038	-0.020978	0.035517	0.033648	0.007924	-0.007111	-0.947021	-0.125732	-0.604004	0.097021	-0.000541	0.016897	0.756191	0.087123	-0.639684	0.106718	-1.641058	-80.415845	17.452955
61684		9.667973	-0.052925	1.696936	-0.059712	-0.023606	0.003013	0.026251	0.006887	-0.001493	-0.944824	-0.130371	-0.600830	0.096680	-0.000532	0.016966	0.756188	0.087169	-0.639663	0.106826	-1.662687	-80.413547	17.487233
61685		9.679780	-0.007178	1.669021	-0.043586	0.028998	0.009791	0.027495	0.006622	-0.005400	-0.944580	-0.127441	-0.609131	0.096798	-0.000077	0.016687	0.756187	0.087233	-0.639639	0.106924	-1.670447	-80.411297	17.508291
61686		9.666616	-0.027384	1.694207	-0.063468	0.002757	0.001105	0.020362	0.014496	-0.002057	-0.944092	-0.133301	-0.598389	0.096667	-0.000277	0.016935	0.756212	0.087255	-0.639593	0.107014	-1.692750	-80.404648	17.539832
61687		9.661531	-0.057085	1.666840	-0.029015	-0.017879	-0.008319	0.019103	0.018649	-0.005947	-0.944092	-0.126221	-0.603271	0.096617	-0.000575	0.016659	0.756253	0.087286	-0.639527	0.107092	-1.701862	-80.395473	17.558067
61688		9.661169	-0.056213	1.668967	-0.029644	-0.016809	-0.008319	0.014343	0.025194	-0.006320	-0.939941	-0.128662	-0.603027	0.096614	-0.000566	0.016677	0.756316	0.087293	-0.639441	0.107151	-1.712038	-80.382768	17.573812
61689		9.689899	-0.085066	1.636767	0.015840	-0.033719	0.014774	0.014967	0.032606	-0.013102	-0.948486	-0.121582	-0.598145	0.096902	-0.000858	0.016352	0.756408	0.087318	-0.639322	0.107189	-1.698289	-80.365709	17.565396
61690		9.642434	-0.104841	1.669793	-0.015078	-0.063687	-0.026399	0.015704	0.025724	-0.014324	-0.946533	-0.119141	-0.600586	0.096426	-0.001057	0.016685	0.756477	0.087355	-0.639230	0.107222	-1.680619	-80.352836	17.553689
61691		9.675995	-0.102926	1.666381	-0.004681	-0.058854	0.006112	0.026638	0.027815	-0.009694	-0.946777	-0.126221	-0.605225	0.096762	-0.001036	0.016650	0.756548	0.087403	-0.639128	0.107295	-1.673391	-80.338627	17.556474
61692		9.696484	-0.122062	1.687506	-0.013541	-0.081369	0.029953	0.018982	0.032956	-0.011477	-0.939209	-0.131592	-0.604980	0.096968	-0.001228	0.016859	0.756637	0.087440	-0.639007	0.107353	-1.662767	-80.321564	17.553818
61693		9.708956	-0.099807	1.666575	0.005119	-0.052970	0.038629	0.020367	0.033265	-0.008712	-0.947266	-0.132568	-0.601563	0.097092	-0.001004	0.016649	0.756726	0.087473	-0.638885	0.107426	-1.660573	-80.304055	17.560632
61694		9.772786	-0.057800	1.740202	-0.062808	-0.028287	0.113755	0.023386	0.039131	-0.008426	-0.950439	-0.129639	-0.599365	0.097731	-0.000584	0.017383	0.756831	0.087513	-0.638740	0.107513	-1.657070	-80.283405	17.567760
61695		9.786280	0.034526	1.830642	-0.168570	0.037975	0.141902	0.017361	0.034737	-0.003035	-0.944092	-0.127441	-0.608398	0.097866	0.000342	0.018289	0.756921	0.087524	-0.638617	0.107609	-1.675294	-80.265158	17.594993
61696		9.774087	0.022004	1.767248	-0.104154	0.044020	0.119263	0.008952	0.035554	-0.001739	-0.941650	-0.123779	-0.612549	0.097744	0.000218	0.017655	0.757017	0.087490	-0.638496	0.107672	-1.702623	-80.246443	17.625015
61697		9.766578	0.039490	1.733081	-0.074729	0.071819	0.106004	-0.007233	0.040716	0.001862	-0.938721	-0.128906	-0.611816	0.097669	0.000396	0.017311	0.757138	0.087371	-0.638366	0.107690	-1.750988	-80.224395	17.665290
61698		9.709400	-0.043007	1.709505	-0.035555	-0.001633	0.046087	-0.012253	0.045894	-0.001074	-0.937012	-0.129639	-0.601807	0.097098	-0.000430	0.017073	0.757276	0.087249	-0.638218	0.107694	-1.791324	-80.199739	17.696186
61699		9.662568	-0.088440	1.748637	-0.063901	-0.055825	0.006863	-0.015642	0.049085	-0.001657	-0.934814	-0.131592	-0.605713	0.096630	-0.000884	0.017463	0.757428	0.087116	-0.638057	0.107687	-1.830938	-80.172992	17.724682
61700		9.670137	-0.097709	1.700353	-0.010232	-0.049173	0.006161	-0.001586	0.050513	-0.006761	-0.947754	-0.124268	-0.609619	0.096706	-0.000980	0.016979	0.757579	0.087050	-0.637884	0.107705	-1.845566	-80.145789	17.735693
61701		9.669235	-0.096728	1.705535	-0.010829	-0.048090	0.006165	-0.001837	0.056698	-0.014129	-0.939697	-0.125977	-0.610596	0.096697	-0.000974	0.017028	0.757755	0.087003	-0.637682	0.107697	-1.835415	-80.114965	17.721387
61702		9.639854	-0.089482	1.750726	-0.055001	-0.053243	-0.015036	0.004316	0.065349	-0.009837	-0.935059	-0.124756	-0.608154	0.096404	-0.000900	0.017476	0.757953	0.086962	-0.637448	0.107728	-1.834947	-80.079323	17.720509
61703		9.667693	-0.024129	1.828934	-0.136437	-0.008006	0.025564	0.006949	0.069062	-0.007983	-0.938965	-0.128174	-0.612305	0.096683	-0.000246	0.018256	0.758163	0.086915	-0.637197	0.107770	-1.838936	-80.041246	17.724610
61704		9.726906	-0.037175	1.881932	-0.166852	-0.029169	0.093222	0.001168	0.077258	-0.001871	-0.942627	-0.125488	-0.612305	0.097276	-0.000373	0.018782	0.758395	0.086830	-0.636923	0.107827	-1.864890	-79.998636	17.748729
61705		9.789386	0.003710	1.960200	-0.234786	-0.004340	0.168261	0.000909	0.083236	0.001550	-0.943115	-0.122559	-0.607178	0.097902	0.000038	0.019561	0.758647	0.086726	-0.636626	0.107895	-1.901363	-79.952286	17.782763
61706		9.729399	-0.030760	1.931222	-0.200620	-0.029430	0.104503	0.000023	0.082014	0.000968	-0.939697	-0.126709	-0.604980	0.097302	-0.000307	0.019272	0.758893	0.086624	-0.636335	0.107961	-1.936117	-79.906894	17.815159
61707		9.686175	0.010085	1.902211	-0.184728	0.018763	0.056761	0.006159	0.075783	0.004138	-0.938232	-0.133301	-0.612793	0.096869	0.000102	0.018985	0.759116	0.086537	-0.636065	0.108053	-1.978409	-79.864938	17.858398
61708		9.720947	0.018708	1.812910	-0.090029	0.055846	0.075314	0.014836	0.076568	-0.005298	-0.937988	-0.134277	-0.613525	0.097216	0.000183	0.018092	0.759341	0.086515	-0.635784	0.108140	-1.984699	-79.822781	17.870508
61709		9.667802	-0.032429	1.821208	-0.085836	0.004047	0.024835	0.009932	0.078668	-0.004531	-0.934326	-0.128418	-0.614014	0.096685	-0.000327	0.018174	0.759575	0.086484	-0.635494	0.108230	-1.995037	-79.779193	17.886311
61710		9.641079	-0.041993	1.781749	-0.043159	0.006900	-0.008357	0.013674	0.084999	0.000532	-0.941162	-0.128174	-0.612549	0.096418	-0.000421	0.017776	0.759824	0.086434	-0.635184	0.108339	-2.019318	-79.732091	17.916030
61711		9.596601	-0.032537	1.848694	-0.109052	-0.001374	-0.040197	0.018693	0.087390	-0.001282	-0.932861	-0.130859	-0.613281	0.095974	-0.000328	0.018445	0.760081	0.086411	-0.634860	0.108462	-2.034404	-79.683471	17.939845
61712		9.599310	-0.001543	1.886280	-0.144723	0.021459	-0.030899	0.020817	0.092046	-0.001539	-0.935791	-0.132568	-0.619141	0.096002	-0.000018	0.018819	0.760350	0.086391	-0.634517	0.108588	-2.046873	-79.632373	17.961727
61713		9.651285	0.003104	1.903945	-0.145095	0.027000	0.023497	0.021700	0.100863	-0.005666	-0.928467	-0.122314	-0.621582	0.096522	0.000026	0.018991	0.760650	0.086392	-0.634136	0.108716	-2.044200	-79.576067	17.970370
61714		9.703066	0.008096	1.922564	-0.145519	0.032562	0.077892	0.019941	0.109647	-0.008653	-0.931885	-0.124756	-0.610596	0.097041	0.000075	0.019172	0.760979	0.086382	-0.633725	0.108821	-2.032923	-79.515036	17.967602
61715		9.705294	0.040078	1.961826	-0.181159	0.055445	0.087171	0.023972	0.102667	-0.012937	-0.927490	-0.126953	-0.620605	0.097063	0.000392	0.019568	0.761290	0.086396	-0.633334	0.108910	-2.007430	-79.457834	17.951375
61716		9.682572	0.062262	1.953189	-0.173514	0.080050	0.063268	0.027092	0.101800	-0.011862	-0.939209	-0.123047	-0.616211	0.096836	0.000614	0.019483	0.761593	0.086427	-0.632947	0.109022	-1.983324	-79.401361	17.939724
61717		9.659886	0.084290	1.944438	-0.165835	0.104673	0.039362	0.017788	0.101393	-0.011213	-0.939941	-0.124512	-0.615723	0.096609	0.000836	0.019395	0.761899	0.086416	-0.632565	0.109101	-1.967081	-79.344905	17.929796
61718		9.624811	0.061153	1.964184	-0.174947	0.077737	0.008824	0.011360	0.102400	-0.009122	-0.930420	-0.129883	-0.620850	0.096258	0.000606	0.019593	0.762209	0.086378	-0.632185	0.109173	-1.960532	-79.288032	17.926835
61719		9.646526	0.096203	2.017277	-0.221387	0.101298	0.039969	0.004186	0.106640	-0.008758	-0.931885	-0.131592	-0.625977	0.096476	0.000957	0.020121	0.762535	0.086310	-0.631791	0.109227	-1.958922	-79.228612	17.924917
61720		9.678394	0.097399	2.022648	-0.211046	0.106203	0.072456	0.001626	0.114777	-0.005686	-0.936768	-0.125244	-0.625244	0.096796	0.000971	0.020171	0.762886	0.086218	-0.631370	0.109287	-1.967028	-79.164584	17.931195
61721		9.585102	0.165335	2.016914	-0.230286	0.171561	-0.020498	-0.002940	0.122745	-0.003431	-0.926270	-0.131592	-0.619141	0.095863	0.001652	0.020110	0.763264	0.086097	-0.630920	0.109346	-1.983461	-79.095722	17.943374
61722		9.527863	0.185750	2.015349	-0.233590	0.192312	-0.076942	-0.009702	0.125482	-0.007573	-0.931396	-0.129150	-0.619873	0.095291	0.001855	0.020094	0.763653	0.085961	-0.630463	0.109367	-1.991146	-79.025601	17.942617
61723		9.526212	0.161993	2.032378	-0.231703	0.169167	-0.074967	-0.011184	0.136253	-0.001265	-0.934326	-0.125977	-0.629150	0.095276	0.001620	0.020259	0.764073	0.085804	-0.629965	0.109424	-2.016607	-78.949089	17.960905
61724		9.536871	0.183349	2.022192	-0.213064	0.197568	-0.066388	0.001281	0.150989	-0.010198	-0.918945	-0.125488	-0.635498	0.095384	0.001828	0.020150	0.764539	0.085705	-0.629403	0.109481	-2.007572	-78.864416	17.949522
61725		9.568948	0.160872	2.035966	-0.200170	0.178301	-0.031893	0.010159	0.149295	-0.009134	-0.932861	-0.129639	-0.622559	0.095705	0.001603	0.020288	0.764998	0.085631	-0.628841	0.109563	-1.996922	-78.780342	17.940650
61726		9.594086	0.179863	2.007660	-0.159776	0.209834	-0.012690	0.012121	0.160786	-0.009920	-0.922852	-0.125000	-0.627441	0.095957	0.001793	0.020000	0.765490	0.085566	-0.628235	0.109659	-1.981841	-78.690053	17.929427
61727		9.535130	0.225435	2.005003	-0.165542	0.254758	-0.071166	0.024071	0.168899	-0.016172	-0.921387	-0.132324	-0.632568	0.095368	0.002244	0.019970	0.766004	0.085567	-0.627587	0.109777	-1.941563	-78.595172	17.900220
61728		9.580549	0.224989	1.997069	-0.133451	0.262806	-0.028061	0.027942	0.172416	-0.018012	-0.926758	-0.125977	-0.636230	0.095823	0.002238	0.019888	0.766529	0.085582	-0.626923	0.109896	-1.894186	-78.498376	17.865287
61729		9.540988	0.275014	2.008847	-0.149973	0.308437	-0.064667	0.039782	0.164778	-0.021438	-0.922119	-0.126709	-0.639893	0.095427	0.002736	0.020010	0.767026	0.085661	-0.626278	0.110040	-1.831518	-78.405768	17.822257
61730		9.532095	0.295652	1.985841	-0.120531	0.336118	-0.077992	0.047431	0.155400	-0.029133	-0.923584	-0.129150	-0.640381	0.095337	0.002938	0.019785	0.767494	0.085795	-0.625663	0.110171	-1.745148	-78.318899	17.758891
61731		9.612317	0.297492	1.970854	-0.077442	0.348046	-0.002374	0.047812	0.134466	-0.033800	-0.917725	-0.126709	-0.638184	0.096137	0.002954	0.019645	0.767901	0.085954	-0.625124	0.110273	-1.648376	-78.243781	17.684698
61732		9.665105	0.258382	2.002385	-0.072943	0.305313	0.056052	0.050493	0.130267	-0.044481	-0.915771	-0.125000	-0.643555	0.096665	0.002557	0.019962	0.768296	0.086161	-0.624597	0.110344	-1.522368	-78.171506	17.582596
61733		9.663839	0.240619	1.894855	0.045904	0.316746	0.032906	0.042107	0.127413	-0.046282	-0.914551	-0.125244	-0.639404	0.096651	0.002380	0.018887	0.768691	0.086335	-0.624083	0.110370	-1.397997	-78.100517	17.475773
61734		9.585643	0.309781	1.868008	0.048479	0.385092	-0.049527	0.042459	0.110738	-0.041311	-0.920410	-0.133057	-0.642334	0.095867	0.003074	0.018628	0.769026	0.086513	-0.623636	0.110419	-1.289059	-78.039298	17.386362
61735		9.600848	0.366026	1.883226	0.032121	0.435313	-0.031774	0.054613	0.101353	-0.038531	-0.916260	-0.126953	-0.645752	0.096019	0.003637	0.018785	0.769328	0.086731	-0.623218	0.110511	-1.182103	-77.983155	17.305745
61736		9.592634	0.411899	1.848826	0.059087	0.487179	-0.047156	0.069456	0.080716	-0.035156	-0.908936	-0.132813	-0.649902	0.095935	0.004096	0.018451	0.769554	0.087010	-0.622873	0.110654	-1.077707	-77.938995	17.236757
61737		9.544859	0.371769	1.764313	0.147762	0.467353	-0.111394	0.073849	0.071985	-0.033211	-0.915771	-0.126709	-0.645020	0.095456	0.003695	0.017610	0.769754	0.087298	-0.622559	0.110808	-0.976868	-77.899374	17.172842
61738		9.566799	0.283937	1.804093	0.146262	0.372359	-0.081348	0.069265	0.068673	-0.029298	-0.920898	-0.133301	-0.646729	0.095675	0.002819	0.018009	0.769939	0.087564	-0.622263	0.110968	-0.889900	-77.862010	17.121546
61739		9.610038	0.152092	1.867931	0.138945	0.229732	-0.025295	0.085374	0.070364	-0.033125	-0.921143	-0.136475	-0.639893	0.096107	0.001497	0.018646	0.770127	0.087897	-0.621950	0.111158	-0.784025	-77.823471	17.059243
61740		9.713594	0.110714	1.869688	0.176081	0.194061	0.076358	0.108849	0.050343	-0.028204	-0.919189	-0.141602	-0.637207	0.097141	0.001083	0.018673	0.770238	0.088322	-0.621703	0.111437	-0.678807	-77.796563	17.012465
61741		9.797215	0.089936	1.850743	0.221528	0.181835	0.154088	0.146291	0.038638	-0.028577	-0.915283	-0.133057	-0.654541	0.097976	0.000872	0.018489	0.770292	0.088916	-0.621478	0.111845	-0.550983	-77.776386	16.967351
61742		9.890469	0.059348	1.903211	0.204327	0.140687	0.256352	0.176825	0.037674	-0.020480	-0.916748	-0.138916	-0.646240	0.098908	0.000567	0.019014	0.770328	0.089586	-0.621245	0.112359	-0.428207	-77.756657	16.942452
61743		9.984715	-0.097668	1.946145	0.232125	-0.019055	0.357726	0.206182	0.029609	-0.014469	-0.915039	-0.134277	-0.643799	0.099850	-0.001004	0.019446	0.770323	0.090352	-0.621027	0.112981	-0.304585	-77.741202	16.933348
61744		9.967390	-0.017865	1.829222	0.319234	0.085976	0.315784	0.260912	0.032601	-0.003961	-0.913574	-0.144043	-0.649902	0.099677	-0.000204	0.018276	0.770294	0.091297	-0.620772	0.113818	-0.177676	-77.724317	16.953520
61745		9.970161	0.120948	1.874015	0.241096	0.203328	0.327884	0.308439	0.020381	0.006705	-0.906250	-0.136963	-0.651855	0.099703	0.001184	0.018732	0.770199	0.092399	-0.620539	0.114838	-0.051494	-77.714191	17.002313
61746		10.091157	0.188578	2.148647	-0.009066	0.194042	0.504578	0.344436	0.007449	0.027809	-0.910156	-0.142090	-0.642090	0.100912	0.001863	0.021486	0.770032	0.093581	-0.620345	0.116044	0.039402	-77.711733	17.108322
61747		10.306348	0.220974	2.471150	-0.275781	0.142652	0.783529	0.354684	-0.002189	0.049937	-0.912354	-0.145508	-0.641357	0.103063	0.002192	0.024717	0.769818	0.094732	-0.620189	0.117354	0.078004	-77.714467	17.272509
61748		10.267394	0.503224	2.731078	-0.613702	0.332481	0.800711	0.323548	-0.037600	0.090105	-0.915771	-0.143555	-0.635742	0.102667	0.005034	0.027338	0.769480	0.095667	-0.620206	0.118714	-0.007180	-77.737859	17.546465
61749		10.255139	1.020650	2.927234	-0.965436	0.768223	0.829495	0.285422	-0.095092	0.130994	-0.913574	-0.147949	-0.645508	0.102531	0.010232	0.029336	0.768956	0.096364	-0.620484	0.120087	-0.223532	-77.793924	17.932584
61750		10.314953	1.303707	3.088537	-1.207937	0.998768	0.919520	0.158552	-0.142787	0.171472	-0.916748	-0.150146	-0.646973	0.103116	0.013101	0.030969	0.768318	0.096474	-0.621041	0.121197	-0.624930	-77.876769	18.433195
61751		10.195520	1.633755	3.185654	-1.447221	1.287021	0.818174	-0.000567	-0.189035	0.198702	-0.920166	-0.141357	-0.637207	0.101909	0.016439	0.031953	0.767597	0.095920	-0.621880	0.121897	-1.198726	-77.984581	19.017229
61752		10.007067	1.671990	3.250063	-1.583466	1.308329	0.641052	-0.155779	-0.213505	0.210964	-0.925049	-0.140381	-0.639648	0.100018	0.016851	0.032594	0.766864	0.094742	-0.622915	0.122147	-1.908691	-78.105221	19.648766
61753		9.783797	1.624307	3.179052	-1.573582	1.289862	0.401393	-0.283691	-0.217957	0.200457	-0.920898	-0.132080	-0.640137	0.097787	0.016386	0.031874	0.766183	0.093107	-0.624038	0.121952	-2.677290	-78.226772	20.264554
61754		9.536288	1.563016	2.937219	-1.403324	1.307300	0.103593	-0.367558	-0.237798	0.170645	-0.917480	-0.135498	-0.639404	0.095314	0.015766	0.029457	0.765491	0.091258	-0.625271	0.121375	-3.429343	-78.359076	20.814582
61755		9.139289	1.539660	2.764787	-1.333314	1.327654	-0.325815	-0.457737	-0.207512	0.127998	-0.923828	-0.126221	-0.630615	0.091354	0.015518	0.027707	0.764960	0.089173	-0.626417	0.120358	-4.121715	-78.473772	21.249659
61756		8.681272	1.185080	2.555585	-1.133610	1.035629	-0.815895	-0.556424	-0.124920	0.072261	-0.921143	-0.123779	-0.635742	0.086792	0.011953	0.025577	0.764755	0.086840	-0.627280	0.118863	-4.706725	-78.543244	21.518378
61757		8.330061	0.598254	2.635882	-1.110384	0.444579	-1.137143	-0.616351	-0.012195	0.009369	-0.927002	-0.119385	-0.638428	0.083299	0.006068	0.026345	0.764964	0.084404	-0.627711	0.116982	-5.124584	-78.550620	21.580835
61758		8.385655	-0.261428	2.766480	-0.981129	-0.395068	-1.042153	-0.650795	0.033714	-0.051189	-0.927246	-0.111084	-0.643066	0.083861	-0.002546	0.027659	0.765355	0.082001	-0.627958	0.114784	-5.380880	-78.535267	21.458953
61759		8.335040	-1.018580	2.636628	-0.660442	-1.080973	-1.103066	-0.570785	0.048661	-0.124872	-0.925537	-0.118652	-0.641357	0.083350	-0.010163	0.026375	0.765801	0.080116	-0.628063	0.112548	-5.379817	-78.514868	21.119313
61760		8.023502	-1.346423	2.261638	-0.278328	-1.320019	-1.476950	-0.461870	0.024829	-0.200989	-0.917480	-0.103271	-0.633545	0.080224	-0.013493	0.022638	0.766160	0.078911	-0.628165	0.110365	-5.109870	-78.512427	20.570880
61761		7.637359	-1.423428	1.724691	0.174447	-1.290743	-1.961988	-0.411456	0.003267	-0.245953	-0.925049	-0.107422	-0.645752	0.076356	-0.014293	0.017275	0.766456	0.078046	-0.628297	0.108152	-4.689088	-78.523357	19.896968
61762		7.634908	-1.383944	1.304786	0.555048	-1.160304	-2.050267	-0.336400	-0.091171	-0.261891	-0.924805	-0.106201	-0.637695	0.076325	-0.013917	0.013106	0.766426	0.077575	-0.628744	0.106083	-4.199021	-78.588358	19.197380
61763		7.958657	-1.417169	1.079563	0.828805	-1.132388	-1.778710	-0.283766	-0.108455	-0.242365	-0.928223	-0.113525	-0.643799	0.079563	-0.014253	0.010859	0.766313	0.077238	-0.629233	0.104231	-3.731004	-78.660767	18.548655
61764		8.551728	-1.685196	0.998387	1.075486	-1.352165	-1.211312	-0.237910	-0.111544	-0.211492	-0.925781	-0.109375	-0.635254	0.085494	-0.016930	0.010052	0.766150	0.076996	-0.629721	0.102656	-3.318372	-78.733407	17.985926
61765		9.581463	-1.962979	1.029758	1.294802	-1.584259	-0.193348	-0.172685	-0.159482	-0.166906	-0.933594	-0.106445	-0.641113	0.095790	-0.019701	0.010391	0.765788	0.076883	-0.630372	0.101433	-2.997575	-78.830912	17.554257
61766		10.521280	-1.848545	1.209623	1.248919	-1.479047	0.762293	-0.143558	-0.221863	-0.107514	-0.927979	-0.112061	-0.640625	0.105189	-0.018533	0.012226	0.765184	0.076730	-0.631272	0.100511	-2.836371	-78.962473	17.303231
61767		10.886813	-1.997333	0.889710	1.630069	-1.535787	1.063331	-0.128626	-0.263037	-0.028970	-0.926025	-0.110107	-0.639404	0.108853	-0.019983	0.009053	0.764407	0.076394	-0.632348	0.099907	-2.901316	-79.114775	17.289183
61768		10.542401	-2.096195	0.519887	1.914012	-1.565949	0.660651	-0.114876	-0.261695	0.039913	-0.930664	-0.111816	-0.630127	0.105421	-0.020938	0.005349	0.763589	0.075906	-0.633439	0.099623	-3.166321	-79.264753	17.489045
61769		9.783051	-2.301951	0.408809	1.905985	-1.780534	-0.098212	-0.124091	-0.260366	0.078316	-0.944092	-0.105469	-0.631592	0.097834	-0.022979	0.004230	0.762762	0.075254	-0.634540	0.099451	-3.560122	-79.411904	17.813554
61770		9.083018	-2.334111	0.599353	1.581589	-1.894293	-0.745236	-0.139535	-0.245705	0.085076	-0.935547	-0.102539	-0.628906	0.090833	-0.023298	0.006121	0.761978	0.074520	-0.635596	0.099267	-3.991074	-79.550539	18.167638
61771		8.462997	-2.522038	0.718187	1.380599	-2.137614	-1.326035	-0.106115	-0.273140	0.074131	-0.931885	-0.098877	-0.623291	0.084629	-0.025185	0.007311	0.761101	0.073948	-0.636735	0.099125	-4.386510	-79.704503	18.502788
61772		8.117489	-2.540309	0.715662	1.303853	-2.174297	-1.662146	0.020262	-0.286195	0.040848	-0.947754	-0.109619	-0.630127	0.081170	-0.025387	0.007270	0.760147	0.073982	-0.637847	0.099266	-4.616140	-79.867424	18.744994
61773		7.910063	-2.508738	0.811319	1.148707	-2.180948	-1.847450	0.095148	-0.279851	0.012281	-0.942139	-0.098877	-0.614990	0.079091	-0.025086	0.008212	0.759202	0.074381	-0.638884	0.099532	-4.716192	-80.027490	18.897802
61774		7.509476	-2.703936	0.771376	1.154329	-2.387356	-2.245220	0.144675	-0.191495	-0.028092	-0.944092	-0.104248	-0.621582	0.075084	-0.027056	0.007766	0.758536	0.075061	-0.639547	0.099843	-4.634187	-80.139420	18.895788
61775		6.984917	-2.945791	0.931516	0.971712	-2.694782	-2.732546	0.210000	-0.080798	-0.068335	-0.943115	-0.101563	-0.612549	0.069835	-0.029492	0.009312	0.758222	0.076049	-0.639741	0.100241	-4.352993	-80.189626	18.727724
61776		6.789685	-3.061703	1.289874	0.629812	-2.912945	-2.866055	0.283154	-0.082955	-0.119081	-0.939941	-0.117432	-0.618408	0.067873	-0.030676	0.012883	0.757893	0.077491	-0.639886	0.100691	-3.857784	-80.243250	18.386923
61777		6.885070	-2.930031	1.523607	0.393855	-2.850797	-2.739607	0.390267	-0.128140	-0.162393	-0.944580	-0.118652	-0.616211	0.068817	-0.029386	0.015223	0.757400	0.079496	-0.640128	0.101299	-3.161017	-80.323307	17.903554
61778		6.952925	-2.663810	1.506524	0.358024	-2.602357	-2.684702	0.416302	-0.138644	-0.188656	-0.946289	-0.118164	-0.608154	0.069494	-0.026735	0.015058	0.756870	0.081692	-0.640385	0.101888	-2.351309	-80.409341	17.321288
61779		7.036754	-2.584899	1.252068	0.597617	-2.475839	-2.651799	0.410732	-0.148634	-0.215672	-0.951416	-0.127686	-0.606445	0.070330	-0.025951	0.012520	0.756321	0.083957	-0.640666	0.102355	-1.441807	-80.499890	16.634907
61780		7.331847	-2.583236	1.188261	0.708152	-2.463985	-2.378421	0.407398	-0.153486	-0.236294	-0.950439	-0.125244	-0.609375	0.073279	-0.025943	0.011886	0.755763	0.086279	-0.640956	0.102728	-0.447002	-80.591754	15.860130
61781		8.424098	-1.967791	2.155144	-0.195827	-2.099117	-1.150265	0.435928	-0.038053	-0.239722	-0.940674	-0.124268	-0.603516	0.084213	-0.019826	0.021524	0.755561	0.088658	-0.640789	0.103231	0.588430	-80.615073	15.060883
61782		10.781121	-0.656411	4.750929	-2.628725	-1.455803	1.598058	0.267810	0.083087	-0.208980	-0.946533	-0.139893	-0.606934	0.107824	-0.006740	0.047456	0.755801	0.090242	-0.640263	0.103362	1.416659	-80.567305	14.373987
61783		13.939231	2.154992	4.900982	-3.042201	1.300753	4.748169	0.443756	-0.257708	-0.094289	-0.952881	-0.137939	-0.601807	0.139339	0.021375	0.049237	0.754811	0.092292	-0.640982	0.104333	1.980121	-80.715025	14.056878
61784		14.606359	5.774628	2.241685	-1.496319	5.496440	4.994944	0.489586	-0.685135	0.128375	-0.952637	-0.144775	-0.593262	0.145948	0.057784	0.023058	0.752301	0.094031	-0.643386	0.106096	1.838867	-81.111845	14.481095
61785		13.563156	3.055700	-0.905505	1.981888	3.715401	3.468260	-0.450795	-0.759287	0.323533	-0.959473	-0.144043	-0.576172	0.135615	0.030757	-0.008609	0.749877	0.091642	-0.646644	0.105534	0.372509	-81.552203	15.700550
61786		11.288089	-3.054673	-2.976060	5.252893	-1.678008	0.920447	-0.925319	-0.099862	0.216305	-0.958740	-0.128662	-0.588623	0.112929	-0.030562	-0.029563	0.749841	0.087471	-0.647619	0.103332	-1.045028	-81.610465	16.594680
61787		11.319717	-5.511913	-2.089844	5.054338	-4.292834	1.091891	-0.168841	0.066411	-0.120408	-0.953125	-0.132568	-0.589355	0.113157	-0.055205	-0.020889	0.750176	0.087149	-0.647422	0.102401	-0.719132	-81.575276	16.166394
61788		12.947260	-3.965778	0.632397	2.278844	-3.478621	3.089437	0.349256	-0.121566	-0.261740	-0.961426	-0.127930	-0.585449	0.129417	-0.039838	0.006333	0.749748	0.089314	-0.647603	0.102522	0.448975	-81.647079	15.185026
61789		13.371894	-3.519516	0.810867	2.037117	-3.116717	3.528530	0.378067	-0.362383	-0.211088	-0.958496	-0.139648	-0.580322	0.133667	-0.035352	0.008284	0.748497	0.091543	-0.648691	0.102820	1.473286	-81.854484	14.365980
61790		13.289560	-2.902462	0.234701	2.370023	-2.406687	3.366172	0.729160	-0.550129	-0.155796	-0.967041	-0.149170	-0.577881	0.132866	-0.029137	0.002606	0.746438	0.095005	-0.650316	0.104375	2.556099	-82.168399	13.691533
61791		13.657525	-1.014448	0.185483	1.895280	-0.595848	3.738851	0.728461	-0.379970	-0.061030	-0.965332	-0.150879	-0.566895	0.136568	-0.010193	0.002077	0.744866	0.098071	-0.651338	0.106369	3.260247	-82.386183	13.400517
61792		13.266650	-0.401945	0.489045	1.360641	-0.112495	3.398699	0.326516	0.009418	0.076422	-0.961182	-0.140625	-0.569092	0.132668	-0.003977	0.004878	0.744681	0.098979	-0.651186	0.107747	3.066431	-82.385385	13.781904
61793		11.467190	-0.098866	1.556047	0.035592	-0.172137	1.758681	0.336892	0.157095	0.145534	-0.968994	-0.143066	-0.571045	0.114685	-0.000931	0.015469	0.744932	0.099616	-0.650512	0.109490	2.552408	-82.301768	14.492243
61794		10.582379	0.787667	3.250334	-1.945887	0.162282	1.112467	0.418705	-0.119080	0.172180	-0.966309	-0.147949	-0.565674	0.105798	0.007900	0.032583	0.744225	0.100626	-0.650830	0.111459	2.028205	-82.375959	15.260331
61795		10.877822	0.059065	2.914245	-1.403195	-0.424996	1.353046	0.439737	-0.353273	0.192043	-0.963623	-0.150635	-0.558350	0.108726	0.000631	0.029336	0.742729	0.101774	-0.652015	0.113451	1.436846	-82.583738	16.107529
61796		10.953839	-0.308438	2.007525	-0.463438	-0.506027	1.306707	0.638749	-0.324814	0.145443	-0.969238	-0.157959	-0.554443	0.109508	-0.003069	0.020243	0.741244	0.103801	-0.652949	0.115933	1.132736	-82.773626	16.780228
61797		10.365364	-0.202946	1.305917	0.072288	-0.216999	0.634085	0.615264	-0.126135	0.081212	-0.971680	-0.160645	-0.551758	0.103646	-0.002028	0.013118	0.740445	0.105842	-0.653119	0.118213	1.070918	-82.848882	17.196626
61798		9.483674	-0.080182	1.315602	-0.085627	-0.139430	-0.239259	0.597904	-0.005503	0.017047	-0.972656	-0.151123	-0.555908	0.094836	-0.000833	0.013156	0.740082	0.107949	-0.652813	0.120250	1.280738	-82.854181	17.327528
61799		8.932057	0.452969	1.972924	-0.939426	0.127573	-0.703328	0.587956	-0.034577	-0.030511	-0.973145	-0.168213	-0.551025	0.089318	0.004458	0.019758	0.739651	0.110191	-0.652590	0.122067	1.703025	-82.875676	17.239090
61800		8.685936	1.074420	2.241024	-1.427777	0.602489	-0.912099	0.557324	-0.117963	-0.052706	-0.975586	-0.170898	-0.543213	0.086849	0.010659	0.022491	0.738974	0.112441	-0.652676	0.123650	2.228008	-82.944225	17.028952
61801		8.563296	1.917724	2.029250	-1.535008	1.441891	-1.055393	0.548929	-0.138476	-0.072726	-0.974609	-0.169434	-0.545898	0.085626	0.019090	0.020404	0.738236	0.114753	-0.652825	0.125136	2.853201	-83.024090	16.715618
61802		8.445548	2.551188	1.589584	-1.366741	2.159152	-1.220095	0.507029	-0.136923	-0.076514	-0.981445	-0.174316	-0.538330	0.084454	0.025439	0.016018	0.737528	0.116905	-0.652989	0.126454	3.482676	-83.102173	16.371258
61803		8.525851	3.217185	1.328138	-1.359419	2.855999	-1.164014	0.495410	-0.131221	-0.072500	-0.970947	-0.177734	-0.540283	0.085261	0.032108	0.013417	0.736835	0.119004	-0.653138	0.127761	4.093681	-83.177114	16.040224
61804		8.559110	3.436525	1.312361	-1.433727	3.050075	-1.127539	0.378441	-0.064528	-0.080486	-0.981934	-0.183594	-0.544434	0.085601	0.034306	0.013216	0.736434	0.120648	-0.653107	0.128686	4.662390	-83.212769	15.682958
61805		8.514489	3.024911	1.246253	-1.243311	2.671029	-1.180218	0.289706	0.002857	-0.088743	-0.967529	-0.181396	-0.534912	0.085158	0.030193	0.012505	0.736308	0.121956	-0.652877	0.129341	5.195474	-83.209268	15.311885
61806		8.627384	2.666904	1.339147	-1.194361	2.294054	-1.057789	0.270316	0.014034	-0.106752	-0.971924	-0.191162	-0.538574	0.086289	0.026605	0.013421	0.736243	0.123237	-0.652606	0.129863	5.797975	-83.197842	14.858204
61807		8.805929	2.334365	1.415342	-1.126351	1.949431	-0.872448	0.213815	0.052564	-0.109679	-0.979492	-0.177979	-0.534424	0.088076	0.023280	0.014155	0.736335	0.124306	-0.652227	0.130226	6.360987	-83.163863	14.413673
61808		9.016422	2.129924	1.488473	-1.092219	1.727726	-0.654631	0.213001	0.075527	-0.116765	-0.970215	-0.193848	-0.530029	0.090182	0.021231	0.014873	0.736510	0.125367	-0.651759	0.130562	6.937873	-83.115699	13.952656
61809		9.254295	2.179902	1.461003	-1.052365	1.779396	-0.418288	0.227117	0.028818	-0.109678	-0.970215	-0.187744	-0.534424	0.092557	0.021732	0.014621	0.736514	0.126494	-0.651459	0.130948	7.510210	-83.094535	13.505470
61810		9.645548	2.132266	1.313754	-0.853335	1.785812	-0.045816	0.191985	-0.032908	-0.100805	-0.967529	-0.204590	-0.531494	0.096464	0.021261	0.013174	0.736336	0.127497	-0.651413	0.131206	8.059173	-83.108085	13.060413
61811		10.072744	1.829290	1.067798	-0.469712	1.590703	0.345841	0.136759	-0.041784	-0.091873	-0.982178	-0.189941	-0.526611	0.100734	0.018239	0.010712	0.736155	0.128287	-0.651439	0.131323	8.544715	-83.127119	12.649656
61812		10.542162	1.561153	0.932813	-0.194833	1.390001	0.792709	0.119519	-0.023138	-0.104086	-0.974121	-0.194824	-0.535889	0.105429	0.015551	0.009350	0.736056	0.129027	-0.651401	0.131339	9.064296	-83.133896	12.192402
61813		10.671754	1.463854	0.951621	-0.162094	1.283461	0.923291	0.122605	-0.026375	-0.113755	-0.968262	-0.195313	-0.534668	0.106725	0.014572	0.009539	0.735948	0.129814	-0.651369	0.131330	9.633502	-83.141484	11.687387
61814		10.570230	1.426934	0.893206	-0.105831	1.255606	0.816328	0.122541	-0.008400	-0.106809	-0.970703	-0.197754	-0.533691	0.105710	0.014207	0.008945	0.735896	0.130564	-0.651272	0.131355	10.157153	-83.138632	11.227786
61815		10.320063	1.494072	0.892489	-0.156687	1.302590	0.570529	0.120242	0.014141	-0.089594	-0.967773	-0.204590	-0.530518	0.103208	0.014889	0.008927	0.735908	0.131237	-0.651104	0.131453	10.578423	-83.124360	10.870269
61816		10.098369	1.543580	1.094417	-0.385069	1.262705	0.376264	0.115909	0.011728	-0.062189	-0.976074	-0.206299	-0.531738	0.100989	0.015398	0.010947	0.735896	0.131804	-0.650967	0.131633	10.870550	-83.114139	10.640024
61817		9.888471	1.536221	1.105908	-0.417862	1.241126	0.169790	0.119850	-0.017312	-0.043866	-0.969727	-0.203125	-0.535400	0.098887	0.015334	0.011077	0.735773	0.132353	-0.650944	0.131882	11.106857	-83.122172	10.469603
61818		9.654678	1.623540	1.016510	-0.397415	1.344909	-0.070241	0.133797	-0.024639	-0.031037	-0.977783	-0.212158	-0.522949	0.096548	0.016214	0.010188	0.735610	0.132909	-0.650948	0.132211	11.297134	-83.135630	10.352274
61819		9.452765	1.604148	0.822980	-0.239374	1.389986	-0.293444	0.112784	-0.032820	-0.011015	-0.965088	-0.201660	-0.527588	0.094527	0.016032	0.008254	0.735419	0.133334	-0.651009	0.132546	11.391310	-83.155970	10.320700
61820		9.272279	1.613434	0.728028	-0.179141	1.428419	-0.483385	0.102684	0.009803	-0.000380	-0.962402	-0.205322	-0.534180	0.092723	0.016130	0.007284	0.735368	0.133653	-0.650927	0.132909	11.388667	-83.153505	10.379727
61821		9.086371	1.607723	0.846147	-0.307222	1.375906	-0.654338	0.097913	0.043346	-0.001567	-0.977295	-0.209961	-0.523682	0.090866	0.016072	0.008450	0.735431	0.133935	-0.650723	0.133276	11.357417	-83.131891	10.464882
61822		9.029881	1.516342	0.981770	-0.404288	1.240029	-0.696724	0.098697	0.013051	0.000725	-0.966064	-0.212402	-0.527100	0.090299	0.015159	0.009819	0.735392	0.134233	-0.650632	0.133632	11.344529	-83.127721	10.531931
61823		8.967635	1.604125	0.948717	-0.414403	1.332550	-0.760377	0.117078	0.017695	0.006548	-0.967773	-0.212158	-0.530518	0.089677	0.016039	0.009489	0.735351	0.134583	-0.650515	0.134078	11.312254	-83.121631	10.630032
61824		8.913503	1.542987	1.017744	-0.461957	1.250411	-0.807677	0.121560	0.033719	0.029506	-0.977051	-0.212891	-0.529053	0.089134	0.015437	0.010172	0.735344	0.134857	-0.650352	0.134628	11.159605	-83.109044	10.851053
61825		9.031062	1.540001	1.066698	-0.493126	1.235200	-0.685769	0.140019	0.021317	0.051847	-0.971680	-0.205811	-0.522217	0.090308	0.015416	0.010668	0.735269	0.135139	-0.650236	0.135315	10.926603	-83.105700	11.164193
61826		9.117772	1.565499	1.054603	-0.485570	1.269623	-0.601334	0.139249	-0.017246	0.077626	-0.965332	-0.206787	-0.528076	0.091171	0.015683	0.010565	0.735052	0.135356	-0.650280	0.136066	10.605751	-83.126732	11.564847
61827		9.158038	1.463725	0.979787	-0.381264	1.209724	-0.573460	0.136413	-0.036379	0.096990	-0.972900	-0.204834	-0.528320	0.091571	0.014675	0.009825	0.734760	0.135513	-0.650409	0.136865	10.206662	-83.160187	12.042659
61828		9.170300	1.523160	1.024132	-0.451974	1.254657	-0.556078	0.151566	-0.036443	0.111493	-0.973389	-0.211426	-0.530762	0.091693	0.015275	0.010270	0.734448	0.135679	-0.650537	0.137767	9.743063	-83.194749	12.594134
61829		9.091877	1.518492	1.053292	-0.495795	1.244078	-0.632061	0.152861	-0.044559	0.117334	-0.978516	-0.203613	-0.528320	0.090907	0.015230	0.010565	0.734104	0.135836	-0.650697	0.138689	9.254282	-83.233770	13.171747
61830		9.172507	1.631927	1.005734	-0.497874	1.375278	-0.556862	0.164362	-0.079070	0.115245	-0.979248	-0.205322	-0.524658	0.091712	0.016364	0.010107	0.733639	0.136065	-0.650974	0.139617	8.800726	-83.291702	13.720394
61831		9.279698	1.838434	0.918146	-0.498790	1.607399	-0.458379	0.167478	-0.098231	0.114085	-0.978760	-0.205811	-0.520020	0.092782	0.018430	0.009242	0.733111	0.136323	-0.651317	0.140537	8.360168	-83.359810	14.257648
61832		9.301164	2.119021	0.842259	-0.550106	1.900574	-0.442710	0.141078	-0.100143	0.107731	-0.969971	-0.201172	-0.526367	0.092996	0.021234	0.008484	0.732598	0.136506	-0.651681	0.141346	7.926260	-83.428084	14.772939
61833		9.386418	2.186047	0.804234	-0.547361	1.983426	-0.362987	0.106515	-0.111352	0.096855	-0.978271	-0.204346	-0.524658	0.093849	0.021902	0.008106	0.732079	0.136606	-0.652101	0.141995	7.525200	-83.501331	15.235160
61834		9.600925	2.082670	1.167864	-0.831511	1.758505	-0.112408	0.061390	-0.087249	0.092700	-0.977295	-0.205566	-0.517822	0.095994	0.020868	0.011727	0.731672	0.136537	-0.652463	0.142499	7.093046	-83.560312	15.702595
61835		10.158586	1.440811	1.938199	-1.236915	0.892524	0.517020	-0.001864	-0.001348	0.070464	-0.965576	-0.211670	-0.520996	0.101581	0.014444	0.019383	0.731604	0.136249	-0.652540	0.142773	6.679984	-83.568394	16.114450
61836		10.814151	0.524436	2.224357	-1.076513	-0.036506	1.187697	0.044045	0.010224	0.037758	-0.983887	-0.200684	-0.522461	0.108142	0.005260	0.022239	0.731565	0.136226	-0.652519	0.143086	6.449201	-83.567605	16.369203
61837		10.740024	0.706869	1.525767	-0.517561	0.399980	1.038483	0.205106	-0.019458	0.007770	-0.972900	-0.208740	-0.525635	0.107398	0.007057	0.015275	0.731342	0.136913	-0.652470	0.143794	6.481318	-83.581553	16.452477
61838		10.542300	1.109590	1.132894	-0.339692	0.913712	0.803549	0.218042	-0.027890	-0.011069	-0.973145	-0.209961	-0.519531	0.105422	0.011078	0.011356	0.731094	0.137713	-0.652431	0.144469	6.618918	-83.599259	16.436837
61839		10.350019	1.410008	1.369821	-0.698196	1.085708	0.642990	0.176622	-0.034823	-0.043020	-0.972900	-0.202881	-0.520752	0.103501	0.014066	0.013729	0.730875	0.138473	-0.652422	0.144888	6.902464	-83.618534	16.250708
61840		10.183368	1.544030	1.786723	-1.154812	1.030409	0.525689	0.123163	-0.092135	-0.077847	-0.984619	-0.212402	-0.513184	0.101831	0.015390	0.017924	0.730530	0.139190	-0.652638	0.144965	7.369290	-83.667993	15.849110
61841		9.930932	1.684571	1.595995	-1.075796	1.210504	0.256357	0.096825	-0.236059	-0.106335	-0.975342	-0.207275	-0.515625	0.099299	0.016785	0.016085	0.729754	0.140010	-0.653378	0.144751	8.081689	-83.796393	15.185482
61842		9.937020	1.791405	0.916924	-0.518284	1.556271	0.192490	0.042567	-0.281318	-0.097632	-0.976318	-0.204346	-0.506348	0.099366	0.017864	0.009313	0.728860	0.140634	-0.654328	0.144360	8.780289	-83.950398	14.504513
61843		9.873834	1.839676	0.484297	-0.165841	1.754453	0.087107	-0.004207	-0.145812	-0.061509	-0.976074	-0.208496	-0.513184	0.098740	0.018366	0.004915	0.728416	0.140872	-0.654841	0.144042	9.171974	-84.030096	14.105313
61844		9.810109	1.969715	0.880212	-0.590199	1.711727	0.067314	-0.089619	0.000056	-0.016603	-0.975586	-0.209473	-0.518555	0.098103	0.019693	0.008793	0.728476	0.140546	-0.654917	0.143712	9.147711	-84.031392	14.075195
61845		10.032851	1.749985	1.657071	-1.187722	1.214389	0.364787	-0.189057	0.049509	0.006788	-0.979492	-0.213135	-0.519531	0.100332	0.017519	0.016529	0.728753	0.139747	-0.654898	0.143173	8.900224	-84.006539	14.212191
61846		10.371267	1.426182	2.181949	-1.500884	0.729119	0.750163	-0.207033	0.067669	0.016785	-0.971680	-0.204834	-0.518799	0.103719	0.014293	0.021770	0.729091	0.138836	-0.654834	0.142627	8.572917	-83.972474	14.419144
61847		10.703340	1.100885	2.315793	-1.456385	0.397902	1.089465	-0.212467	0.083577	0.027326	-0.978760	-0.206787	-0.513428	0.107042	0.011048	0.023101	0.729479	0.137860	-0.654721	0.142111	8.180024	-83.929825	14.688980
61848		10.945244	0.790185	2.446915	-1.424869	0.081500	1.339587	-0.254384	0.090073	0.041220	-0.986816	-0.198730	-0.526367	0.109462	0.007955	0.024410	0.729904	0.136679	-0.654624	0.141514	7.686378	-83.884679	15.035964
61849		11.047777	0.525426	2.446320	-1.304409	-0.142263	1.438632	-0.289576	0.124452	0.055225	-0.978760	-0.197754	-0.520020	0.110491	0.005320	0.024387	0.730456	0.135301	-0.654433	0.140875	7.084862	-83.820459	15.471184
61850		10.965789	0.550345	2.283911	-1.162228	-0.037895	1.341477	-0.297098	0.186530	0.079763	-0.973145	-0.189941	-0.524414	0.109677	0.005581	0.022729	0.731195	0.133769	-0.654037	0.140343	6.323210	-83.722222	16.063235
61851		10.666795	0.751350	2.267493	-1.239782	0.173373	1.046380	-0.367840	0.231460	0.132074	-0.973877	-0.197021	-0.527588	0.106689	0.007625	0.022538	0.732090	0.131776	-0.653556	0.139799	5.255773	-83.600123	16.922095
61852		10.366107	0.714203	2.163488	-1.146024	0.202872	0.736829	-0.453918	0.244047	0.163992	-0.975342	-0.192871	-0.537354	0.103681	0.007276	0.021492	0.733054	0.129354	-0.653109	0.139100	4.009613	-83.470675	17.911600
61853		10.080744	0.514156	2.201374	-1.120108	0.031347	0.457465	-0.524743	0.285250	0.170651	-0.970703	-0.186035	-0.540283	0.100834	0.005285	0.021856	0.734189	0.126623	-0.652555	0.138218	2.727667	-83.315108	18.896689
61854		9.810361	0.110306	2.151150	-0.936297	-0.296705	0.183210	-0.597015	0.314432	0.154551	-0.977051	-0.170410	-0.537598	0.098136	0.001243	0.021354	0.735467	0.123655	-0.651930	0.137060	1.526051	-83.140412	19.759388
61855		9.564647	-0.403720	2.051744	-0.666898	-0.713071	-0.070933	-0.613096	0.329329	0.125074	-0.976318	-0.177002	-0.546387	0.095683	-0.003915	0.020372	0.736816	0.120712	-0.651232	0.135746	0.504775	-82.954624	20.431222
61856		9.290864	-0.927705	1.901017	-0.353914	-1.128423	-0.357743	-0.615140	0.342408	0.098815	-0.973633	-0.174316	-0.558350	0.092946	-0.009173	0.018879	0.738216	0.117837	-0.650466	0.134337	-0.357241	-82.760329	20.941880
61857		8.983304	-1.239279	1.672273	-0.051202	-1.327304	-0.687578	-0.565130	0.341336	0.065270	-0.973877	-0.165283	-0.555664	0.089865	-0.012316	0.016604	0.739598	0.115257	-0.649639	0.132964	-1.005019	-82.565672	21.265729
61858		8.857248	-1.454957	1.539219	0.147873	-1.468296	-0.826079	-0.541335	0.319053	0.041032	-0.966309	-0.168945	-0.565430	0.088600	-0.014490	0.015290	0.740901	0.112855	-0.648861	0.131565	-1.515992	-82.384059	21.465390
61859		8.846610	-1.796421	1.268391	0.529912	-1.680599	-0.868796	-0.496975	0.308064	0.032755	-0.960693	-0.153320	-0.572266	0.088488	-0.017918	0.012592	0.742143	0.110652	-0.648081	0.130271	-1.949682	-82.208273	21.612850
61860		8.864831	-1.972907	1.218165	0.652102	-1.814180	-0.854730	-0.433430	0.290538	0.026304	-0.969238	-0.150391	-0.569336	0.088669	-0.019691	0.012096	0.743290	0.108715	-0.647319	0.129149	-2.313384	-82.042924	21.726416
61861		8.851015	-2.191437	1.001707	0.937644	-1.937185	-0.895603	-0.359611	0.252465	0.024180	-0.964600	-0.156982	-0.572510	0.088525	-0.021886	0.009945	0.744273	0.107080	-0.646643	0.128233	-2.623115	-81.898840	21.827668
61862		8.887634	-2.310924	0.854872	1.128727	-1.989753	-0.878033	-0.272233	0.193104	0.038073	-0.968262	-0.156738	-0.578613	0.088889	-0.023081	0.008494	0.745003	0.105765	-0.646140	0.127623	-2.943301	-81.788758	21.990654
61863		8.956514	-2.509480	0.681934	1.370323	-2.108518	-0.831706	-0.232816	0.134952	0.052150	-0.963623	-0.139404	-0.580566	0.089576	-0.025064	0.006788	0.745516	0.104591	-0.645831	0.127161	-3.300537	-81.711001	22.214076
61864		8.982724	-2.545378	0.561997	1.499966	-2.093849	-0.821023	-0.170065	0.090577	0.064804	-0.955078	-0.146729	-0.586182	0.089838	-0.025420	0.005601	0.745841	0.103636	-0.645656	0.126926	-3.678816	-81.658343	22.494998
61865		9.026550	-2.405839	0.535906	1.484827	-1.942509	-0.780755	-0.136280	0.048488	0.074877	-0.963135	-0.153564	-0.583984	0.090276	-0.024021	0.005354	0.746009	0.102798	-0.645618	0.126812	-4.083896	-81.628550	22.821953
61866		9.354494	-2.251519	0.612515	1.405074	-1.792764	-0.444506	-0.116726	0.036172	0.095378	-0.968994	-0.146240	-0.584229	0.093557	-0.022467	0.006121	0.746110	0.101977	-0.645627	0.126835	-4.558588	-81.605072	23.231268
61867		9.638392	-1.913398	0.740814	1.211149	-1.485352	-0.146492	-0.093446	0.022834	0.115010	-0.959717	-0.137207	-0.581055	0.096396	-0.019075	0.007406	0.746145	0.101190	-0.645677	0.126999	-5.096190	-81.587385	23.717793
61868		9.581851	-1.673880	0.650770	1.206453	-1.220572	-0.216235	-0.107662	0.004533	0.131863	-0.963867	-0.140137	-0.583984	0.095830	-0.016672	0.006515	0.746115	0.100306	-0.645816	0.127171	-5.713159	-81.578860	24.276220
61869		9.378490	-1.603428	0.520100	1.271317	-1.111721	-0.434768	-0.144535	-0.034449	0.148935	-0.964844	-0.140625	-0.585693	0.093796	-0.015961	0.005229	0.745969	0.099251	-0.646130	0.127266	-6.432000	-81.590226	24.915922
61870		9.353308	-1.701878	0.484168	1.321378	-1.182318	-0.460081	-0.174822	-0.057441	0.152338	-0.961914	-0.134766	-0.592529	0.093545	-0.016943	0.004883	0.745757	0.098090	-0.646551	0.127266	-7.194551	-81.613561	25.582585
61871		9.214178	-1.823106	0.582063	1.235550	-1.324705	-0.577855	-0.170124	-0.084703	0.138693	-0.965820	-0.131592	-0.588379	0.092152	-0.018162	0.005875	0.745465	0.097005	-0.647061	0.127215	-7.919279	-81.651754	26.213475
61872		9.077027	-1.835713	0.595951	1.192218	-1.340936	-0.707859	-0.147574	-0.131723	0.111191	-0.965820	-0.128662	-0.583252	0.090776	-0.018302	0.006033	0.745024	0.096125	-0.647720	0.127114	-8.558755	-81.718160	26.771391
61873		9.180067	-1.892521	0.569633	1.228281	-1.375484	-0.605132	-0.129324	-0.190994	0.077585	-0.963135	-0.122314	-0.580322	0.091802	-0.018886	0.005796	0.744405	0.095457	-0.648569	0.126916	-9.102391	-81.819943	27.242639
61874		9.379916	-1.977693	0.491541	1.331293	-1.419225	-0.413266	-0.116131	-0.212548	0.038240	-0.966797	-0.127686	-0.587158	0.093798	-0.019756	0.005027	0.743731	0.094982	-0.649472	0.126605	-9.509189	-81.937294	27.583447
61875		9.469505	-1.979781	0.559575	1.256290	-1.440089	-0.312581	-0.097442	-0.221491	-0.003109	-0.968750	-0.122559	-0.581299	0.094688	-0.019797	0.005710	0.743046	0.094713	-0.650374	0.126196	-9.755036	-82.063090	27.772096
61876		9.636922	-2.017932	0.656860	1.174581	-1.502772	-0.130964	-0.092531	-0.223689	-0.037814	-0.974121	-0.121582	-0.583252	0.096358	-0.020194	0.006686	0.742371	0.094579	-0.651265	0.125673	-9.863904	-82.193726	27.825582
61877		9.769605	-1.986043	0.834410	0.990502	-1.528687	0.024373	-0.068117	-0.245165	-0.062099	-0.979004	-0.120361	-0.575684	0.097680	-0.019888	0.008471	0.741629	0.094626	-0.652207	0.125129	-9.875549	-82.338619	27.794740
61878		9.885937	-1.915888	0.841897	0.951682	-1.470548	0.139342	-0.049180	-0.264371	-0.083743	-0.974365	-0.116699	-0.577148	0.098840	-0.019198	0.008554	0.740827	0.094828	-0.653199	0.124558	-9.797214	-82.496713	27.684392
61879		9.959465	-1.804318	0.810977	0.930192	-1.366244	0.205907	-0.017392	-0.282477	-0.091706	-0.977051	-0.123047	-0.572998	0.099575	-0.018088	0.008252	0.739955	0.095182	-0.654231	0.124051	-9.675603	-82.665597	27.548567
61880		10.092085	-1.783270	0.805904	0.917714	-1.353222	0.336511	-0.012791	-0.289459	-0.086548	-0.970703	-0.126709	-0.566650	0.100901	-0.017876	0.008206	0.739052	0.095543	-0.655288	0.123576	-9.573158	-82.838077	27.435016
61881		10.199808	-1.885774	0.926232	0.821672	-1.496868	0.460301	-0.008778	-0.274815	-0.079908	-0.985352	-0.127441	-0.558350	0.101978	-0.018898	0.009403	0.738190	0.095887	-0.656290	0.123146	-9.482736	-83.001464	27.335958
61882		10.120526	-1.974104	1.158107	0.596368	-1.670566	0.410660	0.006967	-0.264074	-0.073907	-0.989746	-0.130127	-0.572754	0.101183	-0.019779	0.011714	0.737350	0.096263	-0.657244	0.122794	-9.398224	-83.158362	27.251956
61883		9.956641	-1.967810	1.168842	0.542428	-1.691114	0.248078	0.021184	-0.279536	-0.068856	-0.983643	-0.121826	-0.561768	0.099543	-0.019714	0.011825	0.736448	0.096684	-0.658248	0.122501	-9.338823	-83.323378	27.201531
61884		9.765835	-1.803733	1.219694	0.398425	-1.575102	0.060148	0.043532	-0.303801	-0.066545	-0.988525	-0.119629	-0.559814	0.097634	-0.018072	0.012341	0.735452	0.097195	-0.659327	0.122277	-9.294121	-83.502033	27.178751
61885		9.594746	-1.722641	1.122480	0.422170	-1.491684	-0.123354	0.080806	-0.307613	-0.061531	-0.986572	-0.131104	-0.556152	0.095925	-0.017260	0.011365	0.734421	0.097827	-0.660398	0.122193	-9.255806	-83.682218	27.183824
61886		9.483198	-1.622162	1.207719	0.273849	-1.441658	-0.227929	0.087569	-0.310642	-0.052719	-0.987793	-0.129150	-0.549805	0.094809	-0.016252	0.012217	0.733368	0.098457	-0.661478	0.122161	-9.260321	-83.863464	27.235950
61887		9.539902	-1.520636	1.254341	0.178724	-1.369927	-0.169725	0.080811	-0.289527	-0.053296	-0.986816	-0.127686	-0.548096	0.095377	-0.015237	0.012675	0.732388	0.099051	-0.662483	0.122115	-9.249969	-84.032663	27.269258
61888		9.449586	-1.610216	1.275269	0.155489	-1.478656	-0.257420	0.059530	-0.260989	-0.060136	-0.995850	-0.133545	-0.539063	0.094474	-0.016134	0.012871	0.731515	0.099573	-0.663393	0.121987	-9.187492	-84.186512	27.237853
61889		9.270584	-1.688281	1.152755	0.258721	-1.536307	-0.448092	0.067874	-0.255819	-0.070771	-0.994873	-0.131592	-0.536865	0.092685	-0.016920	0.011640	0.730661	0.100156	-0.664271	0.121852	-9.053888	-84.338234	27.139799
61890		9.132722	-1.698322	0.986873	0.387227	-1.513972	-0.602762	0.115072	-0.254860	-0.070170	-0.994629	-0.132324	-0.527832	0.091309	-0.017021	0.009975	0.729784	0.100910	-0.665116	0.121874	-8.887407	-84.489495	27.035886
61891		9.059904	-1.667319	1.089528	0.256626	-1.532170	-0.667446	0.129695	-0.231359	-0.071314	-0.991699	-0.138184	-0.534912	0.090580	-0.016713	0.010989	0.728977	0.101705	-0.665865	0.121954	-8.678289	-84.627356	26.897612
61892		8.976669	-1.646883	1.366509	-0.032325	-1.614484	-0.726845	0.129021	-0.172323	-0.078682	-0.994873	-0.142822	-0.535156	0.089748	-0.016513	0.013732	0.728370	0.102487	-0.666394	0.122033	-8.358773	-84.732486	26.648074
61893		8.743261	-1.651426	1.471497	-0.159339	-1.673400	-0.952019	0.137615	-0.164413	-0.095247	-0.993164	-0.129395	-0.527344	0.087413	-0.016566	0.014775	0.727795	0.103350	-0.666879	0.122086	-7.914054	-84.834126	26.277853
61894		8.611815	-1.617882	1.488468	-0.204817	-1.665735	-1.084584	0.154238	-0.154260	-0.117012	-0.995850	-0.138428	-0.530273	0.086097	-0.016241	0.014939	0.727257	0.104341	-0.667306	0.122118	-7.293087	-84.931522	25.740246
61895		8.551775	-1.620443	1.646464	-0.363404	-1.734349	-1.133431	0.115763	-0.103286	-0.133086	-0.999268	-0.138184	-0.532227	0.085498	-0.016271	0.016499	0.726919	0.105212	-0.667561	0.121992	-6.531362	-85.000248	25.039192
61896		8.658775	-1.483363	1.916198	-0.652313	-1.699012	-1.007326	0.099548	0.002085	-0.149669	-0.999023	-0.145508	-0.532471	0.086577	-0.014908	0.019154	0.726949	0.106017	-0.667434	0.121805	-5.577693	-85.009206	24.136260
61897		9.135010	-0.764985	2.276675	-1.178254	-1.130477	-0.509432	0.164779	-0.010634	-0.174527	-1.006836	-0.147217	-0.531250	0.091342	-0.007748	0.022765	0.726918	0.107147	-0.667299	0.121740	-4.430503	-85.025002	23.076566
61898		9.657852	-0.246673	1.977387	-1.014793	-0.545462	-0.018932	0.218927	-0.026748	-0.182644	-1.010498	-0.152100	-0.520264	0.096574	-0.002577	0.019784	0.726807	0.108514	-0.667186	0.121816	-3.194812	-85.048617	21.959250
61899		9.842763	0.128417	1.819914	-0.965102	-0.152287	0.149938	0.214914	0.045227	-0.162123	-1.001221	-0.155518	-0.534912	0.098433	0.001185	0.018178	0.726926	0.109752	-0.666822	0.121994	-2.072585	-85.028306	20.953587
61900		10.007668	0.262597	2.143553	-1.284869	-0.137341	0.343464	0.120187	0.172507	-0.142609	-1.000000	-0.162354	-0.522461	0.100097	0.002542	0.021351	0.727506	0.110504	-0.666064	0.121995	-1.121231	-84.933403	20.064817
61901		10.339372	0.419377	2.522251	-1.638653	-0.107611	0.710781	0.159621	0.283791	-0.102515	-0.998291	-0.157715	-0.531250	0.103432	0.004121	0.025079	0.728411	0.111196	-0.664896	0.122336	-0.433076	-84.773097	19.462913
61902		11.150892	1.360494	2.753899	-2.069029	0.727230	1.543699	0.288211	0.171896	-0.039184	-0.999268	-0.160156	-0.528076	0.111535	0.013543	0.027463	0.728830	0.112216	-0.664092	0.123271	-0.094615	-84.676491	19.285966
61903		11.786548	1.710497	1.920300	-1.338726	1.349538	2.100441	0.308145	0.007202	0.088169	-0.997559	-0.159180	-0.526611	0.117859	0.017127	0.019225	0.728612	0.112985	-0.663944	0.124645	-0.536932	-84.673605	19.904677
61904		11.488116	1.139158	0.819812	-0.149838	1.177138	1.699846	0.214240	0.004884	0.207335	-0.990479	-0.163574	-0.530273	0.114869	0.011502	0.008208	0.728363	0.113020	-0.663930	0.126138	-1.761418	-84.670100	21.254877
61905		10.521615	-0.110461	0.294487	0.668894	0.166326	0.691034	0.047180	0.043398	0.265823	-0.991699	-0.162842	-0.530029	0.105218	-0.000965	0.002922	0.728298	0.112226	-0.663912	0.127313	-3.425642	-84.639597	22.950712
61906		9.972264	-1.392202	0.395535	0.950407	-1.068577	0.162058	-0.021359	0.042486	0.232356	-0.998291	-0.158691	-0.525391	0.099740	-0.013806	0.003936	0.728288	0.111295	-0.663922	0.128136	-4.904402	-84.606969	24.420831
61907		9.794148	-1.926346	0.604128	0.915537	-1.628946	0.011234	0.059223	0.032761	0.127952	-0.999512	-0.157715	-0.526367	0.097955	-0.019203	0.006020	0.728267	0.111009	-0.663855	0.128843	-5.700362	-84.582423	25.251682
61908		9.600181	-1.489591	0.421927	0.924145	-1.156103	-0.201768	0.207639	-0.001829	0.021603	-1.001221	-0.159668	-0.524414	0.096003	-0.014890	0.004205	0.728116	0.111640	-0.663761	0.129634	-5.786687	-84.583364	25.455014
61909		9.552117	-0.539563	0.189602	0.819681	-0.186965	-0.280469	0.334328	-0.012004	-0.065560	-0.993652	-0.161377	-0.520020	0.095519	-0.005430	0.001893	0.727917	0.113027	-0.663570	0.130524	-5.284549	-84.594747	25.140291
61910		9.729206	0.548685	0.006779	0.638725	0.897245	-0.130460	0.380539	0.018240	-0.125553	-1.000488	-0.165771	-0.529053	0.097295	0.005426	0.000069	0.727828	0.114762	-0.663205	0.131364	-4.374125	-84.591634	24.441921
61911		9.933341	1.554718	0.152127	0.180218	1.788764	0.080713	0.375299	0.085994	-0.152714	-0.995361	-0.167969	-0.520752	0.099346	0.015468	0.001508	0.727982	0.116521	-0.662576	0.132128	-3.282396	-84.549442	23.558516
61912		10.041984	2.341822	0.345558	-0.256482	2.451501	0.205761	0.340226	0.101109	-0.148232	-0.999512	-0.171631	-0.531738	0.100439	0.023338	0.003445	0.728200	0.118129	-0.661917	0.132798	-2.246355	-84.497160	22.710670
61913		10.215079	2.733733	0.282921	-0.315361	2.834476	0.373944	0.313123	0.056903	-0.115817	-0.990234	-0.171631	-0.532471	0.102167	0.027274	0.002843	0.728265	0.119559	-0.661454	0.133472	-1.443908	-84.468088	22.081940
61914		10.212633	2.729433	0.134847	-0.176903	2.872066	0.360110	0.247573	0.006991	-0.077875	-0.994385	-0.172607	-0.528076	0.102137	0.027253	0.001379	0.728176	0.120659	-0.661238	0.134035	-0.912330	-84.466673	21.687504
61915		10.273680	2.180204	-0.143005	0.279528	2.452199	0.396662	0.174040	0.005031	-0.049002	-0.992432	-0.174561	-0.526367	0.102742	0.021778	-0.001414	0.728107	0.121395	-0.661093	0.134460	-0.595996	-84.465643	21.466950
61916		10.361161	1.634305	-0.312962	0.640086	2.002130	0.468574	0.141405	0.036225	-0.042160	-0.993896	-0.174316	-0.526855	0.103614	0.016323	-0.003137	0.728154	0.121971	-0.660863	0.134819	-0.335674	-84.446840	21.283921
61917		10.515711	1.224322	-0.201955	0.701645	1.582594	0.633508	0.127062	0.061902	-0.062804	-0.990967	-0.188232	-0.518555	0.105160	0.012211	-0.002044	0.728308	0.122544	-0.660534	0.135073	0.034495	-84.413075	20.982263
61918		10.572816	1.047520	0.033517	0.560492	1.332005	0.713208	0.113009	0.104354	-0.085195	-0.992432	-0.183838	-0.529541	0.105733	0.010430	0.000286	0.728626	0.123112	-0.660047	0.135224	0.522511	-84.354889	20.554071
61919		10.510430	1.257853	0.311787	0.233258	1.421602	0.678888	0.095130	0.110222	-0.107833	-0.993164	-0.193359	-0.529297	0.105113	0.012520	0.003066	0.728989	0.123687	-0.659536	0.135239	1.119410	-84.292622	20.006473
61920		10.283349	1.357629	0.421646	0.086266	1.460156	0.464894	0.049080	0.076762	-0.127845	-0.992188	-0.190674	-0.526367	0.102844	0.013510	0.004180	0.729283	0.124181	-0.659165	0.135006	1.797778	-84.248767	19.350077
61921		10.174300	1.392252	0.354078	0.136345	1.503378	0.351040	0.043426	0.054163	-0.141444	-0.992676	-0.186768	-0.524170	0.101754	0.013850	0.003516	0.729515	0.124717	-0.658871	0.134693	2.544654	-84.216609	18.621907
61922		10.077389	1.335723	0.403219	0.110896	1.418555	0.260837	0.042595	0.043750	-0.151493	-0.989990	-0.189697	-0.526855	0.100785	0.013280	0.004013	0.729719	0.125287	-0.658611	0.134332	3.343062	-84.189264	17.841042
61923		9.944877	1.254122	0.373985	0.161962	1.336433	0.127179	0.026597	0.011582	-0.153627	-0.995850	-0.190186	-0.531006	0.099459	0.012464	0.003736	0.729829	0.125829	-0.658475	0.133892	4.148947	-84.179027	17.043573
61924		9.891428	1.039857	0.215678	0.384753	1.178786	0.058005	0.037540	-0.028222	-0.144468	-0.982910	-0.200928	-0.523438	0.098921	0.010327	0.002173	0.729794	0.126406	-0.658484	0.133494	4.926913	-84.190925	16.280318
61925		9.933982	0.840877	0.082762	0.584869	1.029306	0.086624	0.065857	-0.039645	-0.128898	-0.981201	-0.194336	-0.522705	0.099345	0.008344	0.000850	0.729693	0.127044	-0.658525	0.133241	5.642674	-84.209042	15.596155
61926		9.967419	0.702146	-0.010923	0.726013	0.922974	0.110194	0.102935	-0.013682	-0.119396	-0.976563	-0.202148	-0.529053	0.099678	0.006962	-0.000099	0.729647	0.127767	-0.658452	0.133159	6.314728	-84.212202	14.977051
61927		9.971958	0.611648	0.076487	0.682491	0.797940	0.122976	0.139295	0.045723	-0.105488	-0.987793	-0.188477	-0.520508	0.099723	0.006063	0.000746	0.729764	0.128539	-0.658146	0.133287	6.889803	-84.181663	14.476521
61928		9.892200	0.569599	0.192586	0.591620	0.709110	0.054647	0.177454	0.110912	-0.083769	-0.990967	-0.197266	-0.528809	0.098925	0.005653	0.001876	0.730056	0.129334	-0.657591	0.133660	7.314679	-84.115283	14.148740
61929		9.679880	0.683047	0.369170	0.379370	0.743547	-0.137662	0.209491	0.170419	-0.058803	-0.990234	-0.199707	-0.522949	0.096804	0.006798	0.003616	0.730505	0.130122	-0.656813	0.134268	7.569772	-84.016696	14.009967
61930		9.496993	0.787309	0.599289	0.125633	0.753081	-0.294865	0.228384	0.186814	-0.034310	-0.986328	-0.194580	-0.535400	0.094977	0.007850	0.005913	0.730977	0.130890	-0.655977	0.135038	7.687784	-83.910670	14.019995
61931		9.530625	0.995315	0.855125	-0.169869	0.856087	-0.231824	0.271517	0.164793	0.000587	-0.994629	-0.208984	-0.530518	0.095313	0.009942	0.008486	0.731324	0.131714	-0.655213	0.136062	7.660639	-83.819756	14.200809
61932		9.538494	1.167730	0.919137	-0.282453	0.996228	-0.214822	0.281952	0.119910	0.021840	-0.977295	-0.208984	-0.531006	0.095389	0.011675	0.009151	0.731501	0.132537	-0.654619	0.137169	7.563606	-83.755987	14.458029
61933		9.493013	1.206814	0.736417	-0.128682	1.103599	-0.279508	0.291901	0.083378	0.046183	-0.982178	-0.211914	-0.528320	0.094930	0.012079	0.007342	0.731533	0.133344	-0.654165	0.138373	7.374891	-83.714644	14.813468
61934		9.461479	1.238095	0.531154	0.046722	1.214155	-0.333329	0.306088	0.074098	0.059253	-0.989502	-0.207764	-0.531006	0.094613	0.012401	0.005295	0.731514	0.134164	-0.653744	0.139664	7.136489	-83.679448	15.226875
61935		9.260192	1.287734	0.356601	0.167199	1.326451	-0.552604	0.305412	0.070177	0.063067	-0.973633	-0.204834	-0.524902	0.092599	0.012901	0.003553	0.731479	0.134973	-0.653338	0.140965	6.884470	-83.646501	15.653786
61936		9.253578	1.403006	0.413880	0.070333	1.416954	-0.552248	0.295179	0.084184	0.055030	-0.982910	-0.213135	-0.534424	0.092534	0.014049	0.004121	0.731500	0.135760	-0.652881	0.142211	6.662530	-83.604900	16.044396
61937		9.325247	1.538854	0.427050	0.013873	1.543811	-0.478496	0.277276	0.054335	0.031822	-0.979736	-0.215088	-0.532471	0.093251	0.015397	0.004267	0.731451	0.136578	-0.652528	0.143293	6.568900	-83.578566	16.295646
61938		9.571257	1.740798	0.506576	-0.112063	1.708288	-0.222841	0.252026	0.030575	0.008509	-0.977783	-0.211182	-0.529785	0.095713	0.017406	0.005073	0.731357	0.137396	-0.652264	0.144191	6.593032	-83.564279	16.413787
61939		9.900700	1.761223	0.629628	-0.198689	1.688453	0.118670	0.196586	0.015334	-0.015421	-0.984619	-0.210205	-0.530273	0.099009	0.017598	0.006306	0.731268	0.138101	-0.652078	0.144810	6.715743	-83.557026	16.400845
61940		9.948989	1.842140	0.455311	-0.069958	1.828268	0.149025	0.157682	-0.056034	-0.035853	-0.984375	-0.211914	-0.530518	0.099492	0.018400	0.004596	0.730986	0.138781	-0.652167	0.145178	6.961715	-83.589042	16.241345
61941		9.899141	1.980314	0.314233	-0.010059	2.000986	0.087278	0.105363	-0.127059	-0.053225	-0.981445	-0.209961	-0.522705	0.098995	0.019775	0.003216	0.730522	0.139379	-0.652541	0.145262	7.314782	-83.660071	15.943911
61942		9.964639	1.774858	0.191108	0.178801	1.852698	0.138001	0.018883	-0.137831	-0.057809	-0.987549	-0.217285	-0.524414	0.099650	0.017720	0.001981	0.730086	0.139682	-0.653013	0.145040	7.655905	-83.736712	15.608713
61943		9.891846	1.560651	0.163683	0.273525	1.657073	0.061032	-0.052214	-0.054964	-0.046541	-0.987549	-0.208496	-0.524658	0.098922	0.015584	0.001660	0.729962	0.139631	-0.653242	0.144685	7.846580	-83.767001	15.383984
61944		9.481550	1.442492	0.375209	0.084417	1.450619	-0.325331	-0.111701	0.021117	-0.041893	-0.984375	-0.214355	-0.531250	0.094819	0.014407	0.003734	0.730124	0.139291	-0.653240	0.144205	7.924223	-83.754425	15.238611
61945		9.341945	1.488574	0.542850	-0.099700	1.421321	-0.445063	-0.116606	-0.034645	-0.046667	-0.982422	-0.212402	-0.525879	0.093422	0.014867	0.005436	0.730110	0.138989	-0.653441	0.143652	8.065498	-83.773046	15.026319
61946		9.671629	1.512910	0.661492	-0.186519	1.401726	-0.103556	-0.107346	-0.101388	-0.057628	-0.990723	-0.215820	-0.524414	0.096717	0.015105	0.006656	0.729880	0.138805	-0.653871	0.143044	8.320195	-83.828574	14.705371
61947		10.293070	1.071365	1.159403	-0.406467	0.812654	0.561015	-0.132709	0.001490	-0.077432	-0.975586	-0.217041	-0.521484	0.102935	0.010681	0.011586	0.730017	0.138520	-0.653929	0.142352	8.589339	-83.823960	14.355371
61948		10.955046	0.246673	1.735198	-0.535811	-0.157779	1.267601	-0.137552	0.084326	-0.122794	-0.982422	-0.218506	-0.526855	0.109559	0.002411	0.017304	0.730460	0.138305	-0.653657	0.141536	9.021513	-83.768246	13.838488
61949		11.262403	-0.018119	1.899816	-0.540614	-0.467818	1.586444	-0.048792	0.027926	-0.176049	-0.985107	-0.213379	-0.530762	0.112626	-0.000276	0.018982	0.730694	0.138631	-0.653490	0.140776	9.820931	-83.738772	13.003496
61950		11.308407	0.268120	1.591659	-0.356531	-0.102030	1.604308	0.037889	-0.021527	-0.204256	-0.985840	-0.214111	-0.521484	0.113085	0.002563	0.015929	0.730726	0.139398	-0.653423	0.140162	10.852357	-83.732876	11.984828
61951		11.025083	0.720424	1.262731	-0.252305	0.418226	1.297099	0.028529	0.044718	-0.157599	-0.987061	-0.216797	-0.532227	0.110259	0.007116	0.012604	0.730948	0.139933	-0.653153	0.139733	11.570156	-83.693221	11.276200
61952		10.372681	0.993971	1.403799	-0.542936	0.595329	0.670724	-0.011274	0.169453	-0.080032	-0.987305	-0.218506	-0.534912	0.103743	0.009899	0.013950	0.731550	0.139981	-0.652508	0.139546	11.732943	-83.591981	11.103018
61953		9.718836	1.039682	1.906337	-1.075690	0.432584	0.078044	-0.029134	0.160694	-0.011198	-0.980469	-0.215576	-0.532715	0.097204	0.010394	0.018984	0.732088	0.139745	-0.651956	0.139545	11.551904	-83.503541	11.265425
61954		9.525003	0.887991	2.068384	-1.177816	0.232135	-0.099229	-0.011308	0.061988	0.026581	-0.984375	-0.207275	-0.529053	0.095255	0.008894	0.020654	0.732264	0.139520	-0.651778	0.139672	11.296332	-83.474830	11.513247
61955		9.537306	0.746291	1.723691	-0.806276	0.240195	-0.128655	-0.011735	-0.019375	0.046868	-0.979492	-0.207275	-0.528320	0.095370	0.007486	0.017246	0.732162	0.139283	-0.651913	0.139814	11.022160	-83.493921	11.779314
61956		9.560720	0.674549	1.272231	-0.367848	0.353219	-0.157592	-0.052796	-0.045334	0.043808	-0.982666	-0.206787	-0.532959	0.095603	0.006770	0.012742	0.732006	0.138925	-0.652170	0.139794	10.761292	-83.527199	12.008531
61957		9.569384	0.550400	1.218641	-0.272387	0.264512	-0.157793	-0.107548	0.033511	0.026323	-0.989258	-0.213379	-0.528809	0.095695	0.005523	0.012167	0.732157	0.138367	-0.652163	0.139584	10.481745	-83.514039	12.224631
61958		9.449392	0.459464	1.469393	-0.475622	0.088333	-0.250930	-0.161760	0.107861	0.008578	-0.983154	-0.209961	-0.537354	0.094502	0.004611	0.014639	0.732599	0.137618	-0.651910	0.139186	10.192486	-83.457092	12.419598
61959		9.245979	0.341999	1.825106	-0.771228	-0.153616	-0.414938	-0.176701	0.105595	-0.005808	-0.989014	-0.207031	-0.535156	0.092470	0.003433	0.018199	0.733054	0.136863	-0.651665	0.138684	9.972590	-83.399816	12.536126
61960		9.018047	0.160648	1.905658	-0.796684	-0.351771	-0.635320	-0.178903	0.033659	-0.014186	-0.979004	-0.213867	-0.528809	0.090184	0.001617	0.019040	0.733281	0.136176	-0.651678	0.138096	9.854004	-83.382342	12.549425
61961		8.942232	0.092348	1.722565	-0.611370	-0.344126	-0.732650	-0.175764	-0.010471	-0.014670	-0.980469	-0.211182	-0.526855	0.089421	0.000932	0.017230	0.733362	0.135535	-0.651850	0.137486	9.778750	-83.389673	12.521022
61962		8.826195	0.092986	1.523502	-0.443305	-0.268546	-0.870496	-0.195444	0.003204	-0.010004	-0.984131	-0.205322	-0.544678	0.088262	0.000940	0.015233	0.733496	0.134795	-0.651988	0.136838	9.656241	-83.389798	12.528732
61963		8.647769	0.071543	1.439980	-0.378708	-0.257444	-1.057524	-0.213050	0.028545	0.003406	-0.985840	-0.201660	-0.534424	0.086480	0.000732	0.014387	0.733716	0.133930	-0.652053	0.136198	9.439230	-83.376765	12.621434
61964		8.612924	-0.040203	1.356194	-0.263211	-0.324767	-1.103578	-0.257395	0.036585	0.016488	-0.978760	-0.196289	-0.544189	0.086132	-0.000377	0.013547	0.733981	0.132853	-0.652128	0.135468	9.125859	-83.360456	12.785557
61965		8.618582	-0.141683	1.297222	-0.169974	-0.389425	-1.106238	-0.270524	0.049305	0.034269	-0.982666	-0.193848	-0.543945	0.086189	-0.001385	0.012953	0.734284	0.131659	-0.652174	0.134765	8.711308	-83.338275	13.043589
61966		8.760969	-0.343932	1.203675	0.006855	-0.530594	-0.978656	-0.305872	0.038170	0.042121	-0.982422	-0.196289	-0.548584	0.087613	-0.003402	0.012025	0.734566	0.130319	-0.652290	0.133971	8.247693	-83.322969	13.331027
61967		8.981494	-0.686537	1.043275	0.302975	-0.776486	-0.783165	-0.308954	0.014990	0.048407	-0.979004	-0.187744	-0.544922	0.089817	-0.006828	0.010437	0.734769	0.128960	-0.652494	0.133171	7.770012	-83.320862	13.630357
61968		9.069426	-0.920258	0.855208	0.567534	-0.916607	-0.720357	-0.270970	0.007391	0.041609	-0.983154	-0.190674	-0.550537	0.090696	-0.009172	0.008561	0.734925	0.127769	-0.652696	0.132469	7.351217	-83.322466	13.892808
61969		9.141160	-1.285112	0.654849	0.887253	-1.177057	-0.676580	-0.296630	-0.006910	0.044475	-0.983643	-0.186035	-0.548096	0.091414	-0.012821	0.006571	0.735049	0.126482	-0.652967	0.131680	6.912855	-83.331996	14.159592
61970		9.291569	-1.547564	0.419874	1.207683	-1.330341	-0.556544	-0.262008	-0.046342	0.031503	-0.977295	-0.189697	-0.548340	0.092917	-0.015455	0.004241	0.735027	0.125392	-0.653352	0.130935	6.578314	-83.363059	14.342375
61971		9.544503	-1.675671	0.338182	1.345745	-1.413130	-0.314698	-0.236294	-0.090043	0.026836	-0.981445	-0.187744	-0.544434	0.095446	-0.016740	0.003445	0.734849	0.124439	-0.653875	0.130226	6.303876	-83.418425	14.479096
61972		9.841013	-1.888013	0.121549	1.640155	-1.527602	-0.045333	-0.236500	-0.111131	0.030130	-0.981445	-0.180176	-0.542969	0.098412	-0.018864	0.001292	0.734598	0.123490	-0.654478	0.129518	6.019796	-83.486093	14.625758
61973		10.354337	-1.874259	0.266385	1.541523	-1.551131	0.483613	-0.200829	-0.092715	0.042688	-0.986572	-0.182617	-0.541748	0.103546	-0.018718	0.002731	0.734377	0.122617	-0.654996	0.128983	5.679627	-83.543808	14.849150
61974		10.987550	-1.672221	0.419002	1.381753	-1.393955	1.134722	-0.183352	-0.098044	0.078039	-0.979248	-0.185547	-0.546631	0.109880	-0.016675	0.004259	0.734103	0.121697	-0.655543	0.128633	5.166486	-83.606385	15.256929
61975		11.427413	-1.590636	0.407547	1.392336	-1.293630	1.574580	-0.155100	-0.121975	0.120938	-0.978027	-0.177979	-0.541016	0.114281	-0.015834	0.004157	0.733705	0.120755	-0.656185	0.128517	4.450092	-83.684097	15.885350
61976		11.549371	-1.486445	0.325976	1.422022	-1.153328	1.691719	-0.126887	-0.149676	0.161171	-0.989502	-0.167480	-0.544678	0.115503	-0.014769	0.003356	0.733171	0.119803	-0.656934	0.128626	3.531199	-83.778342	16.733744
61977		11.235490	-1.492356	0.189669	1.494719	-1.107304	1.369395	-0.134860	-0.120331	0.192181	-0.979736	-0.172607	-0.543701	0.112368	-0.014814	0.001974	0.732719	0.118697	-0.657598	0.128835	2.408487	-83.854970	17.781831
61978		10.853166	-1.820694	0.111143	1.619644	-1.384190	0.984497	-0.137416	-0.118424	0.208561	-0.993652	-0.163330	-0.544922	0.108550	-0.018093	0.001188	0.732261	0.117529	-0.658266	0.129101	1.169189	-83.928537	18.946134
61979		10.716812	-1.822452	0.212000	1.489971	-1.408463	0.864976	-0.068253	-0.133322	0.197132	-0.994629	-0.161133	-0.550781	0.107185	-0.018118	0.002198	0.731721	0.116658	-0.658935	0.129540	0.002684	-84.007861	20.076278
61980		10.663226	-1.849036	0.285485	1.405015	-1.444474	0.824240	-0.035195	-0.101150	0.187459	-0.980225	-0.164795	-0.540771	0.106648	-0.018390	0.002912	0.731271	0.115923	-0.659458	0.130075	-1.117656	-84.066515	21.179551
61981		10.516878	-1.959585	0.262635	1.434716	-1.530698	0.680748	0.036203	-0.073813	0.159953	-0.993652	-0.164063	-0.535889	0.105183	-0.019512	0.002662	0.730889	0.115516	-0.659818	0.130756	-2.060816	-84.107756	22.144995
61982		10.261400	-1.721607	0.333361	1.251439	-1.327249	0.436395	0.092932	-0.055049	0.146542	-0.996338	-0.154541	-0.540283	0.102626	-0.017142	0.003354	0.730542	0.115354	-0.660065	0.131591	-2.903644	-84.137151	23.042918
61983		9.924899	-1.558119	0.429377	1.065213	-1.206935	0.113255	0.096232	-0.042035	0.139366	-0.986328	-0.159668	-0.535889	0.099259	-0.015514	0.004307	0.730241	0.115216	-0.660257	0.132415	-3.709380	-84.158024	23.905001
61984		9.617194	-1.378229	0.570461	0.835127	-1.087111	-0.177538	0.121931	-0.046320	0.133888	-0.988281	-0.157471	-0.543701	0.096180	-0.013721	0.005719	0.729914	0.115195	-0.660444	0.133303	-4.476221	-84.180352	24.743170
61985		9.298822	-1.262432	0.659079	0.675078	-1.011992	-0.484432	0.151917	-0.066483	0.125632	-0.995117	-0.155762	-0.534424	0.092994	-0.012571	0.006612	0.729508	0.115322	-0.660679	0.134247	-5.196828	-84.213432	25.551664
61986		9.034065	-1.337522	0.587720	0.734729	-1.060325	-0.752633	0.146011	-0.087919	0.120445	-0.999512	-0.155029	-0.525635	0.090346	-0.013325	0.005907	0.729037	0.115461	-0.660992	0.135142	-5.911846	-84.258049	26.351515
61987		8.956887	-1.611449	0.475775	0.918673	-1.273802	-0.835917	0.151574	-0.090447	0.105552	-0.989014	-0.153076	-0.535156	0.089575	-0.016071	0.004786	0.728563	0.115669	-0.661303	0.135999	-6.553737	-84.304149	27.080844
61988		8.980314	-1.772941	0.641670	0.815917	-1.474871	-0.792702	0.161872	-0.054536	0.087446	-0.998291	-0.156494	-0.534912	0.089809	-0.017695	0.006427	0.728214	0.115953	-0.661463	0.136845	-7.069333	-84.330243	27.689306
61989		8.944830	-1.763728	0.792451	0.665520	-1.514648	-0.812042	0.150165	-0.028727	0.065763	-0.996826	-0.147949	-0.535400	0.089453	-0.017614	0.007924	0.727971	0.116244	-0.661525	0.137586	-7.454277	-84.342745	28.159325
61990		8.871831	-1.697692	0.786615	0.637310	-1.450561	-0.885201	0.159614	-0.078118	0.045686	-0.996826	-0.152100	-0.531982	0.088719	-0.016963	0.007887	0.727573	0.116673	-0.661747	0.138259	-7.757611	-84.384561	28.553145
61991		8.794141	-1.678980	0.607785	0.783342	-1.372785	-0.979391	0.157215	-0.117811	0.028848	-1.003662	-0.151367	-0.523438	0.087940	-0.016782	0.006116	0.727056	0.117172	-0.662106	0.138837	-8.004661	-84.450029	28.888426
61992		8.734976	-1.614948	0.575461	0.776751	-1.305511	-1.041638	0.133082	-0.126304	0.012307	-0.984619	-0.155273	-0.536133	0.087347	-0.016148	0.005799	0.726535	0.117649	-0.662502	0.139271	-8.179718	-84.521541	29.138018
61993		8.709558	-1.549722	0.533660	0.780555	-1.233579	-1.071300	0.118960	-0.137853	0.001270	-0.991211	-0.159180	-0.525879	0.087092	-0.015500	0.005387	0.725992	0.118115	-0.662943	0.139612	-8.314906	-84.600435	29.339081
61994		8.825523	-1.560263	0.627329	0.695614	-1.275729	-0.946660	0.107063	-0.166123	-0.009062	-0.996826	-0.159424	-0.526123	0.088249	-0.015610	0.006338	0.725368	0.118595	-0.663487	0.139859	-8.422279	-84.696184	29.505651
61995		9.091255	-1.510102	0.532055	0.773656	-1.189315	-0.691209	0.106689	-0.201203	-0.026349	-0.999023	-0.159912	-0.519775	0.090905	-0.015116	0.005404	0.724640	0.119155	-0.664148	0.140023	-8.462233	-84.813252	29.604239
61996		9.277535	-1.366865	0.330790	0.906924	-0.984588	-0.525145	0.124879	-0.237257	-0.044982	-1.000488	-0.161133	-0.517090	0.092768	-0.013692	0.003409	0.723793	0.119868	-0.664915	0.140156	-8.407708	-84.952317	29.618450
61997		9.313899	-1.226314	0.241458	0.924851	-0.830836	-0.497903	0.095410	-0.209883	-0.060652	-0.999756	-0.156982	-0.508057	0.093133	-0.012293	0.002506	0.723063	0.120507	-0.665594	0.140153	-8.242307	-85.077209	29.504443
61998		9.289220	-1.241644	0.330814	0.831042	-0.889724	-0.514384	0.062280	-0.182197	-0.071445	-1.002930	-0.162598	-0.512451	0.092885	-0.012451	0.003389	0.722454	0.121043	-0.666187	0.140015	-7.986701	-85.187189	29.280844
61999		9.134720	-1.334492	0.535965	0.650139	-1.068869	-0.650480	0.040822	-0.177737	-0.093446	-1.001221	-0.161865	-0.505859	0.091336	-0.013389	0.005438	0.721885	0.121570	-0.666767	0.139731	-7.579861	-85.296301	28.893167
62000		8.918747	-1.585164	0.567634	0.685992	-1.335415	-0.861427	0.045201	-0.145692	-0.110548	-1.005371	-0.162598	-0.512207	0.089175	-0.015902	0.005738	0.721434	0.122149	-0.667215	0.139417	-6.999201	-85.388092	28.333687
62001		8.908036	-1.591855	0.845819	0.422303	-1.456190	-0.851456	0.057533	-0.116334	-0.127131	-1.011475	-0.167969	-0.503418	0.089065	-0.015978	0.008505	0.721082	0.122805	-0.667540	0.139104	-6.249525	-85.463794	27.611730
62002		8.944484	-1.466194	1.034160	0.198906	-1.420914	-0.803557	0.064789	-0.121867	-0.147959	-0.995605	-0.172363	-0.507324	0.089428	-0.014731	0.010391	0.720723	0.123563	-0.667865	0.138735	-5.318425	-85.542941	26.712113
62003		9.456746	-1.187998	1.070469	0.096353	-1.173749	-0.294269	0.143981	-0.084569	-0.163586	-0.998779	-0.170654	-0.503662	0.094553	-0.011965	0.010736	0.720448	0.124631	-0.667991	0.138599	-4.175412	-85.600308	25.645705
62004		10.252971	-0.513602	1.394737	-0.394418	-0.655820	0.519147	0.202197	-0.029054	-0.165921	-1.000488	-0.163086	-0.498535	0.102523	-0.005235	0.013957	0.720324	0.125879	-0.667874	0.138682	-2.926942	-85.624207	24.506878
62005		11.022525	-0.086231	1.413278	-0.512278	-0.256922	1.285618	0.183339	-0.030133	-0.112392	-1.000977	-0.171631	-0.495361	0.110223	-0.000937	0.014149	0.720169	0.126878	-0.667807	0.138894	-2.084315	-85.645849	23.764112
62006		11.410125	0.027946	1.127423	-0.260346	-0.042903	1.650000	0.217791	0.012700	-0.035667	-1.000000	-0.174805	-0.496338	0.114102	0.000247	0.011267	0.720083	0.127718	-0.667609	0.139524	-1.778843	-85.640849	23.580022
62007		11.222708	-0.092113	0.955001	-0.068826	-0.096377	1.450334	0.211831	-0.002615	0.045826	-0.998535	-0.175293	-0.495605	0.112227	-0.000906	0.009551	0.719890	0.128274	-0.667523	0.140420	-2.097511	-85.643136	24.018548
62008		10.837082	-0.928365	0.541794	0.593189	-0.723719	1.037294	0.203605	-0.063624	0.108446	-0.997803	-0.174072	-0.501221	0.108374	-0.009230	0.005443	0.719455	0.128635	-0.667700	0.141472	-2.911116	-85.678359	24.948606
62009		10.656683	-1.948097	0.567667	0.932719	-1.673725	0.864901	0.251429	-0.040687	0.121153	-0.996094	-0.178467	-0.498291	0.106577	-0.019424	0.005674	0.719054	0.129107	-0.667769	0.142745	-3.800865	-85.699025	25.982457
62010		10.607915	-2.775706	0.841317	0.989070	-2.533696	0.842937	0.331057	-0.013776	0.086028	-1.001709	-0.174316	-0.490967	0.106091	-0.027725	0.008375	0.718717	0.129966	-0.667660	0.144174	-4.365374	-85.704721	26.735896
62011		10.504474	-2.962707	0.864587	1.038035	-2.712291	0.743594	0.467789	-0.042234	0.024734	-0.998535	-0.181885	-0.500000	0.105047	-0.029634	0.008599	0.718235	0.131539	-0.667512	0.145822	-4.408582	-85.729112	27.045243
62012		10.594596	-2.280799	0.953017	0.707749	-2.113842	0.835623	0.610749	-0.076556	-0.011054	-0.998535	-0.175293	-0.487061	0.105941	-0.022843	0.009501	0.717567	0.133770	-0.667353	0.147792	-4.111142	-85.774636	27.095003
62013		10.860867	-1.434882	1.157385	0.213356	-1.410379	1.110781	0.668815	-0.059799	-0.012328	-1.003418	-0.186035	-0.490723	0.108604	-0.014394	0.011558	0.716909	0.136197	-0.667085	0.149964	-3.764379	-85.810673	27.128632
62014		10.964892	-0.512021	1.617720	-0.561437	-0.748872	1.243171	0.727885	-0.003905	0.003864	-1.000488	-0.185791	-0.486084	0.109649	-0.005177	0.016161	0.716377	0.138741	-0.666575	0.152425	-3.474209	-85.814153	27.252971
62015		10.842756	0.304945	1.962269	-1.208456	-0.151797	1.142924	0.710375	0.020782	0.037171	-1.004395	-0.193359	-0.477783	0.108429	0.003000	0.019622	0.715903	0.141089	-0.666005	0.154965	-3.448087	-85.802445	27.632090
62016		10.583918	0.900529	1.923638	-1.432843	0.390780	0.879595	0.747560	0.032075	0.061299	-0.997803	-0.195801	-0.485352	0.105840	0.008966	0.019253	0.715414	0.143481	-0.665373	0.157718	-3.575335	-85.783350	28.186281
62017		10.083588	1.406985	1.843086	-1.605316	0.860512	0.372488	0.725888	0.047400	0.079410	-1.000000	-0.197021	-0.479248	0.100835	0.014043	0.018458	0.714966	0.145722	-0.664708	0.160477	-3.848332	-85.754799	28.874610
62018		9.668428	1.502502	1.549983	-1.412578	1.050671	-0.063884	0.702403	0.035993	0.087831	-1.000732	-0.199707	-0.478516	0.096680	0.015013	0.015535	0.714483	0.147857	-0.664099	0.163173	-4.194334	-85.732038	29.622250
62019		9.387793	1.720558	1.417847	-1.411506	1.289555	-0.355100	0.694866	0.052460	0.077939	-0.996338	-0.202637	-0.465820	0.093875	0.017193	0.014214	0.714057	0.149983	-0.663423	0.165823	-4.458253	-85.700114	30.283623
62020		9.233724	1.718915	1.437437	-1.442351	1.270116	-0.507367	0.647344	0.089380	0.070075	-0.997070	-0.205566	-0.475342	0.092338	0.017175	0.014389	0.713790	0.151933	-0.662640	0.168309	-4.654719	-85.647151	30.849733
62021		9.060811	1.818311	1.383640	-1.451404	1.373154	-0.684331	0.597242	0.087192	0.055328	-1.004395	-0.204102	-0.472656	0.090609	0.018167	0.013851	0.713556	0.153757	-0.661891	0.170578	-4.766612	-85.596242	31.302921
62022		8.944561	1.925019	1.271050	-1.409073	1.511492	-0.809558	0.520395	0.067823	0.061095	-1.002197	-0.207764	-0.471680	0.089444	0.019244	0.012730	0.713310	0.155299	-0.661274	0.172592	-4.966871	-85.555792	31.799956
62023		8.881138	2.057009	1.151463	-1.369864	1.680209	-0.883402	0.426683	0.078451	0.072131	-1.003662	-0.210449	-0.475586	0.088808	0.020578	0.011524	0.713155	0.156461	-0.660707	0.174347	-5.291998	-85.508712	32.368688
62024		8.899466	2.154685	1.005589	-1.286156	1.837424	-0.878257	0.313933	0.085617	0.086939	-1.001465	-0.209473	-0.467773	0.088990	0.021570	0.010052	0.713099	0.157165	-0.660219	0.175783	-5.768405	-85.456246	33.024132
62025		8.969921	2.229110	0.992280	-1.305569	1.918516	-0.811142	0.218206	0.075831	0.082102	-1.008301	-0.206055	-0.464355	0.089694	0.022317	0.009913	0.713087	0.157552	-0.659847	0.176881	-6.263220	-85.409315	33.643363
62026		9.121609	2.217490	0.820500	-1.139010	1.999794	-0.674979	0.142712	0.062783	0.062261	-1.001221	-0.213379	-0.470459	0.091212	0.022197	0.008192	0.713109	0.157747	-0.659570	0.177645	-6.657927	-85.370609	34.118505
62027		9.482592	2.144840	0.775101	-1.041195	1.977157	-0.319140	0.072696	0.040430	0.020923	-0.994629	-0.208740	-0.472412	0.094825	0.021456	0.007740	0.713148	0.157848	-0.659404	0.178017	-6.819242	-85.347331	34.319519
62028		9.814828	2.009668	0.766898	-0.947168	1.877358	0.012594	0.001566	0.028491	-0.036905	-0.995117	-0.205566	-0.465820	0.098153	0.020079	0.007655	0.713257	0.157897	-0.659296	0.177935	-6.623467	-85.334615	34.121115
62029		10.041387	1.769400	0.643012	-0.705469	1.728443	0.231639	-0.077192	0.035978	-0.102768	-0.997803	-0.209961	-0.466797	0.100424	0.017645	0.006405	0.713511	0.157874	-0.659180	0.177366	-6.012155	-85.321600	33.460510
62030		10.119207	1.568734	0.565427	-0.528812	1.581436	0.306521	-0.102470	0.040834	-0.167109	-0.994873	-0.217529	-0.467773	0.101206	0.015606	0.005626	0.713858	0.157970	-0.659018	0.176487	-4.966035	-85.308636	32.349095
62031		10.277225	1.373300	0.661313	-0.499367	1.358184	0.475684	-0.148942	0.043365	-0.215344	-1.003174	-0.208496	-0.469971	0.102788	0.013627	0.006581	0.714291	0.158056	-0.658849	0.175285	-3.618257	-85.294345	30.908349
62032		10.479469	1.015227	0.663567	-0.307224	1.030537	0.681779	-0.152429	0.041172	-0.256197	-0.999512	-0.214111	-0.474854	0.104809	0.010023	0.006606	0.714754	0.158266	-0.658657	0.173922	-1.997436	-85.279455	29.191518
62033		10.407138	0.835178	0.758926	-0.297836	0.803145	0.620347	-0.091122	0.041199	-0.288469	-1.004150	-0.219482	-0.467773	0.104085	0.008205	0.007564	0.715196	0.158799	-0.658385	0.172647	-0.132295	-85.260540	27.264688
62034		10.224992	0.770264	0.831207	-0.330244	0.682187	0.446950	-0.079270	0.006836	-0.289994	-1.002686	-0.216553	-0.471680	0.102261	0.007558	0.008306	0.715515	0.159411	-0.658223	0.171377	1.742199	-85.256190	25.335304
62035		10.065788	0.681007	0.711422	-0.182324	0.627574	0.280024	-0.040550	-0.000728	-0.278294	-0.993652	-0.227539	-0.466309	0.100667	0.006671	0.007113	0.715766	0.160129	-0.658062	0.170270	3.554551	-85.251304	23.490529
62036		9.903552	0.641802	0.780678	-0.228115	0.532235	0.125439	0.007556	-0.032833	-0.262653	-0.996582	-0.227295	-0.485352	0.099043	0.006288	0.007823	0.715859	0.160994	-0.657987	0.169351	5.303612	-85.260754	21.736920
62037		9.933567	0.713820	0.688716	-0.170754	0.615334	0.149831	0.074647	-0.064552	-0.237112	-0.992920	-0.233398	-0.477539	0.099342	0.007018	0.006922	0.715771	0.162042	-0.657988	0.168719	6.946251	-85.285471	20.128707
62038		10.003481	0.899937	0.611488	-0.177403	0.796386	0.216654	0.103602	-0.043306	-0.200437	-0.988281	-0.230469	-0.467041	0.100042	0.008896	0.006141	0.715697	0.163055	-0.657918	0.168330	8.347924	-85.297457	18.778968
62039		9.945417	0.959199	0.527459	-0.129363	0.868404	0.154194	0.103365	-0.004239	-0.168310	-0.991455	-0.235107	-0.475586	0.099462	0.009506	0.005282	0.715724	0.163929	-0.657733	0.168087	9.488472	-85.287667	17.691102
62040		9.890409	1.049224	0.528169	-0.168491	0.933768	0.101933	0.106987	0.032050	-0.141076	-0.984619	-0.234375	-0.470703	0.098912	0.010420	0.005271	0.715844	0.164695	-0.657438	0.167982	10.396241	-85.258549	16.838863
62041		9.815336	1.161815	0.660686	-0.335722	0.961908	0.040695	0.092343	0.039844	-0.115448	-0.993652	-0.234375	-0.471680	0.098161	0.011558	0.006593	0.715980	0.165318	-0.657147	0.167928	11.100722	-85.226747	16.182143
62042		9.822175	1.267797	0.696553	-0.408620	1.031901	0.053204	0.098459	0.036024	-0.102809	-0.981689	-0.242188	-0.468750	0.098230	0.012624	0.006954	0.716088	0.165924	-0.656875	0.167936	11.721604	-85.197945	15.612816
62043		9.813653	1.402041	0.742293	-0.505226	1.122828	0.051820	0.088315	0.035339	-0.094615	-0.985840	-0.235596	-0.468506	0.098144	0.013971	0.007412	0.716194	0.166468	-0.656621	0.167939	12.275455	-85.169978	15.104913
62044		9.719900	1.505832	0.804377	-0.608958	1.178479	-0.033558	0.064935	0.051481	-0.086489	-0.991943	-0.239502	-0.481934	0.097208	0.015014	0.008024	0.716366	0.166888	-0.656335	0.167908	12.733197	-85.133653	14.679985
62045		9.602453	1.543551	0.844995	-0.664253	1.185964	-0.145428	0.065883	0.065220	-0.087013	-0.981689	-0.239014	-0.474609	0.096034	0.015391	0.008424	0.716582	0.167301	-0.655998	0.167889	13.166830	-85.089260	14.279752
62046		9.443608	1.543278	0.932877	-0.747040	1.137098	-0.295197	0.072048	0.060613	-0.090928	-0.989014	-0.246338	-0.471436	0.094446	0.015386	0.009306	0.716781	0.167753	-0.655670	0.167873	13.629420	-85.046700	13.853996
62047		9.346277	1.417429	0.769126	-0.545524	1.093418	-0.407349	0.081615	0.044677	-0.090194	-0.982910	-0.231201	-0.475342	0.093471	0.014129	0.007676	0.716919	0.168251	-0.655390	0.167877	14.110478	-85.012752	13.415209
62048		9.316310	1.348744	0.658953	-0.412808	1.076853	-0.446956	0.122600	0.049037	-0.091224	-0.989014	-0.249756	-0.471924	0.093171	0.013441	0.006575	0.717037	0.168895	-0.655060	0.168016	14.608207	-84.975967	12.983206
62049		9.302113	1.250385	0.538153	-0.256377	1.039359	-0.472646	0.151964	0.039262	-0.081685	-0.987793	-0.248047	-0.473877	0.093027	0.012462	0.005373	0.717090	0.169621	-0.654747	0.168276	15.072642	-84.945626	12.601495
62050		9.314050	1.194139	0.447995	-0.146212	1.025889	-0.469007	0.179046	0.018657	-0.067724	-0.984863	-0.260010	-0.480225	0.093145	0.011906	0.004482	0.717040	0.170415	-0.654497	0.168658	15.496252	-84.928577	12.276333
62051		9.300632	1.173661	0.324915	-0.029066	1.059132	-0.492698	0.192148	-0.017744	-0.050502	-0.986816	-0.246094	-0.469727	0.093009	0.011710	0.003269	0.716845	0.171232	-0.654380	0.169113	15.882584	-84.934005	11.996189
62052		9.380009	1.218817	0.144704	0.112398	1.179226	-0.427177	0.196200	-0.038468	-0.035828	-0.979980	-0.247070	-0.465332	0.093802	0.012170	0.001477	0.716565	0.172032	-0.654347	0.169615	16.217612	-84.953082	11.769824
62053		9.371780	1.334957	-0.028813	0.205352	1.358904	-0.446556	0.203324	-0.029134	-0.015518	-0.986572	-0.246826	-0.474854	0.093719	0.013343	-0.000261	0.716292	0.172783	-0.654290	0.170222	16.415208	-84.970166	11.685546
62054		9.366195	1.461038	-0.051962	0.161050	1.478826	-0.450525	0.152903	-0.027138	0.000588	-0.985107	-0.252686	-0.466797	0.093662	0.014611	-0.000496	0.716055	0.173298	-0.654283	0.170723	16.479846	-84.988786	11.705722
62055		9.255443	1.548322	-0.068882	0.120984	1.561810	-0.560046	0.095491	-0.009502	0.018920	-0.982910	-0.250000	-0.473145	0.092553	0.015492	-0.000677	0.715909	0.173534	-0.654277	0.171117	16.364513	-85.000635	11.873550
62056		9.111604	1.610823	-0.006048	0.020606	1.586783	-0.696887	0.061884	-0.002363	0.034106	-0.979980	-0.246826	-0.467041	0.091113	0.016124	-0.000054	0.715803	0.173593	-0.654288	0.171462	16.119705	-85.010991	12.152002
62057		9.029869	1.670757	0.159755	-0.163686	1.563290	-0.763665	0.009159	-0.010931	0.050358	-0.986572	-0.246826	-0.477539	0.090294	0.016730	0.001603	0.715700	0.173418	-0.654388	0.171684	15.757080	-85.028454	12.518399
62058		9.056575	1.709269	0.189176	-0.210647	1.588199	-0.734571	-0.032617	-0.042508	0.065457	-0.993408	-0.244873	-0.468994	0.090560	0.017123	0.001908	0.715517	0.173070	-0.654651	0.171797	15.325786	-85.065487	12.929669
62059		9.114062	1.896944	0.060124	-0.188604	1.819217	-0.684543	-0.050562	-0.072744	0.055758	-0.992432	-0.248047	-0.464111	0.091135	0.018995	0.000630	0.715259	0.172717	-0.655028	0.171790	14.994197	-85.117518	13.230526
62060		9.145632	2.100214	-0.032652	-0.209633	2.043787	-0.656622	-0.055362	-0.110563	0.034617	-0.988037	-0.244873	-0.466553	0.091453	0.021018	-0.000282	0.714899	0.172447	-0.655526	0.171659	14.855980	-85.187293	13.334525
62061		9.187279	2.193677	-0.017712	-0.272163	2.118578	-0.611809	-0.074464	-0.097437	0.007038	-0.982422	-0.250732	-0.464111	0.091872	0.021940	-0.000141	0.714622	0.172190	-0.655970	0.171378	14.866031	-85.245727	13.278817
62062		9.112844	2.237005	0.032638	-0.349825	2.129029	-0.680654	-0.063598	-0.094659	-0.008720	-0.984863	-0.239746	-0.458740	0.091129	0.022366	0.000362	0.714357	0.172019	-0.656380	0.171078	14.982202	-85.300301	13.122807
62063		9.231521	2.221648	0.138456	-0.433413	2.063748	-0.553694	-0.052799	-0.112723	-0.019834	-0.989014	-0.248535	-0.460693	0.092317	0.022208	0.001431	0.714034	0.171941	-0.656836	0.170759	15.219527	-85.363149	12.851524
62064		9.352448	2.208157	0.182815	-0.464802	2.027550	-0.429156	-0.076088	-0.128438	-0.028538	-0.988525	-0.244873	-0.464600	0.093526	0.022069	0.001880	0.713685	0.171819	-0.657361	0.170318	15.537955	-85.433269	12.485449
62065		9.376953	2.220064	0.062763	-0.372321	2.088020	-0.412612	-0.135795	-0.164985	-0.029136	-0.993652	-0.246338	-0.462891	0.093772	0.022187	0.000690	0.713268	0.171519	-0.658065	0.169647	15.913146	-85.523245	12.028221
62066		9.634697	2.242940	0.149031	-0.450048	2.064720	-0.147557	-0.234693	-0.190831	-0.028566	-0.992676	-0.247314	-0.462402	0.096349	0.022417	0.001556	0.712849	0.170885	-0.658945	0.168631	16.295155	-85.627330	11.507319
62067		10.109094	1.922363	0.434215	-0.527612	1.648681	0.340207	-0.321198	-0.179040	-0.030091	-0.996582	-0.239990	-0.460205	0.101090	0.019215	0.004402	0.712542	0.169939	-0.659852	0.167333	16.638021	-85.724396	10.976100
62068		10.708077	1.406396	1.108654	-0.849474	0.883340	0.974716	-0.380894	-0.113792	-0.043074	-0.989258	-0.233154	-0.462402	0.107077	0.014062	0.011121	0.712509	0.168765	-0.660563	0.165848	16.910161	-85.783343	10.481496
62069		11.272025	0.416612	1.499420	-0.706607	-0.169805	1.543026	-0.419097	-0.069802	-0.054701	-0.995605	-0.232666	-0.465088	0.112716	0.004167	0.015025	0.712660	0.167459	-0.661137	0.164230	17.159566	-85.816026	9.987769
62070		11.451597	-0.020305	1.268948	-0.299301	-0.459800	1.695948	-0.319600	-0.147979	-0.120159	-0.992432	-0.229248	-0.456787	0.114506	-0.000251	0.012775	0.712520	0.166785	-0.661850	0.162643	18.152055	-85.879674	8.806191
62071		11.196153	0.571024	0.923293	-0.290868	0.201095	1.430412	-0.236240	-0.222650	-0.169665	-0.986084	-0.233887	-0.460938	0.111956	0.005626	0.009351	0.712102	0.166633	-0.662717	0.161091	19.811278	-85.972502	7.004185
62072		10.712781	0.931494	0.722949	-0.321234	0.584942	0.944106	-0.278675	-0.212239	-0.181191	-0.990234	-0.235596	-0.460205	0.107128	0.009228	0.007330	0.711760	0.166358	-0.663570	0.159367	21.579010	-86.053618	5.069232
62073		10.244474	1.454276	0.662888	-0.545722	1.053906	0.487556	-0.272311	-0.241332	-0.157826	-0.991455	-0.227051	-0.463379	0.102448	0.014471	0.006733	0.711295	0.166053	-0.664538	0.157721	23.346811	-86.150950	3.138106
62074		10.136983	1.834429	0.605598	-0.686017	1.400853	0.388158	-0.343034	-0.281642	-0.096312	-0.990234	-0.232666	-0.453125	0.101370	0.018306	0.006167	0.710702	0.165321	-0.665753	0.156026	24.824319	-86.280119	1.457520
62075		10.461235	1.717063	0.702977	-0.719506	1.241088	0.714510	-0.442011	-0.286273	-0.020205	-0.999023	-0.229736	-0.454102	0.104604	0.017176	0.007142	0.710113	0.163989	-0.667120	0.154266	25.754907	-86.427822	0.268408
62076		10.918362	1.540698	0.687220	-0.622927	1.083219	1.164343	-0.481861	-0.291841	0.018092	-0.995850	-0.236572	-0.456055	0.109172	0.015434	0.006994	0.709502	0.162388	-0.668565	0.152505	26.444251	-86.587090	-0.701694
62077		11.290780	1.495236	0.638178	-0.559529	1.060480	1.531342	-0.508296	-0.226372	0.030872	-1.007813	-0.218994	-0.448242	0.112898	0.014986	0.006472	0.709117	0.160602	-0.669802	0.150751	26.791655	-86.715402	-1.344193
62078		11.300427	1.201143	0.627704	-0.438497	0.800804	1.532039	-0.561516	-0.125519	0.022317	-1.001465	-0.224609	-0.450195	0.112999	0.012042	0.006314	0.709112	0.158577	-0.670709	0.148869	26.746807	-86.789972	-1.624390
62079		11.080880	0.624253	0.862015	-0.425847	0.183363	1.309528	-0.594141	-0.056186	0.000968	-1.000488	-0.216553	-0.455078	0.110806	0.006269	0.008633	0.709376	0.156456	-0.671372	0.146855	26.568094	-86.823455	-1.789157
62080		10.766319	0.069780	1.266721	-0.583294	-0.484094	1.001585	-0.606031	-0.021740	-0.019407	-1.006348	-0.209229	-0.453613	0.107662	0.000726	0.012677	0.709773	0.154333	-0.671900	0.144756	26.405375	-86.834219	-1.976826
62081		10.338543	-0.447890	1.529417	-0.638158	-1.058446	0.574691	-0.578305	-0.019854	-0.029896	-1.009033	-0.213135	-0.456299	0.103383	-0.004450	0.015317	0.710156	0.152342	-0.672386	0.142711	26.353231	-86.841199	-2.259315
62082		9.964492	-0.615962	1.575916	-0.641933	-1.227051	0.199120	-0.498379	-0.060757	-0.031443	-0.994385	-0.206055	-0.460693	0.099639	-0.006136	0.015805	0.710337	0.150667	-0.672955	0.140898	26.547235	-86.868914	-2.742467
62083		9.680758	-0.626132	1.512912	-0.608348	-1.208892	-0.088157	-0.491691	-0.093217	-0.020909	-0.997070	-0.207764	-0.455078	0.096800	-0.006234	0.015190	0.710392	0.149004	-0.673637	0.139119	26.813018	-86.915645	-3.293610
62084		9.495329	-0.852043	1.388497	-0.428729	-1.364439	-0.285376	-0.525293	-0.082881	-0.012779	-1.001221	-0.201172	-0.459473	0.094947	-0.008490	0.013947	0.710495	0.147184	-0.674308	0.137264	26.937260	-86.959303	-3.722305
62085		9.343954	-0.943822	1.338665	-0.367407	-1.426630	-0.441347	-0.468744	-0.042279	-0.011508	-0.997559	-0.201172	-0.466797	0.093436	-0.009412	0.013428	0.710689	0.145534	-0.674792	0.135631	26.893301	-86.982322	-3.950053
62086		9.248996	-0.763492	1.462021	-0.564311	-1.305111	-0.525999	-0.450746	-0.002585	-0.018377	-1.010498	-0.191650	-0.468994	0.092489	-0.007610	0.014639	0.711004	0.143941	-0.675115	0.134065	26.726389	-86.983498	-4.044401
62087		9.041593	-0.693674	1.375941	-0.527879	-1.203240	-0.735333	-0.426310	0.005675	-0.028323	-1.002930	-0.189941	-0.471191	0.090415	-0.006920	0.013772	0.711334	0.142464	-0.675381	0.132549	26.633968	-86.977667	-4.199324
62088		8.992764	-0.582515	1.346694	-0.549312	-1.086524	-0.782713	-0.408179	0.010895	-0.038916	-1.007080	-0.192871	-0.466309	0.089927	-0.005815	0.013474	0.711671	0.141081	-0.675606	0.131062	26.624477	-86.966680	-4.426890
62089		9.039658	-0.748588	1.296043	-0.439943	-1.219211	-0.742103	-0.437627	0.023213	-0.043271	-1.002930	-0.189941	-0.471191	0.090396	-0.007477	0.012966	0.712071	0.139601	-0.675800	0.129466	26.583860	-86.948049	-4.640137
62090		9.243987	-1.004468	1.214283	-0.260001	-1.425575	-0.547976	-0.400855	0.031697	-0.053009	-1.003418	-0.183350	-0.477783	0.092439	-0.010045	0.012148	0.712476	0.138278	-0.675930	0.127967	26.611140	-86.922796	-4.900332
62091		9.265955	-1.077875	1.214124	-0.232873	-1.493873	-0.527864	-0.345035	0.032479	-0.059102	-1.006836	-0.195313	-0.468018	0.092658	-0.010785	0.012145	0.712847	0.137174	-0.676015	0.126633	26.725384	-86.895328	-5.215538
62092		9.311230	-1.193263	0.976058	0.031131	-1.515516	-0.497227	-0.314684	0.007885	-0.056931	-1.006348	-0.184326	-0.464600	0.093109	-0.011944	0.009776	0.713110	0.136185	-0.676168	0.125394	26.946333	-86.881178	-5.620254
62093		9.486854	-1.357801	0.680661	0.372890	-1.564279	-0.340554	-0.292528	0.021171	-0.043083	-1.007568	-0.180908	-0.471680	0.094866	-0.013588	0.006816	0.713394	0.135221	-0.676267	0.124287	26.988203	-86.863575	-5.832800
62094		9.750101	-1.391600	0.524365	0.542789	-1.541825	-0.086222	-0.256527	0.015778	-0.018531	-1.007568	-0.184082	-0.475342	0.097500	-0.013918	0.005254	0.713617	0.134304	-0.676380	0.123386	26.843533	-86.855321	-5.837986
62095		9.974076	-1.471206	0.413059	0.685216	-1.575797	0.130380	-0.233291	0.035430	0.018802	-0.999023	-0.176758	-0.470947	0.099743	-0.014698	0.004130	0.713868	0.133332	-0.676430	0.122709	26.276439	-86.846351	-5.406720
62096		10.012861	-1.520460	0.418940	0.698796	-1.618201	0.169187	-0.194046	0.066706	0.054960	-1.001221	-0.178711	-0.478760	0.100134	-0.015173	0.004171	0.714174	0.132358	-0.676370	0.122316	25.254413	-86.830128	-4.497360
62097		10.069108	-1.535797	0.369271	0.751234	-1.605862	0.224185	-0.171973	0.014737	0.099310	-1.000488	-0.172607	-0.481445	0.100699	-0.015305	0.003698	0.714263	0.131345	-0.676508	0.122120	24.059178	-86.850409	-3.401810
62098		10.273118	-1.664738	0.311545	0.854725	-1.694493	0.424670	-0.168050	0.000148	0.141988	-1.009766	-0.171143	-0.479492	0.102743	-0.016572	0.003129	0.714272	0.130209	-0.676725	0.122081	22.495141	-86.886763	-1.934738
62099		10.525430	-1.517255	0.226382	0.889759	-1.510830	0.678437	-0.121207	0.039238	0.163410	-1.009521	-0.176270	-0.482178	0.105267	-0.015085	0.002252	0.714370	0.129146	-0.676786	0.122302	20.565224	-86.904160	-0.074357
62100		10.614073	-1.334085	0.272333	0.784652	-1.333951	0.775860	-0.141040	0.091062	0.206306	-1.004883	-0.160156	-0.479248	0.106156	-0.013229	0.002684	0.714628	0.127833	-0.676701	0.122643	17.997786	-86.897838	2.413036
62101		10.544692	-1.272489	0.251027	0.776728	-1.243011	0.709876	-0.177913	0.075916	0.241078	-1.005615	-0.169189	-0.476807	0.105463	-0.012596	0.002481	0.714836	0.126280	-0.676713	0.122972	15.114371	-86.898985	5.195775
62102		10.430922	-1.280786	0.187347	0.828564	-1.202191	0.596338	-0.183401	0.070083	0.242917	-1.010010	-0.174561	-0.486328	0.104325	-0.012679	0.001849	0.715024	0.124705	-0.676750	0.123287	12.224971	-86.896183	7.981304
62103		10.287094	-1.312513	0.138459	0.872388	-1.190482	0.453169	-0.157847	0.053011	0.229443	-1.006592	-0.160889	-0.488281	0.102886	-0.013006	0.001368	0.715145	0.123277	-0.676820	0.123628	9.533537	-86.894073	10.583317
62104		10.113945	-1.356749	0.045430	0.960445	-1.178956	0.278016	-0.162244	0.052448	0.199324	-1.006836	-0.157715	-0.486328	0.101153	-0.013466	0.000439	0.715284	0.121935	-0.676877	0.123846	7.162571	-86.883671	12.861812
62105		9.991440	-1.455850	-0.005015	1.032073	-1.236483	0.154976	-0.145844	0.071841	0.168699	-1.008301	-0.148438	-0.490723	0.099927	-0.014474	-0.000075	0.715497	0.120743	-0.676833	0.124022	5.122321	-86.855486	14.818574
62106		9.913314	-1.492902	0.047282	0.991624	-1.272799	0.081827	-0.106488	0.093103	0.135955	-1.006348	-0.149414	-0.488037	0.099143	-0.014861	0.000435	0.715777	0.119789	-0.676669	0.124227	3.465350	-86.810419	16.414098
62107		9.817655	-1.476272	0.109674	0.925528	-1.264091	-0.008443	-0.077332	0.110589	0.117664	-1.004883	-0.150635	-0.489746	0.098186	-0.014705	0.001048	0.716110	0.118990	-0.676413	0.124475	2.050783	-86.752407	17.783662
62108		9.726508	-1.514199	0.246061	0.811295	-1.332578	-0.090326	-0.033925	0.129983	0.104609	-1.006836	-0.143066	-0.495605	0.097275	-0.015091	0.002400	0.716489	0.118379	-0.676052	0.124835	0.836514	-86.681437	18.977583
62109		9.628240	-1.470970	0.305922	0.743139	-1.299750	-0.183631	0.009403	0.136982	0.091953	-1.001709	-0.135742	-0.498535	0.096291	-0.014666	0.002993	0.716875	0.117961	-0.675630	0.125300	-0.179604	-86.605020	19.997990
62110		9.567377	-1.481658	0.428590	0.636973	-1.339157	-0.235913	0.046485	0.127423	0.087306	-1.001465	-0.147217	-0.499756	0.095683	-0.014776	0.004222	0.717208	0.117698	-0.675217	0.125868	-1.087582	-86.533196	20.931405
62111		9.508820	-1.472694	0.433088	0.635424	-1.320755	-0.292925	0.070442	0.128942	0.081607	-1.005127	-0.145752	-0.497803	0.095097	-0.014690	0.004264	0.717535	0.117539	-0.674779	0.126497	-1.891512	-86.459687	21.774413
62112		9.363720	-1.390379	0.458294	0.585888	-1.243131	-0.435387	0.094949	0.147620	0.068100	-1.006348	-0.134766	-0.496094	0.093645	-0.013874	0.004507	0.717919	0.117501	-0.674250	0.127171	-2.517656	-86.375219	22.453416
62113		9.263113	-1.319011	0.513173	0.515707	-1.186209	-0.531775	0.112619	0.140899	0.054993	-1.003662	-0.145996	-0.500244	0.092638	-0.013167	0.005059	0.718278	0.117575	-0.673725	0.127854	-2.992199	-86.294485	22.990724
62114		9.267673	-1.289630	0.552228	0.480051	-1.162676	-0.524223	0.114038	0.118960	0.040249	-1.003662	-0.146484	-0.502441	0.092683	-0.012881	0.005460	0.718571	0.117718	-0.673270	0.128475	-3.327323	-86.226598	23.389165
62115		9.265656	-1.259606	0.498994	0.529588	-1.108718	-0.529463	0.108551	0.116982	0.027766	-1.009277	-0.141602	-0.498779	0.092661	-0.012586	0.004929	0.718868	0.117884	-0.672817	0.129033	-3.548379	-86.160073	23.670176
62116		9.226426	-1.327944	0.561092	0.503483	-1.188432	-0.563941	0.108759	0.132734	0.017634	-0.999512	-0.150635	-0.501953	0.092269	-0.013274	0.005542	0.719223	0.118075	-0.672301	0.129563	-3.666379	-86.084925	23.848026
62117		9.201159	-1.351737	0.682452	0.409548	-1.247012	-0.580598	0.097721	0.156777	0.000423	-1.000732	-0.143066	-0.501221	0.092017	-0.013520	0.006746	0.719677	0.118268	-0.671695	0.130009	-3.632754	-85.996576	23.867569
62118		9.003797	-1.338392	0.633642	0.452779	-1.218218	-0.780962	0.127185	0.159509	-0.017417	-1.007568	-0.140869	-0.496094	0.090042	-0.013396	0.006256	0.720134	0.118626	-0.671050	0.130491	-3.437429	-85.907369	23.741933
62119		8.733350	-1.287713	0.646323	0.419371	-1.180025	-1.050325	0.158227	0.117270	-0.034468	-0.990967	-0.142822	-0.500488	0.087335	-0.012897	0.006402	0.720441	0.119179	-0.670525	0.130991	-3.117874	-85.842772	23.509552
62120		8.745396	-1.375355	0.420747	0.671171	-1.182816	-1.054774	0.200869	0.045925	-0.030402	-1.000244	-0.147217	-0.505127	0.087453	-0.013771	0.004174	0.720479	0.119919	-0.670231	0.131605	-2.840343	-85.818861	23.343801
62121		8.969737	-1.303851	0.403940	0.682740	-1.103486	-0.832957	0.218294	0.023932	-0.020552	-1.006104	-0.147217	-0.502686	0.089697	-0.013052	0.004014	0.720427	0.120703	-0.670009	0.132301	-2.642134	-85.807144	23.267579
62122		9.145301	-1.317974	0.463796	0.649443	-1.132156	-0.653804	0.179274	0.050081	-0.018777	-1.005615	-0.141602	-0.508789	0.091453	-0.013192	0.004603	0.720483	0.121324	-0.669721	0.132887	-2.469872	-85.780469	23.194967
62123		9.204069	-1.235383	0.635485	0.470852	-1.112819	-0.583125	0.176169	0.054585	-0.017107	-1.006104	-0.148193	-0.501709	0.092041	-0.012367	0.006319	0.720555	0.121924	-0.669418	0.133472	-2.314706	-85.751094	23.137688
62124		9.134853	-1.299618	0.437377	0.678858	-1.104721	-0.666946	0.152623	0.013601	-0.028976	-0.999023	-0.146973	-0.507813	0.091347	-0.013013	0.004358	0.720511	0.122507	-0.669271	0.133910	-2.092964	-85.745498	23.000144
62125		9.181753	-1.420165	0.262516	0.890464	-1.155511	-0.633241	0.146451	-0.013106	-0.038793	-0.999268	-0.152832	-0.496826	0.091815	-0.014221	0.002621	0.720389	0.123117	-0.669218	0.134276	-1.809036	-85.755277	22.796673
62126		9.323495	-1.370337	0.194213	0.947515	-1.083103	-0.497527	0.129814	-0.007109	-0.042005	-1.001221	-0.152100	-0.504395	0.093232	-0.013724	0.001937	0.720298	0.123675	-0.669152	0.134578	-1.504771	-85.761660	22.563276
62127		9.312381	-1.424096	0.348477	0.824770	-1.191413	-0.497634	0.095221	0.007482	-0.044572	-0.998047	-0.159912	-0.499512	0.093121	-0.014263	0.003474	0.720279	0.124106	-0.669055	0.134765	-1.200280	-85.759575	22.309753
62128		9.215986	-1.587858	0.505494	0.734353	-1.406585	-0.582657	0.103217	0.009334	-0.062032	-0.995117	-0.152344	-0.494873	0.092155	-0.015910	0.005042	0.720272	0.124624	-0.668935	0.134916	-0.753429	-85.756529	21.918098
62129		9.242537	-1.701709	0.521412	0.765389	-1.523073	-0.555982	0.106625	-0.020010	-0.081037	-1.005127	-0.159424	-0.502197	0.092418	-0.017057	0.005214	0.720178	0.125236	-0.668907	0.134992	-0.162775	-85.770075	21.384177
62130		9.358129	-1.735515	0.337354	0.958065	-1.492967	-0.455682	0.120347	-0.045229	-0.101850	-0.996826	-0.162598	-0.495361	0.093572	-0.017405	0.003384	0.720005	0.125986	-0.668947	0.135023	0.606455	-85.797598	20.679123
62131		9.490177	-1.575867	0.440963	0.814893	-1.387816	-0.317891	0.110516	-0.018637	-0.116481	-1.003418	-0.153809	-0.502686	0.094892	-0.015816	0.004410	0.719936	0.126730	-0.668888	0.134986	1.485161	-85.808953	19.858629
62132		9.521986	-1.417783	0.571300	0.641469	-1.297737	-0.278061	0.072435	-0.022772	-0.128962	-1.001465	-0.161133	-0.495361	0.095210	-0.014241	0.005719	0.719886	0.127383	-0.668861	0.134772	2.449511	-85.821491	18.930436
62133		9.731549	-1.275980	0.493836	0.679536	-1.144182	-0.075948	0.091799	-0.012888	-0.136958	-0.997070	-0.162109	-0.489258	0.097306	-0.012829	0.004939	0.719861	0.128123	-0.668780	0.134602	3.484064	-85.826935	17.942906
62134		10.018721	-0.793359	0.830128	0.219183	-0.821373	0.235724	0.126830	0.076831	-0.126967	-0.994873	-0.156738	-0.502441	0.100185	-0.008002	0.008258	0.720107	0.128897	-0.668359	0.134641	4.413255	-85.780269	17.081203
62135		10.558341	-0.376855	1.109097	-0.143033	-0.532340	0.796121	0.117439	0.061005	-0.103420	-0.991455	-0.156982	-0.498047	0.105585	-0.003830	0.011057	0.720289	0.129568	-0.668016	0.134725	5.143483	-85.742848	16.413496
62136		10.841680	-0.556879	0.808962	0.230336	-0.589908	1.054948	0.110026	0.046009	-0.066708	-0.999756	-0.162354	-0.503418	0.108417	-0.005609	0.008062	0.720401	0.130101	-0.667755	0.134905	5.594086	-85.715447	16.021974
62137		10.676897	-0.838984	0.695409	0.437908	-0.815880	0.879654	0.135815	0.109060	-0.047014	-0.996094	-0.166016	-0.487549	0.106771	-0.008420	0.006890	0.720693	0.130617	-0.667262	0.135285	5.851983	-85.653042	15.838423
62138		10.515195	-1.015800	1.093556	0.137318	-1.128997	0.746836	0.118689	0.144264	-0.034420	-0.991699	-0.172852	-0.495361	0.105158	-0.010183	0.010854	0.721105	0.131007	-0.666662	0.135674	5.978257	-85.571274	15.777102
62139		10.680502	-1.005084	1.479271	-0.195056	-1.254461	0.941838	0.161248	0.149145	-0.005308	-0.993652	-0.170654	-0.497070	0.106816	-0.010066	0.014705	0.721484	0.131448	-0.666033	0.136315	5.906692	-85.488450	15.938648
62140		11.006097	-1.093055	1.577333	-0.213228	-1.360371	1.274279	0.244802	0.112526	0.021788	-0.989502	-0.174072	-0.493896	0.110071	-0.010938	0.015698	0.721667	0.132127	-0.665497	0.137306	5.724787	-85.428045	16.258950
62141		11.073737	-1.364078	1.199081	0.254681	-1.463132	1.310285	0.301500	0.068383	0.038065	-1.001465	-0.174561	-0.503662	0.110744	-0.013638	0.011932	0.721654	0.132985	-0.665090	0.138516	5.491725	-85.393613	16.663133
62142		10.923388	-1.674208	0.868336	0.675679	-1.622234	1.132137	0.324748	0.075395	0.046119	-0.990723	-0.179932	-0.505615	0.109241	-0.016731	0.008615	0.721640	0.133896	-0.664645	0.139836	5.220418	-85.355489	17.119122
62143		10.672858	-1.795854	1.081728	0.519251	-1.812451	0.899478	0.354085	0.116897	0.052567	-0.990967	-0.179688	-0.489990	0.106740	-0.017950	0.010723	0.721738	0.134860	-0.664033	0.141305	4.897457	-85.293785	17.643754
62144		10.567565	-1.734107	1.405459	0.206902	-1.872371	0.822502	0.434104	0.130013	0.054588	-0.991211	-0.174072	-0.497803	0.105689	-0.017343	0.013948	0.721822	0.136099	-0.663315	0.143054	4.615161	-85.224494	18.173715
62145		10.681937	-1.304217	1.657806	-0.162301	-1.563301	0.961485	0.583881	0.130833	0.047598	-0.989014	-0.181152	-0.496582	0.106833	-0.013065	0.016470	0.721806	0.137897	-0.662477	0.145276	4.471008	-85.154231	18.651175
62146		10.754238	-0.531029	1.848605	-0.614358	-0.921143	1.055937	0.705757	0.144917	0.055101	-0.988281	-0.188477	-0.493408	0.107557	-0.005346	0.018389	0.721739	0.140101	-0.661498	0.147935	4.353747	-85.076187	19.171825
62147		10.723979	0.132563	1.966403	-0.970258	-0.358875	1.041705	0.761596	0.165462	0.065152	-0.986816	-0.193115	-0.499268	0.107256	0.001286	0.019580	0.721683	0.142454	-0.660402	0.150829	4.197939	-84.986678	19.763331
62148		10.473236	0.760434	1.972228	-1.235316	0.206032	0.798069	0.770982	0.179106	0.089435	-0.987549	-0.192871	-0.499268	0.104747	0.007575	0.019658	0.721637	0.144750	-0.659256	0.153847	3.904643	-84.890205	20.498362
62149		10.039082	1.166032	1.853032	-1.319427	0.612699	0.358853	0.765423	0.184871	0.108989	-0.983643	-0.193359	-0.487793	0.100402	0.011644	0.018482	0.721587	0.146953	-0.658097	0.156922	3.497673	-84.790657	21.344422
62150		9.630596	1.475886	1.891982	-1.511456	0.866896	-0.041802	0.735120	0.187195	0.136638	-0.979736	-0.192871	-0.494141	0.096314	0.014755	0.018884	0.721535	0.148954	-0.656964	0.159993	2.930770	-84.690135	22.333813
62151		9.163151	1.634240	1.963800	-1.678424	0.967603	-0.499406	0.654911	0.186985	0.159736	-0.979736	-0.197754	-0.496338	0.091637	0.016351	0.019606	0.721513	0.150585	-0.655905	0.162885	2.203132	-84.589222	23.438649
62152		8.848031	1.734947	1.846472	-1.641992	1.102503	-0.824056	0.624565	0.147020	0.174149	-0.983887	-0.196045	-0.489502	0.088479	0.017369	0.018454	0.721363	0.152093	-0.655017	0.165694	1.416131	-84.510192	24.585814
62153		8.676739	1.928812	1.725774	-1.637270	1.327264	-1.006887	0.587155	0.089078	0.175437	-0.986572	-0.202393	-0.489990	0.086758	0.019314	0.017276	0.721044	0.153506	-0.654364	0.168342	0.626592	-84.462743	25.714114
62154		8.690083	2.092471	1.550592	-1.558831	1.556472	-1.012247	0.494900	0.084855	0.164558	-0.983643	-0.203125	-0.491455	0.086890	0.020958	0.015521	0.720785	0.154627	-0.653790	0.170642	-0.131367	-84.416367	26.757669
62155		8.718474	2.143826	1.363825	-1.417904	1.693883	-1.004276	0.372783	0.109345	0.147107	-0.981934	-0.206299	-0.484131	0.087176	0.021477	0.013631	0.720711	0.155341	-0.653214	0.172501	-0.843473	-84.354612	27.685031
62156		8.816841	2.262442	1.327557	-1.431506	1.829246	-0.911992	0.254035	0.128343	0.111242	-0.972168	-0.196045	-0.494385	0.088164	0.022657	0.013248	0.720819	0.155729	-0.652643	0.173854	-1.393815	-84.281523	28.381475
62157		8.921506	2.580641	1.320288	-1.558012	2.129325	-0.810760	0.174378	0.124098	0.070889	-0.980469	-0.204346	-0.493652	0.089214	0.025827	0.013170	0.721011	0.155963	-0.652123	0.174800	-1.749527	-84.210762	28.836549
62158		9.164186	2.718360	1.226932	-1.512081	2.312490	-0.579966	0.069823	0.105378	0.022477	-0.987061	-0.208252	-0.487793	0.091645	0.027190	0.012231	0.721263	0.155997	-0.651724	0.175214	-1.885485	-84.151604	29.010539
62159		9.491522	2.750811	1.045679	-1.331297	2.442884	-0.272804	-0.001990	0.060753	-0.035068	-0.976318	-0.204590	-0.493652	0.094923	0.027492	0.010428	0.721478	0.155996	-0.651503	0.175153	-1.750533	-84.118849	28.870908
62160		9.685335	2.629040	0.830787	-1.060322	2.439713	-0.100258	-0.062061	0.048897	-0.101373	-0.978027	-0.201660	-0.491943	0.096869	0.026244	0.008276	0.721758	0.156007	-0.651327	0.174646	-1.283959	-84.094013	28.363222
62161		9.785400	2.296706	0.754338	-0.820703	2.176780	-0.005242	-0.136233	0.048464	-0.166409	-0.979248	-0.203125	-0.489746	0.097875	0.022891	0.007504	0.722151	0.155960	-0.651164	0.173664	-0.507153	-84.069227	27.500891
62162		9.976135	1.861646	0.839785	-0.667218	1.747681	0.197040	-0.171577	0.030902	-0.228551	-0.970215	-0.209473	-0.495605	0.099784	0.018510	0.008367	0.722567	0.156005	-0.651048	0.172327	0.586708	-84.053242	26.299405
62163		10.315706	1.426253	0.872301	-0.452267	1.342344	0.541171	-0.188065	0.017799	-0.277887	-0.981689	-0.212402	-0.497070	0.103178	0.014127	0.008700	0.722994	0.156160	-0.650951	0.170749	1.935875	-84.041295	24.831725
62164		10.419258	0.974666	0.716510	-0.084521	0.990354	0.629356	-0.141191	0.022544	-0.310840	-0.978271	-0.213379	-0.490723	0.104208	0.009590	0.007147	0.723426	0.156589	-0.650772	0.169207	3.485455	-84.022087	23.189478
62165		10.290324	0.801214	0.704170	0.008973	0.809476	0.501049	-0.095156	0.024518	-0.327826	-0.987061	-0.215820	-0.505615	0.102917	0.007847	0.007025	0.723841	0.157237	-0.650529	0.167754	5.139746	-83.996072	21.468435
62166		10.135377	0.606730	0.647830	0.146839	0.628062	0.341010	-0.066764	0.008772	-0.312659	-0.977295	-0.216309	-0.496338	0.101363	0.005911	0.006472	0.724168	0.157951	-0.650332	0.166436	6.724121	-83.975040	19.833941
62167		9.983804	0.582604	0.685111	0.121531	0.558447	0.195232	0.028562	-0.026834	-0.283483	-0.972412	-0.219482	-0.501465	0.099845	0.005684	0.006865	0.724278	0.158945	-0.650204	0.165505	8.220563	-83.971639	18.342743
62168		9.968337	0.696589	0.702766	0.060323	0.627108	0.184807	0.081282	-0.062477	-0.241555	-0.977051	-0.224854	-0.498535	0.099689	0.006843	0.007062	0.724194	0.160023	-0.650196	0.164868	9.553920	-83.988436	17.045936
62169		10.040565	0.666598	0.547284	0.221247	0.648998	0.241497	0.117555	-0.089236	-0.197592	-0.965332	-0.228516	-0.492920	0.100410	0.006564	0.005522	0.723957	0.161110	-0.650287	0.164487	10.704846	-84.021634	15.953524
62170		10.018705	0.898278	0.545324	0.117086	0.836895	0.225470	0.172289	-0.058247	-0.156895	-0.975098	-0.222168	-0.493164	0.100192	0.008899	0.005490	0.723742	0.162238	-0.650254	0.164455	11.647150	-84.040010	15.102449
62171		10.028848	1.102374	0.608237	-0.027424	0.977072	0.247508	0.168878	0.002565	-0.117493	-0.972168	-0.227783	-0.492188	0.100295	0.010960	0.006090	0.723695	0.163176	-0.650035	0.164605	12.308526	-84.027597	14.531895
62172		9.885748	1.245687	0.772902	-0.248807	1.017814	0.126089	0.147036	0.018869	-0.083971	-0.968750	-0.231934	-0.493896	0.098863	0.012410	0.007729	0.723689	0.163912	-0.649801	0.164817	12.757747	-84.009807	14.162035
62173		9.870570	1.409737	0.957602	-0.484589	1.074489	0.134330	0.143402	0.033341	-0.053251	-0.970947	-0.223389	-0.498291	0.098711	0.014064	0.009570	0.723709	0.164523	-0.649543	0.165142	13.020718	-83.987475	13.977369
62174		9.711230	1.437914	1.120549	-0.653528	1.018233	-0.006194	0.127685	0.055545	-0.047514	-0.972412	-0.229492	-0.475342	0.097119	0.014349	0.011188	0.723808	0.165040	-0.649222	0.165453	13.216394	-83.953567	13.851283
62175		9.626744	1.505548	1.230584	-0.785012	1.023772	-0.076627	0.118860	0.056158	-0.044964	-0.975830	-0.242432	-0.492920	0.096274	0.015027	0.012288	0.723914	0.165516	-0.648908	0.165746	13.390213	-83.919473	13.742105
62176		9.466640	1.464231	1.232649	-0.779281	0.979490	-0.235945	0.122259	0.057663	-0.045356	-0.970703	-0.233154	-0.493164	0.094673	0.014613	0.012308	0.724022	0.166005	-0.648585	0.166050	13.565469	-83.884591	13.633413
62177		9.410142	1.403324	1.221311	-0.741576	0.926514	-0.294109	0.142395	0.068779	-0.047989	-0.969238	-0.240234	-0.495117	0.094109	0.014002	0.012191	0.724151	0.166566	-0.648202	0.166418	13.749639	-83.842964	13.527405
62178		9.353665	1.377736	1.290905	-0.791210	0.867518	-0.342892	0.158045	0.063042	-0.051976	-0.973145	-0.239014	-0.500244	0.093544	0.013743	0.012890	0.724251	0.167201	-0.647824	0.166818	13.969072	-83.804105	13.394885
62179		9.250048	1.323739	1.306233	-0.784919	0.806104	-0.444869	0.159445	0.060652	-0.059677	-0.968506	-0.238037	-0.496826	0.092508	0.013199	0.013045	0.724349	0.167868	-0.647445	0.167192	14.228918	-83.765264	13.222545
62180		9.155492	1.331622	1.213681	-0.710784	0.849019	-0.547525	0.155141	0.062558	-0.065328	-0.969238	-0.243408	-0.486328	0.091563	0.013277	0.012118	0.724460	0.168536	-0.647059	0.167533	14.510100	-83.724649	13.026213
62181		9.113214	1.393832	1.045447	-0.589714	0.975958	-0.604749	0.182448	0.058062	-0.070274	-0.971191	-0.237061	-0.489014	0.091140	0.013897	0.010441	0.724538	0.169323	-0.646661	0.167942	14.834241	-83.685521	12.802447
62182		9.071812	1.550332	0.967309	-0.592900	1.143776	-0.648779	0.178849	0.035152	-0.079852	-0.963623	-0.243164	-0.488770	0.090726	0.015458	0.009671	0.724551	0.170146	-0.646341	0.168283	15.231664	-83.657669	12.502801
62183		9.090217	1.635352	0.828857	-0.506257	1.276390	-0.641649	0.181904	-0.000366	-0.075362	-0.963623	-0.247559	-0.488281	0.090908	0.016312	0.008304	0.724444	0.170996	-0.646149	0.168621	15.654514	-83.649701	12.179373
62184		9.098458	1.668545	0.635760	-0.351764	1.387574	-0.651843	0.170427	-0.030332	-0.074589	-0.971924	-0.246338	-0.494141	0.090990	0.016646	0.006386	0.724247	0.171827	-0.646076	0.168899	16.108773	-83.658274	11.817675
62185		9.000369	1.706385	0.364016	-0.143756	1.537440	-0.775735	0.151426	-0.038450	-0.069026	-0.971436	-0.256836	-0.493652	0.090009	0.017030	0.003670	0.724036	0.172579	-0.646053	0.169128	16.537770	-83.671708	11.470512
62186		8.874867	1.792093	0.210019	-0.065971	1.674787	-0.912704	0.134792	-0.056983	-0.059262	-0.974854	-0.250488	-0.487549	0.088753	0.017893	0.002138	0.723770	0.173253	-0.646119	0.169323	16.938219	-83.696835	11.142432
62187		8.919150	1.871825	0.175872	-0.074122	1.755053	-0.868405	0.077287	-0.081266	-0.041050	-0.969727	-0.246582	-0.498535	0.089195	0.018699	0.001802	0.723460	0.173682	-0.646337	0.169376	17.255931	-83.737917	10.864547
