// General information: 
//  MT Manager version: 2021.4.0 
//  XDA version: 2021.4.0 build 6323 rev 112641 built on 2021-09-28
// Device information: 
//  DeviceId: 00B47793
//  ProductCode: MTW2-3A7G6
//  Firmware Version: 4.6.0
//  Hardware Version: 2.0.0
// Device settings: 
//  Filter Profile: human(46.1)
//  Option Flags: Orientation Smoother Disabled, Position/Velocity Smoother Disabled, Continuous Zero Rotation Update Disabled, AHS Disabled, ICC Disabled
// Coordinate system: ENU
PacketCounter	SampleTimeFine	Acc_X	Acc_Y	Acc_Z	FreeAcc_E	FreeAcc_N	FreeAcc_U	Gyr_X	Gyr_Y	Gyr_Z	Mag_X	Mag_Y	Mag_Z	VelInc_X	VelInc_Y	VelInc_Z	Quat_q0	Quat_q1	Quat_q2	Quat_q3	Roll	Pitch	Yaw
57358		4.622982	-3.458565	7.753395	0.020480	0.147398	-0.146943	0.030527	-0.006524	-0.026434	-0.727051	0.603027	-0.623047	0.046223	-0.034604	0.077530	0.300751	-0.302143	0.091532	-0.899934	-23.400371	-29.259179	-136.852986
57359		4.632777	-3.554775	7.756501	-0.032222	0.222293	-0.106405	0.037049	-0.005070	-0.037074	-0.736572	0.614502	-0.625977	0.046319	-0.035571	0.077560	0.300670	-0.302117	0.091328	-0.899990	-23.372277	-29.267303	-136.870290
57360		4.814591	-3.486986	7.756813	-0.117322	0.064045	-0.040807	0.050443	0.001957	-0.048571	-0.735596	0.606201	-0.627930	0.048138	-0.034901	0.077559	0.300553	-0.302045	0.091059	-0.900081	-23.332360	-29.274442	-136.896363
57361		4.684025	-3.441310	7.871332	0.053036	0.112520	-0.028768	0.054453	0.008031	-0.053367	-0.732666	0.605957	-0.622070	0.046834	-0.034447	0.078702	0.300413	-0.301941	0.090774	-0.900191	-23.287846	-29.279416	-136.927602
57362		4.819425	-3.316809	7.857719	0.015213	-0.063135	-0.016382	0.049653	0.012155	-0.055252	-0.737549	0.613281	-0.614014	0.048190	-0.033201	0.078566	0.300261	-0.301827	0.090514	-0.900306	-23.245104	-29.282665	-136.960368
57363		4.732438	-3.305907	7.866745	0.077452	-0.015327	-0.055411	0.044065	0.015888	-0.050659	-0.731934	0.609619	-0.621826	0.047322	-0.033088	0.078656	0.300114	-0.301704	0.090293	-0.900419	-23.206523	-29.282967	-136.991884
57364		4.802781	-3.215658	7.927359	0.108669	-0.124736	-0.003365	0.037997	0.022309	-0.049608	-0.732422	0.603516	-0.616943	0.048029	-0.032184	0.079262	0.299964	-0.301559	0.090108	-0.900535	-23.170840	-29.279556	-137.023873
57365		4.796462	-3.240428	7.959118	0.115936	-0.097582	0.027587	0.025842	0.021499	-0.042150	-0.734863	0.597168	-0.629639	0.047966	-0.032425	0.079582	0.299829	-0.301434	0.089989	-0.900634	-23.144463	-29.274895	-137.051309
57366		4.731069	-3.182683	7.960898	0.183800	-0.102879	-0.022692	0.022055	0.016816	-0.040050	-0.733643	0.609131	-0.627197	0.047311	-0.031845	0.079601	0.299701	-0.301334	0.089883	-0.900721	-23.121437	-29.272200	-137.076102
57367		4.900305	-3.218518	7.978230	0.066614	-0.172808	0.086288	0.005211	0.011244	-0.028661	-0.729004	0.597168	-0.631348	0.049003	-0.032194	0.079779	0.299595	-0.301277	0.089862	-0.900777	-23.111953	-29.269813	-137.093560
57368		4.724650	-3.274603	7.946285	0.131316	-0.023647	-0.006007	-0.000394	0.014959	-0.024048	-0.737305	0.607910	-0.624268	0.047249	-0.032752	0.079459	0.299506	-0.301212	0.089878	-0.900827	-23.106752	-29.264489	-137.108204
57369		4.865616	-3.346310	7.883115	-0.032032	-0.050805	0.036774	-0.005990	0.007070	-0.026121	-0.736328	0.606689	-0.624268	0.048655	-0.033467	0.078830	0.299398	-0.301190	0.089905	-0.900868	-23.104981	-29.263722	-137.122802
57370		4.855284	-3.380746	7.946705	-0.004409	-0.015965	0.094536	-0.009341	0.008209	-0.021571	-0.737793	0.609131	-0.624512	0.048552	-0.033809	0.079467	0.299309	-0.301168	0.089955	-0.900900	-23.106490	-29.261398	-137.134209
57371		4.788675	-3.350611	7.942694	0.050335	-0.001080	0.048441	-0.010632	0.007436	-0.026441	-0.731445	0.604492	-0.625732	0.047885	-0.033508	0.079427	0.299194	-0.301152	0.090003	-0.900938	-23.107406	-29.260599	-137.148801
57372		4.925577	-3.472833	8.028998	-0.044858	0.017585	0.226454	-0.014103	0.005830	-0.034371	-0.738525	0.610840	-0.625244	0.049252	-0.034731	0.080291	0.299042	-0.301154	0.090052	-0.900983	-23.108164	-29.262407	-137.167327
57373		4.854945	-3.602443	7.804274	-0.196715	0.160340	0.055969	-0.000337	0.008492	-0.034988	-0.736084	0.604736	-0.620850	0.048546	-0.036033	0.078041	0.298908	-0.301122	0.090041	-0.901039	-23.100509	-29.262918	-137.186754
57374		4.860237	-3.461964	7.863117	-0.097615	0.046356	0.057674	0.001826	0.006256	-0.039737	-0.733887	0.604980	-0.620605	0.048598	-0.034630	0.078629	0.298756	-0.301100	0.090010	-0.901100	-23.090500	-29.265704	-137.208633
57375		4.673924	-3.642648	7.844240	-0.078193	0.304061	0.013196	0.016085	0.008275	-0.048845	-0.739502	0.607910	-0.625488	0.046734	-0.036444	0.078438	0.298578	-0.301051	0.089906	-0.901186	-23.069400	-29.269515	-137.237160
57376		4.885012	-3.583223	7.882071	-0.163658	0.135482	0.126363	0.024458	0.001360	-0.062032	-0.737061	0.603027	-0.624512	0.048840	-0.035857	0.078816	0.298362	-0.301027	0.089732	-0.901283	-23.040445	-29.279871	-137.271258
57377		4.679095	-3.542672	7.896498	-0.005339	0.229685	0.023285	0.032089	0.002249	-0.065169	-0.729248	0.606445	-0.620361	0.046780	-0.035455	0.078959	0.298135	-0.300989	0.089523	-0.901392	-23.006049	-29.290474	-137.308321
57378		4.577922	-3.553085	7.880870	0.043943	0.302822	-0.035353	0.017119	-0.007667	-0.080386	-0.738525	0.604492	-0.627686	0.045762	-0.035556	0.078807	0.297829	-0.301024	0.089341	-0.901499	-22.976976	-29.309665	-137.351225
57379		4.776314	-3.554118	7.853108	-0.101035	0.192085	0.039679	0.030378	-0.010458	-0.088163	-0.740723	0.603760	-0.621338	0.047743	-0.035574	0.078528	0.297515	-0.301057	0.089083	-0.901617	-22.938379	-29.331995	-137.397387
57380		4.668689	-3.417248	8.000796	0.121589	0.154912	0.058898	0.026398	-0.019592	-0.091209	-0.731201	0.603760	-0.621826	0.046663	-0.034204	0.080008	0.297179	-0.301137	0.088825	-0.901727	-22.902222	-29.359848	-137.443839
57381		4.810292	-3.443734	7.854796	-0.069109	0.097211	0.020003	0.021976	-0.017840	-0.094251	-0.734375	0.595703	-0.622070	0.048080	-0.034469	0.078548	0.296824	-0.301218	0.088585	-0.901840	-22.867525	-29.387433	-137.492301
57382		4.497083	-3.494613	7.997284	0.193450	0.331310	-0.002211	-0.011430	-0.015467	-0.094658	-0.733398	0.601563	-0.631348	0.044948	-0.034963	0.079978	0.296414	-0.301337	0.088499	-0.901944	-22.851431	-29.413834	-137.541955
57383		4.736910	-3.425487	7.825628	-0.027314	0.136695	-0.045738	-0.019905	-0.023545	-0.125316	-0.735840	0.597900	-0.625977	0.047338	-0.034277	0.078265	0.295859	-0.301519	0.088392	-0.902076	-22.831968	-29.451191	-137.607739
57384		4.680321	-3.364624	7.948113	0.114546	0.129293	0.004072	-0.029554	-0.023522	-0.132715	-0.743896	0.605225	-0.625732	0.046772	-0.033666	0.079492	0.295253	-0.301718	0.088318	-0.902215	-22.815833	-29.490277	-137.678475
57385		4.747927	-3.443422	7.974974	0.053912	0.160863	0.085362	-0.044544	-0.041261	-0.156325	-0.734131	0.602539	-0.628174	0.047436	-0.034454	0.079767	0.294529	-0.302029	0.088250	-0.902354	-22.803403	-29.543901	-137.758673
57386		4.732917	-3.379447	8.066124	0.154609	0.127855	0.129307	-0.033513	-0.054675	-0.163499	-0.738037	0.593506	-0.624512	0.047279	-0.033820	0.080680	0.293792	-0.302388	0.088101	-0.902489	-22.784073	-29.606243	-137.840251
57387		4.591576	-3.294052	8.072965	0.297742	0.151168	0.035896	-0.037277	-0.078362	-0.181265	-0.744141	0.593018	-0.627441	0.045854	-0.032967	0.080754	0.292990	-0.302866	0.087905	-0.902608	-22.764393	-29.684837	-137.925214
57388		4.637855	-3.654699	8.028431	0.079730	0.429607	0.143782	-0.027717	-0.123148	-0.202000	-0.741455	0.592041	-0.617188	0.046292	-0.036583	0.080318	0.292118	-0.303542	0.087572	-0.902696	-22.738495	-29.791837	-138.012932
57389		4.093977	-3.790276	8.155318	0.455598	0.877542	0.018810	0.011705	-0.184782	-0.264048	-0.748291	0.597412	-0.619385	0.040814	-0.037961	0.081589	0.291048	-0.304464	0.086877	-0.902799	-22.678654	-29.945017	-138.123426
57390		4.578397	-3.950418	8.032453	0.011837	0.754054	0.213227	0.008413	-0.261623	-0.356726	-0.740479	0.594238	-0.608887	0.045608	-0.039589	0.080383	0.289590	-0.305778	0.085943	-0.902913	-22.601712	-30.159221	-138.270903
57391		4.042877	-3.914541	8.359294	0.594533	1.079232	0.188704	0.056750	-0.334922	-0.453804	-0.751953	0.585205	-0.607178	0.040200	-0.039261	0.083649	0.287814	-0.307393	0.084532	-0.903065	-22.475728	-30.433207	-138.457852
57392		4.595844	-3.900069	7.873303	-0.020656	0.790658	0.071405	0.089604	-0.440940	-0.542962	-0.752441	0.581055	-0.602051	0.045679	-0.039160	0.078816	0.285712	-0.309474	0.082686	-0.903193	-22.314856	-30.782510	-138.676377
57393		4.784597	-2.741403	8.510194	0.817711	-0.189208	0.293057	0.133928	-0.588949	-0.568259	-0.754883	0.578613	-0.605713	0.047517	-0.027606	0.085224	0.283627	-0.312166	0.080387	-0.903131	-22.137648	-31.215219	-138.874315
57394		4.774947	-3.038685	8.294700	0.601364	0.130192	0.210106	0.151028	-0.763325	-0.624641	-0.768799	0.580078	-0.604004	0.047337	-0.030598	0.083105	0.281373	-0.315637	0.077675	-0.902867	-21.952253	-31.752139	-139.066929
57395		4.865364	-2.759469	8.786832	1.036406	-0.042910	0.551558	0.169907	-0.994300	-0.675275	-0.777832	0.560547	-0.589111	0.048122	-0.027833	0.088085	0.279031	-0.320135	0.074462	-0.902281	-21.766852	-32.421802	-139.232564
57396		4.639418	-2.990084	8.822624	1.180986	0.382894	0.519800	0.193142	-1.244795	-0.713541	-0.778809	0.556152	-0.583252	0.045737	-0.030150	0.088483	0.276604	-0.325729	0.070739	-0.901325	-21.584918	-33.232822	-139.367225
57397		4.230216	-3.417037	8.880775	1.385813	1.092838	0.449943	0.281694	-1.523370	-0.761497	-0.783691	0.552246	-0.571289	0.041494	-0.034455	0.089077	0.274200	-0.332453	0.066145	-0.899952	-21.369953	-34.201760	-139.465380
57398		4.496118	-3.830255	8.558070	0.945850	1.427939	0.443490	0.414226	-1.797355	-0.830664	-0.810059	0.547607	-0.555908	0.044030	-0.038664	0.085899	0.271758	-0.340221	0.060462	-0.898188	-21.087556	-35.331280	-139.547426
57399		4.730016	-3.997075	8.347500	0.719270	1.607647	0.430544	0.595607	-2.037378	-0.926412	-0.807129	0.532471	-0.544922	0.046261	-0.040436	0.083830	0.269264	-0.348809	0.053463	-0.896086	-20.693297	-36.607851	-139.637952
57400		4.931779	-4.001617	8.515861	0.842891	1.733780	0.633959	0.773068	-2.282466	-1.063175	-0.822266	0.517578	-0.530762	0.048128	-0.040604	0.085556	0.266462	-0.358240	0.045098	-0.893660	-20.167469	-38.043287	-139.777468
57401		5.787274	-4.448720	8.215518	0.079191	1.895203	1.011927	0.953075	-2.449062	-1.202570	-0.829590	0.503174	-0.507080	0.056592	-0.045223	0.082639	0.263350	-0.368137	0.035448	-0.890991	-19.487369	-39.594043	-139.993709
57402		5.995376	-4.226285	8.577244	0.451135	1.929266	1.297668	1.121919	-2.518322	-1.299614	-0.849121	0.485352	-0.495361	0.058591	-0.043130	0.086276	0.260067	-0.378059	0.024767	-0.888157	-18.651457	-41.198416	-140.294249
57403		6.850975	-4.262475	8.821370	0.257693	1.893985	1.988029	1.196620	-2.454473	-1.344868	-0.858154	0.468750	-0.477783	0.067131	-0.043609	0.088784	0.256657	-0.387516	0.013748	-0.885307	-17.706722	-42.772185	-140.684213
57404		8.500964	-2.675248	10.394123	1.267660	0.362835	3.814845	1.237368	-2.247621	-1.306414	-0.858398	0.456543	-0.456787	0.083656	-0.027948	0.104716	0.253425	-0.395920	0.002885	-0.882618	-16.685564	-44.221208	-141.140205
57405		7.507040	-0.572316	9.492556	2.272254	-0.891916	2.054331	0.825710	-1.973706	-1.114723	-0.872559	0.441895	-0.449219	0.074094	-0.006532	0.095634	0.250176	-0.403563	-0.005435	-0.880068	-15.923785	-45.483238	-141.552053
57406		7.400271	-1.438122	8.031822	1.051949	-0.167556	1.151003	0.478485	-1.975270	-1.010475	-0.877441	0.425781	-0.430176	0.073130	-0.014945	0.081008	0.246651	-0.411597	-0.012019	-0.877272	-15.393166	-46.726847	-141.910323
57407		7.457675	-3.087334	7.696808	0.189521	1.378655	1.252942	0.451196	-1.841363	-0.953312	-0.883789	0.416016	-0.410645	0.073716	-0.031401	0.077579	0.243299	-0.419029	-0.018198	-0.874579	-14.867287	-47.885276	-142.276518
57408		6.544613	-4.490164	7.851657	0.290035	3.210548	0.875921	0.553453	-1.717284	-0.853025	-0.885986	0.405273	-0.391357	0.064577	-0.045396	0.078948	0.240586	-0.425761	-0.024462	-0.871922	-14.302129	-48.958242	-142.610404
57409		3.525644	-8.925282	10.364127	1.834391	9.116372	0.818816	0.637136	-1.483084	-0.492601	-0.884766	0.392090	-0.383301	0.034268	-0.089668	0.103613	0.239630	-0.431378	-0.030039	-0.869246	-13.865003	-49.848569	-142.707742
57410		7.606753	-11.156566	14.883209	2.132909	10.791184	7.005190	0.564057	-1.059339	0.299030	-0.893799	0.401367	-0.367188	0.075446	-0.111872	0.148918	0.242007	-0.435337	-0.033083	-0.866498	-13.921457	-50.394344	-142.215304
57411		-1.121244	-9.834504	11.655661	4.721368	12.236239	-1.950655	0.455528	-0.403788	0.888820	-0.884277	0.398926	-0.366211	-0.011009	-0.098659	0.116310	0.246804	-0.436668	-0.033575	-0.864454	-14.333136	-50.491713	-141.345393
57412		-3.027543	-6.375129	12.147073	7.522975	10.126637	-3.630876	0.350560	-0.002614	1.109645	-0.881348	0.394043	-0.368408	-0.029922	-0.064131	0.121358	0.252386	-0.436421	-0.032639	-0.863002	-14.882867	-50.330475	-140.373666
57413		-2.000695	-4.302458	13.857557	9.166446	8.378249	-2.045723	-0.034140	0.492691	1.251398	-0.871094	0.392090	-0.363770	-0.019396	-0.043124	0.138631	0.257811	-0.434523	-0.029102	-0.862483	-15.647199	-49.866378	-139.405587
57414		-2.009630	-4.566640	13.764724	8.918056	8.514426	-1.917815	-0.439476	1.153537	1.320334	-0.861816	0.410889	-0.370361	-0.019001	-0.045491	0.137859	0.262732	-0.430285	-0.022818	-0.863311	-16.540176	-49.019197	-138.563983
57415		-1.764506	-4.654862	13.131229	8.223320	8.179943	-1.896368	-0.637907	1.790297	1.271440	-0.853271	0.414063	-0.380371	-0.016173	-0.046235	0.131609	0.267250	-0.423497	-0.015031	-0.865449	-17.360372	-47.822110	-137.933967
57416		-1.065084	-4.372385	12.588809	7.533346	7.293200	-1.519492	-0.779662	2.365169	1.191440	-0.838135	0.410400	-0.392578	-0.008901	-0.043289	0.126170	0.270932	-0.414348	-0.005941	-0.868836	-18.068443	-46.320979	-137.579453
57417		-0.222267	-4.573188	11.649514	6.228562	6.613942	-1.203271	-0.920320	2.842255	1.139112	-0.819824	0.410156	-0.406006	-0.000307	-0.045200	0.116717	0.274238	-0.403216	0.004220	-0.873036	-18.708881	-44.565979	-137.399231
57418		0.506146	-4.870080	10.503372	4.773570	5.999643	-1.123715	-1.017271	3.195310	1.099286	-0.799072	0.419922	-0.420654	0.007007	-0.048131	0.105178	0.276900	-0.390571	0.015288	-0.877808	-19.296246	-42.627287	-137.395283
57419		1.133948	-5.126144	9.424719	3.426358	5.417896	-1.136158	-1.093401	3.403703	1.056785	-0.787842	0.408203	-0.444336	0.013213	-0.050679	0.094311	0.279247	-0.376987	0.026845	-0.882713	-19.854415	-40.583034	-137.485340
57420		2.334458	-5.660655	8.411128	1.665362	4.801078	-0.734992	-1.152309	3.466697	1.032525	-0.774170	0.412109	-0.459229	0.025092	-0.055996	0.084010	0.281142	-0.363082	0.038742	-0.887485	-20.413338	-38.511841	-137.647248
57421		3.409535	-6.550447	7.125992	-0.385080	4.527006	-0.611521	-1.157496	3.429881	1.058630	-0.756592	0.421631	-0.486572	0.035660	-0.064907	0.071034	0.282969	-0.349200	0.050682	-0.891863	-20.983599	-36.455263	-137.813886
57422		4.353406	-7.485280	5.755108	-2.432688	4.391148	-0.708004	-1.068107	3.225238	1.130295	-0.741699	0.415039	-0.499023	0.044880	-0.074295	0.057232	0.285307	-0.335979	0.062002	-0.895474	-21.552159	-34.495549	-137.891779
57423		6.618739	-7.175546	5.286426	-4.129357	2.592279	0.160421	-0.939971	2.918560	1.325715	-0.738037	0.408447	-0.519043	0.067425	-0.071065	0.052221	0.288492	-0.323759	0.072717	-0.898145	-22.149580	-32.656994	-137.821283
57424		7.276729	-5.222973	4.122724	-4.495070	0.295733	-1.041859	-0.927256	2.547870	1.603992	-0.719971	0.423828	-0.529297	0.073701	-0.051452	0.040532	0.293258	-0.313023	0.083172	-0.899499	-22.864658	-30.953749	-137.475945
57425		7.725594	-3.142644	2.706900	-4.755665	-1.923922	-2.701695	-0.885447	1.977482	1.709595	-0.714600	0.416748	-0.546387	0.077784	-0.030645	0.026438	0.298736	-0.304669	0.092758	-0.899628	-23.639979	-29.521958	-136.948638
57426		10.179575	-0.820098	2.871411	-5.145462	-5.436803	-2.295910	-0.832382	1.386171	1.638087	-0.707764	0.429688	-0.553467	0.102054	-0.007248	0.028039	0.304200	-0.298888	0.101090	-0.898838	-24.415945	-28.411488	-136.334806
57427		11.717795	1.196617	2.015475	-5.655966	-8.141395	-3.140029	-0.820140	0.917289	1.472646	-0.705566	0.428955	-0.555908	0.117176	0.012910	0.019566	0.309140	-0.295237	0.108403	-0.897506	-25.179719	-27.576397	-135.713783
57428		12.143443	2.262393	0.084703	-6.517856	-9.341690	-5.033870	-0.753674	0.347327	1.189234	-0.702637	0.432861	-0.566895	0.121298	0.023348	0.000549	0.313194	-0.294182	0.114103	-0.895738	-25.888418	-27.100133	-135.114682
57429		14.380252	2.944439	-0.665376	-7.973155	-11.348319	-4.960122	-0.634951	-0.252081	0.830724	-0.710449	0.433350	-0.558594	0.143687	0.030020	-0.006567	0.316145	-0.295810	0.117807	-0.893683	-26.506630	-27.015617	-134.560365
57430		16.698191	3.121550	-0.960268	-9.417664	-13.017079	-4.212897	-0.592232	-0.711118	0.517339	-0.709229	0.441895	-0.565186	0.166933	0.031620	-0.009102	0.318022	-0.299605	0.120121	-0.891443	-27.078935	-27.242650	-134.053248
57431		17.387790	2.961557	-1.809921	-10.330800	-13.364124	-4.422503	-0.559217	-1.071855	0.265410	-0.708252	0.441406	-0.555420	0.173932	0.029797	-0.017250	0.319030	-0.305092	0.121338	-0.889053	-27.619961	-27.714480	-133.579790
57432		16.851651	3.072400	-2.750901	-10.416528	-13.117386	-5.294841	-0.490944	-1.440807	0.037571	-0.715820	0.435303	-0.552734	0.168703	0.030690	-0.026369	0.319339	-0.312238	0.121304	-0.886462	-28.120570	-28.431077	-133.117446
57433		15.711401	3.206703	-3.351228	-9.926330	-12.500885	-6.131538	-0.395894	-1.834029	-0.135262	-0.727295	0.444580	-0.551025	0.157435	0.031896	-0.032133	0.319245	-0.321055	0.119946	-0.883527	-28.589019	-29.389088	-132.621945
57434		14.601555	2.958438	-3.239178	-9.190372	-11.618277	-6.208033	-0.262941	-2.242339	-0.248088	-0.746582	0.434326	-0.538086	0.146403	0.029362	-0.030790	0.319076	-0.331499	0.117151	-0.880099	-29.028494	-30.580189	-132.047550
57435		13.484744	2.093367	-2.637742	-8.413853	-10.250523	-5.653217	-0.066398	-2.610548	-0.299821	-0.753418	0.432617	-0.531494	0.135208	0.020723	-0.024621	0.319174	-0.343229	0.112803	-0.876126	-29.422832	-31.966089	-131.365076
57436		30.541930	-29.042349	-2.508457	-33.029156	3.037649	16.309212	3.993019	-1.407680	-1.019777	-0.774170	0.426270	-0.524170	0.304129	-0.291427	-0.028753	0.322302	-0.343508	0.091319	-0.877374	-27.053900	-32.949896	-131.519307
57437		26.978465	12.606287	37.051414	15.516656	-23.782121	28.304383	4.694379	0.266643	-0.254728	-0.762695	0.397705	-0.534668	0.270434	0.116983	0.372971	0.329061	-0.334789	0.070726	-0.880132	-24.240574	-32.872508	-131.750804
57438		-1.311615	23.789924	15.210837	23.093929	-16.033637	-6.875587	1.490299	1.522159	0.675855	-0.767578	0.395752	-0.549561	-0.012750	0.236713	0.153973	0.333997	-0.325371	0.067828	-0.882031	-23.391783	-31.915391	-131.744506
57439		6.054157	0.408734	14.958215	5.970473	-2.817993	4.917272	-0.526403	1.930246	0.182482	-0.758301	0.389893	-0.566650	0.061977	0.004536	0.148977	0.333300	-0.317653	0.073694	-0.884634	-23.487191	-30.856429	-132.143591
57440		-5.025769	-14.723600	1.591804	-4.127007	14.613546	-6.072579	0.357200	1.836458	0.064789	-0.751709	0.398193	-0.570557	-0.050063	-0.147281	0.016115	0.333489	-0.308889	0.075303	-0.887526	-23.062550	-29.872312	-132.582166
57441		0.870990	-6.219604	12.249773	3.399144	5.111912	2.508548	0.433053	0.373916	-0.491006	-0.749756	0.392578	-0.575928	0.008786	-0.062483	0.122346	0.331862	-0.306683	0.073274	-0.889069	-22.621726	-29.781346	-132.973061
57442		7.528015	1.549339	13.084562	4.151775	-5.010724	3.896163	-0.119957	0.049466	-0.457267	-0.755371	0.390625	-0.579590	0.075348	0.015400	0.130818	0.329653	-0.306821	0.073216	-0.889848	-22.549201	-29.852979	-133.260628
57443		4.084370	-0.988341	10.335811	3.184769	-1.075483	0.826319	-0.140223	-0.034180	-0.086994	-0.754150	0.391357	-0.584961	0.040822	-0.009829	0.103372	0.329089	-0.307228	0.073678	-0.889878	-22.611005	-29.887431	-133.301227
57444		4.884986	-2.613712	8.079290	0.504537	-0.482869	-0.041213	-0.126507	-0.238753	-0.119867	-0.753906	0.387695	-0.577393	0.048738	-0.026115	0.080868	0.328476	-0.308534	0.073692	-0.889651	-22.680939	-30.037299	-133.309800
57445		8.243057	-0.777186	7.176982	-1.015480	-4.075336	0.307662	-0.099539	-0.193407	-0.008794	-0.752441	0.381348	-0.578369	0.082361	-0.007740	0.071853	0.328381	-0.309553	0.073831	-0.889321	-22.763629	-30.138669	-133.261914
57446		6.327278	-2.279435	7.537355	-0.453795	-1.684605	0.137093	-0.136181	-0.077344	0.110678	-0.749023	0.386230	-0.572021	0.063256	-0.022708	0.075413	0.328717	-0.310072	0.074510	-0.888960	-22.889217	-30.152077	-133.170656
57447		5.804884	-4.408807	6.920020	-1.649160	0.237783	0.099157	-0.075256	-0.041770	0.043265	-0.749512	0.385498	-0.582764	0.058044	-0.044049	0.069229	0.328835	-0.310357	0.074870	-0.888786	-22.954536	-30.161711	-133.129680
57448		5.947947	-3.336898	7.648782	-0.712130	-0.634626	0.390594	-0.072653	-0.010145	0.023075	-0.750000	0.393066	-0.565430	0.059479	-0.033334	0.076503	0.328855	-0.310505	0.075240	-0.888696	-23.008187	-30.159056	-133.109196
57449		4.952265	-3.670771	7.789633	-0.212983	0.255031	0.115428	-0.079879	-0.004048	0.037079	-0.756104	0.402344	-0.570801	0.049528	-0.036667	0.077912	0.328923	-0.310632	0.075673	-0.888589	-23.069371	-30.150133	-133.081742
57450		5.661469	-3.293928	8.023096	-0.282766	-0.473519	0.529851	-0.059531	-0.028152	0.027461	-0.746338	0.394775	-0.575928	0.056608	-0.032908	0.080249	0.328990	-0.310837	0.075963	-0.888468	-23.119192	-30.155949	-133.053912
57451		5.455173	-3.174677	8.188791	0.009463	-0.428295	0.517378	-0.055439	-0.033679	0.038130	-0.752441	0.392334	-0.578613	0.054544	-0.031714	0.081906	0.329112	-0.311055	0.076240	-0.888323	-23.170567	-30.162360	-133.018116
57452		5.854021	-3.264874	7.899024	-0.441392	-0.636004	0.518053	-0.065749	-0.043995	0.050580	-0.748779	0.398926	-0.571045	0.058531	-0.032608	0.079014	0.329278	-0.311332	0.076567	-0.888136	-23.233120	-30.171255	-132.972051
57453		5.822890	-3.015566	7.851371	-0.308696	-0.816703	0.379535	-0.061754	-0.067033	0.050498	-0.754639	0.400879	-0.559570	0.058210	-0.030117	0.078543	0.329458	-0.311704	0.076836	-0.887916	-23.296309	-30.192369	-132.919965
57454		5.502811	-3.318433	7.919494	-0.232588	-0.381221	0.376124	-0.069299	-0.043031	0.066054	-0.756836	0.402100	-0.571045	0.055022	-0.033139	0.079218	0.329686	-0.311976	0.077205	-0.887704	-23.365543	-30.197156	-132.864698
57455		6.007031	-3.294669	7.792409	-0.585168	-0.733401	0.520782	-0.054818	-0.041117	0.045631	-0.747803	0.394043	-0.565430	0.060062	-0.032912	0.077945	0.329845	-0.312223	0.077479	-0.887534	-23.419880	-30.205660	-132.822327
57456		5.102748	-3.520334	7.623361	-0.271138	-0.003008	0.009374	-0.051168	-0.022339	0.046504	-0.749512	0.397705	-0.571533	0.051027	-0.035172	0.076248	0.330007	-0.312381	0.077770	-0.887393	-23.470015	-30.203932	-132.784393
57457		5.194157	-3.335397	7.232741	-0.456909	-0.233391	-0.317771	-0.029005	-0.042432	0.020762	-0.754395	0.404053	-0.556885	0.051930	-0.033338	0.072343	0.330097	-0.312601	0.077888	-0.887271	-23.502146	-30.218756	-132.756773
57458		5.024492	-3.386357	7.557125	-0.183556	-0.065785	-0.128419	-0.022201	-0.033373	0.018157	-0.753662	0.401123	-0.569092	0.050235	-0.033851	0.075583	0.330182	-0.312771	0.077988	-0.887171	-23.528490	-30.229265	-132.733150
57459		4.741401	-3.494176	7.672489	-0.002263	0.203817	-0.142336	-0.014366	-0.020273	0.001291	-0.756348	0.402588	-0.562500	0.047406	-0.034936	0.076732	0.330199	-0.312876	0.078048	-0.887122	-23.543340	-30.236890	-132.723212
57460		4.941828	-3.647314	7.339246	-0.401915	0.172132	-0.252461	0.001192	-0.028471	-0.008035	-0.753418	0.406494	-0.560547	0.049406	-0.036476	0.073399	0.330203	-0.312996	0.078011	-0.887082	-23.547619	-30.250808	-132.716802
57461		4.478869	-3.430172	7.617667	0.156624	0.319553	-0.340172	0.010452	-0.027833	-0.014968	-0.751953	0.401855	-0.559082	0.044776	-0.034309	0.076181	0.330190	-0.313100	0.077923	-0.887057	-23.544289	-30.266123	-132.714742
57462		4.833574	-3.459365	7.540706	-0.111793	0.115084	-0.212315	0.021515	-0.049833	-0.027563	-0.757324	0.400635	-0.554688	0.048312	-0.034608	0.075415	0.330147	-0.313288	0.077731	-0.887024	-23.533792	-30.295732	-132.714549
57463		5.337547	-3.453604	7.638047	-0.342389	-0.197017	0.117091	0.028664	-0.058659	-0.031787	-0.766113	0.401611	-0.561035	0.053348	-0.034555	0.076391	0.330100	-0.313506	0.077484	-0.886986	-23.518986	-30.331085	-132.714563
57464		5.102922	-3.294808	7.614899	-0.131003	-0.166168	-0.074234	0.024617	-0.062971	-0.034187	-0.762939	0.409668	-0.560059	0.051000	-0.032966	0.076161	0.330038	-0.313750	0.077246	-0.886944	-23.506424	-30.369110	-132.714940
57465		5.255520	-3.047975	7.707278	-0.027916	-0.439805	-0.008680	0.023661	-0.080435	-0.043185	-0.759277	0.405762	-0.553955	0.052518	-0.030500	0.077090	0.329941	-0.314077	0.076968	-0.886888	-23.493881	-30.418514	-132.716146
57466		5.615026	-3.160062	7.703796	-0.295340	-0.574246	0.209588	0.006981	-0.086057	-0.044338	-0.758057	0.403076	-0.555664	0.056110	-0.031616	0.077061	0.329815	-0.314456	0.076754	-0.886820	-23.491379	-30.470989	-132.716608
57467		5.630666	-3.025341	7.820552	-0.155062	-0.672738	0.264093	0.006025	-0.087314	-0.039940	-0.756104	0.405518	-0.547119	0.056266	-0.030267	0.078229	0.329707	-0.314841	0.076547	-0.886741	-23.490858	-30.523275	-132.714021
57468		5.596144	-3.110624	7.766569	-0.207352	-0.582620	0.233703	0.000738	-0.082135	-0.037850	-0.760010	0.410156	-0.547119	0.055924	-0.031117	0.077689	0.329598	-0.315210	0.076378	-0.886665	-23.493416	-30.572207	-132.711566
57469		5.593215	-3.036512	7.787389	-0.147143	-0.630736	0.223667	0.000244	-0.078859	-0.028418	-0.756836	0.412109	-0.548096	0.055897	-0.030373	0.077896	0.329529	-0.315563	0.076229	-0.886578	-23.498646	-30.617430	-132.704178
57470		5.571141	-3.215595	7.863784	-0.178359	-0.468211	0.334516	0.000316	-0.062068	-0.030555	-0.767822	0.412109	-0.547852	0.055682	-0.032165	0.078655	0.329444	-0.315841	0.076106	-0.886521	-23.501009	-30.654151	-132.702587
57471		5.625251	-3.177794	7.729619	-0.267204	-0.537416	0.243585	-0.003165	-0.050007	-0.025893	-0.762939	0.410156	-0.545654	0.056229	-0.031784	0.077311	0.329369	-0.316071	0.076023	-0.886474	-23.505079	-30.683646	-132.701308
57472		5.417666	-3.114455	7.628893	-0.170028	-0.459354	0.036730	-0.004356	-0.042694	-0.027100	-0.754150	0.415039	-0.542969	0.054156	-0.031150	0.076301	0.329285	-0.316269	0.075958	-0.886440	-23.508572	-30.709397	-132.702748
57473		5.574233	-3.214388	7.505409	-0.387235	-0.487803	0.053802	-0.008934	-0.030438	-0.025195	-0.757080	0.415039	-0.546387	0.055727	-0.032148	0.075064	0.329197	-0.316422	0.075935	-0.886420	-23.513507	-30.728461	-132.706237
57474		5.965444	-3.055288	7.468810	-0.550160	-0.858439	0.170541	-0.006540	-0.023340	-0.029049	-0.763184	0.413818	-0.539063	0.059641	-0.030559	0.074696	0.329093	-0.316539	0.075908	-0.886419	-23.515013	-30.744490	-132.714013
57475		5.167719	-3.236061	7.848909	0.051616	-0.186517	0.124381	-0.012368	0.003999	-0.013814	-0.758789	0.406982	-0.534912	0.051677	-0.032359	0.078490	0.329037	-0.316540	0.075974	-0.886434	-23.520786	-30.742876	-132.719700
57476		5.277573	-3.339955	7.600750	-0.218924	-0.194220	0.020614	-0.016300	-0.004656	-0.027625	-0.764893	0.408691	-0.540771	0.052769	-0.033401	0.076011	0.328917	-0.316589	0.076024	-0.886457	-23.525787	-30.748765	-132.731574
57477		5.001749	-3.290336	7.652556	0.000891	-0.054778	-0.096597	-0.012236	0.005285	-0.016449	-0.752441	0.412354	-0.533447	0.050017	-0.032903	0.076526	0.328849	-0.316585	0.076088	-0.886478	-23.530484	-30.747082	-132.739213
57478		5.795008	-3.057081	7.451530	-0.459317	-0.750631	0.070568	-0.014819	-0.003774	-0.022905	-0.761475	0.423096	-0.533447	0.057945	-0.030572	0.074519	0.328751	-0.316627	0.076139	-0.886495	-23.535992	-30.751430	-132.748437
57479		5.597570	-2.860730	7.632869	-0.127520	-0.765283	0.045067	-0.023189	0.009560	-0.009982	-0.757813	0.407959	-0.535645	0.055978	-0.028601	0.076329	0.328693	-0.316620	0.076269	-0.886508	-23.548400	-30.746031	-132.753259
57480		5.817215	-2.886230	7.438879	-0.387085	-0.900153	0.013152	-0.022818	0.002257	-0.006985	-0.758789	0.425781	-0.526367	0.058172	-0.028856	0.074391	0.328651	-0.316642	0.076391	-0.886505	-23.562645	-30.743569	-132.754359
57481		5.193825	-3.271350	7.687545	-0.076260	-0.193743	0.022583	-0.025290	0.016258	0.006201	-0.755859	0.422119	-0.525391	0.051946	-0.032702	0.076875	0.328659	-0.316602	0.076567	-0.886501	-23.580390	-30.730963	-132.751079
57482		5.518662	-3.077972	7.616810	-0.204782	-0.555810	0.066304	-0.023465	-0.001391	-0.003682	-0.761963	0.422852	-0.536133	0.055186	-0.030772	0.076172	0.328632	-0.316640	0.076691	-0.886487	-23.596532	-30.729660	-132.749189
57483		5.395086	-3.190059	7.435408	-0.302916	-0.406559	-0.101267	-0.022709	0.022484	-0.005995	-0.760986	0.429688	-0.524902	0.053958	-0.031894	0.074352	0.328587	-0.316573	0.076846	-0.886514	-23.608135	-30.716587	-132.755027
57484		5.073857	-3.377409	7.438284	-0.214972	-0.061045	-0.198684	-0.009470	0.035198	-0.024569	-0.754150	0.423584	-0.533936	0.050748	-0.033777	0.074376	0.328476	-0.316434	0.076935	-0.886597	-23.604759	-30.700867	-132.775656
57485		5.139072	-3.487930	7.291990	-0.403744	-0.027897	-0.242680	-0.001458	0.029185	-0.040502	-0.754883	0.428223	-0.532471	0.051394	-0.034889	0.072913	0.328310	-0.316316	0.076952	-0.886699	-23.592522	-30.692197	-132.804346
57486		4.712334	-3.589915	7.698593	0.035975	0.349531	-0.105039	0.019949	0.054008	-0.051230	-0.756348	0.437744	-0.522705	0.047135	-0.035919	0.076970	0.328119	-0.316055	0.076900	-0.886867	-23.561441	-30.672699	-132.846252
57487		4.856441	-3.588913	7.609294	-0.107895	0.253572	-0.102346	0.028066	0.048635	-0.082760	-0.749512	0.429688	-0.526367	0.048568	-0.035920	0.076076	0.327804	-0.315819	0.076751	-0.887081	-23.516513	-30.663457	-132.905902
57488		4.848113	-3.408285	7.789173	0.099710	0.135368	-0.026802	-0.013784	0.018506	-0.103649	-0.752197	0.428711	-0.523438	0.048471	-0.034103	0.077890	0.327342	-0.315791	0.076708	-0.887265	-23.493264	-30.674545	-132.970363
57489		5.536508	-3.101939	7.728733	-0.177051	-0.536269	0.171766	-0.055837	0.000447	-0.098579	-0.746094	0.439453	-0.522705	0.055350	-0.031025	0.077296	0.326843	-0.315911	0.076827	-0.887396	-23.497995	-30.694195	-133.026882
57490		5.351278	-3.079646	7.729956	-0.052838	-0.433334	0.070735	-0.036964	-0.030621	-0.106432	-0.754150	0.436768	-0.515625	0.053485	-0.030811	0.077313	0.326350	-0.316140	0.076801	-0.887498	-23.493766	-30.731724	-133.080022
57491		5.776833	-3.003304	7.580660	-0.350108	-0.764700	0.144757	-0.030093	-0.031407	-0.100796	-0.754395	0.432373	-0.526367	0.057741	-0.030051	0.075820	0.325894	-0.316360	0.076751	-0.887592	-23.487299	-30.768622	-133.129471
57492		5.255974	-3.089095	7.747411	0.016619	-0.352644	0.039496	-0.022683	-0.066820	-0.123332	-0.739258	0.432617	-0.513672	0.052515	-0.030915	0.077495	0.325362	-0.316733	0.076576	-0.887669	-23.474421	-30.829021	-133.183389
57493		5.665839	-3.221552	7.532211	-0.419843	-0.511015	0.125970	-0.016669	-0.094035	-0.138745	-0.747314	0.435791	-0.516602	0.056601	-0.032249	0.075351	0.324782	-0.317224	0.076304	-0.887729	-23.456747	-30.907484	-133.239506
57494		5.588406	-3.171006	7.645671	-0.270346	-0.480062	0.159187	-0.017239	-0.118439	-0.178193	-0.747070	0.439697	-0.517822	0.055810	-0.031753	0.076493	0.324035	-0.317837	0.075934	-0.887815	-23.430311	-31.007493	-133.313467
57495		5.579629	-3.401794	7.605788	-0.402341	-0.280155	0.202904	-0.014519	-0.132204	-0.220327	-0.742188	0.438721	-0.517578	0.055708	-0.034074	0.076097	0.323111	-0.318524	0.075461	-0.887946	-23.390524	-31.124561	-133.409720
57496		5.296465	-3.356365	7.768312	-0.101076	-0.104994	0.169451	-0.012156	-0.180191	-0.293768	-0.749023	0.442139	-0.505127	0.052845	-0.033637	0.077733	0.321881	-0.319446	0.074784	-0.888118	-23.332393	-31.283217	-133.538711
57497		5.382742	-3.592121	7.748295	-0.274712	0.053219	0.278641	-0.014703	-0.189812	-0.360249	-0.745361	0.438965	-0.507324	0.053689	-0.036012	0.077537	0.320354	-0.320440	0.073995	-0.888378	-23.255021	-31.462141	-133.706511
57498		5.599569	-3.848782	7.086755	-0.929408	0.106717	-0.039507	-0.009317	-0.244515	-0.412811	-0.739014	0.448730	-0.508545	0.055829	-0.038600	0.070938	0.318621	-0.321685	0.073012	-0.888633	-23.164437	-31.681258	-133.893029
57499		6.035015	-1.928079	8.143780	0.482665	-1.551025	0.376582	0.051932	-0.340830	-0.346578	-0.745850	0.450195	-0.498779	0.060178	-0.019406	0.081535	0.317315	-0.323236	0.071707	-0.888644	-23.072593	-31.936252	-134.013801
57500		5.552897	-3.006445	7.458882	-0.193403	-0.417955	-0.050720	0.062511	-0.410657	-0.305315	-0.744385	0.440674	-0.499512	0.055330	-0.030172	0.074693	0.316232	-0.325061	0.070313	-0.888476	-22.997362	-32.218385	-134.091280
57501		5.591643	-2.480807	7.742863	0.260497	-0.788961	0.020024	0.073421	-0.502138	-0.304848	-0.751221	0.438721	-0.490479	0.055684	-0.024922	0.077559	0.315199	-0.327275	0.068723	-0.888154	-22.928142	-32.548881	-134.144871
57502		5.329186	-3.071917	7.705177	0.123235	-0.112980	0.045217	0.109459	-0.641086	-0.306885	-0.749512	0.451660	-0.488037	0.052997	-0.030843	0.077205	0.314259	-0.330045	0.066753	-0.887612	-22.856981	-32.952828	-134.163683
57503		4.729641	-3.558210	8.044382	0.482928	0.727531	0.136147	0.142851	-0.799079	-0.337738	-0.763184	0.455078	-0.483643	0.046914	-0.035719	0.080606	0.313286	-0.333470	0.064332	-0.886854	-22.778315	-33.447340	-134.160683
57504		4.780996	-3.964819	7.986947	0.265451	1.095302	0.242055	0.190056	-0.998809	-0.457787	-0.751465	0.442383	-0.482666	0.047319	-0.039833	0.080069	0.311916	-0.337736	0.061189	-0.885945	-22.659360	-34.073685	-134.181902
57505		4.110708	-4.126993	8.069524	0.690675	1.733130	-0.036959	0.241078	-1.217711	-0.614926	-0.756348	0.440186	-0.478271	0.040488	-0.041492	0.080893	0.309990	-0.342927	0.057209	-0.884892	-22.485586	-34.850632	-134.247629
57506		4.374694	-4.289631	7.895693	0.427878	1.817509	0.005250	0.317768	-1.522957	-0.813110	-0.766357	0.445313	-0.465332	0.042969	-0.043198	0.079218	0.307387	-0.349385	0.052076	-0.883590	-22.237475	-35.832041	-134.364786
57507		4.859886	-4.000958	8.154432	0.570509	1.505412	0.362026	0.479250	-1.912483	-1.045565	-0.772217	0.434814	-0.448486	0.047606	-0.040456	0.081906	0.304021	-0.357338	0.045251	-0.881948	-21.860457	-37.070133	-134.551081
57508		4.612093	-3.873681	8.069473	0.839965	1.746600	0.068140	0.667187	-2.347191	-1.242271	-0.786133	0.428467	-0.437988	0.044928	-0.039288	0.081096	0.300264	-0.366914	0.036547	-0.879704	-21.353185	-38.579810	-134.757687
57509		4.890302	-3.238394	8.286423	1.293869	1.370056	0.162606	0.885741	-2.845716	-1.455235	-0.795166	0.411865	-0.420898	0.047480	-0.033101	0.083401	0.295926	-0.378309	0.025761	-0.876725	-20.690513	-40.398437	-135.012633
57510		5.321854	-2.427864	8.278096	1.629180	0.788281	0.160014	1.146026	-3.356872	-1.662921	-0.803711	0.400391	-0.395020	0.051614	-0.025189	0.083514	0.291206	-0.391463	0.012651	-0.872809	-19.837353	-42.530044	-135.311895
57511		5.698510	-3.419151	8.033809	0.961193	1.746597	0.420239	1.431932	-3.878072	-1.894441	-0.818848	0.392334	-0.364014	0.055086	-0.035299	0.081168	0.285895	-0.406314	-0.002907	-0.867850	-18.743424	-44.983446	-135.714774
57512		5.986351	-4.264868	9.414848	1.583581	3.113676	1.607961	1.744762	-4.332392	-2.173766	-0.828125	0.371338	-0.340820	0.057337	-0.044108	0.095028	0.279876	-0.422446	-0.021053	-0.861839	-17.312605	-47.726757	-136.312531
57513		7.520564	-3.805910	10.460351	2.075369	2.892575	3.138882	1.824551	-4.601428	-2.434185	-0.838867	0.335693	-0.305176	0.072300	-0.039913	0.105931	0.272672	-0.439298	-0.040454	-0.855003	-15.588175	-50.647921	-137.211686
57514		9.089155	-2.160419	12.389151	3.910370	2.104570	5.053111	1.333378	-4.654122	-2.514303	-0.859619	0.320557	-0.270264	0.087691	-0.023555	0.125804	0.263835	-0.456699	-0.057973	-0.847618	-13.912174	-53.591204	-138.368764
57515		10.409090	-3.273842	13.212184	3.794404	3.517637	6.521219	0.628558	-4.396765	-2.381489	-0.867188	0.311279	-0.238525	0.100752	-0.034371	0.134255	0.253852	-0.473662	-0.071828	-0.840264	-12.483903	-56.353295	-139.673688
57516		7.231407	-1.861733	8.758310	2.839789	2.389099	1.080803	0.221218	-4.423182	-2.399749	-0.874023	0.281494	-0.200195	0.070123	-0.019566	0.089129	0.242650	-0.490947	-0.083998	-0.832488	-11.051153	-59.112813	-141.219753
57517		12.222541	-1.688071	10.438744	2.649131	1.799264	6.026989	-0.048703	-4.635381	-2.426341	-0.868408	0.267822	-0.168213	0.119546	-0.018316	0.107183	0.230462	-0.509104	-0.095334	-0.823779	-9.504187	-61.972256	-143.024821
57518		12.304580	-4.356973	11.081635	2.363933	4.944912	6.407636	-0.486300	-3.973728	-2.170954	-0.887939	0.250000	-0.133057	0.120330	-0.044612	0.113333	0.218353	-0.524861	-0.103378	-0.816184	-8.046562	-64.410520	-144.971681
57519		9.345182	-3.015856	7.557419	1.583616	3.536369	1.956236	-0.465204	-3.493183	-2.182883	-0.874512	0.220459	-0.107422	0.091777	-0.030988	0.077258	0.206395	-0.538379	-0.110965	-0.809467	-6.143972	-66.549577	-147.357289
57520		11.225912	-3.411724	10.758212	3.734678	5.132729	4.784718	-0.559400	-2.786419	-2.077368	-0.880371	0.212646	-0.089111	0.110385	-0.034966	0.109226	0.194926	-0.548995	-0.117117	-0.804296	-3.965468	-68.243487	-150.065776
57521		9.858729	-6.052062	11.393730	3.855506	8.330723	3.579563	-0.575814	-2.511880	-1.824265	-0.875977	0.197510	-0.069092	0.096589	-0.061077	0.115334	0.184536	-0.558517	-0.122208	-0.799419	-1.777228	-69.731851	-152.764972
57522		26.632366	-15.808410	27.046625	8.194120	21.045828	24.547100	-0.821284	-1.386362	-0.907861	-0.880615	0.189697	-0.060303	0.263719	-0.158168	0.272950	0.177781	-0.564236	-0.122700	-0.796854	-0.872366	-70.536617	-154.229233
57523		10.094888	-20.141941	15.224697	1.501548	22.802797	4.924098	-0.258516	0.443702	0.117726	-0.875732	0.184570	-0.067139	0.101405	-0.201163	0.152282	0.177814	-0.562763	-0.120905	-0.798162	-1.210888	-70.279316	-154.029263
57524		0.769267	-14.562151	9.605951	1.767991	16.870908	-5.669770	0.802146	1.183087	0.614141	-0.880859	0.184082	-0.060791	0.008706	-0.145979	0.095425	0.183253	-0.557680	-0.121288	-0.800438	-1.680480	-69.591329	-153.041892
57525		-2.546656	-7.288978	7.651189	4.087566	10.063022	-9.389246	1.117213	1.246096	0.941511	-0.881104	0.184326	-0.068359	-0.024646	-0.073434	0.076258	0.190906	-0.552209	-0.121945	-0.802340	-2.408263	-68.856335	-151.581345
57526		-2.541654	-2.484186	9.300139	7.483636	6.475004	-8.721426	0.572577	1.245670	1.261908	-0.888184	0.196777	-0.084717	-0.024678	-0.025266	0.093085	0.198323	-0.547408	-0.119530	-0.804192	-3.824739	-68.102709	-149.707991
57527		-2.677614	-2.468817	9.576568	7.716149	6.627617	-8.584496	-0.245017	1.400358	1.481671	-0.881836	0.198975	-0.084473	-0.025921	-0.024765	0.095979	0.204459	-0.542870	-0.113052	-0.806665	-5.872215	-67.228735	-147.648929
57528		-2.490878	-4.358049	8.830332	6.167409	7.949620	-8.422040	-0.702148	1.734506	1.529385	-0.886963	0.205811	-0.104980	-0.023808	-0.043454	0.088666	0.209709	-0.537415	-0.104253	-0.810147	-8.024554	-66.134257	-145.745252
57529		-2.620851	-5.261090	7.920518	5.051503	8.384744	-8.606472	-0.720583	2.190420	1.440317	-0.886230	0.204346	-0.124756	-0.024959	-0.052507	0.079672	0.214752	-0.529990	-0.095114	-0.814829	-9.808005	-64.763258	-144.241310
57530		-3.264031	-4.338893	7.320813	5.200210	7.462996	-9.238650	-0.620069	2.610100	1.320495	-0.890625	0.215332	-0.152100	-0.031394	-0.043371	0.073758	0.219728	-0.520588	-0.086242	-0.820530	-11.139129	-63.153031	-143.157259
57531		-3.901004	-2.769339	6.860258	5.773874	6.049983	-9.878622	-0.675648	2.890937	1.237517	-0.881348	0.220703	-0.159668	-0.037841	-0.027697	0.069249	0.224288	-0.509926	-0.077017	-0.826885	-12.219492	-61.383844	-142.377096
57532		-3.710898	-2.142192	6.514072	5.726070	5.289650	-9.675126	-0.883019	3.055487	1.195515	-0.874023	0.229004	-0.200195	-0.035979	-0.021350	0.065791	0.228146	-0.498667	-0.066848	-0.833554	-13.232199	-59.523060	-141.796689
57533		-2.744237	-2.635723	6.260562	4.936976	5.286967	-8.654640	-1.120227	3.167925	1.238665	-0.879395	0.226318	-0.229980	-0.026282	-0.026170	0.063175	0.231561	-0.487063	-0.055422	-0.840284	-14.303861	-57.587369	-141.296118
57534		-1.650154	-3.446324	6.088078	3.988425	5.497768	-7.461993	-1.261076	3.287050	1.343949	-0.875000	0.229004	-0.259033	-0.015265	-0.034183	0.061355	0.235029	-0.474995	-0.043003	-0.846931	-15.429316	-55.567150	-140.815617
57535		-0.598429	-3.698543	6.208888	3.498083	5.253695	-6.242963	-1.321071	3.432546	1.460883	-0.868164	0.239990	-0.290283	-0.004647	-0.036611	0.062419	0.238329	-0.462238	-0.029624	-0.853614	-16.559283	-53.443213	-140.420668
57536		0.156852	-3.575441	6.448922	3.343454	4.759975	-5.279125	-1.389401	3.562349	1.604071	-0.857666	0.255371	-0.330566	0.003004	-0.035285	0.064690	0.242465	-0.448823	-0.015703	-0.859955	-17.720274	-51.219439	-139.962056
57537		1.029328	-3.455182	6.706466	3.098555	4.160100	-4.239713	-1.480538	3.665787	1.744923	-0.841553	0.259033	-0.359619	0.011821	-0.033956	0.067110	0.246900	-0.434872	-0.000930	-0.865983	-18.920608	-48.906875	-139.506760
57538		2.016978	-3.873397	6.852421	2.432708	3.886219	-3.104815	-1.571032	3.740315	1.863343	-0.822510	0.275635	-0.399170	0.021806	-0.037998	0.068427	0.251532	-0.420511	0.014572	-0.871602	-20.144949	-46.527577	-139.071162
57539		3.158411	-5.084466	6.751121	1.118709	4.112543	-1.861121	-1.595943	3.748111	2.005574	-0.804932	0.292236	-0.433105	0.033351	-0.049978	0.067298	0.256603	-0.405911	0.030498	-0.876619	-21.382182	-44.107489	-138.621329
57540		4.475755	-6.969220	6.278716	-0.892902	4.705949	-0.589578	-1.490345	3.658527	2.217568	-0.790039	0.302490	-0.460938	0.046668	-0.068716	0.062460	0.262698	-0.391339	0.046247	-0.880741	-22.606289	-41.685231	-138.080317
57541		6.856836	-8.988777	6.359520	-3.221490	4.846805	1.778887	-1.268189	3.470151	2.561043	-0.772217	0.322998	-0.492920	0.070804	-0.088590	0.062944	0.270650	-0.377011	0.061433	-0.883650	-23.820553	-39.274624	-137.333817
57542		9.638173	-9.454261	6.850778	-4.924063	3.295435	4.118106	-0.937705	3.240850	3.101963	-0.739014	0.345459	-0.522705	0.098927	-0.092704	0.067356	0.281545	-0.362902	0.075822	-0.885034	-25.028138	-36.846030	-136.249725
57543		12.486217	-6.253761	8.995075	-3.962313	-1.451818	6.251796	-0.789088	2.949128	3.606114	-0.706055	0.365234	-0.550781	0.127269	-0.059907	0.088326	0.294898	-0.349472	0.090031	-0.884759	-26.295758	-34.422980	-134.855350
57544		16.548423	-4.575700	9.637802	-5.358393	-5.949638	8.173126	-0.772445	2.757704	3.904475	-0.685547	0.384766	-0.559570	0.167640	-0.042131	0.094244	0.309517	-0.336544	0.104338	-0.883205	-27.579339	-31.997694	-133.323602
57545		21.080003	-1.417391	9.687768	-6.611687	-12.107941	8.890583	-0.729303	2.646421	3.897250	-0.657959	0.407471	-0.577148	0.212276	-0.009700	0.094116	0.324054	-0.323835	0.118225	-0.880990	-28.748494	-29.601708	-131.862145
57546		23.589806	3.190848	8.508621	-6.604155	-18.071254	6.581469	-0.825695	2.535771	3.595305	-0.625732	0.439453	-0.586426	0.236322	0.036497	0.081947	0.336998	-0.311788	0.131790	-0.878551	-29.813898	-27.323658	-130.623396
57547		31.723902	-3.191839	-20.675693	-33.078937	-18.701528	-10.090742	1.293750	1.123503	0.728284	-0.610352	0.431152	-0.593262	0.316180	-0.029420	-0.208731	0.341484	-0.304158	0.129170	-0.879882	-29.100079	-26.553071	-130.568183
57548		22.158694	43.540906	-26.255431	-6.189894	-47.251507	-38.175231	4.757657	-0.999632	-3.404900	-0.618408	0.377686	-0.588379	0.230299	0.437601	-0.251024	0.334262	-0.302488	0.101330	-0.886850	-25.620217	-27.955218	-132.217484
57549		57.317118	28.697604	1.880408	-18.030756	-58.683683	8.705374	1.290295	-1.643588	-3.385982	-0.612061	0.345215	-0.581787	0.577728	0.277071	0.025348	0.321992	-0.309261	0.087756	-0.890493	-24.135163	-29.621977	-133.770216
57550		82.376353	-2.680068	0.743388	-50.368776	-48.926438	33.342473	0.770711	-1.986942	-1.888759	-0.604004	0.339600	-0.572021	0.823334	-0.034627	0.015492	0.315640	-0.317655	0.078224	-0.890700	-23.385679	-31.097062	-134.382727
57551		40.701396	1.832965	2.328791	-22.107917	-26.183726	12.346594	1.047667	0.620877	-0.190745	-0.607178	0.328857	-0.581055	0.407101	0.017824	0.022118	0.316233	-0.313301	0.074261	-0.892370	-22.645401	-30.810073	-134.658184
57552		14.985807	17.172099	-5.801539	-3.526134	-23.123168	-12.258747	2.020127	-0.457404	-0.041366	-0.598389	0.316406	-0.583252	0.150023	0.172262	-0.055934	0.319392	-0.312138	0.064484	-0.892413	-21.537577	-31.059021	-134.565021
57553		15.759661	20.032596	26.295643	16.764879	-23.248740	12.981217	-0.223563	0.509001	-0.451844	-0.599365	0.314941	-0.589600	0.158717	0.200262	0.262330	0.316888	-0.310368	0.065611	-0.893840	-21.460532	-30.880942	-134.966344
57554		-5.212274	-1.904870	6.054906	5.772283	5.144454	-7.042579	-0.372197	0.206578	0.319005	-0.597656	0.323730	-0.601807	-0.052030	-0.019019	0.060638	0.317694	-0.309921	0.068125	-0.893521	-21.752799	-30.700828	-134.815380
57555		4.535566	0.901088	13.406028	5.749751	-2.504191	2.906341	-0.457446	0.057640	0.544558	-0.606689	0.322754	-0.595703	0.045369	0.009441	0.134026	0.319423	-0.310201	0.071123	-0.892572	-22.182037	-30.551820	-134.489387
57556		8.430847	-18.690775	0.972049	-14.310922	9.579503	1.358665	-0.509293	0.096527	-0.014467	-0.614502	0.331787	-0.593750	0.084300	-0.186888	0.010156	0.318560	-0.310580	0.073555	-0.892552	-22.460614	-30.500999	-134.518843
57557		6.795275	-1.042614	9.985300	1.361844	-2.679807	1.931800	-0.029865	-0.192419	-0.167731	-0.621582	0.330811	-0.592529	0.067848	-0.010468	0.099920	0.317863	-0.311547	0.073142	-0.892498	-22.453418	-30.637921	-134.568977
57558		8.021175	-2.856230	6.140111	-2.633483	-2.254977	0.095799	-0.343605	0.128992	-0.234487	-0.626953	0.339600	-0.595947	0.080218	-0.028551	0.061398	0.316260	-0.311594	0.074543	-0.892935	-22.563736	-30.618259	-134.742272
57559		7.212894	1.996323	9.367651	2.320510	-5.390196	0.643174	-0.196984	0.016836	-0.089672	-0.645508	0.333740	-0.594238	0.072146	0.020023	0.093651	0.315573	-0.311863	0.075330	-0.893018	-22.649565	-30.627476	-134.797598
57560		7.236912	1.134369	8.826421	1.546689	-4.769253	0.503674	-0.175153	-0.141502	0.100782	-0.654541	0.335938	-0.597900	0.072301	0.011457	0.088305	0.315829	-0.312724	0.076074	-0.892563	-22.803724	-30.677117	-134.695466
57561		8.365001	-1.753507	8.099287	-1.036219	-3.235913	1.461242	-0.168248	-0.224705	0.162911	-0.672852	0.336182	-0.598877	0.083573	-0.017399	0.081101	0.316405	-0.313930	0.076743	-0.891878	-22.984076	-30.757825	-134.533120
57562		7.463108	-4.307625	6.873901	-2.527545	-0.760235	0.889538	-0.133519	-0.130595	0.167056	-0.671143	0.346680	-0.595947	0.074622	-0.042968	0.068816	0.317017	-0.314651	0.077423	-0.891348	-23.134147	-30.786333	-134.392713
57563		5.780062	-3.806837	7.756040	-0.699172	-0.076943	0.558547	-0.079692	-0.152661	0.098786	-0.689209	0.343506	-0.596924	0.057760	-0.038009	0.077620	0.317418	-0.315419	0.077710	-0.890908	-23.234482	-30.842925	-134.287965
57564		6.741285	-3.933845	7.620791	-1.406983	-0.581224	0.989122	-0.078504	-0.107422	0.075118	-0.704102	0.347656	-0.594238	0.067387	-0.039283	0.076260	0.317696	-0.315985	0.078036	-0.890580	-23.321300	-30.879593	-134.209783
57565		5.631676	-2.994395	7.726565	-0.179288	-0.633663	0.184727	-0.021523	-0.117930	0.081675	-0.709473	0.353271	-0.583252	0.056283	-0.029913	0.077302	0.318099	-0.316512	0.078092	-0.890244	-23.378492	-30.921573	-134.124427
57566		6.208827	-2.939798	7.633996	-0.539131	-1.036785	0.390461	-0.000814	-0.166558	0.070128	-0.717041	0.359375	-0.587891	0.062035	-0.029376	0.076392	0.318501	-0.317219	0.077970	-0.889860	-23.427493	-30.990325	-134.033441
57567		6.375849	-3.298165	6.857750	-1.287034	-0.905065	-0.010521	0.007384	-0.146780	0.068508	-0.723877	0.367676	-0.590088	0.063719	-0.032962	0.068623	0.318901	-0.317834	0.077831	-0.889509	-23.468158	-31.050375	-133.948296
57568		4.997125	-3.494321	7.025176	-0.454745	0.114615	-0.522117	0.045360	-0.170469	0.031122	-0.732178	0.370361	-0.577393	0.049917	-0.034951	0.070286	0.319204	-0.318499	0.077435	-0.889197	-23.479181	-31.129989	-133.879979
57569		5.461686	-3.360530	7.210535	-0.536636	-0.254463	-0.181372	0.042468	-0.171555	-0.040756	-0.739502	0.377930	-0.576172	0.054548	-0.033632	0.072145	0.319184	-0.319210	0.076926	-0.888993	-23.468718	-31.227992	-133.855162
57570		5.128217	-3.471401	7.021015	-0.503456	0.038484	-0.464484	0.051132	-0.174912	-0.057689	-0.746338	0.371582	-0.579590	0.051211	-0.034747	0.070246	0.319102	-0.319920	0.076356	-0.888817	-23.448942	-31.330213	-133.840165
57571		5.269499	-2.986898	7.432622	-0.071184	-0.383756	-0.232464	0.126826	-0.244316	-0.016074	-0.753906	0.379395	-0.575928	0.052602	-0.029920	0.074372	0.319353	-0.320810	0.075395	-0.888488	-23.408250	-31.460880	-133.780759
57572		6.068592	-1.288311	7.953356	0.676227	-2.150027	0.019069	0.256765	-0.333184	0.159365	-0.767090	0.378662	-0.575195	0.060564	-0.012937	0.079618	0.320624	-0.321811	0.074007	-0.887784	-23.362762	-31.596990	-133.589732
57573		5.559851	-0.570577	8.559085	1.750317	-2.327508	-0.013994	0.293607	-0.438307	0.367407	-0.763672	0.381348	-0.570313	0.055421	-0.005730	0.085704	0.322914	-0.323150	0.072610	-0.886583	-23.378358	-31.742608	-133.241525
57574		5.057860	-2.817259	8.334134	0.755847	-0.258456	0.303560	0.123190	-0.486096	0.310488	-0.769043	0.392334	-0.556396	0.050420	-0.028146	0.083447	0.324691	-0.324983	0.071809	-0.885328	-23.481616	-31.924551	-132.915227
57575		5.026573	-4.862424	6.897501	-1.166950	1.250578	-0.140082	0.061047	-0.503859	0.122785	-0.774170	0.386230	-0.548828	0.050122	-0.048615	0.069087	0.325539	-0.327070	0.070938	-0.884317	-23.562273	-32.159776	-132.699104
57576		5.576611	-4.550863	6.940008	-1.258477	0.693022	0.082182	0.043301	-0.494930	-0.054378	-0.785645	0.398682	-0.538818	0.055582	-0.045539	0.069528	0.325570	-0.329199	0.069880	-0.883600	-23.594889	-32.429260	-132.594866
57577		6.640289	-4.465825	6.662403	-1.962457	-0.025235	0.413385	0.017309	-0.433619	-0.225966	-0.786621	0.395752	-0.537354	0.066208	-0.044739	0.066764	0.324777	-0.331166	0.068744	-0.883246	-23.575910	-32.707361	-132.613573
57578		5.781281	-4.177993	6.783805	-1.216618	0.332321	-0.050102	-0.000956	-0.354683	-0.321430	-0.787598	0.400146	-0.519287	0.057625	-0.041872	0.067941	0.323503	-0.332835	0.067669	-0.883169	-23.523729	-32.964362	-132.714014
57579		6.097177	-3.515163	7.147798	-0.794634	-0.305317	0.182217	-0.003196	-0.319869	-0.378016	-0.796143	0.398926	-0.512207	0.060791	-0.035266	0.071576	0.321962	-0.334382	0.066555	-0.883233	-23.447009	-33.217406	-132.859771
57580		6.309777	-2.830330	7.439917	-0.351360	-0.902986	0.298564	-0.002853	-0.309739	-0.382635	-0.786133	0.417236	-0.495361	0.062928	-0.028423	0.074497	0.320395	-0.335873	0.065458	-0.883319	-23.366530	-33.464494	-133.012325
57581		6.100190	-3.237255	7.289805	-0.518819	-0.427862	0.206341	0.016068	-0.354409	-0.376662	-0.780518	0.407227	-0.484375	0.060811	-0.032493	0.073003	0.318899	-0.337536	0.064205	-0.883318	-23.282410	-33.735084	-133.149530
57582		6.105436	-3.015789	7.306508	-0.371774	-0.557645	0.152599	0.027417	-0.414285	-0.412888	-0.774902	0.431152	-0.483887	0.060840	-0.030294	0.073187	0.317280	-0.339446	0.062755	-0.883274	-23.187506	-34.043670	-133.294671
57583		5.247189	-3.109124	7.886418	0.466623	0.145731	0.145020	0.059733	-0.481634	-0.411245	-0.778809	0.429443	-0.479980	0.052218	-0.031222	0.078981	0.315740	-0.341607	0.061047	-0.883111	-23.083045	-34.388719	-133.421357
57584		4.871758	-3.473741	7.927836	0.551158	0.721961	0.078018	0.094126	-0.580089	-0.446760	-0.768555	0.435303	-0.466797	0.048410	-0.034883	0.079403	0.314129	-0.344147	0.058982	-0.882840	-22.960273	-34.791877	-133.545673
57585		5.324764	-3.619457	7.484869	-0.026497	0.586062	0.042873	0.116098	-0.686941	-0.501321	-0.770996	0.452393	-0.460449	0.052899	-0.036371	0.075010	0.312341	-0.347143	0.056546	-0.882461	-22.819012	-35.264904	-133.677618
57586		5.638827	-3.594815	6.997818	-0.462381	0.401191	-0.152821	0.148557	-0.787462	-0.566053	-0.771973	0.462402	-0.464111	0.056010	-0.036159	0.070172	0.310346	-0.350534	0.053707	-0.882001	-22.648862	-35.803542	-133.826907
57587		5.622210	-3.986673	6.976752	-0.617556	0.813124	-0.059005	0.204801	-0.884688	-0.665519	-0.767090	0.463379	-0.463379	0.055780	-0.040124	0.069974	0.307731	-0.354280	0.050388	-0.881617	-22.418483	-36.417630	-134.056998
57588		5.273709	-4.960308	6.721267	-1.032087	1.873079	-0.168152	0.280721	-0.973827	-0.841706	-0.774414	0.468994	-0.460205	0.052200	-0.049918	0.067398	0.304782	-0.358338	0.046190	-0.881231	-22.086216	-37.113864	-134.346291
57589		4.977002	-4.972384	6.962462	-0.659676	2.211664	-0.187588	0.305143	-1.001332	-1.084208	-0.776611	0.469482	-0.458984	0.049150	-0.050098	0.069795	0.300675	-0.362523	0.041440	-0.881166	-21.636084	-37.876859	-134.815557
57590		5.117858	-4.317653	7.107719	-0.261124	1.765068	-0.212256	0.385615	-1.073761	-1.303211	-0.786865	0.470215	-0.448242	0.050513	-0.043644	0.071266	0.295870	-0.366924	0.035793	-0.881219	-21.047095	-38.718891	-135.412190
57591		5.245169	-4.044281	6.807632	-0.344720	1.585574	-0.454463	0.445389	-1.146173	-1.432829	-0.785156	0.482422	-0.457275	0.051769	-0.040967	0.068283	0.290597	-0.371557	0.029522	-0.881264	-20.359313	-39.622204	-136.097939
57592		3.899252	-4.299464	8.574841	1.527585	2.988277	-0.017283	0.552603	-1.422550	-1.630608	-0.806885	0.480469	-0.458740	0.038028	-0.043545	0.085901	0.284656	-0.377233	0.022019	-0.881011	-19.540806	-40.704481	-136.878728
57593		2.879022	-3.543125	9.976999	3.496504	3.354835	0.030853	0.746321	-1.988918	-1.852144	-0.824463	0.462158	-0.447266	0.027465	-0.036062	0.099914	0.278312	-0.385101	0.012351	-0.879822	-18.561501	-42.126142	-137.690531
57594		1.243407	-3.026080	12.523845	6.515356	4.514461	0.419787	1.004571	-2.787101	-2.122562	-0.841309	0.449463	-0.429688	0.010362	-0.031007	0.125238	0.271061	-0.396024	-0.000004	-0.877320	-17.369792	-44.017781	-138.595058
57595		1.174903	-2.309179	12.307071	6.910675	4.266997	-0.211328	1.455467	-3.745152	-2.438620	-0.869873	0.436035	-0.402344	0.009154	-0.024110	0.123085	0.263387	-0.410364	-0.016351	-0.872904	-15.808547	-46.471325	-139.596519
57596		2.119244	0.190621	12.812026	8.164084	2.302385	0.020105	1.992255	-4.684990	-2.672492	-0.892578	0.410889	-0.375977	0.018196	0.000370	0.128579	0.255345	-0.427792	-0.036659	-0.866284	-13.790833	-49.455449	-140.777833
57597		2.922338	0.585993	13.014648	8.352767	2.293401	0.345095	2.349445	-5.487235	-2.765694	-0.914307	0.390869	-0.336182	0.025701	0.003953	0.130938	0.247274	-0.447819	-0.059711	-0.857175	-11.379267	-52.868100	-142.145726
57598		7.640309	-0.231941	14.470520	7.186212	2.506194	4.671765	2.003636	-6.032108	-2.667355	-0.943604	0.365723	-0.288330	0.071942	-0.004763	0.146881	0.238407	-0.470124	-0.081657	-0.845859	-8.975363	-56.538089	-143.685301
57599		11.033637	-2.261155	11.728758	3.209439	3.007707	5.839135	0.921327	-6.008179	-2.130736	-0.960205	0.347656	-0.233643	0.106497	-0.024310	0.120416	0.229009	-0.493319	-0.097656	-0.833459	-7.283609	-60.117676	-145.053081
57600		10.315311	-1.524436	2.685776	-2.648504	-0.335031	0.617239	0.720012	-5.554246	-1.887343	-0.970215	0.336182	-0.193848	0.102205	-0.016315	0.029648	0.220133	-0.514498	-0.111594	-0.821206	-5.540642	-63.399348	-146.564478
57601		9.938007	2.272900	-2.656552	-4.607163	-5.380886	-2.016489	0.434987	-5.089218	-1.694731	-0.979248	0.317871	-0.147461	0.100200	0.021936	-0.023974	0.211397	-0.533782	-0.123275	-0.809439	-3.737348	-66.383616	-148.281171
57602		9.996788	2.904286	-3.815956	-5.019105	-6.147774	-2.071615	-0.162189	-4.430413	-1.395065	-0.988037	0.306396	-0.108643	0.100980	0.028311	-0.035953	0.202554	-0.550878	-0.130957	-0.798972	-2.219126	-68.958887	-150.024351
57603		12.830211	1.884642	-3.967427	-6.262628	-5.524239	0.871262	-0.602937	-3.669494	-1.097814	-0.994385	0.302490	-0.070068	0.129102	0.018024	-0.037366	0.194087	-0.565326	-0.135240	-0.790219	-1.008378	-71.077870	-151.681007
57604		14.283881	0.876652	-3.265875	-6.300605	-4.248698	2.745142	-0.672374	-2.811615	-0.847687	-1.005127	0.291016	-0.058105	0.143314	0.008054	-0.030674	0.186936	-0.576449	-0.137658	-0.783462	0.034952	-72.691631	-153.185776
57605		13.422566	-0.792843	0.127340	-3.713787	-0.947077	3.075849	-0.486992	-1.985313	-0.557246	-1.008545	0.283203	-0.021729	0.134181	-0.008297	0.002625	0.181991	-0.584269	-0.139180	-0.778549	0.834010	-73.826479	-154.312478
57606		13.165800	-1.022390	3.460289	-0.719256	0.868120	3.791854	-0.494799	-1.233354	-0.440010	-1.020020	0.283936	-0.015625	0.131418	-0.010426	0.035439	0.177991	-0.589198	-0.139624	-0.775674	1.473748	-74.526685	-155.273862
57607		14.620071	-5.081093	5.645403	-0.845902	5.374615	5.738228	-0.679395	-0.614421	-0.390571	-1.011963	0.270508	-0.003418	0.145927	-0.050903	0.057075	0.174061	-0.591910	-0.138661	-0.774673	1.927128	-74.871805	-156.148427
57608		15.311317	-8.175373	8.271370	0.014191	9.248848	7.043970	-0.847611	0.054754	-0.502477	-1.020752	0.265137	-0.002930	0.152930	-0.081787	0.083018	0.169663	-0.592078	-0.136780	-0.775854	2.482440	-74.828198	-157.228659
57609		14.081895	-10.272834	8.101851	-0.714558	11.230593	5.770441	-0.818434	0.752484	-0.725445	-1.019531	0.252930	-0.010010	0.140750	-0.102908	0.080910	0.164955	-0.589348	-0.135086	-0.779237	3.426370	-74.376032	-158.695182
57610		6.037683	-26.618204	21.981803	6.596542	32.471854	1.599644	-0.344061	1.464750	-0.305912	-1.024414	0.251953	-0.021484	0.061580	-0.265897	0.219828	0.163755	-0.583699	-0.133400	-0.784018	3.641257	-73.526495	-159.125706
57611		37.616227	-38.768117	33.699106	2.962928	44.434702	35.685295	-0.128963	2.502007	1.670858	-1.024414	0.270508	-0.031250	0.383560	-0.384282	0.332472	0.171599	-0.575047	-0.125924	-0.789948	0.297327	-72.125575	-155.704884
57612		-5.834791	-24.475138	13.193518	2.719202	28.261331	-10.776903	0.190165	3.189332	3.067712	-1.020752	0.298340	-0.062500	-0.052473	-0.245712	0.132570	0.186248	-0.564076	-0.115054	-0.796174	-4.563280	-70.230660	-150.457476
57613		-7.528528	-10.430031	14.645099	10.219516	16.523770	-11.373007	-0.025642	1.850409	3.070605	-1.014404	0.320801	-0.081787	-0.072313	-0.105407	0.147143	0.199456	-0.558409	-0.104511	-0.798420	-8.955764	-68.968037	-145.789569
57614		-3.247129	-1.420573	20.332422	17.656782	9.746328	-5.430113	-1.432972	1.101781	2.751447	-1.006348	0.347900	-0.086182	-0.031164	-0.013182	0.203595	0.207009	-0.556799	-0.089961	-0.799393	-13.405201	-68.040450	-141.892180
57615		-0.128540	-4.082810	23.860624	18.771215	12.301848	-0.742356	-2.853891	1.133416	2.220221	-0.997803	0.366455	-0.092041	0.000497	-0.037419	0.239157	0.208433	-0.556117	-0.071143	-0.801391	-17.600352	-67.071512	-139.125141
57616		1.429324	-12.571899	21.635628	13.228898	18.149226	1.310332	-3.004131	1.796390	1.547043	-0.996582	0.366699	-0.100830	0.017202	-0.122326	0.218065	0.206901	-0.552494	-0.052885	-0.805695	-20.482741	-65.806752	-137.860455
57617		-0.624900	-14.966995	19.033464	10.967975	19.535587	-0.610214	-2.015782	2.567309	0.921783	-0.986816	0.383301	-0.120605	-0.003108	-0.147760	0.191884	0.205719	-0.544392	-0.039510	-0.812254	-21.573538	-64.240334	-137.934062
57618		-3.237371	-10.747606	17.886002	12.551291	15.756607	-3.483546	-1.167562	3.032242	0.522201	-0.975342	0.376709	-0.142090	-0.029372	-0.106507	0.179944	0.205254	-0.533303	-0.030189	-0.820090	-21.532811	-62.511765	-138.729832
57619		-5.242874	-6.532559	16.963819	14.072333	11.983340	-5.779466	-1.151008	3.248127	0.404183	-0.968750	0.380615	-0.178223	-0.049530	-0.064447	0.170831	0.204326	-0.521133	-0.021004	-0.828390	-21.342694	-60.690242	-139.698784
57620		-7.145597	-7.160502	14.185665	12.293832	12.213535	-8.017375	-1.420759	3.369104	0.372198	-0.968262	0.377686	-0.205811	-0.068915	-0.070719	0.143536	0.202507	-0.508575	-0.010671	-0.836796	-21.301251	-58.811682	-140.691056
57621		-7.928879	-9.345481	11.927429	10.113766	13.752068	-8.798964	-1.429906	3.538802	0.388781	-0.949707	0.382813	-0.229248	-0.076973	-0.092743	0.121315	0.200675	-0.495126	-0.000064	-0.845328	-21.288913	-56.836539	-141.677077
57622		-8.743674	-9.762765	11.046981	9.788086	14.058605	-9.254928	-1.266036	3.825278	0.553660	-0.939697	0.368164	-0.270996	-0.085026	-0.097156	0.112728	0.199863	-0.480120	0.010528	-0.854066	-21.286243	-54.676403	-142.559847
57623		-9.830911	-9.007378	10.373229	10.160056	13.493474	-10.011062	-1.248617	4.103665	0.884087	-0.918213	0.385498	-0.295410	-0.095748	-0.089843	0.106276	0.201065	-0.463661	0.021833	-0.862621	-21.495741	-52.292946	-143.111696
57624		-10.189873	-8.269604	8.995278	9.653703	12.623862	-10.542070	-1.389252	4.340312	1.367922	-0.897217	0.386963	-0.326416	-0.099341	-0.082744	0.092702	0.203237	-0.446051	0.035384	-0.870908	-22.057246	-49.690070	-143.415776
57625		-9.389738	-8.472334	7.176545	7.886022	12.207613	-10.247905	-1.568319	4.455561	2.014547	-0.878418	0.392822	-0.358643	-0.091402	-0.085075	0.074487	0.208183	-0.427730	0.051074	-0.878122	-23.065403	-46.880793	-143.213822
57626		-7.230762	-9.012842	5.820625	5.571104	11.619216	-8.667971	-1.600022	4.461308	2.817931	-0.856201	0.400635	-0.386230	-0.069700	-0.090645	0.060504	0.215939	-0.408919	0.068778	-0.883983	-24.441684	-43.887949	-142.571211
57627		-3.994909	-7.620761	5.559182	3.934250	8.809575	-6.374373	-1.512695	4.413528	3.736754	-0.819336	0.422607	-0.418457	-0.037274	-0.076493	0.057012	0.227778	-0.389547	0.087892	-0.888057	-26.094641	-40.680438	-141.408432
57628		0.813010	-5.594837	5.547522	1.583948	4.492626	-3.486233	-1.348529	4.306783	4.574448	-0.800537	0.454834	-0.441895	0.010598	-0.055350	0.055639	0.243475	-0.369741	0.107676	-0.890178	-27.856631	-37.289118	-139.839744
57629		6.939979	-3.284324	5.393334	-1.685715	-1.079239	-0.647576	-0.972569	4.141120	5.179960	-0.785400	0.464600	-0.470947	0.071313	-0.030754	0.052623	0.261964	-0.349413	0.126747	-0.890629	-29.463515	-33.778774	-138.090323
57630		14.191740	0.066910	5.536358	-5.040442	-8.541328	1.746713	-0.417584	3.890707	5.401570	-0.760498	0.494385	-0.508545	0.142869	0.004631	0.052583	0.282699	-0.329009	0.143095	-0.889583	-30.683704	-30.295211	-136.245540
57631		22.060662	2.720413	4.796123	-9.484919	-16.107207	3.129814	0.166866	3.640679	5.218351	-0.736816	0.517090	-0.528320	0.220622	0.032923	0.043971	0.303456	-0.308644	0.156064	-0.887861	-31.403956	-26.958709	-134.550792
57632		27.688905	4.483881	2.576943	-13.647445	-21.644459	1.955482	0.803922	3.417110	4.515965	-0.714355	0.536377	-0.561768	0.276173	0.050989	0.021243	0.321976	-0.288595	0.164612	-0.886537	-31.510521	-23.934869	-133.235018
57633		30.924189	5.570990	-0.179728	-16.771179	-24.957895	-0.699662	1.254171	3.031646	3.382691	-0.697754	0.541016	-0.595947	0.308170	0.060958	-0.006103	0.336218	-0.270240	0.168817	-0.886244	-31.110492	-21.437021	-132.416780
57634		29.865198	5.108893	-2.324840	-17.534316	-24.040384	-3.650507	1.334535	2.443359	1.984684	-0.683350	0.538574	-0.622314	0.297813	0.054217	-0.026535	0.344730	-0.255444	0.169695	-0.887194	-30.446264	-19.649110	-132.135448
57635		38.173610	15.689525	-64.565383	-52.149783	-30.840512	-56.724841	5.147963	-0.898630	-3.097945	-0.688232	0.488525	-0.632324	0.387159	0.167444	-0.639702	0.338191	-0.253040	0.141322	-0.895335	-27.015839	-20.948220	-133.528549
57636		55.148740	57.316519	-28.880928	-21.037962	-78.026902	-34.813355	5.045387	-5.281137	-5.519729	-0.724121	0.431396	-0.622314	0.574259	0.564317	-0.259529	0.323274	-0.271769	0.102714	-0.900602	-23.460153	-25.030628	-135.230607
57637		61.600910	11.032801	-30.227710	-50.079030	-48.158248	-10.000788	2.174085	-8.201915	-1.799679	-0.778076	0.406006	-0.577881	0.628653	0.107800	-0.275483	0.322060	-0.305836	0.077164	-0.892629	-22.680517	-29.755089	-134.221680
57638		137.440543	29.494293	96.500212	-6.273054	-96.471039	130.544626	6.405356	-8.347659	-1.854780	-0.815918	0.379639	-0.540771	1.334771	0.250139	1.029774	0.326363	-0.333037	0.032237	-0.884044	-19.470532	-34.596700	-133.357679
57639		-44.608433	12.817933	-25.918371	17.906303	14.337764	-57.746240	-7.074702	10.415976	0.442118	-0.785645	0.407715	-0.578369	-0.459184	0.118459	-0.239793	0.314245	-0.297838	0.081161	-0.897750	-22.357459	-28.931172	-135.579212
57640		23.804204	-15.146680	22.735483	-9.037837	-1.241318	25.253449	1.998255	-3.865682	0.163695	-0.800537	0.398193	-0.555176	0.233734	-0.153566	0.230373	0.319477	-0.311903	0.066371	-0.892326	-21.745071	-30.946052	-134.515550
57641		-0.579554	11.120185	17.047309	16.476481	-7.023817	-0.127910	-0.494805	-0.785062	-0.272219	-0.805908	0.400146	-0.551025	-0.006312	0.111631	0.170173	0.317775	-0.316286	0.066915	-0.891350	-22.045563	-31.420503	-134.484359
57642		5.763231	-8.423195	2.761088	-6.175258	3.354232	-1.913078	-0.219849	-0.265476	0.215725	-0.801758	0.402588	-0.534912	0.057686	-0.084139	0.027780	0.318503	-0.317738	0.067843	-0.890503	-22.280455	-31.511947	-134.279001
57643		4.702465	-4.899788	8.410735	-0.227312	1.678017	0.864112	-0.090185	-0.347502	0.164389	-0.798340	0.416748	-0.529053	0.046919	-0.048921	0.084211	0.319236	-0.319374	0.067967	-0.889646	-22.435129	-31.659056	-134.083672
57644		11.098730	-7.207332	3.415362	-8.248310	-0.830105	1.053237	-0.129981	-0.267880	0.027776	-0.793213	0.427002	-0.520264	0.110951	-0.072036	0.034349	0.319269	-0.320755	0.068191	-0.889119	-22.558768	-31.791955	-133.993469
57645		5.746607	-4.548764	7.026443	-1.459273	0.650315	0.213940	-0.085080	-0.007636	0.005985	-0.781006	0.426758	-0.518311	0.057465	-0.045456	0.070286	0.319189	-0.320925	0.068582	-0.889057	-22.613525	-31.793524	-133.983556
57646		6.682573	-1.217021	7.949372	0.310298	-2.473203	0.341986	-0.134605	-0.084062	0.041360	-0.775146	0.437256	-0.504150	0.066795	-0.012103	0.079530	0.319212	-0.321491	0.069141	-0.888801	-22.719494	-31.826011	-133.932117
57647		8.254476	-2.625052	6.579676	-2.181693	-2.448678	0.558599	-0.138795	-0.044237	0.061859	-0.766602	0.447998	-0.506836	0.082538	-0.026179	0.065833	0.319306	-0.321890	0.069802	-0.888571	-22.828376	-31.834504	-133.877916
57648		5.634431	-3.775769	7.558997	-0.627019	0.131065	0.322959	-0.055001	-0.018496	0.077241	-0.766602	0.462891	-0.496582	0.056352	-0.037715	0.075606	0.319593	-0.322025	0.070170	-0.888390	-22.891524	-31.824240	-133.821218
57649		4.820174	-4.863578	7.672397	-0.641321	1.489905	0.342264	-0.021296	-0.043377	0.022286	-0.753662	0.468750	-0.493408	0.048191	-0.048622	0.076740	0.319700	-0.322246	0.070247	-0.888265	-22.920008	-31.841031	-133.791803
57650		6.197845	-5.011915	6.749111	-2.095279	0.689249	0.396025	0.031219	-0.058618	-0.038778	-0.754150	0.483887	-0.499756	0.061949	-0.050142	0.067501	0.319625	-0.322462	0.069981	-0.888235	-22.901294	-31.877778	-133.796651
57651		5.929202	-3.170088	7.448802	-0.541311	-0.528952	0.193147	0.050110	-0.048993	-0.016013	-0.743896	0.491699	-0.498779	0.059271	-0.031724	0.074495	0.319303	-0.322588	0.069775	-0.888321	-22.874056	-31.908496	-133.838373
57652		6.008780	-2.046429	8.522748	0.663816	-1.370462	0.704523	0.008069	-0.027700	0.025371	-0.738037	0.514404	-0.506592	0.060079	-0.020460	0.085235	0.319464	-0.322681	0.069764	-0.888230	-22.885387	-31.914630	-133.811471
57653		5.074529	-3.332389	7.948098	0.187276	0.164113	0.185608	-0.016797	0.018247	0.016412	-0.734131	0.520264	-0.521729	0.050755	-0.033313	0.079479	0.319326	-0.322613	0.069967	-0.888289	-22.899241	-31.901577	-133.828443
57654		5.473499	-4.504811	6.967222	-1.265827	0.760525	0.016554	0.010788	-0.003157	-0.027145	-0.744141	0.542480	-0.509033	0.054728	-0.045059	0.069671	0.319250	-0.322611	0.069899	-0.888322	-22.888348	-31.906456	-133.840637
57655		5.469860	-3.775088	7.278664	-0.691602	0.215886	0.017099	0.015369	0.018580	-0.015565	-0.739258	0.549316	-0.526123	0.054702	-0.037761	0.072779	0.319157	-0.322508	0.069871	-0.888395	-22.874333	-31.899419	-133.859939
57656		5.277526	-2.528215	7.725724	0.345768	-0.610592	-0.146324	0.025680	0.022018	-0.001036	-0.744141	0.559082	-0.530518	0.052784	-0.025292	0.077248	0.319213	-0.322362	0.069819	-0.888432	-22.859999	-31.885190	-133.862502
57657		4.786168	-2.997389	8.269434	0.721826	0.100867	0.174508	-0.010718	0.068970	0.013162	-0.750732	0.573975	-0.540039	0.047892	-0.029966	0.082679	0.319283	-0.322071	0.070006	-0.888498	-22.864111	-31.844459	-133.864850
57658		3.742874	-4.700671	7.345922	-0.127647	1.999263	-0.536124	-0.013575	0.075379	-0.021723	-0.759521	0.583252	-0.545410	0.037451	-0.047006	0.073448	0.319164	-0.321757	0.070181	-0.888640	-22.858122	-31.806662	-133.894243
57659		4.133404	-4.628782	7.938132	0.043167	1.753336	0.109436	0.042051	-0.038420	-0.057048	-0.765625	0.593994	-0.552246	0.041306	-0.046316	0.079380	0.319019	-0.321883	0.069857	-0.888672	-22.823645	-31.838383	-133.915456
57660		3.070785	-3.671552	8.150986	1.303394	1.679752	-0.602467	0.065057	-0.143879	-0.124028	-0.783203	0.602539	-0.550537	0.030626	-0.036761	0.081520	0.318649	-0.322453	0.069167	-0.888652	-22.769254	-31.939083	-133.951135
57661		4.082969	-3.810889	7.929693	0.509318	1.178051	-0.198832	0.089468	-0.305627	-0.231546	-0.789063	0.608154	-0.546631	0.040664	-0.038192	0.079342	0.317896	-0.323749	0.067926	-0.888546	-22.686791	-32.150530	-134.011511
57662		3.354468	-3.385805	8.789749	1.711125	1.405883	-0.062251	0.229325	-0.521053	-0.326908	-0.799072	0.609863	-0.551758	0.033260	-0.034013	0.087945	0.317017	-0.325801	0.065578	-0.888287	-22.522405	-32.495311	-134.076453
57663		2.703290	-3.011640	9.228346	2.595002	1.608426	-0.209645	0.144873	-0.776178	-0.349243	-0.810547	0.614258	-0.548096	0.026622	-0.030230	0.092365	0.315980	-0.329131	0.063152	-0.887604	-22.432929	-32.981362	-134.089970
57664		3.827660	-1.739882	9.316199	2.712603	0.015656	0.041753	0.201308	-1.111519	-0.463191	-0.834473	0.618164	-0.537354	0.037718	-0.017581	0.093355	0.314627	-0.333878	0.059768	-0.886546	-22.319539	-33.668485	-134.089571
57665		3.794045	-1.085521	9.767846	3.438673	-0.331550	0.139582	0.152189	-1.372818	-0.418532	-0.859619	0.616211	-0.534424	0.037246	-0.011008	0.097927	0.313454	-0.339840	0.056251	-0.884924	-22.287323	-34.485748	-133.992877
57666		4.254842	-0.886108	9.332504	3.108671	-0.692572	-0.022982	0.204625	-1.699445	-0.323667	-0.862793	0.612793	-0.516357	0.041739	-0.009025	0.093673	0.312862	-0.347109	0.052159	-0.882560	-22.312541	-35.454202	-133.747347
57667		4.464380	-0.809356	9.294439	3.135059	-0.744116	0.015160	0.289918	-1.946732	-0.187946	-0.875732	0.615967	-0.500488	0.043729	-0.008270	0.093361	0.313054	-0.355277	0.047523	-0.879498	-22.385284	-36.525231	-133.342129
57668		5.404368	-1.683819	7.963654	1.437463	-0.634836	-0.169591	0.340821	-2.146140	-0.116879	-0.900879	0.611084	-0.487793	0.053175	-0.017006	0.080181	0.313663	-0.364181	0.042485	-0.875890	-22.502526	-37.684501	-132.826982
57669		5.748439	-3.006816	7.030251	0.096210	0.224222	-0.249910	0.468752	-2.351562	-0.078938	-0.907959	0.606934	-0.476318	0.056641	-0.030256	0.070901	0.314673	-0.373734	0.036614	-0.871759	-22.612601	-38.944554	-132.217340
57670		6.123732	-3.356293	6.714405	-0.341738	0.384446	-0.139045	0.532063	-2.480167	-0.131976	-0.924561	0.607422	-0.458496	0.060377	-0.033783	0.067807	0.315546	-0.383694	0.030174	-0.867352	-22.707575	-40.282214	-131.593006
57671		5.946204	-4.318352	6.297999	-0.889279	1.334128	-0.268286	0.572305	-2.564225	-0.212569	-0.934326	0.617432	-0.443604	0.058603	-0.043428	0.063611	0.316106	-0.393909	0.023254	-0.862770	-22.779029	-41.682685	-130.985161
57672		5.980008	-4.292170	6.706261	-0.459937	1.553055	0.012220	0.653635	-2.644737	-0.344582	-0.945557	0.609131	-0.418945	0.058833	-0.043244	0.067704	0.316210	-0.404282	0.015604	-0.858093	-22.778996	-43.153442	-130.432587
57673		5.867367	-4.537990	6.491191	-0.541439	1.958355	-0.167932	0.717220	-2.748599	-0.531051	-0.975098	0.606445	-0.402832	0.057655	-0.045768	0.065545	0.315586	-0.414939	0.007126	-0.853335	-22.687913	-44.721913	-129.972748
57674		5.571317	-5.067616	6.145632	-0.794114	2.673673	-0.501202	0.838530	-2.971618	-0.807792	-0.981934	0.609131	-0.377930	0.054588	-0.051158	0.062059	0.313970	-0.426265	-0.002786	-0.848359	-22.443251	-46.468965	-129.645127
57675		5.623803	-4.712744	6.879998	0.047184	2.823699	-0.159393	1.023790	-3.351092	-1.143374	-0.997314	0.595703	-0.351807	0.054806	-0.047798	0.069483	0.311225	-0.438784	-0.014805	-0.842845	-21.991323	-48.492525	-129.463553
57676		4.158837	-4.683128	8.259255	1.837178	4.283563	-0.555058	1.164454	-3.765445	-1.497041	-1.012939	0.584961	-0.314453	0.039673	-0.047616	0.083076	0.307147	-0.452627	-0.028819	-0.836635	-21.328681	-50.811442	-129.459749
57677		3.806356	-3.950160	9.425129	3.393082	4.626334	-0.539805	1.255572	-4.234148	-1.908668	-1.031250	0.564697	-0.283936	0.035678	-0.040444	0.094772	0.301329	-0.468004	-0.044861	-0.829555	-20.411495	-53.466172	-129.711273
57678		4.745735	-3.112367	9.343008	3.612719	3.933516	-0.276060	1.332168	-4.748641	-2.207982	-1.058350	0.551758	-0.231201	0.044873	-0.032255	0.094304	0.294137	-0.485022	-0.062657	-0.821165	-19.274665	-56.452166	-130.169273
57679		6.761904	-1.217336	11.276181	5.644187	2.830458	1.782245	1.204834	-5.093424	-2.376817	-1.075439	0.522949	-0.187256	0.064564	-0.013639	0.114353	0.285606	-0.503215	-0.080806	-0.811587	-18.017199	-59.651002	-130.838415
57680		10.594419	-2.273465	8.878498	2.307870	1.885621	3.873083	1.096889	-5.343451	-2.139974	-1.088867	0.499512	-0.132324	0.103270	-0.024346	0.091438	0.277424	-0.522247	-0.098201	-0.800406	-16.940158	-62.936981	-131.351408
57681		11.618439	1.263453	9.783645	5.105036	-0.325661	4.542767	0.461423	-5.338945	-1.453014	-1.096924	0.483643	-0.087646	0.113604	0.011572	0.100920	0.270107	-0.542057	-0.111183	-0.787944	-16.878985	-66.104082	-131.127534
57682		10.679713	-0.784035	8.201798	3.495861	1.472998	3.129697	-0.100738	-5.323990	-1.037850	-1.098389	0.475586	-0.030762	0.104521	-0.008344	0.084825	0.262708	-0.562388	-0.120713	-0.774682	-17.776194	-69.190759	-130.222060
57683		13.112906	-1.248305	8.085159	3.148990	1.646356	5.227050	-0.180869	-5.245200	-0.802197	-1.092773	0.468994	0.024658	0.128898	-0.012928	0.084263	0.255853	-0.582258	-0.129088	-0.760823	-19.378432	-72.184181	-128.635874
57684		12.874233	-1.874503	8.681037	3.934734	2.990899	5.024622	-0.349773	-4.758672	-0.370740	-1.092041	0.458496	0.078125	0.126593	-0.018826	0.089873	0.250300	-0.600400	-0.134851	-0.747452	-22.187554	-74.806662	-125.917651
57685		12.619243	-0.988448	6.651694	3.307921	1.648861	3.999405	-0.541168	-4.329801	-0.091010	-1.086914	0.458496	0.123291	0.124708	-0.009757	0.069254	0.245373	-0.617052	-0.138461	-0.734756	-26.398027	-77.088253	-121.899135
57686		13.243548	-2.250817	8.699729	4.795536	3.906998	4.947049	-0.846005	-3.741015	0.134664	-1.070801	0.453125	0.160645	0.130791	-0.022045	0.089548	0.240642	-0.631813	-0.139465	-0.723501	-32.150092	-78.919033	-116.516878
57687		13.080713	-0.989051	5.277296	3.033537	1.361028	3.929941	-0.909469	-3.268345	-0.006823	-1.070801	0.448975	0.188721	0.129921	-0.009648	0.054945	0.235446	-0.644633	-0.140080	-0.713717	-38.626176	-80.447109	-110.466139
57688		16.929135	-2.321295	8.516984	5.322150	3.713722	8.142364	-1.227928	-2.527290	0.019065	-1.060303	0.440430	0.211670	0.168198	-0.022665	0.087440	0.229780	-0.655047	-0.138561	-0.706339	-45.511199	-81.512539	-104.209479
57689		9.373949	-5.249404	6.843423	3.015972	6.594229	0.659821	-1.168047	-1.799677	-0.250641	-1.051758	0.429443	0.234375	0.093051	-0.052207	0.069579	0.223823	-0.662531	-0.137286	-0.701505	-50.926128	-82.303935	-99.417678
57690		4.801251	-10.858586	5.358124	-0.792148	11.375296	-3.516344	-0.536248	-0.894043	-0.423511	-1.043945	0.410889	0.249512	0.047542	-0.108542	0.054086	0.219961	-0.665965	-0.137770	-0.699376	-53.196436	-82.806251	-97.439700
57691		24.684284	-25.064985	45.376792	26.632443	40.861018	20.480595	0.913437	-0.415233	-0.324362	-1.043701	0.411621	0.239990	0.245492	-0.253119	0.453126	0.221594	-0.666177	-0.142465	-0.697716	-53.323650	-83.093667	-96.785741
57692		3.602494	-18.186033	35.062580	20.925113	32.590083	-1.273090	1.513075	3.869362	0.118368	-1.046631	0.413818	0.204590	0.042889	-0.184478	0.348451	0.229771	-0.650944	-0.142995	-0.709246	-40.778484	-81.521324	-108.569823
57693		-11.628592	-11.624028	19.780346	11.583852	21.595422	-17.623426	1.529191	3.716524	-0.490143	-1.056885	0.418457	0.159180	-0.112882	-0.117480	0.199027	0.235638	-0.635516	-0.145670	-0.720677	-30.868302	-79.949221	-117.723874
57694		-3.293018	-6.592506	25.473630	18.375135	19.047847	-8.178408	0.352384	3.841641	-0.670319	-1.065186	0.402832	0.123779	-0.028253	-0.066275	0.255192	0.237113	-0.620649	-0.144480	-0.733279	-23.695821	-78.162550	-124.824127
57695		-0.810246	-11.434835	22.495123	13.076840	21.050214	-4.990644	-1.102540	4.196423	-0.370759	-1.072998	0.399414	0.076416	-0.003582	-0.113096	0.225684	0.235329	-0.606142	-0.136531	-0.747376	-19.611824	-75.999158	-129.663841
57696		1.427707	-16.933838	18.858558	6.996421	23.222058	-2.319444	-1.696734	4.667322	-0.049358	-1.072754	0.389648	0.027100	0.018653	-0.167737	0.189612	0.233135	-0.590478	-0.124772	-0.762506	-17.390325	-73.468582	-132.975419
57697		1.866322	-18.579305	15.374738	3.302937	22.600744	-1.857278	-1.562332	5.068593	0.239410	-1.066650	0.397705	-0.032227	0.022797	-0.184562	0.154650	0.232538	-0.572900	-0.112104	-0.777910	-16.119444	-70.642024	-135.254679
57698		1.151510	-16.166016	14.076447	3.627928	19.795830	-2.348605	-1.363930	5.283366	0.548852	-1.060791	0.395752	-0.083740	0.015688	-0.160658	0.141485	0.233661	-0.554028	-0.099008	-0.792876	-15.538886	-67.641270	-136.713774
57699		0.449120	-12.264050	13.712743	5.395305	16.098071	-2.718536	-1.510527	5.315923	0.852672	-1.049805	0.405518	-0.136230	0.008669	-0.121570	0.137855	0.235423	-0.534904	-0.084349	-0.807056	-15.632063	-64.569968	-137.562126
57700		0.451254	-8.803690	13.595225	6.907199	12.632328	-2.383697	-1.990152	5.275945	1.120090	-1.036865	0.403809	-0.190186	0.008599	-0.086639	0.136628	0.236769	-0.516208	-0.067046	-0.820351	-16.356836	-61.484865	-138.030424
57701		-0.063221	-6.609563	12.267741	7.003692	9.949224	-3.023420	-2.537976	5.228865	1.339369	-1.020020	0.417480	-0.239746	0.003025	-0.064520	0.123456	0.237387	-0.497960	-0.046897	-0.832757	-17.579692	-58.388759	-138.302400
57702		-0.469280	-5.593765	10.493635	6.193198	8.190008	-3.799956	-2.857710	5.115454	1.477513	-1.002686	0.435547	-0.287598	-0.001588	-0.054449	0.105789	0.237538	-0.480169	-0.025196	-0.844025	-19.044920	-55.337797	-138.510406
57703		-0.376198	-3.596069	9.195973	5.965784	5.615381	-4.291213	-2.915996	4.982965	1.682307	-0.977295	0.458008	-0.324219	-0.001166	-0.034631	0.092522	0.238185	-0.462569	-0.002859	-0.853985	-20.639864	-52.317950	-138.609766
57704		0.600229	-1.359352	7.598450	5.120218	2.490310	-4.567802	-2.903490	4.803971	2.106181	-0.959229	0.475098	-0.367188	0.007963	-0.012413	0.075995	0.240448	-0.445332	0.020162	-0.862240	-22.446745	-49.311982	-138.427675
57705		-0.134744	-19.665648	-20.312006	-23.521831	13.716833	-17.421543	1.111533	4.052746	3.240011	-0.933350	0.492188	-0.401123	-0.002304	-0.195556	-0.204169	0.256424	-0.426006	0.027514	-0.867184	-22.726902	-46.447250	-137.197036
57706		13.720768	41.523919	35.704334	37.364984	-36.750505	11.172377	-1.254333	3.623880	3.996394	-0.899902	0.524414	-0.434570	0.135252	0.420173	0.351956	0.270506	-0.411182	0.046130	-0.869269	-24.713653	-43.622066	-135.408110
57707		-6.353551	21.609520	-1.042927	11.805574	-14.930763	-21.896260	-3.978771	4.029922	4.232858	-0.859863	0.562988	-0.456543	-0.068336	0.214436	-0.013362	0.279651	-0.397777	0.077600	-0.870372	-28.034200	-40.468254	-133.860405
57708		2.072198	5.018077	-4.024045	-1.919293	-5.570585	-13.120565	-2.445182	3.563683	3.150488	-0.814697	0.594727	-0.473633	0.019205	0.049991	-0.041204	0.287038	-0.384316	0.099490	-0.871787	-29.919719	-37.804380	-133.096106
57709		13.955899	2.353564	-0.104110	-6.687838	-10.113924	-2.514163	0.273112	3.451063	2.596690	-0.775635	0.615234	-0.510010	0.139192	0.025348	-0.003411	0.297125	-0.367457	0.108271	-0.874625	-29.991028	-35.340517	-132.718132
57710		20.812899	5.265251	4.050584	-6.458890	-16.764675	2.616400	2.050200	3.630209	2.638305	-0.744873	0.600586	-0.537109	0.208110	0.055005	0.037284	0.310397	-0.346988	0.109542	-0.878210	-29.016810	-32.782669	-132.363051
57711		24.948279	4.058569	3.248609	-10.170556	-18.843601	4.001585	2.787708	3.796149	2.705073	-0.702637	0.599854	-0.566895	0.249471	0.043546	0.028344	0.324943	-0.324345	0.107892	-0.881800	-27.625975	-30.125604	-131.971086
57712		30.402018	0.065595	-0.294883	-17.907189	-19.910200	4.579140	3.236354	3.874766	2.530876	-0.653809	0.599365	-0.590576	0.303846	0.004613	-0.008784	0.339154	-0.300502	0.104008	-0.885356	-25.936576	-27.487332	-131.631874
57713		30.470697	0.219072	-6.057449	-21.510490	-20.752335	-1.347108	3.558580	3.738095	2.220705	-0.627930	0.571289	-0.617188	0.303447	0.006709	-0.066162	0.352278	-0.276614	0.097929	-0.888704	-24.022860	-25.002619	-131.351927
57714		45.851778	77.210448	-74.539694	-26.359487	-90.469669	-78.646767	0.973410	-2.203644	-4.092283	-0.640625	0.531738	-0.594238	0.482381	0.765995	-0.736431	0.336449	-0.286608	0.084064	-0.893080	-22.660584	-27.088210	-133.187562
57715		104.163903	-16.909915	-3.443367	-74.144215	-51.026000	45.273078	-1.009655	-8.252552	-8.088589	-0.681641	0.499512	-0.558594	1.033882	-0.211059	0.009345	0.301731	-0.328029	0.063012	-0.892964	-21.785297	-33.216911	-136.089750
57716		72.093392	-22.334501	-29.159091	-73.265784	-26.666274	11.770196	-0.544178	5.912731	2.409286	-0.659668	0.522461	-0.616699	0.714535	-0.215542	-0.312187	0.309603	-0.301519	0.078307	-0.898388	-22.109609	-29.555966	-136.069250
57717		-55.601439	16.546609	95.770553	99.371977	27.475953	33.834152	4.468597	-3.563209	-0.164983	-0.680664	0.520264	-0.605469	-0.572874	0.144634	0.950985	0.317089	-0.310550	0.052419	-0.894576	-19.934485	-31.491890	-135.292177
57718		-10.085364	5.093805	-9.455928	3.297290	1.198726	-24.122032	-3.410010	2.678448	-0.771411	-0.680176	0.531738	-0.625488	-0.101922	0.049723	-0.094054	0.307592	-0.304096	0.070734	-0.898838	-21.322126	-30.208668	-136.399751
57719		30.245710	-0.355959	8.478876	-14.017413	-17.188415	12.433337	-0.372618	-0.826847	-0.266840	-0.694092	0.545898	-0.626221	0.302098	-0.003803	0.086045	0.306274	-0.308465	0.070719	-0.897800	-21.557228	-30.701187	-136.343879
57720		0.985975	-6.757905	8.517045	1.072732	5.375277	-0.371452	-0.137893	-0.441561	-0.142003	-0.709717	0.546875	-0.639160	0.009624	-0.067527	0.085238	0.305605	-0.310699	0.070471	-0.897277	-21.650405	-30.963603	-136.319611
57721		9.017260	0.208206	10.739752	0.974329	-4.835817	3.315986	-0.166565	-0.052749	0.132091	-0.725586	0.555420	-0.633057	0.090143	0.002231	0.107419	0.305985	-0.311133	0.071356	-0.896927	-21.796619	-30.961318	-136.221156
57722		4.269159	-3.761057	7.863453	0.197000	0.973467	-0.157705	-0.104196	-0.059722	0.040550	-0.734619	0.557373	-0.653320	0.042676	-0.037561	0.078667	0.306052	-0.311537	0.071823	-0.896726	-21.880629	-30.981659	-136.177282
57723		9.459954	-1.317622	6.850736	-2.376247	-4.138424	0.929114	-0.169540	-0.122402	0.053503	-0.741455	0.569824	-0.642578	0.094561	-0.013093	0.068576	0.306099	-0.312316	0.072493	-0.896386	-22.012411	-31.032923	-136.110144
57724		6.631218	-0.613568	9.220245	1.175939	-2.896728	1.122964	-0.181716	0.006162	0.259373	-0.757813	0.573242	-0.648926	0.066323	-0.005966	0.092206	0.307002	-0.312463	0.073750	-0.895923	-22.202185	-30.970931	-135.947201
57725		5.630444	-4.241052	6.889690	-1.429464	0.436188	-0.069867	-0.237661	-0.026443	0.239832	-0.771484	0.573975	-0.644531	0.056346	-0.042261	0.068955	0.307741	-0.312847	0.075160	-0.895418	-22.419721	-30.930539	-135.788908
57726		6.984310	-2.309629	7.361042	-0.982375	-1.913292	0.369361	-0.159733	-0.123599	0.193357	-0.778320	0.586670	-0.649658	0.069820	-0.022970	0.073672	0.308430	-0.313565	0.076016	-0.894857	-22.592548	-30.950740	-135.634138
57727		7.166964	-3.947100	6.969181	-2.138493	-0.757314	0.692917	-0.129329	-0.078439	0.210582	-0.782715	0.578613	-0.641602	0.071684	-0.039350	0.069745	0.309225	-0.314026	0.076816	-0.894353	-22.745490	-30.943496	-135.480778
57728		4.387208	-6.471486	6.444145	-2.024878	2.876372	-0.311054	-0.064639	0.038651	0.178500	-0.791260	0.590820	-0.643799	0.043942	-0.064655	0.064454	0.309934	-0.313875	0.077473	-0.894104	-22.837540	-30.880629	-135.377060
57729		4.438319	-5.832790	6.932416	-1.436832	2.352036	-0.107949	-0.029977	0.035294	0.043721	-0.798096	0.582031	-0.631104	0.044408	-0.058308	0.069325	0.310095	-0.313738	0.077743	-0.894072	-22.865647	-30.850060	-135.355933
57730		3.939804	-4.993603	7.156425	-0.574260	1.994483	-0.465773	0.039877	0.030410	-0.012634	-0.803711	0.586182	-0.629150	0.039406	-0.049953	0.071548	0.310116	-0.313536	0.077621	-0.894147	-22.838462	-30.833979	-135.367770
57731		4.354556	-3.721025	7.461363	-0.002419	0.753045	-0.436492	0.056615	0.002111	-0.083477	-0.800049	0.583252	-0.631104	0.043531	-0.037250	0.074603	0.309857	-0.313462	0.077254	-0.894294	-22.781386	-30.849159	-135.416251
57732		3.640519	-3.892935	7.850090	0.581441	1.351407	-0.438902	0.074424	-0.041666	-0.109662	-0.800537	0.595215	-0.628906	0.036367	-0.038979	0.078494	0.309526	-0.313567	0.076713	-0.894418	-22.713315	-30.892640	-135.469185
57733		4.383721	-3.047826	8.121209	0.721493	0.262490	-0.123993	0.080167	-0.153075	-0.149369	-0.806885	0.591553	-0.625977	0.043752	-0.030544	0.081233	0.309069	-0.314175	0.075898	-0.894433	-22.642326	-31.004274	-135.518410
57734		3.606428	-2.945163	9.109278	1.858074	0.727576	0.221125	0.109318	-0.205868	-0.126349	-0.810303	0.598389	-0.630127	0.035952	-0.029524	0.091114	0.308780	-0.314966	0.074921	-0.894337	-22.570455	-31.138171	-135.539663
57735		2.089979	-3.346505	9.191267	2.641642	1.989729	-0.372926	0.131420	-0.260709	-0.191703	-0.814697	0.590088	-0.624023	0.020748	-0.033545	0.091918	0.308253	-0.315991	0.073643	-0.894263	-22.470350	-31.315895	-135.588003
57736		4.583214	-2.209963	8.258539	1.138795	-0.432736	-0.189332	0.140025	-0.358631	-0.256411	-0.825195	0.597656	-0.631836	0.045656	-0.022216	0.082652	0.307486	-0.317464	0.072088	-0.894132	-22.358741	-31.559059	-135.651489
57737		4.536325	-3.373007	7.918668	0.393378	0.545968	-0.106623	0.135683	-0.417384	-0.277573	-0.828125	0.603516	-0.624268	0.045151	-0.033847	0.079258	0.306636	-0.319210	0.070413	-0.893936	-22.248204	-31.838277	-135.714367
57738		5.380410	-1.472947	8.529616	1.240158	-1.388614	0.207601	0.150221	-0.547515	-0.217780	-0.829346	0.609619	-0.630615	0.053554	-0.014852	0.085432	0.306120	-0.321493	0.068583	-0.893436	-22.167836	-32.173072	-135.706875
57739		4.555028	-3.903842	7.755495	0.074828	1.040175	-0.063422	0.069781	-0.509815	-0.208774	-0.841553	0.607666	-0.625244	0.045312	-0.039113	0.077657	0.305500	-0.323724	0.067170	-0.892951	-22.129461	-32.486322	-135.704283
57740		5.473667	-3.420830	7.820676	-0.161268	0.160757	0.325059	0.105878	-0.558943	-0.242324	-0.852051	0.614990	-0.622803	0.054476	-0.034316	0.078341	0.304802	-0.326129	0.065480	-0.892439	-22.067417	-32.832486	-135.710048
57741		5.466398	-3.869450	7.439233	-0.582481	0.545945	0.165221	0.118133	-0.565125	-0.278864	-0.865967	0.614258	-0.615479	0.054399	-0.038814	0.074523	0.303960	-0.328550	0.063651	-0.891970	-21.984508	-33.190160	-135.738472
57742		5.476709	-3.602592	7.055743	-0.658835	0.344750	-0.210436	0.137103	-0.593728	-0.319963	-0.880859	0.614746	-0.624023	0.054500	-0.036162	0.070695	0.302972	-0.331082	0.061640	-0.891512	-21.881545	-33.571412	-135.785982
57743		5.000632	-3.425561	7.615735	0.102510	0.585750	-0.097432	0.134486	-0.629284	-0.339630	-0.894287	0.604980	-0.618164	0.049708	-0.034391	0.076291	0.301899	-0.333775	0.059541	-0.891014	-21.775561	-33.976071	-135.838581
57744		4.830005	-3.213103	8.209756	0.725565	0.631744	0.193659	0.168807	-0.697558	-0.369105	-0.916748	0.604980	-0.604248	0.047954	-0.032289	0.082238	0.300767	-0.336727	0.057148	-0.890442	-21.649795	-34.422854	-135.893337
57745		4.963624	-3.059705	7.967917	0.615417	0.477296	0.030068	0.176173	-0.792649	-0.418032	-0.937744	0.599609	-0.598389	0.049256	-0.030771	0.079848	0.299452	-0.340097	0.054484	-0.889772	-21.512642	-34.930852	-135.957585
57746		5.254309	-2.349492	8.233125	1.019833	-0.157320	0.179632	0.218119	-0.942017	-0.451292	-0.945801	0.599609	-0.584717	0.052101	-0.023703	0.082552	0.298094	-0.344072	0.051364	-0.888885	-21.361096	-35.524997	-136.006651
57747		5.631688	-2.693328	7.604867	0.289919	-0.068302	0.021640	0.246623	-1.104549	-0.470271	-0.967285	0.591553	-0.581055	0.055832	-0.027159	0.076325	0.296732	-0.348717	0.047828	-0.887727	-21.206736	-36.210069	-136.029520
57748		5.143014	-2.977190	7.793483	0.630293	0.564039	-0.048688	0.296151	-1.275403	-0.475353	-0.987305	0.592773	-0.558594	0.050861	-0.030009	0.078216	0.295462	-0.354037	0.043821	-0.886250	-21.048216	-36.987133	-136.013697
57749		5.078915	-3.518049	7.571172	0.339867	1.133341	-0.112552	0.367609	-1.500666	-0.564619	-0.997559	0.576172	-0.541504	0.050120	-0.035462	0.076024	0.293955	-0.360245	0.038991	-0.884474	-20.844111	-37.903353	-136.003573
57750		5.283086	-3.659008	7.341412	0.097657	1.246036	-0.136394	0.466191	-1.718890	-0.743594	-1.019043	0.561768	-0.527100	0.052061	-0.036956	0.073778	0.291854	-0.367282	0.033091	-0.882514	-20.541279	-38.972506	-136.063809
57751		5.263486	-4.318886	7.100520	-0.272574	1.934773	-0.171480	0.587499	-1.965657	-0.950520	-1.033203	0.549805	-0.500488	0.051728	-0.043645	0.071389	0.289070	-0.375222	0.025901	-0.880327	-20.108541	-40.215354	-136.215292
57752		5.377441	-4.419053	6.830232	-0.452743	2.115000	-0.304099	0.747228	-2.309214	-1.204506	-1.053223	0.533447	-0.466309	0.052714	-0.044766	0.068749	0.285468	-0.384421	0.017042	-0.877746	-19.510719	-41.691365	-136.476769
57753		4.797444	-4.186720	7.506054	0.562412	2.589867	-0.333579	0.952782	-2.636932	-1.402045	-1.067627	0.515381	-0.425293	0.046684	-0.042556	0.075480	0.281361	-0.394696	0.006420	-0.874648	-18.725521	-43.379565	-136.831466
57754		4.910148	-3.868959	7.827891	1.016278	2.620131	-0.197807	1.174860	-2.968290	-1.595279	-1.086426	0.487061	-0.392822	0.047622	-0.039535	0.078762	0.276779	-0.406006	-0.006012	-0.870928	-17.729003	-45.278269	-137.296557
57755		4.944198	-3.187625	7.893439	1.521245	2.372198	-0.380945	1.456765	-3.336033	-1.783873	-1.098145	0.469727	-0.347900	0.047829	-0.032885	0.079504	0.271835	-0.418371	-0.020570	-0.866400	-16.462956	-47.403283	-137.893549
57756		5.299966	-2.823668	7.902300	1.682491	2.280477	-0.301612	1.711650	-3.742704	-2.032897	-1.117432	0.433350	-0.312256	0.051217	-0.029444	0.079744	0.266178	-0.431932	-0.037287	-0.860926	-14.872822	-49.780190	-138.708037
57757		5.521920	-3.157393	7.518405	1.303261	2.782679	-0.457248	1.900257	-4.193709	-2.313668	-1.127930	0.400635	-0.255127	0.053255	-0.032917	0.076006	0.259477	-0.446871	-0.056008	-0.854308	-12.908007	-52.428715	-139.834097
57758		4.810177	-2.625067	8.354910	2.692708	3.341104	-0.790873	2.018950	-4.586898	-2.600064	-1.134766	0.366699	-0.201904	0.045819	-0.027705	0.084343	0.251519	-0.462932	-0.076335	-0.846525	-10.489438	-55.302326	-141.397718
57759		5.419132	-1.588000	7.324678	2.362378	2.346714	-1.185724	2.089101	-5.018275	-2.957254	-1.133301	0.330811	-0.145752	0.052084	-0.017434	0.074395	0.241826	-0.480185	-0.098269	-0.837428	-7.419536	-58.404548	-143.634506
57760		5.517605	-1.143423	6.883194	2.416347	2.261995	-1.557666	2.204448	-5.407764	-3.169733	-1.128662	0.298340	-0.083008	0.053093	-0.013055	0.070148	0.231082	-0.498334	-0.121557	-0.826733	-3.541479	-61.661499	-146.653173
57761		8.362534	-0.230235	6.590162	1.781952	1.194524	0.616425	2.260778	-5.796827	-3.256692	-1.136719	0.253662	-0.009033	0.081609	-0.004405	0.068245	0.219611	-0.517387	-0.145609	-0.814174	1.337098	-65.018076	-150.661372
57762		9.441239	-0.571324	7.544265	2.282896	2.406108	1.820029	2.255839	-5.815313	-2.985554	-1.120361	0.224854	0.062744	0.092060	-0.007970	0.078061	0.208953	-0.536096	-0.168776	-0.800284	7.135930	-68.216211	-155.569908
57763		9.529475	1.507756	7.797453	3.889101	1.459145	1.873701	2.144440	-5.861545	-2.711319	-1.095215	0.206543	0.126465	0.093138	0.012948	0.080872	0.198806	-0.554703	-0.190620	-0.785140	14.171892	-71.232426	-161.758870
57764		12.042392	-1.126525	9.528429	3.538768	5.107643	4.272083	1.958175	-5.865989	-2.502087	-1.068359	0.183105	0.192627	0.117402	-0.013702	0.098631	0.188737	-0.573089	-0.210934	-0.769061	23.044620	-73.966893	-169.879238
57765		9.433208	3.174508	7.783242	5.568848	1.396226	1.440229	1.798404	-5.800148	-2.052286	-1.048340	0.158447	0.254150	0.092331	0.030073	0.080805	0.179804	-0.591228	-0.229062	-0.752097	33.953348	-76.335274	179.903880
57766		11.438871	2.216192	8.213463	5.370794	3.065570	3.029101	1.248663	-5.879163	-1.903398	-1.018799	0.152832	0.321777	0.112107	0.020560	0.085585	0.169537	-0.609740	-0.244519	-0.734632	48.097917	-78.175416	166.138962
57767		15.917726	-0.261515	4.623379	0.771775	4.006012	6.252311	1.104987	-5.971957	-1.707464	-0.981689	0.142090	0.385254	0.157671	-0.004238	0.050937	0.159266	-0.628341	-0.258692	-0.716171	65.811730	-79.234632	148.725223
57768		19.975668	-0.874219	5.204139	0.974152	6.039731	9.918775	0.925964	-5.573416	-1.248269	-0.940674	0.142334	0.433838	0.198143	-0.010240	0.057533	0.150450	-0.645685	-0.270222	-0.698166	83.719879	-79.389089	131.044016
57769		21.462242	-0.464624	7.749964	3.917491	8.126487	11.149399	0.256687	-4.987771	-0.653911	-0.912109	0.138916	0.473633	0.212584	-0.005448	0.082812	0.142225	-0.661810	-0.276862	-0.682003	98.791041	-78.951483	115.850600
57770		21.933692	-0.815232	11.119064	7.258908	10.897574	11.016651	-0.802989	-3.814750	-0.031664	-0.892822	0.129883	0.501709	0.217162	-0.007729	0.115378	0.134170	-0.675223	-0.276853	-0.670392	108.924726	-78.412321	105.046258
57771		11.376229	-3.000450	11.945841	7.874101	11.222135	-0.160431	-1.729900	-2.534172	-0.128084	-0.869141	0.126953	0.516113	0.112216	-0.029034	0.121141	0.124393	-0.684617	-0.273116	-0.664255	114.216086	-77.813759	98.624139
57772		2.393127	-5.923240	4.312357	0.443590	7.655793	-9.040010	-1.902556	-1.670434	-0.599015	-0.863037	0.114502	0.530518	0.023390	-0.058888	0.043882	0.113616	-0.690476	-0.269828	-0.661459	116.357666	-77.098627	95.311756
57773		5.505829	-9.952982	1.390513	-4.064212	10.235002	-6.645296	-0.598343	-2.262580	-0.855049	-0.846680	0.109863	0.541260	0.054468	-0.099720	0.014822	0.105677	-0.697086	-0.272024	-0.654909	119.836188	-76.060279	91.380919
57774		53.928107	-29.807749	43.153807	21.561551	59.289985	31.159650	-0.549505	-0.600780	0.820730	-0.845947	0.108398	0.538574	0.539194	-0.294675	0.433971	0.105647	-0.700452	-0.267641	-0.653126	121.703330	-76.292495	89.132085
57775		21.872469	-24.084379	22.014400	6.566977	35.992119	4.483485	-0.094828	2.322571	2.618790	-0.876709	0.135498	0.500732	0.224390	-0.237827	0.217673	0.116981	-0.696308	-0.256838	-0.659927	119.990998	-78.269943	90.828620
57776		0.899893	-18.612287	8.570689	-2.274827	20.175101	-12.715409	0.943814	2.772600	2.662631	-0.910889	0.164063	0.483643	0.012658	-0.186372	0.084669	0.132605	-0.689894	-0.248975	-0.666689	116.987809	-80.373807	94.432684
57777		0.612009	-9.894699	8.881906	2.314953	13.038608	-11.148453	1.623263	2.462264	2.120675	-0.934326	0.197998	0.453857	0.008260	-0.099583	0.087920	0.148346	-0.683128	-0.245333	-0.671670	112.940686	-82.080296	99.465049
57778		2.788108	-3.763059	11.522657	7.587504	9.686499	-7.996750	1.244579	2.104075	1.804654	-0.952637	0.213867	0.426758	0.029432	-0.038084	0.114686	0.161237	-0.677277	-0.241724	-0.675920	107.548635	-83.473881	105.616780
57779		5.651551	-1.572560	14.445279	11.036095	9.750008	-4.693089	0.140702	2.075649	1.811510	-0.971680	0.234375	0.394531	0.058150	-0.015305	0.143844	0.170360	-0.672264	-0.234301	-0.681280	98.618775	-84.765886	114.670837
57780		8.343883	-2.632837	15.480409	11.192313	11.198916	-1.720476	-1.107862	2.496261	1.929301	-0.988037	0.248291	0.364990	0.085607	-0.024655	0.153884	0.176126	-0.666873	-0.221847	-0.689234	80.293568	-85.875014	132.416905
57781		8.689077	-5.771802	13.833991	8.135499	12.568577	-1.095277	-1.918136	3.218207	1.974652	-1.016602	0.255371	0.325928	0.089663	-0.055521	0.137451	0.180097	-0.659498	-0.205700	-0.700225	47.996476	-86.101312	163.684225
57782		7.951850	-8.103567	11.576515	5.087348	12.924850	-1.449904	-2.085540	4.018356	1.880434	-1.037598	0.270508	0.268555	0.082583	-0.079067	0.114958	0.183899	-0.649046	-0.188483	-0.713719	19.336922	-84.744655	-168.770413
57783		6.936528	-8.501197	9.748910	3.396588	11.963305	-2.019865	-1.897782	4.730400	1.775619	-1.053955	0.281738	0.218262	0.072403	-0.083459	0.096597	0.188502	-0.635329	-0.171457	-0.728990	4.465938	-82.280316	-154.905978
57784		5.199015	-7.227261	8.289240	2.904373	9.893716	-3.361230	-1.699195	5.216927	1.739180	-1.058838	0.300537	0.149170	0.054760	-0.071105	0.082095	0.193855	-0.619145	-0.154717	-0.745078	-2.931626	-79.298835	-148.402455
57785		3.617079	-5.846647	6.813525	2.453117	7.855362	-4.719143	-1.622265	5.454859	1.723760	-1.090332	0.312500	0.085938	0.038518	-0.057592	0.067575	0.199424	-0.601435	-0.137905	-0.761241	-7.150790	-76.090675	-145.041265
57786		2.510884	-4.012906	5.918690	2.677140	5.748825	-5.664477	-1.699226	5.509168	1.719952	-1.091309	0.333252	0.021240	0.027073	-0.039401	0.058796	0.204588	-0.583076	-0.120676	-0.776920	-9.956413	-72.820352	-143.142536
57787		1.460301	-2.160854	5.567919	3.405941	3.930991	-6.535616	-1.947173	5.407205	1.739392	-1.086182	0.354248	-0.038818	0.016289	-0.020931	0.055460	0.208874	-0.564825	-0.102377	-0.791747	-12.218865	-69.580681	-141.936625
57788		0.355762	-1.143132	5.405465	3.984252	3.003490	-7.415161	-2.298733	5.208963	1.786284	-1.072266	0.372559	-0.107422	0.005064	-0.010769	0.054062	0.212047	-0.547267	-0.082715	-0.805415	-14.317880	-66.438673	-141.095881
57789		-0.671296	-1.306102	5.103314	3.973916	3.124833	-8.189171	-2.605849	4.947300	1.827101	-1.062500	0.395020	-0.157959	-0.005330	-0.012446	0.051341	0.214265	-0.530596	-0.061861	-0.817760	-16.382429	-63.419942	-140.470693
57790		-0.076125	-2.074174	5.583178	3.863442	3.620700	-7.086065	-2.742421	4.678648	1.883948	-1.048584	0.410156	-0.208008	0.000740	-0.019971	0.056104	0.216073	-0.514766	-0.040581	-0.828663	-18.392831	-60.536752	-139.975766
57791		1.333536	-3.186442	6.548580	3.677619	4.204329	-4.954721	-2.728072	4.495349	2.110357	-1.029541	0.423828	-0.259277	0.015138	-0.030817	0.065584	0.218657	-0.499275	-0.018894	-0.838186	-20.444720	-57.696997	-139.412356
57792		2.516962	-4.302408	6.829903	2.940883	4.540371	-3.315677	-2.525942	4.348672	2.556230	-1.008057	0.447510	-0.286377	0.027194	-0.041823	0.068256	0.223410	-0.483850	0.002866	-0.846149	-22.571754	-54.839168	-138.597678
57793		3.842370	-4.760220	6.939483	2.172896	4.075776	-1.798682	-2.064530	4.145641	3.178219	-0.982910	0.483398	-0.327637	0.040600	-0.046254	0.069050	0.231750	-0.468342	0.023998	-0.852275	-24.728534	-51.923582	-137.391169
57794		6.724733	-3.459375	7.560350	1.663259	1.336422	0.664224	-1.431415	3.896518	3.823393	-0.953857	0.504639	-0.357178	0.069344	-0.032745	0.074505	0.244152	-0.452745	0.043587	-0.856453	-26.769188	-48.957825	-135.811154
57795		10.971222	-0.480914	8.554475	1.330743	-3.693818	3.540770	-0.786634	3.731120	4.347985	-0.932861	0.554688	-0.392090	0.111348	-0.002069	0.083489	0.260109	-0.436548	0.061414	-0.859068	-28.550969	-45.897850	-134.011133
57796		15.238511	3.223363	9.125608	0.913458	-9.670235	5.401027	-0.249944	3.692664	4.617228	-0.904297	0.579346	-0.420410	0.153235	0.035877	0.088388	0.278169	-0.419397	0.077370	-0.860664	-29.944112	-42.755793	-132.225601
57797		19.211788	6.486939	8.832987	-0.135181	-15.364905	6.093075	0.175590	3.736151	4.544674	-0.857422	0.620117	-0.461914	0.192185	0.069161	0.084799	0.296561	-0.401090	0.091382	-0.861875	-30.867065	-39.581643	-130.677850
57798		23.585732	8.290245	7.799471	-2.505140	-20.248417	6.601788	0.517978	3.886605	4.161149	-0.820068	0.640625	-0.501465	0.235526	0.087611	0.073638	0.313656	-0.381501	0.103250	-0.863375	-31.272228	-36.440432	-129.541120
57799		26.288223	9.223963	5.051382	-5.655691	-23.544722	4.856353	0.861391	4.057279	3.518019	-0.768555	0.657715	-0.523438	0.262166	0.096652	0.045600	0.328306	-0.360633	0.112632	-0.865721	-31.146278	-33.398515	-128.904968
57800		26.681003	8.428819	-0.010355	-9.992452	-23.944814	0.655863	1.210933	4.067600	2.675463	-0.725586	0.656250	-0.554688	0.265582	0.087867	-0.004989	0.339699	-0.339410	0.118885	-0.869063	-30.531771	-30.608396	-128.758377
57801		25.443338	6.072781	-5.929086	-14.638887	-21.818037	-4.429518	1.583103	3.700947	1.796637	-0.698486	0.651611	-0.581787	0.252722	0.063495	-0.063483	0.347940	-0.319447	0.121367	-0.873018	-29.532480	-28.249355	-128.951179
57802		24.313992	3.449503	-10.701422	-18.489594	-19.333153	-8.437842	1.863857	2.923678	1.118786	-0.671875	0.642090	-0.602539	0.241342	0.036866	-0.110215	0.353993	-0.302702	0.120113	-0.876717	-28.338636	-26.470041	-129.228742
57803		22.665147	3.386904	-22.755399	-24.837951	-18.332456	-19.297374	2.352191	1.071256	-0.239728	-0.652588	0.622314	-0.599854	0.225472	0.036281	-0.228347	0.355858	-0.293926	0.111372	-0.880096	-26.794561	-25.982788	-129.678391
57804		25.982908	21.429358	-45.478584	-29.879279	-34.839688	-42.913711	3.450952	-1.952659	-3.029449	-0.677490	0.586426	-0.600830	0.267513	0.218055	-0.448458	0.348603	-0.297965	0.088256	-0.884253	-24.271390	-27.737471	-130.889861
57805		65.090816	40.476113	-26.442514	-30.677054	-74.978352	-12.794912	2.831824	-4.689574	-4.413755	-0.696777	0.561035	-0.581299	0.665550	0.393724	-0.243304	0.335192	-0.315502	0.060975	-0.885656	-21.933386	-31.196593	-132.346872
57806		141.859016	5.832514	49.752026	-48.290825	-86.592125	103.322948	3.395443	-2.859903	-2.030842	-0.722900	0.525635	-0.599609	1.411712	0.035282	0.518471	0.332354	-0.322993	0.037956	-0.885311	-19.673485	-33.138836	-132.940302
57807		-25.427776	2.368039	-8.626162	11.022573	12.798367	-30.816940	-1.445135	4.323146	0.791356	-0.708008	0.546387	-0.623535	-0.256155	0.022072	-0.080901	0.332749	-0.306024	0.052795	-0.890415	-20.244680	-30.653321	-133.416017
57808		-2.755803	7.398029	28.035982	22.084564	-0.902562	9.155633	-0.147902	-0.581169	-0.391171	-0.722656	0.560303	-0.629883	-0.028227	0.074242	0.280224	0.330960	-0.308952	0.051916	-0.890123	-20.276477	-31.040629	-133.522651
57809		15.771617	-4.496290	7.707556	-7.214728	-5.364321	5.920461	-0.857520	-1.277118	-0.855964	-0.736328	0.560791	-0.626465	0.157025	-0.045302	0.078273	0.326169	-0.316262	0.052303	-0.889301	-20.644760	-31.896344	-133.758077
57810		3.713239	-5.410367	7.170065	-0.870973	2.739074	-0.527825	-0.245705	0.501966	0.242279	-0.748047	0.574463	-0.633789	0.037378	-0.053970	0.071673	0.326752	-0.314358	0.054626	-0.889623	-20.806707	-31.575510	-133.721125
57811		9.995358	-2.860508	6.893457	-3.330053	-3.161522	1.785794	-0.322512	-0.301547	-0.286948	-0.767090	0.576904	-0.631104	0.099808	-0.028637	0.069131	0.325074	-0.316302	0.055125	-0.889517	-20.936438	-31.794351	-133.825861
57812		5.656659	-4.334839	7.381333	-1.271996	0.696501	0.344549	-0.310689	0.401311	0.076650	-0.773682	0.584961	-0.636230	0.056731	-0.043212	0.073767	0.324839	-0.314992	0.057309	-0.889930	-21.092673	-31.561229	-133.870626
57813		6.727426	0.719843	9.741026	2.251309	-3.700640	1.228185	-0.229241	-0.094611	-0.015692	-0.781738	0.592285	-0.640381	0.067229	0.007305	0.097434	0.324459	-0.315788	0.058159	-0.889731	-21.232707	-31.613935	-133.854021
57814		6.844548	-0.882592	7.984279	0.281983	-2.711779	0.382517	-0.209435	-0.049893	0.141030	-0.791504	0.580322	-0.636230	0.068432	-0.008694	0.079869	0.324797	-0.316301	0.059261	-0.889353	-21.409222	-31.608436	-133.749496
57815		7.515262	-1.383940	8.066676	-0.315350	-2.741951	0.950580	-0.140969	-0.061602	0.171731	-0.797363	0.591797	-0.630859	0.075140	-0.013718	0.080700	0.325380	-0.316751	0.060066	-0.888926	-21.555863	-31.604205	-133.623441
57816		7.514201	-2.044298	7.203642	-1.168828	-2.326204	0.471153	-0.170898	-0.151303	0.142239	-0.809814	0.600342	-0.630127	0.075102	-0.020328	0.072111	0.325813	-0.317651	0.060833	-0.888394	-21.723908	-31.651963	-133.493014
57817		6.596842	-3.360374	6.817271	-1.554399	-0.784013	0.099666	-0.138838	-0.076234	0.146710	-0.815918	0.593506	-0.631104	0.065967	-0.033508	0.068221	0.326291	-0.318170	0.061564	-0.887982	-21.863059	-31.660363	-133.378935
57818		6.612506	-3.846280	7.080847	-1.651744	-0.401987	0.471652	-0.084053	-0.075527	0.132822	-0.818115	0.593506	-0.622559	0.066124	-0.038389	0.070850	0.326796	-0.318594	0.062054	-0.887610	-21.968503	-31.669321	-133.273108
57819		5.710308	-4.716021	7.311209	-1.446066	0.847981	0.458245	-0.045123	-0.041091	0.087472	-0.819824	0.593506	-0.623047	0.057109	-0.047119	0.073134	0.327149	-0.318822	0.062333	-0.887378	-22.030000	-31.671477	-133.204795
57820		4.849341	-4.978991	7.409385	-1.022861	1.591605	0.168595	-0.002127	-0.024468	0.033208	-0.817871	0.605225	-0.618408	0.048493	-0.049781	0.074100	0.327327	-0.318916	0.062384	-0.887275	-22.049121	-31.674541	-133.173997
57821		6.239003	-3.700502	7.235679	-1.243381	-0.281169	0.353377	0.005848	-0.043402	-0.027116	-0.823730	0.594238	-0.621826	0.062369	-0.037016	0.072369	0.327254	-0.319108	0.062250	-0.887243	-22.044315	-31.702500	-133.176555
57822		5.395134	-3.547357	7.425237	-0.553245	0.144476	0.010673	0.015408	-0.001539	-0.021502	-0.834961	0.602783	-0.616211	0.053947	-0.035485	0.074250	0.327210	-0.319088	0.062174	-0.887272	-22.032415	-31.705149	-133.185694
57823		4.798351	-3.952672	7.598218	-0.320686	0.851506	-0.037576	0.015887	-0.012658	-0.090500	-0.830078	0.606689	-0.612305	0.047961	-0.039554	0.075982	0.326861	-0.319147	0.061946	-0.887395	-21.997000	-31.730405	-133.235599
57824		4.150563	-4.419375	7.710680	-0.127719	1.635534	-0.142044	0.029515	-0.014522	-0.137273	-0.830811	0.617432	-0.614746	0.041470	-0.044234	0.077103	0.326330	-0.319198	0.061601	-0.887596	-21.940666	-31.764757	-133.313813
57825		2.093147	-4.769303	8.622094	1.437478	3.286616	-0.399942	0.088417	-0.091366	-0.221503	-0.837891	0.619629	-0.627441	0.020839	-0.047754	0.086209	0.325540	-0.319527	0.060713	-0.887829	-21.830861	-31.859687	-133.425998
57826		3.919831	-4.962965	8.059712	-0.065985	2.287862	0.173111	0.085817	-0.247085	-0.470432	-0.844727	0.620117	-0.624512	0.038982	-0.049756	0.080624	0.323689	-0.320618	0.059207	-0.888214	-21.661961	-32.088271	-133.655373
57827		4.154142	-4.781303	8.143631	-0.035123	2.068245	0.294594	0.100024	-0.370348	-0.699713	-0.854980	0.612549	-0.614990	0.041223	-0.047998	0.081489	0.320873	-0.322304	0.057051	-0.888766	-21.420395	-32.431761	-134.000748
57828		4.616812	-4.308945	7.366307	-0.495988	1.407510	-0.225370	-0.006827	-0.551794	-0.859797	-0.868164	0.610352	-0.622314	0.045779	-0.043284	0.073791	0.317221	-0.325001	0.054838	-0.889235	-21.207606	-32.902604	-134.405429
57829		4.732928	-2.560727	8.317930	0.984389	0.142184	0.044075	0.060989	-0.710823	-0.960181	-0.881104	0.605225	-0.614014	0.046910	-0.025859	0.083339	0.313264	-0.328321	0.051889	-0.889595	-20.934732	-33.479293	-134.840378
57830		5.143370	-1.698638	8.083046	1.096129	-0.720356	-0.171431	-0.038301	-0.847387	-1.077019	-0.896240	0.601074	-0.605225	0.050998	-0.017246	0.081050	0.308650	-0.332414	0.048992	-0.889852	-20.689851	-34.149670	-135.322946
57831		6.553360	-0.885739	7.226088	0.204718	-2.193773	-0.268493	0.004911	-0.960852	-1.021512	-0.914795	0.587158	-0.603271	0.065139	-0.009193	0.072574	0.304364	-0.336922	0.045798	-0.889802	-20.445357	-34.869555	-135.749733
57832		6.372430	-1.323968	7.085382	0.049120	-1.652422	-0.334843	0.021084	-0.871256	-0.856153	-0.928955	0.587402	-0.593750	0.063357	-0.013519	0.071129	0.300811	-0.340949	0.042964	-0.889618	-20.235435	-35.505441	-136.096054
57833		5.417740	-2.329503	7.046261	0.121629	-0.211778	-0.627484	0.080602	-0.745763	-0.718315	-0.952881	0.583496	-0.582031	0.053830	-0.023517	0.070654	0.297933	-0.344293	0.040268	-0.889425	-20.018787	-36.047152	-136.387665
57834		4.191535	-3.413487	7.514273	0.630273	1.496232	-0.699581	0.143302	-0.582813	-0.608438	-0.962891	0.582520	-0.580078	0.041592	-0.034316	0.075240	0.295615	-0.346783	0.037744	-0.889342	-19.783845	-36.477139	-136.648983
57835		4.415571	-2.899211	7.933659	1.051169	1.073869	-0.400617	0.194418	-0.480738	-0.559790	-0.976807	0.573730	-0.576172	0.043883	-0.029192	0.079414	0.293575	-0.348735	0.035208	-0.889358	-19.518691	-36.843262	-136.906565
57836		4.780853	-2.521416	7.975164	1.072669	0.632532	-0.259351	0.248985	-0.479583	-0.470410	-0.988281	0.572754	-0.560547	0.047558	-0.025426	0.079834	0.292026	-0.350575	0.032606	-0.889244	-19.257436	-37.189299	-137.106428
57837		5.394034	-1.894643	8.335537	1.279658	-0.096303	0.213236	0.304040	-0.579919	-0.429396	-1.005859	0.567383	-0.557373	0.053657	-0.019189	0.083482	0.290765	-0.352775	0.029665	-0.888890	-18.990951	-37.582638	-137.258479
57838		6.131268	-2.207539	7.634252	0.275531	-0.260987	0.217403	0.336724	-0.760200	-0.430520	-1.010498	0.547607	-0.541992	0.060974	-0.022336	0.076537	0.289581	-0.355717	0.026333	-0.888209	-18.730525	-38.071951	-137.371357
57839		6.424602	-2.091653	7.428414	0.076876	-0.454738	0.218170	0.350038	-0.969447	-0.461873	-1.031494	0.537598	-0.533691	0.063836	-0.021195	0.074557	0.288299	-0.359568	0.022563	-0.887179	-18.473847	-38.681602	-137.461775
57840		6.228278	-1.781136	7.587744	0.510270	-0.475681	0.139676	0.410722	-1.205585	-0.522451	-1.036621	0.530762	-0.501221	0.061777	-0.018129	0.076214	0.286875	-0.364367	0.018093	-0.885783	-18.188793	-39.428874	-137.543440
57841		5.764542	-2.524582	7.427220	0.380095	0.485833	-0.097528	0.459833	-1.505215	-0.619888	-1.044189	0.518066	-0.485840	0.057006	-0.025595	0.074644	0.285116	-0.370414	0.012777	-0.883934	-17.868378	-40.357706	-137.632231
57842		5.830057	-3.004595	7.263997	0.094838	0.978605	-0.075509	0.613582	-1.893529	-0.760299	-1.062012	0.502197	-0.463135	0.057495	-0.030489	0.073094	0.283023	-0.377929	0.005987	-0.881494	-17.446981	-41.521108	-137.741432
57843		5.261124	-3.651115	7.445565	0.324410	2.036175	-0.211112	0.793885	-2.253424	-0.911909	-1.077393	0.486816	-0.429443	0.051601	-0.037045	0.074895	0.280570	-0.386732	-0.002413	-0.878472	-16.887419	-42.907750	-137.897310
57844		5.195820	-3.355271	7.548168	0.697461	2.067977	-0.301662	1.006599	-2.554654	-1.074682	-1.092041	0.470459	-0.402588	0.050807	-0.034209	0.075964	0.277761	-0.396479	-0.012465	-0.874927	-16.149358	-44.483658	-138.133259
57845		5.679617	-2.915738	7.673980	0.876126	1.758811	-0.025958	1.144141	-2.763555	-1.224712	-1.103027	0.441650	-0.363770	0.055548	-0.029941	0.077343	0.274485	-0.406849	-0.023722	-0.870959	-15.246573	-46.196666	-138.481015
57846		6.041083	-3.170021	7.114407	0.309906	1.950964	-0.156254	1.338951	-2.953101	-1.356907	-1.104980	0.418945	-0.328369	0.059135	-0.032584	0.071807	0.270933	-0.417642	-0.036330	-0.866516	-14.137334	-48.028179	-138.950102
57847		6.245053	-2.788418	7.174462	0.579830	1.876959	-0.097873	1.571111	-3.228969	-1.559202	-1.116699	0.396484	-0.285156	0.061061	-0.028931	0.072513	0.266841	-0.429138	-0.050746	-0.861430	-12.734830	-50.034027	-139.615558
57848		6.222622	-3.420393	8.899892	1.658726	3.363279	0.936466	1.770570	-3.664194	-1.790969	-1.122803	0.364014	-0.248535	0.060271	-0.035542	0.089804	0.261956	-0.441992	-0.067058	-0.855293	-11.015771	-52.297556	-140.521947
57849		5.185269	-5.289426	10.994961	2.887725	6.582025	1.325224	2.020440	-4.277355	-2.191593	-1.132568	0.344727	-0.188965	0.048902	-0.054555	0.110471	0.255547	-0.456749	-0.086103	-0.847740	-8.754186	-54.926473	-141.893219
57850		5.775213	-5.655187	11.163298	2.754229	7.344478	1.517347	2.233727	-4.853503	-2.773549	-1.143311	0.307861	-0.135742	0.054229	-0.058572	0.112331	0.246713	-0.473062	-0.108032	-0.838853	-5.631874	-57.883004	-144.106025
57851		7.719670	-4.273916	11.420632	3.072490	6.377463	2.761163	2.185218	-5.351103	-3.277369	-1.131836	0.261963	-0.070068	0.073386	-0.045222	0.115719	0.235131	-0.490773	-0.131466	-0.828596	-1.530847	-61.060252	-147.412449
57852		13.346581	-4.577870	15.766043	4.300409	8.107697	9.246510	1.935030	-5.682346	-3.297491	-1.131592	0.232178	-0.011230	0.128129	-0.049467	0.160885	0.222371	-0.509580	-0.154141	-0.816774	3.324999	-64.286720	-151.629723
57853		11.526070	-1.230299	17.299621	8.466923	7.446565	7.690191	1.269483	-5.740210	-3.010892	-1.106689	0.206787	0.057861	0.110022	-0.015097	0.176115	0.208787	-0.529006	-0.173266	-0.804077	8.633901	-67.379777	-156.649995
57854		12.050202	0.163154	16.540006	9.062649	6.755408	7.242441	0.663221	-6.398083	-3.067016	-1.097412	0.180420	0.129150	0.115131	-0.000719	0.169141	0.192562	-0.551040	-0.190577	-0.789276	15.475659	-70.602935	-163.569749
57855		16.091782	-6.511718	20.004305	7.986118	14.790053	10.650168	-0.138873	-6.271046	-2.597356	-1.070801	0.146973	0.181396	0.153679	-0.067003	0.204984	0.175864	-0.573119	-0.203082	-0.774186	23.418258	-73.502338	-171.999694
57856		9.676852	-8.993297	16.359900	6.444360	16.012717	2.190391	-0.252044	-5.996878	-2.575060	-1.036621	0.127441	0.244141	0.090638	-0.090918	0.166493	0.159016	-0.593632	-0.214614	-0.759116	34.011092	-75.818365	176.869272
57857		9.551365	-7.245679	14.697899	6.580049	14.115751	1.008780	-0.333346	-5.056257	-2.871708	-1.021729	0.093994	0.288086	0.090705	-0.073535	0.149435	0.141656	-0.609745	-0.225762	-0.746442	46.761625	-76.966975	163.555781
57858		-1.301878	-7.002683	9.035528	4.567428	10.476783	-11.123942	0.008923	-4.188264	-3.029922	-0.994629	0.078369	0.321777	-0.015965	-0.069804	0.090038	0.125622	-0.621747	-0.237888	-0.735567	59.599051	-77.018208	150.386689
57859		30.632626	-8.430102	23.791833	11.079850	23.483631	20.196032	0.086738	-6.554133	-3.364836	-0.952393	0.048584	0.374268	0.296838	-0.089455	0.247713	0.105662	-0.641361	-0.252576	-0.716726	77.619804	-76.590272	131.934123
57860		33.669432	-19.439437	37.536591	18.779119	41.159475	19.741132	-1.540986	-3.173208	-1.320985	-0.948242	0.031982	0.386475	0.329386	-0.193659	0.382125	0.091980	-0.651767	-0.252886	-0.709075	84.616751	-76.125913	123.824451
57861		18.985468	-28.795106	27.167873	8.376298	41.320467	2.439623	-1.412486	-0.330925	0.454940	-0.954834	0.036377	0.374756	0.190054	-0.285589	0.274016	0.088599	-0.654134	-0.246481	-0.709581	84.453749	-76.409212	123.155670
57862		5.081281	-24.945313	18.655563	4.629122	31.219069	-9.976825	-0.143810	1.631519	1.234980	-0.964600	0.059570	0.348877	0.053872	-0.248993	0.186304	0.094534	-0.649899	-0.241160	-0.714518	80.038692	-76.988544	127.605803
57863		-3.785304	-15.952340	13.351592	5.070927	19.486220	-16.263743	0.740940	2.425643	1.435960	-0.990967	0.074951	0.321777	-0.035086	-0.160276	0.133360	0.105026	-0.642530	-0.237891	-0.720786	73.621548	-77.480684	134.616123
57864		-3.778631	-8.538344	13.476548	8.421308	13.357047	-14.222462	0.739727	2.687046	1.661660	-1.019531	0.093750	0.285156	-0.035260	-0.086182	0.134933	0.116592	-0.634352	-0.233742	-0.727578	65.913417	-77.845919	142.937856
57865		-1.518395	-4.379287	15.059965	11.265327	10.989664	-10.574784	-0.113348	2.999544	2.162168	-1.031494	0.125244	0.249512	-0.012449	-0.043852	0.150825	0.127626	-0.625905	-0.224598	-0.735873	55.908257	-78.098473	153.095286
57866		-0.592196	-4.604058	14.043015	10.089387	10.798205	-9.242906	-1.158264	3.415437	2.710133	-1.052734	0.143311	0.198730	-0.002903	-0.045279	0.140761	0.137795	-0.616964	-0.209585	-0.745951	43.397871	-78.016810	165.200311
57867		0.723546	-6.763117	12.157871	7.198893	11.766556	-7.874266	-1.758442	3.853504	3.104526	-1.064697	0.177490	0.143311	0.010621	-0.066412	0.121983	0.149015	-0.606541	-0.191235	-0.757187	29.665174	-77.297133	178.353374
57868		3.056703	-8.278488	10.540589	4.611461	12.152441	-5.342694	-1.816142	4.342497	3.377964	-1.079590	0.209961	0.096436	0.034238	-0.081270	0.105432	0.160404	-0.594431	-0.170766	-0.769260	17.041889	-75.772457	-169.741937
57869		4.889404	-8.342401	9.073233	2.796836	11.137740	-3.187057	-1.548935	4.880414	3.568739	-1.091797	0.239746	0.042480	0.052568	-0.081808	0.090117	0.173658	-0.579628	-0.150112	-0.781882	6.736145	-73.443433	-159.982930
57870		4.861730	-7.186361	7.519987	1.814815	9.036640	-2.969424	-1.200796	5.319005	3.722978	-1.085938	0.285645	-0.030273	0.051922	-0.070470	0.074274	0.188649	-0.562357	-0.129896	-0.794540	-0.988685	-70.499593	-152.588270
57871		4.097434	-5.322707	6.201316	1.541532	6.550157	-3.626851	-0.955470	5.507479	3.802737	-1.087158	0.324219	-0.095459	0.043663	-0.052120	0.061086	0.204581	-0.543491	-0.110042	-0.806632	-6.644244	-67.193497	-147.120401
57872		4.454831	-3.693478	5.802257	1.601984	4.483655	-3.144972	-0.907022	5.469423	3.865653	-1.069580	0.358398	-0.147705	0.046814	-0.035785	0.056927	0.220618	-0.524177	-0.090191	-0.817577	-10.924763	-63.754208	-142.990863
57873		5.508828	-2.899284	5.869466	1.410024	3.092000	-1.962375	-1.026194	5.348953	3.965122	-1.052490	0.405518	-0.212402	0.057190	-0.027576	0.057328	0.236467	-0.504892	-0.069553	-0.827242	-14.437586	-60.253593	-139.687207
57874		6.771821	-3.396937	5.808583	0.400513	2.586867	-0.633917	-1.155975	5.218013	4.071385	-1.023193	0.435303	-0.257813	0.069874	-0.032232	0.056471	0.252090	-0.485806	-0.048256	-0.835533	-17.429337	-56.735059	-136.958767
57875		8.486072	-4.725123	5.881297	-1.134571	2.499945	1.203008	-1.160041	5.128738	4.139646	-0.996582	0.473877	-0.302002	0.087285	-0.045127	0.056861	0.267703	-0.466522	-0.026763	-0.842601	-19.969403	-53.179036	-134.676987
57876		10.563209	-6.174773	6.105102	-2.861822	2.168451	3.379030	-1.026582	5.111020	4.225884	-0.972656	0.511963	-0.349121	0.108419	-0.059171	0.058612	0.283666	-0.446664	-0.005696	-0.848524	-22.078174	-49.573770	-132.734200
57877		11.863552	-5.143953	6.505905	-3.007958	-0.072189	4.343523	-0.826460	5.109035	4.368893	-0.937988	0.549072	-0.395752	0.121330	-0.048547	0.062187	0.300378	-0.425978	0.014917	-0.853284	-23.843172	-45.889457	-130.998387
57878		12.852237	-1.414191	7.808455	-1.004020	-4.244356	4.645702	-0.897838	5.016569	4.410316	-0.897949	0.574707	-0.436035	0.130692	-0.010935	0.074878	0.316758	-0.405350	0.035694	-0.856786	-25.426186	-42.220280	-129.465210
57879		16.032663	0.477429	7.834024	-1.854348	-8.505321	5.767804	-1.191681	4.958486	4.280605	-0.849121	0.615723	-0.470459	0.162044	0.008681	0.074292	0.331659	-0.384952	0.057405	-0.859371	-26.925172	-38.576231	-128.215889
57880		19.901355	1.912970	7.084047	-3.850163	-13.088383	6.423738	-1.367938	4.966631	3.914812	-0.809814	0.635498	-0.493164	0.200257	0.023503	0.065726	0.344270	-0.364550	0.079051	-0.861587	-28.215411	-35.012406	-127.374030
57881		23.569686	4.963924	5.930248	-5.238933	-18.813976	5.475637	-1.477323	4.998979	3.273634	-0.762451	0.654541	-0.515625	0.236215	0.053910	0.053014	0.353577	-0.344035	0.100040	-0.864069	-29.245346	-31.587290	-127.050028
57882		26.449511	7.630222	3.491641	-7.398891	-23.590986	2.777001	-1.642327	4.939049	2.376840	-0.734131	0.669922	-0.535400	0.264306	0.079692	0.027742	0.358429	-0.324265	0.119941	-0.867176	-30.064745	-28.451101	-127.296892
57883		28.437369	8.667309	-0.256206	-10.944992	-26.181999	-0.959040	-1.711023	4.677442	1.314502	-0.688477	0.677246	-0.547363	0.283621	0.088475	-0.009953	0.358465	-0.306102	0.137912	-0.871082	-30.689946	-25.747505	-128.086580
57884		29.014658	7.875303	-4.313590	-14.956410	-25.941886	-4.748676	-1.597595	4.256319	0.313000	-0.676025	0.671387	-0.563477	0.289009	0.078825	-0.049924	0.354381	-0.290123	0.152969	-0.875696	-31.104287	-23.559464	-129.291904
57885		27.996744	5.649687	-8.309924	-18.686392	-23.087813	-8.246301	-1.213512	3.635907	-0.506528	-0.656006	0.664307	-0.575195	0.278532	0.055264	-0.088510	0.347588	-0.276643	0.164026	-0.880765	-31.248462	-21.918501	-130.727783
57886		25.667151	4.257564	-11.261810	-20.318797	-19.700338	-11.467878	-0.735137	2.743113	-1.060564	-0.650635	0.647461	-0.578857	0.255313	0.040796	-0.116278	0.339637	-0.266668	0.170572	-0.885686	-31.149680	-20.885557	-132.157452
57887		22.513062	3.604768	-12.629351	-19.848761	-16.431762	-13.728535	-0.443817	1.602607	-1.204714	-0.639893	0.645020	-0.581055	0.224319	0.034412	-0.128171	0.332355	-0.261307	0.173700	-0.889431	-31.007014	-20.448666	-133.292977
57888		19.348615	2.592285	-12.528998	-18.475736	-13.272021	-14.347077	-0.349986	0.348942	-0.914793	-0.641357	0.629639	-0.585449	0.193382	0.024818	-0.125672	0.327548	-0.261116	0.174666	-0.891080	-31.003900	-20.544022	-133.879502
57889		15.907726	-10.580674	-17.940699	-25.953519	-0.586849	-13.410006	0.156385	-1.214296	-0.695696	-0.652588	0.631104	-0.574219	0.159794	-0.106222	-0.178521	0.325733	-0.266852	0.171118	-0.890734	-30.925570	-21.340580	-133.858901
57890		18.819630	3.940643	-29.525283	-27.362793	-12.436481	-28.192579	4.578038	-3.254271	-1.275527	-0.676025	0.600830	-0.562988	0.193231	0.044881	-0.291150	0.328835	-0.274858	0.143687	-0.892006	-28.423551	-23.319040	-133.544319
57891		23.377701	25.586708	-14.306075	-9.622947	-34.051382	-22.187767	5.532313	-4.612690	-1.297331	-0.695557	0.564941	-0.555664	0.238553	0.258056	-0.130476	0.333772	-0.287078	0.109610	-0.891161	-25.505869	-26.007959	-132.950345
57892		8.561964	29.714701	-20.802760	-1.260291	-28.794034	-33.428789	4.876157	-6.269678	-1.096858	-0.733887	0.541748	-0.517090	0.093576	0.301556	-0.197859	0.339077	-0.307233	0.075794	-0.885940	-23.193085	-29.536623	-131.920162
57893		92.318811	27.183077	84.593174	13.107711	-67.773079	98.045288	9.285355	-7.532234	-2.918247	-0.762451	0.499756	-0.497070	0.893629	0.217958	0.890929	0.341871	-0.325419	0.017458	-0.881432	-17.826961	-34.175657	-132.081113
57894		-2.346223	33.456861	-10.425532	14.260141	-25.652268	-29.083605	-8.843561	10.522770	0.235245	-0.721191	0.544678	-0.552002	-0.029803	0.329534	-0.117451	0.326830	-0.293389	0.074746	-0.895276	-21.737483	-28.455123	-134.315511
