// General information: 
//  MT Manager version: 2021.4.0 
//  XDA version: 2021.4.0 build 6323 rev 112641 built on 2021-09-28
// Device information: 
//  DeviceId: 00B47795
//  ProductCode: MTW2-3A7G6
//  Firmware Version: 4.6.0
//  Hardware Version: 2.0.0
// Device settings: 
//  Filter Profile: human(46.1)
//  Option Flags: Orientation Smoother Disabled, Position/Velocity Smoother Disabled, Continuous Zero Rotation Update Disabled, AHS Disabled, ICC Disabled
// Coordinate system: ENU
PacketCounter	SampleTimeFine	Acc_X	Acc_Y	Acc_Z	FreeAcc_E	FreeAcc_N	FreeAcc_U	Gyr_X	Gyr_Y	Gyr_Z	Mag_X	Mag_Y	Mag_Z	VelInc_X	VelInc_Y	VelInc_Z	Quat_q0	Quat_q1	Quat_q2	Quat_q3	Roll	Pitch	Yaw
57358		9.136275	1.591153	1.845400	2.013660	1.149441	-0.645751	-0.114666	-0.199145	0.113220	-0.840332	0.272217	0.197510	0.091335	0.015974	0.018536	0.335973	-0.609843	-0.370379	-0.614844	111.704118	-87.182515	128.245224
57359		9.243992	1.296550	1.591632	1.650507	1.091667	-0.552572	-0.119300	-0.267572	0.155728	-0.848389	0.282959	0.201904	0.092408	0.013047	0.016032	0.335559	-0.611151	-0.370016	-0.613989	115.230207	-87.198234	124.646209
57360		9.348746	0.954316	1.030304	1.097888	0.796275	-0.456845	-0.134463	-0.323499	0.186115	-0.843506	0.279541	0.201416	0.093462	0.009637	0.010448	0.335093	-0.612709	-0.369611	-0.612934	119.523615	-87.202721	120.271325
57361		9.454676	0.954773	0.501991	0.861628	0.361682	-0.342675	-0.149857	-0.362990	0.202090	-0.842773	0.280029	0.212646	0.094528	0.009647	0.005184	0.334553	-0.614440	-0.369172	-0.611760	124.279081	-87.186218	115.424570
57362		9.620078	1.014326	-0.058962	0.660636	-0.125322	-0.162508	-0.172288	-0.381788	0.216153	-0.843506	0.288086	0.223633	0.096191	0.010247	-0.000415	0.333952	-0.616289	-0.368653	-0.610540	129.207367	-87.149652	110.392213
57363		9.495958	0.881453	-0.485930	0.367448	-0.411651	-0.279498	-0.185854	-0.387069	0.233359	-0.837402	0.283447	0.218750	0.094958	0.008921	-0.004684	0.333341	-0.618211	-0.368038	-0.609301	134.145558	-87.097071	105.340224
57364		9.562820	0.717749	-0.825200	0.088715	-0.597071	-0.206484	-0.203069	-0.382736	0.234516	-0.835205	0.281006	0.229736	0.095635	0.007281	-0.008076	0.332696	-0.620141	-0.367365	-0.608097	138.839085	-87.025765	100.524805
57365		9.704689	0.536121	-1.037386	-0.142057	-0.659415	-0.061305	-0.229755	-0.369723	0.234376	-0.835693	0.281006	0.221436	0.097059	0.005463	-0.010201	0.331978	-0.622077	-0.366580	-0.606984	143.179403	-86.940794	96.045587
57366		9.900649	0.323772	-1.195862	-0.373193	-0.655665	0.136607	-0.241539	-0.355886	0.205926	-0.835693	0.291504	0.226807	0.099024	0.003325	-0.011786	0.331172	-0.623930	-0.365831	-0.605974	146.928090	-86.836771	92.153559
57367		9.965262	-0.166618	-1.322659	-0.827500	-0.488128	0.195334	-0.252004	-0.327989	0.204328	-0.827393	0.284424	0.227295	0.099676	-0.001581	-0.013061	0.330374	-0.625709	-0.365004	-0.605073	150.256789	-86.733179	88.675148
57368		9.920080	-0.280320	-1.193825	-0.828223	-0.302162	0.143940	-0.235341	-0.304160	0.190627	-0.836182	0.288574	0.233887	0.099221	-0.002723	-0.011784	0.329633	-0.627360	-0.364232	-0.604233	153.156685	-86.627352	85.636096
57369		9.977997	-0.128376	-0.984713	-0.561816	-0.180055	0.197229	-0.256012	-0.288699	0.163863	-0.831787	0.289063	0.238525	0.099795	-0.001214	-0.009702	0.328768	-0.628947	-0.363451	-0.603523	155.563563	-86.514941	83.078037
57370		10.012967	-0.401162	-0.768793	-0.656109	0.166543	0.214934	-0.296422	-0.277346	0.151407	-0.829834	0.291504	0.241699	0.100143	-0.003947	-0.007543	0.327761	-0.630541	-0.362570	-0.602937	157.648898	-86.399665	80.819332
57371		9.975361	-0.453010	-0.492790	-0.531106	0.445353	0.161047	-0.319015	-0.280927	0.133262	-0.825684	0.290771	0.246826	0.099763	-0.004471	-0.004781	0.326616	-0.632149	-0.361678	-0.602411	159.443033	-86.274055	78.838190
57372		10.039652	-0.451316	-0.201485	-0.351246	0.716680	0.207383	-0.351481	-0.293336	0.103329	-0.831055	0.295654	0.251709	0.100402	-0.004465	-0.001860	0.325258	-0.633787	-0.360806	-0.601947	160.889945	-86.132378	77.187053
57373		10.089520	-0.623834	0.128879	-0.297609	1.113474	0.231002	-0.328078	-0.306536	0.094349	-0.825195	0.287598	0.256592	0.100896	-0.006188	0.001454	0.323917	-0.635411	-0.360046	-0.601413	162.202492	-85.979290	75.682613
57374		9.799036	-0.745676	0.316081	-0.281832	1.341046	-0.076204	-0.291959	-0.325511	0.064470	-0.823975	0.288330	0.259766	0.097987	-0.007420	0.003331	0.322570	-0.636974	-0.359524	-0.600796	163.249469	-85.808663	74.466017
57375		9.690687	-0.393754	0.617730	0.197739	1.426733	-0.201690	-0.205879	-0.357595	0.036335	-0.828125	0.292725	0.260010	0.096896	-0.003913	0.006355	0.321344	-0.638445	-0.359393	-0.599969	164.116433	-85.614300	73.477353
57376		9.825707	0.350009	0.959584	1.034685	1.355703	-0.082364	-0.140605	-0.398783	0.025125	-0.824219	0.284424	0.263428	0.098237	0.003519	0.009789	0.320227	-0.639907	-0.359566	-0.598904	164.941861	-85.394544	72.569353
57377		9.657984	0.509144	1.060566	1.245003	1.374450	-0.261699	-0.071525	-0.453996	0.062234	-0.814697	0.294678	0.273438	0.096554	0.005125	0.010823	0.319335	-0.641489	-0.359908	-0.597481	166.059129	-85.148391	71.406798
57378		9.296398	0.774656	1.103171	1.511821	1.273289	-0.629385	0.018642	-0.508096	0.082243	-0.822754	0.286377	0.269043	0.092932	0.007784	0.011269	0.318699	-0.643119	-0.360545	-0.595681	167.320301	-84.872684	70.152339
57379		9.259844	0.853259	0.997160	1.553866	1.177026	-0.665724	0.090669	-0.572061	0.113699	-0.822021	0.287109	0.280762	0.092565	0.008581	0.010240	0.318264	-0.644880	-0.361387	-0.593495	168.754894	-84.562388	68.763265
57380		9.189415	0.806867	0.816127	1.454560	1.085271	-0.731466	0.167890	-0.631499	0.156398	-0.810303	0.292236	0.285889	0.091861	0.008133	0.008458	0.318101	-0.646762	-0.362419	-0.590900	170.376444	-84.219700	67.231363
57381		9.312402	0.847543	0.726748	1.491283	1.045222	-0.612117	0.227998	-0.697441	0.189262	-0.808105	0.290283	0.288330	0.093090	0.008555	0.007602	0.318094	-0.648799	-0.363613	-0.587929	172.074867	-83.838254	65.653832
57382		9.238072	0.871834	0.614960	1.500265	0.979890	-0.687513	0.241516	-0.753401	0.227690	-0.802734	0.299072	0.287354	0.092347	0.008816	0.006508	0.318149	-0.651034	-0.364815	-0.584676	173.812187	-83.423031	64.045758
57383		9.211749	1.069580	0.469800	1.646352	0.800843	-0.709464	0.220691	-0.804132	0.267352	-0.804688	0.298584	0.300049	0.092083	0.010813	0.005080	0.318147	-0.653514	-0.365894	-0.581226	175.540804	-82.975879	62.431771
57384		9.176878	1.073451	0.243321	1.591208	0.656837	-0.731796	0.183526	-0.859361	0.317936	-0.803955	0.308594	0.305908	0.091740	0.010878	0.002837	0.318070	-0.656289	-0.366787	-0.577567	177.281128	-82.493264	60.784169
57385		9.264748	1.236757	-0.022620	1.666131	0.410657	-0.624636	0.144247	-0.918374	0.375385	-0.787598	0.310303	0.310791	0.092624	0.012541	0.000208	0.317907	-0.659391	-0.367455	-0.573686	179.032461	-81.971836	59.099427
57386		9.497702	1.091287	-0.428681	1.426164	0.229372	-0.352582	0.101186	-0.963864	0.443620	-0.783203	0.306885	0.321777	0.094972	0.011126	-0.003824	0.317712	-0.662796	-0.367846	-0.569605	-179.192506	-81.417584	57.364983
57387		9.601253	0.944755	-0.807509	1.200079	0.058115	-0.206224	0.108602	-0.999812	0.488736	-0.782471	0.312988	0.321289	0.096028	0.009686	-0.007590	0.317587	-0.666361	-0.368144	-0.565307	-177.471746	-80.834447	55.685469
57388		9.817409	1.051996	-1.123253	1.241064	-0.176767	0.045168	0.129523	-1.023908	0.524700	-0.770264	0.319092	0.337402	0.098202	0.010785	-0.010723	0.317587	-0.669999	-0.368417	-0.560811	-175.829899	-80.229149	54.096999
57389		10.244727	0.917073	-1.318531	1.169781	-0.151846	0.489802	0.111550	-1.018865	0.570604	-0.766846	0.327637	0.343018	0.102486	0.009470	-0.012658	0.317647	-0.673718	-0.368457	-0.556277	-174.242427	-79.617266	52.548905
57390		10.653482	0.875677	-1.314956	1.290706	-0.009884	0.879610	0.104406	-1.018213	0.609612	-0.750732	0.332031	0.360352	0.106573	0.009088	-0.012602	0.317788	-0.677490	-0.368341	-0.551673	-172.719419	-78.996170	51.060679
57391		10.976739	0.643489	-1.161163	1.327709	0.345735	1.158519	0.059146	-0.995500	0.669792	-0.753906	0.334229	0.367920	0.109801	0.006806	-0.011063	0.317962	-0.681370	-0.367833	-0.547114	-171.205830	-78.375276	49.550264
57392		11.013203	0.576961	-1.432964	1.256499	0.213286	1.234991	0.038914	-0.981563	0.671383	-0.742920	0.337891	0.373291	0.110180	0.006142	-0.013788	0.318097	-0.685210	-0.367242	-0.542618	-169.847898	-77.755670	48.185940
57393		11.009871	0.888735	-2.120874	1.290614	-0.471481	1.350454	0.093785	-0.994047	0.670925	-0.731445	0.349609	0.373535	0.110172	0.009267	-0.020657	0.318371	-0.688981	-0.366796	-0.537964	-168.598464	-77.122445	46.959385
57394		11.378417	1.767855	-2.445009	2.052559	-1.088596	1.727331	0.109130	-1.016706	0.666401	-0.731201	0.359375	0.378662	0.113847	0.018071	-0.023862	0.318646	-0.692746	-0.366442	-0.533186	-167.478024	-76.472082	45.873571
57395		11.755206	1.952739	-2.532846	2.359743	-1.135506	2.084944	0.117982	-1.054614	0.718120	-0.726074	0.351563	0.395508	0.117612	0.019964	-0.024697	0.319003	-0.696667	-0.365972	-0.528163	-166.359648	-75.789411	44.791080
57396		11.780452	1.653917	-2.342592	2.351674	-0.752739	2.057568	0.185913	-1.105974	0.785202	-0.712158	0.358398	0.396729	0.117865	0.017023	-0.022759	0.319670	-0.700706	-0.365521	-0.522701	-165.192475	-75.063457	43.695999
57397		11.864031	1.724150	-1.976005	2.763668	-0.406674	2.012148	0.279480	-1.147197	0.815491	-0.698242	0.371826	0.406738	0.118679	0.017752	-0.019055	0.320645	-0.704727	-0.365247	-0.516857	-164.041851	-74.305073	42.668314
57398		11.871407	1.939578	-1.631939	3.276046	-0.166626	1.874595	0.341200	-1.176133	0.821461	-0.705322	0.381104	0.417725	0.118726	0.019910	-0.015588	0.321791	-0.708694	-0.365147	-0.510755	-162.961157	-73.524321	41.747883
57399		11.678238	1.498666	-1.608501	3.034801	0.116253	1.675925	0.374976	-1.210882	0.869335	-0.685791	0.384521	0.423096	0.116810	0.015524	-0.015349	0.323091	-0.712746	-0.364990	-0.504369	-161.887938	-72.712064	40.850215
57400		11.766513	1.246640	-1.511602	3.053117	0.413521	1.710962	0.353451	-1.227393	0.895963	-0.676270	0.389893	0.430664	0.117697	0.013019	-0.014371	0.324339	-0.716877	-0.364698	-0.497883	-160.879275	-71.880963	40.004837
57401		12.008931	1.035678	-0.976206	3.355264	1.083835	1.754703	0.365315	-1.239967	0.913259	-0.659180	0.393066	0.441406	0.120098	0.010922	-0.008998	0.325621	-0.721011	-0.364361	-0.491279	-159.925321	-71.035939	39.218567
57402		11.331967	0.113678	-1.381059	2.382376	1.156521	1.292161	0.385237	-1.248254	0.967071	-0.656494	0.401123	0.442139	0.113396	0.001711	-0.013100	0.327079	-0.725181	-0.363879	-0.484483	-158.957642	-70.171108	38.427523
57403		10.633838	-0.074905	-1.535090	2.129362	1.039643	0.666963	0.454406	-1.253017	0.975381	-0.644531	0.409912	0.450195	0.106434	-0.000196	-0.014685	0.328769	-0.729220	-0.363507	-0.477506	-158.015489	-69.298254	37.699585
57404		10.016964	0.209974	-1.806872	2.233060	0.589380	0.102553	0.436019	-1.291501	1.053904	-0.623291	0.425049	0.460693	0.100270	0.002666	-0.017416	0.330494	-0.733469	-0.362853	-0.470250	-157.066271	-68.383280	36.950493
57405		9.498773	-0.545764	-2.714618	1.197767	0.171996	0.007031	0.391926	-1.369868	1.086503	-0.615967	0.431396	0.460205	0.095198	-0.004888	-0.026505	0.331966	-0.737974	-0.362077	-0.462702	-156.212629	-67.416146	36.272218
57406		9.619960	-0.998059	-3.118300	0.841947	0.161223	0.312825	0.431546	-1.406170	0.999760	-0.601807	0.432373	0.468018	0.096464	-0.009432	-0.030526	0.333293	-0.742285	-0.361744	-0.455050	-155.522238	-66.446403	35.791441
57407		9.210596	-1.492258	-3.257285	0.396074	0.270107	0.058459	0.436749	-1.411364	0.960892	-0.592773	0.446533	0.479980	0.092403	-0.014409	-0.031953	0.334514	-0.746467	-0.361548	-0.447403	-154.921867	-65.481857	35.408755
57408		8.366954	-2.260212	-3.996267	-0.692959	-0.087758	-0.294570	0.466157	-1.346672	0.966150	-0.576904	0.454346	0.490967	0.084044	-0.022104	-0.039450	0.335949	-0.750412	-0.361262	-0.439898	-154.301392	-64.547275	35.019762
57409		7.964309	-2.292864	-4.551151	-0.947381	-0.581037	-0.423146	0.533988	-1.200228	0.889617	-0.561035	0.452881	0.491699	0.080015	-0.022453	-0.045092	0.337710	-0.753728	-0.361143	-0.432922	-153.682491	-63.706232	34.672646
57410		7.770554	-1.214224	-4.489660	0.035704	-1.100206	-0.823800	0.637398	-0.893422	0.688239	-0.559570	0.476318	0.496826	0.077946	-0.011732	-0.044587	0.339963	-0.755805	-0.361468	-0.427229	-153.080563	-63.071853	34.408752
57411		8.377389	-0.541947	-3.468976	1.323911	-0.431155	-0.836658	0.599913	-0.499941	0.430606	-0.550049	0.470947	0.490479	0.083872	-0.005135	-0.034496	0.342224	-0.756614	-0.362008	-0.423519	-152.572936	-62.704945	34.225313
57412		8.451031	-0.533508	-2.968083	1.608109	-0.004736	-0.985008	0.549112	-0.110042	0.240851	-0.549561	0.468750	0.483643	0.084533	-0.005152	-0.029649	0.344592	-0.756332	-0.362485	-0.421691	-152.087520	-62.585053	34.033888
57413		7.336374	-0.742618	-2.514752	1.200682	0.169957	-2.116762	0.430821	0.227069	0.023108	-0.546631	0.467041	0.487305	0.073336	-0.007363	-0.025247	0.346661	-0.755140	-0.362953	-0.421728	-151.708902	-62.694274	33.886205
57414		6.546025	-0.603230	-2.174583	1.132867	0.155483	-2.983673	0.243830	0.541976	-0.278518	-0.549561	0.479004	0.478271	0.065393	-0.006097	-0.021931	0.347958	-0.753057	-0.363617	-0.423809	-151.564277	-63.043426	33.881552
57415		7.111115	0.292712	-1.771343	2.207925	0.161956	-2.820574	-0.043744	0.853890	-0.593986	-0.558838	0.473389	0.477051	0.071043	0.002712	-0.018017	0.348063	-0.750223	-0.364309	-0.428132	-151.732680	-63.636332	34.042625
57416		7.920501	0.122828	-1.919869	2.219514	0.284110	-1.975138	-0.371771	1.147082	-0.823760	-0.565674	0.459229	0.470947	0.079097	0.000866	-0.019654	0.346966	-0.746886	-0.364636	-0.434530	-152.176000	-64.438363	34.299645
57417		8.413219	-0.537826	-2.124204	1.630306	0.508683	-1.288310	-0.593577	1.422510	-1.043024	-0.569824	0.446289	0.469971	0.083949	-0.005881	-0.021823	0.345042	-0.742880	-0.364797	-0.442716	-152.855839	-65.437906	34.675341
57418		8.569592	-0.714617	-1.986703	1.429288	0.688413	-1.130766	-0.761219	1.682759	-1.263986	-0.577881	0.447021	0.463867	0.085477	-0.007764	-0.020558	0.342445	-0.738109	-0.364920	-0.452504	-153.784228	-66.624531	35.214843
57419		8.870685	-0.990885	-2.007083	1.089972	0.810274	-0.765562	-0.912575	1.919393	-1.463221	-0.593506	0.423828	0.452148	0.088433	-0.010651	-0.020873	0.339219	-0.732587	-0.364977	-0.463722	-154.989667	-67.979185	35.955284
57420		9.506843	-1.935818	-2.229080	0.152129	1.163725	0.072298	-0.983966	2.141575	-1.614589	-0.610352	0.412598	0.446289	0.094662	-0.020236	-0.023208	0.335725	-0.726263	-0.364979	-0.476048	-156.435039	-69.477901	36.902054
57421		9.813001	-2.551293	-2.387089	-0.625532	1.321705	0.500245	-0.924391	2.336398	-1.756224	-0.623291	0.406738	0.427002	0.097613	-0.026485	-0.024892	0.332390	-0.718953	-0.365229	-0.489113	-158.126269	-71.101711	38.136399
57422		10.072833	-3.152830	-2.510654	-1.426843	1.477411	0.839913	-0.757932	2.522403	-1.851687	-0.637939	0.380615	0.419922	0.100104	-0.032555	-0.026250	0.329679	-0.710563	-0.365830	-0.502574	-160.033975	-72.830088	39.686567
57423		9.538680	-2.804375	-2.274481	-1.446734	1.282150	0.201229	-0.539657	2.606402	-1.903866	-0.662109	0.364502	0.400391	0.094807	-0.029012	-0.023905	0.327678	-0.701316	-0.366930	-0.515893	-162.241003	-74.596131	41.664073
57424		8.482718	-2.155416	-2.202676	-1.351153	0.713414	-0.918150	-0.532299	2.556624	-1.881159	-0.672119	0.358887	0.391357	0.084329	-0.022409	-0.023048	0.325585	-0.692045	-0.367955	-0.528845	-164.954552	-76.305159	44.152913
57425		9.301255	-2.021267	-2.453248	-1.495343	0.467899	-0.109357	-0.544106	2.463609	-1.869461	-0.685791	0.334473	0.372803	0.092507	-0.021148	-0.025617	0.323227	-0.682883	-0.368965	-0.541350	-168.424645	-77.925481	47.393041
57426		9.362329	-2.345446	-3.031378	-2.330554	0.061705	0.031149	-0.552894	2.314340	-1.741448	-0.703857	0.325195	0.361572	0.093055	-0.024352	-0.031326	0.320836	-0.674220	-0.369671	-0.553023	-172.581954	-79.397275	51.310406
57427		8.691277	-3.406370	-3.827598	-3.970450	-0.237908	-0.540946	-0.486095	2.120287	-1.587228	-0.714844	0.308594	0.352539	0.086227	-0.034844	-0.039108	0.318674	-0.666133	-0.370278	-0.563567	-177.448186	-80.686302	55.968505
57428		8.649224	-2.818450	-4.156861	-3.865711	-0.900755	-0.632696	-0.444152	1.910711	-1.464836	-0.723877	0.294922	0.335205	0.085880	-0.028908	-0.042327	0.316556	-0.658690	-0.370869	-0.573041	176.785394	-81.775155	61.546062
57429		8.251577	-2.715969	-4.493025	-4.175098	-1.346821	-1.071784	-0.500217	1.653728	-1.233769	-0.739746	0.281494	0.336182	0.081971	-0.027780	-0.045541	0.314396	-0.652411	-0.370896	-0.581336	170.567627	-82.637948	67.532839
57430		7.504522	-3.642173	-4.784859	-5.304177	-1.234012	-1.886848	-0.504194	1.366833	-0.925141	-0.738281	0.277100	0.318359	0.074546	-0.036889	-0.048267	0.312560	-0.647485	-0.370321	-0.588159	164.693098	-83.286956	73.161508
57431		6.892246	-4.355467	-4.875016	-6.082996	-1.027504	-2.589167	-0.406475	1.068914	-0.593367	-0.739990	0.267822	0.317139	0.068531	-0.043858	-0.049028	0.311445	-0.643858	-0.369403	-0.593288	159.931297	-83.764369	77.720026
57432		6.619273	-4.492109	-4.958032	-6.315054	-1.075200	-2.917796	-0.264473	0.769033	-0.269298	-0.741211	0.262695	0.308594	0.065941	-0.045076	-0.049775	0.311187	-0.641480	-0.368320	-0.596663	156.870739	-84.113617	80.646166
57433		6.371565	-4.797823	-5.188395	-6.733083	-1.152277	-3.189007	-0.084940	0.487167	0.044439	-0.743896	0.272217	0.300781	0.063600	-0.047986	-0.052019	0.311917	-0.640233	-0.367199	-0.598311	155.910833	-84.376007	81.562652
57434		5.901617	-5.417513	-5.274369	-7.311969	-0.966694	-3.680967	0.186295	0.233236	0.292016	-0.748535	0.266846	0.301270	0.059034	-0.054040	-0.052863	0.313788	-0.639775	-0.366492	-0.598255	157.018887	-84.561482	80.557438
57435		5.537911	-5.761105	-5.400108	-7.656779	-0.965257	-4.028085	0.516043	0.028797	0.423601	-0.735596	0.270996	0.297607	0.055493	-0.057354	-0.054157	0.316731	-0.639646	-0.366667	-0.596733	159.605463	-84.663021	78.257024
57436		5.661379	-5.909889	-4.335506	-7.186277	-0.035745	-3.970581	0.820641	-0.119742	0.458596	-0.746094	0.289063	0.302002	0.056775	-0.058790	-0.043563	0.320475	-0.639533	-0.367869	-0.594110	162.943583	-84.678821	75.377436
57437		6.721529	-7.808907	-1.641145	-7.337521	3.271371	-3.156148	0.778526	-0.192306	0.680489	-0.727783	0.286133	0.304443	0.067496	-0.077795	-0.016650	0.324602	-0.640094	-0.368343	-0.590963	167.696155	-84.667927	71.052938
57438		6.241601	-8.087723	-9.680365	-11.662106	-3.617435	-2.814127	2.015711	-0.425972	0.902892	-0.735352	0.296875	0.299561	0.062984	-0.079614	-0.097477	0.332890	-0.639699	-0.372112	-0.584382	174.601044	-84.503229	65.278037
57439		4.811779	-1.147892	-7.794374	-4.630463	-5.761934	-4.282781	2.261088	-0.192697	-0.301545	-0.732910	0.295166	0.291016	0.048176	-0.010670	-0.078021	0.338835	-0.635891	-0.380013	-0.580020	174.200681	-84.373929	66.982611
57440		12.166088	3.081290	-1.170720	2.574282	-1.375913	2.449364	1.315103	0.144299	-0.803309	-0.734619	0.300537	0.291748	0.121775	0.030400	-0.011594	0.340925	-0.631693	-0.386160	-0.579322	170.162238	-84.390376	71.798439
57441		18.872624	6.260631	3.426456	7.664606	1.849454	8.759991	1.150493	0.373659	-0.336781	-0.734863	0.301025	0.285400	0.188895	0.062091	0.034270	0.344273	-0.627982	-0.389946	-0.578841	168.410820	-84.561937	74.221000
57442		29.037814	16.640757	-0.924581	15.219579	-5.784229	19.442501	0.961625	0.039089	0.591870	-0.738037	0.302734	0.281006	0.289882	0.167308	-0.008500	0.349051	-0.627352	-0.390832	-0.576059	172.418754	-84.637535	70.749419
57443		12.512552	3.849957	-4.424672	1.892559	-4.563495	3.092943	0.944126	-0.141629	0.557910	-0.734863	0.311279	0.272217	0.125048	0.039056	-0.043975	0.353311	-0.627186	-0.392077	-0.572787	176.372613	-84.585398	67.322091
57444		4.055633	0.591194	-4.040620	-1.083054	-3.519817	-5.389795	0.952205	-0.111085	0.191157	-0.733398	0.313721	0.273438	0.040573	0.006143	-0.040355	0.356597	-0.626183	-0.394431	-0.570226	178.053932	-84.524652	66.181981
57445		5.416564	-0.895285	-7.125462	-3.659598	-5.532848	-3.737521	0.538271	-0.176117	0.145264	-0.726807	0.307861	0.272705	0.054235	-0.008722	-0.071231	0.358322	-0.626002	-0.395859	-0.568351	179.201964	-84.423446	65.339200
57446		9.652602	0.201161	-4.924912	-1.504406	-3.665787	0.275246	0.401233	-0.134495	0.410701	-0.723145	0.316406	0.275879	0.096555	0.002309	-0.049180	0.360451	-0.626469	-0.395988	-0.566396	-178.226602	-84.342124	62.987144
57447		11.312082	-0.793281	-1.257203	-0.701643	0.184997	1.573526	0.035507	-0.074745	0.792231	-0.719238	0.319092	0.263428	0.113156	-0.007482	-0.012531	0.362629	-0.628174	-0.393775	-0.564658	-173.741615	-84.265570	58.501180
57448		10.415767	0.271629	-0.789111	0.481777	0.048842	0.625219	-0.080962	-0.012886	0.572053	-0.717773	0.329834	0.280518	0.104150	0.003011	-0.007886	0.363938	-0.629474	-0.391807	-0.563736	-170.624832	-84.211996	55.322743
57449		9.142548	0.723769	-0.254015	1.096629	0.208667	-0.706199	-0.262565	-0.048528	0.624879	-0.721924	0.339844	0.277344	0.091403	0.007520	-0.002528	0.364750	-0.631303	-0.389222	-0.562957	-167.434838	-84.115121	51.965723
57450		9.741919	-2.088850	-1.021913	-1.673137	0.763270	0.032629	-0.291910	-0.111719	0.666071	-0.708496	0.340088	0.274658	0.097494	-0.020579	-0.010134	0.365458	-0.633436	-0.386534	-0.561953	-164.254465	-83.958526	48.600682
57451		10.358298	-1.923962	-0.956311	-1.389095	0.786812	0.644915	-0.027779	-0.122073	0.639285	-0.710938	0.338623	0.270508	0.103650	-0.018910	-0.009497	0.366903	-0.635055	-0.384689	-0.560447	-161.251404	-83.782205	45.565162
57452		10.557327	-0.726621	-0.701543	-0.122774	0.497138	0.780458	0.062507	-0.163197	0.587250	-0.705566	0.347656	0.276855	0.105600	-0.006954	-0.006931	0.368407	-0.636518	-0.383333	-0.558728	-158.693909	-83.578443	43.028856
57453		10.266161	-0.729202	-0.470669	0.015399	0.673847	0.468004	0.046527	-0.211905	0.628634	-0.707520	0.353271	0.288330	0.102689	-0.006968	-0.004600	0.369878	-0.638220	-0.381886	-0.556802	-156.217064	-83.327757	40.563397
57454		9.489118	-0.686185	-0.189117	0.173109	0.843216	-0.335947	0.047571	-0.263640	0.658189	-0.706787	0.357178	0.278320	0.094915	-0.006549	-0.001768	0.371332	-0.640112	-0.380439	-0.554649	-153.903957	-83.031507	38.262052
57455		9.226794	-0.288721	-0.176205	0.578117	0.660672	-0.621548	-0.003591	-0.321499	0.665397	-0.693359	0.355469	0.283203	0.092280	-0.002580	-0.001614	0.372526	-0.642265	-0.378930	-0.552386	-151.904842	-82.693829	36.246056
57456		9.700658	-0.777452	-0.666149	0.050131	0.471805	-0.069723	-0.080485	-0.361045	0.698334	-0.692627	0.360107	0.280762	0.097045	-0.007438	-0.006483	0.373485	-0.644725	-0.377171	-0.550074	-150.090039	-82.319008	34.369907
57457		9.948698	-1.880863	-1.517124	-1.199325	0.215356	0.352479	-0.163018	-0.365966	0.694083	-0.691406	0.367920	0.296875	0.099579	-0.018475	-0.014974	0.374151	-0.647333	-0.375202	-0.547900	-148.519829	-81.935995	32.691268
57458		9.767630	-3.323844	-2.196968	-2.727545	0.234650	0.374860	-0.165310	-0.340205	0.680458	-0.683350	0.370361	0.284180	0.097826	-0.032924	-0.021776	0.374815	-0.649840	-0.373217	-0.545831	-147.088794	-81.563705	31.150359
57459		9.957852	-3.334545	-2.231960	-2.659087	0.231051	0.586118	-0.097896	-0.277625	0.543980	-0.686523	0.371826	0.290283	0.099700	-0.033085	-0.022165	0.375437	-0.651787	-0.371737	-0.544089	-146.035206	-81.259753	30.028891
57460		10.113812	-2.340149	-1.923892	-1.562869	0.085368	0.628424	-0.099111	-0.216110	0.418059	-0.683105	0.377197	0.296387	0.101207	-0.023199	-0.019118	0.375825	-0.653330	-0.370546	-0.542781	-145.301836	-81.023015	29.229987
57461		9.894882	-2.083797	-1.709975	-1.227730	0.151450	0.367908	-0.148515	-0.179460	0.370977	-0.675293	0.374023	0.294434	0.099003	-0.020667	-0.016996	0.375989	-0.654776	-0.369304	-0.541771	-144.696548	-80.817515	28.531639
57462		9.485119	-2.133699	-1.628190	-1.258277	0.220270	-0.038267	-0.156788	-0.145122	0.305480	-0.678955	0.374756	0.297852	0.094895	-0.021205	-0.016196	0.376011	-0.656021	-0.368187	-0.541009	-144.238988	-80.648841	27.977798
57463		9.815996	-2.452810	-1.641502	-1.470468	0.381502	0.324210	-0.166636	-0.131975	0.260628	-0.687256	0.377197	0.294922	0.098203	-0.024414	-0.016330	0.375903	-0.657164	-0.367166	-0.540391	-143.902102	-80.500695	27.540312
57464		9.941595	-2.896027	-2.000751	-1.976321	0.275523	0.543156	-0.118247	-0.108551	0.206316	-0.683350	0.388672	0.293213	0.099457	-0.028869	-0.019936	0.375848	-0.658052	-0.366409	-0.539862	-143.650245	-80.381437	27.216994
57465		9.916263	-2.251966	-2.182914	-1.470038	-0.171902	0.481882	-0.091272	-0.077765	0.103699	-0.674805	0.385010	0.301270	0.099183	-0.022478	-0.021780	0.375662	-0.658618	-0.366003	-0.539576	-143.604530	-80.311048	27.118368
57466		9.584322	-2.290671	-2.616582	-1.733731	-0.559484	0.218964	-0.132705	-0.057114	0.075270	-0.674561	0.383057	0.299072	0.095859	-0.022888	-0.026123	0.375300	-0.659152	-0.365541	-0.539489	-143.619101	-80.259905	27.056802
57467		9.758221	-2.429280	-2.912712	-1.956302	-0.739894	0.445656	-0.154596	-0.022886	0.018936	-0.674072	0.385498	0.308838	0.097588	-0.024306	-0.029097	0.374776	-0.659533	-0.365141	-0.539658	-143.729582	-80.243601	27.079824
57468		10.116667	-2.613652	-3.095730	-2.147947	-0.784705	0.842463	-0.175761	0.012367	-0.003927	-0.678711	0.388672	0.306641	0.101164	-0.026166	-0.030941	0.374184	-0.659816	-0.364693	-0.540026	-143.844324	-80.251417	27.094858
57469		10.013569	-2.706175	-3.261235	-2.326283	-0.891791	0.771437	-0.190559	0.057717	-0.058346	-0.676514	0.389648	0.302734	0.100118	-0.027122	-0.032615	0.373480	-0.659905	-0.364299	-0.540671	-144.025218	-80.298453	27.168419
57470		9.795032	-2.313597	-3.118758	-1.965877	-0.956114	0.494745	-0.223166	0.108596	-0.138952	-0.686523	0.383057	0.301270	0.097917	-0.023239	-0.031215	0.372542	-0.659768	-0.363987	-0.541693	-144.346764	-80.396232	27.365672
57471		9.815583	-1.821884	-2.819281	-1.422142	-0.910056	0.422669	-0.293745	0.163689	-0.204766	-0.684814	0.381836	0.306641	0.098114	-0.018361	-0.028246	0.371292	-0.659493	-0.363598	-0.543146	-144.788823	-80.541192	27.644070
57472		9.880073	-1.935000	-2.691222	-1.488112	-0.736547	0.475445	-0.369409	0.195896	-0.203235	-0.678711	0.383057	0.306641	0.098755	-0.019500	-0.026973	0.369854	-0.659270	-0.362937	-0.544838	-145.217345	-80.700588	27.864664
57473		9.686886	-2.462929	-2.826854	-2.078171	-0.623048	0.345352	-0.406799	0.240534	-0.234212	-0.685303	0.376221	0.303223	0.096806	-0.024800	-0.028335	0.368286	-0.658935	-0.362191	-0.546797	-145.679487	-80.890622	28.097532
57474		9.713145	-2.732790	-2.764278	-2.325304	-0.436327	0.378337	-0.413699	0.284781	-0.291115	-0.692627	0.376221	0.305664	0.097052	-0.027526	-0.027724	0.366618	-0.658383	-0.361529	-0.549017	-146.243158	-81.119781	28.429027
57475		9.655009	-2.749670	-2.890132	-2.452918	-0.540803	0.327493	-0.403259	0.325273	-0.319797	-0.691650	0.364746	0.305176	0.096459	-0.027709	-0.029003	0.364975	-0.657644	-0.360913	-0.551397	-146.830532	-81.376574	28.790369
57476		9.829172	-2.137971	-2.843352	-1.929191	-0.776646	0.431476	-0.387478	0.394748	-0.442873	-0.697510	0.362793	0.296631	0.098188	-0.021652	-0.028586	0.363166	-0.656454	-0.360615	-0.554198	-147.697873	-81.704519	29.443584
57477		10.041035	-1.969623	-2.637883	-1.728315	-0.665471	0.590670	-0.415351	0.460688	-0.481131	-0.692871	0.360840	0.301270	0.100301	-0.019993	-0.026569	0.361274	-0.655055	-0.360240	-0.557325	-148.635798	-82.074281	30.151424
57478		9.711828	-2.043719	-2.725353	-1.948652	-0.735467	0.266264	-0.419006	0.509094	-0.529281	-0.706299	0.364258	0.297607	0.096994	-0.020751	-0.027457	0.359316	-0.653429	-0.359919	-0.560696	-149.730331	-82.480459	31.014485
57479		9.664035	-1.866040	-2.455953	-1.749893	-0.596412	0.161730	-0.449247	0.539836	-0.553107	-0.706055	0.347168	0.294434	0.096521	-0.018983	-0.024778	0.357242	-0.651717	-0.359529	-0.564253	-150.979855	-82.905920	32.015555
57480		9.604059	-1.289543	-1.782463	-1.011987	-0.302823	-0.016685	-0.465077	0.556103	-0.586525	-0.713135	0.355225	0.297852	0.095952	-0.013219	-0.018061	0.355043	-0.649913	-0.359167	-0.567941	-152.490477	-83.345800	33.269489
57481		9.544203	-0.607173	-0.585240	0.075669	0.388629	-0.239510	-0.524749	0.542252	-0.591481	-0.716309	0.345215	0.295410	0.095407	-0.006370	-0.006095	0.352604	-0.648232	-0.358668	-0.571685	-154.284840	-83.775009	34.773500
57482		9.483440	0.305419	0.715240	1.424277	1.048330	-0.463223	-0.591024	0.490382	-0.607320	-0.728760	0.338623	0.279785	0.094860	0.002787	0.006911	0.349803	-0.646770	-0.358114	-0.575396	-156.560888	-84.175068	36.722445
57483		8.894326	1.841125	2.569922	3.562462	1.831924	-1.265413	-0.642287	0.383801	-0.535326	-0.733643	0.337402	0.291992	0.089041	0.018255	0.025470	0.346845	-0.645821	-0.357358	-0.578713	-159.000693	-84.493920	38.805233
57484		7.945678	2.594630	3.907598	4.775270	2.524269	-2.332048	-0.662516	0.212968	-0.396756	-0.732178	0.328125	0.283203	0.079550	0.025918	0.038905	0.343911	-0.645635	-0.356385	-0.581266	-161.250970	-84.685335	40.685065
57485		8.142578	2.656695	4.461904	5.111346	2.958818	-2.171503	-0.602941	0.019853	-0.226315	-0.731201	0.325684	0.283447	0.081460	0.026609	0.044531	0.341316	-0.646204	-0.355363	-0.582787	-162.942072	-84.734991	42.037269
57486		8.331523	2.159924	4.451413	4.698648	3.206721	-1.968310	-0.422680	-0.167958	-0.070444	-0.735107	0.334961	0.294189	0.083285	0.021664	0.044538	0.339420	-0.647284	-0.354680	-0.583112	-163.947967	-84.653317	42.805055
57487		8.890299	1.917143	3.583798	4.100789	2.634312	-1.339181	-0.231815	-0.338536	0.043976	-0.729736	0.325439	0.293213	0.088838	0.019233	0.035966	0.338172	-0.648737	-0.354471	-0.582349	-164.430003	-84.458725	43.156631
57488		9.360872	1.261162	2.473900	3.030274	2.082849	-0.767489	-0.059946	-0.470924	0.167029	-0.729980	0.323486	0.298340	0.093540	0.012697	0.024956	0.337603	-0.650499	-0.354585	-0.580641	-164.316814	-84.172092	43.009150
57489		9.481492	1.145985	1.324957	2.389478	1.205547	-0.549632	0.101646	-0.585973	0.251842	-0.725342	0.333008	0.302734	0.094761	0.011572	0.013533	0.337600	-0.652468	-0.355084	-0.578124	-163.859261	-83.808648	42.608389
57490		9.687931	0.953551	0.545944	1.894109	0.696827	-0.273839	0.170087	-0.680076	0.324021	-0.728027	0.331299	0.313232	0.096844	0.009688	0.005797	0.337857	-0.654713	-0.355699	-0.575050	-163.202664	-83.381407	42.046522
57491		9.855550	0.725574	0.030371	1.515075	0.432839	-0.056877	0.201980	-0.764228	0.393556	-0.730713	0.327881	0.306641	0.098539	0.007449	0.000688	0.338262	-0.657258	-0.356314	-0.571516	-162.411473	-82.895584	41.366943
57492		9.739693	0.241875	-0.362634	0.965116	0.385169	-0.118817	0.214962	-0.822137	0.440461	-0.710205	0.330566	0.319336	0.097405	0.002637	-0.003223	0.338734	-0.660016	-0.356903	-0.567677	-161.594834	-82.368794	40.668489
57493		10.071912	-0.132110	-0.769063	0.554544	0.308896	0.269404	0.206606	-0.864966	0.472858	-0.714600	0.336914	0.328125	0.100754	-0.001075	-0.007256	0.339186	-0.662952	-0.357425	-0.563644	-160.813694	-81.811634	40.000119
57494		9.672448	-0.479898	-1.060737	0.153346	0.251619	-0.074924	0.212686	-0.894936	0.514071	-0.708496	0.344238	0.328613	0.096783	-0.004539	-0.010179	0.339712	-0.666018	-0.357869	-0.559415	-160.015699	-81.229127	39.317309
57495		9.661144	-0.345398	-0.905202	0.435659	0.362876	-0.119700	0.192021	-0.925283	0.548403	-0.700928	0.346680	0.330811	0.096661	-0.003181	-0.008608	0.340200	-0.669247	-0.358182	-0.555048	-159.246281	-80.622197	38.650317
57496		9.468826	-0.160848	-0.635664	0.797078	0.528446	-0.369538	0.153991	-0.962550	0.586353	-0.701660	0.355713	0.345459	0.094722	-0.001326	-0.005902	0.340590	-0.672690	-0.358315	-0.550542	-158.515035	-79.986144	37.998785
57497		9.594553	0.121030	-0.267283	1.336522	0.762424	-0.337834	0.084814	-1.001930	0.650036	-0.696045	0.355469	0.347656	0.095953	0.001523	-0.002192	0.340840	-0.676451	-0.358098	-0.545901	-157.769796	-79.314259	37.291385
57498		9.042754	0.060781	-0.106570	1.385319	0.917808	-0.923152	0.083175	-1.056262	0.731506	-0.678955	0.367188	0.354736	0.090428	0.000939	-0.000588	0.341196	-0.680483	-0.357680	-0.540919	-156.958314	-78.593953	36.513953
57499		8.655002	-0.184214	-0.659948	0.949900	0.575738	-1.202029	0.225727	-1.171641	0.823633	-0.679199	0.375977	0.369385	0.086593	-0.001479	-0.006094	0.342064	-0.684716	-0.357513	-0.535108	-156.061174	-77.789922	35.730320
57500		8.325867	1.064626	-0.750963	2.032458	-0.125473	-1.635321	0.443635	-1.280628	0.845230	-0.669434	0.371826	0.373535	0.083258	0.011014	-0.006952	0.343521	-0.688867	-0.358022	-0.528465	-155.211150	-76.921473	35.120492
57501		8.676574	1.597679	0.024883	3.051615	0.372471	-1.543284	0.553136	-1.389581	0.970353	-0.665039	0.376221	0.383545	0.086682	0.016396	0.000896	0.345467	-0.693292	-0.358550	-0.520999	-154.238537	-75.964060	34.446798
57502		8.837686	0.784521	0.488031	2.744294	1.268002	-1.457036	0.709358	-1.534547	1.121604	-0.650635	0.397461	0.385498	0.088290	0.008322	0.005587	0.348056	-0.698034	-0.359180	-0.512441	-153.133843	-74.890960	33.726176
57503		9.655569	1.168403	0.587283	3.454962	1.358534	-0.804129	0.929891	-1.669222	1.233413	-0.650391	0.412598	0.394531	0.096428	0.012249	0.006734	0.351419	-0.702856	-0.360176	-0.502764	-151.955308	-73.716621	33.056231
57504		10.479576	2.155609	0.697886	4.732045	1.188995	-0.265752	1.011873	-1.774469	1.354296	-0.624512	0.412598	0.396240	0.104579	0.022226	0.008019	0.355136	-0.707918	-0.361089	-0.492286	-150.754498	-72.452484	32.407977
57505		10.751544	2.614045	0.601108	5.361503	1.035136	-0.170771	0.974598	-1.860533	1.502721	-0.610352	0.423828	0.400146	0.107252	0.026914	0.007140	0.358875	-0.713414	-0.361479	-0.481231	-149.553328	-71.099823	31.732100
57506		11.341989	1.982714	-0.247870	4.852496	0.820238	0.599142	0.864909	-1.937369	1.619489	-0.596191	0.442383	0.414795	0.113271	0.020752	-0.001293	0.362302	-0.719380	-0.361266	-0.469805	-148.443394	-69.670734	31.080782
57507		12.130062	0.344181	-2.290572	3.109419	0.093452	2.137923	0.831071	-1.964603	1.713704	-0.580322	0.452148	0.423340	0.121482	0.004574	-0.021696	0.365714	-0.725509	-0.360617	-0.458090	-147.372226	-68.196185	30.444006
57508		13.498048	-0.449762	-3.836517	2.580226	-0.493947	3.978776	0.836487	-1.967146	1.776215	-0.567383	0.467285	0.427490	0.135381	-0.003140	-0.037050	0.369214	-0.731610	-0.359690	-0.446151	-146.336180	-66.696535	29.842050
57509		13.880339	-0.455620	-5.007383	2.623926	-1.307956	4.655766	0.722574	-1.933136	1.774967	-0.544678	0.474365	0.433350	0.139311	-0.003144	-0.048742	0.372286	-0.737704	-0.358383	-0.434463	-145.437573	-65.210127	29.312233
57510		13.622043	-0.384050	-4.265323	3.228647	-0.634565	4.081994	0.463867	-1.907831	1.707848	-0.524658	0.487305	0.443359	0.136645	-0.002578	-0.041358	0.374238	-0.743975	-0.356651	-0.423376	-144.809028	-63.754475	28.911165
57511		14.119500	0.368905	-2.644824	4.979524	0.641943	3.651052	0.209285	-1.948048	1.682267	-0.510498	0.505615	0.456787	0.141406	0.004905	-0.025067	0.375054	-0.750635	-0.354491	-0.412574	-144.424006	-62.287485	28.614492
57512		14.814239	0.170146	-1.613365	5.784881	1.907964	3.787893	0.014433	-1.974805	1.718446	-0.489746	0.509766	0.458984	0.148270	0.002976	-0.014670	0.375103	-0.757655	-0.351784	-0.401876	-144.167221	-60.794787	28.332729
57513		14.750809	-0.281944	-1.615254	5.705430	2.242427	3.703303	-0.096214	-1.976065	1.720678	-0.468994	0.499023	0.469971	0.147675	-0.001557	-0.014693	0.374670	-0.764757	-0.348788	-0.391300	-143.997278	-59.300803	28.073766
57514		13.757242	-0.307401	-1.512600	5.583542	2.237832	2.655243	-0.205270	-2.013607	1.714217	-0.459961	0.514648	0.482422	0.137735	-0.001908	-0.013737	0.373678	-0.771995	-0.345613	-0.380709	-143.933258	-57.790806	27.861772
57515		12.936370	-0.208968	-1.390634	5.606397	2.220296	1.717955	-0.365311	-2.088786	1.702228	-0.436768	0.529541	0.489014	0.129511	-0.001012	-0.012552	0.371847	-0.779513	-0.342258	-0.370065	-144.018631	-56.250693	27.714809
57516		12.983467	0.131442	-1.880032	6.024415	1.792337	1.702778	-0.509281	-2.139132	1.696299	-0.416748	0.523438	0.505615	0.130009	0.002371	-0.017416	0.369288	-0.787238	-0.338689	-0.359406	-144.216406	-54.688744	27.601616
57517		11.912888	-0.624157	-2.272835	5.016180	1.700634	1.114749	-0.761761	-2.236904	1.661408	-0.389404	0.530273	0.515381	0.119420	-0.005333	-0.021372	0.365433	-0.795384	-0.334916	-0.348789	-144.620052	-53.094011	27.561754
57518		10.785725	-3.692645	-3.176591	1.988173	2.378124	1.608344	-0.813416	-2.298377	1.677255	-0.383789	0.529541	0.528564	0.108517	-0.036144	-0.030373	0.361220	-0.803591	-0.331031	-0.337904	-145.056469	-51.464688	27.525237
57519		10.829239	-5.640854	-3.909902	0.561348	3.000010	2.639364	-0.484716	-2.220066	1.524178	-0.351074	0.523438	0.536133	0.109143	-0.055672	-0.037755	0.358125	-0.810654	-0.328108	-0.327005	-145.350305	-49.923299	27.546840
57520		10.065470	-6.210025	-5.404515	-0.469318	2.063399	3.016975	-0.140527	-2.123202	1.344544	-0.335938	0.538086	0.540527	0.101635	-0.061457	-0.052926	0.356229	-0.816510	-0.326245	-0.316192	-145.500689	-48.485106	27.640147
57521		8.881440	-6.670757	-6.374288	-1.521735	1.332346	2.832966	0.117218	-1.978057	1.243454	-0.317627	0.540283	0.540527	0.089852	-0.066114	-0.062896	0.355409	-0.821389	-0.324896	-0.305692	-145.498741	-47.149067	27.729003
57522		7.961588	-6.342414	-6.910522	-1.734655	0.558213	2.354604	0.337487	-1.695230	1.037257	-0.307373	0.545410	0.543945	0.080525	-0.062892	-0.068532	0.355596	-0.825015	-0.324189	-0.296318	-145.374926	-46.012676	27.825835
57523		8.824669	-6.293089	-6.451298	-0.844512	1.242491	2.710761	0.467145	-1.318156	0.887770	-0.293701	0.548584	0.542969	0.088948	-0.062387	-0.064074	0.356677	-0.827536	-0.323592	-0.288537	-145.124358	-45.103714	27.850682
57524		10.105980	-3.049972	-4.081974	3.092649	1.807590	0.923359	0.721863	-0.863852	0.516271	-0.287598	0.552246	0.545898	0.101313	-0.030092	-0.040492	0.358992	-0.828305	-0.324073	-0.282864	-144.756792	-44.529326	27.917099
57525		9.779482	2.650712	-2.612121	7.531682	-0.164598	-2.550880	0.634740	-0.502382	0.297233	-0.286865	0.555908	0.544678	0.097820	0.026735	-0.025791	0.361212	-0.828338	-0.324680	-0.279221	-144.424526	-44.197657	27.962958
57526		6.967287	1.111354	-2.643870	4.649790	-0.307939	-3.892156	0.284953	-0.287601	0.491489	-0.287109	0.564697	0.532227	0.069683	0.011322	-0.026322	0.362598	-0.829009	-0.323601	-0.276674	-144.137141	-43.900197	27.785562
57527		5.850152	-1.783113	-3.329005	1.677741	0.300954	-3.061346	0.270093	0.007483	0.230227	-0.279785	0.559814	0.539063	0.058521	-0.017719	-0.033316	0.364037	-0.828868	-0.323048	-0.275853	-143.881429	-43.827917	27.640754
57528		5.446125	-1.573358	-2.838264	1.686338	0.418936	-3.715789	0.329552	0.374859	-0.099976	-0.285645	0.563721	0.529785	0.054400	-0.015714	-0.028511	0.365857	-0.827578	-0.323275	-0.277051	-143.618719	-44.035770	27.535377
57529		5.032388	-0.393217	-2.273353	2.397690	0.079689	-4.823474	0.213512	0.754224	-0.373543	-0.293701	0.551025	0.522949	0.050230	-0.004002	-0.022927	0.367427	-0.825518	-0.323775	-0.280512	-143.417770	-44.512328	27.423636
57530		4.801402	-0.252916	-2.330744	2.301734	-0.146855	-4.992948	-0.031000	1.109103	-0.574032	-0.308105	0.556396	0.513916	0.047876	-0.002670	-0.023573	0.368271	-0.823065	-0.324098	-0.286184	-143.324986	-45.219340	27.268041
57531		4.714035	-1.022115	-2.918265	1.473052	-0.282438	-4.378285	-0.187957	1.452055	-0.789114	-0.311279	0.550781	0.524170	0.046886	-0.010434	-0.029514	0.368696	-0.820013	-0.324434	-0.293912	-143.299282	-46.158534	27.082457
57532		4.395453	-1.248490	-3.428440	0.890827	-0.722095	-4.216549	-0.254208	1.788506	-1.047068	-0.327881	0.546875	0.506348	0.043579	-0.012758	-0.034659	0.368984	-0.816101	-0.325080	-0.303567	-143.309792	-47.339499	26.897989
57533		3.861734	-0.707959	-3.657041	0.804294	-1.403325	-4.696981	-0.336570	2.115670	-1.332988	-0.354248	0.527832	0.496582	0.038179	-0.007397	-0.036964	0.368984	-0.811266	-0.326121	-0.315187	-143.384060	-48.769856	26.739363
57534		3.314466	-0.302419	-3.722364	0.646296	-1.881480	-5.232975	-0.565778	2.408898	-1.587311	-0.375732	0.518066	0.493164	0.032667	-0.003391	-0.037610	0.368062	-0.805829	-0.327229	-0.328771	-143.607483	-50.421094	26.608071
57535		3.161896	-0.826510	-4.002256	-0.072149	-1.933237	-5.021684	-0.800637	2.687351	-1.827338	-0.404785	0.505859	0.488770	0.030999	-0.008711	-0.040408	0.366164	-0.799770	-0.328326	-0.344229	-143.991147	-52.283843	26.512661
57536		3.289935	-1.558331	-4.263509	-0.830427	-1.784790	-4.563795	-0.967887	2.966985	-2.023390	-0.427734	0.496094	0.473389	0.032102	-0.016118	-0.043038	0.363604	-0.792968	-0.329303	-0.361323	-144.480673	-54.341527	26.432474
57537		3.445865	-2.276088	-4.469624	-1.592990	-1.594060	-4.160400	-1.088718	3.238937	-2.211003	-0.452637	0.470215	0.470703	0.033474	-0.023379	-0.045118	0.360534	-0.785279	-0.330188	-0.379905	-145.059280	-56.589949	26.378248
57538		4.021062	-3.493503	-4.944323	-2.699484	-1.265385	-3.185238	-1.127217	3.509838	-2.407061	-0.477783	0.455566	0.454590	0.038911	-0.035689	-0.049934	0.357228	-0.776473	-0.331130	-0.399789	-145.700272	-59.029026	26.373317
57539		5.076443	-5.253707	-5.312661	-4.080554	-0.481184	-1.769081	-0.947720	3.800454	-2.595614	-0.507324	0.438721	0.440674	0.049056	-0.053435	-0.053818	0.354536	-0.766046	-0.332474	-0.420641	-146.277581	-61.667493	26.413358
57540		5.873608	-6.587531	-5.445412	-5.255276	0.159521	-0.874936	-0.544998	4.091845	-2.820351	-0.539551	0.412842	0.418945	0.056670	-0.066834	-0.055446	0.353190	-0.753473	-0.334813	-0.442081	-146.703423	-64.514945	26.541493
57541		6.425654	-7.358867	-5.344566	-6.059750	0.577430	-0.489305	-0.039020	4.318414	-3.058359	-0.579102	0.390625	0.395752	0.061948	-0.074558	-0.054785	0.353369	-0.738603	-0.338544	-0.463663	-146.992957	-67.546205	26.834456
57542		5.973931	-6.889654	-6.482113	-6.775898	-0.910730	-0.958303	0.223786	4.384387	-3.253777	-0.600830	0.373779	0.365234	0.057168	-0.069767	-0.066171	0.353922	-0.722256	-0.343245	-0.485045	-147.418131	-70.668157	27.427444
57543		5.347881	-5.929288	-4.282292	-5.544507	0.161749	-2.649777	0.165197	4.286210	-3.333189	-0.625000	0.348389	0.329346	0.051547	-0.060127	-0.043991	0.353638	-0.705573	-0.348009	-0.505960	-148.307670	-73.764963	28.461338
57544		8.067566	-6.081527	-4.407681	-5.480398	0.316681	-0.255719	-0.042707	4.070694	-3.390332	-0.659180	0.322510	0.312500	0.078710	-0.062170	-0.045679	0.351849	-0.689200	-0.352579	-0.526207	-150.160867	-76.763415	30.352401
57545		10.841138	-5.325413	-4.295189	-4.754685	0.164182	2.089850	-0.222930	3.790892	-3.350840	-0.683105	0.296631	0.283203	0.106659	-0.055100	-0.044924	0.348811	-0.673482	-0.356793	-0.545391	-153.499402	-79.586464	33.632422
57546		12.054521	-4.335685	-2.815728	-3.565075	0.883417	2.777709	-0.400673	3.383168	-3.125556	-0.696045	0.286133	0.267334	0.119349	-0.045287	-0.030094	0.344857	-0.659195	-0.360266	-0.562799	-159.095717	-82.083718	39.067921
57547		13.780220	-4.014149	1.936317	-1.288534	4.801197	3.789593	-0.718972	3.010855	-2.700409	-0.710205	0.258057	0.247070	0.137516	-0.041935	0.017440	0.340215	-0.646951	-0.361911	-0.578557	-167.790773	-84.183435	47.409851
57548		18.938409	-6.931091	-2.781663	-6.297470	2.496361	9.384505	-1.376509	1.986162	-1.622416	-0.726318	0.235107	0.240234	0.188527	-0.071040	-0.029207	0.334602	-0.640538	-0.359796	-0.590168	-177.140624	-85.435302	56.006368
57549		8.302035	-19.656033	-14.299446	-23.820818	-1.518956	-0.324870	-0.023272	0.659809	0.437580	-0.722656	0.235840	0.231445	0.082978	-0.196395	-0.143245	0.336977	-0.639405	-0.357253	-0.591589	-173.557781	-85.790651	52.400252
57550		1.152538	-15.033215	-14.401508	-20.187660	-4.651422	-7.459689	2.061308	-0.222782	0.044871	-0.713379	0.249268	0.226563	0.011720	-0.148835	-0.145541	0.343258	-0.636632	-0.363599	-0.587085	-172.307229	-85.659095	52.331330
57551		2.341963	-11.820772	-11.526026	-15.800575	-4.073531	-6.377883	2.297785	-1.372015	0.486026	-0.722168	0.250977	0.236084	0.024501	-0.116816	-0.116442	0.349448	-0.637535	-0.371150	-0.577652	-169.252779	-84.837178	50.588138
57552		5.566890	-14.415364	-14.299903	-18.973746	-5.374840	-2.441597	2.371666	-2.230066	2.193330	-0.701904	0.271484	0.251465	0.058835	-0.141816	-0.144046	0.359112	-0.643775	-0.374869	-0.562198	-159.606798	-83.263901	42.257977
57553		5.710414	-11.125087	-17.155600	-16.887403	-9.799323	-1.481735	3.083192	-2.330343	2.260928	-0.694580	0.288086	0.258301	0.060344	-0.107926	-0.172546	0.370910	-0.648861	-0.380381	-0.544716	-153.007880	-81.518762	37.384174
57554		3.788844	-2.543606	-16.318392	-8.471799	-13.295442	-3.605185	3.626662	-1.928845	0.855496	-0.682129	0.308594	0.253174	0.039562	-0.022309	-0.163231	0.381231	-0.648866	-0.391011	-0.529854	-151.467105	-80.312606	37.928983
57555		6.438862	4.442643	-5.152164	2.998613	-5.722119	-3.030348	2.974291	-1.507547	-0.654961	-0.684082	0.306152	0.261719	0.064918	0.044969	-0.050368	0.386121	-0.645812	-0.403867	-0.520316	-153.932935	-79.716264	42.163874
57556		10.772886	-1.425187	-4.078224	-1.225718	-1.897301	1.571939	2.141735	-1.517009	1.289824	-0.676025	0.322266	0.268799	0.108122	-0.013123	-0.040108	0.393264	-0.648152	-0.408195	-0.508547	-151.387280	-78.604716	40.822289
57557		16.066723	-2.725185	-10.155192	-3.325706	-6.334097	8.005654	1.502799	-1.246519	1.702369	-0.667725	0.338623	0.280762	0.161517	-0.025120	-0.100741	0.399864	-0.651781	-0.408951	-0.498045	-148.259222	-77.496475	38.506107
57558		13.223144	-5.891867	-13.491519	-7.409064	-8.704292	6.340138	0.568186	-0.962567	1.842215	-0.653320	0.364502	0.286133	0.133412	-0.057311	-0.134439	0.404289	-0.656763	-0.406300	-0.490035	-145.437232	-76.457777	35.944699
57559		8.689727	-2.838236	-15.524242	-5.781716	-12.254786	2.059825	0.313740	-0.670872	1.437095	-0.655273	0.367676	0.289307	0.087617	-0.027511	-0.154993	0.407443	-0.660666	-0.403728	-0.484267	-143.476308	-75.666180	34.110510
57560		7.292164	8.045532	-11.809624	5.287202	-12.713474	-1.579431	-0.313704	-0.332959	0.402653	-0.644775	0.374268	0.290527	0.072956	0.080417	-0.118101	0.406686	-0.662912	-0.402351	-0.482978	-143.396796	-75.376321	33.843559
57561		9.472144	3.542459	-5.536170	3.545556	-5.043427	-0.070386	-1.679112	-0.461228	1.347425	-0.642578	0.376465	0.300049	0.094610	0.035597	-0.055442	0.403400	-0.670107	-0.394782	-0.482051	-142.663153	-74.700696	32.089386
57562		11.986497	-8.887979	-5.335926	-7.092751	0.113935	4.358112	-2.517339	-0.555470	2.215073	-0.620117	0.387207	0.312988	0.120990	-0.088203	-0.051911	0.399128	-0.680790	-0.382394	-0.480621	-141.284417	-73.668798	29.158241
57563		12.676255	-16.784952	-5.053491	-13.654714	3.865958	6.513224	-2.353553	-0.449111	1.867578	-0.612793	0.392090	0.325195	0.128436	-0.167232	-0.048277	0.394679	-0.690055	-0.371273	-0.479801	-140.433558	-72.793617	26.862269
57564		9.980378	-15.907296	-4.191888	-13.018433	4.214649	3.714105	-1.105455	-0.227779	0.807475	-0.616943	0.399902	0.333740	0.100493	-0.158896	-0.040926	0.392348	-0.694258	-0.366313	-0.479461	-140.211506	-72.398845	25.966618
57565		9.579856	-11.401101	-3.426386	-8.769867	3.036058	2.326942	-0.068604	-0.092647	0.130315	-0.608887	0.404785	0.347168	0.095889	-0.113960	-0.034180	0.392233	-0.694852	-0.365915	-0.478999	-140.191725	-72.310079	25.905624
57566		8.534240	-8.316871	-3.082360	-6.180255	1.878455	0.664914	0.607092	-0.099871	0.156479	-0.602295	0.414795	0.339111	0.085423	-0.083008	-0.031033	0.394511	-0.694176	-0.367058	-0.477231	-139.758710	-72.209699	25.817013
57567		8.489115	-6.211772	-2.711111	-4.174048	1.276605	0.134609	0.805618	-0.136293	0.075546	-0.600830	0.422119	0.331543	0.084933	-0.061976	-0.027303	0.397215	-0.693044	-0.369020	-0.475115	-139.365969	-72.121914	25.890358
57568		9.388742	-3.318137	-2.553416	-1.293043	0.321010	0.380616	0.598713	-0.115763	-0.193808	-0.601563	0.427002	0.341064	0.093870	-0.033196	-0.025579	0.398592	-0.691762	-0.371379	-0.473991	-139.432643	-72.144965	26.321647
57569		9.855926	0.797761	-1.861087	2.728450	-0.651042	-0.149831	0.168059	-0.058594	-0.584976	-0.605225	0.433594	0.343750	0.098588	0.007705	-0.018575	0.397658	-0.690475	-0.373952	-0.474628	-140.217199	-72.335193	27.247607
57570		9.581346	2.567963	-2.078503	4.121080	-1.578405	-0.688981	-0.312458	-0.069083	-0.307029	-0.605957	0.426758	0.340332	0.095860	0.025500	-0.020792	0.395699	-0.690677	-0.374445	-0.475582	-140.917614	-72.417405	27.795489
57571		9.664694	-0.175092	-3.208643	1.271720	-1.457260	0.186886	-0.597316	-0.128765	0.182839	-0.602051	0.428955	0.345459	0.096669	-0.001758	-0.032019	0.393809	-0.692503	-0.372682	-0.475881	-141.163543	-72.293771	27.695463
57572		9.368080	-2.957208	-5.016182	-1.934232	-1.960090	0.868360	-0.446545	-0.165880	0.331556	-0.606445	0.428223	0.345215	0.093771	-0.029528	-0.050018	0.392720	-0.694384	-0.370834	-0.475482	-141.158619	-72.101602	27.422391
57573		8.789609	-4.253878	-5.990901	-3.574641	-2.359332	0.812705	-0.008964	-0.205444	0.288534	-0.594727	0.434814	0.344482	0.088019	-0.042415	-0.059817	0.392974	-0.695423	-0.370251	-0.474207	-141.009200	-71.905732	27.260926
57574		9.944674	-2.816378	-4.394021	-1.371088	-1.352939	1.251924	0.211418	-0.123559	-0.068364	-0.598633	0.442871	0.355469	0.099464	-0.028151	-0.043909	0.393297	-0.695166	-0.371270	-0.473518	-141.131399	-71.876276	27.517760
57575		11.825352	-0.960521	-1.678254	1.787453	0.595026	2.020698	-0.047504	-0.019442	-0.130905	-0.595703	0.434570	0.354004	0.118249	-0.009687	-0.016769	0.392767	-0.695062	-0.371687	-0.473784	-141.372570	-71.914005	27.743913
57576		9.816828	-2.654702	-0.817476	0.044628	1.788658	0.231441	-0.353598	0.005009	0.136705	-0.603760	0.443604	0.357910	0.098186	-0.026494	-0.008130	0.391850	-0.695990	-0.370402	-0.474188	-141.396689	-71.868341	27.556954
57577		8.800571	-4.379315	-1.850067	-2.140226	1.452514	-0.150348	-0.616007	0.053479	0.045404	-0.599365	0.442383	0.351318	0.088011	-0.043830	-0.018389	0.389892	-0.697150	-0.368713	-0.475412	-141.642861	-71.875616	27.445651
57578		8.865917	-5.406794	-3.224800	-3.549815	0.697415	0.441559	-0.727221	0.114121	0.051248	-0.602539	0.439941	0.363037	0.088655	-0.054162	-0.032102	0.387665	-0.698379	-0.366619	-0.477046	-141.879398	-71.909743	27.256955
57579		9.696671	-5.322708	-4.241936	-3.653694	-0.091464	1.456413	-0.803221	0.206847	-0.074166	-0.612549	0.437012	0.361084	0.096903	-0.053433	-0.042305	0.385041	-0.699301	-0.364594	-0.479367	-142.232305	-72.028706	27.145159
57580		10.212240	-5.115193	-4.155211	-3.333750	0.001012	1.875199	-0.784524	0.270365	-0.161272	-0.612305	0.450195	0.370117	0.102025	-0.051397	-0.041489	0.382379	-0.699856	-0.362792	-0.482048	-142.630469	-72.208714	27.092036
57581		10.400391	-4.054486	-3.458355	-2.132779	0.198963	1.675499	-0.737326	0.342781	-0.408132	-0.612793	0.433105	0.374268	0.103861	-0.040884	-0.034611	0.379415	-0.699693	-0.361820	-0.485346	-143.281646	-72.505559	27.333100
57582		10.316269	-3.177872	-2.461764	-1.056983	0.689681	1.186914	-0.678772	0.366906	-0.499081	-0.619629	0.445801	0.367188	0.103038	-0.032120	-0.024698	0.376467	-0.699173	-0.361257	-0.488798	-144.024466	-72.845139	27.704645
57583		9.387196	-2.668408	-1.307601	-0.447221	1.356795	-0.070591	-0.537948	0.337669	-0.529294	-0.631348	0.434814	0.365234	0.093779	-0.026968	-0.013162	0.373881	-0.698399	-0.361189	-0.491928	-144.785635	-73.178029	28.179316
57584		9.650136	-1.648190	-0.569381	0.756183	1.579412	-0.163896	-0.374089	0.282880	-0.559787	-0.634521	0.426514	0.373779	0.096447	-0.016763	-0.005799	0.371685	-0.697381	-0.361731	-0.494633	-145.586285	-73.494863	28.792140
57585		10.736966	0.926344	1.301770	3.998979	2.185222	0.039611	-0.289864	0.213585	-0.594671	-0.642822	0.433105	0.373047	0.107410	0.008963	0.012890	0.369569	-0.696313	-0.362724	-0.496990	-146.497040	-73.785629	29.569292
57586		9.870459	2.547612	4.241766	6.406692	3.892487	-1.706417	-0.296518	0.043714	-0.375629	-0.650635	0.433838	0.371582	0.098762	0.025353	0.042358	0.367659	-0.696062	-0.363250	-0.498371	-147.258639	-73.924713	30.186104
57587		9.062790	2.506544	7.085593	7.384045	6.290359	-3.139623	-0.229517	-0.236399	-0.086835	-0.645508	0.429932	0.371826	0.090555	0.025107	0.070934	0.366195	-0.696915	-0.363450	-0.498111	-147.801960	-73.836108	30.615815
57588		9.062522	3.773388	8.643975	9.170249	7.076606	-3.737017	0.001634	-0.546993	0.161207	-0.651123	0.428955	0.372803	0.090358	0.037806	0.086687	0.365585	-0.698558	-0.363930	-0.495902	-148.117610	-73.521851	30.946505
57589		8.034768	6.670812	9.912238	12.006798	6.714633	-5.563163	0.173793	-0.882697	0.458981	-0.644043	0.429932	0.378906	0.079756	0.066805	0.099533	0.365701	-0.701255	-0.364402	-0.491647	-148.176702	-72.952656	31.113221
57590		7.050810	9.110242	10.635854	14.211668	6.105664	-7.248280	0.277395	-1.255145	0.881158	-0.642578	0.437012	0.397949	0.069436	0.091262	0.106923	0.366520	-0.705410	-0.364316	-0.485112	-147.881913	-72.075676	30.971610
57591		6.610150	10.668395	10.294693	15.328741	5.068485	-8.133898	0.406619	-1.715562	1.425449	-0.616455	0.458984	0.396240	0.064452	0.106937	0.103722	0.368244	-0.711375	-0.363430	-0.475669	-147.180937	-70.807518	30.478945
57592		7.700987	11.201934	7.856010	15.147198	2.958190	-6.931928	0.628605	-2.168595	1.951175	-0.608643	0.471924	0.401611	0.075053	0.112509	0.079734	0.371118	-0.718834	-0.361976	-0.463166	-146.144204	-69.155570	29.759804
57593		10.490648	11.984304	4.454085	15.468364	0.262169	-3.969112	1.000596	-2.524903	2.439925	-0.591064	0.477539	0.408936	0.102858	0.120877	0.046451	0.375715	-0.727115	-0.360185	-0.447670	-144.755571	-67.171338	28.882577
57594		12.887535	12.479903	1.357959	15.811766	-2.017758	-1.473043	1.308981	-2.794240	2.957951	-0.561035	0.500977	0.422119	0.126798	0.126584	0.016186	0.381957	-0.736064	-0.357566	-0.429494	-143.056931	-64.879935	27.845536
57595		16.372086	11.742136	-2.843139	15.452058	-4.422091	2.662022	1.268645	-2.942354	3.230435	-0.536377	0.524902	0.439453	0.162181	0.120216	-0.025281	0.388185	-0.745537	-0.353967	-0.410115	-141.466900	-62.414601	26.883535
57596		17.101805	8.024819	-6.601879	11.979415	-5.646855	5.187261	0.834827	-3.039917	3.375674	-0.503174	0.540771	0.441406	0.170602	0.083398	-0.063080	0.392717	-0.755917	-0.348942	-0.390644	-140.269045	-59.843866	26.063071
57597		15.832345	3.532163	-8.491436	7.745346	-5.338499	5.894181	0.288488	-3.078860	3.359507	-0.469482	0.561279	0.455811	0.158981	0.038109	-0.082417	0.394877	-0.767019	-0.342804	-0.371806	-139.560584	-57.255947	25.427399
57598		14.543752	-0.289034	-9.790857	4.255199	-4.798488	6.505801	-0.293756	-2.977647	3.270316	-0.443604	0.574707	0.469482	0.146896	-0.000638	-0.095727	0.394613	-0.778542	-0.335552	-0.354341	-139.271048	-54.742393	24.876172
57599		13.640179	-5.549125	-11.267206	-0.202610	-3.564337	8.380860	-0.814716	-2.761010	3.348679	-0.408691	0.578369	0.492188	0.138846	-0.053633	-0.110545	0.392629	-0.790460	-0.326483	-0.338267	-139.176646	-52.292718	24.179043
57600		8.937048	-10.120512	-12.970542	-6.274888	-3.633699	7.447378	-1.395931	-2.330922	3.110944	-0.375244	0.588379	0.501221	0.092437	-0.100680	-0.127936	0.388471	-0.802044	-0.316374	-0.325152	-139.384966	-50.118857	23.421152
57601		3.637935	-13.429121	-14.571763	-11.936707	-4.191929	5.865675	-2.068932	-1.799369	2.544312	-0.350098	0.582520	0.523438	0.039397	-0.135298	-0.143976	0.381380	-0.812863	-0.306291	-0.316208	-140.058698	-48.391114	22.746503
57602		-5.898741	-19.379153	-14.529568	-21.949801	-2.909017	1.639348	-2.125590	-1.089332	1.987702	-0.334473	0.579102	0.537354	-0.056262	-0.195891	-0.143533	0.374157	-0.821577	-0.296934	-0.311204	-140.752277	-47.185370	22.039661
57603		-14.559447	-24.817313	-10.649367	-30.108431	1.521771	-4.118264	-1.716599	-0.702608	0.966169	-0.323730	0.580078	0.553223	-0.144020	-0.249776	-0.104862	0.367531	-0.827265	-0.291636	-0.309035	-141.550228	-46.525291	21.786168
57604		-10.224089	-24.009908	-8.535572	-26.077016	4.243884	-2.340408	-1.290786	-0.857683	0.279340	-0.324707	0.570313	0.547363	-0.101542	-0.240787	-0.084240	0.361349	-0.831336	-0.290094	-0.306843	-142.478515	-46.040393	22.048348
57605		-2.646474	-23.755677	-7.857911	-20.765381	6.831725	2.645502	-0.771461	-0.944224	-0.024502	-0.320801	0.566895	0.569092	-0.026125	-0.237855	-0.077786	0.356717	-0.834123	-0.290753	-0.304063	-143.272445	-45.617354	22.540168
57606		3.383577	-22.365423	-7.136197	-15.684217	8.227892	5.963610	0.652474	-0.815278	-0.572196	-0.328613	0.579102	0.559326	0.033489	-0.223516	-0.071954	0.357364	-0.833345	-0.295622	-0.300724	-143.454735	-45.438958	23.320593
57607		8.570843	-18.317614	-6.180832	-9.300981	7.861808	7.475117	2.277151	-0.648102	-0.910827	-0.321289	0.582031	0.551758	0.085079	-0.182847	-0.063615	0.364487	-0.828833	-0.304012	-0.296245	-142.803988	-45.454462	24.239844
57608		13.209148	-12.154234	-5.265975	-1.768910	6.199822	7.747532	3.213459	-0.527189	-0.892979	-0.329346	0.599365	0.532959	0.131691	-0.121268	-0.054262	0.375615	-0.822274	-0.313431	-0.290757	-141.566583	-45.530434	25.087571
57609		20.265137	-3.621874	-3.995185	9.195685	4.704438	8.437309	3.052237	-0.307761	-0.898301	-0.333496	0.613037	0.516602	0.202550	-0.036516	-0.040196	0.386320	-0.815472	-0.322135	-0.286343	-140.343023	-45.717280	25.824157
57610		29.736128	14.343748	-0.673544	29.156385	1.710488	5.594231	1.594166	-0.213108	-1.941212	-0.350830	0.620361	0.507568	0.298741	0.140588	-0.005289	0.389655	-0.809496	-0.332759	-0.286630	-140.402491	-46.333697	27.177082
57611		21.097654	16.040425	3.149469	25.834067	1.645567	-3.315143	0.312140	-0.088990	0.109746	-0.350586	0.629883	0.520996	0.210874	0.160470	0.031839	0.390918	-0.809190	-0.332971	-0.285526	-140.210576	-46.254470	27.160566
57612		21.178609	22.262272	7.200564	31.456176	1.951494	-8.174180	-0.840682	0.237243	0.315952	-0.345703	0.634766	0.516846	0.211518	0.223256	0.070817	0.388346	-0.811002	-0.330067	-0.287261	-140.460350	-46.244624	26.840612
57613		23.210165	13.599047	6.034973	25.957943	5.433933	-2.282337	-1.702893	0.349770	0.969095	-0.341553	0.622803	0.522949	0.231541	0.137618	0.058777	0.383375	-0.815362	-0.323025	-0.289593	-140.861210	-46.048352	26.042933
57614		21.454066	6.549092	5.356195	19.549925	7.469410	-0.124827	-1.677668	0.543166	0.808697	-0.334473	0.620850	0.534424	0.214416	0.066801	0.052423	0.378553	-0.819050	-0.316284	-0.292950	-141.250491	-46.000157	25.249230
57615		20.029930	1.808893	4.354260	15.024266	8.405218	1.458896	-1.311821	0.662906	0.638285	-0.331543	0.614746	0.542480	0.200382	0.019011	0.042756	0.375141	-0.821534	-0.310525	-0.296522	-141.464130	-46.069907	24.502908
57616		19.831474	2.073892	4.702644	15.265182	8.277322	1.057415	-0.735410	0.875439	0.443781	-0.335938	0.605469	0.547607	0.198471	0.021350	0.046080	0.374119	-0.822281	-0.306005	-0.300418	-141.356539	-46.304345	23.770971
57617		19.335085	5.974918	4.873552	17.875430	5.975792	-0.978124	-0.641786	1.104463	0.295084	-0.336670	0.614746	0.554199	0.193527	0.060188	0.047474	0.373595	-0.822244	-0.301796	-0.305386	-141.172100	-46.694140	23.010861
57618		17.527997	6.338157	3.371651	16.586003	3.850814	-1.515720	-0.806993	1.302964	0.255577	-0.335693	0.600342	0.556641	0.175412	0.063738	0.032317	0.372610	-0.822115	-0.297112	-0.311470	-141.015241	-47.184122	22.164401
57619		15.116061	5.531681	2.181446	14.115781	2.480180	-2.168045	-0.863349	1.492853	0.116744	-0.346924	0.601807	0.548096	0.151284	0.055495	0.020446	0.371416	-0.821543	-0.292507	-0.318680	-140.870822	-47.808311	21.293125
57620		12.833582	4.158139	1.517689	11.444942	1.943414	-2.775283	-0.861768	1.742062	-0.183158	-0.362793	0.593506	0.548828	0.128499	0.041525	0.013879	0.370102	-0.820053	-0.288679	-0.327417	-140.754225	-48.649291	20.475805
57621		10.415123	3.097123	1.156297	8.993649	1.515076	-3.794577	-0.819214	2.072902	-0.517598	-0.368164	0.589600	0.554443	0.104343	0.030745	0.010356	0.368824	-0.817380	-0.285609	-0.338062	-140.624208	-49.758560	19.677941
57622		7.517719	2.091341	0.799023	6.300129	1.030210	-5.255106	-0.792696	2.447910	-0.832004	-0.388672	0.568359	0.537598	0.075353	0.020629	0.006987	0.367627	-0.813435	-0.283171	-0.350697	-140.449638	-51.145433	18.863578
57623		5.661634	0.818160	-0.503766	3.707772	0.234576	-5.434116	-0.728084	2.856807	-1.219018	-0.404785	0.572998	0.538818	0.056585	0.007816	-0.005875	0.366513	-0.807920	-0.281608	-0.365555	-140.222898	-52.854463	18.047410
57624		3.925404	0.375635	-1.827192	1.753845	-0.974778	-5.957799	-0.524349	3.323127	-1.726166	-0.425781	0.559082	0.525391	0.038973	0.003370	-0.018930	0.365839	-0.800227	-0.281523	-0.382810	-139.892632	-54.950348	17.267914
57625		1.602038	-0.355578	-2.577887	-0.486709	-1.608001	-7.260333	-0.312748	3.798750	-2.239375	-0.463623	0.544189	0.513428	0.015486	-0.003772	-0.026071	0.365544	-0.790166	-0.282910	-0.402464	-139.434438	-57.443254	16.501865
57626		-0.573400	-2.280264	-3.607042	-3.578371	-1.694476	-8.121749	-0.147522	4.205256	-2.730899	-0.495850	0.522705	0.492432	-0.006801	-0.022741	-0.035918	0.365283	-0.777857	-0.285668	-0.424146	-138.876908	-60.290501	15.752899
57627		-2.336888	-4.506377	-4.373015	-6.513351	-1.290280	-8.922776	-0.041586	4.517312	-3.232588	-0.520264	0.507080	0.466797	-0.025072	-0.044677	-0.043167	0.364560	-0.763423	-0.289833	-0.447524	-138.304375	-63.460113	15.077750
57628		-2.945448	-7.085285	-5.223647	-9.213220	-0.599256	-8.865632	0.077389	4.685979	-3.706347	-0.559326	0.493408	0.447021	-0.031973	-0.070256	-0.051534	0.363173	-0.747082	-0.295521	-0.471848	-137.804542	-66.877806	14.576953
57629		-2.048516	-9.427967	-6.347319	-11.352682	-0.155339	-7.709806	0.279852	4.734629	-4.206578	-0.607910	0.457764	0.415283	-0.023957	-0.093712	-0.063065	0.361088	-0.728802	-0.303188	-0.496528	-137.539958	-70.509466	14.465932
57630		-0.589905	-11.603609	-7.276699	-13.267434	0.305021	-6.383464	0.566511	4.655553	-4.641898	-0.640869	0.431885	0.377441	-0.010282	-0.115625	-0.072890	0.358469	-0.708787	-0.312976	-0.520738	-137.761266	-74.273815	15.039291
57631		0.675787	-13.028051	-8.273840	-14.861182	0.165708	-5.608704	0.918350	4.429366	-4.964017	-0.674316	0.403320	0.356934	0.001686	-0.129982	-0.083411	0.355506	-0.687431	-0.324879	-0.543606	-139.049366	-78.063129	16.907601
57632		2.895561	-12.773235	-9.140031	-14.965118	-0.810321	-4.301343	1.231956	4.098071	-5.078825	-0.706299	0.368408	0.322510	0.023819	-0.127812	-0.092711	0.352375	-0.665473	-0.338255	-0.564412	-142.730449	-81.724410	21.362387
57633		5.736389	-10.920476	-10.562216	-14.111294	-3.119741	-2.411492	1.383824	3.703570	-4.913885	-0.740967	0.336670	0.288818	0.052693	-0.109799	-0.107385	0.349177	-0.643934	-0.351849	-0.582774	-152.754815	-85.038010	32.248105
57634		8.468406	-7.259719	-11.071146	-11.435773	-5.542081	-0.569358	1.124263	3.313769	-4.538697	-0.761230	0.303223	0.260498	0.081164	-0.073837	-0.112489	0.345233	-0.624065	-0.363842	-0.599146	173.348338	-87.479800	66.852030
57635		16.599481	-2.115601	-3.652262	-3.768067	-1.510490	6.825175	-0.155510	3.104427	-3.824163	-0.772217	0.267090	0.245361	0.164956	-0.024347	-0.039071	0.338810	-0.607879	-0.369871	-0.615537	106.233137	-87.407553	133.931213
57636		22.834071	-3.138142	-20.258410	-13.727378	-15.327872	12.952122	-0.844864	1.482943	-0.622791	-0.769531	0.267334	0.229248	0.226730	-0.032949	-0.204132	0.337027	-0.603565	-0.366671	-0.622635	87.098998	-87.143613	152.602734
57637		4.279898	-17.474021	-30.963027	-30.787514	-17.951801	-6.318001	0.719489	-0.155982	1.576996	-0.771484	0.274414	0.232666	0.044411	-0.173279	-0.310221	0.343782	-0.605701	-0.364434	-0.618165	88.942705	-88.045372	151.170712
57638		-1.914480	-15.177351	-16.766491	-21.360405	-7.323972	-12.088727	2.940702	-0.828240	1.165276	-0.760498	0.293457	0.233887	-0.017569	-0.149391	-0.169948	0.354707	-0.605244	-0.371403	-0.608212	110.815523	-88.625928	130.975508
57639		19.470989	-15.156973	-19.703064	-22.540778	-9.943514	9.934951	2.065280	-2.733246	2.380708	-0.751709	0.313965	0.248779	0.199162	-0.147190	-0.195864	0.363018	-0.614181	-0.375278	-0.591748	-177.182214	-87.928491	60.134018
57640		37.306198	29.237537	-11.836409	21.944703	-22.093886	27.826972	3.138853	-1.729964	0.588176	-0.741943	0.327637	0.257080	0.373175	0.295248	-0.110518	0.371065	-0.614599	-0.385872	-0.579381	-170.429853	-86.904012	55.176078
57641		6.246353	16.930019	-7.526424	12.259167	-13.854841	-3.485524	-1.966640	-2.007812	2.844095	-0.730713	0.335449	0.266846	0.060817	0.169426	-0.076314	0.369287	-0.629426	-0.375120	-0.571607	-153.970326	-85.289946	37.552042
57642		7.261953	-12.742674	-11.788561	-16.017455	-4.335290	-0.942271	-1.548630	-1.954260	3.218272	-0.711914	0.350830	0.290771	0.075808	-0.127128	-0.116170	0.369844	-0.643770	-0.364133	-0.562301	-144.666781	-83.378796	27.313529
57643		4.438699	-15.789835	-9.721833	-17.797127	-1.076020	-3.060941	-0.064918	-1.586269	3.949871	-0.695068	0.390625	0.296143	0.048263	-0.157002	-0.096795	0.377741	-0.655395	-0.354128	-0.549875	-136.118662	-81.229853	18.652935
57644		3.989822	-15.557542	-8.166355	-16.695447	0.218646	-3.043073	-0.325120	-1.128543	3.267090	-0.677246	0.414795	0.300537	0.042893	-0.155023	-0.081175	0.383579	-0.664792	-0.344643	-0.540499	-131.466266	-79.431112	13.745984
57645		7.110806	-15.504224	-5.860304	-14.781497	2.447024	0.226483	-0.731947	-0.813343	2.682324	-0.659912	0.423340	0.306152	0.073417	-0.154280	-0.057742	0.386930	-0.672949	-0.335311	-0.533845	-128.741531	-77.955411	10.540811
57646		8.280244	-10.302348	-6.165700	-9.961307	-0.179217	0.838750	-0.361098	-0.630445	1.303299	-0.656494	0.435791	0.319092	0.083665	-0.102591	-0.061209	0.388103	-0.677492	-0.331210	-0.529792	-128.146568	-77.147992	9.720464
57647		13.413698	-6.413242	-1.740477	-3.370053	2.115141	4.618313	-0.909707	-0.446724	-0.236280	-0.656982	0.429932	0.313965	0.134099	-0.064368	-0.016813	0.383629	-0.680045	-0.330500	-0.530224	-129.931650	-77.092196	11.017817
57648		16.058607	-10.553664	-0.879923	-5.856220	5.137564	7.775358	-1.021529	-0.588351	0.339264	-0.663086	0.434082	0.329102	0.160789	-0.105306	-0.007788	0.380053	-0.684107	-0.327798	-0.529249	-131.095085	-76.727302	11.612177
57649		10.460378	-11.695911	-0.666111	-7.844114	5.725341	2.530152	-0.104894	-0.668635	0.872963	-0.659424	0.433350	0.331055	0.105134	-0.116504	-0.006249	0.380882	-0.687502	-0.325836	-0.525453	-131.011177	-76.098478	11.464905
57650		11.487054	-8.665172	-1.334311	-5.253352	3.714558	3.126481	0.283367	-0.562688	0.227484	-0.664551	0.440674	0.333496	0.115006	-0.086502	-0.013142	0.381513	-0.688803	-0.326906	-0.522620	-131.491418	-75.789724	12.128138
57651		8.395388	-7.444722	-3.279987	-5.812855	1.251161	0.252561	0.836163	-0.566722	0.585717	-0.655762	0.441162	0.336670	0.084264	-0.074063	-0.032872	0.384971	-0.689640	-0.328184	-0.518160	-131.117069	-75.323042	12.237182
57652		7.420220	-5.159127	-4.236986	-4.489278	-0.790691	-0.932982	0.984472	-0.537475	0.166467	-0.654785	0.459717	0.331543	0.074359	-0.051321	-0.042423	0.387887	-0.689395	-0.331227	-0.514361	-131.208999	-75.050365	12.916529
57653		10.559500	-3.743337	-3.828022	-2.262056	-0.943697	1.770136	0.806772	-0.473925	-0.063203	-0.656006	0.454834	0.317871	0.105674	-0.037313	-0.038181	0.389698	-0.688943	-0.334469	-0.511492	-131.611276	-74.897463	13.812564
57654		11.779901	-1.419569	-3.013698	0.408450	-1.221594	2.361229	0.460499	-0.307442	-0.518634	-0.668701	0.462891	0.337891	0.117808	-0.014432	-0.029989	0.389419	-0.687954	-0.338068	-0.510669	-132.590968	-75.001598	15.101078
57655		10.485401	-0.238484	-3.017014	1.068687	-1.818976	0.894872	0.037159	-0.158002	-0.548845	-0.667480	0.458984	0.325928	0.104871	-0.002667	-0.030088	0.387859	-0.687360	-0.340390	-0.511112	-133.641430	-75.168640	16.211125
57656		9.483997	-2.750863	-3.834223	-1.721316	-1.407951	0.544408	-0.056101	-0.172921	0.073849	-0.671143	0.455811	0.328125	0.094883	-0.027484	-0.038252	0.387538	-0.688031	-0.340366	-0.510469	-133.849775	-75.071180	16.394247
57657		9.538084	-4.200813	-1.839133	-2.080143	1.044803	0.511346	0.024122	-0.097757	-0.081917	-0.677490	0.459473	0.325439	0.095373	-0.042045	-0.018350	0.387227	-0.688100	-0.340932	-0.510233	-134.126142	-75.065296	16.695517
57658		9.091357	-3.106735	0.341665	-0.310643	2.432976	-0.517242	0.280003	-0.036854	-0.410149	-0.681641	0.458984	0.324463	0.090849	-0.031258	0.003390	0.387058	-0.686945	-0.343166	-0.510421	-134.659339	-75.220009	17.413941
57659		10.682101	0.124065	2.172137	3.621519	2.694365	0.110283	0.464200	-0.042601	-0.636762	-0.689209	0.462891	0.320801	0.106819	0.000850	0.021746	0.386934	-0.685064	-0.346651	-0.510689	-135.463277	-75.459568	18.520804
57660		11.204550	0.244389	1.940238	3.698244	2.518103	0.644276	0.742303	-0.173008	-0.345256	-0.697998	0.466309	0.316406	0.112033	0.002178	0.019508	0.388269	-0.683459	-0.350098	-0.509472	-135.870218	-75.528362	19.381262
57661		10.470979	1.405158	1.252849	4.210806	1.374494	-0.139791	1.002878	-0.237543	-0.468502	-0.696533	0.464844	0.318359	0.104727	0.013743	0.012722	0.390032	-0.681312	-0.354718	-0.507803	-136.436810	-75.614816	20.555151
57662		10.319218	2.687552	0.443118	4.946603	0.139172	-0.356640	1.216704	-0.318532	-0.293710	-0.697998	0.467529	0.311768	0.103224	0.026696	0.004758	0.392836	-0.679207	-0.359459	-0.505121	-136.722670	-75.599304	21.570786
57663		11.160368	7.229497	-0.006282	8.999239	-2.047434	-0.239836	1.330034	-0.402477	-0.171615	-0.701172	0.472656	0.306396	0.111665	0.072196	0.000642	0.396142	-0.677308	-0.364196	-0.501685	-136.872529	-75.497317	22.508822
57664		11.884183	10.061859	-0.756521	11.453716	-3.710799	0.091224	0.956171	-0.502695	0.071073	-0.704346	0.483398	0.308838	0.118824	0.100695	-0.006785	0.398615	-0.676788	-0.367381	-0.498092	-136.982238	-75.260456	23.189185
57665		10.422376	8.764801	-2.091577	9.529803	-4.421880	-0.899194	0.659303	-0.660214	0.524819	-0.716064	0.486572	0.302490	0.104061	0.087989	-0.020282	0.400898	-0.678086	-0.368580	-0.493588	-136.770080	-74.778054	23.358654
57666		9.603626	8.995059	-2.111422	9.635035	-4.540955	-1.803778	0.478401	-0.809419	0.761946	-0.699707	0.491943	0.312012	0.095776	0.090365	-0.020510	0.402880	-0.680509	-0.368831	-0.488425	-136.515895	-74.142512	23.380138
57667		9.013409	6.098819	-1.357777	7.282483	-2.693610	-2.067463	0.241416	-0.981154	1.137758	-0.692383	0.501953	0.313965	0.089850	0.061516	-0.013062	0.404627	-0.684506	-0.367543	-0.482328	-136.111046	-73.285358	23.101414
57668		8.604210	2.763881	-1.093644	4.417926	-1.113213	-1.931821	0.235749	-1.132520	1.369836	-0.689453	0.510498	0.320557	0.085910	0.028240	-0.010417	0.406618	-0.689243	-0.365738	-0.475228	-135.630657	-72.274560	22.740727
57669		9.112051	0.796381	-0.748576	3.081835	0.097241	-1.168950	0.284462	-1.241159	1.491794	-0.672363	0.514893	0.320068	0.091102	0.008653	-0.006908	0.408823	-0.694315	-0.363809	-0.467368	-135.153383	-71.167942	22.408884
57670		8.997438	-0.169798	-0.065136	2.593925	1.140756	-1.271349	0.292203	-1.287718	1.548014	-0.662842	0.531006	0.322998	0.089986	-0.001001	-0.000074	0.411071	-0.699500	-0.361769	-0.459178	-134.703340	-70.020449	22.110083
57671		8.715680	-0.993776	0.682247	2.200526	2.161488	-1.572604	0.229063	-1.339021	1.664201	-0.648682	0.557373	0.330078	0.087187	-0.009221	0.007395	0.413220	-0.705076	-0.359240	-0.450626	-134.264232	-68.802719	21.780954
57672		9.010766	-1.594560	1.240055	2.133983	2.996862	-1.342980	0.194888	-1.397377	1.742309	-0.634521	0.562256	0.340088	0.090153	-0.015173	0.013015	0.415277	-0.710900	-0.356440	-0.441721	-133.866580	-67.530173	21.473727
57673		10.145686	-1.277920	1.578708	3.118180	3.391645	-0.548261	0.138803	-1.458868	1.780635	-0.636230	0.570557	0.340576	0.101447	-0.011887	0.016519	0.417052	-0.716961	-0.353458	-0.432554	-133.562314	-66.215485	21.229536
57674		11.301722	-0.452078	1.684860	4.518482	3.389528	0.130172	0.070494	-1.518223	1.838522	-0.611328	0.591309	0.353760	0.112920	-0.003489	0.017705	0.418549	-0.723287	-0.350200	-0.423122	-133.327478	-64.854141	21.016782
57675		12.272253	0.925327	1.705037	6.332243	3.069996	0.426519	-0.008279	-1.590599	1.938144	-0.594971	0.604736	0.359131	0.122484	0.010442	0.018025	0.419781	-0.730005	-0.346512	-0.413288	-133.142386	-63.421464	20.806407
57676		13.558462	3.522454	2.276890	9.518317	2.801272	0.334547	-0.077665	-1.678147	2.080987	-0.575928	0.612061	0.376953	0.135011	0.036640	0.023889	0.420835	-0.737168	-0.342287	-0.402892	-132.979366	-61.895496	20.573684
57677		14.074979	5.251571	2.328468	11.487314	2.281413	-0.121095	-0.243563	-1.771956	2.266653	-0.555176	0.625244	0.379395	0.139929	0.054134	0.024462	0.421407	-0.745048	-0.337173	-0.391961	-132.872034	-60.254065	20.292177
57678		13.301393	2.045271	0.657631	8.248470	2.055450	0.640360	-0.383965	-1.890172	2.460811	-0.541992	0.645996	0.405273	0.132679	0.022101	0.007790	0.421544	-0.753611	-0.331235	-0.380334	-132.820853	-58.485538	19.977950
57679		12.955305	-1.022954	-2.368193	5.012054	0.700316	2.388524	-0.304690	-1.950591	2.467254	-0.518311	0.648438	0.410156	0.129889	-0.008663	-0.022402	0.421786	-0.761949	-0.325469	-0.368238	-132.781443	-56.690331	19.725077
57680		11.336434	-1.631727	-4.895516	3.308370	-1.455754	2.106536	-0.160057	-1.968600	2.274096	-0.493164	0.657715	0.421631	0.114015	-0.015062	-0.047823	0.422097	-0.769518	-0.320666	-0.356161	-132.794803	-54.969631	19.631327
57681		10.310472	-2.233844	-6.036607	2.285813	-2.270965	1.906711	-0.235951	-2.005766	2.213873	-0.476807	0.666016	0.425537	0.103942	-0.021261	-0.059301	0.421849	-0.777045	-0.315967	-0.344107	-132.908604	-53.259620	19.605419
57682		10.726511	-3.653207	-6.309568	1.668130	-1.658915	2.941467	-0.407885	-1.982511	2.195539	-0.448242	0.680664	0.437988	0.108276	-0.035474	-0.061953	0.420849	-0.784690	-0.310922	-0.332379	-133.111926	-51.566613	19.568047
57683		10.326212	-5.163921	-5.352941	0.852833	-0.073940	2.884047	-0.596975	-1.949738	2.045952	-0.423828	0.684570	0.454590	0.104298	-0.050733	-0.052364	0.418816	-0.792278	-0.306017	-0.321315	-133.471082	-49.948901	19.590952
57684		9.325512	-8.004448	-5.094980	-1.509174	1.420956	3.328346	-0.661851	-1.955832	1.915681	-0.403076	0.689453	0.468262	0.094508	-0.079309	-0.049766	0.416224	-0.799650	-0.301472	-0.310535	-133.915201	-48.382786	19.677728
57685		8.546520	-10.470741	-4.706106	-3.422760	2.928993	3.771228	-0.431073	-1.930972	1.506611	-0.388428	0.695068	0.479736	0.086699	-0.104157	-0.046003	0.413881	-0.805748	-0.298817	-0.300302	-134.378984	-46.994235	19.971447
57686		8.237845	-12.029930	-4.082624	-4.356382	4.298254	4.036139	-0.074711	-1.907942	0.996982	-0.365479	0.699463	0.488281	0.083361	-0.119900	-0.039989	0.412190	-0.810202	-0.298660	-0.290645	-134.822274	-45.821460	20.525439
57687		7.917395	-12.100569	-3.691854	-4.340899	4.703734	3.669430	0.390387	-1.882119	0.552774	-0.362305	0.704346	0.482178	0.079852	-0.120714	-0.036405	0.411730	-0.812910	-0.300894	-0.281280	-135.148126	-44.836381	21.298887
57688		8.474733	-12.676179	-4.364443	-4.383937	4.635670	4.707806	0.765428	-1.933710	0.301621	-0.345459	0.709717	0.479492	0.085358	-0.126467	-0.043305	0.412322	-0.814454	-0.304750	-0.271630	-135.356671	-43.929316	22.225140
57689		9.535159	-12.426943	-4.124559	-3.320948	5.037904	5.218933	1.400804	-1.920525	0.194813	-0.336914	0.716064	0.478516	0.095868	-0.123888	-0.041195	0.415325	-0.814404	-0.309840	-0.261248	-135.217064	-43.070026	23.189957
57690		12.037403	-8.647610	-3.307322	1.317759	4.712307	4.563536	1.923889	-1.799978	-0.212568	-0.322998	0.718018	0.477539	0.120578	-0.086288	-0.032819	0.420046	-0.812349	-0.316971	-0.251354	-134.871576	-42.427760	24.306071
57691		15.050769	-4.328917	-2.194199	6.671417	4.726757	3.723479	1.989320	-1.528877	-0.503591	-0.325928	0.728516	0.459961	0.150562	-0.043455	-0.021223	0.425027	-0.809218	-0.324742	-0.243024	-134.484358	-42.018284	25.427470
57692		17.324316	3.420461	1.646170	14.263604	5.588349	-0.876566	1.671125	-0.839162	-1.039128	-0.324951	0.735840	0.455811	0.173345	0.033161	0.017469	0.429128	-0.804942	-0.332783	-0.239108	-134.216201	-42.109488	26.457548
57693		23.225347	20.167008	3.395152	30.671245	2.500944	-6.549662	0.546519	-0.291997	-1.647879	-0.339844	0.738281	0.451904	0.233854	0.199653	0.034840	0.428847	-0.801332	-0.340725	-0.240549	-134.618524	-42.668598	27.520395
57694		17.538251	12.787129	1.460137	21.178107	2.067027	-5.290998	-0.879421	0.048488	-0.599337	-0.345703	0.724854	0.468262	0.175768	0.127407	0.013998	0.424669	-0.802116	-0.342000	-0.243521	-135.332570	-42.932666	27.830868
57695		15.030995	6.953028	-0.613482	14.875613	1.771240	-2.725676	-1.306005	0.523408	-1.008172	-0.359619	0.717773	0.472900	0.150640	0.068728	-0.006979	0.419071	-0.802482	-0.343374	-0.249992	-136.277746	-43.552987	28.119190
57696		16.922001	7.240441	-0.524377	16.190827	2.281998	-1.345636	-1.706804	1.014825	-1.220769	-0.368164	0.700439	0.482910	0.169626	0.071317	-0.006716	0.412399	-0.802628	-0.344030	-0.259533	-137.367915	-44.456957	28.281839
57697		17.304577	5.468280	-0.775027	14.866282	2.785870	0.245491	-2.088856	1.539046	-1.239858	-0.380859	0.687988	0.486084	0.173311	0.053515	-0.009646	0.404998	-0.802707	-0.343131	-0.271844	-138.506117	-45.590545	28.199324
57698		16.120348	3.123791	-1.465282	11.998518	2.626315	1.182362	-2.219347	2.044978	-1.221549	-0.397217	0.671631	0.500244	0.161226	0.030076	-0.016639	0.397874	-0.802209	-0.340872	-0.286294	-139.531176	-46.935231	27.859130
57699		15.249333	2.496463	-2.166234	10.584319	1.804946	1.508090	-2.177005	2.526750	-1.339884	-0.414795	0.654785	0.504150	0.152363	0.023692	-0.023850	0.391448	-0.800493	-0.338093	-0.302774	-140.406377	-48.540870	27.356136
57700		13.950585	2.300178	-3.013222	9.159855	0.530350	1.357869	-2.128071	2.955263	-1.398475	-0.432861	0.626221	0.500000	0.139193	0.021691	-0.032426	0.385722	-0.797659	-0.334661	-0.320875	-141.103919	-50.360131	26.670449
57701		11.817540	1.890963	-3.581005	7.124406	-0.628030	0.428419	-2.073808	3.365734	-1.469913	-0.459961	0.611816	0.500000	0.117681	0.017657	-0.037981	0.380612	-0.793610	-0.330668	-0.340552	-141.615689	-52.395719	25.802681
57702		9.701125	0.738943	-4.700732	4.354800	-1.803014	-0.090519	-1.994171	3.743709	-1.527723	-0.484619	0.594482	0.492188	0.096158	0.006172	-0.048878	0.376177	-0.788295	-0.326166	-0.361520	-141.898569	-54.623190	24.734333
57703		6.705579	-0.372211	-6.114270	1.048701	-3.340537	-1.433367	-1.837082	4.101788	-1.660123	-0.511475	0.584961	0.491699	0.065747	-0.004841	-0.062459	0.372482	-0.781394	-0.321614	-0.383725	-141.927067	-57.063284	23.494109
57704		3.237005	-0.929883	-6.730038	-1.709770	-4.438036	-3.981313	-1.634501	4.374054	-1.892736	-0.542725	0.562744	0.474121	0.030796	-0.010149	-0.067905	0.369365	-0.772748	-0.317665	-0.406840	-141.739980	-59.704869	22.175769
57705		-0.940033	-1.771237	-9.691858	-5.799206	-7.269027	-6.426765	-1.421894	4.349328	-2.089184	-0.571777	0.539307	0.461670	-0.011692	-0.018286	-0.096552	0.366370	-0.762959	-0.314742	-0.429656	-141.463978	-62.404939	20.926075
57706		-5.160786	-5.362523	-9.656292	-10.635775	-5.953897	-9.613978	-0.668250	4.033526	-2.125761	-0.601074	0.522949	0.437012	-0.054107	-0.053379	-0.095310	0.365487	-0.751965	-0.313983	-0.449869	-140.842721	-64.969902	19.806956
57707		-10.780613	-4.968442	-7.297529	-11.381677	-4.893149	-16.186914	-0.272026	4.050009	-3.384167	-0.626465	0.497803	0.416748	-0.110074	-0.047932	-0.070695	0.363039	-0.737772	-0.318617	-0.471569	-141.118003	-67.996727	19.934410
57708		-7.659781	-6.937028	-5.637279	-10.841437	-1.948032	-13.960305	-0.866475	3.902122	-4.250491	-0.656006	0.468262	0.400391	-0.079128	-0.067945	-0.054549	0.355864	-0.723056	-0.325073	-0.494852	-143.105784	-71.258013	21.525271
57709		-8.446298	-13.455134	-9.031498	-17.868485	-1.312697	-13.398101	-0.608855	3.675717	-4.202477	-0.684814	0.450928	0.372070	-0.088904	-0.132985	-0.088302	0.349055	-0.707926	-0.332123	-0.516426	-145.857574	-74.374126	24.037035
57710		-7.452749	-17.087301	-10.977233	-21.437061	-0.936774	-12.546712	0.368506	3.313442	-4.430100	-0.720215	0.406250	0.347656	-0.080092	-0.168939	-0.108789	0.344267	-0.691095	-0.342881	-0.535070	-150.224734	-77.331223	28.757662
57711		-4.106730	-15.486337	-10.808987	-19.245092	-1.551696	-10.611194	1.320343	2.896562	-4.931600	-0.749756	0.376221	0.317871	-0.046426	-0.153047	-0.108458	0.340416	-0.672318	-0.358354	-0.551079	-158.682553	-80.056772	38.150197
57712		0.690454	-13.619250	-10.944559	-17.072121	-2.495915	-6.989905	1.746325	2.520252	-5.242755	-0.763184	0.352051	0.298828	0.001960	-0.135324	-0.110675	0.336176	-0.652695	-0.376369	-0.565086	-174.311960	-82.183735	54.977255
57713		5.328975	-13.976175	-11.930662	-17.678543	-3.106002	-3.194863	2.313544	2.201186	-5.229668	-0.793945	0.303955	0.267822	0.048307	-0.139672	-0.121473	0.332897	-0.632440	-0.396126	-0.576441	162.622123	-83.152161	79.562528
57714		13.663903	-12.220688	3.782305	-9.245579	10.462648	2.649298	2.677835	2.260468	-4.874887	-0.812012	0.269775	0.250244	0.134002	-0.125973	0.034628	0.331616	-0.611524	-0.415350	-0.586135	138.818607	-82.905610	105.083978
57715		45.252793	-8.047046	-13.014899	-14.723197	-2.581999	35.557766	0.836558	-0.124824	-1.755969	-0.811279	0.259521	0.248047	0.451883	-0.083895	-0.130213	0.328714	-0.606828	-0.423386	-0.586900	134.099409	-82.154604	110.325961
57716		19.036213	-34.697216	-14.253722	-37.950000	4.130501	7.847095	2.306348	-2.090770	3.703486	-0.801270	0.284668	0.251221	0.198226	-0.341691	-0.144453	0.342029	-0.616827	-0.422264	-0.569415	153.373233	-82.442956	92.213916
57717		11.065347	-16.537152	-14.704693	-20.782201	-5.409835	2.466506	3.915705	-1.704917	4.634499	-0.777344	0.336914	0.260010	0.115666	-0.159822	-0.149241	0.363495	-0.624468	-0.421850	-0.547680	176.589653	-82.179069	71.054958
57718		14.222347	20.802928	-13.809880	14.982014	-18.474029	6.310101	2.623375	-1.054258	0.352731	-0.777100	0.341064	0.247314	0.142570	0.210061	-0.134601	0.370366	-0.623260	-0.429841	-0.538157	179.618737	-81.579574	69.514325
57719		9.968258	30.110780	-1.358796	28.240026	-10.612671	0.073073	0.175479	-0.574421	1.332368	-0.771240	0.357666	0.257813	0.097712	0.301775	-0.013041	0.373221	-0.627334	-0.427242	-0.533500	-175.340633	-81.218228	64.517661
57720		-2.410763	-4.589580	-11.764998	-8.703444	-9.455153	-10.157563	-2.122589	-1.791718	3.824727	-0.758301	0.373047	0.271729	-0.022156	-0.047579	-0.117355	0.372809	-0.644060	-0.412844	-0.525128	-164.704310	-79.818412	52.503704
57721		6.527736	-9.837963	-18.635653	-15.329836	-12.074348	0.475345	-3.030588	-1.364047	2.579933	-0.748291	0.386230	0.299316	0.067825	-0.100320	-0.184389	0.366892	-0.658477	-0.399064	-0.522059	-160.293549	-78.624281	46.246246
57722		18.228134	-20.729786	-10.946210	-20.476056	1.676247	11.626995	-3.158521	-0.698631	1.918643	-0.740967	0.386963	0.302734	0.184643	-0.207222	-0.105547	0.360019	-0.669799	-0.385751	-0.522447	-157.878915	-77.856897	41.932263
57723		11.837733	-24.630300	-13.382850	-25.617898	0.786878	6.587124	-0.408630	-0.313586	2.239180	-0.729248	0.410400	0.317383	0.121336	-0.245228	-0.133138	0.363838	-0.675639	-0.377757	-0.518106	-153.199120	-77.158776	36.899024
57724		5.446234	-10.902644	-10.116699	-12.945423	-3.357244	-1.326387	0.729252	-0.124181	1.339925	-0.732666	0.421143	0.309326	0.055252	-0.108288	-0.101529	0.369505	-0.677138	-0.375371	-0.513855	-150.034680	-76.731197	34.080394
57725		11.573026	-4.822537	-4.122156	-3.820409	-0.029731	2.820105	0.434462	0.089328	-0.251631	-0.742676	0.419434	0.305420	0.115651	-0.048281	-0.041378	0.370461	-0.675649	-0.377200	-0.513787	-150.231350	-76.844260	34.536997
57726		14.562688	-4.397286	-1.608257	-1.883204	2.400819	5.176767	-0.327950	0.125187	-0.403390	-0.743408	0.425781	0.300781	0.145528	-0.044293	-0.016101	0.368529	-0.675165	-0.377524	-0.515572	-151.156959	-77.020112	35.295112
57727		11.215503	-5.175574	-1.304830	-3.073021	2.598932	1.937997	-0.451204	-0.026306	0.327871	-0.741455	0.420166	0.302734	0.112241	-0.051601	-0.012917	0.367775	-0.676693	-0.375333	-0.515707	-150.756892	-76.912777	34.619524
57728		9.852351	-6.204006	0.878972	-3.266184	4.831421	0.302655	-0.603335	-0.021225	0.428343	-0.747070	0.433105	0.301025	0.098655	-0.061802	0.008987	0.366773	-0.678649	-0.372402	-0.515974	-150.234654	-76.781511	33.729017
57729		10.273168	-6.161395	2.033825	-2.610305	5.903221	0.481749	-0.570693	0.054084	0.030656	-0.755371	0.423340	0.309326	0.102747	-0.061540	0.020486	0.364998	-0.679618	-0.370760	-0.517139	-150.448116	-76.797045	33.613948
57730		9.374306	-2.240297	2.095992	0.704076	4.062979	-0.852433	-0.359288	0.047790	-0.333344	-0.761230	0.421143	0.307861	0.093711	-0.022522	0.020978	0.362980	-0.679524	-0.370912	-0.518572	-151.332020	-76.914040	34.311036
57731		10.252695	-0.027698	0.544613	2.114136	1.810339	0.070029	-0.511222	-0.035209	-0.411541	-0.765869	0.413818	0.309082	0.102525	-0.000474	0.005465	0.360092	-0.679785	-0.371080	-0.520121	-152.580511	-77.004306	35.293249
57732		11.762138	0.201276	-0.230536	2.214037	1.247645	1.675687	-0.525327	-0.070269	-0.416900	-0.764160	0.420898	0.313477	0.117626	0.001762	-0.002269	0.357067	-0.680129	-0.371292	-0.521603	-153.907950	-77.075842	36.347323
57733		10.671363	-0.502496	-1.452764	0.829837	0.390889	0.929731	-0.304514	-0.072360	-0.143521	-0.773193	0.417725	0.310059	0.106715	-0.005124	-0.014481	0.355509	-0.680600	-0.371150	-0.522154	-154.498789	-77.071591	36.776384
57734		9.084312	-0.048737	-1.309863	0.994831	0.104840	-0.688974	0.065595	-0.074675	-0.177016	-0.774658	0.424072	0.309326	0.090848	-0.000563	-0.013065	0.355108	-0.680343	-0.372093	-0.522090	-154.961302	-77.076017	37.290280
57735		9.351148	3.755570	-0.717899	4.620413	-1.110249	-0.897389	0.179020	-0.022773	-0.536744	-0.781250	0.411133	0.310547	0.093613	0.037311	-0.007135	0.354267	-0.679083	-0.374465	-0.522606	-156.121306	-77.189030	38.588486
57736		9.319472	7.196433	0.119667	7.977867	-1.966560	-1.378141	-0.070371	-0.057195	-0.442189	-0.791504	0.414307	0.307617	0.093353	0.071758	0.001198	0.352742	-0.678521	-0.375919	-0.523323	-157.266081	-77.258826	39.721773
57737		9.282238	3.910363	0.383472	5.190130	-0.188933	-1.174125	-0.354138	-0.227298	0.103264	-0.787598	0.417969	0.317627	0.092798	0.039158	0.003871	0.351374	-0.679933	-0.375083	-0.523011	-157.463840	-77.113412	39.719306
57738		9.087318	2.499021	0.843455	4.148327	0.852450	-1.350984	-0.248977	-0.337864	0.333381	-0.782715	0.428711	0.316162	0.090817	0.025152	0.008557	0.350741	-0.681870	-0.373927	-0.521739	-157.187444	-76.860751	39.290011
57739		9.499157	0.038039	1.250067	2.298899	2.441341	-0.837576	-0.197209	-0.466495	0.530435	-0.778564	0.426758	0.322510	0.094961	0.000645	0.012722	0.350570	-0.684419	-0.372461	-0.519562	-156.577845	-76.493372	38.550323
57740		9.552605	-1.666099	0.629405	0.604223	2.741172	-0.509743	0.091957	-0.541780	0.503071	-0.779297	0.436768	0.326416	0.095550	-0.016424	0.006545	0.351157	-0.686591	-0.371963	-0.516648	-155.974867	-76.092901	37.984706
57741		9.126243	-1.311721	0.629195	0.890910	2.534120	-0.970231	0.349188	-0.592422	0.388952	-0.779297	0.440918	0.338135	0.091269	-0.012951	0.006540	0.352248	-0.688224	-0.372608	-0.513257	-155.534518	-75.689867	37.739863
57742		9.038747	0.275188	0.530115	2.266354	1.717450	-1.212144	0.485900	-0.665572	0.293003	-0.778076	0.446777	0.324707	0.090365	0.002871	0.005609	0.353406	-0.689609	-0.374052	-0.509538	-155.297660	-75.273009	37.783580
57743		9.386446	0.839120	0.315951	2.794293	1.364471	-0.911069	0.497547	-0.767901	0.467536	-0.774170	0.445801	0.330566	0.093831	0.008602	0.003541	0.354865	-0.691548	-0.375101	-0.505106	-154.810885	-74.759274	37.577805
57744		9.454302	0.977141	-0.238406	2.765609	0.876481	-0.758528	0.550363	-0.846642	0.559343	-0.772705	0.455566	0.344727	0.094524	0.010042	-0.001957	0.356565	-0.693740	-0.376090	-0.500142	-154.222629	-74.183329	37.295356
57745		9.963973	1.971370	-0.378573	3.780114	0.433171	-0.387601	0.535385	-0.929833	0.614169	-0.770752	0.459717	0.346191	0.099595	0.020029	-0.003269	0.358195	-0.696248	-0.376990	-0.494786	-153.644201	-73.548497	37.015422
57746		10.037208	1.604664	-0.568168	3.499525	0.509884	-0.266217	0.509068	-1.036307	0.740752	-0.758057	0.474609	0.352783	0.100339	0.016432	-0.005120	0.359816	-0.699273	-0.377555	-0.488878	-152.995460	-72.827327	36.643236
57747		9.983308	0.544796	-1.130355	2.444247	0.556485	-0.068198	0.554656	-1.155837	0.848564	-0.753662	0.484619	0.347412	0.099872	0.005902	-0.010710	0.361628	-0.702677	-0.378053	-0.482230	-152.286499	-72.014286	36.235645
57748		9.801460	0.468100	-0.999615	2.516345	0.739023	-0.304440	0.644443	-1.248289	0.888081	-0.747314	0.500977	0.359375	0.098052	0.005147	-0.009368	0.363640	-0.706168	-0.378768	-0.475001	-151.593378	-71.143846	35.895108
57749		10.460230	1.125900	0.013871	3.805930	1.530415	-0.124840	0.650975	-1.331859	0.934045	-0.730957	0.504883	0.363281	0.104544	0.011745	0.000873	0.365616	-0.709881	-0.379468	-0.467331	-150.937889	-70.216394	35.599207
57750		11.131783	0.454108	0.341148	3.678432	2.332005	0.447266	0.599285	-1.428650	1.115132	-0.720703	0.515137	0.362061	0.111262	0.005150	0.004221	0.367601	-0.714199	-0.379543	-0.459061	-150.190347	-69.189686	35.169129
57751		11.247453	0.278305	0.482766	3.780838	2.645513	0.459527	0.633169	-1.505681	1.182437	-0.710449	0.530762	0.371582	0.112415	0.003431	0.005684	0.369695	-0.718689	-0.379566	-0.450268	-149.447576	-68.102596	34.764554
57752		11.708544	0.821406	0.432647	4.561649	2.557079	0.703962	0.638027	-1.571215	1.240280	-0.698730	0.544678	0.384033	0.116993	0.008924	0.005274	0.371758	-0.723352	-0.379467	-0.441091	-148.737009	-66.965481	34.392088
57753		11.795764	0.857533	0.353093	4.788594	2.592363	0.691771	0.666200	-1.646563	1.369542	-0.680176	0.558838	0.394531	0.117861	0.009369	0.004532	0.374036	-0.728286	-0.379066	-0.431283	-147.967739	-65.750252	33.972498
57754		11.932277	1.718411	0.456416	5.827832	2.447299	0.462592	0.713606	-1.703026	1.407025	-0.670410	0.568604	0.397217	0.119153	0.018004	0.005643	0.376397	-0.733233	-0.378679	-0.421066	-147.228481	-64.494853	33.609212
57755		12.128618	2.074467	0.802305	6.533529	2.755422	0.275115	0.739422	-1.795345	1.523146	-0.655029	0.588867	0.409424	0.121045	0.021635	0.009189	0.378881	-0.738437	-0.378046	-0.410173	-146.469642	-63.156356	33.238987
57756		12.396347	1.024240	0.273438	5.780329	2.929274	0.807674	0.820862	-1.899442	1.632332	-0.638916	0.598633	0.407227	0.123841	0.011239	0.003956	0.381618	-0.743789	-0.377307	-0.398478	-145.684655	-61.731918	32.884989
57757		13.126393	1.030410	-0.641489	6.051497	2.450080	1.639033	1.012301	-1.955981	1.636766	-0.620361	0.614258	0.419922	0.131228	0.011406	-0.005075	0.384914	-0.748757	-0.376981	-0.386122	-144.871601	-60.277099	32.621995
57758		12.544520	3.117890	-1.229949	7.695671	1.052297	0.592027	1.107521	-1.954861	1.563995	-0.601563	0.629150	0.422852	0.125307	0.032222	-0.010898	0.388341	-0.753268	-0.377030	-0.373668	-144.110352	-58.845577	32.476009
57759		11.536878	3.907871	-1.687319	8.049665	0.191329	-0.518876	0.965927	-1.958121	1.648299	-0.577881	0.642578	0.422607	0.115198	0.040106	-0.015553	0.391327	-0.758070	-0.376441	-0.361229	-143.404165	-57.383313	32.299443
57760		10.737083	4.771806	-1.861368	8.600090	-0.416898	-1.604423	0.801256	-1.965204	1.757969	-0.555908	0.658691	0.426758	0.107120	0.048732	-0.017366	0.393786	-0.763278	-0.375074	-0.348795	-142.756009	-55.878900	32.074035
57761		9.774484	5.491566	-1.491460	9.035018	-0.573343	-3.033729	0.493692	-2.001865	1.907475	-0.547119	0.661377	0.442383	0.097357	0.055880	-0.013802	0.395200	-0.769279	-0.372611	-0.336434	-142.236321	-54.305060	31.788839
57762		9.297577	3.321769	-1.336736	7.195884	0.386863	-2.933108	0.215746	-2.101197	2.129695	-0.519043	0.676025	0.448730	0.092748	0.034220	-0.012356	0.395638	-0.776258	-0.368932	-0.323702	-141.820056	-52.606149	31.425591
57763		9.139063	1.256929	-2.194878	5.425038	0.547085	-2.054938	0.190638	-2.178384	2.165098	-0.485596	0.692627	0.452881	0.091479	0.013580	-0.020940	0.395812	-0.783287	-0.365156	-0.310572	-141.464180	-50.859474	31.114811
57764		8.938221	-1.566399	-4.105377	2.873210	0.158064	-0.277943	0.132087	-2.221963	2.177412	-0.457520	0.704590	0.461182	0.089994	-0.014660	-0.040066	0.395592	-0.790346	-0.361227	-0.297279	-141.181163	-49.086927	30.845103
57765		9.301116	-4.171828	-6.105069	0.912105	-0.156119	2.032948	0.302626	-2.214852	2.165038	-0.437988	0.706055	0.467285	0.094124	-0.040612	-0.060074	0.395955	-0.796831	-0.357516	-0.283660	-140.826509	-47.322271	30.605856
57766		10.962029	-5.622484	-6.843157	0.955385	0.582806	4.235135	0.304561	-2.112442	1.898896	-0.417236	0.720947	0.480713	0.110862	-0.055073	-0.067349	0.396033	-0.802526	-0.354569	-0.270908	-140.576895	-45.697583	30.503421
57767		13.164217	-7.366227	-7.242756	1.220518	1.969892	6.759290	0.284399	-1.974471	1.594846	-0.396240	0.727295	0.491455	0.132931	-0.072504	-0.071223	0.395799	-0.807376	-0.352492	-0.259300	-140.431728	-44.245702	30.532397
57768		12.282812	-8.451957	-7.219663	0.175350	2.330568	6.587127	0.297748	-1.876955	1.171485	-0.374023	0.737549	0.488525	0.123991	-0.083689	-0.071162	0.395176	-0.811223	-0.351882	-0.248860	-140.424785	-42.990203	30.770753
57769		10.505179	-8.333553	-6.350646	-0.487089	2.490763	4.805477	0.331137	-1.795130	0.778130	-0.366455	0.739990	0.490479	0.105940	-0.082820	-0.062696	0.394308	-0.814108	-0.352724	-0.239446	-140.522284	-41.915472	31.200100
57770		11.250936	-8.510750	-5.537780	0.136582	3.668767	4.891062	0.318373	-1.703102	0.616599	-0.354004	0.732666	0.500244	0.113238	-0.084672	-0.054551	0.393311	-0.816561	-0.353979	-0.230722	-140.649266	-40.938314	31.668870
57771		13.406672	-8.346479	-5.260144	1.850049	4.827000	6.009582	0.414659	-1.578081	0.575339	-0.338379	0.744141	0.503662	0.134716	-0.082970	-0.051713	0.392861	-0.818529	-0.355256	-0.222405	-140.685701	-40.032499	32.095142
57772		14.230378	-5.881759	-3.942820	4.504930	5.277776	4.487387	0.634374	-1.419812	0.322395	-0.332764	0.745850	0.507568	0.142674	-0.058464	-0.038602	0.393271	-0.819397	-0.357461	-0.214823	-140.634574	-39.287277	32.585749
57773		14.595602	-1.840312	-1.924821	8.000683	5.427346	1.441358	0.541442	-1.294046	-0.162369	-0.328125	0.751709	0.504639	0.146062	-0.018471	-0.018353	0.392995	-0.819385	-0.361300	-0.208870	-140.765559	-38.775227	33.290707
57774		14.384668	-1.349097	-3.030489	8.204930	4.396950	1.644446	0.353546	-1.225374	0.118448	-0.317627	0.743408	0.504395	0.144037	-0.013353	-0.029446	0.392335	-0.820154	-0.363625	-0.202970	-140.876849	-38.189126	33.796327
57775		14.270051	-3.157076	-1.447881	6.918051	6.480654	1.405031	0.387537	-0.992426	0.671857	-0.314209	0.755371	0.497803	0.142875	-0.031064	-0.013831	0.392800	-0.821576	-0.363263	-0.196879	-140.704195	-37.508652	33.881832
57776		17.441293	0.820892	0.114623	12.109868	7.490416	0.293235	0.155263	-0.554730	0.015058	-0.312988	0.754395	0.509521	0.174408	0.008221	0.001636	0.392434	-0.821828	-0.364483	-0.194284	-140.766779	-37.258139	34.132715
57777		16.712326	5.535534	0.461128	15.171444	5.482774	-2.747080	-0.315115	-0.112381	-0.320038	-0.311035	0.754639	0.513184	0.167209	0.055095	0.004618	0.390635	-0.821931	-0.365782	-0.195032	-141.087862	-37.328250	34.371617
57778		13.089069	2.484764	-1.192142	10.421644	3.860674	-2.369343	-0.684247	0.180790	0.103061	-0.309814	0.742676	0.517578	0.130867	0.024874	-0.012125	0.388242	-0.823261	-0.364377	-0.196820	-141.398218	-37.373045	34.238255
57779		12.552482	-1.903897	-3.622346	6.649698	3.586351	1.014611	-0.702569	0.441900	0.033000	-0.311768	0.740967	0.515869	0.125448	-0.019146	-0.036434	0.386202	-0.824198	-0.362767	-0.199866	-141.669722	-37.565005	34.030939
57780		11.977608	-2.556886	-4.130237	5.703266	3.181788	1.341132	-0.615804	0.757199	-0.298719	-0.309082	0.736328	0.522705	0.119580	-0.025876	-0.041676	0.384725	-0.824065	-0.361957	-0.204674	-141.921802	-38.012714	33.867787
57781		10.630946	-1.380539	-3.738197	5.636089	2.322397	-0.234795	-0.763577	1.104763	-0.656353	-0.326904	0.718750	0.529297	0.106055	-0.014298	-0.037914	0.382920	-0.823139	-0.361832	-0.211878	-142.287007	-38.749385	33.761185
57782		9.739842	-0.523165	-3.472765	5.602347	1.692571	-1.271944	-1.074954	1.467570	-0.806326	-0.336670	0.714355	0.525146	0.097118	-0.005813	-0.035411	0.380268	-0.822131	-0.361225	-0.221392	-142.787996	-39.698689	33.580677
57783		9.079985	-0.804187	-3.468298	4.820686	1.453705	-1.460082	-1.390059	1.840403	-0.801651	-0.347656	0.697510	0.541260	0.090442	-0.008650	-0.035458	0.376987	-0.821173	-0.359542	-0.232992	-143.359669	-40.824046	33.242534
57784		8.309934	-1.589564	-3.566414	3.560227	1.313705	-1.452303	-1.522469	2.214194	-0.758603	-0.348145	0.686768	0.539795	0.082637	-0.016485	-0.036457	0.373786	-0.820008	-0.356715	-0.246222	-143.879875	-42.104014	32.711927
57785		7.500107	-1.785404	-3.988860	2.666775	0.632159	-1.576528	-1.519962	2.581554	-0.784210	-0.389404	0.672607	0.542236	0.074408	-0.018454	-0.040713	0.371161	-0.818130	-0.353263	-0.260975	-144.285796	-43.571393	32.034234
57786		6.556005	-1.091569	-4.429575	2.347813	-0.536248	-2.197669	-1.477314	2.952507	-0.900460	-0.409912	0.659180	0.545410	0.064846	-0.011540	-0.045173	0.369092	-0.815298	-0.349528	-0.277290	-144.583571	-45.248288	31.251297
57787		5.617774	-0.148667	-4.649998	2.247733	-1.646361	-3.072143	-1.489253	3.312976	-1.063239	-0.424072	0.647705	0.545410	0.055387	-0.002133	-0.047408	0.367288	-0.811403	-0.345695	-0.295331	-144.813529	-47.155675	30.394624
57788		4.632019	-0.044952	-4.671416	1.509765	-2.187088	-3.795144	-1.567575	3.652821	-1.188439	-0.442139	0.635010	0.532715	0.045452	-0.001092	-0.047543	0.365396	-0.806649	-0.341460	-0.314973	-144.993498	-49.260280	29.432423
57789		3.704646	-0.861678	-4.854485	0.051236	-2.340829	-4.107912	-1.622500	3.976169	-1.344092	-0.473389	0.619141	0.526855	0.036012	-0.009258	-0.049194	0.363434	-0.800816	-0.337035	-0.336180	-145.112230	-51.574410	28.384144
57790		3.076245	-1.668577	-5.236809	-1.298780	-2.523437	-4.190468	-1.550031	4.311242	-1.609003	-0.503418	0.596680	0.517334	0.029488	-0.017335	-0.052880	0.361667	-0.793431	-0.332979	-0.358873	-145.140159	-54.128800	27.306042
57791		2.511192	-2.585602	-5.785983	-2.775792	-2.734097	-4.219966	-1.366030	4.622759	-1.873150	-0.537598	0.568115	0.494141	0.023523	-0.026478	-0.058236	0.360456	-0.784191	-0.329541	-0.382776	-145.001289	-56.920123	26.190732
57792		1.741003	-4.241245	-6.573217	-5.041368	-2.772891	-4.235307	-1.053005	4.859721	-2.093132	-0.567139	0.552246	0.487549	0.015363	-0.042927	-0.065897	0.360182	-0.773048	-0.326895	-0.407193	-144.595465	-59.887489	25.007109
57793		0.774093	-5.419392	-6.935266	-6.842488	-2.720992	-4.931696	-0.681947	5.007926	-2.417387	-0.599365	0.540039	0.454346	0.005347	-0.054505	-0.069321	0.360647	-0.759805	-0.325744	-0.431881	-143.983175	-63.030479	23.865619
57794		-0.200027	-5.576033	-6.716394	-7.511297	-2.689729	-6.267691	-0.398681	5.041227	-2.877213	-0.631836	0.511963	0.436279	-0.004493	-0.055841	-0.066960	0.360960	-0.744626	-0.326624	-0.456681	-143.414716	-66.335137	22.985224
57795		-0.472680	-5.702514	-6.176323	-7.651144	-2.258726	-7.124401	-0.229200	4.902969	-3.326709	-0.671631	0.496094	0.401855	-0.007186	-0.056990	-0.061542	0.360331	-0.728068	-0.329530	-0.481133	-143.184877	-69.730712	22.595169
57796		0.455621	-6.303358	-6.143212	-8.001063	-1.845517	-6.613693	-0.113534	4.632346	-3.711675	-0.709717	0.459229	0.382324	0.001962	-0.063121	-0.061462	0.358442	-0.710689	-0.334315	-0.504653	-143.637467	-73.130250	23.004616
57797		1.998826	-7.207330	-6.008415	-8.490163	-1.166686	-5.503181	0.090676	4.282918	-4.017768	-0.732178	0.441406	0.339844	0.017243	-0.072411	-0.060506	0.355596	-0.692686	-0.341031	-0.526722	-145.246097	-76.469056	24.723280
57798		3.723833	-8.174625	-6.524295	-9.467036	-1.054560	-4.112864	0.337107	3.853761	-4.152669	-0.766602	0.402832	0.305420	0.034264	-0.082367	-0.066061	0.352233	-0.674575	-0.349348	-0.546660	-148.831461	-79.618451	28.584909
57799		5.536799	-8.484308	-6.163790	-9.601292	-0.579348	-2.878946	0.691334	3.391280	-4.201304	-0.783691	0.372803	0.286865	0.052514	-0.085750	-0.062840	0.348843	-0.656486	-0.359337	-0.564102	-156.358239	-82.460638	36.602553
57800		7.304943	-7.898651	-5.764703	-9.090252	-0.559067	-1.688379	1.094563	2.930496	-4.166479	-0.801758	0.339600	0.258057	0.070528	-0.080152	-0.059129	0.345807	-0.638600	-0.370902	-0.578826	-172.288442	-84.745261	53.259838
57801		8.416083	-6.822807	-5.617808	-8.403922	-1.050719	-1.027214	1.425767	2.478241	-3.880189	-0.822754	0.309082	0.230957	0.082113	-0.069427	-0.057696	0.343589	-0.621573	-0.383052	-0.590648	159.022924	-85.936690	82.856453
57802		8.164212	-5.381326	-5.174760	-7.253061	-1.526980	-1.600652	1.720591	2.017603	-3.345565	-0.836914	0.280762	0.206787	0.080201	-0.054710	-0.053030	0.342815	-0.606105	-0.395011	-0.599234	128.971340	-85.733208	113.972937
57803		7.839396	-3.844174	-3.219513	-5.233510	-0.646907	-2.145633	1.853779	1.603027	-2.718007	-0.838867	0.266846	0.195801	0.077601	-0.039195	-0.033180	0.343363	-0.592647	-0.406015	-0.604999	110.880813	-84.823922	133.188309
57804		11.258100	-1.782339	-0.656563	-2.705779	0.902071	1.242268	1.403671	1.094190	-1.939655	-0.854736	0.251709	0.187256	0.112363	-0.018864	-0.007311	0.343819	-0.582932	-0.414128	-0.608668	102.354639	-83.930426	142.564170
57805		12.730224	-6.904965	-7.662594	-10.509089	-3.262466	2.326767	1.048490	-0.102812	0.291685	-0.841309	0.266113	0.188477	0.127442	-0.068461	-0.076920	0.347505	-0.582032	-0.416664	-0.605698	103.865972	-84.074547	141.647367
57806		7.940804	-18.768494	-18.522417	-25.166920	-8.777498	-2.892482	1.793258	-1.954676	2.539343	-0.837646	0.274414	0.188477	0.083584	-0.184975	-0.186088	0.356255	-0.590022	-0.418064	-0.591759	121.623110	-84.988150	124.843685
57807		12.092013	-27.464785	-24.800126	-35.123642	-11.345156	2.538487	3.205971	-3.400071	5.393951	-0.806152	0.322510	0.203125	0.132435	-0.267180	-0.250138	0.374302	-0.605267	-0.417452	-0.565052	167.062630	-85.219204	81.096317
57808		16.963269	-7.272565	-13.390255	-10.936776	-8.447677	8.320781	4.928665	-2.457586	3.089487	-0.795410	0.365967	0.207764	0.172337	-0.066784	-0.133490	0.392601	-0.609125	-0.426452	-0.541267	-171.062115	-83.852484	61.962106
57809		14.178765	30.720047	-9.880278	26.644972	-17.514981	5.204256	2.380318	-1.540753	-2.376248	-0.795410	0.349609	0.208008	0.146170	0.306619	-0.094036	0.390040	-0.603456	-0.443106	-0.536066	177.953974	-83.045478	74.389852
57810		10.396529	5.354226	-2.307153	4.946262	-2.589458	0.717816	-1.214015	-2.078768	3.932938	-0.782715	0.377930	0.227783	0.103122	0.055439	-0.022329	0.392184	-0.619939	-0.431957	-0.524672	-166.905435	-81.627518	58.414677
57811		5.972368	-11.554567	-17.568546	-15.860362	-11.902366	-0.617959	-1.236376	-2.120338	4.382370	-0.767334	0.407959	0.255615	0.064104	-0.115253	-0.174308	0.395115	-0.637193	-0.419186	-0.512008	-155.563408	-79.656660	46.204690
57812		6.778559	-18.487708	-15.890603	-21.519235	-7.470431	1.200890	-1.722495	-1.411042	3.272495	-0.748535	0.430664	0.267822	0.071924	-0.185079	-0.156815	0.394947	-0.650933	-0.407093	-0.504558	-149.978426	-78.077227	39.508353
57813		4.496468	-18.116932	-16.147513	-21.409937	-7.839443	-0.362350	-0.037779	-0.979579	2.511653	-0.735840	0.454590	0.268799	0.048025	-0.180609	-0.161211	0.399100	-0.658540	-0.400752	-0.496428	-145.880002	-76.834692	35.287656
57814		11.215803	-7.545540	-9.987450	-8.154687	-5.042226	3.991428	0.712475	-0.557553	0.484526	-0.738281	0.445557	0.271973	0.112618	-0.074827	-0.099828	0.401504	-0.659456	-0.402069	-0.492191	-145.287952	-76.414866	35.099504
57815		15.518452	-3.389994	-8.848392	-3.038282	-4.851387	7.445377	-0.425567	-0.355199	0.084812	-0.731689	0.450928	0.278809	0.155356	-0.034022	-0.088136	0.399567	-0.661365	-0.401486	-0.491683	-145.859127	-76.216786	35.436581
57816		13.703566	-3.949452	-7.186657	-3.315911	-3.289707	5.458702	-0.999819	-0.371557	0.847695	-0.735352	0.462646	0.282227	0.137335	-0.039271	-0.071415	0.397567	-0.665954	-0.396994	-0.490756	-145.326929	-75.767290	34.298470
57817		11.032316	-9.543474	-5.598926	-8.330886	-0.026091	3.405782	-1.376309	-0.367364	1.553890	-0.731934	0.463867	0.285889	0.111164	-0.094955	-0.055131	0.396018	-0.672653	-0.389184	-0.489125	-143.814249	-75.076520	31.920760
57818		9.865203	-14.458924	-4.692912	-12.582120	2.697698	2.947125	-1.297005	-0.210826	1.058251	-0.727295	0.469971	0.298096	0.099465	-0.144364	-0.045888	0.393797	-0.677765	-0.382894	-0.488826	-143.042268	-74.618999	30.351899
57819		10.686607	-14.141249	-3.843963	-11.700783	3.607741	3.567490	-0.807205	-0.039868	0.256618	-0.729980	0.466797	0.296387	0.107055	-0.141429	-0.037848	0.391587	-0.679952	-0.380158	-0.489699	-143.145001	-74.509171	29.979338
57820		10.834158	-11.070492	-3.200626	-8.654499	3.041409	3.072500	-0.345564	0.127302	-0.204494	-0.730469	0.476074	0.296875	0.108208	-0.110871	-0.031884	0.390131	-0.679919	-0.379794	-0.491187	-143.542842	-74.638441	30.187462
57821		10.143609	-8.007551	-3.012720	-6.041642	1.895595	1.848989	-0.202289	0.250315	-0.655923	-0.740479	0.462646	0.289551	0.101135	-0.080438	-0.030173	0.388293	-0.678461	-0.381069	-0.493665	-144.481175	-74.971754	31.041464
57822		9.738865	-4.725423	-2.736135	-3.174852	0.774312	0.863496	-0.409082	0.301740	-1.070389	-0.757080	0.460938	0.297363	0.097092	-0.047830	-0.027411	0.384809	-0.676452	-0.383135	-0.497536	-146.273825	-75.463152	32.653852
57823		10.637455	-2.287605	-2.050533	-0.664063	0.547999	1.225880	-0.706778	0.366953	-1.271183	-0.765625	0.453125	0.304688	0.106188	-0.023624	-0.020618	0.379946	-0.674453	-0.384994	-0.502527	-148.661396	-76.028505	34.702500
57824		11.943130	-0.792279	-1.316928	1.063348	0.799474	2.155101	-0.911273	0.436817	-1.304151	-0.769043	0.454102	0.300781	0.119347	-0.008762	-0.013391	0.374401	-0.672546	-0.386297	-0.508213	-151.348652	-76.619157	36.931562
57825		12.108558	-0.510896	-1.426060	1.138577	0.625341	2.320831	-0.958363	0.527128	-1.120655	-0.785156	0.442627	0.290527	0.121016	-0.005856	-0.014553	0.369332	-0.670826	-0.386665	-0.513884	-153.759109	-77.179129	38.845286
57826		12.438679	-1.250580	-1.080484	0.507094	1.301166	2.657263	-0.964339	0.661632	-1.112336	-0.790283	0.434570	0.291504	0.124278	-0.013250	-0.011153	0.364484	-0.668728	-0.386720	-0.520003	-156.213238	-77.792026	40.793922
57827		12.133126	-2.310930	-1.183956	-0.695984	1.625836	2.468400	-1.008651	0.755448	-1.033108	-0.800049	0.418701	0.300537	0.121164	-0.023796	-0.012179	0.359891	-0.666577	-0.386208	-0.526306	-158.601683	-78.415996	42.650221
57828		11.258717	-1.105679	-0.925110	0.201632	1.194294	1.473049	-0.999784	0.830290	-1.152551	-0.810059	0.410156	0.289795	0.112481	-0.011753	-0.009661	0.355092	-0.663933	-0.385946	-0.533055	-161.503965	-79.087963	45.026020
57829		11.561976	3.771641	0.090966	4.850687	-0.090140	1.339516	-1.051194	0.860639	-1.373973	-0.819336	0.395752	0.285889	0.115877	0.036923	0.000216	0.349591	-0.660827	-0.386198	-0.540319	-165.406759	-79.781243	48.387744
57830		10.499229	7.410618	1.929034	8.603574	-0.351796	-0.080111	-1.331939	0.747957	-1.054661	-0.821289	0.388916	0.296631	0.105451	0.073675	0.018405	0.343746	-0.659063	-0.384797	-0.547180	-169.017253	-80.331834	51.279246
57831		7.603455	8.360560	4.750007	10.332344	1.173067	-3.321291	-1.398940	0.473011	-0.582855	-0.829834	0.376953	0.290527	0.076390	0.083712	0.046734	0.338442	-0.659036	-0.382104	-0.552381	-171.518835	-80.651386	53.006832
57832		5.038668	8.241801	7.695789	11.351771	3.322283	-6.257587	-1.248401	0.075149	-0.167989	-0.829834	0.375732	0.293945	0.050485	0.082854	0.076423	0.333977	-0.660601	-0.379111	-0.555284	-172.807051	-80.705504	53.588224
57833		2.702192	6.471277	9.636180	10.554041	5.450103	-8.841665	-0.834016	-0.357182	0.182950	-0.834961	0.378418	0.302246	0.026791	0.065139	0.096139	0.331045	-0.663330	-0.376822	-0.555345	-172.823087	-80.485504	53.123343
57834		2.334110	5.562741	9.637328	9.762314	5.801441	-9.256020	-0.168126	-0.771654	0.446645	-0.828125	0.388672	0.303711	0.022845	0.055760	0.096415	0.330246	-0.666580	-0.376183	-0.552355	-171.814046	-80.011444	52.002570
57835		3.829425	5.269451	7.313801	8.549432	4.176337	-7.491659	0.438885	-1.135911	0.675892	-0.822998	0.396240	0.313477	0.037700	0.052662	0.073469	0.331425	-0.670248	-0.377047	-0.546590	-170.042163	-79.304542	50.460152
57836		6.730310	4.063532	3.662979	6.128647	2.126285	-4.055671	0.798060	-1.440305	0.893917	-0.810303	0.416992	0.325684	0.066854	0.040787	0.037275	0.333789	-0.674511	-0.378639	-0.538751	-167.860273	-78.394949	48.703202
57837		9.199910	2.765821	0.300965	3.851063	0.343652	-1.013455	0.954255	-1.640320	1.023380	-0.804688	0.427734	0.324463	0.091826	0.028111	0.003897	0.336633	-0.679232	-0.380513	-0.529653	-165.671700	-77.343334	47.026998
57838		11.617970	1.674077	-2.310028	2.244911	-0.876758	1.904899	0.931908	-1.724229	1.122163	-0.789551	0.428467	0.342529	0.116276	0.017497	-0.022018	0.339444	-0.684315	-0.382084	-0.520098	-163.631223	-76.219345	45.480363
57839		11.770905	1.090671	-3.283887	1.561478	-1.297187	2.286920	0.868403	-1.724311	1.189593	-0.785645	0.439941	0.342041	0.117918	0.011747	-0.031773	0.342188	-0.689548	-0.383215	-0.510468	-161.751037	-75.071278	44.056445
57840		11.044244	0.368765	-3.067289	1.131648	-0.792887	1.571722	0.758463	-1.733624	1.251045	-0.770752	0.457275	0.366943	0.110676	0.004493	-0.029698	0.344629	-0.695021	-0.383816	-0.500861	-160.063748	-73.897379	42.757244
57841		11.066938	0.192813	-2.611779	1.412992	-0.209437	1.469588	0.698091	-1.771168	1.274428	-0.750732	0.474121	0.369141	0.110879	0.002723	-0.025128	0.346818	-0.700648	-0.384203	-0.491119	-158.591781	-72.688271	41.641080
57842		12.024689	0.565115	-1.583690	2.623702	0.807701	2.014316	0.653386	-1.810307	1.275724	-0.744141	0.484375	0.379883	0.120344	0.006468	-0.014728	0.348717	-0.706357	-0.384489	-0.481274	-157.340487	-71.452087	40.720278
57843		12.383050	0.879808	-0.596712	3.635435	1.711756	1.948119	0.678536	-1.852195	1.332558	-0.732910	0.500732	0.388184	0.123816	0.009641	-0.004789	0.350728	-0.712135	-0.384660	-0.471052	-156.149322	-70.174081	39.873857
57844		11.310856	1.811089	0.395706	4.802752	2.029791	0.394133	0.772316	-1.889826	1.404807	-0.723633	0.516602	0.397949	0.112933	0.018886	0.005097	0.353104	-0.717871	-0.384799	-0.460335	-154.957424	-68.854985	39.074784
57845		9.291654	2.600844	2.297968	5.860507	2.960223	-2.378575	0.811695	-1.980525	1.536357	-0.703369	0.524414	0.406982	0.092479	0.026624	0.024004	0.355708	-0.723880	-0.384660	-0.448895	-153.746309	-67.450017	38.274402
57846		8.217404	2.428262	3.370134	5.938127	3.803026	-3.892372	0.896151	-2.167440	1.733194	-0.679688	0.538086	0.416992	0.081588	0.024837	0.034698	0.358615	-0.730399	-0.384250	-0.436194	-152.491637	-65.893284	37.468161
57847		8.909176	2.880664	3.700802	6.820173	4.162546	-3.687498	1.117567	-2.390399	1.901495	-0.660889	0.558838	0.431152	0.088362	0.029438	0.038230	0.362197	-0.737152	-0.384022	-0.421837	-151.183896	-64.171208	36.735108
57848		10.599221	3.405088	5.053461	8.491245	5.670900	-3.089542	1.378048	-2.668946	2.097214	-0.636475	0.573242	0.434570	0.104941	0.034799	0.052178	0.366495	-0.744180	-0.384007	-0.405483	-149.823100	-62.248754	36.096241
57849		15.053424	4.534388	4.652146	11.251732	6.266126	0.331770	1.671374	-2.918824	2.295354	-0.616211	0.602783	0.447266	0.149300	0.046659	0.049093	0.371682	-0.751272	-0.384167	-0.387116	-148.380884	-60.138818	35.546384
57850		19.240961	7.125796	2.647164	14.973366	4.954984	3.573273	1.818225	-2.982509	2.450853	-0.594971	0.625732	0.451416	0.191090	0.073343	0.029988	0.377424	-0.758193	-0.383975	-0.367775	-146.893960	-57.944181	35.028431
57851		17.851138	7.385826	-0.224938	14.291881	2.284541	2.983098	1.468837	-2.940753	2.631905	-0.554688	0.642090	0.458740	0.177521	0.076200	0.000920	0.382099	-0.765691	-0.382210	-0.348759	-145.572209	-55.707084	34.458251
57852		17.363411	6.186448	-0.191882	13.526966	2.913901	2.364211	0.906926	-2.998760	2.839862	-0.536133	0.661133	0.467773	0.172732	0.064322	0.000964	0.384691	-0.774432	-0.378603	-0.330040	-144.566936	-53.367430	33.863175
57853		20.570661	7.932761	-1.218232	16.868615	2.618215	4.190436	0.348361	-3.122459	2.971327	-0.482910	0.684570	0.484375	0.204653	0.082391	-0.008840	0.384941	-0.784332	-0.373643	-0.311505	-143.938641	-50.923753	33.323808
57854		21.517087	9.011605	0.444580	19.121866	4.078560	2.916523	-0.751391	-3.353664	3.036261	-0.457031	0.696533	0.507813	0.213659	0.093392	0.007690	0.380343	-0.796456	-0.366963	-0.293830	-144.047521	-48.347387	32.902717
57855		20.580561	2.801100	0.026790	14.057522	6.328335	4.103752	-1.334638	-3.515243	3.253991	-0.415771	0.690918	0.524414	0.205269	0.031371	0.003677	0.373243	-0.809848	-0.358678	-0.276018	-144.455376	-45.627888	32.418826
57856		20.135885	-3.005856	-1.574505	9.576861	7.860161	6.416742	-1.282837	-3.441300	3.029692	-0.370117	0.698730	0.553955	0.202013	-0.027087	-0.012093	0.365941	-0.822183	-0.351002	-0.258649	-144.924098	-43.016244	32.038734
57857		19.665482	-6.865821	-2.970991	6.750040	8.821928	8.054768	-0.595626	-3.120401	2.595907	-0.343018	0.690186	0.562012	0.197954	-0.066176	-0.026428	0.361308	-0.831650	-0.345268	-0.242085	-145.094415	-40.704306	31.788620
57858		17.598300	-6.967827	-5.853826	5.489774	6.154502	8.200290	0.332309	-2.653611	2.002178	-0.314209	0.706787	0.571533	0.177425	-0.067812	-0.056304	0.360472	-0.837591	-0.342131	-0.226821	-144.851802	-38.801510	31.708231
57859		13.485650	-4.370022	-8.004803	4.836293	1.739560	5.634193	0.802211	-2.141423	1.344657	-0.284912	0.708984	0.568115	0.135993	-0.042471	-0.078768	0.361684	-0.840751	-0.341321	-0.214062	-144.456497	-37.361873	31.821356
57860		9.527654	-3.551819	-9.638664	2.877739	-1.412987	3.825894	0.344614	-1.747202	0.937558	-0.277588	0.709961	0.573975	0.096279	-0.034903	-0.095609	0.361127	-0.843544	-0.340932	-0.204418	-144.370937	-36.235873	32.009453
57861		8.037722	-5.247611	-9.771786	0.823076	-1.172218	3.809924	0.089858	-1.178593	0.776731	-0.265381	0.710693	0.572266	0.081154	-0.052118	-0.097265	0.360307	-0.845838	-0.339954	-0.197913	-144.342811	-35.435001	32.058780
57862		9.724844	-5.440384	-5.955151	2.310098	2.553585	2.343645	0.151077	-0.392518	0.405918	-0.250488	0.715332	0.576416	0.097475	-0.054161	-0.059401	0.360670	-0.846629	-0.339133	-0.195258	-144.218257	-35.117356	31.994346
57863		10.884288	-1.214946	-3.483775	6.366265	2.735511	-0.643829	-0.064095	0.364394	-0.189510	-0.260986	0.707275	0.578613	0.108768	-0.012264	-0.035032	0.360857	-0.846012	-0.339303	-0.197278	-144.231189	-35.357668	31.962910
57864		10.580876	4.616181	-2.794071	10.341359	0.118658	-3.972233	-0.648003	0.906779	-0.796437	-0.276367	0.695801	0.579590	0.105863	0.045648	-0.028569	0.358852	-0.844905	-0.340430	-0.203640	-144.654897	-36.046408	32.054085
57865		7.979535	-0.376909	-4.018087	4.760129	0.586793	-2.265775	-1.047824	1.217231	0.078825	-0.278320	0.695313	0.588135	0.079550	-0.003950	-0.040645	0.356595	-0.845595	-0.336926	-0.210449	-144.932722	-36.598401	31.519834
57866		5.598303	-4.745631	-4.740860	-0.179618	1.256444	-1.168270	-0.838160	1.587298	-0.096736	-0.288086	0.680908	0.587891	0.055582	-0.047683	-0.047651	0.355600	-0.845211	-0.333651	-0.218731	-145.057131	-37.375802	30.929711
57867		5.215755	-6.100764	-4.580854	-1.521517	1.870635	-0.891318	-0.636035	2.061087	-0.807854	-0.299072	0.676514	0.578613	0.051436	-0.061363	-0.046146	0.355468	-0.842632	-0.332767	-0.229957	-145.191459	-38.617256	30.564587
57868		4.911325	-5.445051	-4.137653	-1.367913	1.652220	-1.671164	-0.465711	2.555170	-1.484309	-0.321777	0.667725	0.584229	0.048174	-0.054907	-0.041869	0.356001	-0.837947	-0.333948	-0.244104	-145.350373	-40.305593	30.396003
57869		4.644306	-4.197630	-3.330087	-0.704896	1.404212	-2.898539	-0.366273	2.998016	-2.004835	-0.355713	0.644775	0.582764	0.045513	-0.042497	-0.033910	0.356984	-0.831407	-0.336582	-0.260839	-145.536933	-42.379323	30.367339
57870		4.395666	-3.777523	-3.062785	-0.724035	1.185636	-3.406702	-0.325061	3.372876	-2.311892	-0.380371	0.640381	0.568115	0.042992	-0.038326	-0.031296	0.358208	-0.823513	-0.339719	-0.279472	-145.729505	-44.722840	30.377615
57871		3.959264	-4.191085	-3.230070	-1.582937	0.985037	-3.473005	-0.211632	3.693393	-2.534010	-0.422852	0.622559	0.553467	0.038452	-0.042438	-0.032973	0.359971	-0.814189	-0.343204	-0.299546	-145.867003	-47.295443	30.400863
57872		3.675674	-4.436373	-3.595210	-2.285976	0.579488	-3.444998	-0.005457	3.961036	-2.796326	-0.452148	0.609375	0.544922	0.035410	-0.044866	-0.036661	0.362439	-0.803220	-0.347389	-0.320618	-145.936893	-50.073560	30.490767
57873		3.405515	-4.194055	-3.949100	-2.609887	-0.073989	-3.651824	0.185030	4.175226	-3.050475	-0.491699	0.602295	0.519287	0.032576	-0.042408	-0.040221	0.365405	-0.790598	-0.352294	-0.342523	-145.974411	-53.040125	30.673288
57874		2.944967	-3.927569	-4.215622	-2.979370	-0.729745	-4.116147	0.276998	4.355924	-3.280517	-0.522217	0.580566	0.498535	0.027873	-0.039683	-0.042830	0.368404	-0.776551	-0.357686	-0.365113	-146.051766	-56.160810	30.963790
57875		2.900555	-4.510126	-4.409485	-3.813313	-0.803721	-4.068328	0.365031	4.525960	-3.483283	-0.562012	0.564697	0.473633	0.027207	-0.045504	-0.044807	0.371380	-0.761046	-0.363428	-0.388336	-146.186561	-59.431741	31.368671
57876		3.265064	-5.439115	-5.077743	-4.951622	-1.049906	-3.457555	0.526989	4.694485	-3.681173	-0.608398	0.544678	0.443604	0.030438	-0.054830	-0.051653	0.374585	-0.743916	-0.369617	-0.411897	-146.366240	-62.840432	31.919363
57877		3.057055	-4.776920	-5.541701	-4.932798	-2.009724	-3.940431	0.393933	4.799092	-3.898447	-0.645264	0.527100	0.409668	0.028291	-0.048225	-0.056209	0.376677	-0.725715	-0.375792	-0.436157	-146.896473	-66.370358	32.753536
57878		2.956048	-3.764537	-4.615800	-4.047608	-1.836440	-4.868461	-0.077417	4.821172	-4.031557	-0.674561	0.487305	0.380127	0.027670	-0.038234	-0.046826	0.376457	-0.707407	-0.381024	-0.461167	-148.110811	-69.941823	34.014227
57879		4.042775	-4.734862	-5.138771	-5.102973	-1.818802	-3.829369	-0.644595	4.753992	-4.091162	-0.705078	0.466553	0.351563	0.038212	-0.048313	-0.052159	0.373578	-0.689495	-0.384900	-0.486712	-150.379652	-73.486073	36.011612
57880		5.229857	-6.007718	-5.773103	-6.598136	-1.772843	-2.737128	-1.127905	4.673940	-4.043735	-0.741211	0.425781	0.331299	0.049703	-0.061428	-0.058569	0.368639	-0.672100	-0.387212	-0.512302	-154.085069	-76.936376	39.174710
57881		6.775524	-6.281283	-4.796261	-6.616771	-0.673477	-1.806379	-1.532697	4.500230	-3.821414	-0.763672	0.392090	0.304932	0.065440	-0.064451	-0.048963	0.362198	-0.655673	-0.387679	-0.537225	-159.986462	-80.170739	44.294861
57882		9.057577	-6.305318	-4.401647	-6.667037	-0.142060	0.019437	-1.868119	4.184632	-3.341429	-0.797119	0.364258	0.279541	0.088562	-0.064963	-0.045283	0.355041	-0.641070	-0.385917	-0.560395	-169.280704	-82.996275	52.605985
57883		10.272484	-5.815127	-4.462909	-6.650229	-0.399715	0.903912	-2.055456	3.792481	-2.706030	-0.802979	0.335938	0.261475	0.101058	-0.059994	-0.045946	0.348027	-0.628651	-0.381998	-0.581165	175.528710	-85.267699	66.686381
57884		9.590066	-6.492857	-4.367379	-7.631054	-0.119307	-0.069079	-2.143437	3.301106	-1.968470	-0.823730	0.312744	0.246338	0.094522	-0.066338	-0.044536	0.341765	-0.618872	-0.376155	-0.598916	150.645907	-86.777841	90.395208
57885		7.959550	-9.326639	-5.042090	-10.699803	0.577668	-2.006603	-1.952883	2.756017	-1.259142	-0.830322	0.303467	0.224854	0.078308	-0.094256	-0.050589	0.337032	-0.611479	-0.369453	-0.613195	116.949690	-87.369005	123.009573
57886		6.625818	-10.496541	-5.772051	-12.194388	0.535496	-3.615914	-1.376224	2.256554	-0.851460	-0.839111	0.283447	0.221191	0.065158	-0.105642	-0.057734	0.334323	-0.605243	-0.364034	-0.624010	87.323428	-87.152244	151.879625
57887		5.698777	-8.820587	-6.786221	-11.330648	-1.180571	-4.659887	-0.747035	1.773684	-0.518024	-0.837891	0.283447	0.204346	0.056156	-0.088606	-0.068032	0.333613	-0.599980	-0.360305	-0.631590	69.577390	-86.647165	169.220002
57888		5.035400	-8.125560	-7.657640	-11.207922	-2.299512	-5.440837	-0.305862	1.302628	-0.056583	-0.835205	0.272217	0.192627	0.049831	-0.081387	-0.076778	0.334828	-0.596258	-0.357362	-0.636128	58.796057	-86.288464	179.846888
57889		4.433923	-8.850998	-7.062983	-11.498041	-1.459004	-6.131460	0.238636	0.907728	0.360347	-0.836426	0.286133	0.184570	0.044177	-0.088346	-0.070936	0.338260	-0.593608	-0.355539	-0.637810	50.747731	-86.153753	-171.952624
57890		4.662914	-9.060070	-5.297942	-10.779103	0.055878	-5.850090	0.951347	0.537802	0.454029	-0.835938	0.290527	0.186523	0.046691	-0.090241	-0.053535	0.343454	-0.591077	-0.356343	-0.636935	45.375787	-86.139542	-166.021429
57891		5.327542	-10.839394	-9.996927	-14.691805	-3.289801	-5.438438	1.771632	-0.127079	0.812516	-0.828857	0.290283	0.172607	0.053777	-0.107285	-0.100889	0.350993	-0.589866	-0.359799	-0.631987	41.996173	-86.512645	-161.620289
57892		3.147984	-13.332388	-12.280489	-17.729635	-4.410691	-7.657002	3.108478	-0.620373	1.110606	-0.830078	0.302979	0.173828	0.032597	-0.131216	-0.124755	0.362476	-0.588282	-0.367417	-0.622527	39.292285	-87.196178	-157.127887
57893		4.922421	-10.895947	-5.718028	-12.491768	-0.340994	-5.401433	4.815041	-0.825180	0.528098	-0.826172	0.318359	0.161377	0.049752	-0.107413	-0.059574	0.376612	-0.582934	-0.382245	-0.610115	44.167416	-87.750618	-159.249363
57894		25.185082	-7.661741	-16.765755	-14.523253	-12.397147	14.873057	4.849731	-2.089951	0.338682	-0.819824	0.332764	0.156250	0.253722	-0.072137	-0.166798	0.387626	-0.580615	-0.399886	-0.593905	76.534159	-88.534853	171.149265
57895		49.555935	29.108632	-14.106539	21.103173	-22.716236	40.586008	6.068165	-2.071571	-0.464273	-0.819092	0.333252	0.165283	0.497604	0.293929	-0.127027	0.399480	-0.573800	-0.423068	-0.576353	119.394312	-88.077447	131.747748
