// General information: 
//  MT Manager version: 2021.4.0 
//  XDA version: 2021.4.0 build 6323 rev 112641 built on 2021-09-28
// Device information: 
//  DeviceId: 00B4778E
//  ProductCode: MTW2-3A7G6
//  Firmware Version: 4.6.0
//  Hardware Version: 2.0.0
// Device settings: 
//  Filter Profile: human(46.1)
//  Option Flags: Orientation Smoother Disabled, Position/Velocity Smoother Disabled, Continuous Zero Rotation Update Disabled, AHS Disabled, ICC Disabled
// Coordinate system: ENU
PacketCounter	SampleTimeFine	Acc_X	Acc_Y	Acc_Z	FreeAcc_E	FreeAcc_N	FreeAcc_U	Gyr_X	Gyr_Y	Gyr_Z	Mag_X	Mag_Y	Mag_Z	VelInc_X	VelInc_Y	VelInc_Z	Quat_q0	Quat_q1	Quat_q2	Quat_q3	Roll	Pitch	Yaw
47777		5.512797	2.304829	7.705761	-0.002129	-0.024518	-0.061722	0.000038	0.010870	0.000810	-0.551025	-0.094482	-0.440186	0.055132	0.023049	0.077055	0.006058	-0.297927	-0.125533	-0.946279	16.478322	-34.427704	175.596304
47778		5.516374	2.293462	7.674040	-0.024052	-0.020810	-0.087450	0.000038	0.010870	0.000810	-0.551025	-0.091064	-0.451172	0.055168	0.022935	0.076737	0.006057	-0.297919	-0.125539	-0.946281	16.479112	-34.426680	175.596053
47779		5.515460	2.293328	7.674737	-0.023216	-0.020565	-0.087448	-0.001922	0.013608	0.001435	-0.548584	-0.100342	-0.442139	0.055160	0.022934	0.076743	0.006056	-0.297898	-0.125535	-0.946288	16.478157	-34.424240	175.596684
47780		5.510077	2.304423	7.707828	0.000391	-0.023762	-0.061720	-0.003327	0.012239	-0.000426	-0.548340	-0.098145	-0.446533	0.055106	0.023045	0.077075	0.006047	-0.297883	-0.125527	-0.946294	16.477310	-34.422261	175.596101
47781		5.509070	2.304173	7.708622	0.001229	-0.023516	-0.061720	-0.003534	0.013715	-0.000099	-0.547363	-0.096680	-0.445557	0.055096	0.023043	0.077082	0.006037	-0.297861	-0.125518	-0.946302	16.475997	-34.419512	175.595731
47782		5.514480	2.282663	7.699280	-0.010711	-0.004686	-0.071086	-0.001717	0.012131	0.001108	-0.546631	-0.099609	-0.451904	0.055149	0.022828	0.076989	0.006036	-0.297847	-0.125516	-0.946307	16.475524	-34.417834	175.596013
47783		5.505099	2.313615	7.687998	-0.007088	-0.038138	-0.078072	-0.003677	0.014869	0.001733	-0.543945	-0.104248	-0.445313	0.055057	0.023138	0.076875	0.006035	-0.297820	-0.125502	-0.946317	16.473311	-34.414749	175.597090
47784		5.512458	2.281917	7.700948	-0.009039	-0.004179	-0.071084	-0.004954	0.012857	0.002884	-0.548584	-0.094238	-0.443359	0.055129	0.022822	0.077005	0.006036	-0.297804	-0.125482	-0.946325	16.470269	-34.412930	175.598455
47785		5.528599	2.309408	7.712752	-0.013661	-0.027233	-0.046194	-0.001860	0.013286	0.002941	-0.547363	-0.099365	-0.444580	0.055291	0.023096	0.077124	0.006042	-0.297786	-0.125475	-0.946331	16.468819	-34.410911	175.600025
47786		5.493435	2.253200	7.691568	-0.001900	0.019620	-0.095972	-0.003614	0.014548	0.003239	-0.546631	-0.094482	-0.448730	0.054940	0.022534	0.076911	0.006050	-0.297762	-0.125461	-0.946341	16.466188	-34.408266	175.602172
47787		5.503088	2.302086	7.713517	0.006260	-0.022007	-0.061718	-0.003392	0.012561	-0.001933	-0.542725	-0.100342	-0.443359	0.055036	0.023022	0.077131	0.006031	-0.297744	-0.125455	-0.946347	16.465775	-34.405854	175.600353
47788		5.478792	2.295215	7.713271	0.025335	-0.017029	-0.077247	-0.002788	0.008643	0.001931	-0.543945	-0.095947	-0.443604	0.054791	0.022954	0.077130	0.006030	-0.297747	-0.125446	-0.946348	16.464769	-34.406213	175.600517
47789		5.501429	2.301554	7.714859	0.007935	-0.021506	-0.061718	-0.003535	0.013715	-0.000100	-0.545898	-0.107178	-0.454346	0.055020	0.023017	0.077144	0.006020	-0.297724	-0.125436	-0.946356	16.463456	-34.403464	175.600145
47790		5.528440	2.296678	7.684156	-0.032255	-0.022514	-0.071892	0.000100	0.010547	0.002316	-0.549805	-0.107666	-0.447510	0.055288	0.022967	0.076839	0.006024	-0.297719	-0.125441	-0.946357	16.463779	-34.402820	175.600696
47791		5.529586	2.286345	7.707051	-0.021408	-0.007144	-0.055545	-0.004893	0.012535	0.004388	-0.543945	-0.095703	-0.443604	0.055300	0.022867	0.077066	0.006033	-0.297705	-0.125418	-0.946364	16.460131	-34.401449	175.603081
47792		5.505340	2.279187	7.706846	-0.002335	-0.002164	-0.071079	-0.002932	0.009797	0.003764	-0.544922	-0.093994	-0.446289	0.055057	0.022794	0.077065	0.006038	-0.297704	-0.125406	-0.946366	16.458261	-34.401482	175.604306
47793		5.504603	2.278890	7.707460	-0.001497	-0.001919	-0.071079	-0.001511	0.010655	0.000781	-0.548340	-0.102539	-0.446289	0.055050	0.022790	0.077071	0.006033	-0.297697	-0.125404	-0.946369	16.458117	-34.400558	175.603919
47794		5.527293	2.285207	7.709033	-0.018888	-0.006377	-0.055540	-0.003139	0.011273	0.004090	-0.550293	-0.095459	-0.448730	0.055277	0.022854	0.077087	0.006043	-0.297689	-0.125391	-0.946373	16.455811	-34.399831	175.605949
47795		5.494713	2.309411	7.696686	0.002946	-0.035117	-0.078059	-0.002995	0.010119	0.002257	-0.554443	-0.105713	-0.451904	0.054951	0.023096	0.076964	0.006043	-0.297685	-0.125380	-0.946376	16.454320	-34.399441	175.606440
47796		5.525790	2.284652	7.710275	-0.017208	-0.005872	-0.055536	0.000180	0.009715	-0.001022	-0.545166	-0.104492	-0.441406	0.055262	0.022846	0.077100	0.006031	-0.297681	-0.125390	-0.946376	16.456026	-34.398744	175.604619
47797		5.546653	2.301143	7.689512	-0.044616	-0.025464	-0.056327	-0.001179	0.008535	0.003466	-0.551514	-0.096191	-0.447754	0.055469	0.023013	0.076893	0.006038	-0.297686	-0.125386	-0.946375	16.455297	-34.399420	175.605603
47798		5.517904	2.305665	7.721526	-0.002742	-0.023941	-0.046177	-0.001844	0.012775	-0.001905	-0.557129	-0.101807	-0.439941	0.055184	0.023057	0.077212	0.006021	-0.297667	-0.125387	-0.946381	16.455843	-34.396912	175.603688
47799		5.499991	2.277464	7.711174	0.003538	-0.000408	-0.071079	-0.004481	0.009583	0.003733	-0.555908	-0.104004	-0.450684	0.055003	0.022777	0.077109	0.006025	-0.297667	-0.125367	-0.946383	16.453006	-34.397057	175.605055
47800		5.467472	2.301689	7.698767	0.025366	-0.029138	-0.093606	-0.001449	0.010333	0.002287	-0.546387	-0.097900	-0.447266	0.054678	0.023018	0.076985	0.006024	-0.297663	-0.125364	-0.946385	16.452492	-34.396604	175.605157
47801		5.537204	2.321236	7.702171	-0.028464	-0.043022	-0.046954	-0.002934	0.009797	0.003763	-0.543457	-0.093750	-0.442627	0.055375	0.023215	0.077019	0.006031	-0.297662	-0.125351	-0.946387	16.450506	-34.396635	175.606587
47802		5.514872	2.304266	7.724109	0.000627	-0.022933	-0.046174	-0.003266	0.011917	0.001077	-0.542480	-0.098145	-0.453125	0.055153	0.023044	0.077237	0.006028	-0.297649	-0.125342	-0.946392	16.449171	-34.395067	175.606927
47803		5.518483	2.292668	7.692506	-0.021351	-0.019235	-0.071855	-0.001657	0.011809	0.002613	-0.544434	-0.093750	-0.447754	0.055189	0.022928	0.076922	0.006032	-0.297637	-0.125337	-0.946397	16.448126	-34.393806	175.607987
47804		5.524068	2.271175	7.683051	-0.033304	-0.000404	-0.081206	-0.001512	0.010655	0.000781	-0.554443	-0.093506	-0.450439	0.055245	0.022713	0.076827	0.006031	-0.297629	-0.125337	-0.946399	16.448041	-34.392844	175.608059
47805		5.510345	2.313441	7.704006	-0.006896	-0.037313	-0.062499	-0.002009	0.014439	0.004772	-0.551270	-0.104736	-0.439453	0.055108	0.023137	0.077036	0.006047	-0.297607	-0.125327	-0.946407	16.445690	-34.390488	175.611074
47806		5.487826	2.296539	7.726034	0.022203	-0.017224	-0.061732	-0.001719	0.012131	0.001107	-0.556152	-0.104736	-0.446045	0.054883	0.022966	0.077257	0.006044	-0.297593	-0.125324	-0.946412	16.445237	-34.388845	175.611067
47807		5.491353	2.284851	7.694527	0.000216	-0.013528	-0.087408	-0.005166	0.014333	0.003205	-0.545898	-0.102295	-0.440918	0.054919	0.022851	0.076941	0.006047	-0.297570	-0.125302	-0.946422	16.441678	-34.386293	175.613017
47808		5.545703	2.266365	7.709338	-0.038113	0.011035	-0.049310	-0.003205	0.011595	0.002582	-0.544678	-0.095947	-0.439209	0.055461	0.022666	0.077090	0.006045	-0.297561	-0.125289	-0.946427	16.439921	-34.385179	175.613492
47809		5.463941	2.369262	7.736426	0.053040	-0.087331	-0.050008	0.000035	0.010869	0.000811	-0.556885	-0.104980	-0.446045	0.054644	0.023693	0.077361	0.006043	-0.297552	-0.125295	-0.946429	16.440628	-34.384142	175.613167
47810		5.526826	2.238019	7.699701	-0.030999	0.034822	-0.074219	-0.005290	0.014978	0.000192	-0.547363	-0.102539	-0.441895	0.055274	0.022382	0.076992	0.006031	-0.297525	-0.125276	-0.946440	16.438173	-34.380788	175.612955
47811		5.553715	2.232962	7.669260	-0.071204	0.033820	-0.084317	-0.002073	0.014761	0.003266	-0.556152	-0.105225	-0.443359	0.055542	0.022331	0.076688	0.006039	-0.297500	-0.125268	-0.946449	16.436317	-34.378010	175.615029
47812		5.490958	2.271967	7.666192	-0.018415	-0.008800	-0.113072	-0.000526	0.014975	0.003297	-0.559570	-0.091553	-0.441162	0.054915	0.022721	0.076658	0.006046	-0.297475	-0.125267	-0.946457	16.435455	-34.375163	175.616583
47813		5.510711	2.279669	7.722532	-0.002899	-0.001578	-0.055520	-0.002135	0.015083	0.001760	-0.552490	-0.098389	-0.439697	0.055113	0.022798	0.077221	0.006048	-0.297448	-0.125261	-0.946466	16.434095	-34.371964	175.617717
47814		5.518397	2.338712	7.722312	-0.004729	-0.058306	-0.037568	0.002775	0.013927	0.003033	-0.549805	-0.097900	-0.441406	0.055189	0.023387	0.077220	0.006063	-0.297427	-0.125277	-0.946470	16.435259	-34.369695	175.619517
47815		5.655802	2.125426	7.669431	-0.166271	0.143897	-0.051675	-0.000722	0.017147	0.014818	-0.553955	-0.099609	-0.433105	0.056563	0.021259	0.076689	0.006130	-0.297398	-0.125258	-0.946482	16.429572	-34.367478	175.629750
47816		5.367654	2.419739	7.692936	0.108964	-0.154026	-0.127001	0.002483	0.016234	0.006698	-0.555420	-0.100830	-0.436035	0.053682	0.024198	0.076925	0.006160	-0.297369	-0.125266	-0.946489	16.428977	-34.364528	175.634070
47817		6.073139	2.009372	7.530250	-0.598392	0.248129	0.046603	-0.003914	0.006173	0.012437	-0.555664	-0.103271	-0.437744	0.060732	0.020099	0.075300	0.006204	-0.297390	-0.125236	-0.946486	16.423572	-34.367955	175.640563
47818		5.612795	2.116162	7.483891	-0.236088	0.103916	-0.225003	-0.001709	0.012827	0.012300	-0.559814	-0.102539	-0.435303	0.056131	0.021166	0.074835	0.006250	-0.297381	-0.125216	-0.946492	16.418877	-34.367803	175.647607
47819		5.768209	2.192909	7.479456	-0.359937	0.037618	-0.122879	-0.001563	0.011674	0.010468	-0.552246	-0.091553	-0.429688	0.057685	0.021933	0.074791	0.006292	-0.297376	-0.125200	-0.946495	16.414950	-34.367888	175.653868
47820		5.682668	2.197701	7.650784	-0.192941	0.068401	-0.034385	-0.004485	0.009584	0.003727	-0.553711	-0.097412	-0.439697	0.056830	0.021980	0.076505	0.006293	-0.297377	-0.125179	-0.946498	16.412206	-34.368161	175.654857
47821		5.566467	2.326432	7.719267	-0.047984	-0.047340	-0.015729	-0.003533	0.013717	-0.000107	-0.559082	-0.098633	-0.437988	0.055670	0.023266	0.077188	0.006283	-0.297355	-0.125169	-0.946506	16.410899	-34.365411	175.654479
47822		5.734806	2.279199	7.631132	-0.240388	-0.012563	-0.001521	-0.004693	0.011060	0.004053	-0.558350	-0.096680	-0.438965	0.057352	0.022795	0.076308	0.006288	-0.297349	-0.125148	-0.946511	16.407749	-34.364879	175.656128
47823		5.541623	2.237231	7.656116	-0.071121	0.021737	-0.100562	-0.003058	0.010442	0.000746	-0.560791	-0.092529	-0.438477	0.055420	0.022374	0.076558	0.006280	-0.297343	-0.125139	-0.946514	16.406755	-34.364066	175.655675
47824		5.598938	2.217369	7.616315	-0.142307	0.034653	-0.104359	-0.005766	0.007572	0.004873	-0.563721	-0.101074	-0.438232	0.055992	0.022177	0.076160	0.006287	-0.297353	-0.125112	-0.946514	16.403044	-34.365592	175.657403
47825		5.671537	2.235235	7.565425	-0.228988	0.009170	-0.099514	-0.004486	0.009584	0.003726	-0.558594	-0.099854	-0.432373	0.056719	0.022355	0.075651	0.006291	-0.297353	-0.125092	-0.946516	16.400207	-34.365734	175.658766
47826		5.436354	2.313564	7.782136	0.092963	-0.029550	-0.042393	-0.002998	0.010120	0.002252	-0.554688	-0.092041	-0.436035	0.054367	0.023137	0.077818	0.006288	-0.297351	-0.125081	-0.946519	16.398832	-34.365436	175.658803
47827		5.588439	2.328785	7.669707	-0.094022	-0.062175	-0.042038	-0.004426	0.009261	0.005232	-0.562500	-0.104736	-0.436279	0.055887	0.023291	0.076694	0.006299	-0.297353	-0.125059	-0.946521	16.395499	-34.365999	175.661105
47828		5.497656	2.281857	7.710612	-0.000254	-0.012928	-0.071822	-0.002672	0.007998	0.004938	-0.561035	-0.099609	-0.439697	0.054979	0.022821	0.077104	0.006309	-0.297362	-0.125046	-0.946520	16.393519	-34.367270	175.662782
47829		5.320231	2.368253	7.711274	0.153502	-0.107757	-0.151318	-0.004932	0.012351	-0.001972	-0.551270	-0.093750	-0.432617	0.053207	0.023684	0.077109	0.006287	-0.297345	-0.125032	-0.946527	16.392263	-34.364970	175.660892
47830		5.476741	2.344657	7.742420	0.039801	-0.068170	-0.043811	-0.008085	0.012940	0.007651	-0.556885	-0.096191	-0.430420	0.054772	0.023452	0.077420	0.006306	-0.297332	-0.124990	-0.946537	16.385609	-34.363943	175.665475
47831		5.624030	2.198676	7.611933	-0.167392	0.050336	-0.098015	-0.006034	0.009371	0.003692	-0.560791	-0.093994	-0.427734	0.056243	0.021990	0.076116	0.006308	-0.297333	-0.124963	-0.946540	16.381921	-34.364196	175.666773
47832		5.479915	2.331907	7.711552	0.018610	-0.064215	-0.069442	-0.003088	0.010950	0.005591	-0.569336	-0.095215	-0.438477	0.054803	0.023322	0.077112	0.006323	-0.297328	-0.124947	-0.946543	16.379127	-34.363942	175.669546
47833		5.743912	2.210340	7.662751	-0.236446	0.057717	0.012619	-0.005649	0.006926	0.007883	-0.557861	-0.095703	-0.427734	0.057441	0.022108	0.076625	0.006344	-0.297343	-0.124916	-0.946543	16.374354	-34.366216	175.673157
47834		5.727533	2.190443	7.575294	-0.273265	0.054440	-0.070505	-0.003539	0.003034	0.005431	-0.561523	-0.093506	-0.444824	0.057276	0.021907	0.075752	0.006353	-0.297375	-0.124898	-0.946535	16.372237	-34.370272	175.674312
47835		5.617814	2.207594	7.646127	-0.141139	0.047906	-0.072341	0.000985	0.004318	0.002519	-0.567627	-0.101074	-0.433838	0.056180	0.022076	0.076460	0.006356	-0.297399	-0.124906	-0.946526	16.373570	-34.373113	175.673841
47836		5.490916	2.197082	7.705830	-0.003620	0.064634	-0.099143	0.000836	0.005472	0.004351	-0.564697	-0.092773	-0.428711	0.054911	0.021972	0.077057	0.006368	-0.297419	-0.124911	-0.946519	16.374097	-34.375648	175.674770
47837		5.430677	2.226576	7.724251	0.059160	0.037061	-0.111704	0.005302	0.007079	-0.000066	-0.566895	-0.099121	-0.424072	0.054310	0.022264	0.077241	0.006367	-0.297428	-0.124943	-0.946512	16.378570	-34.376553	175.673117
47838		5.475470	2.250115	7.704262	0.013549	0.012842	-0.096767	0.004435	0.002115	0.000427	-0.564697	-0.100830	-0.437500	0.054755	0.022500	0.077043	0.006364	-0.297461	-0.124971	-0.946498	16.383005	-34.380303	175.670761
47839		5.393375	2.345294	7.807213	0.147695	-0.058811	-0.039448	0.010448	0.003935	-0.003957	-0.558594	-0.099121	-0.430664	0.053936	0.023448	0.078072	0.006351	-0.297482	-0.125033	-0.946483	16.392239	-34.382308	175.665900
47840		5.612078	2.311179	7.666086	-0.114027	-0.044941	-0.035631	0.008811	0.004553	-0.000653	-0.561279	-0.094238	-0.433594	0.056123	0.023108	0.076661	0.006351	-0.297503	-0.125084	-0.946470	16.399318	-34.384536	175.663313
47841		5.784564	2.245161	7.621939	-0.286196	0.020206	0.011445	0.011432	0.008253	-0.001439	-0.562988	-0.095215	-0.433594	0.057849	0.022447	0.076218	0.006353	-0.297506	-0.125147	-0.946461	16.407691	-34.384574	175.660975
47842		5.839795	2.237008	7.559757	-0.367487	0.018045	-0.008507	0.016822	0.014501	-0.004845	-0.555664	-0.091553	-0.432617	0.058404	0.022362	0.075595	0.006351	-0.297476	-0.125241	-0.946458	16.419833	-34.380660	175.657560
47843		5.704536	2.159972	7.642875	-0.217183	0.106829	-0.037097	0.034413	0.023421	-0.012501	-0.561035	-0.095215	-0.445068	0.057056	0.021583	0.076426	0.006345	-0.297399	-0.125429	-0.946457	16.443850	-34.370568	175.650835
47844		5.643371	2.202116	7.584791	-0.197526	0.052456	-0.107831	0.047925	0.027593	-0.022742	-0.561768	-0.092773	-0.435059	0.056447	0.021997	0.075845	0.006313	-0.297296	-0.125696	-0.946454	16.479080	-34.356557	175.638092
47845		5.493575	2.252690	7.751480	0.021478	0.040182	-0.048603	0.061551	0.031122	-0.029972	-0.561523	-0.100098	-0.433105	0.054951	0.022495	0.077513	0.006270	-0.297171	-0.126038	-0.946448	16.524336	-34.339385	175.621277
47846		5.309274	2.357443	7.783368	0.197987	-0.058204	-0.102685	0.069962	0.027439	-0.029275	-0.558105	-0.100342	-0.438477	0.053107	0.023539	0.077835	0.006239	-0.297063	-0.126419	-0.946432	16.574637	-34.324380	175.604168
47847		5.609128	2.306149	7.625686	-0.143831	-0.021117	-0.070481	0.058920	0.027419	-0.029193	-0.559814	-0.099365	-0.430176	0.056105	0.023031	0.076256	0.006193	-0.296956	-0.126748	-0.946422	16.618476	-34.309345	175.587178
47848		5.598119	2.343282	7.613692	-0.140309	-0.054569	-0.077414	0.055729	0.027826	-0.025927	-0.568359	-0.102295	-0.429199	0.055995	0.023404	0.076136	0.006158	-0.296849	-0.127057	-0.946414	16.659299	-34.294654	175.572400
47849		5.573196	2.350056	7.536216	-0.164462	-0.076463	-0.151169	0.042038	0.024619	-0.020210	-0.563477	-0.095459	-0.440430	0.055744	0.023479	0.075360	0.006127	-0.296761	-0.127292	-0.946410	16.690394	-34.282613	175.560851
47850		5.653238	2.322858	7.596584	-0.200548	-0.026209	-0.064767	0.032873	0.022694	-0.017403	-0.567871	-0.106689	-0.430664	0.056543	0.023211	0.075963	0.006095	-0.296685	-0.127480	-0.946409	16.715491	-34.272133	175.550743
47851		5.510191	2.350338	7.753024	0.005689	-0.019928	-0.014972	0.034150	0.024704	-0.018554	-0.564697	-0.095215	-0.431885	0.055114	0.023485	0.077527	0.006060	-0.296598	-0.127676	-0.946410	16.741425	-34.260310	175.540327
47852		5.383284	2.424202	7.821440	0.153284	-0.078825	-0.014641	0.034242	0.023865	-0.021893	-0.567383	-0.090576	-0.441650	0.053845	0.024223	0.078212	0.006010	-0.296513	-0.127877	-0.946410	16.768841	-34.248439	175.527481
47853		5.515219	2.425163	7.676206	-0.038490	-0.103187	-0.055072	0.030633	0.027228	-0.017982	-0.561035	-0.094971	-0.435547	0.055165	0.024235	0.076758	0.005974	-0.296414	-0.128055	-0.946417	16.792250	-34.235319	175.517966
47854		5.706924	2.305363	7.527047	-0.292147	-0.008996	-0.093907	0.016909	0.024540	-0.007423	-0.571289	-0.092529	-0.432373	0.057079	0.023045	0.075265	0.005967	-0.296336	-0.128153	-0.946428	16.804245	-34.225462	175.514902
47855		5.583960	2.357240	7.640284	-0.124313	-0.037651	-0.061059	0.011144	0.020727	-0.008206	-0.565186	-0.098877	-0.441406	0.055848	0.023566	0.076398	0.005945	-0.296275	-0.128225	-0.946438	16.813565	-34.217523	175.510579
47856		5.507127	2.349601	7.670222	-0.046071	-0.026876	-0.082398	0.003375	0.020173	-0.003538	-0.560547	-0.099365	-0.434814	0.055079	0.023494	0.076697	0.005933	-0.296220	-0.128253	-0.946451	16.816849	-34.210710	175.509196
47857		5.313252	2.308119	7.694650	0.122930	0.007152	-0.181980	0.000971	0.014994	-0.003066	-0.559326	-0.099365	-0.441406	0.053139	0.023080	0.076943	0.005917	-0.296190	-0.128269	-0.946458	16.819067	-34.206766	175.507135
47858		5.324947	2.347851	7.738173	0.141343	-0.019290	-0.131446	0.005116	-0.002626	0.000970	-0.568115	-0.103760	-0.438965	0.053248	0.023477	0.077383	0.005914	-0.296246	-0.128299	-0.946437	16.824238	-34.213202	175.504168
47859		5.408167	2.163293	7.648700	0.008845	0.143572	-0.199674	0.017735	-0.024239	0.007232	-0.564209	-0.105469	-0.435547	0.054072	0.021628	0.076495	0.005946	-0.296408	-0.128380	-0.946375	16.836647	-34.232483	175.501067
47860		5.441311	2.322342	7.686469	0.021876	0.003223	-0.113076	0.025241	-0.065488	0.006126	-0.563232	-0.097412	-0.431396	0.054387	0.023215	0.076885	0.005957	-0.296764	-0.128500	-0.946247	16.858535	-34.274245	175.488873
47861		5.245198	2.477493	7.819423	0.279867	-0.124230	-0.081311	0.029817	-0.085858	0.015866	-0.564941	-0.104736	-0.433594	0.052416	0.024767	0.078220	0.006008	-0.297222	-0.128627	-0.946086	16.881641	-34.328746	175.479080
47862		5.002661	2.629084	7.927008	0.564017	-0.257518	-0.097147	0.030532	-0.112461	0.022709	-0.568115	-0.101074	-0.434814	0.049979	0.026284	0.079302	0.006075	-0.297811	-0.128749	-0.945884	16.905743	-34.399010	175.468384
47863		5.170874	2.607391	7.950564	0.450653	-0.217744	0.010620	0.026684	-0.139818	0.037308	-0.566406	-0.101074	-0.434082	0.051648	0.026073	0.079545	0.006189	-0.298538	-0.128831	-0.945642	16.925221	-34.486657	175.461867
47864		5.233077	2.520430	7.979502	0.425395	-0.120987	0.047053	0.030648	-0.177608	0.054302	-0.570801	-0.099121	-0.427979	0.052253	0.025206	0.079845	0.006364	-0.299454	-0.128908	-0.945341	16.945033	-34.597884	175.458911
47865		5.266818	2.367554	8.006398	0.420985	0.037361	0.049788	0.043710	-0.224350	0.067673	-0.577637	-0.093018	-0.428711	0.052570	0.023676	0.080128	0.006591	-0.300599	-0.129027	-0.944960	16.972604	-34.736929	175.455353
47866		5.108714	2.448589	8.123516	0.650745	-0.019227	0.069729	0.064626	-0.271717	0.074485	-0.570801	-0.097412	-0.427490	0.050968	0.024479	0.081312	0.006852	-0.301972	-0.129237	-0.944491	17.015249	-34.903093	175.446529
47867		5.181539	2.341213	8.428231	0.788386	0.169624	0.322117	0.082683	-0.354350	0.089426	-0.572510	-0.104492	-0.428223	0.051655	0.023400	0.084384	0.007157	-0.303742	-0.129512	-0.943884	17.072265	-35.117001	175.430598
47868		5.352553	2.140653	8.329701	0.617001	0.356951	0.292155	0.108103	-0.446919	0.089443	-0.574219	-0.093262	-0.417969	0.053330	0.021385	0.083428	0.007441	-0.305947	-0.129910	-0.943114	17.155234	-35.381591	175.395146
47869		4.919397	1.737049	8.702223	1.199833	0.822388	0.228739	0.188500	-0.577861	0.149474	-0.578369	-0.098877	-0.423828	0.048929	0.017325	0.087180	0.008045	-0.308803	-0.130598	-0.942083	17.277129	-35.727965	175.372121
47870		4.103343	3.338092	9.497426	2.553373	-0.555225	0.739683	0.369365	-0.844215	0.222131	-0.585449	-0.094482	-0.410889	0.040595	0.033250	0.095208	0.009098	-0.312949	-0.132035	-0.940504	17.507991	-36.232348	175.340344
47871		4.671521	1.470207	9.508823	2.024546	1.322233	0.606233	0.457343	-1.100927	0.255714	-0.585449	-0.102051	-0.413330	0.046172	0.014543	0.095377	0.010276	-0.318310	-0.133840	-0.938435	17.810817	-36.882604	175.272716
47872		4.848170	2.891712	9.464578	2.143750	-0.003609	0.996892	0.568796	-1.373218	0.309914	-0.592529	-0.102783	-0.402100	0.047785	0.028722	0.095057	0.011703	-0.324964	-0.136091	-0.935810	18.195848	-37.690437	175.176015
47873		5.184782	2.243680	9.351835	1.910864	0.664968	0.923981	0.622040	-1.681393	0.362544	-0.604980	-0.104736	-0.384033	0.051018	0.022238	0.094019	0.013252	-0.333070	-0.138512	-0.932579	18.639213	-38.674804	175.036172
47874		5.056877	3.031504	9.543751	2.430141	0.007556	1.138781	0.670533	-2.018125	0.412018	-0.604248	-0.094482	-0.364258	0.049540	0.030096	0.096042	0.014877	-0.342743	-0.141086	-0.928655	19.149706	-39.849846	174.837491
47875		5.077936	3.263168	9.792408	2.851689	-0.087238	1.330849	0.630555	-2.351425	0.504129	-0.618896	-0.095947	-0.348389	0.049541	0.032447	0.098614	0.016626	-0.353985	-0.143322	-0.924055	19.663687	-41.221212	174.603357
47876		5.695907	2.939843	9.265639	2.292394	0.175532	1.216546	0.663586	-2.641109	0.622504	-0.620361	-0.100830	-0.336914	0.055637	0.029264	0.093494	0.018769	-0.366584	-0.145500	-0.918746	20.209609	-42.769954	174.356513
47877		6.249856	3.637200	9.211181	2.274626	-0.413105	1.666889	0.706167	-2.854460	0.751838	-0.635742	-0.101807	-0.310303	0.061038	0.036276	0.093118	0.021424	-0.380175	-0.147625	-0.912806	20.778536	-44.457362	174.119089
47878		7.085682	3.731773	9.029357	1.927552	-0.439053	2.092869	0.778280	-2.903716	0.848118	-0.645264	-0.097168	-0.297852	0.069377	0.037260	0.091453	0.024614	-0.393963	-0.149867	-0.906492	21.374550	-46.188879	173.908860
47879		8.536671	3.514292	9.031136	1.270523	-0.065589	3.038588	0.940165	-2.751459	0.957002	-0.656982	-0.091309	-0.271729	0.083944	0.035118	0.091638	0.028726	-0.407029	-0.152572	-0.900124	21.995233	-47.860941	173.797526
47880		8.291199	3.796495	8.670329	1.588241	-0.387659	2.663228	1.256992	-2.472738	1.021343	-0.659912	-0.089355	-0.255127	0.081636	0.037834	0.087956	0.033977	-0.418750	-0.156499	-0.893869	22.716764	-49.398115	173.796514
47881		8.421742	4.220616	7.869854	1.331568	-0.944537	2.352806	1.475485	-2.245384	1.126792	-0.665527	-0.085938	-0.246826	0.083087	0.042090	0.079946	0.040328	-0.429411	-0.161108	-0.887707	23.459323	-50.839225	173.931223
47882		7.481294	4.209813	7.127862	1.667721	-1.150306	1.159412	1.674697	-1.996889	1.237270	-0.669189	-0.086914	-0.222656	0.073834	0.041954	0.072371	0.047789	-0.438926	-0.166280	-0.881709	24.188987	-52.176372	174.225622
47883		5.821492	4.992714	7.664192	3.530104	-1.711518	0.294714	1.798674	-1.655476	1.330317	-0.671875	-0.082764	-0.212402	0.057245	0.049615	0.077566	0.056206	-0.446896	-0.171680	-0.876157	24.829346	-53.360024	174.716363
47884		8.015676	7.410098	11.000785	5.648973	-2.563481	4.388962	1.651458	-1.130313	1.503131	-0.674805	-0.068604	-0.208740	0.078976	0.073783	0.111067	0.065491	-0.452676	-0.175871	-0.871702	25.086178	-54.314650	175.570941
47885		10.609703	8.041026	12.271972	5.514812	-2.506519	7.249750	1.113305	-0.104384	1.611789	-0.676025	-0.057861	-0.209473	0.105384	0.080576	0.123223	0.074927	-0.454200	-0.177112	-0.869896	24.587648	-54.761243	176.966762
47886		4.654443	7.302677	10.007748	7.112493	-2.845624	0.979093	0.804547	0.599552	1.514341	-0.666260	-0.055420	-0.205322	0.046292	0.072975	0.100232	0.083854	-0.452648	-0.176953	-0.869923	23.732795	-54.806910	178.578024
47887		2.140521	5.582019	8.115281	6.626822	-1.996105	-2.484707	0.612624	0.934998	1.312486	-0.662109	-0.045410	-0.207031	0.021419	0.055712	0.081223	0.091759	-0.449507	-0.176260	-0.870894	22.813379	-54.616371	-179.864979
47888		0.989666	4.962728	6.845824	6.142064	-1.888157	-4.228496	0.587654	1.008764	1.030674	-0.662842	-0.041748	-0.219238	0.009987	0.049477	0.068554	0.098439	-0.445774	-0.176049	-0.872125	22.081943	-54.311629	-178.551617
47889		1.318499	5.017094	6.564722	5.747707	-2.020244	-4.077922	0.582973	1.051470	0.697626	-0.666992	-0.037842	-0.227295	0.013356	0.050026	0.065723	0.103689	-0.441544	-0.176526	-0.873571	21.598068	-53.905657	-177.541422
47890		1.718165	5.381765	6.681533	5.693280	-2.286595	-3.574415	0.536842	1.139863	0.323087	-0.657227	-0.031006	-0.224854	0.017476	0.053666	0.066860	0.107274	-0.436597	-0.177578	-0.875409	21.351797	-53.369555	-176.852821
47891		2.094989	5.334983	6.738121	5.441695	-2.206643	-3.196704	0.429135	1.270302	-0.072750	-0.650879	-0.038330	-0.236328	0.021397	0.053198	0.067361	0.109004	-0.430770	-0.178943	-0.877801	21.301976	-52.680981	-176.482065
47892		2.186766	4.870885	6.601529	5.048638	-1.822728	-3.234286	0.297748	1.412329	-0.451963	-0.655518	-0.043701	-0.239990	0.022443	0.048560	0.065931	0.108905	-0.424026	-0.180464	-0.880781	21.408209	-51.836841	-176.399778
47893		2.190141	4.265555	6.353193	4.561484	-1.360053	-3.433322	0.175545	1.535648	-0.786092	-0.641113	-0.054688	-0.244873	0.022556	0.042512	0.063398	0.107183	-0.416481	-0.182073	-0.884254	21.633234	-50.857662	-176.558477
47894		2.216653	3.689011	6.014812	3.997205	-0.967143	-3.665690	0.054900	1.633183	-1.069050	-0.635010	-0.053711	-0.250732	0.022853	0.036753	0.059973	0.104036	-0.408270	-0.183674	-0.888119	21.936181	-49.765100	-176.910305
47895		2.038336	3.080925	5.595831	3.501287	-0.575895	-4.123405	-0.071964	1.678401	-1.288305	-0.645020	-0.062744	-0.264893	0.021050	0.030695	0.055772	0.099689	-0.399688	-0.185113	-0.892213	22.271724	-48.600898	-177.407468
47896		2.026283	2.714881	5.137999	2.963101	-0.429641	-4.435939	-0.198738	1.654175	-1.462533	-0.639160	-0.076416	-0.270996	0.020885	0.027049	0.051182	0.094275	-0.391062	-0.186329	-0.896362	22.620523	-47.408531	-178.028967
47897		2.506343	2.348667	4.797127	2.180626	-0.245286	-4.336026	-0.324647	1.564751	-1.620692	-0.637939	-0.085205	-0.275635	0.025627	0.023358	0.047734	0.087814	-0.382706	-0.187305	-0.900412	22.980164	-46.226681	-178.776551
47898		3.331873	2.029530	4.650586	1.298229	-0.017053	-3.882990	-0.417223	1.459489	-1.816098	-0.636230	-0.093018	-0.280518	0.033840	0.020086	0.046218	0.080182	-0.374623	-0.188263	-0.904315	23.386684	-45.051778	-179.678428
47899		4.436813	1.574540	4.610303	0.234850	0.405871	-3.240174	-0.442158	1.362995	-2.072590	-0.633545	-0.114990	-0.288086	0.044841	0.015384	0.045764	0.071245	-0.366697	-0.189595	-0.908026	23.897037	-43.864584	179.231966
47900		5.474895	1.245051	4.164143	-1.019776	0.598127	-2.923203	-0.431324	1.252617	-2.345551	-0.633057	-0.124756	-0.278564	0.055150	0.011895	0.041271	0.060968	-0.358939	-0.191488	-0.911470	24.530274	-42.662163	177.948547
47901		7.027548	1.320382	3.748874	-2.544486	0.503245	-2.167231	-0.430096	1.112618	-2.534682	-0.635010	-0.147217	-0.286133	0.070643	0.012390	0.037069	0.049689	-0.351578	-0.193729	-0.914545	25.234299	-41.477122	176.530876
47902		9.277416	1.130539	3.611404	-4.506732	0.872657	-0.906881	-0.477638	0.962141	-2.597355	-0.637451	-0.153564	-0.285645	0.093083	0.010183	0.035642	0.037882	-0.344780	-0.195865	-0.917240	25.921179	-40.340643	175.065210
47903		11.661108	0.512219	3.490380	-6.670965	1.746642	0.230550	-0.552078	0.880861	-2.529503	-0.650146	-0.184570	-0.290283	0.116816	0.003741	0.034378	0.026173	-0.338376	-0.197517	-0.919676	26.505586	-39.251924	173.658821
47904		13.458705	-0.265663	3.218979	-8.504888	2.735524	0.758252	-0.609166	0.856126	-2.306789	-0.637695	-0.195801	-0.304932	0.134681	-0.004113	0.031624	0.015361	-0.332247	-0.198501	-0.921940	26.930116	-38.222878	172.423694
47905		14.916670	-0.346328	2.905665	-9.975813	3.054543	1.242434	-0.692058	0.876097	-1.888149	-0.642090	-0.215332	-0.288086	0.149251	-0.004773	0.028418	0.006360	-0.326409	-0.198376	-0.924156	27.106455	-37.288492	171.488944
47906		15.642848	-0.341127	2.353180	-11.006034	3.089190	1.126781	-0.798385	0.950721	-1.304016	-0.647949	-0.218994	-0.305176	0.156512	-0.004340	0.022804	-0.000080	-0.320778	-0.196774	-0.926489	26.965754	-36.467220	170.957739
47907		15.083453	-1.007051	1.673987	-11.163117	3.466107	-0.081534	-0.781439	0.996109	-0.741529	-0.647461	-0.228760	-0.295166	0.150877	-0.010566	0.016029	-0.003804	-0.315466	-0.194346	-0.928814	26.609990	-35.770541	170.802568
47908		14.056513	-0.155577	1.083494	-10.685121	2.350499	-0.919689	-0.603728	0.964170	-0.315856	-0.644287	-0.221191	-0.310547	0.140613	-0.001746	0.010162	-0.005348	-0.310712	-0.192049	-0.930885	26.207513	-35.199086	170.895617
47909		13.161370	1.869014	0.600326	-10.103617	0.164375	-1.154513	-0.482769	0.839818	-0.049949	-0.645752	-0.220947	-0.313965	0.131642	0.018671	0.005405	-0.005540	-0.306780	-0.189906	-0.932626	25.804058	-34.758402	171.117761
47910		12.579430	3.294299	0.117104	-9.822873	-1.438286	-1.413293	-0.464732	0.686550	0.024397	-0.644043	-0.214844	-0.315674	0.125793	0.032960	0.000663	-0.005542	-0.303633	-0.187715	-0.934098	25.414790	-34.413806	171.330903
47911		11.077873	3.966477	-0.443129	-8.896731	-2.469266	-2.505221	-0.473941	0.454598	-0.091875	-0.644775	-0.225586	-0.317139	0.110786	0.039603	-0.004777	-0.006280	-0.301451	-0.185659	-0.935211	25.102596	-34.160149	171.403945
47912		10.197413	3.752779	-0.345922	-8.178278	-2.338790	-3.042467	-0.426991	0.133885	-0.325082	-0.641846	-0.230225	-0.318115	0.102033	0.037354	-0.003607	-0.008380	-0.300558	-0.184150	-0.935779	24.953156	-34.016142	171.229934
47913		10.005421	4.146145	0.498232	-7.532466	-2.403682	-2.394387	-0.343231	-0.141442	-0.565042	-0.650146	-0.220703	-0.319336	0.100167	0.041187	0.004982	-0.011685	-0.300726	-0.183393	-0.935839	24.980060	-33.957342	170.830905
47914		9.782476	4.467643	1.375010	-6.845498	-2.375992	-1.747903	-0.350560	-0.305633	-0.698228	-0.644043	-0.225098	-0.319336	0.097959	0.044359	0.013822	-0.015828	-0.301545	-0.182775	-0.935635	25.076229	-33.951208	170.294043
47915		9.354656	3.291767	2.212081	-6.124764	-0.992019	-1.766484	-0.342234	-0.375021	-0.753437	-0.640625	-0.234619	-0.310059	0.093628	0.032603	0.022240	-0.020227	-0.302623	-0.182284	-0.935298	25.207450	-33.966689	169.709001
47916		9.720238	7.492677	4.330224	-4.919202	-4.096050	1.518578	-0.351749	-0.374605	-0.684525	-0.642822	-0.233154	-0.309570	0.097377	0.074670	0.043353	-0.024373	-0.303767	-0.181627	-0.934956	25.309893	-33.997995	169.159898
47917		9.039836	23.439071	15.861889	3.179788	-15.677674	15.222088	-3.009084	0.038054	0.659811	-0.635254	-0.211426	-0.310547	0.089649	0.237038	0.155049	-0.025837	-0.303827	-0.166547	-0.937701	23.349406	-34.138290	169.582807
47918		3.889677	2.203832	14.503263	5.268632	2.577677	4.184014	-2.945168	1.036394	1.064443	-0.631592	-0.194336	-0.305664	0.039521	0.024378	0.144481	-0.024520	-0.299485	-0.151228	-0.941720	21.133165	-33.824204	170.524513
47919		-2.424810	-9.898312	12.258638	8.526519	12.357137	-4.453707	-1.921096	0.886588	1.148797	-0.618652	-0.173096	-0.322510	-0.023137	-0.097934	0.123635	-0.021329	-0.295965	-0.140566	-0.944559	19.505454	-33.581024	171.475125
47920		5.183011	-8.777996	15.211914	3.969448	12.830058	2.635122	-1.064084	-0.195829	0.714264	-0.633789	-0.167969	-0.327637	0.051992	-0.086783	0.152633	-0.019682	-0.297315	-0.134468	-0.945058	18.664986	-33.825639	171.892481
47921		9.976898	-8.037347	17.438482	1.355573	13.102297	7.355004	-0.301932	-0.137269	0.298789	-0.625000	-0.170166	-0.322266	0.099769	-0.079961	0.174574	-0.018824	-0.298177	-0.132589	-0.945069	18.402029	-33.959335	172.054709
47922		4.388492	-0.811288	9.082943	1.528970	3.466433	-0.428500	0.178064	-0.114032	0.041838	-0.630859	-0.170898	-0.316895	0.043835	-0.008185	0.090847	-0.018450	-0.298804	-0.133364	-0.944770	18.505015	-34.033685	172.053971
47923		8.592197	6.677129	6.203060	-3.205231	-3.951337	1.632888	0.071885	-0.269399	-0.001912	-0.624512	-0.166016	-0.310791	0.085839	0.066748	0.062170	-0.018544	-0.300124	-0.133687	-0.944304	18.582452	-34.184387	171.990223
47924		7.039413	2.188757	5.566297	-2.478695	0.049804	-0.914304	-0.008768	-0.165794	-0.094960	-0.633057	-0.170898	-0.317383	0.070358	0.021857	0.055720	-0.019130	-0.300886	-0.133779	-0.944037	18.635504	-34.261847	171.887952
47925		6.820316	0.022480	7.005096	-1.558325	2.468756	-0.481801	0.035588	-0.123410	-0.138682	-0.628174	-0.165283	-0.319824	0.068160	0.000165	0.070093	-0.019827	-0.301421	-0.134150	-0.943799	18.724973	-34.308084	171.766216
47926		5.171954	3.646012	6.856520	-0.134122	-1.240589	-0.566211	0.038120	0.002639	-0.141067	-0.629395	-0.168701	-0.315918	0.051746	0.036411	0.068571	-0.020446	-0.301362	-0.134549	-0.943748	18.801055	-34.285490	171.670911
47927		4.062214	5.872060	6.628510	0.732199	-3.570385	-0.777421	-0.119833	0.011067	-0.041269	-0.630127	-0.174072	-0.310547	0.040638	0.058752	0.066248	-0.020828	-0.301312	-0.134052	-0.943826	18.748590	-34.276574	171.643054
47928		5.040680	4.343877	7.304678	0.253107	-1.834878	-0.106754	-0.253964	0.013997	0.101206	-0.626709	-0.166260	-0.316406	0.050390	0.043557	0.072988	-0.020736	-0.301331	-0.132709	-0.944012	18.566302	-34.292352	171.709377
47929		5.400395	2.686830	8.292341	0.454328	0.013851	0.431314	-0.235458	0.075422	0.123955	-0.626709	-0.162109	-0.309082	0.054019	0.026999	0.082871	-0.020469	-0.301075	-0.131425	-0.944279	18.378441	-34.278580	171.804273
47930		5.824757	2.240905	8.251474	0.059622	0.460515	0.522718	-0.174901	0.069930	0.094689	-0.633545	-0.165283	-0.315430	0.058266	0.022509	0.082475	-0.020253	-0.300833	-0.130470	-0.944493	18.236986	-34.262414	171.878582
47931		5.883641	1.835907	7.994743	-0.159181	0.782431	0.250420	-0.105045	0.091491	0.036519	-0.624268	-0.164551	-0.311768	0.058870	0.018412	0.079911	-0.020192	-0.300456	-0.129934	-0.944688	18.154415	-34.223874	171.919254
47932		5.864310	1.808119	7.858711	-0.229969	0.767329	0.125979	-0.063167	0.074082	-0.002947	-0.627197	-0.157715	-0.319092	0.058672	0.018105	0.078560	-0.020265	-0.300142	-0.129654	-0.944825	18.112732	-34.187853	171.930066
47933		6.678471	2.022558	7.494807	-1.102655	0.568029	0.352269	-0.014297	0.053937	-0.032026	-0.628174	-0.162109	-0.312256	0.066808	0.020220	0.074929	-0.020416	-0.299908	-0.129646	-0.944897	18.112138	-34.157505	171.917435
47934		6.244782	1.961889	7.784329	-0.589324	0.648342	0.320152	0.042609	0.049931	-0.084537	-0.629639	-0.161133	-0.314453	0.062476	0.019576	0.077832	-0.020732	-0.299665	-0.129986	-0.944921	18.164101	-34.120098	171.869371
47935		5.906522	2.274700	7.744393	-0.328926	0.308021	0.178999	0.074647	0.064287	-0.110350	-0.622314	-0.165771	-0.315674	0.059103	0.022685	0.077433	-0.021113	-0.299340	-0.130516	-0.944942	18.242019	-34.070082	171.807567
47936		6.117951	2.603564	7.380704	-0.704420	-0.056140	0.096060	0.097762	0.068080	-0.109873	-0.627686	-0.165283	-0.314453	0.061219	0.025966	0.073799	-0.021455	-0.299001	-0.131156	-0.944953	18.332519	-34.018153	171.746984
47937		5.492605	2.729900	7.634047	-0.049888	-0.177665	-0.021587	0.117079	0.083696	-0.122550	-0.619629	-0.160889	-0.312988	0.054975	0.027221	0.076333	-0.021817	-0.298580	-0.131907	-0.944973	18.436608	-33.955218	171.681680
47938		5.993700	2.537252	7.621070	-0.483859	0.081289	0.197410	0.121637	0.076557	-0.108389	-0.620605	-0.153320	-0.315918	0.059980	0.025294	0.076203	-0.022110	-0.298204	-0.132658	-0.944980	18.538941	-33.898785	171.624226
47939		5.855493	2.360565	7.926177	-0.212445	0.325340	0.313137	0.149542	0.105690	-0.132475	-0.607178	-0.165527	-0.315918	0.058612	0.023508	0.079248	-0.022456	-0.297676	-0.133580	-0.945009	18.662216	-33.821889	171.557655
47940		6.034434	2.098372	8.130859	-0.265141	0.671615	0.502689	0.190766	0.129482	-0.172238	-0.614502	-0.169189	-0.313477	0.060415	0.020854	0.081289	-0.022912	-0.297014	-0.134758	-0.945039	18.820453	-33.724784	171.470653
47941		6.277685	2.002424	8.480794	-0.287659	0.910327	0.884569	0.276021	0.189649	-0.234784	-0.608643	-0.169189	-0.322021	0.062881	0.019833	0.084776	-0.023497	-0.296033	-0.136438	-0.945091	19.042136	-33.583048	171.356914
47942		6.005873	2.421175	8.223813	-0.217864	0.452681	0.642507	0.337035	0.242923	-0.292291	-0.611328	-0.171875	-0.318359	0.060194	0.023985	0.082206	-0.024227	-0.294769	-0.138498	-0.945168	19.312019	-33.401419	171.218792
47943		6.219927	2.111567	7.970700	-0.576040	0.761386	0.471596	0.366965	0.268307	-0.304855	-0.601807	-0.180176	-0.326416	0.062338	0.020875	0.079662	-0.024955	-0.293376	-0.140719	-0.945255	19.599126	-33.202957	171.079738
47944		6.003872	2.387742	8.016196	-0.392995	0.529737	0.462126	0.389638	0.305577	-0.341784	-0.610107	-0.174805	-0.333008	0.060202	0.023619	0.080116	-0.025797	-0.291783	-0.143105	-0.945367	19.906271	-32.976820	170.927070
47945		5.799464	2.627011	7.536161	-0.515689	0.201016	0.037291	0.386733	0.303092	-0.325174	-0.609131	-0.176758	-0.333496	0.058151	0.026030	0.075324	-0.026566	-0.290208	-0.145451	-0.945472	20.204746	-32.754438	170.786303
47946		5.680686	3.212942	7.911399	-0.220823	-0.229539	0.438248	0.368109	0.325889	-0.314158	-0.603760	-0.192139	-0.336670	0.056986	0.031894	0.079080	-0.027294	-0.288531	-0.147696	-0.945617	20.484521	-32.521594	170.659627
47947		5.116571	2.819355	7.230230	-0.174014	-0.066484	-0.519174	0.339190	0.319614	-0.279049	-0.591309	-0.186035	-0.338623	0.051320	0.027999	0.072268	-0.027902	-0.286902	-0.149751	-0.945771	20.735241	-32.298520	170.555377
47948		5.747945	3.396352	8.085130	-0.242705	-0.259640	0.666665	0.316751	0.328369	-0.272564	-0.599121	-0.195557	-0.338135	0.057658	0.033757	0.080810	-0.028504	-0.285232	-0.151690	-0.945949	20.968775	-32.071900	170.458689
47949		5.956796	3.122384	7.681223	-0.685917	-0.038252	0.373660	0.294041	0.406138	-0.271052	-0.601563	-0.188721	-0.336670	0.059766	0.031030	0.076737	-0.029073	-0.283189	-0.153530	-0.946249	21.177711	-31.803510	170.383150
47950		5.877427	3.571635	7.893112	-0.534599	-0.380511	0.635807	0.272773	0.458317	-0.274940	-0.592041	-0.201904	-0.340332	0.059004	0.035528	0.078845	-0.029649	-0.280892	-0.155282	-0.946630	21.368103	-31.506428	170.319219
47951		5.457012	3.383362	7.352343	-0.527535	-0.376974	-0.072955	0.236316	0.481818	-0.268824	-0.582275	-0.195801	-0.349854	0.054792	0.033673	0.073431	-0.030230	-0.278480	-0.156854	-0.947065	21.531601	-31.197731	170.266182
47952		5.919514	3.529766	8.061485	-0.583998	-0.217804	0.774975	0.211775	0.516916	-0.277975	-0.588379	-0.196045	-0.357178	0.059452	0.035130	0.080499	-0.030860	-0.275889	-0.158327	-0.947558	21.678743	-30.868492	170.217221
47953		5.202419	3.435971	7.455718	-0.358560	-0.374855	-0.107566	0.178719	0.562934	-0.270860	-0.581543	-0.197998	-0.365234	0.052280	0.034222	0.074441	-0.031466	-0.273076	-0.159638	-0.948132	21.798032	-30.515968	170.185116
47954		4.837386	3.872043	7.740750	0.057848	-0.734522	0.075135	0.140052	0.556105	-0.258418	-0.582275	-0.198730	-0.362061	0.048639	0.038604	0.077300	-0.032070	-0.270299	-0.160747	-0.948720	21.891621	-30.169893	170.159830
47955		4.770028	3.678806	7.102198	-0.277762	-0.723831	-0.532243	0.092533	0.530395	-0.263990	-0.579590	-0.210205	-0.365234	0.047937	0.036692	0.070912	-0.032785	-0.267627	-0.161632	-0.949303	21.962324	-29.836045	170.125467
47956		4.574038	3.547269	7.390706	-0.013958	-0.528823	-0.439993	0.044673	0.497495	-0.225070	-0.581055	-0.210693	-0.372803	0.045964	0.035405	0.073801	-0.033406	-0.265135	-0.162232	-0.949878	21.997546	-29.528210	170.107210
47957		3.962891	3.017636	7.076874	0.292225	-0.199762	-1.165876	0.019497	0.445809	-0.172162	-0.561279	-0.210938	-0.371582	0.039812	0.030135	0.070683	-0.033851	-0.262923	-0.162632	-0.950409	22.008483	-29.258969	170.108712
47958		4.354010	2.957071	7.856266	0.314009	0.150871	-0.362761	0.018857	0.398487	-0.124440	-0.566162	-0.206299	-0.379639	0.043715	0.029536	0.078478	-0.034108	-0.260975	-0.162958	-0.950880	22.010685	-29.025322	170.127593
47959		4.758528	2.584513	7.676888	-0.170316	0.518588	-0.433996	0.040887	0.390048	-0.114863	-0.566650	-0.211670	-0.380371	0.047750	0.025802	0.076681	-0.034298	-0.259076	-0.163373	-0.951321	22.023661	-28.798007	170.150251
47960		4.456151	2.904430	8.036212	0.241332	0.285812	-0.182856	0.066081	0.389820	-0.111546	-0.562256	-0.201660	-0.387695	0.044734	0.028993	0.080285	-0.034439	-0.257186	-0.163904	-0.951738	22.050295	-28.571743	170.174863
47961		3.282386	2.796963	7.557264	0.983220	0.081023	-1.167692	0.084314	0.322119	-0.094192	-0.558838	-0.211670	-0.387451	0.032959	0.027922	0.075531	-0.034529	-0.255633	-0.164486	-0.952052	22.090212	-28.384966	170.193516
47962		3.269123	2.777723	7.578045	0.981515	0.114897	-1.160921	0.109748	0.236443	-0.091093	-0.557617	-0.210938	-0.398682	0.032793	0.027721	0.075757	-0.034643	-0.254496	-0.165171	-0.952234	22.153838	-28.244543	170.193168
47963		2.798810	2.830155	7.247182	1.213354	-0.089849	-1.634397	0.151198	0.096498	-0.085146	-0.556641	-0.210693	-0.387207	0.028035	0.028235	0.072480	-0.034791	-0.254035	-0.166021	-0.952204	22.255574	-28.179448	170.162278
47964		2.856121	3.096517	7.181281	1.133390	-0.338019	-1.571462	0.147881	-0.012566	-0.056642	-0.553955	-0.213379	-0.394531	0.028565	0.030904	0.071837	-0.034898	-0.254118	-0.166800	-0.952042	22.360027	-28.178488	170.121729
47965		3.065726	3.175351	7.453948	1.095544	-0.287638	-1.224330	0.120393	-0.130497	0.009448	-0.561768	-0.213867	-0.390869	0.030607	0.031710	0.074579	-0.034824	-0.254811	-0.167343	-0.951764	22.443704	-28.254198	170.091708
47966		3.189990	3.193072	6.896743	0.727764	-0.446957	-1.614677	0.079593	-0.207286	0.078293	-0.561523	-0.205566	-0.398682	0.031816	0.031916	0.069013	-0.034539	-0.255920	-0.167591	-0.951433	22.493622	-28.385756	170.083829
47967		3.716370	3.570717	7.162083	0.436860	-0.641163	-1.023214	0.063174	-0.315882	0.124180	-0.557861	-0.214844	-0.389404	0.037028	0.035708	0.071691	-0.034147	-0.257580	-0.167683	-0.950983	22.533873	-28.584707	170.076382
47968		3.700362	3.615857	6.905661	0.357359	-0.764725	-1.225334	0.026317	-0.407516	0.133276	-0.564209	-0.204346	-0.386475	0.036839	0.036174	0.069137	-0.033836	-0.259678	-0.167572	-0.950443	22.561596	-28.834274	170.051278
47969		3.911144	3.736967	7.267187	0.401899	-0.743311	-0.792722	-0.018378	-0.477858	0.155726	-0.556396	-0.200439	-0.381348	0.038909	0.037407	0.072762	-0.033535	-0.262118	-0.167206	-0.949848	22.565770	-29.125858	170.021969
47970		2.803729	3.632429	6.990025	1.258876	-0.906419	-1.596284	-0.071442	-0.588481	0.232225	-0.566650	-0.210938	-0.387451	0.027789	0.036382	0.069969	-0.033032	-0.265137	-0.166468	-0.949157	22.530727	-29.492912	170.011159
47971		1.987763	3.789880	6.519795	1.774989	-1.336662	-2.337092	-0.157901	-0.747551	0.337105	-0.562988	-0.205811	-0.372559	0.019570	0.037983	0.065242	-0.032279	-0.268980	-0.165152	-0.948332	22.434072	-29.967050	170.024643
47972		5.104100	4.011428	8.619055	0.294978	-0.489054	0.962485	-0.215915	-0.884033	0.436644	-0.555908	-0.192627	-0.371094	0.050572	0.040318	0.086371	-0.031243	-0.273537	-0.163402	-0.947365	22.290186	-30.535259	170.065908
47973		10.371523	2.639120	9.417508	-3.698537	1.781721	3.838991	-0.190482	-0.605334	0.329576	-0.572510	-0.194336	-0.369141	0.103386	0.026652	0.094463	-0.030452	-0.276685	-0.161959	-0.946725	22.157366	-30.932276	170.113229
47974		7.443689	2.648775	8.183058	-1.817952	0.952410	1.375465	-0.111353	-0.330555	0.198764	-0.568115	-0.185059	-0.359863	0.074275	0.026607	0.081939	-0.029947	-0.278436	-0.161112	-0.946372	22.075388	-31.155268	170.149656
47975		4.649469	3.639007	7.759983	0.381791	-0.534785	-0.084101	-0.112889	-0.340049	0.180950	-0.565674	-0.189453	-0.353516	0.046330	0.036476	0.077658	-0.029536	-0.280216	-0.160280	-0.946000	21.999027	-31.379307	170.173129
47976		5.976006	3.582598	7.811312	-0.671096	-0.296183	0.628863	-0.189300	-0.345685	0.232174	-0.570557	-0.179932	-0.363281	0.059583	0.035969	0.078182	-0.028995	-0.282053	-0.159014	-0.945685	21.862708	-31.617403	170.227606
47977		5.959601	3.008651	7.300261	-0.918822	0.071215	0.036839	-0.230102	-0.306890	0.228739	-0.572021	-0.181885	-0.360596	0.059449	0.030239	0.073059	-0.028496	-0.283694	-0.157564	-0.945452	21.698270	-31.833867	170.290555
47978		4.997817	3.521815	7.330515	-0.045880	-0.577454	-0.284725	-0.295857	-0.327624	0.254892	-0.570801	-0.183838	-0.349121	0.049813	0.035390	0.073335	-0.027983	-0.285444	-0.155762	-0.945239	21.489603	-32.066872	170.365695
47979		6.416497	3.170886	7.944877	-0.872574	0.087590	0.844596	-0.351889	-0.316121	0.279490	-0.569824	-0.176270	-0.358398	0.063995	0.031938	0.079494	-0.027425	-0.287148	-0.153661	-0.945083	21.237973	-32.298459	170.460537
47980		7.350654	1.845479	8.128725	-1.570727	1.489184	1.088188	-0.263446	-0.148630	0.212653	-0.565186	-0.174805	-0.355957	0.073426	0.018640	0.081317	-0.026927	-0.288021	-0.152096	-0.945085	21.036938	-32.426575	170.555266
47981		5.401395	2.948031	7.341841	-0.327021	-0.076725	-0.238990	-0.229263	-0.086223	0.201194	-0.569092	-0.176758	-0.350342	0.053953	0.029619	0.073408	-0.026386	-0.288593	-0.150717	-0.945147	20.850620	-32.518513	170.658570
47982		5.134172	3.461961	7.408053	-0.037574	-0.615744	-0.177154	-0.272562	-0.100613	0.209601	-0.572021	-0.166504	-0.354736	0.051268	0.034774	0.074059	-0.025878	-0.289234	-0.149119	-0.945218	20.638203	-32.619753	170.764186
47983		5.190250	2.768303	7.717676	0.074446	0.102748	-0.109672	-0.291113	-0.120650	0.221336	-0.566895	-0.165283	-0.349121	0.051825	0.027853	0.077168	-0.025357	-0.289974	-0.147413	-0.945273	20.413084	-32.733572	170.873144
47984		5.841941	2.600867	7.869416	-0.375972	0.355457	0.314143	-0.272678	-0.092960	0.203056	-0.561279	-0.164551	-0.354492	0.058356	0.026175	0.078686	-0.024875	-0.290572	-0.145824	-0.945349	20.200931	-32.828714	170.977549
47985		5.407527	2.632771	7.542136	-0.186245	0.149382	-0.169060	-0.266636	-0.065478	0.205472	-0.564453	-0.157715	-0.348389	0.054023	0.026484	0.075404	-0.024353	-0.291041	-0.144262	-0.945458	19.987347	-32.909029	171.090527
47986		5.701829	2.676602	7.552059	-0.414302	0.114159	0.011968	-0.296755	-0.064832	0.229498	-0.561768	-0.156494	-0.353760	0.056963	0.026943	0.075499	-0.023760	-0.291520	-0.142524	-0.945589	19.747767	-32.993494	171.219507
47987		6.212230	2.069581	7.293595	-0.997986	0.657142	-0.084196	-0.325522	-0.018641	0.248896	-0.564697	-0.150146	-0.351074	0.062090	0.020892	0.072908	-0.023085	-0.291789	-0.140625	-0.945807	19.478551	-33.056083	171.372182
47988		5.678042	2.854376	7.173333	-0.589563	-0.233343	-0.250148	-0.343728	0.020789	0.249399	-0.559082	-0.153809	-0.362793	0.056752	0.028738	0.071678	-0.022406	-0.291870	-0.138644	-0.946091	19.193619	-33.097042	171.534501
47989		4.966263	3.425249	7.009164	-0.067619	-0.952003	-0.614131	-0.381101	-0.001292	0.270083	-0.557373	-0.146729	-0.357910	0.049616	0.034453	0.070026	-0.021699	-0.292063	-0.136452	-0.946366	18.882232	-33.152906	171.705665
47990		4.802749	3.350154	7.555958	0.377060	-0.808254	-0.294977	-0.380451	-0.089001	0.258744	-0.558105	-0.140137	-0.359863	0.047950	0.033707	0.075517	-0.021104	-0.292663	-0.134271	-0.946506	18.585474	-33.253731	171.850629
47991		4.583561	2.350393	8.309166	0.954454	0.267949	-0.086811	-0.359451	-0.139052	0.250606	-0.558594	-0.141113	-0.358887	0.045748	0.023711	0.083081	-0.020550	-0.293493	-0.132194	-0.946554	18.308807	-33.379457	171.980293
47992		5.378482	1.976600	8.410679	0.355997	0.705183	0.333759	-0.306669	-0.144305	0.221990	-0.553467	-0.134766	-0.355713	0.053702	0.019955	0.084115	-0.020058	-0.294336	-0.130408	-0.946551	18.072724	-33.502641	172.090958
47993		5.448124	2.075210	8.060184	0.121318	0.502082	0.121508	-0.248344	-0.136078	0.172591	-0.552002	-0.129150	-0.354980	0.054408	0.020899	0.080613	-0.019709	-0.295110	-0.128971	-0.946514	17.886238	-33.612061	172.171820
47994		5.892543	1.986112	8.096571	-0.213785	0.621226	0.375025	-0.189714	-0.119914	0.123417	-0.555664	-0.138184	-0.359863	0.058865	0.019974	0.080982	-0.019495	-0.295782	-0.127885	-0.946456	17.749067	-33.704050	172.224270
47995		6.329783	2.181029	7.506103	-0.888923	0.326199	0.200703	-0.143860	-0.073200	0.105031	-0.554443	-0.130615	-0.356934	0.063259	0.021898	0.075068	-0.019270	-0.296224	-0.127048	-0.946435	17.639095	-33.767046	172.274776
47996		6.200470	2.388765	7.243666	-0.915657	0.034923	-0.025805	-0.122651	-0.039713	0.091813	-0.557373	-0.129639	-0.361816	0.061979	0.023961	0.072434	-0.019056	-0.296503	-0.126334	-0.946447	17.542209	-33.809600	172.323689
47997		5.891062	2.347571	7.477174	-0.525991	0.079838	-0.022857	-0.113305	-0.020537	0.077052	-0.557861	-0.124268	-0.356445	0.058894	0.023541	0.074764	-0.018885	-0.296681	-0.125688	-0.946481	17.453671	-33.838854	172.367023
47998		5.655964	2.390216	7.715531	-0.193063	0.054386	0.045925	-0.098010	-0.008151	0.068643	-0.549072	-0.121582	-0.362793	0.056548	0.023959	0.077146	-0.018723	-0.296798	-0.125128	-0.946522	17.375619	-33.860071	172.407392
47999		5.462652	2.409780	7.803883	0.018583	0.023214	0.013162	-0.088268	-0.000355	0.062410	-0.557861	-0.128418	-0.357910	0.054619	0.024149	0.078028	-0.018572	-0.296874	-0.124623	-0.946568	17.304395	-33.875687	172.445351
48000		5.344295	2.442394	7.863743	0.153070	-0.017952	0.002681	-0.081826	-0.010565	0.063190	-0.548584	-0.129639	-0.364014	0.053431	0.024473	0.078630	-0.018414	-0.297000	-0.124148	-0.946593	17.237827	-33.897216	172.481713
48001		5.801247	2.254097	7.685691	-0.328824	0.163936	0.070139	-0.086583	-0.010503	0.066401	-0.548584	-0.123779	-0.362549	0.058001	0.022593	0.076850	-0.018247	-0.297126	-0.123644	-0.946623	17.167198	-33.918987	172.520296
48002		6.235807	2.068664	7.429370	-0.836712	0.323570	0.064326	-0.073081	-0.006288	0.057749	-0.547363	-0.120850	-0.367188	0.062350	0.020732	0.074288	-0.018099	-0.297230	-0.123219	-0.946649	17.107092	-33.937186	172.554015
48003		5.689993	2.299337	7.539323	-0.315218	0.057760	-0.096636	-0.058531	0.010832	0.048888	-0.556396	-0.124268	-0.365723	0.056898	0.023029	0.075383	-0.017961	-0.297246	-0.122876	-0.946691	17.056517	-33.944258	172.585435
48004		5.749743	2.074480	7.730792	-0.263740	0.317595	0.034024	-0.055142	-0.000334	0.044705	-0.552979	-0.119141	-0.368896	0.057493	0.020779	0.077302	-0.017844	-0.297315	-0.122555	-0.946713	17.010787	-33.956969	172.611795
48005		5.441700	2.550998	8.149333	0.248100	-0.090365	0.309644	-0.038846	-0.022672	0.036272	-0.553467	-0.121094	-0.370361	0.054403	0.025536	0.081495	-0.017757	-0.297484	-0.122321	-0.946692	16.979902	-33.980246	172.628136
48006		5.162972	3.239114	7.825641	0.324102	-0.864804	0.063337	-0.054958	-0.020340	0.055947	-0.546631	-0.121582	-0.375488	0.051613	0.032427	0.078253	-0.017599	-0.297654	-0.121982	-0.946685	16.932338	-34.005770	172.657931
48007		5.305111	3.106809	7.484496	0.013077	-0.805954	-0.160516	-0.081391	-0.041405	0.094073	-0.550049	-0.119873	-0.379395	0.053021	0.031123	0.074843	-0.017312	-0.297943	-0.121459	-0.946667	16.857740	-34.048919	172.708804
48008		5.624298	2.309120	7.327898	-0.363559	-0.045294	-0.298035	-0.088811	-0.043621	0.118970	-0.549072	-0.116943	-0.376953	0.056213	0.023157	0.073281	-0.016921	-0.298259	-0.120865	-0.946650	16.769939	-34.097589	172.775764
48009		5.772183	2.138240	7.510722	-0.381593	0.162841	-0.110679	-0.086177	-0.040654	0.114863	-0.550537	-0.122314	-0.378662	0.057694	0.021448	0.075110	-0.016543	-0.298557	-0.120288	-0.946637	16.684599	-34.143630	172.840775
48010		5.702847	1.942928	7.592461	-0.279440	0.350797	-0.130656	-0.072239	-0.048670	0.111302	-0.550537	-0.114746	-0.377686	0.056999	0.019488	0.075931	-0.016166	-0.298893	-0.119783	-0.946601	16.609482	-34.193660	172.901891
48011		5.346815	2.195401	7.558088	0.012623	0.052247	-0.297961	-0.036490	-0.093938	0.098916	-0.547852	-0.116699	-0.380371	0.053422	0.021994	0.075602	-0.015821	-0.299436	-0.119460	-0.946476	16.564271	-34.266220	172.945991
48012		4.767833	2.080694	8.152190	0.835810	0.227793	-0.181009	0.001317	-0.151881	0.094637	-0.539551	-0.115234	-0.388672	0.047607	0.020829	0.081558	-0.015474	-0.300257	-0.119320	-0.946240	16.548796	-34.370136	172.975829
48013		5.128741	1.914868	8.412853	0.703020	0.479243	0.188455	0.040987	-0.221375	0.100289	-0.548340	-0.115234	-0.381104	0.051185	0.019157	0.084189	-0.015083	-0.301410	-0.119352	-0.945875	16.561503	-34.512889	172.995775
48014		5.080158	1.780968	8.613184	0.880228	0.648729	0.285384	0.078682	-0.289428	0.098300	-0.549316	-0.103027	-0.375244	0.050668	0.017801	0.086212	-0.014684	-0.302888	-0.119561	-0.945383	16.604325	-34.692930	173.000780
48015		5.221122	2.044301	8.327409	0.647573	0.349783	0.199465	0.125529	-0.355636	0.101325	-0.553955	-0.114746	-0.379639	0.052053	0.020417	0.083380	-0.014241	-0.304681	-0.119980	-0.944760	16.680386	-34.909581	172.994411
48016		5.312534	2.354833	8.360795	0.650212	0.072842	0.348163	0.158862	-0.437336	0.107141	-0.549805	-0.113037	-0.383057	0.052930	0.023510	0.083743	-0.013767	-0.306866	-0.120543	-0.943988	16.783120	-35.172231	172.975007
48017		5.523173	2.985105	8.281549	0.517517	-0.525141	0.553433	0.191370	-0.532041	0.147874	-0.556641	-0.108154	-0.378174	0.054989	0.029812	0.082991	-0.013109	-0.309521	-0.121188	-0.943047	16.900175	-35.493328	172.963067
48018		5.236137	2.753475	8.438851	0.897602	-0.283316	0.450185	0.232980	-0.663881	0.211379	-0.556396	-0.102783	-0.379395	0.052052	0.027491	0.084594	-0.012166	-0.312837	-0.121922	-0.941871	17.032596	-35.897476	172.965878
48019		4.021539	3.253937	9.038293	2.344293	-0.735744	0.307274	0.445144	-0.894092	0.313327	-0.558350	-0.103516	-0.366699	0.039760	0.032400	0.090634	-0.010552	-0.317304	-0.123478	-0.940192	17.275056	-36.444686	172.988063
48020		5.062502	2.034232	9.391527	1.776361	0.662012	0.881807	0.563550	-1.252147	0.371276	-0.564209	-0.106934	-0.365234	0.049998	0.020170	0.094287	-0.008698	-0.323485	-0.125476	-0.937837	17.609538	-37.197814	172.969693
48021		4.527121	3.587677	9.656696	2.629925	-0.787641	1.099585	0.725236	-1.599724	0.465731	-0.565918	-0.112793	-0.351074	0.044413	0.035630	0.097054	-0.006357	-0.331339	-0.128056	-0.934760	18.048129	-38.156812	172.932804
48022		4.693304	2.812650	10.125693	2.950978	0.145432	1.310844	0.816767	-1.998960	0.581371	-0.578613	-0.109131	-0.341309	0.045836	0.027846	0.101833	-0.003579	-0.341102	-0.130846	-0.930869	18.553666	-39.353630	172.873739
48023		4.624997	3.527686	10.126992	3.329568	-0.493270	1.370060	0.801007	-2.431456	0.700021	-0.589844	-0.110596	-0.321777	0.044890	0.035028	0.101962	-0.000558	-0.352902	-0.133332	-0.926111	19.073976	-40.806360	172.779256
48024		5.010640	2.741975	10.460903	3.509082	0.432392	1.569018	0.721439	-2.946205	0.851469	-0.594238	-0.099365	-0.299316	0.048441	0.027249	0.105429	0.002681	-0.367112	-0.135153	-0.920302	19.577912	-42.565455	172.643963
48025		5.207101	2.966826	10.423162	3.751234	0.265195	1.606585	0.737437	-3.489898	0.997472	-0.606201	-0.097412	-0.278320	0.050093	0.029535	0.105226	0.006252	-0.383812	-0.136746	-0.913208	20.138605	-44.644902	172.444451
48026		5.886889	3.614631	10.813331	4.085545	-0.161633	2.349025	0.680279	-3.978985	1.138682	-0.630859	-0.097168	-0.251221	0.056495	0.036102	0.109396	0.010022	-0.402692	-0.137769	-0.904853	20.721763	-47.013605	172.175727
48027		7.305645	3.224257	11.131962	3.866028	0.456415	3.321284	0.770177	-4.364586	1.338377	-0.633301	-0.085693	-0.212646	0.070387	0.032287	0.112999	0.014606	-0.423253	-0.138749	-0.895205	21.371743	-49.627482	171.897144
48028		9.241991	4.883633	11.647699	3.921924	-0.789987	5.316077	1.025673	-4.495423	1.560136	-0.657227	-0.085693	-0.176025	0.089386	0.048936	0.118760	0.020623	-0.444293	-0.140333	-0.884582	22.116672	-52.355468	171.695638
48029		11.122182	6.064186	11.700871	3.782472	-1.689526	6.925617	1.284423	-4.245135	1.689906	-0.655762	-0.076416	-0.145996	0.108186	0.060802	0.119717	0.027953	-0.464034	-0.142667	-0.873806	22.907313	-54.977627	171.628514
48030		10.698137	5.949671	9.771684	3.204402	-2.086823	5.375070	1.549707	-3.980354	1.890579	-0.665771	-0.066406	-0.113037	0.104439	0.059722	0.100275	0.036948	-0.482466	-0.145578	-0.862942	23.660569	-57.504874	171.791257
48031		11.417827	6.771857	8.855982	2.951673	-3.026697	5.573512	1.763419	-3.780952	2.097860	-0.666504	-0.050781	-0.084229	0.111757	0.068102	0.091287	0.047478	-0.499886	-0.148794	-0.851892	24.318502	-59.977183	172.204216
48032		12.307089	7.096651	9.848694	4.138401	-2.926858	6.712595	1.874095	-3.369266	2.253711	-0.678955	-0.032715	-0.051270	0.120578	0.071395	0.101200	0.059229	-0.515378	-0.151918	-0.841307	24.721097	-62.273545	172.971332
48033		9.186947	5.446891	8.796429	4.863847	-1.828451	3.010091	1.901181	-2.692188	2.434678	-0.685303	-0.024902	-0.041016	0.090005	0.054725	0.089704	0.072299	-0.527917	-0.154417	-0.832004	24.577098	-64.261791	174.352697
48034		4.955898	1.375998	9.757481	6.706133	2.213893	-1.340266	2.074377	-2.199808	2.913338	-0.679932	-0.001465	-0.022705	0.048283	0.013453	0.098251	0.088165	-0.538485	-0.156131	-0.823337	23.590075	-66.097994	176.750066
48035		22.341574	2.449516	17.015448	6.557905	4.072792	17.299239	2.080937	-0.835459	3.308360	-0.675781	0.020996	-0.014404	0.222275	0.026400	0.171353	0.106704	-0.543518	-0.156140	-0.817816	21.144708	-67.267167	-179.288532
48036		8.429748	4.645105	12.171010	8.787440	0.181304	2.974752	2.208429	0.639136	3.065028	-0.678467	0.048828	-0.030273	0.083976	0.046394	0.121954	0.125703	-0.542052	-0.156486	-0.816021	18.149024	-67.517036	-174.672497
48037		3.860397	7.321058	8.775790	8.744477	-3.380073	-2.221769	1.990882	1.156780	2.928702	-0.675049	0.073486	-0.029053	0.038045	0.072893	0.088263	0.143919	-0.538315	-0.155932	-0.815592	14.968507	-67.364652	-169.992992
48038		1.530229	8.228475	6.869924	8.508909	-4.727934	-5.070532	1.401441	1.309656	2.617735	-0.662842	0.098389	-0.054443	0.014680	0.081996	0.069177	0.159353	-0.533966	-0.153655	-0.816013	11.896621	-66.987193	-165.788545
48039		0.284904	7.124760	5.713394	7.643261	-4.011808	-6.817491	0.890898	1.275170	2.143024	-0.668945	0.107910	-0.047852	0.002453	0.071020	0.057434	0.171429	-0.529689	-0.150555	-0.816930	9.290802	-66.499593	-162.396284
48040		0.122775	5.189413	5.661642	6.849039	-2.219599	-7.136290	0.659674	1.189904	1.458892	-0.669678	0.124756	-0.059814	0.001188	0.051716	0.056780	0.180008	-0.525365	-0.148378	-0.818274	7.570606	-65.951920	-160.102847
48041		-0.138268	4.411997	5.706176	6.638797	-1.426735	-7.376340	0.649770	1.105413	0.655110	-0.667969	0.125488	-0.068115	-0.001211	0.043930	0.057212	0.185199	-0.520766	-0.148333	-0.820062	6.946889	-65.376181	-159.009169
48042		0.280366	4.828923	5.938900	6.838838	-1.718651	-6.822103	0.639867	1.057104	-0.117385	-0.667236	0.123779	-0.070068	0.003146	0.048097	0.059527	0.187149	-0.515770	-0.150302	-0.822414	7.301184	-64.771041	-158.994721
48043		0.944371	5.402913	6.295020	7.086557	-2.141451	-5.952076	0.480586	1.093826	-0.774908	-0.682373	0.114502	-0.078857	0.009997	0.053840	0.063026	0.186007	-0.510264	-0.153266	-0.825556	8.322065	-64.094901	-159.820591
48044		1.512159	4.967392	6.534307	6.774562	-1.721300	-5.252052	0.228821	1.220794	-1.273955	-0.683350	0.102051	-0.089111	0.015836	0.049500	0.065305	0.182245	-0.504043	-0.156340	-0.829630	9.695885	-63.293694	-161.205897
48045		1.669012	3.482875	6.640463	6.019701	-0.383088	-5.055983	0.022098	1.387495	-1.646577	-0.691406	0.085693	-0.083740	0.017436	0.034680	0.066289	0.176533	-0.496987	-0.159325	-0.834539	11.238392	-62.345491	-162.924999
48046		1.976566	1.860467	6.512757	4.950673	0.954592	-4.876901	-0.040981	1.571104	-1.896004	-0.694580	0.074219	-0.099854	0.020452	0.018426	0.064965	0.169741	-0.488946	-0.162487	-0.840070	12.851692	-61.241992	-164.781257
48047		2.036823	0.905972	6.273006	4.211227	1.693556	-4.942793	0.000264	1.738088	-2.041334	-0.705078	0.052734	-0.112793	0.021003	0.008847	0.062549	0.162552	-0.479980	-0.166005	-0.845954	14.457762	-60.002951	-166.623438
48048		2.389795	0.504357	6.156094	3.664244	1.969709	-4.659550	0.044528	1.883811	-2.061662	-0.709961	0.029053	-0.129883	0.024527	0.004779	0.061333	0.155470	-0.470244	-0.169614	-0.852016	15.934267	-58.654986	-168.309319
48049		3.207898	0.264441	6.260843	3.092025	2.159711	-3.868655	0.065255	2.035419	-1.979499	-0.721191	0.010010	-0.138184	0.032738	0.002302	0.062278	0.148888	-0.459834	-0.172962	-0.858178	17.181195	-57.218616	-169.735838
48050		4.051141	-0.186198	6.354889	2.366177	2.542299	-3.121934	0.081696	2.212270	-1.828498	-0.719238	-0.005371	-0.156982	0.041192	-0.002262	0.063095	0.143110	-0.448678	-0.175870	-0.864452	18.158851	-55.695991	-170.851615
48051		4.651689	-0.594980	6.328553	1.664007	2.861329	-2.665424	0.128238	2.390692	-1.635403	-0.729980	-0.020264	-0.184570	0.047218	-0.006374	0.062720	0.138403	-0.436806	-0.178379	-0.870762	18.881776	-54.104205	-171.644715
48052		5.159730	-0.955788	6.245525	0.963516	3.117887	-2.336761	0.213701	2.547297	-1.417823	-0.735352	-0.047119	-0.198730	0.052317	-0.009993	0.061781	0.134865	-0.424298	-0.180611	-0.877019	19.397078	-52.462109	-172.142667
48053		5.635648	-1.038597	6.153293	0.356451	3.117160	-2.011795	0.324643	2.679979	-1.210782	-0.729492	-0.056396	-0.223633	0.057109	-0.010829	0.060754	0.132636	-0.411226	-0.182790	-0.883113	19.762640	-50.787560	-172.371020
48054		6.055718	-0.605251	5.986334	-0.093505	2.615745	-1.687529	0.413274	2.778533	-1.002466	-0.728027	-0.068115	-0.248047	0.061349	-0.006481	0.059002	0.131419	-0.397778	-0.184770	-0.889023	20.003364	-49.098177	-172.393280
48055		6.444186	0.543587	5.807065	-0.280070	1.456542	-1.248845	0.422098	2.855538	-0.822383	-0.734863	-0.086426	-0.281738	0.065284	0.005047	0.057153	0.131211	-0.384043	-0.186399	-0.894735	20.115975	-47.404345	-172.219382
48056		7.037761	1.500648	5.499581	-0.774968	0.380116	-0.797351	0.353763	2.884051	-0.722172	-0.743652	-0.099609	-0.308105	0.071214	0.014654	0.053999	0.131158	-0.370252	-0.187414	-0.900326	20.133624	-45.713462	-171.982379
48057		7.447084	2.134796	5.091403	-1.337452	-0.445786	-0.650531	0.254045	2.859094	-0.765105	-0.731445	-0.115234	-0.338867	0.075270	0.020997	0.049869	0.130834	-0.356497	-0.188092	-0.905767	20.130897	-44.029160	-171.771497
48058		7.488186	2.953834	4.526460	-1.660217	-1.467808	-0.847736	0.131842	2.755257	-0.898059	-0.727295	-0.134766	-0.368896	0.075628	0.029170	0.044245	0.129370	-0.343118	-0.188421	-0.911061	20.154563	-42.372951	-171.717247
48059		7.968585	3.168610	4.195370	-2.377537	-1.885772	-0.761450	-0.018103	2.572636	-1.101175	-0.714355	-0.146484	-0.402100	0.080390	0.031249	0.040920	0.126718	-0.330380	-0.188558	-0.916099	20.221227	-40.776390	-171.832569
48060		8.824042	2.307207	3.857830	-3.762982	-1.362192	-0.754633	-0.109388	2.312009	-1.334737	-0.723633	-0.169189	-0.425537	0.088830	0.022501	0.037541	0.122574	-0.318599	-0.188796	-0.920775	20.378279	-39.271676	-172.173043
48061		10.309507	1.296735	3.635858	-5.612534	-0.681282	-0.367279	-0.054281	2.016226	-1.572765	-0.708496	-0.187744	-0.455811	0.103552	0.012164	0.035313	0.117124	-0.307880	-0.189813	-0.924913	20.699719	-37.878340	-172.737584
48062		11.817876	1.354042	3.280900	-7.198203	-0.963813	0.162745	0.006655	1.732567	-1.749039	-0.700439	-0.197510	-0.486572	0.118569	0.012504	0.031783	0.110663	-0.298209	-0.191522	-0.928517	21.148644	-36.596298	-173.471865
48063		13.501128	0.933323	2.789842	-9.154992	-0.827397	0.503694	0.002358	1.417820	-1.860148	-0.696045	-0.226074	-0.502686	0.135284	0.008076	0.026940	0.103365	-0.289865	-0.193521	-0.931581	21.658650	-35.455573	-174.335795
48064		15.212142	0.292779	2.056795	-11.311050	-0.522767	0.555648	-0.026079	1.091338	-1.979361	-0.691162	-0.244873	-0.520020	0.152250	0.001424	0.019737	0.095138	-0.282892	-0.195705	-0.934142	22.218714	-34.455059	-175.338067
48065		16.920076	-0.166505	1.180892	-13.455788	-0.356013	0.507909	-0.079992	0.742097	-2.071335	-0.672852	-0.263672	-0.541260	0.169214	-0.003413	0.011182	0.086055	-0.277461	-0.197908	-0.936185	22.805909	-33.612352	-176.468168
48066		18.300874	-0.268241	0.178063	-15.264517	-0.465016	0.276493	-0.156754	0.407828	-2.066895	-0.682861	-0.292725	-0.553711	0.182971	-0.004572	0.001411	0.076543	-0.273592	-0.199868	-0.937732	23.373657	-32.936426	-177.665347
48067		18.376072	0.276628	-0.912260	-15.828060	-1.105949	-0.494521	-0.320111	0.075144	-1.862373	-0.673096	-0.306152	-0.562500	0.183772	0.001040	-0.009194	0.067428	-0.271530	-0.200887	-0.938813	23.809580	-32.474354	-178.810627
48068		17.736986	0.816231	-1.561310	-15.548740	-1.571803	-1.241524	-0.543335	-0.253811	-1.431384	-0.677734	-0.320557	-0.568604	0.177442	0.006850	-0.015408	0.059696	-0.271495	-0.200371	-0.939456	24.013747	-32.278696	-179.771952
48069		17.284518	0.310148	-1.590160	-15.317453	-0.900480	-1.692259	-0.715771	-0.542921	-0.849814	-0.669434	-0.329346	-0.573975	0.172898	0.002311	-0.015442	0.054172	-0.273444	-0.198330	-0.939659	23.967608	-32.369358	179.548301
48070		17.738055	-1.407613	-0.892460	-15.690395	1.108426	-1.446248	-0.609644	-0.736182	-0.373911	-0.684082	-0.322998	-0.567383	0.177385	-0.014434	-0.008228	0.050833	-0.276733	-0.196185	-0.939333	23.854958	-32.672340	179.109471
48071		18.187316	-1.823735	-0.020569	-15.655548	1.944508	-0.580904	-0.231327	-0.771368	-0.145986	-0.686035	-0.328613	-0.571289	0.181859	-0.018370	0.000517	0.049054	-0.280310	-0.195504	-0.938508	23.889849	-33.047082	178.801815
48072		16.892182	-0.059433	0.427302	-13.920733	0.548480	-0.250102	0.115571	-0.716675	-0.066062	-0.693359	-0.335205	-0.564209	0.168905	-0.000653	0.004878	0.048189	-0.283622	-0.196324	-0.937386	24.090900	-33.411460	178.557068
48073		14.402915	1.950593	0.429844	-11.376251	-1.295929	-0.849761	0.200710	-0.722460	-0.012028	-0.706787	-0.329102	-0.552002	0.144013	0.019493	0.004838	0.047692	-0.286987	-0.197463	-0.936148	24.325420	-33.790595	178.342004
48074		12.457600	3.099761	0.366661	-9.500614	-2.379958	-1.505586	0.054800	-0.839213	0.040995	-0.720703	-0.331055	-0.546143	0.124553	0.031022	0.004198	0.047118	-0.290986	-0.197870	-0.934855	24.479383	-34.243100	178.124244
48075		10.493564	3.302327	0.402720	-7.756788	-2.571186	-2.436859	-0.203242	-1.002499	0.106652	-0.733887	-0.327881	-0.530762	0.104896	0.033084	0.004519	0.046312	-0.295862	-0.197007	-0.933546	24.491072	-34.795568	177.899012
48076		8.850050	1.703194	0.470752	-6.633730	-1.095964	-3.792931	-0.324912	-1.218495	0.101977	-0.741211	-0.333740	-0.522217	0.088461	0.017085	0.005219	0.045091	-0.301767	-0.195629	-0.932005	24.474173	-35.460296	177.606267
48077		6.780878	0.012522	0.345231	-5.298442	0.373987	-5.583565	-0.114191	-1.464312	-0.012141	-0.752441	-0.318604	-0.490967	0.067781	0.000123	0.003949	0.043412	-0.308638	-0.195449	-0.929870	24.668094	-36.224826	177.164228
48078		5.213357	-0.432395	0.381050	-4.047343	0.777505	-6.568458	0.293682	-1.797135	-0.190380	-0.768311	-0.336670	-0.476563	0.052092	-0.004380	0.004272	0.041207	-0.316779	-0.197501	-0.926794	25.236787	-37.117656	176.495189
48079		5.096278	-0.040617	0.951563	-3.484635	0.691304	-6.036772	0.720690	-2.117738	-0.365778	-0.791260	-0.341309	-0.451904	0.050857	-0.000535	0.010053	0.038544	-0.326103	-0.201853	-0.922728	26.204079	-38.124223	175.587934
48080		5.666746	2.013041	1.879558	-2.882856	-0.700381	-4.254494	1.036965	-2.281746	-0.553572	-0.803467	-0.354248	-0.416992	0.056503	0.019874	0.019544	0.035360	-0.335893	-0.207973	-0.917972	27.500185	-39.152624	174.465184
48081		5.896510	3.849003	2.137115	-2.421629	-2.132596	-3.199399	1.066532	-2.333463	-0.747589	-0.829590	-0.367676	-0.385498	0.058852	0.038153	0.022262	0.031274	-0.345647	-0.214526	-0.912978	28.951241	-40.132282	173.149510
48082		6.296313	5.099107	2.351256	-2.224079	-2.997150	-2.246995	0.925479	-2.351388	-0.931958	-0.836914	-0.371094	-0.342041	0.062915	0.050586	0.024487	0.026079	-0.355253	-0.220721	-0.907963	30.455036	-41.043107	171.654723
48083		12.722339	22.166336	5.979090	-1.081041	-15.923813	11.024813	0.554301	-2.272167	-0.842743	-0.846436	-0.383057	-0.313721	0.127461	0.220957	0.061851	0.020712	-0.364578	-0.225022	-0.903338	31.736321	-41.912588	170.200586
48084		18.917808	27.337937	25.353663	7.837119	-12.456040	29.316652	-5.331484	0.111257	0.844284	-0.849854	-0.353760	-0.305420	0.188141	0.280801	0.246012	0.014909	-0.365494	-0.199325	-0.909099	28.280370	-42.104392	170.801807
48085		-5.777146	-16.917109	10.804913	8.718495	18.842757	-12.079068	-5.439989	1.245749	0.449987	-0.849121	-0.323975	-0.320801	-0.056702	-0.166271	0.112954	0.008234	-0.360583	-0.173615	-0.916390	24.675290	-41.584802	171.534285
48086		24.528505	-17.795324	26.555042	-3.253234	27.632189	19.329542	-3.147065	1.676573	0.468710	-0.837646	-0.305176	-0.323975	0.247925	-0.173188	0.266230	0.006147	-0.353428	-0.158266	-0.921956	22.325199	-40.816255	172.366121
48087		1.405474	1.391906	11.302645	6.331900	2.119567	-0.481694	-0.987819	2.814581	0.235584	-0.820068	-0.301514	-0.341553	0.015626	0.014494	0.112743	0.007700	-0.340672	-0.153200	-0.927584	21.153665	-39.372827	173.306985
48088		4.891178	8.242183	10.024569	3.375622	-4.607910	2.824954	-1.539337	2.340254	-0.064212	-0.811035	-0.289063	-0.353027	0.050102	0.083171	0.099026	0.006559	-0.329844	-0.146074	-0.932643	19.924858	-38.109753	173.862205
48089		7.237089	-2.956096	11.479788	0.935544	6.553619	2.396628	-1.009693	2.052919	0.010638	-0.796387	-0.283691	-0.365479	0.073547	-0.028980	0.114194	0.006429	-0.320333	-0.141278	-0.936689	19.042823	-37.007567	174.360899
48090		0.271963	-0.103261	10.318595	5.880278	2.869533	-1.828745	-0.619078	1.668447	-0.078939	-0.791748	-0.279297	-0.378662	0.003580	-0.000715	0.103161	0.006234	-0.312519	-0.138454	-0.939747	18.494524	-36.093394	174.687048
48091		6.417256	0.401299	9.568897	0.418314	2.606858	1.409343	-0.321367	1.085326	-0.177713	-0.782715	-0.277832	-0.368896	0.064694	0.004109	0.095332	0.005634	-0.307343	-0.137193	-0.941640	18.241207	-35.475860	174.806224
48092		5.064011	3.858551	10.796430	2.461813	-0.521093	2.465877	-0.159269	0.474245	-0.080643	-0.776611	-0.272949	-0.365967	0.050911	0.038651	0.107813	0.005323	-0.305107	-0.136560	-0.942461	18.123410	-35.208738	174.853107
48093		3.981005	0.009038	11.305469	3.240114	3.226066	1.266855	-0.089876	0.119564	-0.060947	-0.760254	-0.267578	-0.376709	0.039878	0.000129	0.113031	0.004967	-0.304547	-0.136234	-0.942691	18.082653	-35.137502	174.835338
48094		4.514175	2.011979	8.747673	1.518782	0.665456	0.096808	-0.107407	0.009758	-0.082274	-0.760742	-0.263672	-0.368164	0.045154	0.020148	0.087464	0.004410	-0.304495	-0.135859	-0.942765	18.053804	-35.122949	174.779461
48095		5.626737	2.398419	6.970551	-0.372310	-0.088299	-0.546904	-0.105584	-0.003001	-0.080255	-0.760010	-0.256104	-0.362061	0.056276	0.023998	0.069694	0.003855	-0.304500	-0.135491	-0.942819	18.026774	-35.115076	174.722161
48096		5.647473	3.504676	6.810158	-0.384617	-1.198052	-0.380207	-0.123605	0.013622	-0.059329	-0.749512	-0.256836	-0.365723	0.056490	0.035072	0.068076	0.003384	-0.304445	-0.135005	-0.942908	17.979349	-35.102520	174.682403
48097		6.261396	3.338021	6.541511	-1.058547	-1.067818	-0.279689	-0.148885	0.048883	-0.012361	-0.747314	-0.261963	-0.357910	0.062632	0.033425	0.065375	0.003119	-0.304251	-0.134328	-0.943068	17.895052	-35.078428	174.681525
48098		5.552460	3.222905	7.037965	-0.212502	-0.896339	-0.331059	-0.159663	0.070965	0.039621	-0.741455	-0.253174	-0.358398	0.055543	0.032296	0.070334	0.003098	-0.303993	-0.133521	-0.943266	17.782052	-35.052077	174.719955
48099		5.446344	2.961280	7.455014	0.084148	-0.563349	-0.133607	-0.182104	0.075130	0.086292	-0.743652	-0.244629	-0.353760	0.054479	0.029704	0.074503	0.003266	-0.303742	-0.132536	-0.943485	17.637818	-35.030857	174.790315
48100		5.801559	2.647625	7.551033	-0.182663	-0.232341	0.066518	-0.234067	0.064076	0.103052	-0.737305	-0.239258	-0.352539	0.058026	0.026594	0.075461	0.003426	-0.303559	-0.131282	-0.943719	17.458889	-35.019069	174.869409
48101		5.621533	2.489846	7.732388	0.046052	-0.075989	0.065713	-0.303188	0.138813	0.105152	-0.733643	-0.232422	-0.341064	0.056256	0.025045	0.077247	0.003540	-0.303021	-0.129696	-0.944111	17.230613	-34.965875	174.965429
48102		6.352088	1.897809	7.338614	-0.836825	0.420160	0.032568	-0.307621	0.124871	0.108369	-0.733154	-0.230469	-0.357178	0.063556	0.019125	0.073317	0.003655	-0.302555	-0.128084	-0.944480	17.000551	-34.921208	175.060384
48103		6.433955	1.517078	7.508989	-0.849513	0.807326	0.122538	-0.254021	0.134775	0.083521	-0.725586	-0.227295	-0.341553	0.064384	0.015293	0.075027	0.003738	-0.302018	-0.126763	-0.944829	16.809674	-34.866022	175.140510
48104		6.323247	2.017111	7.655542	-0.645073	0.328224	0.293529	-0.199475	0.127409	0.051814	-0.725830	-0.219482	-0.346924	0.063276	0.020264	0.076495	0.003750	-0.301501	-0.125747	-0.945130	16.663283	-34.810145	175.197690
48105		6.034108	2.204474	7.589641	-0.442346	0.093828	0.120505	-0.155836	0.130607	0.022488	-0.723633	-0.223145	-0.347168	0.060388	0.022111	0.075840	0.003691	-0.300944	-0.124981	-0.945409	16.552802	-34.746913	175.235725
48106		5.711587	1.810716	7.847299	-0.072987	0.502885	0.047475	-0.084135	0.070014	0.035934	-0.713379	-0.219971	-0.345459	0.057140	0.018150	0.078445	0.003766	-0.300685	-0.124535	-0.945550	16.485297	-34.719816	175.270582
48107		5.605674	1.536608	7.817367	-0.030377	0.746806	-0.099947	-0.048578	0.052936	0.029021	-0.706543	-0.210938	-0.342773	0.056075	0.015393	0.078155	0.003850	-0.300497	-0.124268	-0.945645	16.442686	-34.700244	175.297416
48108		5.682664	2.265353	7.747576	-0.077974	0.024517	0.058622	-0.049964	0.062907	-0.009801	-0.703613	-0.214844	-0.344482	0.056852	0.022670	0.077452	0.003756	-0.300242	-0.124052	-0.945754	16.412994	-34.669602	175.300244
48109		5.247550	2.602756	7.878690	0.377234	-0.303163	-0.007043	-0.006242	0.021555	0.012655	-0.703857	-0.208008	-0.341064	0.052482	0.026033	0.078780	0.003807	-0.300191	-0.124010	-0.945776	16.404411	-34.664608	175.309929
48110		5.682477	2.007816	7.582208	-0.197410	0.231413	-0.131818	-0.010957	0.032606	0.002472	-0.692383	-0.199463	-0.340820	0.056837	0.020083	0.075812	0.003811	-0.300087	-0.123961	-0.945815	16.395810	-34.652602	175.314977
48111		5.846320	2.503265	7.235103	-0.488139	-0.320835	-0.197528	0.003968	-0.005965	0.022353	-0.692139	-0.202881	-0.338867	0.058458	0.025038	0.072353	0.003906	-0.300172	-0.123953	-0.945789	16.392471	-34.664300	175.325730
48112		5.597298	2.241095	7.506641	-0.149668	-0.018965	-0.185686	0.017801	-0.003266	0.011929	-0.701660	-0.194336	-0.335693	0.055970	0.022408	0.075069	0.003975	-0.300243	-0.124026	-0.945757	16.400767	-34.673553	175.330043
48113		5.414443	2.331630	7.611695	0.069238	-0.092818	-0.185789	0.025430	-0.012591	0.016187	-0.695801	-0.196045	-0.332275	0.054138	0.023311	0.076123	0.004069	-0.300355	-0.124129	-0.945707	16.412808	-34.687898	175.335370
48114		5.615659	2.151781	7.649276	-0.086305	0.106257	-0.083429	0.044923	-0.016480	0.010623	-0.691650	-0.182373	-0.334473	0.056149	0.021504	0.076502	0.004165	-0.300487	-0.124333	-0.945638	16.438625	-34.704205	175.336201
48115		5.573213	2.073480	7.907772	0.092787	0.244631	0.077936	0.045847	-0.045108	-0.002017	-0.692627	-0.189209	-0.324463	0.055714	0.020716	0.079095	0.004183	-0.300741	-0.124561	-0.945527	16.472957	-34.733466	175.322925
48116		6.296299	2.243738	7.425335	-0.754275	0.017379	0.149446	0.039432	-0.033275	-0.002570	-0.689209	-0.181396	-0.327881	0.062951	0.022422	0.074268	0.004198	-0.300944	-0.124759	-0.945436	16.502554	-34.756858	175.311595
48117		6.465402	2.176901	7.085434	-1.087729	0.015627	-0.037192	0.029637	-0.019888	0.001951	-0.682617	-0.188477	-0.324951	0.064647	0.021759	0.070864	0.004226	-0.301082	-0.124903	-0.945374	16.523268	-34.772901	175.305930
48118		5.567400	2.291426	7.568136	-0.066779	-0.038776	-0.142253	0.006146	0.001162	-0.001316	-0.678467	-0.180908	-0.331543	0.055675	0.022912	0.075682	0.004218	-0.301124	-0.124941	-0.945355	16.529439	-34.777604	175.302248
48119		5.765677	2.439863	7.382342	-0.322403	-0.213997	-0.140811	-0.009442	0.021976	0.015879	-0.677734	-0.177734	-0.328369	0.057663	0.024407	0.073816	0.004280	-0.301073	-0.124879	-0.945379	16.517716	-34.772920	175.314197
48120		5.562493	2.309339	7.526016	-0.086264	-0.068605	-0.174059	-0.014595	0.024952	0.013375	-0.676270	-0.166260	-0.319824	0.055633	0.023103	0.075252	0.004325	-0.301013	-0.124796	-0.945409	16.503715	-34.766955	175.325055
48121		5.429714	2.560905	7.678790	0.127395	-0.286866	-0.070751	-0.041187	0.045875	-0.019903	-0.673828	-0.164063	-0.327393	0.054317	0.025619	0.076770	0.004185	-0.300827	-0.124638	-0.945490	16.484752	-34.743316	175.317804
48122		5.696984	1.608194	7.554503	-0.243388	0.622273	-0.238453	-0.018319	0.017765	0.014939	-0.671631	-0.166748	-0.319824	0.056975	0.016093	0.075538	0.004227	-0.300802	-0.124535	-0.945511	16.468847	-34.741549	175.328274
48123		5.370694	2.384239	7.714575	0.179142	-0.115211	-0.117418	-0.007133	0.005580	0.020152	-0.671631	-0.169189	-0.322998	0.053707	0.023851	0.077143	0.004302	-0.300831	-0.124478	-0.945509	16.458676	-34.746557	175.339831
48124		5.259316	2.352053	8.003388	0.432653	-0.024118	0.039165	0.000659	0.006142	0.029754	-0.661133	-0.150879	-0.319580	0.052592	0.023528	0.080032	0.004436	-0.300869	-0.124443	-0.945501	16.449296	-34.753581	175.357918
48125		5.863561	2.373422	7.575005	-0.303275	-0.108572	0.050954	-0.028446	0.011385	0.008777	-0.665771	-0.155029	-0.317383	0.058639	0.023748	0.075743	0.004429	-0.300864	-0.124302	-0.945521	16.430594	-34.753552	175.363015
48126		5.990580	2.137205	7.381461	-0.536443	0.079889	-0.084044	-0.007949	0.011012	0.045014	-0.661865	-0.151611	-0.317627	0.059905	0.021388	0.073810	0.004625	-0.300889	-0.124204	-0.945525	16.409911	-34.760361	175.392276
48127		5.828659	2.241183	7.467762	-0.346057	-0.013531	-0.084188	-0.015054	0.017038	0.013203	-0.659424	-0.154053	-0.325928	0.058291	0.022421	0.074671	0.004662	-0.300860	-0.124119	-0.945545	16.396558	-34.757938	175.401448
48128		5.651025	2.207273	7.599229	-0.128468	0.036896	-0.089696	0.004681	0.010870	0.046583	-0.648926	-0.150635	-0.314453	0.056509	0.022084	0.075990	0.004885	-0.300886	-0.124078	-0.945541	16.382523	-34.765082	175.431737
48129		5.413233	2.385529	7.776409	0.182954	-0.110786	-0.044339	0.001523	0.000062	0.022101	-0.651611	-0.145508	-0.328369	0.054130	0.023861	0.077764	0.004979	-0.300942	-0.124059	-0.945525	16.377176	-34.773425	175.443525
48130		5.491230	2.210338	7.718782	0.074276	0.049463	-0.085877	0.017860	-0.015591	0.053378	-0.645264	-0.134033	-0.320557	0.054900	0.022111	0.077194	0.005167	-0.301107	-0.124051	-0.945473	16.371428	-34.796171	175.464621
48131		5.631023	2.278106	7.659642	-0.063928	-0.021715	-0.037016	0.015364	-0.031155	0.029426	-0.647217	-0.135010	-0.308350	0.056295	0.022783	0.076607	0.005297	-0.301315	-0.124087	-0.945401	16.374707	-34.822857	175.475179
48132		5.562875	2.239408	7.751504	0.046033	0.033483	-0.012530	0.033408	-0.036403	0.050382	-0.647461	-0.123047	-0.313477	0.055609	0.022395	0.077529	0.005551	-0.301566	-0.124177	-0.945308	16.380942	-34.856597	175.498738
48133		5.786726	2.242163	7.468113	-0.292148	-0.021909	-0.107000	0.035495	-0.040127	0.054291	-0.635742	-0.123779	-0.315918	0.057846	0.022424	0.074697	0.005823	-0.301831	-0.124271	-0.945209	16.387229	-34.892236	175.524190
48134		5.726896	2.191787	7.473437	-0.239802	0.025111	-0.148558	0.033526	-0.014535	0.029965	-0.633301	-0.128662	-0.314209	0.057260	0.021914	0.074742	0.005995	-0.301967	-0.124392	-0.945149	16.398868	-34.910665	175.538384
48135		6.082047	2.215725	7.407213	-0.561263	0.009130	0.008333	0.028920	-0.038320	0.056253	-0.627686	-0.122070	-0.312988	0.060800	0.022164	0.074087	0.006268	-0.302225	-0.124452	-0.945057	16.400408	-34.945633	175.565513
48136		5.972826	2.253603	7.428425	-0.450512	-0.029262	-0.028463	0.035586	-0.040800	0.043098	-0.625000	-0.115967	-0.313232	0.059708	0.022536	0.074300	0.006488	-0.302492	-0.124563	-0.944955	16.411136	-34.980641	175.583334
48137		5.448489	2.142282	7.862178	0.221580	0.151566	-0.013852	0.054277	-0.050384	0.026816	-0.627686	-0.113770	-0.306641	0.054462	0.021409	0.078641	0.006653	-0.302788	-0.124788	-0.944830	16.439871	-35.017479	175.588333
48138		5.831280	1.931436	7.602714	-0.249745	0.322530	-0.046976	0.075437	-0.077843	0.014487	-0.608643	-0.114502	-0.312744	0.058282	0.019290	0.076057	0.006775	-0.303211	-0.125132	-0.944648	16.488668	-35.068214	175.579581
48139		5.854483	2.046690	7.671390	-0.209839	0.236079	0.047047	0.091256	-0.089651	-0.000719	-0.607422	-0.108398	-0.308594	0.058511	0.020432	0.076749	0.006841	-0.303674	-0.125574	-0.944440	16.553747	-35.122143	175.558205
48140		5.753562	2.181573	7.621212	-0.134023	0.095423	-0.018887	0.094788	-0.092519	0.000217	-0.604004	-0.114014	-0.309082	0.057500	0.021780	0.076249	0.006916	-0.304157	-0.126031	-0.944223	16.620926	-35.178597	175.536797
48141		5.768818	2.176430	7.527160	-0.190840	0.087500	-0.084884	0.100573	-0.088931	-0.005318	-0.600098	-0.115479	-0.315430	0.057655	0.021725	0.075308	0.006975	-0.304612	-0.126525	-0.944010	16.693181	-35.231334	175.512290
48142		5.572176	2.149281	7.704643	0.078782	0.153783	-0.065882	0.103167	-0.096435	-0.005395	-0.594238	-0.108398	-0.314941	0.055685	0.021452	0.077084	0.007034	-0.305110	-0.127030	-0.943781	16.767941	-35.288974	175.486121
48143		5.865931	2.168525	7.495856	-0.268122	0.112357	-0.054872	0.100924	-0.091694	0.000355	-0.595215	-0.117676	-0.309814	0.058625	0.021648	0.074996	0.007118	-0.305582	-0.127516	-0.943562	16.838671	-35.344115	175.464668
48144		6.360935	2.131265	7.114393	-0.882768	0.095497	-0.074619	0.104581	-0.095327	0.012149	-0.584717	-0.109375	-0.320068	0.063574	0.021279	0.071185	0.007263	-0.306085	-0.128001	-0.943332	16.907440	-35.404016	175.450315
48145		5.330462	2.578306	7.720350	0.354843	-0.246193	-0.092669	0.097105	-0.086960	0.012395	-0.579834	-0.115723	-0.317627	0.053269	0.025749	0.077239	0.007401	-0.306542	-0.128450	-0.943121	16.970870	-35.458531	175.437739
48146		5.764921	2.514687	7.653050	-0.031832	-0.165758	0.091788	0.088745	-0.094655	0.028073	-0.580322	-0.109375	-0.327148	0.057609	0.025121	0.076569	0.007597	-0.307052	-0.128836	-0.942901	17.024396	-35.520714	175.434060
48147		5.791730	2.572669	7.481191	-0.136469	-0.257265	-0.012373	0.067091	-0.085922	0.039477	-0.572510	-0.104736	-0.322510	0.057880	0.025713	0.074845	0.007818	-0.307523	-0.129102	-0.942710	17.060005	-35.579190	175.439795
48148		5.791416	2.504982	7.498449	-0.121906	-0.185091	-0.015084	0.044753	-0.083203	0.063770	-0.577148	-0.103760	-0.324219	0.057875	0.025051	0.075014	0.008122	-0.308004	-0.129226	-0.942533	17.073014	-35.641103	175.462433
48149		6.252758	2.373761	7.215900	-0.660402	-0.098800	0.003372	0.037956	-0.090673	0.079504	-0.566406	-0.106201	-0.324463	0.062485	0.023749	0.072192	0.008483	-0.308523	-0.129293	-0.942351	17.076774	-35.708917	175.494139
48150		5.656183	2.379765	7.656573	0.090217	-0.033162	-0.000983	0.044427	-0.092183	0.075988	-0.571777	-0.098633	-0.331543	0.056517	0.023802	0.076597	0.008839	-0.309054	-0.129396	-0.942159	17.085820	-35.777823	175.523176
48151		5.874371	2.390371	7.452711	-0.190432	-0.080222	-0.028910	0.056797	-0.112941	0.099784	-0.563477	-0.104248	-0.328125	0.058690	0.023912	0.074567	0.009310	-0.309691	-0.129522	-0.941928	17.094980	-35.861254	175.563990
48152		5.866422	2.638887	7.553863	-0.084143	-0.293699	0.104274	0.131344	-0.138817	0.142570	-0.563721	-0.096924	-0.341797	0.058593	0.026381	0.075597	0.010084	-0.310480	-0.129933	-0.941604	17.133037	-35.966938	175.628350
48153		5.981414	2.159943	7.616935	-0.165555	0.194628	0.106739	0.098069	-0.219553	0.145900	-0.560059	-0.097900	-0.342529	0.059715	0.021606	0.076246	0.010767	-0.311645	-0.130186	-0.941176	17.160440	-36.116561	175.678130
48154		5.686277	2.162982	7.944589	0.292980	0.260599	0.186058	0.136562	-0.285841	0.126650	-0.565430	-0.101318	-0.340820	0.056735	0.021611	0.079542	0.011378	-0.313115	-0.130654	-0.940616	17.225793	-36.300100	175.700892
48155		5.323498	2.406066	7.950578	0.649114	0.013727	0.032048	0.159373	-0.363596	0.136510	-0.564453	-0.108398	-0.340088	0.053074	0.024034	0.079622	0.012019	-0.314946	-0.131218	-0.939918	17.310013	-36.527021	175.713690
48156		5.289963	2.154915	8.323828	0.917014	0.360784	0.234309	0.207038	-0.511328	0.157890	-0.564209	-0.096924	-0.346191	0.052670	0.021505	0.083395	0.012740	-0.317488	-0.131980	-0.938946	17.431935	-36.839249	175.709090
48157		4.524762	2.060744	9.003809	1.989065	0.598686	0.260709	0.296852	-0.767329	0.196453	-0.564697	-0.094727	-0.340576	0.044881	0.020518	0.090241	0.013614	-0.321241	-0.133117	-0.937496	17.623407	-37.297140	175.674443
48158		3.305868	2.683574	10.826267	4.224260	0.429082	1.018196	0.446047	-1.182514	0.280066	-0.563721	-0.089844	-0.343018	0.032380	0.026640	0.108515	0.014844	-0.326982	-0.134842	-0.935243	17.923166	-37.996863	175.602969
48159		3.553720	3.716376	10.930762	4.384232	-0.471709	1.433358	0.622552	-1.743428	0.444449	-0.572754	-0.105713	-0.337891	0.034500	0.036900	0.109727	0.016750	-0.335415	-0.137158	-0.931882	18.337240	-39.030149	175.511652
48160		3.094135	4.835894	11.013642	5.181531	-1.486391	1.376291	0.784030	-2.440947	0.673110	-0.580566	-0.097412	-0.322021	0.029431	0.048026	0.110690	0.019514	-0.347202	-0.139882	-0.927094	18.856163	-40.484042	175.403519
48161		3.033142	4.981932	11.966664	6.207059	-1.295574	1.891873	0.776158	-3.265982	0.917936	-0.585938	-0.089600	-0.305420	0.028142	0.049486	0.120331	0.022816	-0.362895	-0.142192	-0.920635	19.406630	-42.429009	175.244617
48162		4.593218	3.666795	12.121170	5.441552	0.174821	2.507868	0.788022	-4.126908	1.156203	-0.612549	-0.096924	-0.280029	0.043205	0.036443	0.122266	0.026616	-0.382581	-0.144166	-0.912217	20.027557	-44.883538	175.000139
48163		4.841579	3.803099	12.633349	6.233226	0.276206	2.778279	0.858070	-4.910943	1.416189	-0.624756	-0.093262	-0.243652	0.045024	0.037812	0.127629	0.031154	-0.405796	-0.145984	-0.901691	20.753155	-47.808325	174.677724
48164		5.512299	2.753522	12.639291	6.306763	1.394315	2.674897	0.907974	-5.755963	1.734018	-0.634766	-0.060303	-0.194092	0.051216	0.027412	0.128029	0.036585	-0.432721	-0.147397	-0.888644	21.587587	-51.247344	174.265772
48165		8.125760	4.392897	14.070722	6.975341	0.490579	5.494366	1.054690	-6.389639	2.129400	-0.651123	-0.056885	-0.148682	0.076235	0.044007	0.143429	0.043583	-0.462270	-0.148568	-0.873117	22.522413	-55.103110	173.853998
48166		13.106326	4.569644	16.435166	7.266865	1.429628	10.379897	1.177284	-6.438552	2.264410	-0.664795	-0.043213	-0.100098	0.125157	0.046151	0.168716	0.051367	-0.491560	-0.149797	-0.856324	23.589737	-59.010117	173.387110
48167		14.091975	6.870434	15.166259	7.613696	-0.972200	10.600995	1.351393	-6.023373	2.255740	-0.672607	-0.028320	-0.057861	0.135480	0.069207	0.156264	0.059794	-0.518459	-0.151515	-0.839445	24.792352	-62.692239	172.897812
48168		14.491494	10.551945	13.057879	7.904780	-5.017141	10.287924	1.139320	-5.701290	2.508046	-0.678223	-0.011230	-0.009766	0.139772	0.106532	0.135218	0.068911	-0.543719	-0.151435	-0.822611	25.644595	-66.263931	172.677634
48169		15.305801	9.111927	12.884908	8.285563	-3.673739	10.212937	0.832476	-5.225697	2.743394	-0.667236	0.007324	0.038818	0.148352	0.092628	0.133150	0.078457	-0.566794	-0.149146	-0.806439	25.845394	-69.647929	172.976154
48170		13.301380	9.629686	11.709072	9.171670	-4.708273	7.518484	0.743054	-4.576482	2.986595	-0.667725	0.031250	0.076172	0.128830	0.097798	0.120432	0.089148	-0.586997	-0.145430	-0.791415	25.051723	-72.754997	174.264441
48171		8.727973	10.553805	9.849550	9.924988	-6.450350	2.203953	0.285493	-3.932580	3.274810	-0.669434	0.060059	0.102295	0.083577	0.106785	0.100315	0.100044	-0.604652	-0.138667	-0.777919	22.362363	-75.577830	177.229501
48172		16.726996	2.057520	9.531987	5.626351	1.282360	8.667281	-0.041764	-3.543782	3.661359	-0.671875	0.090576	0.129639	0.165132	0.023632	0.098254	0.111655	-0.620827	-0.129180	-0.765128	16.782312	-78.200757	-177.066840
48173		25.251734	1.608038	17.600019	11.914176	3.903368	18.343218	0.621741	-1.545658	3.025458	-0.658203	0.111084	0.142578	0.250871	0.019333	0.178000	0.124133	-0.628287	-0.123025	-0.758097	9.619048	-79.466540	-169.402593
48174		14.187435	4.682763	12.642675	10.765326	-0.585596	6.521684	1.628148	0.155928	2.254354	-0.654785	0.137939	0.154053	0.141441	0.047393	0.126701	0.137864	-0.628038	-0.122023	-0.756090	3.581848	-79.530512	-162.313491
48175		6.200375	9.097400	7.748802	9.369559	-6.011328	-2.241381	1.802090	0.798968	1.682946	-0.657227	0.155273	0.138184	0.061550	0.090792	0.078060	0.150351	-0.624783	-0.123005	-0.756247	-0.554528	-79.103210	-157.053045
48176		3.664499	10.653358	5.236397	8.227790	-8.127209	-5.274757	1.312557	0.909172	1.238585	-0.662842	0.152344	0.131348	0.036225	0.106413	0.052897	0.159673	-0.621113	-0.123429	-0.757290	-3.297873	-78.562621	-153.489617
48177		2.843443	9.352369	4.115840	6.922302	-7.241447	-6.329150	0.750472	0.864408	0.734250	-0.667236	0.166260	0.130859	0.028270	0.093473	0.041387	0.165304	-0.617713	-0.123314	-0.758880	-4.724124	-78.044438	-151.593523
48178		2.919858	6.976229	4.031993	5.893008	-5.085900	-6.227121	0.428878	0.854081	0.060230	-0.675293	0.165527	0.123535	0.029350	0.069685	0.040344	0.167367	-0.614170	-0.124070	-0.761176	-4.447040	-77.558013	-151.624825
48179		2.665283	4.823798	3.796744	4.834972	-3.169545	-6.441552	0.376544	0.901844	-0.729763	-0.685303	0.154053	0.115234	0.027000	0.048068	0.037937	0.166293	-0.609993	-0.127004	-0.764281	-2.239194	-77.071842	-153.666220
48180		1.971790	4.028450	3.355204	4.220076	-2.524811	-7.131421	0.411049	0.977036	-1.461964	-0.687988	0.136230	0.109863	0.020175	0.040069	0.033537	0.162557	-0.604986	-0.132240	-0.768167	1.591708	-76.520359	-157.358290
48181		1.063749	3.517903	2.781611	3.661925	-2.182275	-8.060068	0.332470	1.000309	-1.978395	-0.699219	0.121582	0.108398	0.011124	0.035024	0.027820	0.156605	-0.599561	-0.138696	-0.772505	6.233959	-75.875932	-161.941672
48182		0.640545	1.970209	2.439197	2.796062	-0.859185	-8.514570	0.216280	0.984474	-2.292621	-0.704834	0.103027	0.106689	0.006751	0.019600	0.024381	0.149052	-0.593973	-0.145646	-0.777024	11.065551	-75.123380	-166.803102
48183		0.963138	0.442577	2.320920	1.966258	0.485281	-8.260801	0.147394	0.994003	-2.437474	-0.710449	0.078369	0.100098	0.009799	0.004290	0.023164	0.140719	-0.588209	-0.152720	-0.781591	15.642217	-74.250926	-171.459830
48184		1.623670	-0.742957	2.406396	1.358618	1.602026	-7.675747	0.142804	1.080478	-2.433060	-0.718018	0.055176	0.082031	0.016274	-0.007645	0.023971	0.132425	-0.581997	-0.159683	-0.786285	19.650867	-73.240454	-175.549051
48185		2.294222	-1.519257	2.687717	1.063021	2.446205	-7.041202	0.179241	1.257371	-2.292805	-0.726807	0.030273	0.072510	0.022934	-0.015480	0.026719	0.124914	-0.575089	-0.166228	-0.791225	22.850512	-72.097011	-178.792521
48186		3.073405	-2.024293	2.888061	0.740228	3.025489	-6.322368	0.223573	1.528675	-2.067399	-0.736816	0.007568	0.070313	0.030742	-0.020593	0.028623	0.118619	-0.567156	-0.172110	-0.796644	25.154752	-70.817011	178.913103
48187		3.393267	-2.155925	2.893097	0.507773	3.188225	-6.056509	0.259855	1.866860	-1.780087	-0.742676	-0.010010	0.049316	0.034007	-0.021899	0.028585	0.113849	-0.558022	-0.177085	-0.802677	26.560914	-69.413888	177.576766
48188		3.271398	-2.131436	2.687481	0.290948	3.106134	-6.244206	0.280937	2.209514	-1.474182	-0.745605	-0.022217	0.032471	0.032850	-0.021594	0.026482	0.110512	-0.547689	-0.180996	-0.809361	27.198766	-67.904736	177.048192
48189		2.928635	-1.855344	2.172353	-0.007927	2.647566	-6.693727	0.290691	2.497315	-1.205689	-0.741455	-0.031250	0.004150	0.029442	-0.018762	0.021329	0.108665	-0.536313	-0.184090	-0.816499	27.277373	-66.320622	177.144202
48190		2.537096	-1.455971	1.524107	-0.330447	2.008316	-7.217208	0.279653	2.700812	-1.011076	-0.751221	-0.042969	-0.025879	0.025499	-0.014709	0.014877	0.107621	-0.524196	-0.186409	-0.823946	27.030387	-64.681234	177.576713
48191		2.000251	-1.387635	1.060123	-0.530839	1.737986	-7.876802	0.270050	2.798304	-0.951579	-0.750977	-0.062744	-0.055420	0.020082	-0.013986	0.010302	0.106991	-0.511615	-0.188503	-0.831426	26.707166	-63.008860	178.109698
48192		1.488677	-0.983544	0.590125	-0.583930	1.161225	-8.455426	0.255142	2.811058	-0.994749	-0.750732	-0.074707	-0.069092	0.014918	-0.009917	0.005679	0.106010	-0.498845	-0.190544	-0.838814	26.463528	-61.315423	178.536614
48193		1.428279	-0.536649	0.262462	-0.692985	0.613586	-8.571725	0.189272	2.747733	-1.106245	-0.748535	-0.095459	-0.097412	0.014287	-0.005448	0.002423	0.104435	-0.486149	-0.192632	-0.845958	26.344517	-59.627756	178.798581
48194		1.779276	-0.531711	0.196379	-0.961306	0.584219	-8.322234	0.087590	2.630247	-1.289683	-0.752686	-0.113525	-0.130371	0.017782	-0.005433	0.001728	0.101521	-0.473744	-0.194682	-0.852854	26.392622	-57.951278	178.780426
48195		2.247546	-0.715068	0.133284	-1.370974	0.732355	-8.033847	-0.032517	2.483575	-1.549773	-0.751221	-0.132080	-0.145996	0.022433	-0.007324	0.001055	0.097227	-0.461649	-0.196945	-0.859442	26.626245	-56.285862	178.480679
48196		2.469434	-0.880626	-0.093803	-1.771927	0.800032	-8.051387	-0.170753	2.313890	-1.808037	-0.748535	-0.143311	-0.184326	0.024600	-0.009030	-0.001215	0.091311	-0.449980	-0.199256	-0.865724	27.008565	-54.637376	177.898637
48197		2.909970	-1.321596	-0.347788	-2.407744	1.122584	-8.002321	-0.337255	2.052875	-2.010126	-0.750977	-0.176025	-0.196045	0.028927	-0.013513	-0.003753	0.083872	-0.439237	-0.201372	-0.871485	27.484986	-53.068607	177.070038
48198		3.559567	-1.865345	-0.654354	-3.234041	1.542638	-7.879170	-0.480849	1.749812	-2.116841	-0.751709	-0.186768	-0.214355	0.035337	-0.019045	-0.006808	0.075326	-0.429662	-0.203188	-0.876602	28.001046	-51.618721	176.071038
48199		4.731866	-2.958816	-0.639339	-4.312079	2.648400	-7.374600	-0.506749	1.403183	-2.160424	-0.753662	-0.217773	-0.236572	0.046949	-0.030113	-0.006648	0.066172	-0.421510	-0.205074	-0.880849	28.589967	-50.328199	174.939919
48200		6.742704	-4.060048	-0.295143	-5.686654	3.991781	-6.103241	-0.342522	1.071843	-2.180850	-0.756104	-0.249756	-0.255371	0.066962	-0.041338	-0.003241	0.056919	-0.414659	-0.207805	-0.884102	29.338863	-49.187862	173.702480
48201		10.371495	-2.960030	0.891496	-6.955274	3.877982	-2.484320	-0.126845	0.872588	-2.130482	-0.755371	-0.265381	-0.265869	0.103429	-0.030698	0.008483	0.048125	-0.408635	-0.211409	-0.886571	30.193373	-48.151903	172.468475
48202		15.662361	0.064284	2.375756	-8.771635	2.402263	3.157880	-0.115185	0.996615	-1.963974	-0.760498	-0.289307	-0.284180	0.156736	-0.000883	0.022977	0.040215	-0.402170	-0.214670	-0.889134	30.875958	-47.090618	171.455695
48203		18.802723	2.197047	2.333653	-10.653075	0.964026	5.979183	-0.396660	1.456231	-1.670274	-0.764648	-0.308594	-0.310791	0.188365	0.020443	0.021924	0.033536	-0.393997	-0.215968	-0.892748	31.065077	-45.886758	170.882268
48204		18.862566	1.845957	0.673344	-12.240519	0.724527	4.654036	-0.792359	1.857583	-1.304127	-0.758057	-0.316650	-0.332520	0.188792	0.017251	0.004910	0.028138	-0.384430	-0.214683	-0.897403	30.710666	-44.592443	170.742539
48205		17.070340	-0.391037	-1.701434	-13.350944	1.634043	0.841647	-1.023551	1.915370	-0.981825	-0.760498	-0.337158	-0.357910	0.170508	-0.004840	-0.018625	0.023803	-0.374938	-0.211702	-0.902240	30.060754	-43.365282	170.834613
48206		15.745181	-1.443937	-3.497478	-13.992534	1.753688	-1.853122	-0.882072	1.594370	-0.743233	-0.753906	-0.340088	-0.381836	0.157111	-0.015181	-0.036162	0.020465	-0.367079	-0.208925	-0.906192	29.481071	-42.364097	170.944403
48207		17.118590	-0.778328	-3.836081	-15.215471	1.205911	-1.129482	-0.513448	1.154871	-0.607854	-0.758545	-0.360596	-0.401123	0.170936	-0.008403	-0.039327	0.017958	-0.361295	-0.207599	-0.908871	29.172121	-41.620754	170.967216
48208		19.860272	1.622225	-3.627406	-16.779829	-0.548088	1.516629	-0.142635	0.857524	-0.560996	-0.752197	-0.352783	-0.422852	0.198489	0.015639	-0.037137	0.016024	-0.356861	-0.207893	-0.910590	29.130268	-41.038891	170.907517
48209		20.779710	5.036575	-3.858520	-17.123377	-3.600958	3.066427	-0.045264	0.711148	-0.571794	-0.770996	-0.368164	-0.428955	0.207801	0.049763	-0.039335	0.014063	-0.353069	-0.208656	-0.911925	29.183396	-40.527585	170.787246
48210		19.966424	7.049043	-4.521716	-16.706741	-5.725869	2.712853	-0.277330	0.527593	-0.655848	-0.770996	-0.383301	-0.443359	0.199773	0.069772	-0.045841	0.011117	-0.350038	-0.208518	-0.913165	29.181386	-40.084881	170.545657
48211		19.134805	6.376249	-5.300697	-16.801593	-5.400780	1.297175	-0.572403	0.228666	-0.841794	-0.774902	-0.385010	-0.440186	0.191553	0.062804	-0.053407	0.006494	-0.348184	-0.207370	-0.914179	29.155711	-39.739545	170.075302
48212		17.764347	4.759289	-5.683913	-16.355544	-4.068017	-0.513625	-0.645438	-0.163780	-1.075369	-0.793701	-0.396729	-0.432373	0.177942	0.046453	-0.056845	0.000270	-0.347880	-0.206303	-0.914559	29.273236	-39.525764	169.312710
48213		16.080821	3.479296	-5.577664	-15.254030	-2.864344	-2.007980	-0.497716	-0.637930	-1.221351	-0.809082	-0.417969	-0.427490	0.161193	0.033671	-0.055348	-0.006855	-0.349569	-0.206154	-0.913923	29.642262	-39.503996	168.285348
48214		15.385052	3.248723	-4.679413	-14.196574	-2.173298	-1.883071	-0.269473	-1.053834	-1.252407	-0.829590	-0.426025	-0.409180	0.154294	0.031460	-0.046025	-0.014149	-0.353126	-0.207079	-0.912261	30.255766	-39.674516	167.082227
48215		14.189178	3.713135	-3.520395	-12.470180	-2.126244	-1.598003	-0.093527	-1.322775	-1.189461	-0.841309	-0.433594	-0.375732	0.142338	0.036270	-0.034281	-0.021124	-0.357947	-0.208658	-0.909884	31.016869	-39.983395	165.811079
48216		16.965991	19.171114	0.500911	-10.129805	-13.991924	9.087895	-0.078901	-1.508062	-0.841712	-0.853027	-0.429932	-0.349365	0.170421	0.190997	0.006217	-0.026681	-0.363965	-0.209649	-0.907119	31.705447	-40.476195	164.677122
48217		21.870792	34.388888	23.308229	2.586395	-19.687458	32.722578	-6.147765	0.702570	1.110171	-0.859863	-0.408936	-0.352295	0.217561	0.352028	0.221578	-0.032099	-0.360983	-0.179746	-0.914523	27.545271	-40.444819	165.660609
48218		-4.942280	-16.156872	16.920805	14.126438	19.015801	-6.586347	-6.589684	1.561385	0.877418	-0.844238	-0.363525	-0.359619	-0.047380	-0.156081	0.174787	-0.038572	-0.353425	-0.148199	-0.922844	23.069124	-39.857366	166.749862
48219		23.403557	-30.694488	36.156364	5.054625	41.868868	22.099210	-2.669478	2.998829	0.628285	-0.825439	-0.349854	-0.368652	0.240414	-0.301366	0.362038	-0.038173	-0.339508	-0.135326	-0.930034	20.749063	-38.402096	168.003056
48220		-3.158757	13.070360	11.524137	9.959183	-10.527635	0.365368	-1.482086	3.070348	0.669745	-0.815430	-0.334961	-0.384033	-0.030263	0.131452	0.114740	-0.035502	-0.325408	-0.127869	-0.936215	19.161559	-36.885993	169.213057
48221		-0.136618	-5.117041	15.377764	9.425946	8.191515	0.517761	-1.090611	1.999343	0.140932	-0.802246	-0.322021	-0.388428	0.000209	-0.050331	0.154057	-0.035349	-0.315967	-0.122887	-0.940114	18.212622	-35.831413	169.760470
48222		3.361941	-1.557549	13.879059	5.600306	4.870308	2.486562	-0.381226	1.045971	-0.038858	-0.796143	-0.314941	-0.387695	0.034342	-0.015318	0.138642	-0.035502	-0.311010	-0.121345	-0.941960	17.879412	-35.260947	169.959246
48223		5.548928	-2.756520	11.833495	2.537399	5.897747	1.900499	-0.114543	0.223582	-0.046540	-0.785400	-0.316895	-0.379639	0.055615	-0.027510	0.118289	-0.035776	-0.309951	-0.120923	-0.942353	17.806337	-35.135576	169.973035
48224		5.668114	0.014867	8.967895	0.757171	2.644417	0.433512	0.072204	-0.096099	-0.137143	-0.775635	-0.302002	-0.372559	0.056638	0.000077	0.089706	-0.036379	-0.310387	-0.121463	-0.942116	17.914663	-35.170021	169.857722
48225		6.514159	1.468102	7.185419	-0.959001	1.010586	-0.102960	0.092278	-0.165426	-0.244882	-0.769775	-0.305176	-0.369629	0.065100	0.014568	0.071915	-0.037502	-0.311077	-0.122252	-0.941743	18.084654	-35.221542	169.655390
48226		6.317272	3.086513	6.719004	-1.059310	-0.656163	-0.167649	0.090811	-0.106229	-0.273741	-0.776123	-0.313965	-0.351074	0.063179	0.030748	0.067238	-0.038725	-0.311481	-0.123089	-0.941451	18.257667	-35.236605	169.446540
48227		6.387962	4.431576	6.691204	-1.127431	-1.929290	0.198498	0.059312	-0.005165	-0.220421	-0.769287	-0.309082	-0.349365	0.063927	0.044225	0.066927	-0.039686	-0.311423	-0.123716	-0.941347	18.379311	-35.204440	169.295413
48228		6.554269	4.753703	6.680719	-1.273150	-2.200441	0.371873	0.063736	0.066709	-0.138045	-0.754150	-0.297119	-0.347412	0.065598	0.047470	0.066800	-0.040206	-0.311091	-0.124248	-0.941365	18.462645	-35.149358	169.215135
48229		5.292853	3.819533	7.281077	0.085288	-1.354219	-0.128887	0.037245	0.129469	-0.093969	-0.753418	-0.300049	-0.340088	0.052994	0.038157	0.072784	-0.040522	-0.310473	-0.124600	-0.941509	18.505716	-35.066647	169.178221
48230		6.232730	3.203035	6.788568	-0.975725	-0.710652	-0.131059	0.025054	0.120589	-0.059272	-0.751465	-0.294434	-0.334717	0.062378	0.032003	0.067852	-0.040698	-0.309929	-0.124839	-0.941649	18.529794	-34.996531	169.162393
48231		5.511369	2.523697	7.232433	-0.142384	-0.068022	-0.377253	0.020589	0.103156	-0.036289	-0.739746	-0.293945	-0.334473	0.055156	0.025220	0.072298	-0.040785	-0.309467	-0.125018	-0.941773	18.544596	-34.938593	169.158023
48232		5.631293	2.827144	7.203324	-0.263463	-0.345954	-0.252197	0.000782	0.072777	-0.024107	-0.731689	-0.287842	-0.333008	0.056343	0.028264	0.072013	-0.040863	-0.309165	-0.125078	-0.941861	18.547478	-34.900876	169.154917
48233		5.354398	1.967721	7.861079	0.342580	0.580223	-0.123310	-0.024189	0.069054	-0.034178	-0.730225	-0.277588	-0.322998	0.053574	0.019678	0.078590	-0.041031	-0.308856	-0.125036	-0.941961	18.540145	-34.861846	169.144383
48234		6.593196	1.577252	7.201832	-1.051277	1.009963	-0.030094	-0.046973	0.044245	-0.047715	-0.722168	-0.290283	-0.327637	0.065952	0.015774	0.072000	-0.041311	-0.308663	-0.124903	-0.942030	18.528209	-34.835335	169.119313
48235		5.953689	2.472993	7.195001	-0.544332	0.044445	-0.167384	-0.051399	0.024231	-0.054017	-0.718262	-0.280762	-0.321533	0.059552	0.024732	0.071936	-0.041642	-0.308547	-0.124754	-0.942073	18.518458	-34.817048	169.085700
48236		5.578773	2.559808	7.693540	0.050086	0.005342	0.029231	-0.049296	0.023800	-0.023883	-0.723389	-0.270508	-0.317383	0.055800	0.025610	0.076922	-0.041826	-0.308465	-0.124568	-0.942116	18.498746	-34.806031	169.071877
48237		5.170525	3.222165	7.848563	0.467559	-0.669190	0.089342	-0.067418	0.011483	0.000521	-0.712891	-0.263184	-0.316406	0.051710	0.032248	0.078472	-0.041933	-0.308440	-0.124257	-0.942161	18.460818	-34.804598	169.071531
48238		5.832500	2.862458	7.628037	-0.195132	-0.271198	0.201654	-0.078365	-0.022911	0.022726	-0.712891	-0.254883	-0.314941	0.058313	0.028661	0.076276	-0.041972	-0.308601	-0.123852	-0.942159	18.412746	-34.827422	169.078229
48239		5.072382	3.113952	7.954432	0.612406	-0.572074	0.086627	-0.068950	-0.021131	0.035761	-0.709229	-0.257568	-0.313721	0.050710	0.031176	0.079539	-0.041936	-0.308751	-0.123473	-0.942162	18.364709	-34.850091	169.094041
48240		5.467183	2.643773	7.683074	0.138656	-0.120286	-0.021082	-0.066779	-0.041363	0.042026	-0.702881	-0.254150	-0.309570	0.054650	0.026475	0.076833	-0.041877	-0.309013	-0.123089	-0.942129	18.318267	-34.886413	169.109516
48241		5.668572	2.579371	7.330447	-0.227269	-0.106910	-0.197167	-0.061796	-0.050978	0.046012	-0.697021	-0.243408	-0.298340	0.056661	0.025829	0.073311	-0.041800	-0.309312	-0.122721	-0.942082	18.274136	-34.927142	169.125639
48242		5.507989	2.500650	7.504939	0.012337	-0.027202	-0.173476	-0.057501	-0.065179	0.055275	-0.700195	-0.233398	-0.304443	0.055049	0.025043	0.075060	-0.041679	-0.309696	-0.122356	-0.942009	18.230898	-34.978787	169.144773
48243		5.307272	2.477251	7.600996	0.238730	-0.022663	-0.219902	-0.039552	-0.076327	0.055503	-0.700928	-0.227539	-0.301758	0.053037	0.024802	0.076025	-0.041538	-0.310124	-0.122073	-0.941911	18.198999	-35.034993	169.161751
48244		5.784780	2.339512	7.475830	-0.210096	0.153106	-0.078344	-0.022121	-0.084974	0.051552	-0.687012	-0.226563	-0.293701	0.057810	0.023418	0.074780	-0.041392	-0.310606	-0.121875	-0.941784	18.179854	-35.096728	169.174177
48245		5.677357	1.981577	7.612617	-0.032758	0.507162	-0.124928	0.003372	-0.067813	0.045733	-0.690674	-0.228760	-0.302490	0.056743	0.019827	0.076146	-0.041225	-0.310997	-0.121811	-0.941671	18.175151	-35.146544	169.186582
48246		5.538216	2.380401	7.631248	0.097260	0.102496	-0.088793	0.017276	-0.057190	0.038513	-0.683594	-0.218262	-0.294434	0.055356	0.023808	0.076330	-0.041062	-0.311348	-0.121825	-0.941560	18.180029	-35.190834	169.196440
48247		5.625209	2.583249	7.635795	0.036141	-0.079932	0.016545	0.024406	-0.034505	0.042279	-0.683838	-0.210938	-0.293457	0.056233	0.025835	0.076371	-0.040859	-0.311584	-0.121872	-0.941484	18.184484	-35.221902	169.213839
48248		5.859487	2.550200	7.424553	-0.272177	-0.054990	-0.020650	0.043212	-0.032750	0.042398	-0.677979	-0.200928	-0.288574	0.058577	0.025498	0.074261	-0.040622	-0.311829	-0.122008	-0.941396	18.199631	-35.253588	169.231635
48249		5.317579	2.553186	7.899449	0.451019	-0.042166	0.035739	0.047422	-0.020752	0.042031	-0.681885	-0.202881	-0.282715	0.053162	0.025524	0.079006	-0.040375	-0.312004	-0.122166	-0.941328	18.215615	-35.277133	169.251881
48250		5.926870	2.527633	7.399939	-0.331237	-0.025685	-0.006290	0.047677	-0.021796	0.046552	-0.666504	-0.201172	-0.287109	0.059255	0.025272	0.074012	-0.040106	-0.312200	-0.122318	-0.941255	18.230324	-35.303610	169.274842
48251		5.866911	2.240082	7.565602	-0.181319	0.278475	0.014139	0.042798	0.004300	0.033790	-0.660645	-0.197266	-0.289063	0.058667	0.022395	0.075660	-0.039890	-0.312252	-0.122473	-0.941227	18.243644	-35.312053	169.295092
48252		6.433428	2.244718	7.142319	-0.885643	0.273562	0.014890	0.024556	-0.018788	0.030128	-0.661865	-0.180420	-0.282715	0.064324	0.022448	0.071432	-0.039732	-0.312419	-0.122542	-0.941169	18.251042	-35.333971	169.307760
48253		5.709534	2.323864	7.568637	-0.048542	0.176036	-0.053074	0.020201	0.012157	0.004182	-0.654541	-0.178467	-0.285645	0.057099	0.023232	0.075685	-0.039686	-0.312412	-0.122638	-0.941161	18.261826	-35.332830	169.309995
48254		6.548930	2.644756	6.693722	-1.242193	-0.187311	-0.163283	0.004379	-0.013286	0.025409	-0.654541	-0.173828	-0.284180	0.065481	0.026454	0.066942	-0.039578	-0.312546	-0.122621	-0.941123	18.258775	-35.350937	169.320728
48255		5.306360	2.422917	7.692542	0.353024	0.044698	-0.165068	0.014685	-0.008919	0.021510	-0.637939	-0.176758	-0.293457	0.053058	0.024229	0.076930	-0.039472	-0.312647	-0.122660	-0.941089	18.262393	-35.364375	169.329884
48256		5.432823	2.605099	7.546559	0.168751	-0.143114	-0.158481	0.005459	-0.036292	0.035794	-0.638916	-0.172119	-0.283203	0.054310	0.026059	0.075476	-0.039327	-0.312897	-0.122627	-0.941016	18.258881	-35.396888	169.342483
48257		5.321255	2.678575	7.758979	0.390613	-0.188697	-0.040068	0.002618	-0.038286	0.035360	-0.623535	-0.165039	-0.281982	0.053193	0.026794	0.077600	-0.039193	-0.313142	-0.122581	-0.940946	18.253962	-35.428790	169.354426
48258		5.815538	2.421559	7.545114	-0.128038	0.088297	0.015282	0.007416	-0.046378	0.046076	-0.624268	-0.161621	-0.292969	0.058132	0.024226	0.075466	-0.039003	-0.313446	-0.122540	-0.940858	18.248861	-35.468624	169.371685
48259		5.011813	2.436495	8.031326	0.812455	0.052793	-0.071327	0.013729	-0.040773	0.007496	-0.615723	-0.161133	-0.278809	0.050101	0.024361	0.080325	-0.038984	-0.313687	-0.122590	-0.940772	18.261416	-35.496879	169.364471
48260		6.023749	2.317332	7.382158	-0.380248	0.186071	-0.016126	0.016891	-0.064326	0.041599	-0.605957	-0.154297	-0.288818	0.060209	0.023180	0.073843	-0.038811	-0.314074	-0.122596	-0.940649	18.265754	-35.545666	169.374787
48261		6.125275	2.130222	7.302186	-0.501541	0.365254	-0.066211	0.019642	-0.081260	0.027925	-0.605225	-0.142334	-0.291748	0.061220	0.021304	0.073049	-0.038712	-0.314520	-0.122634	-0.940500	18.278969	-35.599616	169.372278
48262		6.067244	2.304579	7.362049	-0.408751	0.200918	-0.008869	0.027680	-0.082593	0.019493	-0.603760	-0.148682	-0.293945	0.060640	0.023042	0.073649	-0.038637	-0.314982	-0.122722	-0.940337	18.300443	-35.654396	169.363750
48263		5.862650	2.543127	7.307392	-0.267680	-0.070919	-0.109108	0.022971	-0.082193	0.027630	-0.594482	-0.154541	-0.292725	0.058593	0.025431	0.073101	-0.038534	-0.315432	-0.122776	-0.940183	18.315832	-35.708800	169.360791
48264		5.615674	2.812623	7.382601	-0.013743	-0.352600	-0.126361	0.026030	-0.090281	0.030402	-0.591309	-0.150391	-0.304199	0.056119	0.028125	0.073855	-0.038416	-0.315936	-0.122837	-0.940010	18.333132	-35.769742	169.357816
48265		5.407105	2.574836	7.724993	0.369040	-0.082472	-0.045442	0.033521	-0.105501	0.032968	-0.585449	-0.148438	-0.301270	0.054026	0.025744	0.077283	-0.038286	-0.316502	-0.122927	-0.939814	18.355536	-35.837783	169.353207
48266		5.386602	2.518649	7.693736	0.379874	-0.036662	-0.096362	0.043384	-0.133382	0.043589	-0.583008	-0.141113	-0.306396	0.053809	0.025182	0.076979	-0.038104	-0.317219	-0.123041	-0.939564	18.383275	-35.924535	169.349407
48267		5.476803	2.512412	7.752724	0.360467	-0.003476	-0.000330	0.054204	-0.167544	0.047897	-0.582275	-0.140625	-0.311035	0.054697	0.025116	0.077580	-0.037909	-0.318089	-0.123193	-0.939258	18.419851	-36.029003	169.340867
48268		5.363820	2.723908	7.805321	0.503319	-0.212023	0.026772	0.061495	-0.181653	0.052292	-0.572998	-0.138184	-0.317383	0.053560	0.027229	0.078110	-0.037688	-0.319041	-0.123369	-0.938921	18.460987	-36.143551	169.331956
48269		5.784612	2.636023	7.531916	0.024533	-0.118516	0.042536	0.074739	-0.220638	0.058547	-0.573242	-0.146729	-0.327393	0.057755	0.026349	0.075393	-0.037442	-0.320170	-0.123590	-0.938517	18.512310	-36.278794	169.318416
48270		5.779365	2.630115	7.569729	0.078015	-0.102517	0.066720	0.094786	-0.252807	0.067842	-0.568115	-0.144287	-0.324951	0.057689	0.026285	0.075783	-0.037139	-0.321471	-0.123883	-0.938046	18.576058	-36.434804	169.303602
48271		5.792636	2.295796	7.524528	0.067982	0.218363	-0.045834	0.145492	-0.323241	0.086298	-0.568115	-0.141113	-0.329102	0.057795	0.022928	0.075355	-0.036713	-0.323110	-0.124372	-0.937435	18.670999	-36.630808	169.284992
48272		5.211981	2.520149	8.206139	0.989213	0.067321	0.180978	0.227230	-0.425505	0.113736	-0.568848	-0.138672	-0.333740	0.051931	0.025138	0.082201	-0.036087	-0.325271	-0.125180	-0.936604	18.816312	-36.888926	169.260824
48273		6.356927	1.850436	7.580330	-0.252126	0.765574	0.219563	0.246724	-0.568509	0.120301	-0.567383	-0.141113	-0.333496	0.063342	0.018449	0.076006	-0.035491	-0.328094	-0.126042	-0.935526	18.990652	-37.224114	169.206933
48274		5.384098	2.103183	8.319107	1.041558	0.550380	0.248683	0.321051	-0.694741	0.102005	-0.577637	-0.139893	-0.332275	0.053541	0.020925	0.083411	-0.034935	-0.331518	-0.127256	-0.934174	19.234826	-37.625648	169.108885
48275		5.790622	1.966511	8.140326	0.694281	0.728821	0.318917	0.400811	-0.860249	0.112064	-0.583984	-0.142334	-0.327393	0.057544	0.019534	0.081691	-0.034307	-0.335716	-0.128796	-0.932486	19.547261	-38.116565	168.974849
48276		5.365748	2.492239	8.173515	1.158135	0.194912	0.208712	0.484365	-1.049324	0.136645	-0.593750	-0.135742	-0.330566	0.053210	0.024760	0.082075	-0.033542	-0.340829	-0.130648	-0.930399	19.930195	-38.715119	168.806191
48277		5.802150	2.216286	8.084101	0.884306	0.543912	0.328812	0.583153	-1.283082	0.144769	-0.593750	-0.139648	-0.334473	0.057485	0.021968	0.081275	-0.032725	-0.347023	-0.132901	-0.927815	20.409701	-39.438421	168.576364
48278		4.869715	2.311759	8.728269	2.163638	0.498673	0.202728	0.674851	-1.534513	0.140426	-0.594971	-0.149414	-0.330078	0.048009	0.022856	0.087730	-0.031931	-0.354387	-0.135536	-0.924673	20.996087	-40.295433	168.265737
48279		5.721675	2.166074	8.390597	1.479446	0.749653	0.438022	0.826081	-1.877411	0.151848	-0.602051	-0.144775	-0.312744	0.056409	0.021355	0.084527	-0.031049	-0.363325	-0.138785	-0.920744	21.740928	-41.333442	167.851112
48280		4.899642	2.619477	9.300171	2.948102	0.464830	0.601131	0.956607	-2.353751	0.180177	-0.619629	-0.149658	-0.296875	0.047873	0.025791	0.093694	-0.030123	-0.374457	-0.142489	-0.915735	22.664856	-42.627038	167.290155
48281		3.742231	3.673588	10.571920	5.008309	-0.353125	0.866539	1.022524	-2.957454	0.265566	-0.629639	-0.154785	-0.271729	0.035803	0.036241	0.106443	-0.029109	-0.388336	-0.146217	-0.909378	23.754091	-44.248864	166.558924
48282		3.266877	4.222075	12.040729	6.806629	-0.525543	1.450043	1.072285	-3.762457	0.470685	-0.642822	-0.147705	-0.250488	0.030295	0.041645	0.121216	-0.027642	-0.405918	-0.149607	-0.901157	25.023423	-46.329299	165.638361
48283		3.274401	5.866675	11.583912	7.068174	-2.148257	1.355108	1.048399	-4.650069	0.742534	-0.649170	-0.156006	-0.216553	0.029818	0.058170	0.116861	-0.025652	-0.427490	-0.152143	-0.890756	26.477108	-48.918291	164.484831
48284		3.562682	7.262184	12.074856	7.987514	-3.273409	1.877611	1.094313	-5.556623	1.263220	-0.676270	-0.138184	-0.176270	0.031791	0.072165	0.122063	-0.021915	-0.453202	-0.153545	-0.877811	28.099653	-52.084826	163.196120
48285		4.254061	7.270214	12.284599	8.489092	-3.114962	2.020117	1.027562	-6.386289	1.936537	-0.683105	-0.128174	-0.129150	0.037880	0.072447	0.124478	-0.015991	-0.482606	-0.152886	-0.862242	29.793710	-55.828165	161.830773
48286		9.331599	7.342377	14.463648	8.628841	-1.829622	6.686358	0.933467	-7.021109	2.450409	-0.697510	-0.102295	-0.067871	0.087253	0.073832	0.148115	-0.008544	-0.514518	-0.150337	-0.844154	31.691408	-60.008199	160.224355
48287		16.517156	6.145690	16.597198	8.410841	0.904055	12.863614	0.942082	-7.069800	2.565941	-0.704834	-0.091064	-0.006592	0.158364	0.062717	0.171945	-0.000613	-0.545987	-0.147310	-0.824741	34.061668	-64.212728	158.155619
48288		17.583518	4.853028	15.222939	8.203917	1.845455	12.402397	1.394130	-6.818152	2.499267	-0.706055	-0.069092	0.042480	0.169888	0.049588	0.158433	0.008464	-0.575605	-0.146123	-0.804522	37.411588	-68.224895	155.370501
48289		19.617217	10.052650	15.534548	10.450796	-2.808766	14.881372	1.812829	-6.414961	2.570288	-0.695801	-0.060059	0.108643	0.189737	0.101542	0.162418	0.019315	-0.602873	-0.146205	-0.784089	41.805860	-72.000593	151.805140
48290		21.536762	11.868186	14.881931	11.411219	-4.520499	16.172396	1.689597	-5.528189	2.791866	-0.703125	-0.029053	0.141602	0.209455	0.120338	0.155676	0.031288	-0.626141	-0.144882	-0.765492	46.400332	-75.392822	148.029341
48291		17.458687	9.053778	13.928006	12.125525	-2.773815	10.824661	1.718655	-4.339112	3.150062	-0.687988	-0.004883	0.178711	0.170058	0.092017	0.143789	0.045557	-0.644544	-0.142230	-0.749839	50.225840	-78.397780	145.114382
48292		9.083572	7.682799	9.975622	10.216153	-3.619693	1.301793	1.662625	-3.338933	3.346053	-0.683105	0.026367	0.200195	0.087854	0.077473	0.101882	0.061057	-0.658886	-0.138409	-0.736875	52.898304	-81.090570	143.367680
48293		19.835374	3.779127	7.368868	6.028562	0.151768	10.816906	1.759080	-3.235300	3.380651	-0.670410	0.054199	0.232666	0.196455	0.040454	0.077225	0.077038	-0.672434	-0.134710	-0.723707	56.985416	-83.744038	140.262821
48294		26.922219	10.697716	14.778614	15.294939	-4.120923	18.589167	1.649182	-1.173487	3.139189	-0.666260	0.088135	0.231445	0.266635	0.109944	0.150254	0.093124	-0.678065	-0.130567	-0.717293	52.774099	-85.604788	145.441188
48295		14.224861	11.078505	11.503431	13.528073	-6.360513	5.482311	1.450412	0.556883	2.464244	-0.662109	0.105957	0.229492	0.141197	0.111693	0.115448	0.107223	-0.676961	-0.127155	-0.716979	36.020943	-86.376802	163.067984
48296		6.720548	13.343921	6.163651	9.794207	-10.497978	-2.391195	0.751183	0.960852	1.935090	-0.662598	0.117920	0.238525	0.066208	0.133851	0.061819	0.117291	-0.674318	-0.122794	-0.718651	16.855111	-86.379580	-177.296843
48297		6.828293	12.599303	5.326295	8.764072	-10.178831	-2.510860	-0.181205	1.134573	1.480737	-0.664795	0.123535	0.226563	0.067648	0.126543	0.052764	0.122683	-0.671259	-0.116495	-0.721657	2.742878	-85.884749	-163.256402
48298		5.418690	9.614935	4.759638	7.252365	-7.656740	-4.047418	-0.817291	1.337792	0.837410	-0.664063	0.131836	0.225830	0.054098	0.096568	0.046840	0.123718	-0.667411	-0.109934	-0.726066	-3.705820	-85.116350	-157.257046
48299		3.286215	6.210535	4.341564	5.809576	-4.611066	-6.178899	-1.071415	1.491691	0.066869	-0.664063	0.129150	0.222656	0.033162	0.062347	0.042835	0.121191	-0.662699	-0.104909	-0.731530	-4.097604	-84.266420	-157.479595
48300		1.585322	3.713270	3.845442	4.629055	-2.399822	-7.837668	-1.022742	1.596143	-0.731902	-0.678711	0.122559	0.218262	0.016295	0.037269	0.038135	0.115937	-0.657077	-0.102648	-0.737747	-0.448445	-83.371622	-161.738638
48301		-0.043372	2.408865	3.245224	3.800291	-1.324850	-9.441458	-0.911112	1.648793	-1.386924	-0.691406	0.112793	0.207764	0.000001	0.024237	0.032343	0.108658	-0.650800	-0.102895	-0.744356	5.097431	-82.399373	-167.852830
48302		-0.624522	1.612376	2.984816	3.381021	-0.662484	-9.980284	-0.858172	1.664159	-1.799474	-0.700195	0.098633	0.208008	-0.005851	0.016306	0.029828	0.099995	-0.644105	-0.104670	-0.751115	10.846893	-81.312588	-174.156429
48303		-0.225180	0.488025	3.064140	3.072957	0.396667	-9.535193	-0.902188	1.754412	-1.915820	-0.704834	0.073975	0.199951	-0.001935	0.005038	0.030637	0.090795	-0.636938	-0.106579	-0.758095	15.475382	-80.087542	-179.369495
48304		-0.262391	-1.935325	2.957621	2.327597	2.668155	-9.654823	-0.900528	1.976754	-1.789788	-0.714111	0.048828	0.187012	-0.002503	-0.019197	0.029688	0.082190	-0.628846	-0.107999	-0.765594	18.454647	-78.705647	177.078682
48305		-1.054779	-4.414292	2.586736	1.526695	4.927204	-10.638067	-0.688189	2.233845	-1.505438	-0.730957	0.036377	0.165527	-0.010588	-0.043974	0.026137	0.075452	-0.619739	-0.109182	-0.773505	19.921161	-77.217841	175.176681
48306		-1.733006	-5.378985	2.067082	1.008791	5.694217	-11.476255	-0.355836	2.440745	-1.149392	-0.723389	0.029785	0.149170	-0.017384	-0.053653	0.020978	0.071132	-0.609771	-0.110409	-0.781619	20.307909	-75.679092	174.559389
48307		-1.843488	-4.571897	1.781832	1.025897	4.832000	-11.566160	-0.111373	2.586932	-0.791171	-0.732666	0.015869	0.135254	-0.018383	-0.045636	0.018082	0.069113	-0.599244	-0.111468	-0.789750	19.942133	-74.136046	174.872627
48308		-1.267679	-3.155761	1.894272	1.356417	3.507714	-10.817656	-0.054899	2.724154	-0.529107	-0.743896	0.005371	0.102539	-0.012501	-0.031519	0.019122	0.068271	-0.588176	-0.111856	-0.798045	19.135979	-72.564569	175.671168
48309		-0.383476	-2.390350	2.156685	1.530145	2.858178	-9.775918	-0.111249	2.903910	-0.448139	-0.739746	-0.000488	0.076172	-0.003574	-0.023883	0.021633	0.067762	-0.576349	-0.111739	-0.806687	18.203875	-70.910762	176.586014
48310		0.124528	-2.327079	2.255374	1.459318	2.831681	-9.205060	-0.137112	3.126351	-0.562880	-0.747559	-0.005371	0.055176	0.001532	-0.023259	0.022547	0.066694	-0.563426	-0.111686	-0.815861	17.474714	-69.107697	177.263352
48311		0.237946	-2.216411	2.068090	1.253848	2.677275	-9.101395	-0.114214	3.324138	-0.794416	-0.739502	-0.022217	0.029053	0.002635	-0.022162	0.020651	0.064969	-0.549416	-0.112345	-0.825409	17.089222	-67.158630	177.608701
48312		0.143622	-1.824105	1.877394	1.189068	2.246563	-9.171214	-0.099542	3.487756	-1.051861	-0.747559	-0.026123	0.000977	0.001667	-0.018240	0.018755	0.062112	-0.534406	-0.113601	-0.835253	17.022554	-65.072263	177.598475
48313		0.312236	-1.771863	1.894183	1.119651	2.203254	-8.966055	-0.119776	3.615007	-1.267617	-0.739014	-0.053467	-0.031250	0.003352	-0.017728	0.018893	0.058529	-0.518567	-0.115356	-0.845196	17.135702	-62.883825	177.396779
48314		1.131954	-1.842865	2.219828	0.966841	2.374100	-8.070976	-0.110352	3.754825	-1.466243	-0.746826	-0.062256	-0.064941	0.011598	-0.018501	0.021992	0.053931	-0.501825	-0.117470	-0.855257	17.389903	-60.580719	177.006911
48315		2.021106	-1.677757	2.501678	0.718072	2.317882	-7.116593	-0.109340	3.946425	-1.694860	-0.742920	-0.086914	-0.105957	0.020556	-0.016937	0.024623	0.048704	-0.483907	-0.120174	-0.865459	17.742995	-58.136676	176.524386
48316		2.912052	-1.375165	2.755399	0.388478	2.136237	-6.173067	-0.112589	4.172463	-1.871604	-0.738037	-0.109863	-0.145264	0.029557	-0.014012	0.026948	0.042467	-0.464685	-0.123045	-0.875856	18.126271	-55.532294	175.950659
48317		3.884532	-0.916084	3.026233	-0.042919	1.828928	-5.150498	-0.136530	4.455832	-2.045497	-0.727539	-0.129883	-0.190186	0.039410	-0.009542	0.029395	0.035910	-0.443844	-0.126226	-0.886442	18.482345	-52.745084	175.415534
48318		4.811169	-0.510220	2.691990	-1.032126	1.436214	-4.566725	-0.196086	4.781129	-2.210439	-0.727051	-0.154541	-0.226807	0.048677	-0.005613	0.025766	0.028665	-0.421151	-0.129373	-0.897258	18.778784	-49.745368	174.892060
