// General information: 
//  MT Manager version: 2021.4.0 
//  XDA version: 2021.4.0 build 6323 rev 112641 built on 2021-09-28
// Device information: 
//  DeviceId: 00B47791
//  ProductCode: MTW2-3A7G6
//  Firmware Version: 4.6.0
//  Hardware Version: 2.0.0
// Device settings: 
//  Filter Profile: human(46.1)
//  Option Flags: Orientation Smoother Disabled, Position/Velocity Smoother Disabled, Continuous Zero Rotation Update Disabled, AHS Disabled, ICC Disabled
// Coordinate system: ENU
PacketCounter	SampleTimeFine	Acc_X	Acc_Y	Acc_Z	FreeAcc_E	FreeAcc_N	FreeAcc_U	Gyr_X	Gyr_Y	Gyr_Z	Mag_X	Mag_Y	Mag_Z	VelInc_X	VelInc_Y	VelInc_Z	Quat_q0	Quat_q1	Quat_q2	Quat_q3	Roll	Pitch	Yaw
47777		9.725853	0.933481	1.323697	-0.018894	0.000345	0.047100	0.004556	-0.016770	-0.003377	-0.916016	-0.276123	-0.533691	0.097258	0.009333	0.013245	0.746670	0.143049	-0.642927	0.093085	35.360135	-80.659417	-16.071904
47778		9.698811	0.886765	1.325704	-0.011428	-0.042980	0.016291	-0.002771	-0.005963	-0.007653	-0.916748	-0.276123	-0.543701	0.096988	0.008864	0.013260	0.746644	0.143014	-0.642968	0.093068	35.364196	-80.664917	-16.080296
47779		9.598829	0.895105	1.335360	-0.039107	-0.033593	-0.080306	0.001899	0.005766	-0.008592	-0.913086	-0.284668	-0.539063	0.095989	0.008947	0.013351	0.746654	0.142991	-0.642962	0.093067	35.350055	-80.664578	-16.068144
47780		9.598765	0.896265	1.335043	-0.039748	-0.032597	-0.080305	0.001453	-0.012049	-0.015111	-0.916748	-0.283936	-0.542480	0.095988	0.008955	0.013356	0.746609	0.142998	-0.643018	0.093031	35.389884	-80.670436	-16.110469
47781		9.625373	0.916588	1.283136	0.004193	0.002087	-0.059003	-0.005720	-0.027455	-0.005832	-0.913086	-0.283203	-0.541992	0.096252	0.009163	0.012844	0.746516	0.142953	-0.643142	0.092992	35.430696	-80.686529	-16.158429
47782		9.707741	0.855748	1.252642	0.062418	-0.049267	0.012552	-0.003897	-0.023282	-0.010822	-0.914307	-0.287354	-0.544922	0.097076	0.008552	0.012538	0.746437	0.142932	-0.643245	0.092947	35.478341	-80.699016	-16.211605
47783		9.714948	0.861935	1.196749	0.111592	-0.025951	0.012903	0.005286	-0.017572	-0.013808	-0.911377	-0.289307	-0.543213	0.097149	0.008612	0.011976	0.746371	0.142949	-0.643321	0.092921	35.528385	-80.707833	-16.262526
47784		9.715759	0.891041	1.241951	0.058261	-0.014309	0.022392	0.000940	-0.016893	-0.009720	-0.915771	-0.280762	-0.537842	0.097157	0.008906	0.012428	0.746308	0.142942	-0.643398	0.092902	35.563070	-80.717640	-16.299521
47785		9.728192	0.901328	1.298154	0.002557	-0.024255	0.043007	-0.002023	-0.015296	-0.008837	-0.912354	-0.282959	-0.540039	0.097281	0.009009	0.012989	0.746253	0.142915	-0.643472	0.092872	35.590275	-80.727042	-16.331541
47786		9.726011	0.913977	1.264342	0.028002	-0.001294	0.037613	0.002350	-0.014067	-0.009438	-0.915283	-0.281738	-0.544678	0.097260	0.009135	0.012650	0.746198	0.142909	-0.643539	0.092860	35.619137	-80.735700	-16.362078
47787		9.745399	0.929351	1.267193	0.022115	0.011086	0.058567	-0.002095	-0.006455	-0.010993	-0.907471	-0.285645	-0.541992	0.097454	0.009288	0.012675	0.746172	0.142884	-0.643579	0.092828	35.634469	-80.740261	-16.382108
47788		9.705953	0.873687	1.212056	0.084666	-0.021349	0.007206	-0.010402	-0.005660	-0.011576	-0.910889	-0.281006	-0.539307	0.097060	0.008732	0.012123	0.746155	0.142834	-0.643619	0.092772	35.644941	-80.744220	-16.401408
47789		9.698860	0.869920	1.265689	0.034202	-0.042668	0.006865	-0.005254	-0.001423	-0.015638	-0.906006	-0.291504	-0.553223	0.096989	0.008692	0.012657	0.746150	0.142810	-0.643638	0.092716	35.661447	-80.744885	-16.424462
47790		9.708846	0.892637	1.290325	0.004603	-0.030645	0.022071	-0.000931	-0.014439	-0.017453	-0.917480	-0.294434	-0.541504	0.097088	0.008918	0.012910	0.746100	0.142818	-0.643701	0.092663	35.712227	-80.750909	-16.479011
47791		9.760798	0.864677	1.292970	0.017688	-0.061077	0.071065	-0.007293	-0.014501	-0.013899	-0.911377	-0.279541	-0.539063	0.097608	0.008640	0.012936	0.746053	0.142787	-0.643771	0.092598	35.749508	-80.758234	-16.524296
47792		9.715884	0.900312	1.234265	0.053144	-0.006349	0.022429	-0.008655	-0.003081	-0.012965	-0.911621	-0.280762	-0.541748	0.097159	0.008997	0.012344	0.746043	0.142748	-0.643799	0.092546	35.760014	-80.760553	-16.542337
47793		9.722036	0.838299	1.284264	0.026894	-0.081872	0.029195	-0.002971	-0.002524	-0.013172	-0.916016	-0.289307	-0.539795	0.097221	0.008377	0.012844	0.746032	0.142726	-0.643824	0.092507	35.773098	-80.762549	-16.560597
47794		9.718010	0.890992	1.266373	0.025759	-0.026303	0.027837	-0.002875	0.000976	-0.013286	-0.920898	-0.284668	-0.543213	0.097181	0.008904	0.012663	0.746031	0.142707	-0.643834	0.092474	35.779365	-80.762874	-16.571116
47795		9.729492	0.873620	1.277574	0.022736	-0.046892	0.038998	0.000913	0.006198	-0.010658	-0.919189	-0.289551	-0.545410	0.097296	0.008731	0.012773	0.746043	0.142686	-0.643825	0.092463	35.769530	-80.761657	-16.563901
47796		9.660392	0.877926	1.302570	-0.012464	-0.047833	-0.025544	-0.003822	0.003309	-0.011868	-0.912842	-0.288818	-0.537354	0.096605	0.008774	0.013024	0.746050	0.142658	-0.643828	0.092434	35.766405	-80.761368	-16.565423
47797		9.688930	0.886633	1.285023	0.005366	-0.035077	0.001155	0.000723	-0.000801	-0.010429	-0.916504	-0.277100	-0.544678	0.096890	0.008861	0.012851	0.746040	0.142640	-0.643846	0.092418	35.770216	-80.763481	-16.572144
47798		9.718198	0.923239	1.314117	-0.029506	-0.011618	0.037269	-0.003309	-0.002278	-0.011498	-0.924561	-0.287354	-0.533936	0.097182	0.009227	0.013142	0.746028	0.142614	-0.643870	0.092388	35.777708	-80.765931	-16.584282
47799		9.688705	0.888924	1.285136	0.004084	-0.033084	0.001163	-0.001034	0.007056	-0.014791	-0.924561	-0.291260	-0.543701	0.096888	0.008882	0.012848	0.746047	0.142599	-0.643856	0.092355	35.776801	-80.762931	-16.587242
47800		9.667560	0.915511	1.296257	-0.017900	-0.010872	-0.015763	-0.000859	0.001716	-0.012749	-0.914551	-0.282715	-0.543213	0.096676	0.009149	0.012962	0.746046	0.142587	-0.643863	0.092334	35.781493	-80.763152	-16.594675
47801		9.638763	0.909172	1.314109	-0.037002	-0.021649	-0.042458	-0.003847	0.001405	-0.015350	-0.910156	-0.277588	-0.538086	0.096388	0.009085	0.013140	0.746048	0.142567	-0.643871	0.092286	35.792212	-80.762590	-16.611047
47802		9.659595	0.885348	1.303461	-0.016309	-0.041870	-0.025522	-0.005254	-0.001421	-0.015630	-0.908936	-0.281006	-0.547607	0.096597	0.008846	0.013035	0.746043	0.142545	-0.643890	0.092234	35.808476	-80.763255	-16.633365
47803		9.688156	0.894221	1.285600	0.001513	-0.029102	0.001176	-0.007678	-0.003510	-0.010894	-0.908203	-0.281250	-0.542725	0.096882	0.008937	0.012857	0.746030	0.142498	-0.643921	0.092186	35.814401	-80.766470	-16.647104
47804		9.692758	0.911952	1.199151	0.076837	0.016113	-0.003864	-0.013970	-0.001983	-0.010939	-0.919189	-0.280273	-0.543457	0.096928	0.009115	0.011992	0.746027	0.142430	-0.643949	0.092123	35.813342	-80.768898	-16.656975
47805		9.673312	0.898577	1.195530	0.081461	0.005680	-0.024785	-0.009777	0.004593	-0.013581	-0.914063	-0.291260	-0.539795	0.096734	0.008980	0.011953	0.746044	0.142379	-0.643950	0.092065	35.809038	-80.767447	-16.661569
47806		9.685443	0.909168	1.253903	0.025725	-0.004184	-0.004222	-0.012402	0.005940	-0.014369	-0.920166	-0.293701	-0.543457	0.096855	0.009085	0.012536	0.746066	0.142326	-0.643945	0.092002	35.802764	-80.765105	-16.664848
47807		9.648990	0.869731	1.278888	0.009494	-0.047974	-0.040656	-0.009260	-0.000993	-0.013212	-0.907959	-0.288330	-0.542480	0.096490	0.008692	0.012789	0.746064	0.142280	-0.643966	0.091943	35.809219	-80.766373	-16.680041
47808		9.651213	0.859170	1.311255	-0.017255	-0.068916	-0.035243	-0.006905	-0.000498	-0.014349	-0.908203	-0.277832	-0.540283	0.096513	0.008585	0.013112	0.746061	0.142252	-0.643982	0.091894	35.819569	-80.766975	-16.696657
47809		9.627790	0.897311	1.289528	-0.013088	-0.024787	-0.057606	-0.006974	-0.002095	-0.010751	-0.914795	-0.288818	-0.544922	0.096278	0.008968	0.012896	0.746053	0.142207	-0.644008	0.091851	35.822579	-80.769580	-16.707033
47810		9.646469	0.884494	1.245874	0.033718	-0.023089	-0.046049	-0.011937	-0.011683	-0.004653	-0.907715	-0.288086	-0.541748	0.096464	0.008843	0.012464	0.746014	0.142131	-0.644075	0.091812	35.824981	-80.778657	-16.719000
47811		9.657668	0.838356	1.208143	0.083379	-0.054398	-0.044213	-0.006260	-0.023463	-0.002597	-0.916260	-0.288330	-0.543701	0.096575	0.008383	0.012092	0.745932	0.142072	-0.644187	0.091786	35.849265	-80.793922	-16.750514
47812		9.734470	0.868642	1.174507	0.114382	-0.018387	0.030101	-0.003837	-0.021369	-0.007330	-0.917480	-0.280518	-0.543213	0.097344	0.008683	0.011755	0.745857	0.142041	-0.644284	0.091758	35.884426	-80.806570	-16.790636
47813		9.729882	0.852839	1.259831	0.037774	-0.061576	0.035149	0.005159	0.002042	-0.014625	-0.909668	-0.281494	-0.545654	0.097300	0.008521	0.012598	0.745855	0.142052	-0.644287	0.091742	35.896977	-80.805952	-16.803634
47814		9.680064	0.871766	1.288719	-0.002615	-0.051158	-0.008515	0.002988	0.008546	-0.013713	-0.906250	-0.287354	-0.543457	0.096802	0.008711	0.012883	0.745875	0.142050	-0.644265	0.091731	35.891849	-80.802597	-16.799504
47815		9.658206	0.870770	1.252859	0.028145	-0.039699	-0.034832	0.008802	-0.000036	-0.018851	-0.908447	-0.286133	-0.537598	0.096583	0.008698	0.012529	0.745865	0.142089	-0.644271	0.091710	35.922904	-80.801522	-16.829132
47816		9.633011	0.949380	1.245312	0.005769	0.037063	-0.053301	0.004590	-0.008516	-0.019691	-0.911865	-0.287842	-0.537354	0.096331	0.009484	0.012457	0.745831	0.142124	-0.644308	0.091672	35.971705	-80.804042	-16.878206
47817		9.693612	0.887229	1.180080	0.095169	-0.003659	-0.007750	-0.006049	-0.006328	-0.015647	-0.908203	-0.286377	-0.542725	0.096936	0.008865	0.011804	0.745811	0.142099	-0.644346	0.091610	35.998160	-80.806957	-16.911794
47818		9.673591	0.846410	1.128770	0.152513	-0.024882	-0.037974	-0.001680	-0.005091	-0.016250	-0.912842	-0.289063	-0.537354	0.096736	0.008456	0.011290	0.745791	0.142098	-0.644375	0.091568	36.026461	-80.809060	-16.943719
47819		9.695210	0.850758	1.164151	0.120471	-0.034345	-0.011645	0.013171	-0.011136	-0.017188	-0.905273	-0.276123	-0.536621	0.096952	0.008498	0.011647	0.745742	0.142153	-0.644421	0.091559	36.078404	-80.813676	-16.991971
47820		9.661850	0.868422	1.115637	0.153659	-0.001354	-0.049157	0.008350	-0.017530	-0.018279	-0.907471	-0.282471	-0.547119	0.096618	0.008675	0.011165	0.745675	0.142200	-0.644492	0.091531	36.144128	-80.820892	-17.056208
47821		9.735597	0.843612	1.154046	0.135211	-0.042106	0.026281	0.013354	-0.016475	-0.015146	-0.911133	-0.282227	-0.540527	0.097356	0.008428	0.011549	0.745608	0.142251	-0.644559	0.091526	36.201641	-80.828652	-17.109993
47822		9.803463	0.909727	1.189599	0.089760	0.004401	0.104095	0.015209	-0.008490	-0.013169	-0.913086	-0.284668	-0.543457	0.098035	0.009090	0.011901	0.745564	0.142302	-0.644596	0.091544	36.237608	-80.833335	-17.140334
47823		9.856709	0.937485	1.287230	-0.002704	-0.004345	0.171827	0.011584	0.007829	-0.007730	-0.913574	-0.275391	-0.543945	0.098568	0.009370	0.012869	0.745573	0.142311	-0.644579	0.091579	36.221962	-80.832364	-17.121041
47824		9.805521	0.899980	1.223176	0.062340	-0.015482	0.109522	0.011601	0.022072	-0.006517	-0.914795	-0.291504	-0.542480	0.098057	0.008996	0.012221	0.745627	0.142312	-0.644508	0.091632	36.172615	-80.825209	-17.067223
47825		9.786563	0.914275	1.268064	0.014270	-0.015175	0.097927	0.011150	0.016915	-0.008211	-0.908447	-0.288330	-0.539795	0.097867	0.009138	0.012673	0.745666	0.142317	-0.644457	0.091670	36.139118	-80.819868	-17.030098
47826		9.753158	0.890435	1.373287	-0.080795	-0.070140	0.076268	0.004612	0.009837	-0.004429	-0.907227	-0.280518	-0.540527	0.097532	0.008902	0.013728	0.745684	0.142296	-0.644436	0.091703	36.106169	-80.819036	-16.996187
47827		9.723706	0.855082	1.345429	-0.047166	-0.091738	0.040290	-0.004198	0.018101	-0.001896	-0.912109	-0.293701	-0.545166	0.097238	0.008550	0.013445	0.745734	0.142223	-0.644392	0.091716	36.043380	-80.815269	-16.938297
47828		9.683023	0.865921	1.354767	-0.063797	-0.081022	0.002378	0.001500	0.032913	-0.000890	-0.908936	-0.292725	-0.547119	0.096832	0.008659	0.013532	0.745828	0.142166	-0.644290	0.091767	35.950281	-80.804908	-16.845488
47829		9.715463	0.822436	1.357052	-0.045594	-0.122763	0.030638	-0.004035	0.010857	-0.003336	-0.900879	-0.282471	-0.542725	0.097156	0.008223	0.013565	0.745855	0.142102	-0.644271	0.091770	35.906896	-80.803993	-16.807158
47830		9.792967	0.785357	1.265302	0.064615	-0.130093	0.091800	0.000401	0.013695	-0.007533	-0.907471	-0.284424	-0.541260	0.097931	0.007850	0.012646	0.745891	0.142071	-0.644236	0.091779	35.872234	-80.800247	-16.774176
47831		9.766717	0.835285	1.214259	0.094985	-0.064121	0.063939	0.016025	0.049601	-0.015232	-0.906982	-0.283936	-0.537354	0.097671	0.008344	0.012119	0.746034	0.142102	-0.644055	0.091830	35.794354	-80.777335	-16.689254
47832		9.636580	0.931664	1.355445	-0.082739	-0.012762	-0.037111	0.031432	0.066476	-0.013347	-0.915039	-0.283936	-0.547363	0.096371	0.009308	0.013524	0.746220	0.142182	-0.643805	0.091955	35.685688	-80.747182	-16.563341
47833		9.623318	1.047072	1.457449	-0.212904	0.064051	-0.025995	0.017891	0.032910	-0.008708	-0.903564	-0.285645	-0.542969	0.096236	0.010465	0.014560	0.746305	0.142206	-0.643690	0.092024	35.625319	-80.734178	-16.495067
47834		9.654686	0.948396	1.366000	-0.089291	0.000722	-0.016239	-0.003965	0.012455	-0.006933	-0.908691	-0.283203	-0.555664	0.096548	0.009481	0.013654	0.746339	0.142157	-0.643662	0.092020	35.589187	-80.731247	-16.463308
47835		9.684286	0.889776	1.288861	0.007754	-0.029928	-0.002626	0.010500	0.027548	-0.017669	-0.912842	-0.289795	-0.546631	0.096845	0.008889	0.012876	0.746417	0.142185	-0.643565	0.092028	35.561330	-80.717739	-16.432265
47836		9.608909	0.822329	1.308955	0.002137	-0.096799	-0.080712	0.016587	0.041819	-0.025394	-0.907471	-0.282471	-0.541504	0.096093	0.008210	0.013070	0.746540	0.142258	-0.643404	0.092041	35.529823	-80.694915	-16.393298
47837		9.607087	0.728842	1.369711	-0.021410	-0.205289	-0.083307	0.022366	0.033550	-0.023436	-0.909180	-0.286377	-0.538818	0.096074	0.007276	0.013682	0.746631	0.142347	-0.643275	0.092070	35.513186	-80.676684	-16.366732
47838		9.643509	0.636493	1.390276	-0.002842	-0.301586	-0.053370	0.038365	0.019850	-0.023712	-0.909424	-0.292969	-0.548584	0.096437	0.006351	0.013894	0.746666	0.142507	-0.643188	0.092146	35.534333	-80.664777	-16.368305
47839		9.713769	0.760940	1.355862	0.001102	-0.178139	0.023113	0.073494	-0.004034	-0.028838	-0.899658	-0.283936	-0.544922	0.097139	0.007590	0.013563	0.746602	0.142820	-0.643172	0.092292	35.638458	-80.662262	-16.434432
47840		9.801471	0.939504	1.338634	-0.026785	-0.010481	0.124244	0.071883	0.002609	-0.017112	-0.904541	-0.284912	-0.547363	0.098016	0.009382	0.013388	0.746555	0.143093	-0.643138	0.092488	35.694910	-80.660483	-16.452276
47841		9.815868	0.979427	1.278184	0.019590	0.045782	0.134263	0.055567	0.020370	-0.008214	-0.907227	-0.283691	-0.544922	0.098160	0.009787	0.012775	0.746573	0.143262	-0.643053	0.092671	35.680777	-80.653486	-16.408967
47842		9.759158	1.061492	1.258081	0.005056	0.132563	0.083428	0.055639	0.036221	-0.010598	-0.902344	-0.284424	-0.548340	0.097594	0.010606	0.012566	0.746643	0.143435	-0.642906	0.092861	35.641059	-80.638277	-16.339105
47843		9.644935	1.127737	1.274594	-0.046290	0.195615	-0.020816	0.034236	0.049412	-0.004746	-0.903809	-0.282959	-0.556885	0.096453	0.011273	0.012724	0.746767	0.143500	-0.642725	0.093010	35.546431	-80.618894	-16.226595
47844		9.536440	1.074132	1.248496	-0.017962	0.160567	-0.136424	-0.005282	0.041623	-0.004957	-0.905029	-0.281982	-0.547363	0.095367	0.010739	0.012465	0.746896	0.143424	-0.642590	0.093028	35.445328	-80.602945	-16.130116
47845		9.451467	0.983296	1.243828	0.005443	0.082436	-0.229505	-0.018475	0.034381	-0.003071	-0.905762	-0.288574	-0.546875	0.094517	0.009833	0.012421	0.747009	0.143293	-0.642491	0.093002	35.346682	-80.591075	-16.044136
47846		9.360183	0.955311	1.188193	0.054644	0.080718	-0.329653	-0.026525	0.031395	-0.005229	-0.901123	-0.291016	-0.552246	0.093604	0.009552	0.011866	0.747120	0.143145	-0.642404	0.092945	35.255525	-80.579837	-15.969764
47847		9.298023	0.963242	1.160864	0.069549	0.101675	-0.393903	-0.042611	0.013075	-0.007276	-0.899414	-0.285156	-0.543457	0.092981	0.009632	0.011601	0.747184	0.142948	-0.642393	0.092811	35.197728	-80.576507	-15.939206
47848		9.443992	1.019113	1.151930	0.082091	0.150936	-0.245817	-0.044893	-0.030507	-0.016839	-0.910156	-0.288086	-0.541016	0.094439	0.010186	0.011531	0.747114	0.142799	-0.642537	0.092609	35.252458	-80.590347	-16.023159
47849		9.655132	1.124400	1.097565	0.128576	0.257011	-0.034758	-0.059425	-0.057054	-0.026992	-0.904297	-0.283447	-0.554199	0.096550	0.011234	0.011000	0.746974	0.142635	-0.642781	0.092297	35.380949	-80.613282	-16.191188
47850		9.713367	1.210034	0.954746	0.240421	0.380363	0.011912	-0.089097	-0.031066	-0.031057	-0.910400	-0.292725	-0.543945	0.097134	0.012090	0.009557	0.746939	0.142365	-0.642937	0.091898	35.452188	-80.622670	-16.317667
47851		9.581853	1.195152	0.901915	0.273716	0.388241	-0.126197	-0.115387	-0.005303	-0.041226	-0.907959	-0.281250	-0.544189	0.095821	0.011937	0.009015	0.747012	0.142014	-0.643004	0.091390	35.485360	-80.616650	-16.421576
47852		9.407161	1.162850	0.975319	0.188874	0.339823	-0.291816	-0.135942	-0.017899	-0.048267	-0.908203	-0.281006	-0.552002	0.094074	0.011612	0.009754	0.747060	0.141620	-0.643120	0.090787	35.552126	-80.614167	-16.570520
47853		9.375356	1.101881	1.063012	0.120364	0.252149	-0.317248	-0.164609	-0.051214	-0.058561	-0.903809	-0.280273	-0.548340	0.093754	0.011000	0.010645	0.747026	0.141161	-0.643367	0.090024	35.698599	-80.623698	-16.817849
47854		9.459536	0.950123	0.922003	0.310106	0.146705	-0.267115	-0.185480	-0.077779	-0.065113	-0.913818	-0.275391	-0.541260	0.094595	0.009479	0.009248	0.746924	0.140660	-0.643716	0.089153	35.905901	-80.643231	-17.138489
47855		9.560567	0.826451	0.750856	0.520698	0.074643	-0.201519	-0.187646	-0.077180	-0.081583	-0.905273	-0.281738	-0.552734	0.095606	0.008233	0.007538	0.746832	0.140201	-0.644053	0.088210	36.158340	-80.656747	-17.506566
47856		9.497391	0.758112	0.574921	0.693776	0.062947	-0.293212	-0.166616	-0.061533	-0.083249	-0.902100	-0.282959	-0.545654	0.094975	0.007546	0.005772	0.746775	0.139821	-0.644320	0.087344	36.395855	-80.662250	-17.846827
47857		9.423274	0.791403	0.530257	0.711217	0.105324	-0.368712	-0.153936	-0.060989	-0.083192	-0.899170	-0.277100	-0.552734	0.094234	0.007879	0.005325	0.746711	0.139486	-0.644579	0.086516	36.639804	-80.667254	-18.186711
47858		9.488659	0.860371	0.727126	0.510739	0.097114	-0.271550	-0.149471	-0.098371	-0.073516	-0.908691	-0.287598	-0.547363	0.094886	0.008574	0.007312	0.746518	0.139155	-0.644981	0.085715	36.938041	-80.692433	-18.578437
47859		9.755058	0.943325	0.947804	0.310554	0.084438	0.028337	-0.151286	-0.134247	-0.063870	-0.906250	-0.286133	-0.544434	0.097547	0.009409	0.009536	0.746206	0.138798	-0.645524	0.084916	37.286554	-80.737017	-19.022686
47860		9.999525	0.967173	1.036779	0.247242	0.060368	0.283652	-0.181636	-0.112368	-0.040942	-0.904297	-0.282227	-0.539307	0.099991	0.009661	0.010415	0.745974	0.138252	-0.646013	0.084126	37.510655	-80.779254	-19.357367
47861		9.904481	0.797819	1.064949	0.250163	-0.105846	0.177087	-0.219699	-0.075734	-0.013467	-0.908447	-0.284424	-0.543945	0.099041	0.007983	0.010678	0.745875	0.137452	-0.646400	0.083335	37.558558	-80.814318	-19.536692
47862		9.679077	0.662526	1.137293	0.181676	-0.243600	-0.049258	-0.229016	-0.086099	0.007464	-0.911377	-0.282715	-0.543457	0.096786	0.006642	0.011407	0.745738	0.136560	-0.646843	0.082590	37.565986	-80.861410	-19.679372
47863		9.519237	0.503503	1.267062	0.071430	-0.423108	-0.205883	-0.255798	-0.148822	0.044724	-0.906494	-0.271484	-0.547607	0.095182	0.005073	0.012735	0.745400	0.135468	-0.647555	0.081849	37.589996	-80.949973	-19.855392
47864		9.500960	0.324260	1.372339	0.003569	-0.619883	-0.227678	-0.261672	-0.217163	0.079018	-0.913574	-0.274902	-0.537354	0.094993	0.003298	0.013822	0.744829	0.134274	-0.648546	0.081174	37.666156	-81.081534	-20.086846
47865		9.566082	0.179469	1.386858	0.017026	-0.759118	-0.174799	-0.243711	-0.246796	0.106248	-0.916748	-0.262939	-0.539551	0.095643	0.001862	0.013984	0.744136	0.133066	-0.649656	0.080634	37.744840	-81.236006	-20.311066
47866		9.603382	0.246146	1.355954	0.005417	-0.680425	-0.134822	-0.203145	-0.233626	0.125861	-0.912842	-0.267822	-0.535889	0.096016	0.002536	0.013669	0.743448	0.131943	-0.650711	0.080312	37.763225	-81.391468	-20.450078
47867		9.501734	0.255506	1.448456	-0.124269	-0.683084	-0.222893	-0.210464	-0.202109	0.162249	-0.915283	-0.269043	-0.538818	0.095001	0.002647	0.014578	0.742852	0.130658	-0.651675	0.080118	37.595048	-81.545304	-20.405227
47868		9.503355	0.144677	1.616805	-0.276709	-0.824646	-0.211017	-0.224074	-0.215355	0.187651	-0.916504	-0.256348	-0.528564	0.095015	0.001554	0.016269	0.742208	0.129250	-0.652707	0.079970	37.367568	-81.714028	-20.307484
47869		9.614769	-0.046208	1.684152	-0.299791	-1.017088	-0.109190	-0.200936	-0.266073	0.193690	-0.922119	-0.260986	-0.537598	0.096126	-0.000352	0.016970	0.741379	0.127922	-0.653920	0.079881	37.250860	-81.907887	-20.309156
47870		9.768261	0.041573	1.743659	-0.392881	-0.945621	0.057083	-0.101884	-0.272720	0.166881	-0.924805	-0.254639	-0.526855	0.097658	0.000506	0.017570	0.740472	0.127055	-0.655099	0.080017	37.293198	-82.095558	-20.413481
47871		9.950375	0.173288	1.666003	-0.365331	-0.796396	0.239564	-0.069613	-0.284808	0.147528	-0.923340	-0.258301	-0.537109	0.099479	0.001812	0.016801	0.739512	0.126372	-0.656296	0.080175	37.454118	-82.281892	-20.619432
47872		10.301398	0.165765	1.718419	-0.402438	-0.827621	0.591746	-0.081560	-0.294510	0.139716	-0.930420	-0.254395	-0.532227	0.102987	0.001737	0.017335	0.738528	0.125678	-0.657525	0.080263	37.669269	-82.469848	-20.886184
47873		10.540258	0.015390	1.629137	-0.278544	-0.949775	0.806712	-0.050565	-0.263636	0.116910	-0.930176	-0.257080	-0.523193	0.105381	0.000220	0.016430	0.737633	0.125157	-0.658613	0.080383	37.910743	-82.635638	-21.162193
47874		10.553431	-0.040455	1.568256	-0.229014	-0.981074	0.809035	0.044767	-0.167987	0.087119	-0.925049	-0.245361	-0.513184	0.105521	-0.000362	0.015771	0.737004	0.125051	-0.659289	0.080772	38.058082	-82.747633	-21.287244
47875		10.371687	-0.020466	1.286699	-0.004041	-0.865383	0.602637	0.075753	-0.079302	0.108290	-0.931641	-0.244141	-0.515137	0.103712	-0.000153	0.012908	0.736640	0.124949	-0.659640	0.081392	37.902466	-82.827015	-21.089898
47876		9.795776	0.185922	1.242603	-0.095825	-0.621333	0.043306	0.197221	-0.011138	0.099804	-0.922363	-0.251953	-0.521973	0.097956	0.001896	0.012433	0.736426	0.125298	-0.659684	0.082428	37.651693	-82.872645	-20.725959
47877		9.421915	0.366014	1.208369	-0.160911	-0.414283	-0.316947	0.235947	0.030984	0.119043	-0.930420	-0.249756	-0.514160	0.094219	0.003702	0.012073	0.736319	0.125705	-0.659568	0.083683	37.231906	-82.905365	-20.169942
47878		9.296028	0.657331	1.210129	-0.265853	-0.122380	-0.419766	0.264576	-0.031442	0.133920	-0.930176	-0.252197	-0.523193	0.092954	0.006620	0.012125	0.735979	0.126199	-0.659677	0.085055	36.941688	-82.971381	-19.727135
47879		9.497805	0.924832	1.011827	-0.144429	0.191927	-0.219477	0.265790	-0.107549	0.151315	-0.935791	-0.250244	-0.512939	0.094966	0.009307	0.010182	0.735380	0.126668	-0.660076	0.086441	36.793834	-83.078004	-19.428017
47880		9.808375	1.175479	0.773563	0.027054	0.499109	0.083499	0.272113	-0.087629	0.154248	-0.933594	-0.254883	-0.516113	0.098071	0.011820	0.007795	0.734838	0.127145	-0.660398	0.087877	36.573940	-83.176422	-19.051900
47881		10.046048	1.420005	0.618232	0.114422	0.781795	0.321284	0.254772	-0.031453	0.172751	-0.931152	-0.247559	-0.524658	0.100447	0.014279	0.006216	0.734483	0.127469	-0.660532	0.089352	36.102737	-83.254864	-18.433628
47882		10.095919	1.463866	0.614616	0.100349	0.839123	0.372302	0.200946	0.016122	0.198107	-0.932129	-0.257324	-0.512207	0.100945	0.014732	0.006153	0.734306	0.127493	-0.660529	0.090779	35.350766	-83.318844	-17.563049
47883		10.075827	1.266871	0.603097	0.161197	0.675393	0.336638	0.136483	0.019059	0.206484	-0.931885	-0.253662	-0.512207	0.100746	0.012769	0.006030	0.734176	0.127248	-0.660550	0.092020	34.504732	-83.382802	-16.635815
47884		10.059802	1.115738	0.552276	0.245413	0.566534	0.305034	0.115997	-0.017054	0.183352	-0.933105	-0.249756	-0.517578	0.100587	0.011246	0.005538	0.733947	0.127028	-0.660696	0.093093	33.826303	-83.455006	-15.887930
47885		10.023524	1.169212	0.487095	0.278567	0.653766	0.265523	0.152558	-0.008157	0.142750	-0.933594	-0.241211	-0.517334	0.100227	0.011760	0.004884	0.733744	0.127065	-0.660767	0.094135	33.299494	-83.509192	-15.272971
47886		9.978495	1.360556	0.623396	0.079703	0.805969	0.244855	0.156577	0.002417	0.107874	-0.931641	-0.250244	-0.510498	0.099778	0.013654	0.006243	0.733589	0.127229	-0.660773	0.095074	32.884347	-83.546803	-14.767485
47887		10.304549	1.401368	0.809539	-0.081501	0.785231	0.588259	0.100611	-0.062685	0.085753	-0.928711	-0.244141	-0.504639	0.103037	0.014054	0.008135	0.733264	0.127289	-0.661032	0.095701	32.706425	-83.608624	-14.533684
47888		10.536336	1.331529	0.772144	-0.010864	0.728808	0.810507	0.047676	-0.087219	0.053682	-0.934082	-0.250732	-0.514893	0.105356	0.013342	0.007771	0.732906	0.127278	-0.661384	0.096026	32.702125	-83.672354	-14.504097
47889		10.569822	1.214061	0.515683	0.265079	0.698620	0.812880	0.068164	0.004191	-0.000383	-0.939941	-0.250000	-0.513672	0.105698	0.012139	0.005159	0.732864	0.127472	-0.661357	0.096273	32.689012	-83.675224	-14.454863
47890		10.204510	1.218442	0.354398	0.382766	0.763576	0.434881	0.117293	0.128476	-0.048586	-0.935791	-0.245605	-0.506104	0.102050	0.012158	0.003486	0.733224	0.127951	-0.660819	0.096590	32.568777	-83.603185	-14.268479
47891		9.782718	1.300189	0.400626	0.281976	0.837127	0.024601	0.126042	0.163682	-0.070984	-0.927979	-0.248291	-0.512207	0.097835	0.012965	0.003934	0.733705	0.128513	-0.660134	0.096871	32.456817	-83.507236	-14.086386
47892		9.622013	1.354313	0.444895	0.218081	0.876144	-0.127646	0.097474	0.095287	-0.075114	-0.937012	-0.253174	-0.506592	0.096227	0.013505	0.004410	0.733980	0.129021	-0.659710	0.097004	32.532729	-83.443121	-14.108964
47893		9.673980	1.388602	0.381309	0.280415	0.922808	-0.079790	0.083057	0.047845	-0.076592	-0.928955	-0.258545	-0.510498	0.096746	0.013847	0.003796	0.734108	0.129500	-0.659467	0.097047	32.731936	-83.401375	-14.264843
47894		9.735014	1.375910	0.279813	0.392890	0.937019	-0.029562	0.068534	0.066947	-0.063472	-0.921631	-0.251465	-0.507324	0.097355	0.013727	0.002770	0.734301	0.129881	-0.659168	0.097111	32.816692	-83.354506	-14.312557
47895		9.635115	1.350435	0.285089	0.392514	0.912580	-0.130047	0.045182	0.096818	-0.035406	-0.933350	-0.249023	-0.513916	0.096355	0.013487	0.002807	0.734595	0.130061	-0.658789	0.097213	32.691796	-83.301892	-14.164002
47896		9.468343	1.247236	0.289096	0.410956	0.820113	-0.302313	0.018916	0.101586	-0.006934	-0.931152	-0.254639	-0.515625	0.094685	0.012469	0.002844	0.734907	0.130053	-0.658424	0.097341	32.425777	-83.255749	-13.887655
47897		9.427184	1.122089	0.346537	0.397907	0.688332	-0.345965	0.001392	0.062479	0.020552	-0.932617	-0.251465	-0.513916	0.094272	0.011231	0.003436	0.735089	0.129905	-0.658229	0.097482	32.141105	-83.236752	-13.603448
47898		9.387896	1.091209	0.345544	0.407991	0.665975	-0.387575	0.002488	0.061056	0.040489	-0.929688	-0.248779	-0.516846	0.093878	0.010931	0.003427	0.735255	0.129701	-0.658051	0.097704	31.781354	-83.224353	-13.242068
47899		9.205655	1.160611	0.230457	0.478157	0.780659	-0.576555	0.004204	0.087467	0.053959	-0.930420	-0.252441	-0.521973	0.092054	0.011631	0.002265	0.735501	0.129441	-0.657785	0.097993	31.301740	-83.202736	-12.759902
47900		9.052013	1.245637	0.231746	0.437823	0.874381	-0.724892	-0.024320	0.095279	0.083458	-0.928467	-0.250244	-0.510742	0.090516	0.012494	0.002273	0.735776	0.128979	-0.657521	0.098305	30.668712	-83.185439	-12.138932
47901		8.968024	1.214935	0.295059	0.382257	0.839357	-0.805028	-0.080981	0.072081	0.115863	-0.927734	-0.247314	-0.514893	0.089674	0.012202	0.002913	0.735995	0.128209	-0.657393	0.098532	29.927134	-83.188096	-11.442067
47902		9.046614	1.122857	0.355429	0.363595	0.744620	-0.727442	-0.094666	0.014611	0.138107	-0.927734	-0.238281	-0.514648	0.090459	0.011293	0.003542	0.736021	0.127350	-0.657496	0.098764	29.219957	-83.224743	-10.786813
47903		9.116141	1.174269	0.226645	0.473060	0.846444	-0.669710	-0.074682	-0.013563	0.146553	-0.937500	-0.247070	-0.520752	0.091153	0.011810	0.002268	0.735939	0.126545	-0.657697	0.099069	28.545201	-83.276818	-10.153693
47904		9.063964	1.232547	0.074527	0.587861	0.965673	-0.735130	-0.075877	0.012905	0.164715	-0.924072	-0.240723	-0.531250	0.090629	0.012400	0.000735	0.735933	0.125666	-0.657813	0.099458	27.721336	-83.319553	-9.370496
47905		8.981238	1.185676	-0.001274	0.661186	0.963472	-0.829203	-0.083011	0.023120	0.185643	-0.928467	-0.242676	-0.512451	0.089801	0.011940	-0.000028	0.735956	0.124683	-0.657908	0.099903	26.767837	-83.361047	-8.461661
47906		8.878469	1.133189	0.051961	0.610987	0.916729	-0.930103	-0.077969	-0.003606	0.206152	-0.934082	-0.238770	-0.525879	0.088773	0.011424	0.000517	0.735875	0.123670	-0.658109	0.100427	25.773042	-83.419671	-7.507634
47907		9.014227	1.086110	0.082902	0.602506	0.878777	-0.795620	-0.075095	-0.073803	0.226301	-0.930176	-0.237061	-0.510742	0.090130	0.010963	0.000858	0.735552	0.122630	-0.658580	0.100987	24.817671	-83.517719	-6.592585
47908		9.294690	0.940370	0.002295	0.738818	0.780633	-0.532587	-0.102170	-0.149028	0.247772	-0.927734	-0.224121	-0.514893	0.092935	0.009519	0.000087	0.734983	0.121464	-0.659352	0.101495	23.875365	-83.658462	-5.705559
47909		9.537228	0.742453	-0.192069	0.988466	0.670276	-0.319509	-0.099682	-0.172413	0.271218	-0.935059	-0.222168	-0.512695	0.095364	0.007553	-0.001842	0.734324	0.120236	-0.660221	0.102078	22.825652	-83.814997	-4.710254
47910		9.557000	0.563258	-0.398222	1.217281	0.584507	-0.326456	-0.073721	-0.166793	0.272708	-0.934570	-0.211426	-0.511475	0.095565	0.005761	-0.003905	0.733662	0.119097	-0.661057	0.102758	21.720284	-83.966964	-3.643861
47911		9.359602	0.660536	-0.609921	1.342687	0.763866	-0.537771	-0.047816	-0.190067	0.268337	-0.938232	-0.219238	-0.507568	0.093593	0.006729	-0.006012	0.732911	0.118077	-0.661959	0.103491	20.641957	-84.128113	-2.590487
47912		9.455471	0.666325	-0.438089	1.162955	0.735416	-0.423946	-0.034638	-0.189448	0.280997	-0.941406	-0.220459	-0.506592	0.094549	0.006795	-0.004292	0.732142	0.117064	-0.662859	0.104317	19.442773	-84.289435	-1.407965
47913		9.714694	0.487129	-0.145601	0.944319	0.494528	-0.143282	0.018579	-0.126811	0.258060	-0.946777	-0.206787	-0.510986	0.097141	0.004997	-0.001394	0.731562	0.116287	-0.663485	0.105268	18.218297	-84.409764	-0.170064
47914		9.890798	0.639690	-0.307453	1.050353	0.709641	0.022186	0.091790	-0.067472	0.213412	-0.941650	-0.206299	-0.510498	0.098902	0.006504	-0.003038	0.731157	0.115899	-0.663829	0.106337	17.134813	-84.487675	0.968705
47915		9.744001	1.003105	-0.598370	1.185104	1.163939	-0.140534	0.081986	-0.062247	0.207188	-0.938721	-0.207764	-0.507080	0.097431	0.010134	-0.005949	0.730779	0.115488	-0.664154	0.107350	16.040373	-84.559365	2.112105
47916		9.542864	1.331712	-0.956184	1.385885	1.605207	-0.365118	0.012688	-0.129812	0.232287	-0.944580	-0.207764	-0.508057	0.095419	0.013429	-0.009499	0.730200	0.114780	-0.664778	0.108188	14.835092	-84.670177	3.327162
47917		9.555875	1.572195	-0.832375	1.173808	1.813937	-0.335814	-0.039936	-0.172364	0.260584	-0.940674	-0.195068	-0.510010	0.095545	0.015845	-0.008245	0.729494	0.113806	-0.665599	0.108927	13.437090	-84.805793	4.704854
47918		9.786686	1.661013	0.017167	0.343847	1.659102	-0.031708	-0.097094	-0.069808	0.301877	-0.945313	-0.194580	-0.496094	0.097842	0.016758	0.000198	0.729137	0.112431	-0.666099	0.109686	11.538960	-84.885643	6.551852
47919		10.132603	1.476738	1.246882	-0.743012	1.137232	0.412754	-0.159007	0.035849	0.313143	-0.938477	-0.184814	-0.505371	0.101305	0.014936	0.012439	0.729158	0.110733	-0.666252	0.110338	9.362542	-84.900995	8.642228
47920		10.954730	1.009624	2.793269	-2.001017	0.262294	1.356683	-0.213926	-0.029682	0.284801	-0.953125	-0.184326	-0.511719	0.109529	0.010282	0.027938	0.729004	0.108966	-0.666658	0.110667	7.380719	-84.944660	10.505706
47921		12.320129	-0.153547	4.060354	-2.750170	-1.181049	2.810196	-0.294937	-0.182544	0.157085	-0.944824	-0.183105	-0.506592	0.123165	-0.001379	0.040718	0.728454	0.107413	-0.667592	0.110176	6.259033	-85.061827	11.458792
47922		12.880021	-2.418015	3.326365	-1.357495	-3.101554	3.277149	-0.404447	-0.288856	-0.123963	-0.949707	-0.184326	-0.502197	0.128737	-0.024192	0.033499	0.727758	0.106458	-0.668820	0.108239	7.008374	-85.220771	10.471037
47923		10.880846	-3.091986	0.613015	1.240323	-2.990076	1.043179	0.099724	-0.066951	-0.397520	-0.940918	-0.183838	-0.499023	0.108745	-0.031139	0.006151	0.727680	0.108130	-0.668817	0.107110	9.754964	-85.228313	7.768975
47924		8.360280	-1.030884	-0.636688	1.609318	-0.715961	-1.550741	0.694234	-0.088291	-0.509782	-0.951660	-0.194580	-0.502930	0.083579	-0.010500	-0.006366	0.727261	0.112354	-0.668507	0.107549	13.628272	-85.221963	4.278415
47925		7.873135	1.186182	0.166000	0.118233	1.100622	-1.926295	0.772841	-0.448046	-0.497425	-0.946777	-0.192383	-0.500488	0.078756	0.011659	0.001882	0.725574	0.117010	-0.669454	0.108090	18.197968	-85.394358	0.134423
47926		8.360908	2.883099	0.959376	-1.157745	2.409200	-1.327850	0.516847	-0.433082	-0.428002	-0.952393	-0.209961	-0.490723	0.083649	0.028627	0.009849	0.724033	0.120495	-0.670512	0.108032	22.414909	-85.546161	-3.801930
47927		8.711841	3.897910	0.657733	-1.189276	3.418604	-0.957118	0.288951	-0.100501	-0.389407	-0.949219	-0.214355	-0.485840	0.087191	0.038800	0.006677	0.723716	0.122845	-0.670505	0.107550	25.420433	-85.512626	-6.653804
47928		8.874026	4.501737	0.880008	-1.576423	3.885253	-0.745824	0.103181	0.103382	-0.305127	-0.952148	-0.215088	-0.492188	0.088813	0.044877	0.008777	0.724148	0.124133	-0.669910	0.106875	27.059525	-85.386812	-8.241632
47929		9.281326	4.304771	2.131177	-2.650359	3.278971	-0.250265	-0.250386	-0.026166	-0.075699	-0.950439	-0.209473	-0.486328	0.092827	0.043039	0.021270	0.724242	0.123438	-0.670112	0.105765	27.416576	-85.384867	-8.747016
47930		9.554469	3.081105	3.281925	-3.336314	1.770614	0.050670	-0.893253	-0.420278	0.205021	-0.961426	-0.209717	-0.487793	0.095444	0.031056	0.032882	0.723253	0.119683	-0.672247	0.103272	26.912800	-85.657400	-8.758197
47931		10.241886	0.666382	2.986715	-2.317712	-0.388206	0.615027	-1.388357	-0.776977	0.400544	-0.956055	-0.197021	-0.479980	0.102288	0.007078	0.030217	0.721227	0.113658	-0.676012	0.099605	25.943352	-86.162699	-8.587024
47932		10.770886	-2.980886	0.930193	0.667839	-3.239861	0.902700	-1.168050	-0.531364	-0.026070	-0.960205	-0.186523	-0.481934	0.107679	-0.029767	0.009762	0.720078	0.109743	-0.678503	0.095278	27.523755	-86.432527	-10.844330
47933		10.515510	-2.396725	0.528349	0.826332	-2.593137	0.636811	0.370356	-0.146059	-0.415923	-0.964355	-0.192627	-0.477295	0.105101	-0.024196	0.005316	0.719562	0.112500	-0.678642	0.094975	31.625011	-86.392437	-14.744257
47934		10.701090	0.252196	2.042526	-1.378008	-0.553163	0.982851	0.376984	-0.236731	-0.421417	-0.966064	-0.202637	-0.472412	0.106992	0.002258	0.020556	0.718729	0.115343	-0.679096	0.094623	36.142945	-86.375550	-19.057997
47935		10.951002	0.119490	2.080424	-1.386888	-0.728303	1.224199	-0.449188	-0.387324	-0.048556	-0.962402	-0.198486	-0.471191	0.109470	0.001215	0.021014	0.717680	0.114020	-0.680690	0.092718	38.347283	-86.540747	-21.527648
47936		10.686455	-1.869961	0.753045	0.395705	-2.245570	0.820506	-0.604349	-0.321616	0.057585	-0.970703	-0.195068	-0.467041	0.106858	-0.018646	0.007759	0.716885	0.111750	-0.682174	0.090703	39.465356	-86.710308	-22.997532
47937		9.984295	-1.875252	0.052299	1.005099	-2.042213	0.088049	0.066239	-0.083762	-0.103492	-0.965576	-0.187744	-0.464600	0.099833	-0.018804	0.000559	0.716596	0.112322	-0.682407	0.090529	40.764649	-86.714329	-24.264191
47938		9.569559	-0.230696	0.714697	-0.114950	-0.658839	-0.237033	0.328309	0.023089	-0.180642	-0.966553	-0.185059	-0.464600	0.095694	-0.002405	0.007132	0.716557	0.114049	-0.682094	0.091033	42.078172	-86.641586	-25.394669
47939		9.743966	0.362478	0.922109	-0.475871	-0.169970	-0.031523	0.010392	-0.150861	-0.103645	-0.953125	-0.196289	-0.463379	0.097435	0.003574	0.009295	0.716070	0.114452	-0.682591	0.090630	43.775176	-86.670132	-27.091842
47940		10.192635	-0.171630	0.739542	-0.147559	-0.654068	0.386161	-0.225065	-0.339773	-0.065519	-0.967285	-0.201172	-0.455566	0.101913	-0.001741	0.007571	0.715054	0.113967	-0.683892	0.089450	46.467499	-86.786730	-29.921008
47941		10.543255	-0.666645	0.422658	0.280882	-1.065382	0.702502	-0.053038	-0.343908	-0.123963	-0.964844	-0.195801	-0.456299	0.105421	-0.006731	0.004410	0.713950	0.114299	-0.685094	0.088648	49.888915	-86.871210	-33.381341
47942		10.753464	-0.377859	0.567291	0.044389	-0.859317	0.927941	0.161937	-0.238001	-0.171677	-0.968750	-0.198975	-0.447266	0.107524	-0.003876	0.005798	0.713103	0.115516	-0.685793	0.088472	53.015921	-86.885338	-36.423051
47943		10.865238	-0.142832	0.861836	-0.317830	-0.744752	1.057493	0.119335	-0.202615	-0.140158	-0.960449	-0.203857	-0.455322	0.108643	-0.001510	0.008728	0.712388	0.116455	-0.686402	0.088283	55.638864	-86.894048	-38.984625
47944		11.047831	-0.353139	0.849340	-0.258066	-0.966136	1.228173	-0.005470	-0.230794	-0.075723	-0.976807	-0.198730	-0.453613	0.110467	-0.003573	0.008621	0.711619	0.116743	-0.687203	0.087878	58.094906	-86.936278	-41.450377
47945		11.036469	-0.576088	0.753539	-0.123887	-1.162410	1.202610	0.012466	-0.177759	-0.026764	-0.974854	-0.191650	-0.452148	0.110357	-0.005776	0.007633	0.710999	0.116900	-0.687834	0.087740	59.859629	-86.982033	-43.213674
47946		10.879245	-0.397214	0.802535	-0.240270	-1.003707	1.054449	0.103428	-0.055515	0.004234	-0.972168	-0.206543	-0.448975	0.108790	-0.003974	0.008053	0.710733	0.117221	-0.688010	0.088095	60.390678	-87.006374	-43.689424
47947		10.545955	-0.045237	1.079240	-0.619486	-0.731979	0.744983	0.106907	0.057687	0.041343	-0.963135	-0.197266	-0.451904	0.105463	-0.000436	0.010762	0.710837	0.117377	-0.687802	0.088662	59.644199	-87.016804	-42.883830
47948		10.117280	0.189592	1.313653	-0.921623	-0.551622	0.334593	0.035837	0.108222	0.070878	-0.975098	-0.207031	-0.448486	0.101179	0.001929	0.013082	0.711143	0.117158	-0.687464	0.089119	58.207861	-87.025933	-41.428068
47949		9.595987	0.315177	1.181447	-0.844136	-0.363841	-0.182882	-0.053969	0.107972	0.084904	-0.977539	-0.189697	-0.447998	0.095965	0.003196	0.011762	0.711495	0.116569	-0.687174	0.089316	56.627376	-87.039964	-39.879662
47950		9.248817	0.361036	1.041825	-0.732897	-0.256606	-0.530804	-0.099656	0.054690	0.081355	-0.972900	-0.201660	-0.448242	0.092490	0.003653	0.010391	0.711691	0.115855	-0.687092	0.089314	55.519537	-87.067423	-38.830646
47951		9.207192	0.352991	0.898858	-0.596478	-0.213514	-0.576695	-0.129056	-0.028267	0.051085	-0.966797	-0.191650	-0.454346	0.092070	0.003559	0.008999	0.711633	0.115176	-0.687301	0.089054	55.337927	-87.107000	-38.726078
47952		9.369826	0.393072	0.772239	-0.487383	-0.140214	-0.416556	-0.140504	-0.099518	0.024106	-0.977295	-0.188232	-0.451904	0.093694	0.003947	0.007766	0.711348	0.114583	-0.687751	0.088618	55.999504	-87.156805	-39.472187
47953		9.409008	0.307050	0.665528	-0.369524	-0.192325	-0.384374	-0.173357	-0.108742	0.013999	-0.971436	-0.187256	-0.457520	0.094086	0.003083	0.006704	0.711054	0.113909	-0.688243	0.088027	56.821462	-87.204278	-40.397825
47954		9.257843	0.302797	0.453854	-0.179955	-0.131902	-0.541466	-0.183594	-0.081351	-0.008975	-0.974121	-0.185791	-0.451660	0.092577	0.003028	0.004573	0.710869	0.113266	-0.688628	0.087334	57.539153	-87.231518	-41.225033
47955		9.103000	0.287139	0.351217	-0.090302	-0.115473	-0.699570	-0.186668	-0.096801	-0.033487	-0.974854	-0.190918	-0.448486	0.091029	0.002859	0.003554	0.710643	0.112704	-0.689055	0.086535	58.580049	-87.250952	-42.377450
47956		9.098328	0.272221	0.238728	0.011831	-0.103790	-0.707758	-0.176291	-0.149585	-0.058518	-0.984375	-0.188477	-0.450684	0.090982	0.002698	0.002453	0.710239	0.112287	-0.689649	0.085653	60.342784	-87.271987	-44.246565
47957		9.045008	0.231001	0.194493	0.051109	-0.137927	-0.763836	-0.178605	-0.177451	-0.076893	-0.968506	-0.188721	-0.440674	0.090449	0.002277	0.002023	0.709746	0.111937	-0.690333	0.084682	62.531637	-87.288373	-46.543571
47958		8.955328	0.217901	0.052601	0.174715	-0.118842	-0.857048	-0.156630	-0.175945	-0.093325	-0.977295	-0.183350	-0.446533	0.089554	0.002138	0.000603	0.709253	0.111722	-0.690991	0.083730	64.825790	-87.291602	-48.933323
47959		8.841430	0.138255	0.000470	0.230183	-0.188360	-0.975182	-0.141550	-0.171775	-0.095485	-0.980713	-0.188965	-0.445068	0.088415	0.001340	0.000080	0.708765	0.111565	-0.691626	0.082824	67.093218	-87.288287	-51.287719
47960		8.868812	0.016797	-0.000609	0.250843	-0.317683	-0.953103	-0.154251	-0.205477	-0.096329	-0.980713	-0.180664	-0.442139	0.088688	0.000125	0.000085	0.708167	0.111379	-0.692383	0.081852	69.729510	-87.286816	-54.018740
47961		9.107702	-0.233551	-0.043664	0.347019	-0.569430	-0.726327	-0.171215	-0.282630	-0.095883	-0.979980	-0.183350	-0.438477	0.091076	-0.002379	-0.000306	0.707309	0.111164	-0.693420	0.080780	73.236410	-87.292761	-57.631010
47962		9.497572	-0.506416	-0.227602	0.581898	-0.814727	-0.351733	-0.129857	-0.320043	-0.120500	-0.979980	-0.185547	-0.444092	0.094976	-0.005123	-0.002121	0.706306	0.111193	-0.694556	0.079742	77.276080	-87.279220	-61.753100
47963		9.782620	-0.584136	-0.387000	0.737909	-0.878324	-0.072328	-0.044306	-0.266882	-0.149354	-0.983398	-0.187012	-0.427490	0.097827	-0.005915	-0.003738	0.705450	0.111605	-0.695453	0.078930	80.732664	-87.230939	-65.242303
47964		9.753654	-0.469995	-0.493448	0.792500	-0.758165	-0.096966	-0.000796	-0.163974	-0.161166	-0.982666	-0.188721	-0.430908	0.097537	-0.004779	-0.004854	0.704931	0.112170	-0.695961	0.078284	82.915429	-87.159397	-67.431445
47965		9.604073	-0.445646	-0.549618	0.829497	-0.730732	-0.246244	0.020717	-0.082861	-0.174721	-0.990967	-0.189209	-0.429199	0.096039	-0.004540	-0.005457	0.704687	0.112826	-0.696167	0.077711	84.107829	-87.071798	-68.616711
47966		9.435002	-0.411499	-0.478054	0.745544	-0.726141	-0.414071	0.041222	-0.064317	-0.183710	-0.989990	-0.187500	-0.437500	0.094348	-0.004201	-0.004751	0.704498	0.113579	-0.696294	0.077188	85.050483	-86.976968	-69.540269
47967		9.410776	-0.331516	-0.376721	0.623915	-0.693512	-0.434827	0.101210	-0.083407	-0.209280	-0.984375	-0.196289	-0.428711	0.094106	-0.003412	-0.003730	0.704218	0.114639	-0.696449	0.076773	86.187767	-86.867515	-70.624361
47968		9.431069	-0.298240	-0.381957	0.617923	-0.680820	-0.414042	0.106983	-0.079418	-0.209914	-0.989990	-0.196045	-0.426514	0.094309	-0.003079	-0.003784	0.703947	0.115719	-0.696587	0.076378	87.213601	-86.756503	-71.593743
47969		9.404617	-0.311019	-0.492303	0.725436	-0.681034	-0.442745	0.116841	-0.064940	-0.203236	-0.981201	-0.190674	-0.425537	0.094045	-0.003203	-0.004894	0.703718	0.116806	-0.696673	0.076049	88.034453	-86.648105	-72.352140
47970		9.429015	-0.385994	-0.677031	0.922244	-0.722867	-0.424365	0.141269	-0.077670	-0.201054	-0.986572	-0.207275	-0.435059	0.094289	-0.003950	-0.006736	0.703428	0.117974	-0.696796	0.075805	88.940442	-86.540535	-73.182032
47971		9.494321	-0.377392	-0.663560	0.905517	-0.741109	-0.359877	0.180030	-0.090057	-0.217016	-0.982666	-0.206055	-0.425293	0.094942	-0.003871	-0.006596	0.703078	0.119341	-0.696936	0.075633	89.929197	-86.423059	-74.072549
47972		9.450686	-0.241555	-0.764938	0.962868	-0.599665	-0.396096	0.211747	-0.074874	-0.212975	-0.975342	-0.202881	-0.429688	0.094507	-0.002508	-0.007617	0.702757	0.120798	-0.697012	0.075595	90.742530	-86.307141	-74.769149
47973		9.459348	-0.058883	-0.837919	0.980393	-0.423078	-0.376341	0.237841	-0.084339	-0.201742	-0.986816	-0.211914	-0.429443	0.094596	-0.000674	-0.008340	0.702383	0.122312	-0.697116	0.075681	91.607667	-86.196876	-75.502815
47974		9.629556	0.044725	-0.771020	0.883934	-0.370956	-0.199892	0.257642	-0.138919	-0.180541	-0.983154	-0.203125	-0.419922	0.096301	0.000370	-0.007643	0.701796	0.123840	-0.697416	0.075877	92.905239	-86.096690	-76.658725
47975		10.025609	-0.048858	-0.650317	0.786448	-0.539109	0.188760	0.204978	-0.230713	-0.155941	-0.980957	-0.210205	-0.414307	0.100263	-0.000560	-0.006388	0.700911	0.125133	-0.698071	0.075919	94.875547	-86.004759	-78.519239
47976		10.366158	-0.326694	-0.791759	0.984233	-0.808216	0.510532	0.155935	-0.267492	-0.145836	-0.985596	-0.210449	-0.424072	0.103670	-0.003336	-0.007782	0.699921	0.126231	-0.698878	0.075800	97.033664	-85.911913	-80.596601
47977		10.471460	-0.421132	-1.149246	1.335758	-0.824464	0.612549	0.213550	-0.200449	-0.164219	-0.989990	-0.216797	-0.418213	0.104723	-0.004285	-0.011392	0.699135	0.127571	-0.699415	0.075862	98.586051	-85.809100	-82.033614
47978		10.268866	-0.164105	-1.231345	1.328058	-0.558262	0.430229	0.297074	-0.108055	-0.177331	-0.986084	-0.224121	-0.407715	0.102694	-0.001714	-0.012260	0.698621	0.129212	-0.699587	0.076228	99.403163	-85.705112	-82.685750
47979		10.033922	0.089275	-1.263729	1.278524	-0.304485	0.215135	0.303149	-0.075539	-0.167313	-0.985840	-0.222656	-0.415039	0.100345	0.000828	-0.012598	0.698212	0.130827	-0.699647	0.076672	99.961634	-85.609261	-83.074880
47980		9.904154	0.223762	-1.157161	1.131137	-0.210563	0.094761	0.287664	-0.085588	-0.150260	-0.982666	-0.229004	-0.409668	0.099048	0.002180	-0.011526	0.697768	0.132332	-0.699758	0.077115	100.587771	-85.521780	-83.540832
47981		9.964445	0.213503	-0.960659	0.940685	-0.294691	0.151592	0.282078	-0.084710	-0.128479	-0.982910	-0.237061	-0.405518	0.099650	0.002085	-0.009561	0.697321	0.133741	-0.699880	0.077614	101.211956	-85.446180	-84.008083
47982		9.991477	0.048648	-0.834280	0.863749	-0.500914	0.163836	0.256886	-0.057565	-0.098430	-0.992920	-0.230225	-0.406494	0.099917	0.000448	-0.008313	0.696973	0.134947	-0.699936	0.078149	101.660561	-85.390275	-84.313560
47983		9.942737	-0.191735	-1.018123	1.108479	-0.677657	0.099094	0.271796	-0.017304	-0.087491	-0.987305	-0.230469	-0.399902	0.099427	-0.001947	-0.010175	0.696750	0.136150	-0.699852	0.078800	101.845549	-85.344996	-84.346161
47984		9.888964	-0.184085	-1.136776	1.221330	-0.635304	0.047460	0.340452	0.029937	-0.109833	-0.983398	-0.239502	-0.402588	0.098887	-0.001876	-0.011386	0.696652	0.137650	-0.699560	0.079646	101.716005	-85.292814	-84.023745
47985		9.798981	-0.018507	-1.069371	1.113212	-0.495856	-0.031133	0.402603	0.078970	-0.129987	-0.984131	-0.235596	-0.397461	0.097985	-0.000227	-0.010733	0.696690	0.139418	-0.699055	0.080672	101.266740	-85.234675	-83.344721
47986		9.584241	0.276280	-1.017909	0.982083	-0.219355	-0.223239	0.416738	0.114489	-0.144845	-0.979736	-0.239990	-0.403320	0.095839	0.002715	-0.010228	0.696843	0.141273	-0.698408	0.081722	100.586072	-85.171594	-82.425202
47987		9.421081	0.463892	-1.000035	0.916602	-0.039313	-0.371802	0.431816	0.121833	-0.157435	-0.982422	-0.242676	-0.399658	0.094208	0.004586	-0.010048	0.697014	0.143220	-0.697716	0.082783	99.869723	-85.101116	-81.461203
47988		9.251841	0.653673	-0.904961	0.777454	0.118573	-0.526984	0.457984	0.164166	-0.163306	-0.979492	-0.253174	-0.411133	0.092516	0.006482	-0.009111	0.697310	0.145260	-0.696858	0.083947	98.913107	-85.030218	-80.240878
47989		9.097375	0.731893	-0.664744	0.538341	0.123600	-0.678429	0.419891	0.196665	-0.152173	-0.974365	-0.252930	-0.405518	0.090973	0.007264	-0.006722	0.697741	0.147114	-0.695905	0.085038	97.763889	-84.966282	-78.849014
47990		9.158894	0.644767	-0.419545	0.350508	-0.048149	-0.628359	0.352420	0.142207	-0.126756	-0.977783	-0.251465	-0.408447	0.091590	0.006397	-0.004249	0.698015	0.148667	-0.695188	0.085945	96.977680	-84.910874	-77.860150
47991		9.387952	0.591193	-0.353733	0.319449	-0.146618	-0.406056	0.297690	0.051610	-0.123859	-0.979736	-0.260254	-0.409668	0.093882	0.005859	-0.003553	0.698014	0.150057	-0.694809	0.086602	96.752002	-84.850014	-77.465568
47992		9.561959	0.556133	-0.684585	0.651957	-0.094326	-0.232759	0.256272	0.033154	-0.136163	-0.974121	-0.259521	-0.402588	0.095622	0.005505	-0.006855	0.697982	0.151353	-0.694503	0.087059	96.618788	-84.780958	-77.187590
47993		9.479095	0.700721	-1.065450	0.967750	0.165761	-0.298729	0.269643	0.064113	-0.166932	-0.971680	-0.253906	-0.403809	0.094793	0.006942	-0.010675	0.698060	0.152789	-0.694057	0.087478	96.285057	-84.696128	-76.700546
47994		9.357448	0.916879	-1.135252	0.965224	0.391581	-0.399596	0.233152	0.035717	-0.184357	-0.978516	-0.270752	-0.407227	0.093581	0.009096	-0.011359	0.698072	0.154169	-0.693713	0.087688	96.106457	-84.599573	-76.390246
47995		9.620250	1.108711	-1.116371	0.891589	0.525325	-0.119710	0.173061	-0.040984	-0.211574	-0.974609	-0.265625	-0.401367	0.096216	0.010995	-0.011134	0.697877	0.155468	-0.693639	0.087535	96.336001	-84.482612	-76.524476
47996		10.050780	1.326019	-1.112305	0.824551	0.666870	0.330738	0.128457	-0.044782	-0.231111	-0.978027	-0.272217	-0.406250	0.100526	0.013151	-0.011092	0.697709	0.156681	-0.693583	0.087157	96.544347	-84.354367	-76.662963
47997		10.222158	1.442445	-1.117187	0.801579	0.741663	0.513427	0.043257	0.090537	-0.219008	-0.975098	-0.270264	-0.398438	0.102232	0.014315	-0.011215	0.698072	0.157495	-0.693099	0.086630	95.938515	-84.241359	-76.032460
47998		10.111716	1.125241	-1.077594	0.891381	0.430000	0.370369	-0.065443	0.241710	-0.175091	-0.967529	-0.270508	-0.404053	0.101114	0.011160	-0.010902	0.699023	0.157712	-0.692169	0.086000	94.476974	-84.160291	-74.604251
47999		9.913479	0.760309	-0.987113	0.955575	0.070273	0.132732	-0.082554	0.286419	-0.178778	-0.974365	-0.275146	-0.400146	0.099127	0.007510	-0.010016	0.700143	0.157862	-0.691084	0.085332	92.795936	-84.074667	-72.965118
48000		9.975403	0.460655	-0.894462	1.001937	-0.255525	0.159859	-0.093245	0.231939	-0.188552	-0.967773	-0.281006	-0.407959	0.099748	0.004508	-0.009062	0.701084	0.158031	-0.690187	0.084550	91.454881	-83.978042	-71.673595
48001		9.989465	0.285236	-1.126692	1.306697	-0.353605	0.152635	-0.085658	0.195359	-0.209763	-0.964844	-0.276123	-0.406738	0.099886	0.002743	-0.011366	0.701903	0.158316	-0.689394	0.083690	90.352345	-83.865936	-70.617435
48002		10.098079	0.268246	-1.326728	1.531647	-0.326397	0.254626	-0.054790	0.225126	-0.236332	-0.963135	-0.276123	-0.411133	0.100969	0.002559	-0.013382	0.702806	0.158788	-0.688464	0.082869	89.155333	-83.736472	-69.447995
48003		10.145095	0.502454	-1.163361	1.335753	-0.180159	0.322004	-0.035677	0.334294	-0.254169	-0.969482	-0.279297	-0.415039	0.101438	0.004894	-0.011804	0.704078	0.159342	-0.687123	0.082135	87.461381	-83.591625	-67.767456
48004		10.390856	0.739814	-0.230025	0.435099	-0.307913	0.593356	-0.010312	0.467879	-0.254754	-0.966797	-0.284424	-0.420410	0.103912	0.007266	-0.002544	0.705782	0.159931	-0.685300	0.081593	85.196991	-83.435423	-65.497632
48005		11.578982	1.355409	1.162243	-0.973446	-0.334448	1.857836	0.143921	0.385824	-0.214985	-0.961426	-0.284180	-0.420654	0.115826	0.013421	0.011409	0.707064	0.160961	-0.683729	0.081653	83.499644	-83.297547	-63.709087
48006		13.981416	2.767607	2.821097	-2.850250	0.159713	4.433321	0.376614	0.163067	-0.065121	-0.956055	-0.289307	-0.425049	0.139846	0.027577	0.028149	0.707330	0.162392	-0.682970	0.082860	82.974416	-83.256228	-62.966083
48007		13.235465	4.036111	3.186614	-3.622191	1.315766	3.853700	-0.017483	0.588957	0.192653	-0.959229	-0.285156	-0.436768	0.132409	0.040491	0.031473	0.709261	0.161371	-0.681070	0.083976	79.993566	-83.321989	-59.978022
48008		9.461153	3.100070	0.851225	-1.240444	1.690640	-0.042848	-0.692298	1.240464	0.319999	-0.954346	-0.278809	-0.447510	0.094612	0.031180	0.007818	0.713878	0.157244	-0.677226	0.083771	73.317451	-83.343174	-53.659103
48009		7.244393	1.598531	-0.589334	0.547159	1.040944	-2.464184	-0.932012	0.693037	0.364580	-0.951172	-0.276367	-0.452881	0.072393	0.016089	-0.006219	0.716780	0.152334	-0.675440	0.082477	68.957002	-83.419114	-49.810260
48010		8.747793	0.459539	0.462637	0.049255	-0.476735	-1.053732	-0.688512	-0.232068	0.265960	-0.956543	-0.267334	-0.449707	0.087466	0.004728	0.004712	0.716392	0.149006	-0.676777	0.080947	69.170349	-83.615735	-50.425148
48011		11.011034	0.287606	1.735027	-0.958135	-1.231205	1.228236	-0.193240	-0.100521	0.039069	-0.951904	-0.266357	-0.453857	0.110101	0.002914	0.017403	0.716168	0.148166	-0.677266	0.080376	69.464632	-83.663612	-50.835912
48012		10.942111	0.675489	1.787736	-1.108402	-0.859244	1.206149	-0.134322	0.657943	0.032336	-0.938965	-0.267334	-0.459961	0.109478	0.006784	0.017513	0.718466	0.147255	-0.675008	0.080543	66.203038	-83.545290	-47.634465
48013		9.070042	-0.260804	0.785085	0.062834	-1.226849	-0.788260	-0.613686	0.947260	0.203833	-0.945557	-0.262939	-0.465820	0.090739	-0.002492	0.007429	0.722009	0.143922	-0.672014	0.079919	61.127416	-83.415594	-42.883006
48014		8.110967	-2.332711	-0.334049	1.726550	-2.717759	-2.004127	-0.816649	0.544634	0.357301	-0.942871	-0.244141	-0.468506	0.081142	-0.023196	-0.003467	0.724261	0.139498	-0.670645	0.078876	57.407145	-83.438716	-39.612134
48015		8.329908	-4.406187	-0.734151	2.752949	-4.555010	-2.001544	-0.505998	0.183373	0.224210	-0.945313	-0.244385	-0.480469	0.083342	-0.043987	-0.007307	0.725126	0.136785	-0.670356	0.078137	55.713599	-83.494347	-38.202584
48016		8.960354	-4.337640	-0.137516	2.227587	-4.707428	-1.327412	0.375065	0.085755	-0.068722	-0.939209	-0.246338	-0.479248	0.089588	-0.043404	-0.001495	0.725169	0.138284	-0.669874	0.079224	55.747386	-83.440817	-38.023545
48017		9.724335	-1.822616	0.987195	0.495994	-2.729518	-0.264767	0.990322	-0.038584	-0.221538	-0.943359	-0.249512	-0.474854	0.097221	-0.018383	0.009800	0.724422	0.142574	-0.669482	0.081729	57.060719	-83.353640	-38.777702
48018		10.180745	0.667076	1.594742	-0.798120	-0.625712	0.463848	0.914859	-0.043854	-0.130690	-0.939941	-0.252197	-0.476074	0.101808	0.006531	0.016000	0.723656	0.146284	-0.669190	0.084307	58.091343	-83.310663	-39.290823
48019		10.304697	2.134121	1.949618	-1.591925	0.614837	0.752822	0.588537	0.045735	0.040421	-0.935303	-0.257080	-0.465332	0.103047	0.021305	0.019535	0.723347	0.148202	-0.668826	0.086474	58.116129	-83.322855	-38.979520
48020		10.772621	2.819492	2.381275	-2.194422	1.080918	1.308708	0.239419	-0.159703	0.151518	-0.937500	-0.261475	-0.469727	0.107686	0.028248	0.023933	0.722556	0.148572	-0.669436	0.087724	58.513691	-83.451557	-39.244943
48021		11.618360	2.835253	2.182756	-1.978525	1.110029	2.130612	-0.001967	-0.386305	0.250798	-0.932617	-0.260986	-0.458740	0.116105	0.028498	0.022052	0.721140	0.147839	-0.671039	0.088355	59.522719	-83.695101	-40.264737
48022		12.163672	2.331252	1.290316	-0.980437	0.911566	2.567221	-0.215832	-0.370815	0.262316	-0.940918	-0.256836	-0.459717	0.121582	0.023486	0.013103	0.719924	0.146288	-0.672687	0.088324	60.384908	-83.938335	-41.259389
48023		11.967108	1.552988	0.264697	0.190070	0.555962	2.243357	-0.182097	-0.058592	0.258625	-0.945313	-0.254639	-0.458496	0.119650	0.015687	0.002668	0.719733	0.144732	-0.673189	0.088618	59.836174	-84.089970	-40.815804
48024		11.178407	0.813235	0.356344	0.287972	-0.084927	1.396898	-0.086354	0.356131	0.207696	-0.939941	-0.247314	-0.457764	0.111782	0.008250	0.003361	0.720887	0.143508	-0.672118	0.089353	57.485483	-84.092183	-38.505320
48025		10.609816	0.527218	1.388379	-0.603996	-0.621204	0.865459	0.065439	0.467943	0.163363	-0.938232	-0.244629	-0.467773	0.106126	0.005354	0.013637	0.722326	0.142930	-0.670540	0.090516	54.859406	-84.026977	-35.830626
48026		10.314639	0.560718	2.446152	-1.603657	-0.890881	0.643141	0.124467	0.314457	0.149135	-0.946533	-0.252686	-0.472656	0.103180	0.005669	0.024303	0.723209	0.142680	-0.669477	0.091717	53.038294	-83.996573	-33.930961
48027		10.003266	0.706997	2.715201	-1.912324	-0.804002	0.367394	0.135459	0.181783	0.137297	-0.933838	-0.247803	-0.471680	0.100052	0.007120	0.027066	0.723645	0.142571	-0.668877	0.092815	51.848536	-84.001622	-32.659860
48028		9.357093	0.809087	2.269796	-1.569341	-0.507724	-0.292124	0.127883	0.219223	0.138589	-0.950195	-0.255127	-0.467529	0.093590	0.008141	0.022601	0.724209	0.142412	-0.668146	0.093922	50.490480	-83.991123	-31.223637
48029		8.597692	0.891923	1.871258	-1.272601	-0.238838	-1.063926	0.115994	0.287218	0.142244	-0.935791	-0.255127	-0.476074	0.085997	0.008970	0.018594	0.725006	0.142166	-0.667174	0.095048	48.840977	-83.952782	-29.501387
48030		8.193176	1.074069	1.732414	-1.224200	0.016041	-1.459002	0.144843	0.198567	0.141185	-0.938721	-0.256836	-0.470459	0.081941	0.010786	0.017251	0.725484	0.142072	-0.666508	0.096208	47.584960	-83.943524	-28.157628
48031		8.401775	1.510303	1.809117	-1.418486	0.401128	-1.212063	0.163027	-0.014226	0.125610	-0.933838	-0.251709	-0.472412	0.084007	0.015141	0.018109	0.725247	0.142195	-0.666593	0.097215	47.243066	-84.007970	-27.723161
48032		9.004826	2.027705	1.718499	-1.460925	0.892118	-0.581137	0.185412	-0.141319	0.079521	-0.940918	-0.249756	-0.462402	0.090028	0.020297	0.017267	0.724592	0.142618	-0.667094	0.098045	47.593990	-84.102479	-27.971874
48033		9.428816	2.333019	1.405762	-1.246228	1.262960	-0.160043	0.146065	-0.107758	0.039187	-0.947266	-0.257324	-0.469971	0.094276	0.023338	0.014125	0.724096	0.143013	-0.667463	0.098616	47.944713	-84.166560	-28.243564
48034		9.556665	2.390728	1.016867	-0.897293	1.443059	-0.056054	0.023323	-0.005252	0.022196	-0.939941	-0.255859	-0.469727	0.095564	0.023917	0.010174	0.724038	0.142972	-0.667509	0.098794	47.864578	-84.184183	-28.152296
48035		9.582896	2.177559	0.853547	-0.669119	1.301254	-0.057626	-0.066517	0.058830	0.026681	-0.936768	-0.257324	-0.467285	0.095829	0.021791	0.008500	0.724256	0.142558	-0.667370	0.098729	47.449522	-84.178733	-27.776650
48036		9.616532	1.788701	0.945050	-0.618080	0.909090	-0.047351	-0.109239	0.036125	0.017192	-0.941895	-0.252441	-0.470947	0.096165	0.017900	0.009423	0.724432	0.142034	-0.667328	0.098476	47.139912	-84.178032	-27.531005
48037		9.697199	1.408028	1.102199	-0.630798	0.497804	0.015199	-0.103282	-0.021166	-0.004021	-0.943848	-0.245605	-0.466064	0.096971	0.014084	0.011025	0.724424	0.141628	-0.667475	0.098121	47.151454	-84.190519	-27.605339
48038		9.891014	0.978858	1.147029	-0.518264	0.069324	0.178939	-0.107030	-0.096225	-0.023088	-0.932617	-0.242920	-0.481934	0.098906	0.009783	0.011513	0.724177	0.141310	-0.667882	0.097634	47.545775	-84.224242	-28.066173
48039		10.142348	0.652512	1.119896	-0.371870	-0.246980	0.402393	-0.043046	-0.125466	-0.077070	-0.938721	-0.250244	-0.466553	0.101419	0.006488	0.011261	0.723813	0.141417	-0.668326	0.097142	48.311332	-84.245600	-28.863660
48040		10.378562	0.734672	1.011482	-0.282562	-0.158090	0.635879	0.182011	-0.059814	-0.136474	-0.943604	-0.247314	-0.470459	0.103788	0.007267	0.010152	0.723537	0.142506	-0.668379	0.097235	49.149769	-84.215583	-29.604531
48041		10.278690	1.279936	1.072501	-0.526339	0.322033	0.582465	0.348569	0.062789	-0.163205	-0.938232	-0.253418	-0.473633	0.102801	0.012697	0.010715	0.723565	0.144226	-0.667888	0.097873	49.648467	-84.127211	-29.908317
48042		10.046076	1.547638	1.155181	-0.703392	0.543058	0.378660	0.323713	0.136759	-0.117704	-0.934326	-0.258301	-0.469727	0.100478	0.015399	0.011508	0.723831	0.145668	-0.667171	0.098648	49.649584	-84.031275	-29.725949
48043		9.679919	1.393435	1.137954	-0.655731	0.415824	0.002328	0.226034	0.137415	-0.065199	-0.946045	-0.256104	-0.470703	0.096812	0.013890	0.011329	0.724144	0.146580	-0.666537	0.099285	49.411544	-83.957800	-29.359623
48044		9.455441	1.067825	1.009179	-0.435861	0.162740	-0.255093	0.246993	0.084016	-0.047190	-0.939453	-0.259766	-0.473145	0.094561	0.010643	0.010065	0.724253	0.147535	-0.666098	0.100021	49.345731	-83.912102	-29.154014
48045		9.365929	1.008422	0.891400	-0.309093	0.147251	-0.356741	0.314862	0.034647	-0.059395	-0.940430	-0.264648	-0.458984	0.093664	0.010042	0.008914	0.724153	0.148800	-0.665793	0.100898	49.563605	-83.879380	-29.194951
48046		9.424233	1.144734	0.870281	-0.328530	0.271926	-0.288923	0.324194	0.036772	-0.063875	-0.936523	-0.260742	-0.464111	0.094248	0.011403	0.008704	0.724052	0.150114	-0.665471	0.101796	49.791801	-83.844019	-29.240416
48047		9.313989	1.220075	0.834938	-0.327802	0.355009	-0.394481	0.277794	0.086398	-0.045864	-0.937012	-0.265137	-0.469971	0.093146	0.012168	0.008326	0.724141	0.151173	-0.665005	0.102638	49.730995	-83.798038	-29.022412
48048		9.208713	1.354023	0.894588	-0.432490	0.461145	-0.483467	0.273534	0.125518	-0.047820	-0.935059	-0.276855	-0.471680	0.092096	0.013506	0.008907	0.724363	0.152203	-0.664396	0.103491	49.520363	-83.736739	-28.655774
48049		9.115163	1.594089	0.950024	-0.568669	0.666797	-0.551918	0.271750	0.122633	-0.053131	-0.937012	-0.276611	-0.467529	0.091162	0.015904	0.009466	0.724578	0.153245	-0.663794	0.104313	49.344082	-83.673959	-28.325031
48050		9.178461	1.872853	0.995615	-0.695932	0.902331	-0.461514	0.254980	0.105962	-0.061427	-0.931641	-0.274414	-0.468994	0.091796	0.018688	0.009931	0.724752	0.154265	-0.663252	0.105041	49.255236	-83.613785	-28.091238
48051		9.206267	2.040294	1.010490	-0.759749	1.047841	-0.417793	0.184286	0.104949	-0.036054	-0.939453	-0.273193	-0.477539	0.092072	0.020377	0.010075	0.724964	0.154942	-0.662770	0.105622	49.048831	-83.564856	-27.780535
48052		9.197466	1.953232	0.882009	-0.602212	1.014163	-0.442776	0.120521	0.124535	-0.017557	-0.939941	-0.280518	-0.468262	0.091982	0.019519	0.008775	0.725280	0.155318	-0.662264	0.106076	48.673749	-83.516410	-27.336417
48053		9.143796	1.860446	0.906406	-0.586634	0.924579	-0.501789	0.101202	0.154501	-0.007335	-0.928711	-0.274414	-0.470459	0.091446	0.018597	0.009003	0.725704	0.155572	-0.661668	0.106523	48.148400	-83.460497	-26.752550
48054		9.144074	1.756323	1.069118	-0.687810	0.773043	-0.497588	0.084373	0.171277	0.008076	-0.929932	-0.274658	-0.469238	0.091449	0.017562	0.010620	0.726187	0.155707	-0.661030	0.106987	47.509875	-83.404056	-26.063852
48055		9.166474	1.584739	1.211468	-0.741938	0.567449	-0.478299	0.047521	0.187725	0.025116	-0.936035	-0.274414	-0.476563	0.091674	0.015856	0.012032	0.726745	0.155641	-0.660366	0.107400	46.745594	-83.347349	-25.270279
48056		9.067482	1.366402	1.102876	-0.557343	0.419171	-0.603113	0.012454	0.216690	0.032860	-0.943359	-0.278809	-0.475098	0.090684	0.013678	0.010931	0.727419	0.155408	-0.659620	0.107751	45.846906	-83.281097	-24.361092
48057		8.977551	1.334273	1.013953	-0.456739	0.436495	-0.701944	0.044349	0.210833	0.028048	-0.932129	-0.274170	-0.481201	0.089784	0.013353	0.010048	0.728052	0.155308	-0.658875	0.108182	45.020800	-83.213615	-23.506884
48058		8.935460	1.519239	0.945335	-0.451039	0.643463	-0.733773	0.078045	0.162932	0.016320	-0.933594	-0.281006	-0.478760	0.089361	0.015196	0.009386	0.728506	0.155398	-0.658275	0.108648	44.430132	-83.159689	-22.869775
48059		9.026917	1.777768	0.843648	-0.430816	0.922946	-0.630095	0.076396	0.125545	0.024046	-0.921875	-0.279785	-0.483398	0.090272	0.017785	0.008387	0.728834	0.155473	-0.657818	0.109103	43.944851	-83.123481	-22.340166
48060		9.173545	2.037020	0.787911	-0.450814	1.183744	-0.468187	0.067224	0.092698	0.041688	-0.937256	-0.283447	-0.474365	0.091735	0.020387	0.007843	0.729051	0.155479	-0.657499	0.109571	43.506026	-83.107328	-21.862023
48061		9.275650	2.179085	0.809801	-0.507574	1.311066	-0.354075	0.030828	0.078506	0.076842	-0.928467	-0.278564	-0.479248	0.092751	0.021825	0.008065	0.729231	0.155241	-0.657279	0.110033	42.972614	-83.110436	-21.310194
48062		9.350518	2.115653	0.811082	-0.474921	1.260706	-0.286351	-0.038423	0.071148	0.121771	-0.928223	-0.266846	-0.488525	0.093495	0.021215	0.008073	0.729414	0.154610	-0.657158	0.110429	42.265205	-83.133351	-20.622392
48063		9.353886	1.795662	0.708788	-0.262730	1.018513	-0.319767	-0.137024	0.048866	0.168532	-0.928223	-0.268555	-0.477783	0.093525	0.018040	0.007053	0.729574	0.153475	-0.657209	0.110651	41.399346	-83.182525	-19.832651
48064		9.238263	1.445981	0.483490	0.059021	0.801825	-0.484039	-0.220086	0.043418	0.190174	-0.935059	-0.263184	-0.476563	0.092370	0.014553	0.004799	0.729767	0.151969	-0.657341	0.110675	40.411511	-83.240625	-18.967835
48065		9.035015	1.226901	0.397196	0.194865	0.659076	-0.712019	-0.248050	0.056892	0.201097	-0.921631	-0.259521	-0.485840	0.090339	0.012365	0.003931	0.730017	0.150316	-0.657446	0.110656	39.308955	-83.294962	-18.003989
48066		8.829756	1.048659	0.321315	0.304487	0.549319	-0.937271	-0.262611	0.017042	0.205544	-0.936279	-0.262695	-0.484863	0.088287	0.010582	0.003192	0.730143	0.148619	-0.657705	0.110577	38.286110	-83.366571	-17.128621
48067		8.979592	1.115377	0.350413	0.262783	0.613134	-0.781912	-0.214123	-0.080822	0.174937	-0.933105	-0.256592	-0.483643	0.089785	0.011236	0.003528	0.729926	0.147252	-0.658271	0.110470	37.689343	-83.470147	-16.654647
48068		9.509016	1.594140	0.515348	-0.017098	0.995111	-0.208642	-0.194355	-0.162207	0.143914	-0.939941	-0.250732	-0.483887	0.095074	0.016015	0.005215	0.729442	0.146106	-0.659099	0.110258	37.464585	-83.599422	-16.543352
48069		9.996920	1.854917	0.378725	0.053815	1.283800	0.280454	-0.262839	-0.131200	0.154997	-0.929932	-0.251709	-0.487793	0.099952	0.018632	0.003828	0.729102	0.144653	-0.659858	0.109880	37.049117	-83.718354	-16.280101
48070		9.970080	1.727580	0.073785	0.372559	1.290918	0.216628	-0.352374	0.020817	0.167968	-0.938721	-0.243408	-0.481201	0.099686	0.017361	0.000697	0.729319	0.142749	-0.660118	0.109366	36.038140	-83.771326	-15.469166
48071		9.556910	1.428411	-0.034734	0.539769	1.081964	-0.225506	-0.353142	0.125652	0.162746	-0.932617	-0.242188	-0.489014	0.095557	0.014361	-0.000433	0.729882	0.140800	-0.659991	0.108902	34.716680	-83.771819	-14.346649
48072		9.352370	1.303355	0.073445	0.467439	0.952165	-0.429414	-0.316803	0.068721	0.148482	-0.933838	-0.243896	-0.494141	0.093514	0.013104	0.000682	0.730237	0.139063	-0.660039	0.108467	33.645355	-83.792144	-13.454596
48073		9.406741	1.384677	0.288995	0.244803	0.969074	-0.352848	-0.298111	-0.010423	0.143089	-0.938721	-0.232178	-0.485840	0.094057	0.013918	0.002874	0.730318	0.137452	-0.660360	0.108018	32.828925	-83.847127	-12.808448
48074		9.385774	1.351753	0.122827	0.405463	1.010880	-0.392030	-0.301657	-0.031099	0.149066	-0.944092	-0.230469	-0.488770	0.093847	0.013589	0.001222	0.730328	0.135822	-0.660760	0.107565	32.030216	-83.912930	-12.182000
48075		9.483255	1.230657	0.004595	0.561614	0.949597	-0.313767	-0.283671	-0.043904	0.149705	-0.942139	-0.225342	-0.487305	0.094823	0.012378	0.000049	0.730281	0.134260	-0.661196	0.107164	31.258598	-83.984278	-11.572751
48076		9.573222	1.037021	-0.122901	0.746574	0.821948	-0.246909	-0.250842	-0.083852	0.154192	-0.942139	-0.230225	-0.488037	0.095725	0.010442	-0.001202	0.730075	0.132825	-0.661762	0.106861	30.581399	-84.075782	-11.039490
48077		9.765020	0.877040	-0.089283	0.774577	0.668582	-0.061493	-0.253470	-0.126377	0.159892	-0.938477	-0.212158	-0.479492	0.097644	0.008847	-0.000842	0.729725	0.131382	-0.662487	0.106541	29.974359	-84.189330	-10.578494
48078		9.859626	0.698762	-0.146117	0.880285	0.531125	0.019139	-0.247629	-0.120414	0.189800	-0.939941	-0.223633	-0.483887	0.098590	0.007079	-0.001411	0.729373	0.129860	-0.663204	0.106354	29.184363	-84.307813	-9.930203
48079		9.875824	0.649912	-0.111968	0.850291	0.489383	0.036389	-0.223278	-0.095139	0.202164	-0.944580	-0.217773	-0.489990	0.098752	0.006598	-0.001080	0.729081	0.128370	-0.663822	0.106308	28.242340	-84.415972	-9.115401
48080		9.752371	0.876053	-0.057108	0.699246	0.703955	-0.071284	-0.196211	-0.084542	0.201857	-0.940430	-0.216064	-0.484375	0.097515	0.008858	-0.000539	0.728805	0.126977	-0.664386	0.106359	27.255938	-84.517320	-8.240294
48081		9.604838	1.206704	-0.127743	0.630878	1.058597	-0.210256	-0.222713	-0.109192	0.205437	-0.948486	-0.212158	-0.487793	0.096037	0.012164	-0.001239	0.728460	0.125485	-0.665054	0.106317	26.264558	-84.630722	-7.375879
48082		9.509967	1.507586	-0.194765	0.574929	1.383020	-0.299176	-0.266160	-0.103546	0.206426	-0.941895	-0.207031	-0.478271	0.095085	0.015171	-0.001919	0.728157	0.123831	-0.665723	0.106139	25.189763	-84.739990	-6.452594
48083		9.325283	1.733587	-0.295767	0.570054	1.647340	-0.484505	-0.284222	-0.096977	0.180301	-0.939941	-0.202637	-0.483398	0.093239	0.017416	-0.002937	0.727900	0.122192	-0.666359	0.105809	24.194570	-84.837993	-5.620040
48084		9.268140	1.995438	-0.192346	0.376224	1.876628	-0.525389	-0.284649	-0.079074	0.143901	-0.947021	-0.197021	-0.479004	0.092668	0.020018	-0.001915	0.727719	0.120665	-0.666907	0.105355	23.336354	-84.917021	-4.925169
48085		9.319508	2.150279	0.293198	-0.128375	1.885211	-0.432263	-0.375491	0.015119	0.154626	-0.953857	-0.190918	-0.491211	0.093179	0.021580	0.002884	0.727900	0.118719	-0.667163	0.104694	22.101054	-84.947435	-3.904251
48086		9.467553	1.775473	1.347571	-0.987886	1.224527	-0.214390	-0.520863	0.158550	0.197234	-0.951904	-0.185059	-0.481445	0.094669	0.017883	0.013354	0.728618	0.116027	-0.666995	0.103786	20.186332	-84.907575	-2.284881
48087		9.538185	1.044876	1.911866	-1.283178	0.390212	-0.121193	-0.633063	0.101061	0.207884	-0.946289	-0.185059	-0.487549	0.095381	0.010608	0.019037	0.729196	0.112919	-0.667094	0.102510	18.285908	-84.896015	-0.744315
48088		10.142532	0.093544	2.455001	-1.462832	-0.645675	0.499919	-0.689550	-0.007759	0.183824	-0.950195	-0.176025	-0.485596	0.101423	0.001113	0.024550	0.729447	0.109741	-0.667596	0.100893	16.714752	-84.935703	0.433190
48089		10.869492	-1.066459	2.736783	-1.339154	-1.808898	1.219433	-0.632550	-0.008619	0.049880	-0.947021	-0.169434	-0.488281	0.108696	-0.010551	0.027406	0.729723	0.107215	-0.667992	0.098978	15.992161	-84.952084	0.791518
48090		11.184919	-1.904149	2.628447	-0.978826	-2.570592	1.504153	-0.429178	-0.005297	-0.118986	-0.958008	-0.174316	-0.493896	0.111837	-0.019052	0.026328	0.729978	0.105994	-0.668179	0.097126	16.432311	-84.939579	0.099504
48091		10.884393	-1.711133	2.294411	-0.744895	-2.304219	1.178125	-0.131692	-0.023526	-0.256742	-0.954346	-0.172363	-0.481201	0.108819	-0.017236	0.022968	0.730080	0.106326	-0.668213	0.095756	17.919507	-84.912689	-1.472538
48092		10.841823	-1.012663	2.814471	-1.435968	-1.806266	1.194909	-0.040044	0.046913	-0.277118	-0.952393	-0.174805	-0.482666	0.108411	-0.010271	0.028121	0.730376	0.107029	-0.667934	0.094654	19.416912	-84.840217	-3.002142
48093		11.195986	-0.962527	3.428515	-1.995929	-1.954733	1.598997	-0.212768	0.033722	-0.241515	-0.941406	-0.174805	-0.497803	0.111954	-0.009724	0.034277	0.730703	0.106987	-0.667802	0.093100	20.592007	-84.778660	-4.307730
48094		11.152538	-1.129139	2.920886	-1.466398	-1.994581	1.503535	-0.151464	-0.072271	-0.289594	-0.947021	-0.173828	-0.491211	0.111498	-0.011431	0.029258	0.730664	0.107379	-0.668001	0.091516	22.299060	-84.760557	-6.112295
48095		10.385160	-0.192389	1.367488	-0.316540	-0.691764	0.636219	0.159890	-0.219516	-0.403329	-0.951416	-0.169678	-0.487549	0.103832	-0.002144	0.013787	0.730014	0.109354	-0.668532	0.090478	25.198886	-84.786900	-8.935476
48096		9.669923	1.515195	0.125368	0.316438	1.254671	-0.109889	0.411868	-0.300728	-0.485706	-0.943604	-0.182861	-0.487305	0.096734	0.014914	0.001430	0.728986	0.112560	-0.669194	0.089935	28.966820	-84.818125	-12.485449
48097		9.684399	3.150463	0.220999	-0.254613	2.741004	-0.005362	0.471092	-0.208276	-0.453739	-0.946533	-0.193848	-0.477051	0.096913	0.031279	0.002385	0.728211	0.115832	-0.669503	0.089759	32.313984	-84.793147	-15.578626
48098		10.105381	4.145794	1.275926	-1.518409	3.338155	0.554829	0.223649	0.014718	-0.249208	-0.947021	-0.195557	-0.484863	0.101106	0.041318	0.012798	0.728230	0.117418	-0.669225	0.089627	33.647924	-84.713281	-16.792811
48099		10.072284	3.872036	2.297549	-2.406965	2.777906	0.589811	-0.369849	0.106821	0.078777	-0.954102	-0.187256	-0.482666	0.100720	0.038802	0.022850	0.728755	0.115704	-0.669067	0.088758	32.618272	-84.691742	-15.974806
48100		10.131878	2.296045	2.632701	-2.268220	1.214553	0.591042	-0.989956	-0.112716	0.341704	-0.949951	-0.176025	-0.488037	0.101264	0.023264	0.026269	0.728776	0.110946	-0.670126	0.086642	30.548049	-84.854095	-14.468955
48101		10.808657	-0.357375	2.121945	-1.019461	-1.147425	1.100657	-1.195361	-0.258681	0.379686	-0.950928	-0.162354	-0.477783	0.108065	-0.003241	0.021379	0.728380	0.105371	-0.671804	0.083895	28.485359	-85.095031	-13.089090
48102		11.201474	-2.781471	0.453095	1.223861	-3.020670	1.268494	-0.673165	0.029019	-0.036813	-0.957520	-0.167236	-0.495117	0.112010	-0.027820	0.004608	0.728832	0.102973	-0.671977	0.081530	28.167824	-85.074898	-13.161164
48103		10.774287	-1.856703	0.318317	1.094235	-2.100863	0.865454	0.327992	0.278130	-0.369296	-0.950684	-0.165283	-0.484131	0.107713	-0.018771	0.003003	0.729732	0.105239	-0.670657	0.081449	29.528743	-84.837924	-14.341960
48104		10.384083	-0.142012	1.094367	-0.087751	-0.674341	0.607690	0.228445	0.323015	-0.429056	-0.953613	-0.172852	-0.492920	0.103855	-0.001655	0.010774	0.730855	0.107322	-0.669177	0.080835	30.894546	-84.558957	-15.585776
48105		9.949828	-0.130645	1.562830	-0.538917	-0.801870	0.213528	-0.167488	0.337779	-0.288249	-0.953125	-0.178711	-0.497559	0.099522	-0.001437	0.015461	0.732177	0.107481	-0.667874	0.079422	31.177974	-84.312862	-15.970211
48106		9.598621	-0.853021	1.917857	-0.691495	-1.596281	-0.142476	-0.155117	0.282971	-0.248000	-0.943359	-0.180176	-0.499512	0.096003	-0.008634	0.019049	0.733291	0.107571	-0.666785	0.078165	31.409870	-84.105279	-16.296198
48107		9.611355	-0.613181	2.159865	-0.957922	-1.448809	-0.096600	0.177535	0.155131	-0.316599	-0.938232	-0.177734	-0.499023	0.096120	-0.006303	0.021519	0.733823	0.109161	-0.665996	0.077700	32.487315	-83.938820	-17.280506
48108		9.936674	0.225151	2.039581	-1.009329	-0.650784	0.262316	0.304617	0.029924	-0.326019	-0.939453	-0.187500	-0.502441	0.099373	0.002058	0.020384	0.733870	0.111295	-0.665608	0.077551	33.989423	-83.826993	-18.619252
48109		10.258697	0.662377	1.685297	-0.743304	-0.174391	0.576580	0.093877	-0.009899	-0.200508	-0.942383	-0.186523	-0.499023	0.102593	0.006513	0.016861	0.733850	0.112254	-0.665517	0.077142	34.903261	-83.771828	-19.487614
48110		10.387241	0.138872	1.335708	-0.252300	-0.599397	0.640793	-0.167303	0.060154	-0.037580	-0.938477	-0.183838	-0.502441	0.103877	0.001380	0.013325	0.734147	0.111684	-0.665359	0.076499	34.748432	-83.736249	-19.431856
48111		10.224433	-0.521256	1.371067	-0.119399	-1.233819	0.441773	-0.120705	0.186897	0.013448	-0.939209	-0.183350	-0.501953	0.102257	-0.005197	0.013618	0.734819	0.111069	-0.664747	0.076271	34.033215	-83.657370	-18.785121
48112		9.908653	-0.506117	1.509585	-0.268346	-1.237803	0.142823	0.057733	0.258610	-0.021274	-0.948242	-0.182373	-0.506348	0.099105	-0.005076	0.014966	0.735643	0.111195	-0.663782	0.076545	33.383336	-83.532277	-18.101531
48113		9.451583	0.029639	1.357714	-0.285451	-0.659833	-0.291145	0.074947	0.279930	-0.010177	-0.940430	-0.185547	-0.505371	0.094535	0.000287	0.013445	0.736521	0.111341	-0.662738	0.076932	32.665170	-83.399656	-17.338702
48114		9.167527	0.248732	1.051669	-0.058564	-0.349230	-0.588480	-0.065269	0.216914	0.044321	-0.940918	-0.175781	-0.512939	0.091686	0.002511	0.010416	0.737248	0.110812	-0.662008	0.077017	31.833380	-83.312922	-16.542575
48115		9.098842	-0.053386	0.819044	0.249282	-0.564408	-0.697760	-0.167184	0.145839	0.083743	-0.944824	-0.179443	-0.504883	0.090995	-0.000489	0.008125	0.737778	0.109806	-0.661601	0.076873	30.978318	-83.271518	-15.781325
48116		9.046882	-0.198888	0.685664	0.420426	-0.656357	-0.771218	-0.144138	0.171952	0.046820	-0.941650	-0.178223	-0.514648	0.090475	-0.001963	0.006780	0.738397	0.108995	-0.661068	0.076681	30.236642	-83.205087	-15.121376
48117		8.836426	-0.114464	0.513548	0.553088	-0.515955	-0.992986	-0.121805	0.168121	-0.007393	-0.937012	-0.185791	-0.511475	0.088368	-0.001145	0.005062	0.739009	0.108449	-0.660510	0.076363	29.754573	-83.124346	-14.709402
48118		8.745762	-0.016230	0.330645	0.705120	-0.368993	-1.096921	-0.120482	0.117044	-0.062622	-0.935303	-0.181152	-0.521484	0.087459	-0.000188	0.003255	0.739474	0.108108	-0.660109	0.075815	29.627617	-83.052961	-14.654605
48119		8.735914	0.095457	0.310159	0.705359	-0.259117	-1.103105	-0.110806	0.093603	-0.107405	-0.936768	-0.179932	-0.517090	0.087361	0.000909	0.003060	0.739871	0.107961	-0.659767	0.075123	29.743229	-82.980670	-14.838300
48120		8.727767	0.136691	0.389143	0.628541	-0.246667	-1.101309	-0.075791	0.099459	-0.142663	-0.936279	-0.172607	-0.514648	0.087281	0.001306	0.003848	0.740282	0.108056	-0.659370	0.074417	30.002682	-82.895217	-15.147109
48121		8.750732	0.140167	0.598031	0.440006	-0.307500	-1.056866	-0.081354	0.073918	-0.159509	-0.937500	-0.176758	-0.525391	0.087511	0.001334	0.005947	0.740617	0.108197	-0.659060	0.073619	30.377093	-82.817468	-15.574684
48122		8.914266	-0.024034	0.603651	0.501853	-0.484225	-0.905232	-0.106077	0.003942	-0.157691	-0.937744	-0.183350	-0.518555	0.089143	-0.000307	0.006035	0.740734	0.108263	-0.659019	0.072705	30.883227	-82.774241	-16.149921
48123		9.014807	-0.293564	0.412491	0.764848	-0.711384	-0.844298	-0.115417	-0.066812	-0.141406	-0.938477	-0.187744	-0.520264	0.090145	-0.002997	0.004157	0.740616	0.108270	-0.659252	0.071785	31.481661	-82.769937	-16.823066
48124		9.135834	-0.576705	0.039340	1.204446	-0.907060	-0.783616	-0.048987	-0.076692	-0.138461	-0.931641	-0.174316	-0.514648	0.091354	-0.005830	0.000430	0.740428	0.108515	-0.659498	0.071088	32.129550	-82.770321	-17.507966
48125		9.301669	-0.643944	-0.150720	1.420014	-0.943452	-0.644707	0.050413	-0.066831	-0.148619	-0.942139	-0.183350	-0.518799	0.093012	-0.006508	-0.001478	0.740221	0.109159	-0.659667	0.070688	32.849002	-82.761876	-18.207334
48126		9.467871	-0.443556	0.002429	1.240864	-0.809663	-0.450956	0.118928	-0.051399	-0.157839	-0.938965	-0.184814	-0.519531	0.094675	-0.004510	0.000046	0.740031	0.110079	-0.659749	0.070486	33.601652	-82.741954	-18.901108
48127		9.495605	-0.178079	0.274606	0.916389	-0.637972	-0.377284	0.141424	-0.022333	-0.145374	-0.940430	-0.193359	-0.525391	0.094954	-0.001852	0.002755	0.739919	0.111033	-0.659722	0.070422	34.243995	-82.711190	-19.470235
48128		9.457508	-0.015999	0.492353	0.663707	-0.547882	-0.381546	0.145139	-0.002733	-0.119945	-0.930664	-0.195801	-0.516357	0.094575	-0.000220	0.004925	0.739860	0.111908	-0.659634	0.070474	34.739880	-82.678674	-19.889967
48129		9.361996	0.010472	0.584209	0.559117	-0.551048	-0.465382	0.107591	-0.003945	-0.085352	-0.936768	-0.195068	-0.531250	0.093620	0.000062	0.005844	0.739805	0.112533	-0.659583	0.070532	35.088035	-82.657711	-20.182098
48130		9.458707	-0.121867	0.493230	0.690841	-0.666950	-0.389144	0.064047	-0.044746	-0.079913	-0.935547	-0.187500	-0.522461	0.094585	-0.001258	0.004953	0.739638	0.112991	-0.659702	0.070441	35.494383	-82.657368	-20.558357
48131		9.630924	-0.221002	0.367431	0.853210	-0.745945	-0.239070	0.056895	-0.078065	-0.084713	-0.941650	-0.193359	-0.514404	0.096307	-0.002252	0.003711	0.739367	0.113452	-0.659943	0.070292	36.001329	-82.670546	-21.039879
48132		9.813497	-0.328028	0.084476	1.168584	-0.793678	-0.095489	0.076881	-0.072791	-0.104315	-0.942627	-0.187256	-0.516357	0.098133	-0.003332	0.000879	0.739108	0.114047	-0.660146	0.070136	36.577149	-82.674069	-21.579739
48133		9.939683	-0.362074	-0.047057	1.316210	-0.809368	0.012948	0.125988	-0.029771	-0.127676	-0.933838	-0.190186	-0.516113	0.099395	-0.003684	-0.000458	0.738971	0.114888	-0.660160	0.070084	37.149461	-82.649141	-22.087255
48134		10.020584	-0.277387	0.051131	1.214273	-0.769173	0.108278	0.177232	0.050942	-0.145796	-0.940186	-0.202148	-0.516602	0.100204	-0.002847	0.000483	0.739077	0.115946	-0.659846	0.070176	37.592633	-82.580627	-22.435555
48135		9.889973	-0.139194	0.219695	1.013172	-0.685235	0.004803	0.200342	0.118213	-0.149682	-0.935059	-0.201660	-0.517578	0.098900	-0.001468	0.002137	0.739391	0.117083	-0.659272	0.070373	37.875936	-82.479945	-22.608773
48136		9.770335	-0.104688	0.423076	0.811213	-0.710277	-0.092255	0.220712	0.151866	-0.148374	-0.937744	-0.199219	-0.517334	0.097706	-0.001124	0.004155	0.739803	0.118276	-0.658566	0.070660	38.071102	-82.364491	-22.681643
48137		9.663889	-0.239121	0.593246	0.687236	-0.889310	-0.193089	0.205587	0.135311	-0.135919	-0.940674	-0.197510	-0.512207	0.096641	-0.002463	0.005865	0.740163	0.119380	-0.657933	0.070934	38.256119	-82.260814	-22.752740
48138		9.654376	-0.507265	0.508585	0.851465	-1.132846	-0.235913	0.168538	0.091170	-0.126902	-0.926025	-0.206299	-0.521729	0.096543	-0.005138	0.005038	0.740395	0.120329	-0.657481	0.071092	38.500821	-82.180221	-22.906003
48139		9.667847	-0.714984	0.388587	1.034213	-1.309549	-0.255233	0.195379	0.075903	-0.124823	-0.927979	-0.201172	-0.517822	0.096675	-0.007214	0.003842	0.740560	0.121380	-0.657076	0.071338	38.790199	-82.107022	-23.088383
48140		9.644844	-0.781958	0.218986	1.223779	-1.334982	-0.304659	0.269866	0.101337	-0.132183	-0.932129	-0.213135	-0.512207	0.096444	-0.007886	0.002130	0.740764	0.122717	-0.656545	0.071815	39.074853	-82.019825	-23.223405
48141		9.461405	-0.648986	0.206918	1.192776	-1.202048	-0.479171	0.329893	0.151815	-0.136602	-0.927490	-0.218018	-0.523926	0.094611	-0.006558	0.001987	0.741096	0.124277	-0.655801	0.072505	39.274866	-81.908418	-23.237778
48142		9.287652	-0.443242	0.318677	1.027264	-1.033407	-0.623821	0.366025	0.172623	-0.127186	-0.926270	-0.217773	-0.522461	0.092876	-0.004497	0.003098	0.741468	0.125929	-0.654970	0.073361	39.410448	-81.791345	-23.166389
48143		9.144068	-0.294796	0.345490	0.958709	-0.897436	-0.752019	0.372264	0.110432	-0.109670	-0.928711	-0.228027	-0.515381	0.091441	-0.003004	0.003399	0.741623	0.127572	-0.654375	0.074264	39.651589	-81.708037	-23.197796
48144		9.150085	-0.219299	0.228603	1.058915	-0.799031	-0.753734	0.371062	0.025638	-0.093527	-0.924805	-0.227539	-0.519043	0.091500	-0.002240	0.002270	0.741492	0.129186	-0.654103	0.075168	40.052331	-81.668093	-23.391380
48145		9.284141	-0.305914	-0.044441	1.362061	-0.816965	-0.660191	0.367606	-0.049022	-0.069358	-0.922852	-0.232178	-0.515137	0.092840	-0.003091	-0.000427	0.741107	0.130738	-0.654122	0.076101	40.566081	-81.669342	-23.701008
48146		9.305690	-0.459887	-0.297438	1.645577	-0.896318	-0.681175	0.392772	-0.076881	-0.057999	-0.927490	-0.232422	-0.517334	0.093057	-0.004620	-0.002948	0.740608	0.132354	-0.654241	0.077141	41.131618	-81.686689	-24.048506
48147		9.499618	-0.494493	-0.316968	1.696790	-0.939334	-0.494625	0.460588	-0.045737	-0.063150	-0.923828	-0.233643	-0.515381	0.094995	-0.004968	-0.003159	0.740165	0.134228	-0.654211	0.078404	41.672669	-81.688023	-24.331870
48148		9.528139	-0.425589	-0.239767	1.608809	-0.902297	-0.452045	0.530877	0.014058	-0.070163	-0.931396	-0.233398	-0.509766	0.095280	-0.004283	-0.002416	0.739867	0.136358	-0.653924	0.079911	42.116906	-81.661048	-24.476888
48149		9.331193	-0.398068	-0.299983	1.635702	-0.848129	-0.651641	0.531581	0.016358	-0.055312	-0.920898	-0.241455	-0.507324	0.093311	-0.003998	-0.003018	0.739567	0.138443	-0.653633	0.081475	42.511660	-81.638444	-24.571302
48150		9.343893	-0.468976	-0.380530	1.737471	-0.892120	-0.655265	0.517850	-0.009394	-0.045110	-0.932861	-0.239990	-0.514160	0.093438	-0.004701	-0.003813	0.739181	0.140450	-0.653447	0.083015	42.935364	-81.630824	-24.703108
48151		9.447264	-0.565673	-0.496850	1.892996	-0.953434	-0.575525	0.552640	0.008662	-0.049681	-0.927490	-0.245605	-0.499023	0.094471	-0.005666	-0.004988	0.738828	0.142595	-0.653171	0.084663	43.344139	-81.613448	-24.799507
48152		9.397129	-0.549494	-0.627917	2.009746	-0.891799	-0.638383	0.637159	0.040730	-0.056868	-0.927002	-0.244385	-0.508057	0.093968	-0.005502	-0.006316	0.738515	0.145059	-0.652731	0.086582	43.733947	-81.580133	-24.827990
48153		9.319250	-0.456979	-0.598110	1.950363	-0.806979	-0.704458	0.697739	0.083228	-0.060302	-0.922852	-0.251221	-0.508301	0.093189	-0.004577	-0.006036	0.738291	0.147739	-0.652096	0.088717	44.053579	-81.527567	-24.750236
48154		9.337896	-0.269149	-0.472370	1.784024	-0.670377	-0.655192	0.731211	0.090611	-0.053607	-0.932617	-0.262451	-0.503174	0.093376	-0.002699	-0.004776	0.738052	0.150513	-0.651418	0.090989	44.351949	-81.475053	-24.631899
48155		9.390901	-0.152001	-0.394127	1.688010	-0.587752	-0.583785	0.703951	0.078839	-0.045295	-0.927490	-0.271973	-0.499023	0.093907	-0.001527	-0.003984	0.737784	0.153166	-0.650792	0.093194	44.643303	-81.430430	-24.521931
48156		9.501134	-0.197382	0.158538	1.216556	-0.824343	-0.422477	0.671252	0.201439	-0.002139	-0.927490	-0.265869	-0.500977	0.095013	-0.001980	0.001483	0.737909	0.155499	-0.649755	0.095546	44.473897	-81.353498	-23.964762
48157		10.002948	-0.436854	2.271732	-0.555367	-1.814582	0.277361	0.690804	0.599771	0.083781	-0.922607	-0.265137	-0.501221	0.100099	-0.004404	0.022402	0.739261	0.157432	-0.647294	0.098585	43.075558	-81.144295	-22.152766
48158		11.422056	0.227276	6.074398	-3.996276	-2.636929	2.207602	0.877272	1.272029	0.085480	-0.908447	-0.269531	-0.516113	0.114603	0.002057	0.060025	0.742610	0.159708	-0.642234	0.102760	40.300380	-80.638422	-18.836541
48159		13.226878	3.996888	9.549949	-8.090874	-0.539693	4.896799	1.025485	1.419237	-0.101655	-0.905762	-0.285156	-0.526855	0.132963	0.039414	0.094761	0.746361	0.163052	-0.636355	0.106825	38.117230	-79.976800	-16.029041
48160		13.802426	7.943747	9.694238	-9.533402	2.909490	5.942743	1.146006	-0.549482	-0.121185	-0.907471	-0.289063	-0.519775	0.137804	0.078795	0.097774	0.743716	0.167948	-0.637707	0.109591	40.192384	-80.182762	-17.472430
48161		12.351837	7.417621	5.082075	-5.583705	4.131360	3.794639	0.671578	-2.383313	0.039731	-0.914795	-0.284912	-0.495361	0.122884	0.074026	0.052536	0.735462	0.171557	-0.646210	0.109891	46.155352	-81.201137	-23.127956
48162		11.106870	6.758237	0.669797	-1.745693	5.242600	1.974965	-0.465237	-2.180966	0.307491	-0.936279	-0.295166	-0.478271	0.110884	0.067770	0.007750	0.728587	0.169983	-0.654733	0.107661	51.508379	-82.163611	-28.810420
48163		10.145355	4.209223	-3.579638	2.903401	4.587396	0.384647	-2.532441	-1.014714	0.759815	-0.943115	-0.279541	-0.475830	0.101475	0.042024	-0.035814	0.726923	0.158745	-0.660397	0.101285	51.433620	-82.872494	-30.201714
48164		8.491489	-1.263273	-3.792002	4.858011	-0.302170	-1.788437	-2.493644	0.016117	1.746999	-0.940186	-0.230469	-0.476318	0.085021	-0.012362	-0.037772	0.727974	0.143835	-0.662933	0.099421	44.247685	-83.614989	-24.407355
48165		9.033346	-6.617933	-3.093161	5.996948	-5.560434	-1.561422	-1.926629	0.715853	1.229289	-0.941406	-0.216064	-0.489258	0.090629	-0.065919	-0.030620	0.731057	0.132326	-0.662144	0.098037	35.843079	-83.759980	-17.065490
48166		8.794868	-7.788202	-0.291602	3.741915	-7.509060	-1.584653	0.764240	1.173203	0.378245	-0.938965	-0.218750	-0.494873	0.088075	-0.077702	-0.003730	0.734217	0.133228	-0.657738	0.102744	31.353957	-83.325144	-12.110667
48167		8.168036	-3.218598	3.737341	-1.427302	-4.501122	-1.521557	2.877200	0.954860	-0.191473	-0.933838	-0.234131	-0.503174	0.081825	-0.032794	0.036514	0.735442	0.143859	-0.652574	0.112147	31.391201	-82.805798	-10.490786
48168		9.433916	1.366295	7.850584	-6.558657	-1.841722	0.487108	2.391836	0.466566	-0.137105	-0.931396	-0.250244	-0.497070	0.094531	0.012660	0.078441	0.735251	0.152773	-0.649396	0.119797	32.147624	-82.542465	-9.874882
48169		10.501345	3.497235	7.242144	-6.649614	0.222497	1.619287	0.447247	-0.539675	0.096909	-0.922852	-0.251953	-0.487061	0.104800	0.034861	0.072782	0.733082	0.154370	-0.651205	0.121212	33.306102	-82.837632	-10.787755
48170		10.540446	2.737959	4.302337	-3.775366	0.621511	1.253718	0.140909	-1.395900	0.501955	-0.928955	-0.253662	-0.471924	0.105032	0.027613	0.043777	0.728089	0.154041	-0.656630	0.122452	35.140061	-83.666011	-12.556032
48171		11.123564	2.307761	2.472736	-2.050308	0.879093	1.597556	0.088683	-1.803772	0.167288	-0.946777	-0.246338	-0.458984	0.110987	0.023159	0.025739	0.721953	0.154858	-0.663268	0.121977	40.562943	-84.547224	-17.959693
48172		12.110672	3.259254	-1.975629	1.603837	3.362565	2.324556	0.412655	-1.216568	-0.394888	-0.958496	-0.252441	-0.451660	0.121288	0.032393	-0.018952	0.717810	0.158344	-0.667110	0.120997	47.780046	-84.895862	-24.972682
48173		10.784397	4.826615	-2.038106	0.877318	4.827049	1.127294	1.293414	0.412448	-0.242123	-0.947266	-0.263672	-0.452881	0.107860	0.048267	-0.020291	0.718278	0.163486	-0.664664	0.124784	47.597929	-84.640146	-24.048879
48174		8.879233	4.663062	0.016052	-1.067246	3.936589	-0.650325	0.890032	1.389022	-0.097187	-0.938477	-0.261475	-0.453369	0.088814	0.046588	-0.000249	0.722191	0.166078	-0.659041	0.128544	42.766430	-84.044785	-18.684473
48175		8.134015	3.960755	2.501412	-3.045518	2.333265	-1.246061	0.496853	1.100293	0.208358	-0.932861	-0.257813	-0.472900	0.081435	0.039631	0.024665	0.725243	0.166421	-0.654934	0.131864	38.369150	-83.648754	-13.978695
48176		8.731435	3.565051	3.842888	-4.006915	1.446330	-0.562400	-0.356735	0.057904	0.435618	-0.938232	-0.268066	-0.472168	0.087247	0.035909	0.038340	0.725427	0.163604	-0.655343	0.132343	36.137205	-83.778870	-11.942271
48177		9.864095	2.856840	3.463361	-3.317393	0.990838	0.457087	-1.058313	-1.101073	0.658534	-0.948242	-0.243164	-0.458252	0.098354	0.029077	0.035023	0.722210	0.158276	-0.660578	0.130378	36.145818	-84.516136	-12.563721
48178		11.096341	1.141721	2.262987	-1.582536	-0.078075	1.458496	-1.500359	-1.653461	0.607855	-0.960205	-0.230713	-0.450928	0.110736	0.011928	0.023458	0.717478	0.151865	-0.667987	0.126320	38.654331	-85.485951	-15.947612
48179		12.144605	-1.536549	-1.983710	3.278314	-0.949553	2.109433	-1.030040	-0.972737	-0.036114	-0.965820	-0.234131	-0.448486	0.121538	-0.015487	-0.019167	0.715002	0.148846	-0.672106	0.122027	43.064292	-85.899906	-20.965100
48180		11.113636	-0.247245	-1.965509	2.666419	0.211356	1.154657	0.705025	0.111189	-0.492936	-0.956299	-0.248535	-0.445801	0.111119	-0.002677	-0.019726	0.715132	0.152897	-0.670928	0.122735	45.555043	-85.662792	-23.060803
48181		10.226817	2.438202	0.327539	-0.491693	1.792126	0.540373	0.876653	0.460218	-0.709358	-0.954590	-0.254639	-0.446289	0.102361	0.024005	0.003146	0.716415	0.158071	-0.668214	0.123507	47.139032	-85.192573	-24.149192
48182		9.534990	3.311952	1.550759	-1.964035	2.090403	-0.011543	0.441046	0.293806	-0.455826	-0.950928	-0.261963	-0.443848	0.095448	0.032868	0.015440	0.717312	0.160941	-0.666546	0.123598	47.956659	-84.891790	-24.718998
48183		9.207618	3.045894	1.807857	-2.103903	1.733264	-0.331367	-0.311399	-0.099705	-0.148033	-0.947754	-0.262207	-0.442627	0.092090	0.030419	0.018077	0.717308	0.160324	-0.667001	0.121967	48.849512	-84.872278	-25.797804
48184		9.370368	1.974129	1.115429	-1.050876	1.015074	-0.283239	-0.899535	-0.421922	0.075002	-0.946045	-0.258301	-0.450439	0.093673	0.019827	0.011263	0.716554	0.157052	-0.669137	0.118916	50.072478	-85.067931	-27.545616
48185		9.780161	0.340892	-0.092900	0.687904	-0.037737	-0.050429	-0.866895	-0.278306	0.132507	-0.950928	-0.249756	-0.446045	0.097801	0.003470	-0.000808	0.716203	0.153612	-0.670770	0.116289	50.414607	-85.234356	-28.390697
48186		9.625038	-0.304015	-0.130502	0.946523	-0.610313	-0.248044	-0.232120	0.198109	-0.023089	-0.958008	-0.253906	-0.439453	0.096249	-0.003053	-0.001397	0.717048	0.152690	-0.670198	0.115599	49.314045	-85.156699	-27.422707
48187		9.055833	0.782128	0.877917	-0.405993	0.043931	-0.689984	0.216622	0.379333	-0.132837	-0.950928	-0.253174	-0.444092	0.090580	0.007752	0.008616	0.718216	0.153636	-0.668633	0.116156	48.094991	-84.962076	-26.077776
48188		8.870590	1.762472	1.544473	-1.375792	0.706538	-0.769068	0.090791	0.186989	-0.098012	-0.952148	-0.251465	-0.449707	0.088729	0.017574	0.015370	0.718813	0.154131	-0.667857	0.116272	47.645614	-84.854529	-25.577045
48189		9.064215	1.975443	1.352793	-1.254039	0.970483	-0.572668	-0.239492	-0.026521	0.027775	-0.945801	-0.245605	-0.452393	0.090638	0.019783	0.013516	0.718879	0.153137	-0.668136	0.115570	47.478368	-84.882477	-25.550143
48190		9.412740	1.663014	0.772237	-0.573846	0.895325	-0.282172	-0.379455	-0.022470	0.090545	-0.955566	-0.241943	-0.457275	0.094119	0.016687	0.007701	0.719029	0.151428	-0.668526	0.114630	46.933510	-84.935144	-25.224572
48191		9.531195	1.458268	0.457980	-0.192315	0.831940	-0.197552	-0.283037	0.141320	0.079659	-0.954102	-0.244873	-0.462891	0.095309	0.014627	0.004492	0.719655	0.150008	-0.668263	0.114095	45.719515	-84.918128	-24.171854
48192		9.317820	1.653866	0.766746	-0.549140	0.923498	-0.379211	-0.193234	0.268826	0.038537	-0.952637	-0.247070	-0.455322	0.093185	0.016564	0.007526	0.720664	0.148973	-0.667456	0.113808	44.179989	-84.830367	-22.740676
48193		9.110438	1.731143	0.990264	-0.777591	0.936679	-0.566311	-0.253107	0.270281	0.027934	-0.948486	-0.250244	-0.461182	0.091115	0.017337	0.009758	0.721725	0.147758	-0.666669	0.113284	42.702173	-84.734652	-21.405582
48194		8.858613	1.504859	0.891868	-0.602983	0.786721	-0.837585	-0.362143	0.235054	0.038876	-0.953369	-0.245850	-0.471924	0.088594	0.015082	0.008787	0.722739	0.146137	-0.666075	0.112411	41.306444	-84.654913	-20.215031
48195		8.663851	1.128319	0.754659	-0.338370	0.507316	-1.064372	-0.364657	0.205251	0.044539	-0.951416	-0.244629	-0.462402	0.086644	0.011316	0.007437	0.723650	0.144500	-0.665592	0.111526	40.036673	-84.587908	-19.152750
48196		8.456026	0.812287	0.611627	-0.096690	0.282148	-1.300972	-0.305325	0.155551	0.018826	-0.947754	-0.232422	-0.477783	0.084564	0.008140	0.006038	0.724364	0.143193	-0.665234	0.110710	39.136726	-84.531370	-18.427321
48197		8.387347	0.756106	0.505196	0.025438	0.276398	-1.380756	-0.237170	0.066201	-0.003561	-0.950439	-0.243164	-0.475342	0.083875	0.007566	0.005015	0.724742	0.142254	-0.665145	0.109975	38.726756	-84.506032	-18.155228
48198		8.493409	0.833865	0.411393	0.097572	0.381623	-1.277617	-0.220414	-0.035905	-0.003786	-0.952393	-0.229248	-0.469482	0.084934	0.008342	0.004120	0.724770	0.141433	-0.665414	0.109222	38.708439	-84.525896	-18.266860
48199		8.535759	0.736470	0.155588	0.370499	0.380496	-1.260277	-0.284716	-0.067528	0.030817	-0.950684	-0.234131	-0.475586	0.085356	0.007380	0.001574	0.724716	0.140280	-0.665858	0.108357	38.611388	-84.572570	-18.336488
48200		8.435672	0.568802	-0.271419	0.812592	0.378008	-1.401114	-0.313650	-0.072787	0.069594	-0.950439	-0.238037	-0.472900	0.084356	0.005713	-0.002692	0.724642	0.138895	-0.666362	0.107533	38.331571	-84.635351	-18.239155
48201		8.512092	0.441650	-0.397614	0.973320	0.304293	-1.341034	-0.301380	-0.089854	0.090221	-0.949463	-0.227295	-0.471680	0.085121	0.004449	-0.003945	0.724490	0.137495	-0.666934	0.106813	38.020170	-84.713173	-18.103078
48202		8.616813	0.444881	-0.558871	1.124176	0.364194	-1.247449	-0.284756	-0.080444	0.092484	-0.954834	-0.227295	-0.470215	0.086168	0.004481	-0.005560	0.724355	0.136145	-0.667461	0.106163	37.664387	-84.787282	-17.912611
48203		8.652939	0.671045	-0.765408	1.239033	0.650408	-1.213195	-0.227144	-0.044264	0.071922	-0.955566	-0.224365	-0.474609	0.086529	0.006733	-0.007643	0.724310	0.135050	-0.667813	0.105654	37.298072	-84.837836	-17.678716
48204		8.790084	1.055865	-0.764460	1.117757	1.013147	-1.055463	-0.163547	-0.034670	0.070499	-0.955078	-0.214844	-0.468262	0.087898	0.010583	-0.007638	0.724254	0.134186	-0.668094	0.105359	36.932673	-84.883289	-17.409023
48205		8.904485	1.366432	-0.638591	0.900949	1.266402	-0.916098	-0.153219	-0.068008	0.100223	-0.958008	-0.220703	-0.469238	0.089040	0.013704	-0.006366	0.724063	0.133276	-0.668510	0.105184	36.541830	-84.954166	-17.108018
48206		9.106300	1.410145	-0.611968	0.870149	1.303006	-0.711440	-0.182596	-0.080612	0.160590	-0.952637	-0.212402	-0.469971	0.091054	0.014169	-0.006096	0.723817	0.132065	-0.669027	0.105120	35.850885	-85.051064	-16.522703
48207		9.079000	1.114507	-0.671036	1.010267	1.058354	-0.758413	-0.200174	-0.080739	0.207434	-0.959717	-0.217041	-0.471924	0.090781	0.011233	-0.006685	0.723557	0.130633	-0.669583	0.105167	34.865823	-85.162778	-15.652394
48208		8.918653	0.718920	-0.802317	1.239593	0.748534	-0.946684	-0.160094	-0.052574	0.225108	-0.948730	-0.200928	-0.474854	0.089180	0.007283	-0.008006	0.723353	0.129272	-0.670025	0.105430	33.650491	-85.265352	-14.528080
48209		8.924802	0.663527	-0.875638	1.315311	0.737417	-0.947856	-0.071194	-0.084455	0.227445	-0.958740	-0.203369	-0.469238	0.089244	0.006734	-0.008721	0.722982	0.128242	-0.670537	0.105978	32.542526	-85.382095	-13.460587
48210		8.997748	0.761061	-0.706699	1.113285	0.790319	-0.858692	-0.021767	-0.143991	0.251351	-0.952393	-0.207764	-0.475586	0.089973	0.007723	-0.007003	0.722367	0.127338	-0.671251	0.106738	31.484241	-85.533318	-12.415040
48211		9.074030	0.710031	-0.683608	1.092259	0.752707	-0.782194	-0.064712	-0.169733	0.297050	-0.949951	-0.192139	-0.465332	0.090735	0.007233	-0.006761	0.721665	0.126142	-0.672108	0.107505	30.126827	-85.708887	-11.094083
48212		9.322457	0.430210	-0.745305	1.231751	0.526790	-0.546949	-0.088326	-0.249756	0.342648	-0.961670	-0.192139	-0.461426	0.093226	0.004459	-0.007339	0.720683	0.124750	-0.673293	0.108304	28.629187	-85.934560	-9.646613
48213		9.781805	0.232996	-0.849809	1.388605	0.391589	-0.097832	-0.071074	-0.344394	0.357447	-0.965088	-0.195557	-0.465576	0.097828	0.002502	-0.008331	0.719359	0.123420	-0.674815	0.109157	27.227208	-86.209479	-8.285397
48214		9.854074	0.258109	-1.093772	1.572236	0.514889	-0.033704	0.002691	-0.350164	0.320494	-0.971924	-0.189453	-0.458252	0.098555	0.002739	-0.010765	0.717985	0.122484	-0.676291	0.110120	25.988310	-86.475666	-7.045737
48215		9.900144	0.608079	-1.019457	1.349854	0.840139	0.030778	0.061117	-0.319349	0.287574	-0.969727	-0.179688	-0.453125	0.099009	0.006226	-0.010035	0.716693	0.121850	-0.677600	0.111182	24.752588	-86.716025	-5.775993
48216		10.188527	0.763288	-0.244132	0.551008	0.752792	0.364635	0.063345	-0.160155	0.270263	-0.969482	-0.170410	-0.457520	0.101877	0.007771	-0.002357	0.715947	0.121194	-0.678325	0.112284	22.829161	-86.866878	-3.816618
48217		10.212012	1.025019	0.175756	0.055615	0.883517	0.413896	0.067173	0.026552	0.178245	-0.974854	-0.178223	-0.457275	0.102111	0.010341	0.001747	0.715882	0.120759	-0.678322	0.113185	20.926123	-86.894933	-1.875451
48218		9.947565	1.701853	0.397026	-0.389039	1.464748	0.172860	0.112950	0.075057	0.056696	-0.968262	-0.166992	-0.460693	0.099472	0.017044	0.003943	0.716022	0.120869	-0.678046	0.113832	20.054258	-86.870059	-0.941271
48219		10.411960	2.448511	1.445952	-1.598067	1.833822	0.702928	0.013133	-0.009099	0.069684	-0.962402	-0.175049	-0.454346	0.104110	0.024520	0.014466	0.715929	0.120629	-0.678134	0.114139	19.302978	-86.892324	-0.184579
48220		11.418327	2.213703	2.894715	-2.846258	1.156630	1.772603	-0.382538	-0.154555	0.210191	-0.970459	-0.174316	-0.451172	0.114137	0.022312	0.028993	0.715501	0.118575	-0.679053	0.113515	17.352012	-87.018045	1.545790
48221		12.696826	0.552863	3.641572	-2.981638	-0.614398	3.052307	-0.882709	-0.248838	0.217917	-0.974609	-0.163818	-0.448730	0.126917	0.005828	0.036548	0.715033	0.114761	-0.680587	0.111167	15.151364	-87.193467	3.239607
48222		13.908929	-1.915582	3.485280	-2.022136	-2.866074	4.221965	-0.776381	0.127047	-0.010346	-0.975098	-0.155518	-0.454590	0.139110	-0.019028	0.034838	0.715897	0.111892	-0.680575	0.108577	14.333625	-87.125068	3.609502
48223		14.098123	-3.166932	4.123971	-2.198645	-4.249035	4.431778	-0.238575	0.536711	-0.381307	-0.966797	-0.163574	-0.457520	0.141031	-0.031889	0.040899	0.718045	0.111988	-0.678587	0.106718	16.506378	-86.773967	1.293552
48224		11.774426	-2.287088	3.635334	-2.053163	-3.302131	2.102141	0.044462	0.524322	-0.662565	-0.960449	-0.164307	-0.465820	0.117762	-0.023269	0.036039	0.720133	0.114056	-0.676326	0.104800	20.837687	-86.371367	-3.023609
48225		9.558751	-0.758110	2.072397	-1.118504	-1.420692	-0.170622	0.170002	0.080607	-0.715500	-0.959229	-0.169922	-0.471680	0.095568	-0.007941	0.020679	0.720665	0.116988	-0.675555	0.102862	26.336157	-86.169043	-8.439354
48226		9.378126	1.381110	0.757812	-0.548377	0.934741	-0.365184	0.496760	-0.806134	-0.891234	-0.973389	-0.193115	-0.447754	0.093810	0.013374	0.007990	0.718083	0.122140	-0.677690	0.100871	36.846507	-86.300319	-18.690952
48227		11.082458	4.668741	-0.189329	-0.655671	4.169053	1.449561	1.020521	-1.224738	-1.265474	-0.971436	-0.205322	-0.440186	0.111125	0.045991	-0.000978	0.713898	0.130647	-0.680786	0.099051	53.010463	-86.290797	-34.305635
48228		12.883795	8.075732	-0.721898	-1.253780	7.294122	3.489523	1.414684	-0.383901	-1.404270	-0.963867	-0.218262	-0.438965	0.129414	0.079897	-0.006404	0.712312	0.140605	-0.680527	0.098616	62.620061	-85.731758	-43.129082
48229		12.925924	9.873768	0.241527	-2.732287	8.505805	3.781872	0.729508	1.301897	-0.984163	-0.960693	-0.233154	-0.449951	0.129757	0.098092	0.001930	0.716674	0.145848	-0.674834	0.098522	58.481452	-84.879764	-38.560538
48230		10.218519	7.000379	2.930178	-4.274921	5.057539	1.056940	-0.827799	2.179249	0.081923	-0.956055	-0.230225	-0.472168	0.102466	0.070163	0.027896	0.724531	0.141462	-0.667468	0.097619	47.282077	-84.166595	-27.790755
48231		8.228425	3.072997	3.870565	-3.863608	1.313947	-1.125179	-2.622401	0.993460	0.926790	-0.947266	-0.207031	-0.492676	0.082329	0.031612	0.037886	0.729157	0.128313	-0.665754	0.092935	38.173686	-84.114334	-20.148333
48232		9.354286	0.147749	3.492557	-2.528026	-1.146827	-0.220562	-3.753580	-0.769871	1.701339	-0.951416	-0.169434	-0.490234	0.093387	0.002932	0.035239	0.728041	0.109236	-0.671270	0.086144	30.082959	-85.032339	-14.185768
48233		10.739565	-9.890610	0.205203	3.133483	-9.815520	0.532217	-4.203594	-1.029286	0.807557	-0.956787	-0.134277	-0.480225	0.107774	-0.098391	0.004678	0.726345	0.091586	-0.677125	0.074412	25.979918	-85.775011	-12.489057
48234		11.047145	-10.234205	-6.438147	9.467239	-8.639571	0.383139	0.346662	0.587038	-0.809538	-0.955566	-0.157471	-0.493408	0.109866	-0.102675	-0.064882	0.728456	0.095295	-0.674502	0.072931	29.351543	-85.266172	-15.676311
48235		8.403372	-2.268752	-0.182392	1.436501	-2.394620	-1.566639	2.597294	0.430627	-1.511502	-0.949219	-0.181885	-0.489258	0.083855	-0.023294	-0.002304	0.729126	0.109628	-0.671208	0.076402	37.409064	-84.587619	-22.274571
48236		10.497508	2.010124	1.709858	-1.250320	1.029767	0.889451	1.148770	-0.256034	-1.344061	-0.956543	-0.195801	-0.484863	0.105084	0.019296	0.017345	0.728112	0.118364	-0.670957	0.075230	44.918903	-84.195460	-29.162528
48237		10.757948	2.860749	1.727768	-1.471368	1.735413	1.220258	-0.158647	-0.031834	-0.226693	-0.952637	-0.191406	-0.483398	0.107609	0.028499	0.017272	0.728172	0.118502	-0.671018	0.073873	45.813237	-84.121679	-30.156152
48238		10.246155	1.101860	1.187119	-0.520844	0.243176	0.544737	-1.113672	0.150790	0.482274	-0.956543	-0.180176	-0.489014	0.102443	0.011331	0.011731	0.729134	0.112708	-0.671176	0.071997	42.598568	-84.258546	-27.570343
48239		10.234820	-1.326639	0.388187	0.867979	-1.826443	0.315128	-0.920446	0.139258	0.529072	-0.956055	-0.179199	-0.497803	0.102385	-0.012978	0.003871	0.729907	0.107468	-0.671308	0.070934	39.197654	-84.402323	-24.685939
48240		10.021167	-2.068406	0.546592	0.885399	-2.531814	0.077041	-0.139015	0.324941	0.207469	-0.952637	-0.176025	-0.498291	0.100242	-0.020576	0.005317	0.730987	0.106088	-0.670301	0.071415	36.960484	-84.334359	-22.521909
48241		9.370691	-0.730174	1.296299	-0.198330	-1.379923	-0.427606	0.266115	0.373498	0.066048	-0.946533	-0.169434	-0.490479	0.093733	-0.007288	0.012778	0.732060	0.106649	-0.668894	0.072766	35.507349	-84.189367	-20.911468
48242		8.982173	0.164154	1.358053	-0.494014	-0.500089	-0.754183	-0.094593	0.189247	0.168258	-0.956787	-0.165771	-0.503906	0.089833	0.001724	0.013495	0.732671	0.105612	-0.668344	0.073183	34.026842	-84.160327	-19.481494
48243		8.815206	-0.383506	0.785138	0.180988	-0.853832	-0.997387	-0.471473	0.033362	0.293896	-0.957275	-0.156982	-0.504883	0.088159	-0.003687	0.007845	0.732908	0.102834	-0.668567	0.072721	32.219911	-84.241384	-17.940043
48244		8.730120	-1.153689	0.016741	1.094837	-1.382274	-1.185006	-0.380154	0.007812	0.218745	-0.950928	-0.163330	-0.500732	0.087314	-0.011441	0.000186	0.733038	0.100645	-0.668807	0.072271	30.865068	-84.307939	-16.801343
48245		8.730170	-0.893714	-0.073070	1.116037	-1.096600	-1.177187	0.001953	0.045356	0.038510	-0.950684	-0.166992	-0.510498	0.087303	-0.008920	-0.000751	0.733163	0.100451	-0.668679	0.072462	30.494736	-84.301704	-16.431300
48246		8.760077	-0.068353	0.233634	0.629699	-0.370630	-1.079743	0.113196	0.095129	-0.051339	-0.950439	-0.164795	-0.504883	0.087602	-0.000707	0.002294	0.733431	0.100944	-0.668282	0.072717	30.488088	-84.244514	-16.363070
48247		8.567653	0.227805	0.261075	0.523600	-0.084990	-1.254455	-0.031847	0.144695	-0.029392	-0.954590	-0.162109	-0.507813	0.085679	0.002266	0.002548	0.733929	0.100816	-0.667768	0.072596	30.152851	-84.169275	-16.047703
48248		8.331051	-0.141388	0.214008	0.646196	-0.421528	-1.513474	-0.198799	0.138985	0.007374	-0.950439	-0.155029	-0.507324	0.083312	-0.001409	0.002084	0.734479	0.099953	-0.667353	0.072047	29.568955	-84.107006	-15.578948
48249		8.187418	-0.611704	0.088557	0.873800	-0.841533	-1.692088	-0.184983	0.085281	-0.048249	-0.956787	-0.160400	-0.500488	0.081873	-0.006136	0.000856	0.734861	0.099347	-0.667101	0.071315	29.415569	-84.055627	-15.534547
48250		8.121595	-0.579798	0.034575	0.917587	-0.802521	-1.762119	-0.000793	0.035242	-0.173200	-0.946533	-0.164063	-0.508301	0.081211	-0.005868	0.000331	0.735029	0.099850	-0.666905	0.070710	30.094974	-83.993557	-16.221897
48251		8.215156	0.050674	0.200412	0.623105	-0.251277	-1.622445	0.151275	0.010974	-0.299146	-0.945801	-0.170410	-0.512695	0.082152	0.000382	0.002000	0.735083	0.101343	-0.666681	0.070141	31.494867	-83.905265	-17.545723
48252		8.450203	0.471207	0.308149	0.446883	0.099314	-1.356134	0.058647	-0.037516	-0.289355	-0.954102	-0.163574	-0.505127	0.084508	0.004589	0.003099	0.735017	0.102477	-0.666670	0.069272	32.897645	-83.840001	-18.926383
48253		8.546041	0.587585	0.108495	0.625184	0.234934	-1.271859	-0.049547	-0.005795	-0.261604	-0.949951	-0.165283	-0.508789	0.085468	0.005764	0.001086	0.735101	0.103112	-0.666594	0.068162	33.995534	-83.765222	-20.062534
48254		8.616460	0.592940	-0.017234	0.760424	0.248963	-1.212979	-0.044568	0.074607	-0.234832	-0.955078	-0.169678	-0.510986	0.086171	0.005828	-0.000206	0.735442	0.103645	-0.666233	0.067206	34.717352	-83.659095	-20.818274
48255		8.708628	0.663929	0.096938	0.654942	0.269828	-1.107022	-0.002168	0.105660	-0.228139	-0.942383	-0.170898	-0.520508	0.087094	0.006540	0.000923	0.735859	0.104305	-0.665746	0.066434	35.320872	-83.539686	-21.430084
48256		9.044819	0.643247	0.274653	0.534240	0.176863	-0.758339	0.016379	0.050864	-0.203550	-0.949707	-0.176758	-0.508545	0.090455	0.006340	0.002724	0.736076	0.104966	-0.665467	0.065783	35.973206	-83.453214	-22.081075
48257		9.577551	0.132765	0.287744	0.704435	-0.358626	-0.262554	-0.108016	0.000924	-0.158074	-0.940430	-0.172607	-0.511230	0.095777	0.001254	0.002876	0.736176	0.105037	-0.665436	0.064862	36.504841	-83.404513	-22.681779
48258		10.069472	-0.594228	0.115209	1.098082	-1.055862	0.159273	-0.171806	0.030275	-0.130075	-0.946289	-0.177002	-0.518799	0.100691	-0.006007	0.001142	0.736398	0.104768	-0.665331	0.063845	36.794465	-83.351385	-23.076215
48259		10.246455	-1.300326	0.030432	1.372804	-1.740325	0.275338	-0.095672	0.120950	-0.166412	-0.942139	-0.178467	-0.507568	0.102454	-0.013088	0.000249	0.736891	0.104874	-0.664849	0.062998	36.997773	-83.244035	-23.339372
48260		10.214123	-1.606835	0.079295	1.414053	-2.061358	0.220641	0.088328	0.225119	-0.214735	-0.936279	-0.175049	-0.513916	0.102125	-0.016178	0.000671	0.737649	0.105783	-0.663898	0.062636	37.181591	-83.072281	-23.477253
48261		9.851711	-1.357786	0.097356	1.330206	-1.821302	-0.126483	0.251792	0.291089	-0.244570	-0.941650	-0.170410	-0.520020	0.098502	-0.013699	0.000813	0.738545	0.107376	-0.662634	0.062744	37.375978	-82.860037	-23.531012
48262		9.513761	-0.926492	0.193304	1.131445	-1.422926	-0.426399	0.319760	0.271290	-0.205960	-0.942139	-0.182861	-0.518799	0.095130	-0.009366	0.001789	0.739324	0.109092	-0.661441	0.063205	37.517874	-82.670300	-23.493362
48263		9.303015	-0.725640	0.360006	0.926647	-1.267752	-0.607454	0.311719	0.223609	-0.137058	-0.936279	-0.190430	-0.518066	0.093029	-0.007326	0.003485	0.739924	0.110570	-0.660459	0.063871	37.542015	-82.526216	-23.340864
48264		9.094689	-0.765631	0.495918	0.803636	-1.334024	-0.806023	0.306713	0.200566	-0.079945	-0.939697	-0.195068	-0.522461	0.090949	-0.007700	0.004856	0.740430	0.111845	-0.659595	0.064717	37.430235	-82.412595	-23.054582
48265		8.814848	-0.817240	0.275085	1.013671	-1.314634	-1.112728	0.318907	0.160024	-0.035824	-0.935791	-0.193604	-0.519043	0.088149	-0.008192	0.002667	0.740779	0.113035	-0.658898	0.065746	37.287040	-82.332606	-22.729021
48266		8.606120	-0.816391	-0.179198	1.437279	-1.185439	-1.369178	0.369245	0.080918	-0.011206	-0.937500	-0.191895	-0.518555	0.086060	-0.008165	-0.001842	0.740828	0.114354	-0.658491	0.066986	37.295247	-82.297280	-22.527453
48267		8.738951	-0.656104	-0.346504	1.578417	-0.991518	-1.242665	0.408824	-0.029566	0.007783	-0.940430	-0.193115	-0.522949	0.087390	-0.006551	-0.003466	0.740481	0.115796	-0.658487	0.068364	37.547483	-82.318792	-22.548877
48268		9.009269	-0.530380	-0.458408	1.681051	-0.852441	-0.974940	0.362835	-0.135656	0.027645	-0.935791	-0.193604	-0.516846	0.090097	-0.005283	-0.004533	0.739803	0.117034	-0.658901	0.069601	37.983676	-82.395469	-22.783035
48269		9.312608	-0.552387	-0.774067	2.011552	-0.804304	-0.705783	0.308653	-0.204782	0.022173	-0.936279	-0.202148	-0.524658	0.093135	-0.005502	-0.007654	0.738927	0.118118	-0.659584	0.070600	38.601827	-82.500838	-23.231464
48270		9.589025	-0.537876	-1.115909	2.348439	-0.714192	-0.460752	0.342451	-0.246672	-0.013433	-0.932861	-0.203125	-0.511963	0.095904	-0.005366	-0.011050	0.737903	0.119453	-0.660387	0.071553	39.492259	-82.611397	-23.935350
48271		9.910231	-0.411750	-1.197804	2.409836	-0.592058	-0.134925	0.411329	-0.241532	-0.060044	-0.934570	-0.201416	-0.508545	0.099115	-0.004123	-0.011867	0.736868	0.121199	-0.661114	0.072565	40.591646	-82.700733	-24.809466
48272		10.144509	-0.239856	-1.023468	2.208976	-0.491985	0.131881	0.420815	-0.100629	-0.055199	-0.935791	-0.203857	-0.505371	0.101450	-0.002405	-0.010189	0.736286	0.122908	-0.661319	0.073711	41.283208	-82.729392	-25.267259
48273		9.960899	-0.377727	-0.987157	2.184949	-0.624936	-0.057067	0.393846	-0.030219	-0.025084	-0.930420	-0.208252	-0.506592	0.099610	-0.003770	-0.009864	0.735941	0.124396	-0.661289	0.074922	41.652589	-82.738459	-25.415407
48274		9.942636	-0.478598	-0.971621	2.191430	-0.724440	-0.081196	0.413986	-0.078936	-0.040820	-0.939941	-0.208984	-0.502930	0.099429	-0.004786	-0.009687	0.735424	0.126023	-0.661421	0.076110	42.232898	-82.762404	-25.764987
48275		10.119009	-0.310145	-0.787115	1.981448	-0.628438	0.126578	0.460482	-0.100746	-0.066070	-0.939941	-0.214600	-0.497559	0.101193	-0.003117	-0.007827	0.734812	0.127917	-0.661594	0.077346	42.994747	-82.784933	-26.270247
48276		10.040996	-0.226685	-0.904381	2.052837	-0.514030	0.046954	0.426621	-0.088562	-0.053773	-0.949219	-0.210449	-0.502686	0.100413	-0.002275	-0.009004	0.734252	0.129636	-0.661742	0.078522	43.661775	-82.806783	-26.699846
48277		9.837909	-0.257107	-1.232785	2.343629	-0.436228	-0.185257	0.341194	-0.080134	-0.025241	-0.939941	-0.218018	-0.507568	0.098384	-0.002562	-0.012293	0.733763	0.130948	-0.661906	0.079526	44.163723	-82.835583	-27.011986
48278		9.606411	-0.542146	-1.498527	2.647778	-0.613803	-0.462010	0.266104	-0.031840	-0.007931	-0.934814	-0.226318	-0.509277	0.096066	-0.005405	-0.014977	0.733474	0.131902	-0.661935	0.080375	44.413785	-82.851633	-27.114197
48279		9.512505	-0.611583	-1.378098	2.545435	-0.705506	-0.550725	0.328611	0.078958	-0.011344	-0.933594	-0.220215	-0.497803	0.095119	-0.006099	-0.013829	0.733510	0.133056	-0.661527	0.081492	44.358497	-82.820537	-26.871973
48280		9.782323	-0.419286	0.175315	1.062830	-1.000377	-0.129200	0.426049	0.295606	-0.002645	-0.937500	-0.227295	-0.501953	0.097826	-0.004198	0.001600	0.734190	0.134447	-0.660289	0.083108	43.655226	-82.703835	-25.920614
48281		11.006644	0.114779	3.046550	-1.635376	-1.434789	1.399249	0.520339	0.488149	0.052133	-0.931396	-0.232666	-0.498779	0.110140	0.001098	0.030200	0.735414	0.135925	-0.658334	0.085364	42.284838	-82.525225	-24.241401
48282		13.845296	1.577942	6.654279	-5.057004	-1.319478	4.718156	0.578938	0.994974	0.020474	-0.927246	-0.226318	-0.514404	0.138780	0.015602	0.065898	0.738261	0.137501	-0.654456	0.088041	39.747184	-82.108675	-21.349505
48283		17.357316	5.769503	9.328614	-8.298606	1.573416	8.902059	0.967070	0.728402	-0.227269	-0.913818	-0.245850	-0.515137	0.173977	0.057048	0.092930	0.740055	0.141436	-0.651195	0.090886	39.114920	-81.709080	-20.154495
48284		15.331566	8.545467	8.503945	-8.673183	4.425645	7.086580	1.086519	-0.350383	-0.285884	-0.925537	-0.246582	-0.511230	0.153287	0.084771	0.085770	0.738250	0.146486	-0.651808	0.093137	41.462179	-81.762093	-21.900802
48285		10.475786	6.401259	2.648887	-3.221889	4.534164	1.447639	0.786107	-0.318909	-0.061471	-0.923584	-0.249756	-0.510986	0.104735	0.063875	0.026907	0.736645	0.149680	-0.652591	0.095257	42.920870	-81.879476	-22.922715
48286		7.800718	4.837974	-0.893056	0.208495	4.419480	-1.720756	-0.116779	-0.368873	0.312265	-0.930176	-0.241211	-0.500977	0.077948	0.048496	-0.008815	0.735367	0.148347	-0.654261	0.095769	42.917679	-82.161911	-22.990692
48287		7.394084	2.438828	-1.964401	1.939404	2.584925	-2.461770	-1.987819	-0.647506	1.013073	-0.939209	-0.229492	-0.495850	0.073880	0.024567	-0.019648	0.734176	0.137969	-0.658323	0.092524	40.325589	-82.830447	-21.528289
48288		9.010988	-2.477426	-1.350767	3.017540	-2.262321	-1.156338	-2.448751	-0.857831	2.146865	-0.947021	-0.196533	-0.500000	0.090426	-0.023965	-0.012824	0.731930	0.122233	-0.664016	0.091758	32.882238	-83.965610	-15.451685
48289		11.206872	-10.172415	-0.456864	4.510389	-9.816433	0.797179	-1.513209	0.237757	1.515265	-0.941650	-0.179932	-0.489258	0.112830	-0.100903	-0.003937	0.732894	0.111492	-0.664749	0.092439	23.922409	-84.264162	-7.319422
48290		9.556573	-9.563282	0.603494	3.257119	-9.398483	-0.636775	2.110318	1.671455	0.249055	-0.943848	-0.182373	-0.512207	0.095725	-0.095565	0.004227	0.737075	0.117560	-0.657751	0.101309	20.495606	-83.435399	-2.659888
48291		7.608804	-1.964160	5.221362	-3.348685	-3.579296	-1.751511	3.931564	1.405680	-0.016922	-0.926758	-0.208008	-0.517090	0.076449	-0.020662	0.051278	0.739222	0.131311	-0.650448	0.115000	20.461887	-82.681393	-0.359941
48292		8.855021	2.625982	7.247536	-6.496733	-0.101486	-0.034430	1.777228	0.388587	-0.158334	-0.928955	-0.216309	-0.522461	0.088712	0.025545	0.072532	0.739364	0.138112	-0.647884	0.120467	21.476007	-82.445478	-0.358834
48293		9.917030	3.910710	4.573492	-4.367882	1.960250	0.753103	0.572635	-0.826353	-0.012532	-0.933105	-0.218506	-0.506348	0.098982	0.038969	0.046256	0.736276	0.140711	-0.650601	0.121724	23.210858	-82.884854	-1.780444
48294		11.677419	4.814806	3.171014	-3.347091	3.214626	2.355174	1.093672	-1.795128	0.031562	-0.944580	-0.221191	-0.496826	0.116474	0.047988	0.033019	0.729593	0.145664	-0.656553	0.124149	27.428226	-83.827271	-5.398500
48295		12.544065	6.395091	1.103123	-2.167208	5.310479	3.093265	0.738632	-1.729240	-0.365071	-0.949219	-0.228027	-0.476318	0.125454	0.063678	0.012351	0.723559	0.150569	-0.662131	0.123996	34.600256	-84.574821	-12.185055
48296		11.241732	6.632737	-3.413865	1.661040	7.174874	1.491550	0.043588	-0.378039	-0.478665	-0.949463	-0.241455	-0.466309	0.112640	0.066065	-0.033911	0.722557	0.152485	-0.663130	0.122142	38.258165	-84.591325	-15.837966
48297		8.651633	5.319303	-2.547668	1.141810	5.696883	-1.101925	0.470426	1.158193	0.291339	-0.942139	-0.244873	-0.484619	0.086290	0.053379	-0.025851	0.725832	0.152453	-0.658890	0.125654	33.174042	-84.154738	-10.461711
48298		8.123254	3.788686	1.658141	-2.137119	2.741868	-1.386244	0.277016	1.076402	0.746569	-0.938721	-0.238037	-0.489746	0.081178	0.038167	0.016197	0.728670	0.150273	-0.655385	0.130110	26.835595	-83.838251	-3.931472
48299		9.547498	3.240955	4.607216	-4.462473	1.187675	0.264965	-0.862326	0.058993	0.975125	-0.936523	-0.223389	-0.491943	0.095328	0.033073	0.045902	0.728847	0.143840	-0.656474	0.130898	21.356067	-84.039997	1.078704
48300		11.159714	1.197817	4.342550	-3.368047	-0.438207	1.732485	-2.133772	-0.914134	1.185431	-0.947510	-0.197998	-0.488525	0.111322	0.013105	0.043799	0.726531	0.132713	-0.662018	0.127562	15.181583	-84.754088	6.051547
48301		11.523150	-4.796808	0.968351	1.760653	-4.702587	1.655130	-1.882250	-1.141191	0.727887	-0.957275	-0.173828	-0.484863	0.115345	-0.047450	0.010790	0.723475	0.124130	-0.667825	0.123229	11.008721	-85.488961	9.153878
48302		10.956268	-5.370616	-3.648684	6.111754	-3.662409	0.743324	0.740315	-0.463201	-0.469210	-0.959473	-0.184570	-0.469238	0.109521	-0.053828	-0.036432	0.721738	0.128601	-0.668764	0.123733	15.536002	-85.688485	5.035071
48303		10.145632	0.058144	-0.452362	1.159484	0.231453	0.274091	2.304471	-0.373969	-0.983978	-0.956787	-0.206055	-0.460693	0.101466	0.000133	-0.004331	0.719543	0.140373	-0.668025	0.127657	24.798340	-85.699231	-2.932544
48304		11.051382	3.488527	0.828500	-1.237338	2.822448	1.389572	1.203567	-0.123528	-0.949518	-0.956299	-0.229492	-0.461670	0.110672	0.034309	0.008561	0.718852	0.147894	-0.667043	0.128189	32.090006	-85.507419	-9.557247
48305		10.010426	3.813634	0.479996	-1.106665	3.202961	0.360761	0.290590	0.396417	-0.194088	-0.962891	-0.230225	-0.466797	0.100151	0.038032	0.004657	0.720068	0.149276	-0.665310	0.128772	31.877268	-85.260821	-9.180026
48306		8.595424	2.647882	0.402063	-0.671412	2.197289	-1.107798	-0.497666	0.375772	0.359824	-0.948730	-0.218994	-0.469971	0.085914	0.026643	0.003793	0.721438	0.145998	-0.664564	0.128708	28.120671	-85.181934	-5.699145
48307		8.480679	1.345271	0.390713	-0.163168	1.047950	-1.282781	-0.802029	0.072855	0.504475	-0.954590	-0.210693	-0.468018	0.084774	0.013682	0.003822	0.721919	0.141325	-0.665202	0.127933	24.270861	-85.276606	-2.300332
48308		9.007040	0.400506	0.640354	0.002966	0.120884	-0.774851	-0.437600	0.200041	0.334020	-0.961670	-0.210205	-0.476074	0.090070	0.004169	0.006304	0.722662	0.138453	-0.665017	0.127842	21.292515	-85.249256	0.433394
48309		8.766722	0.600256	1.135391	-0.526576	0.148964	-0.969316	0.155973	0.481002	-0.017569	-0.954590	-0.206299	-0.484131	0.087695	0.005986	0.011148	0.724148	0.138712	-0.663188	0.128648	20.281607	-84.992031	1.534420
48310		8.327215	1.662528	1.673484	-1.419127	0.937562	-1.326581	0.383742	0.425287	-0.157297	-0.954346	-0.203857	-0.482910	0.083321	0.016528	0.016589	0.725377	0.140295	-0.661312	0.129663	20.439030	-84.736036	1.593912
48311		8.247510	2.108116	1.410110	-1.322650	1.445144	-1.409348	0.083740	0.235450	-0.106885	-0.945801	-0.211182	-0.482422	0.082503	0.021031	0.014013	0.726151	0.140745	-0.660351	0.129737	20.535976	-84.592217	1.541483
48312		8.387541	1.827663	0.924121	-0.739361	1.376794	-1.321343	-0.293483	0.174099	0.103277	-0.954590	-0.200195	-0.488037	0.083874	0.018333	0.009141	0.726850	0.139167	-0.660006	0.129283	19.366391	-84.522748	2.543902
48313		8.608486	1.195472	0.859400	-0.411233	0.838984	-1.129331	-0.506506	0.175909	0.197190	-0.937988	-0.206543	-0.484863	0.086081	0.012061	0.008488	0.727638	0.136507	-0.659852	0.128470	17.573613	-84.466738	4.050185
48314		8.837274	0.777385	0.909405	-0.268473	0.459849	-0.910713	-0.385600	0.238264	0.138483	-0.946289	-0.197021	-0.488037	0.088378	0.007852	0.008974	0.728582	0.134437	-0.659349	0.127882	16.111255	-84.362787	5.294006
48315		8.588301	0.703063	1.083587	-0.406553	0.346601	-1.144246	-0.209629	0.337951	0.062254	-0.945557	-0.199951	-0.496582	0.085899	0.007069	0.010683	0.729782	0.133196	-0.658315	0.127664	15.070123	-84.189382	6.216392
48316		8.058693	0.749036	0.899456	-0.281994	0.467563	-1.687762	-0.194080	0.312375	0.042412	-0.942627	-0.201416	-0.501221	0.080599	0.007516	0.008861	0.730896	0.132094	-0.657351	0.127406	14.235394	-84.025921	6.940387
48317		8.089364	0.760585	0.814155	-0.187486	0.523114	-1.665889	-0.254375	0.150782	0.055490	-0.937744	-0.193848	-0.504883	0.080898	0.007639	0.008071	0.731509	0.130831	-0.657020	0.126892	13.542205	-83.953039	7.487603
48318		8.329542	0.735793	0.511089	0.134354	0.621700	-1.459286	-0.305523	0.041481	0.045548	-0.942383	-0.195068	-0.497314	0.083295	0.007385	0.005082	0.731805	0.129484	-0.657111	0.126099	13.021262	-83.938653	7.832097
48319		8.360246	0.599334	0.131869	0.542630	0.636083	-1.471749	-0.276957	0.073068	0.023179	-0.950195	-0.185303	-0.502441	0.083602	0.006005	0.001280	0.732195	0.128293	-0.657055	0.125341	12.596493	-83.904019	8.096433
48320		8.228772	0.642466	-0.016603	0.658321	0.732960	-1.617865	-0.222256	0.100227	0.031907	-0.945557	-0.185791	-0.516357	0.082287	0.006438	-0.000214	0.732630	0.127255	-0.656873	0.124810	12.130685	-83.855445	8.433377
48321		8.350760	0.744714	0.085669	0.544411	0.800903	-1.484465	-0.222916	0.016011	0.046785	-0.940674	-0.184570	-0.500732	0.083506	0.007468	0.000842	0.732780	0.126220	-0.657006	0.124279	11.684544	-83.855154	8.750383
48322		8.473778	0.791162	-0.162302	0.769802	0.936612	-1.387288	-0.191240	-0.071020	0.037179	-0.941650	-0.178955	-0.509766	0.084737	0.007926	-0.001601	0.732632	0.125381	-0.657429	0.123760	11.396373	-83.902141	8.926163
