// General information: 
//  MT Manager version: 2021.4.0 
//  XDA version: 2021.4.0 build 6323 rev 112641 built on 2021-09-28
// Device information: 
//  DeviceId: 00B47795
//  ProductCode: MTW2-3A7G6
//  Firmware Version: 4.6.0
//  Hardware Version: 2.0.0
// Device settings: 
//  Filter Profile: human(46.1)
//  Option Flags: Orientation Smoother Disabled, Position/Velocity Smoother Disabled, Continuous Zero Rotation Update Disabled, AHS Disabled, ICC Disabled
// Coordinate system: ENU
PacketCounter	SampleTimeFine	Acc_X	Acc_Y	Acc_Z	FreeAcc_E	FreeAcc_N	FreeAcc_U	Gyr_X	Gyr_Y	Gyr_Z	Mag_X	Mag_Y	Mag_Z	VelInc_X	VelInc_Y	VelInc_Z	Quat_q0	Quat_q1	Quat_q2	Quat_q3	Roll	Pitch	Yaw
47777		9.687088	0.681612	-0.588311	0.021061	0.024612	-0.083898	-0.011632	-0.009919	0.005363	-0.844727	0.231689	0.340576	0.096871	0.006818	-0.005879	0.232203	-0.666861	-0.295340	-0.643547	132.195756	-84.544381	91.661595
47778		9.711051	0.687628	-0.613268	0.007990	0.006464	-0.058030	-0.015767	-0.012900	0.008244	-0.845703	0.235596	0.326660	0.097111	0.006880	-0.006127	0.232126	-0.666932	-0.295309	-0.643515	132.259814	-84.538023	91.588308
47779		9.718536	0.750824	-0.589241	0.070054	-0.020556	-0.047671	-0.012823	-0.011418	0.007804	-0.839844	0.224365	0.334717	0.097185	0.007512	-0.005887	0.232061	-0.666995	-0.295287	-0.643484	132.318782	-84.532116	91.521764
47780		9.721142	0.673325	-0.633675	-0.014562	0.005575	-0.047685	-0.019874	-0.012919	0.013599	-0.844971	0.226318	0.331787	0.097211	0.006739	-0.006331	0.231988	-0.667079	-0.295225	-0.643451	132.401860	-84.528001	91.427005
47781		9.693662	0.692970	-0.631824	0.001765	-0.008955	-0.073776	-0.005738	-0.014181	0.009478	-0.842285	0.225586	0.331787	0.096937	0.006934	-0.006312	0.231946	-0.667145	-0.295221	-0.643399	132.483215	-84.521684	91.341786
47782		9.707506	0.711392	-0.638851	0.010661	-0.024570	-0.058244	-0.012958	-0.014651	0.009186	-0.842773	0.223389	0.326416	0.097075	0.007118	-0.006382	0.231880	-0.667220	-0.295198	-0.643356	132.559746	-84.515010	91.257583
47783		9.703711	0.678539	-0.652788	-0.020795	-0.009840	-0.063430	-0.012677	-0.015410	0.011408	-0.840820	0.217529	0.330078	0.097037	0.006791	-0.006521	0.231820	-0.667301	-0.295168	-0.643307	132.649675	-84.509018	91.159904
47784		9.710295	0.692210	-0.693135	-0.039228	-0.045850	-0.053293	-0.011069	-0.011436	0.009804	-0.845947	0.229980	0.334473	0.097103	0.006926	-0.006926	0.231767	-0.667364	-0.295146	-0.643271	132.715324	-84.503831	91.087719
47785		9.727651	0.683326	-0.679005	-0.034155	-0.027154	-0.037551	-0.014678	-0.011670	0.009657	-0.841553	0.224365	0.332764	0.097277	0.006837	-0.006785	0.231699	-0.667433	-0.295110	-0.643240	132.780429	-84.498521	91.013698
47786		9.696400	0.671201	-0.689451	-0.049016	-0.027775	-0.068825	-0.017203	-0.010676	0.010932	-0.839844	0.231201	0.326172	0.096964	0.006717	-0.006890	0.231630	-0.667503	-0.295063	-0.643215	132.843558	-84.494087	90.940512
47787		9.709964	0.630447	-0.687882	-0.075112	0.004830	-0.058284	-0.017898	-0.012390	0.007869	-0.836670	0.224609	0.333008	0.097100	0.006308	-0.006873	0.231547	-0.667575	-0.295025	-0.643187	132.902528	-84.487756	90.871049
47788		9.707162	0.647061	-0.636900	-0.026116	0.028573	-0.063235	-0.018399	-0.004949	0.008382	-0.838623	0.229248	0.334473	0.097072	0.006474	-0.006367	0.231474	-0.667623	-0.294977	-0.643186	132.929549	-84.484475	90.833449
47789		9.723843	0.648307	-0.694846	-0.066497	-0.009958	-0.042748	-0.023615	-0.009156	0.009836	-0.836182	0.218750	0.322998	0.097238	0.006487	-0.006945	0.231381	-0.667695	-0.294909	-0.643176	132.979167	-84.480204	90.769883
47790		9.717586	0.692067	-0.664450	-0.013660	-0.020526	-0.047887	-0.017313	-0.003722	0.009802	-0.844482	0.220215	0.332764	0.097176	0.006925	-0.006643	0.231318	-0.667740	-0.294857	-0.643175	133.007138	-84.477992	90.731954
47791		9.707539	0.704063	-0.646422	0.008023	-0.017190	-0.058226	-0.018676	-0.004187	0.006156	-0.839111	0.228516	0.336182	0.097075	0.007043	-0.006463	0.231237	-0.667785	-0.294812	-0.643179	133.022444	-84.474105	90.705715
47792		9.706517	0.654512	-0.711061	-0.072749	-0.025375	-0.058481	-0.018289	-0.004673	0.004515	-0.839600	0.228516	0.331055	0.097065	0.006547	-0.007109	0.231153	-0.667826	-0.294776	-0.643182	133.032550	-84.469305	90.685171
47793		9.733981	0.633381	-0.714373	-0.089647	-0.009186	-0.032413	-0.016787	-0.000974	0.006777	-0.843750	0.218994	0.333984	0.097340	0.006337	-0.007144	0.231086	-0.667859	-0.294732	-0.643193	133.038158	-84.466953	90.669854
47794		9.699274	0.649123	-0.744477	-0.100657	-0.044139	-0.063870	-0.014792	0.002515	0.003538	-0.845703	0.229736	0.332520	0.096993	0.006492	-0.007446	0.231020	-0.667872	-0.294702	-0.643216	133.015232	-84.464553	90.684510
47795		9.720511	0.672660	-0.716281	-0.064418	-0.039338	-0.042930	-0.012237	0.004480	0.004742	-0.845947	0.217041	0.328857	0.097205	0.006728	-0.007165	0.230969	-0.667879	-0.294672	-0.643241	132.991368	-84.463466	90.701334
47796		9.706679	0.652950	-0.710288	-0.073916	-0.022093	-0.058482	-0.013844	0.000505	0.006339	-0.841064	0.219482	0.335938	0.097067	0.006532	-0.007104	0.230913	-0.667902	-0.294638	-0.643253	132.988985	-84.461454	90.695897
47797		9.717821	0.689201	-0.663991	-0.015707	-0.014772	-0.047880	-0.012547	0.002284	0.000038	-0.846191	0.228760	0.330566	0.097178	0.006892	-0.006641	0.230841	-0.667910	-0.294625	-0.643277	132.955272	-84.457512	90.722256
47798		9.705016	0.718798	-0.593543	0.055265	0.011481	-0.063169	-0.014093	0.004225	0.006598	-0.848877	0.221924	0.337402	0.097050	0.007191	-0.005938	0.230791	-0.667921	-0.294585	-0.643301	132.937722	-84.457061	90.731913
47799		9.715154	0.705662	-0.611391	0.033008	0.009789	-0.052832	-0.011568	0.003232	0.005321	-0.849854	0.217041	0.328125	0.097151	0.007059	-0.006116	0.230742	-0.667932	-0.294557	-0.643320	132.922047	-84.455733	90.740943
47800		9.687775	0.725791	-0.607930	0.049331	-0.004775	-0.078887	-0.010621	0.001222	0.008123	-0.843262	0.224365	0.327637	0.096877	0.007262	-0.006080	0.230704	-0.667951	-0.294527	-0.643328	132.925602	-84.454750	90.731394
47801		9.695127	0.729687	-0.574350	0.076367	0.016449	-0.073503	-0.011705	-0.000002	0.006700	-0.837891	0.228271	0.333252	0.096951	0.007300	-0.005744	0.230655	-0.667974	-0.294499	-0.643334	132.928876	-84.452738	90.721401
47802		9.735465	0.678501	-0.647495	-0.011838	0.007242	-0.032160	-0.013562	-0.000257	0.008556	-0.836914	0.227295	0.329102	0.097354	0.006789	-0.006475	0.230605	-0.668003	-0.294459	-0.643341	132.938866	-84.451360	90.703695
47803		9.700802	0.693898	-0.677575	-0.022813	-0.027746	-0.063591	-0.013144	0.002215	0.009398	-0.836426	0.226563	0.329590	0.097008	0.006943	-0.006777	0.230564	-0.668024	-0.294415	-0.643353	132.943259	-84.451365	90.691810
47804		9.697043	0.661108	-0.690155	-0.054283	-0.013019	-0.068822	-0.016222	-0.002499	0.011209	-0.846436	0.227295	0.326416	0.096970	0.006616	-0.006901	0.230512	-0.668066	-0.294361	-0.643353	132.972051	-84.450223	90.653682
47805		9.697103	0.660288	-0.690096	-0.054565	-0.012207	-0.068823	-0.012756	0.001731	0.007756	-0.841309	0.218018	0.335449	0.096971	0.006606	-0.006902	0.230467	-0.668086	-0.294324	-0.643366	132.971845	-84.449358	90.646784
47806		9.704455	0.664198	-0.656458	-0.027543	0.009027	-0.063446	-0.010232	0.000738	0.006480	-0.847168	0.217529	0.329834	0.097044	0.006645	-0.006565	0.230423	-0.668104	-0.294301	-0.643373	132.971091	-84.447497	90.641789
47807		9.729561	0.718913	-0.615918	0.039852	-0.000044	-0.037261	-0.013385	-0.001299	0.014634	-0.833252	0.221924	0.336914	0.097295	0.007196	-0.006159	0.230390	-0.668146	-0.294241	-0.643369	133.011012	-84.448268	90.593678
47808		9.743546	0.736953	-0.621724	0.048740	-0.015620	-0.021686	-0.013416	-0.004255	0.012149	-0.833496	0.230225	0.337158	0.097435	0.007375	-0.006216	0.230347	-0.668192	-0.294194	-0.643358	133.052726	-84.446828	90.544182
47809		9.747067	0.708544	-0.601127	0.044623	0.019515	-0.021552	-0.013277	-0.001020	0.010771	-0.846436	0.220947	0.334717	0.097470	0.007090	-0.006011	0.230303	-0.668227	-0.294146	-0.643359	133.076832	-84.446109	90.512075
47810		9.723175	0.700760	-0.577289	0.057110	0.039245	-0.047461	-0.005116	-0.002572	0.013868	-0.834717	0.224609	0.334473	0.097231	0.007014	-0.005772	0.230296	-0.668261	-0.294119	-0.643339	133.122951	-84.446041	90.462932
47811		9.708651	0.690420	-0.644424	0.002184	-0.000760	-0.058208	-0.002978	-0.003082	0.014232	-0.839844	0.218994	0.335449	0.097086	0.006911	-0.006443	0.230295	-0.668296	-0.294096	-0.643314	133.175235	-84.445952	90.408490
47812		9.615613	0.645231	-0.600682	0.003745	0.052741	-0.156893	0.013203	-0.002190	0.016829	-0.844727	0.233643	0.336182	0.096156	0.006461	-0.006005	0.230359	-0.668311	-0.294117	-0.643265	133.242155	-84.447262	90.348993
47813		9.623422	0.707308	-0.575906	0.065804	0.025755	-0.146395	0.020248	-0.007924	0.016017	-0.833984	0.227783	0.335693	0.096234	0.007081	-0.005755	0.230434	-0.668338	-0.294168	-0.643187	133.335895	-84.446017	90.266369
47814		9.693783	0.791514	-0.532855	0.156899	0.001823	-0.073322	0.017030	-0.015872	0.019201	-0.834229	0.227783	0.335205	0.096937	0.007925	-0.005320	0.230499	-0.668396	-0.294210	-0.643084	133.473186	-84.442908	90.138371
47815		9.735633	0.847109	-0.551529	0.184185	-0.046543	-0.026562	0.010378	-0.017856	0.023344	-0.836670	0.227051	0.345215	0.097356	0.008483	-0.005506	0.230550	-0.668476	-0.294216	-0.642980	133.633428	-84.440754	89.983258
47816		9.679310	0.777804	-0.603422	0.101680	-0.037368	-0.084049	0.008000	-0.020859	0.028213	-0.837158	0.225342	0.342285	0.096793	0.007792	-0.006024	0.230606	-0.668575	-0.294204	-0.642863	133.823137	-84.439331	89.797396
47817		9.726368	0.669574	-0.637403	0.005799	0.022095	-0.042512	0.002400	-0.024574	0.031296	-0.835205	0.227295	0.338867	0.097263	0.006711	-0.006362	0.230644	-0.668699	-0.294164	-0.642739	134.039691	-84.437645	89.580690
47818		9.634085	0.451695	-0.965507	-0.378091	-0.054548	-0.127343	-0.004179	-0.036467	0.034068	-0.838379	0.227051	0.343262	0.096342	0.004533	-0.009638	0.230655	-0.668870	-0.294111	-0.642581	134.311948	-84.432256	89.304876
47819		9.599606	0.523761	-1.007989	-0.354033	-0.137785	-0.153574	0.025291	-0.049051	0.035807	-0.831299	0.236572	0.349854	0.095998	0.005256	-0.010056	0.230749	-0.669052	-0.294159	-0.642336	134.661920	-84.422402	88.967485
47820		9.695695	0.720718	-0.935990	-0.160268	-0.219752	-0.049080	0.029506	-0.040160	0.037888	-0.832764	0.234131	0.337891	0.096957	0.007227	-0.009339	0.230880	-0.669202	-0.294206	-0.642111	134.983234	-84.416772	88.661764
47821		9.768315	0.541532	-1.039487	-0.353262	-0.153862	0.018147	-0.006674	-0.042687	0.040304	-0.836670	0.233887	0.342041	0.097684	0.005435	-0.010374	0.230892	-0.669406	-0.294129	-0.641929	135.305690	-84.410967	88.333792
47822		9.716854	0.367144	-1.115854	-0.523917	-0.085111	-0.039487	0.012744	-0.033873	0.039678	-0.836426	0.232422	0.341553	0.097170	0.003691	-0.011142	0.230981	-0.669558	-0.294109	-0.641748	135.597852	-84.408297	88.047708
47823		9.765275	0.607565	-0.805724	-0.129313	-0.040150	0.003656	0.026423	-0.023180	0.024762	-0.835938	0.239014	0.340576	0.097653	0.006089	-0.008045	0.231083	-0.669638	-0.294168	-0.641600	135.792993	-84.403958	87.866768
47824		9.767176	0.528441	-0.851585	-0.213931	-0.014027	0.003432	-0.015468	-0.022441	0.029183	-0.839844	0.229004	0.341553	0.097672	0.005298	-0.008505	0.231061	-0.669770	-0.294079	-0.641511	135.977854	-84.401594	87.672255
47825		9.784161	0.643312	-0.730263	-0.044091	-0.011549	0.019651	0.000816	-0.014069	0.022920	-0.832764	0.229248	0.344727	0.097841	0.006444	-0.007296	0.231085	-0.669848	-0.294053	-0.641433	136.113061	-84.400174	87.536859
47826		9.723350	0.542543	-0.794273	-0.157747	0.011468	-0.043156	-0.012425	-0.020691	0.024885	-0.833740	0.240479	0.344482	0.097234	0.005437	-0.007933	0.231062	-0.669964	-0.293986	-0.641350	136.274181	-84.396728	87.367951
47827		9.685797	0.699482	-0.666479	0.045389	-0.016946	-0.078942	-0.007913	-0.018207	0.020371	-0.840088	0.226807	0.342285	0.096858	0.007004	-0.006656	0.231042	-0.670062	-0.293944	-0.641275	136.410208	-84.392506	87.226576
47828		9.661232	0.575197	-0.824815	-0.152348	-0.038206	-0.100535	-0.016218	-0.021465	0.032448	-0.836914	0.227539	0.338867	0.096612	0.005767	-0.008238	0.231029	-0.670197	-0.293840	-0.641186	136.603895	-84.391630	87.022759
47829		9.674373	0.657969	-0.716309	-0.013677	-0.021836	-0.089578	0.020158	-0.018425	0.022279	-0.825928	0.235352	0.349609	0.096744	0.006591	-0.007154	0.231109	-0.670266	-0.293882	-0.641066	136.764138	-84.387976	86.873159
47830		9.698985	0.721100	-0.750444	0.008230	-0.088073	-0.058425	0.005536	-0.019859	0.029427	-0.833496	0.233643	0.347168	0.096990	0.007225	-0.007495	0.231161	-0.670365	-0.293857	-0.640955	136.950801	-84.386466	86.688922
47831		9.776825	0.623824	-0.774701	-0.073161	-0.026998	0.014293	0.006863	-0.015127	0.025616	-0.832520	0.236084	0.354004	0.097768	0.006251	-0.007739	0.231211	-0.670444	-0.293840	-0.640862	137.104724	-84.385409	86.537936
47832		9.755379	0.597420	-0.804101	-0.109962	-0.030221	-0.006674	0.007013	-0.019124	0.029201	-0.839600	0.236572	0.342529	0.097554	0.005989	-0.008031	0.231269	-0.670539	-0.293819	-0.640751	137.288179	-84.384014	86.357771
47833		9.668064	0.632636	-0.684222	0.003311	0.018238	-0.099835	0.021019	-0.013488	0.023947	-0.829590	0.235352	0.349854	0.096680	0.006339	-0.006835	0.231364	-0.670594	-0.293852	-0.640644	137.436328	-84.382921	86.220843
47834		9.659877	0.566220	-0.711156	-0.059318	0.046832	-0.110427	0.005546	-0.019855	0.029416	-0.835205	0.237793	0.336182	0.096599	0.005677	-0.007102	0.231417	-0.670693	-0.293827	-0.640533	137.622569	-84.381197	86.037034
47835		9.678896	0.478661	-0.741693	-0.138579	0.090882	-0.095034	0.018895	-0.020203	0.028542	-0.836914	0.230713	0.348145	0.096789	0.004801	-0.007407	0.231511	-0.670778	-0.293847	-0.640401	137.815305	-84.378955	85.854239
47836		9.747451	0.452956	-0.755554	-0.163011	0.106269	-0.027445	0.071335	-0.006722	0.026107	-0.833984	0.241211	0.349854	0.097474	0.004545	-0.007551	0.231793	-0.670754	-0.294028	-0.640241	137.973498	-84.381427	85.736488
47837		9.819672	0.525179	-0.640077	-0.026488	0.139706	0.040802	0.089075	-0.002187	0.030882	-0.836670	0.235352	0.356201	0.098196	0.005270	-0.006397	0.232155	-0.670704	-0.294242	-0.640064	138.146519	-84.387642	85.613700
47838		9.769024	0.538448	-0.810156	-0.137545	0.006568	0.003684	0.104548	-0.000366	0.036660	-0.836914	0.233643	0.342285	0.097689	0.005407	-0.008099	0.232591	-0.670637	-0.294487	-0.639863	138.345386	-84.396787	85.474203
47839		9.774180	0.625728	-0.806652	-0.071652	-0.054685	0.014249	0.125803	0.000034	0.022811	-0.826172	0.235596	0.349365	0.097741	0.006273	-0.008063	0.233053	-0.670525	-0.294842	-0.639649	138.496230	-84.400807	85.394772
47840		9.704990	0.586080	-0.786745	-0.082831	-0.020250	-0.058611	0.120372	-0.000419	0.024495	-0.833008	0.241455	0.341553	0.097049	0.005877	-0.007864	0.233503	-0.670421	-0.295178	-0.639439	138.651840	-84.405239	85.307852
47841		9.737389	0.653015	-0.786752	-0.033596	-0.066033	-0.022046	0.115027	-0.000606	0.022332	-0.831299	0.241211	0.347900	0.097373	0.006546	-0.007863	0.233927	-0.670321	-0.295503	-0.639238	138.797245	-84.408771	85.227841
47842		9.671953	0.519168	-0.861621	-0.178390	-0.029230	-0.090243	0.113062	-0.004070	0.025537	-0.826904	0.243408	0.345459	0.096719	0.005209	-0.008611	0.234351	-0.670239	-0.295816	-0.639025	138.967678	-84.411975	85.121820
47843		9.702916	0.662615	-0.819100	-0.044842	-0.100298	-0.053359	0.102529	-0.005467	0.027334	-0.832031	0.241699	0.337402	0.097028	0.006644	-0.008185	0.234742	-0.670177	-0.296089	-0.638820	139.147088	-84.415236	85.000467
47844		9.587317	0.533422	-0.794141	-0.114701	-0.002950	-0.178442	0.107038	-0.007508	0.034074	-0.832764	0.247070	0.344482	0.095873	0.005355	-0.007935	0.235167	-0.670124	-0.296358	-0.638594	139.365489	-84.420072	84.842783
47845		9.534953	0.620812	-0.725800	-0.001192	-0.024091	-0.230050	0.113497	-0.016258	0.040084	-0.831055	0.240234	0.347412	0.095349	0.006231	-0.007247	0.235621	-0.670102	-0.296637	-0.638321	139.649498	-84.423292	84.622854
47846		9.549811	0.761375	-0.627722	0.172460	-0.055899	-0.213742	0.127979	-0.019880	0.051838	-0.829834	0.241211	0.340576	0.095497	0.007643	-0.006263	0.236155	-0.670090	-0.296928	-0.638000	140.007179	-84.429124	84.337286
47847		9.628082	0.786949	-0.546079	0.255804	-0.011010	-0.140465	0.125360	-0.029283	0.059454	-0.828369	0.241211	0.347900	0.096279	0.007902	-0.005442	0.236689	-0.670124	-0.297194	-0.637643	140.435180	-84.433426	83.979261
47848		9.610877	0.856090	-0.450191	0.379941	0.003773	-0.160737	0.166349	-0.032903	0.067104	-0.836914	0.240479	0.348877	0.096107	0.008597	-0.004479	0.237380	-0.670130	-0.297571	-0.637204	140.934207	-84.438612	83.573772
47849		9.599279	0.947554	-0.270818	0.580719	0.061883	-0.180642	0.170342	-0.047809	0.079346	-0.827637	0.249756	0.340332	0.095990	0.009516	-0.002677	0.238099	-0.670199	-0.297934	-0.636693	141.548795	-84.441145	83.054006
47850		9.637989	1.031892	-0.193211	0.706534	0.059462	-0.143653	0.151703	-0.066186	0.095564	-0.833740	0.241455	0.351074	0.096376	0.010366	-0.001892	0.238782	-0.670369	-0.298208	-0.636129	142.293553	-84.440527	82.393196
47851		9.481885	0.685222	-0.437279	0.300351	0.118997	-0.301510	0.149145	-0.092661	0.106871	-0.830322	0.253418	0.347656	0.094817	0.006906	-0.004324	0.239451	-0.670645	-0.298465	-0.635466	143.184529	-84.430853	81.583683
47852		9.528268	0.839967	-0.412537	0.443034	0.031604	-0.248885	0.181752	-0.108357	0.119132	-0.832031	0.257080	0.339111	0.095280	0.008460	-0.004066	0.240247	-0.670948	-0.298805	-0.634686	144.201979	-84.416780	80.666164
47853		9.636317	0.954509	-0.559728	0.439493	-0.141679	-0.124048	0.139016	-0.130821	0.139635	-0.826172	0.255615	0.346680	0.096360	0.009616	-0.005528	0.240930	-0.671404	-0.298967	-0.633868	145.364341	-84.397299	79.578389
47854		9.622215	1.065860	-0.608314	0.503879	-0.255207	-0.128987	0.095300	-0.144089	0.152381	-0.834717	0.261475	0.351074	0.096218	0.010735	-0.006009	0.241487	-0.671971	-0.298964	-0.633055	146.596662	-84.373367	78.395131
47855		9.591150	0.670422	-0.789639	0.116813	-0.106711	-0.167062	0.061504	-0.154735	0.162668	-0.825684	0.256104	0.341553	0.095912	0.006785	-0.007820	0.241946	-0.672629	-0.298830	-0.632244	147.883282	-84.344965	77.137651
47856		9.714643	0.501891	-0.792118	0.020118	0.022287	-0.052939	0.042942	-0.151249	0.160075	-0.822510	0.253662	0.349854	0.097148	0.005098	-0.007847	0.242339	-0.673293	-0.298643	-0.631475	149.121720	-84.314767	75.917986
47857		9.742523	0.291355	-0.944217	-0.214799	0.066273	-0.022763	0.026503	-0.141114	0.152840	-0.819580	0.260986	0.345947	0.097430	0.002989	-0.009373	0.242669	-0.673934	-0.298415	-0.630772	150.273432	-84.284988	74.775767
47858		9.717651	0.261075	-1.056835	-0.297057	0.005774	-0.038768	0.013156	-0.126318	0.143757	-0.829590	0.253174	0.349609	0.097181	0.002681	-0.010507	0.242947	-0.674529	-0.298158	-0.630150	151.318498	-84.257900	73.733169
47859		9.744187	-0.015006	-1.123943	-0.521533	0.155157	-0.018988	0.009781	-0.115901	0.133344	-0.820801	0.253418	0.354248	0.097448	-0.000085	-0.011183	0.243196	-0.675080	-0.297911	-0.629580	152.272723	-84.231439	72.779701
47860		9.766622	-0.022206	-1.158715	-0.534681	0.137177	0.006951	0.012703	-0.093202	0.121625	-0.819336	0.261475	0.357178	0.097672	-0.000162	-0.011542	0.243453	-0.675538	-0.297687	-0.629096	153.101762	-84.211972	71.953881
47861		9.695654	-0.174514	-1.361621	-0.774192	0.093737	-0.051437	0.022532	-0.079328	0.106608	-0.820068	0.256104	0.354492	0.096963	-0.001692	-0.013578	0.243713	-0.675919	-0.297524	-0.628663	153.821477	-84.194625	71.243143
47862		9.625444	-0.074168	-1.386941	-0.711463	-0.002656	-0.113611	0.055525	-0.066638	0.089394	-0.822266	0.258301	0.351563	0.096259	-0.000695	-0.013838	0.244052	-0.676192	-0.297511	-0.628244	154.436557	-84.178709	70.656999
47863		9.664214	0.095845	-1.340635	-0.546788	-0.087528	-0.071184	0.071848	-0.051614	0.081640	-0.817871	0.267334	0.350830	0.096645	0.001003	-0.013381	0.244443	-0.676388	-0.297554	-0.627860	154.983779	-84.168057	70.148101
47864		9.661512	0.191557	-1.325086	-0.458940	-0.146308	-0.070751	0.094943	-0.038936	0.077050	-0.822510	0.265625	0.355469	0.096617	0.001959	-0.013231	0.244917	-0.676507	-0.297672	-0.627491	155.488262	-84.162447	69.695809
47865		9.663202	0.501848	-1.235522	-0.167420	-0.303830	-0.064072	0.125823	-0.023216	0.069562	-0.825684	0.272217	0.353516	0.096632	0.005060	-0.012341	0.245496	-0.676529	-0.297892	-0.627137	155.936743	-84.162884	69.317475
47866		9.622241	0.496664	-1.228511	-0.160225	-0.302222	-0.105658	0.096532	-0.021123	0.072994	-0.817871	0.269043	0.352783	0.096222	0.005008	-0.012273	0.245989	-0.676584	-0.298007	-0.626830	156.379931	-84.164931	68.927712
47867		9.550462	0.461875	-1.280958	-0.216787	-0.325191	-0.173561	0.120154	-0.020294	0.079149	-0.820313	0.260254	0.350830	0.095504	0.004664	-0.012797	0.246583	-0.676617	-0.298173	-0.626482	156.868340	-84.168470	68.506052
47868		9.567381	0.559833	-1.124722	-0.028864	-0.285875	-0.167449	0.142928	-0.014496	0.084931	-0.818359	0.271729	0.355713	0.095672	0.005647	-0.011236	0.247281	-0.676611	-0.298384	-0.626112	157.386234	-84.176002	68.067923
47869		9.682374	0.747713	-0.953204	0.237522	-0.289725	-0.062012	0.143722	-0.005808	0.086679	-0.822510	0.267090	0.348145	0.096821	0.007526	-0.009524	0.247998	-0.676581	-0.298579	-0.625768	157.897753	-84.188076	67.636399
47870		9.792989	0.787109	-0.936587	0.289790	-0.300214	0.047599	0.109272	-0.011886	0.099156	-0.824951	0.271484	0.353027	0.097927	0.007925	-0.009356	0.248630	-0.676629	-0.298633	-0.625440	158.468218	-84.199205	67.126061
47871		9.811149	0.585708	-0.983639	0.122302	-0.196540	0.062313	0.103404	-0.014515	0.096292	-0.819336	0.267334	0.342041	0.098109	0.005909	-0.009826	0.249228	-0.676689	-0.298681	-0.625114	159.028696	-84.207791	66.622257
47872		9.915410	0.428782	-0.987420	0.020210	-0.085379	0.160602	0.098285	-0.015590	0.100255	-0.822998	0.271484	0.343506	0.099153	0.004342	-0.009864	0.249820	-0.676763	-0.298701	-0.624787	159.609766	-84.216131	66.094949
47873		9.885489	0.252802	-1.242482	-0.276121	-0.152564	0.148790	0.079249	-0.011448	0.099539	-0.820557	0.270996	0.349609	0.098854	0.002582	-0.012418	0.250352	-0.676847	-0.298660	-0.624503	160.170610	-84.226015	65.577081
47874		9.804373	0.113214	-1.417548	-0.493638	-0.193631	0.080079	0.094487	0.002025	0.094105	-0.817383	0.280518	0.356201	0.098043	0.001185	-0.014176	0.250939	-0.676861	-0.298667	-0.624249	160.686649	-84.241653	65.112967
47875		9.813256	0.023397	-1.351292	-0.505507	-0.089879	0.079881	0.104820	0.018213	0.079804	-0.822754	0.279297	0.356689	0.098131	0.000280	-0.013522	0.251538	-0.676792	-0.298733	-0.624051	161.105711	-84.262927	64.752090
47876		9.765118	-0.209408	-1.533438	-0.796723	-0.069699	0.041915	0.115609	0.029552	0.075122	-0.813965	0.275391	0.346924	0.097650	-0.002049	-0.015350	0.252178	-0.676665	-0.298835	-0.623882	161.486357	-84.289309	64.436244
47877		9.641147	-0.134298	-1.656502	-0.830324	-0.229202	-0.067342	0.167078	0.052642	0.059169	-0.820557	0.274658	0.350830	0.096407	-0.001301	-0.016591	0.252975	-0.676378	-0.299121	-0.623733	161.772430	-84.325108	64.244898
47878		9.655904	0.098094	-1.496843	-0.550391	-0.283758	-0.060601	0.189064	0.067840	0.049348	-0.820801	0.277100	0.341064	0.096554	0.001019	-0.015000	0.253839	-0.675999	-0.299491	-0.623615	161.991109	-84.367422	64.134142
47879		9.778543	0.034369	-1.383536	-0.513560	-0.156927	0.048696	0.176083	0.089242	0.033638	-0.823242	0.278076	0.344971	0.097779	0.000372	-0.013879	0.254642	-0.675547	-0.299845	-0.623607	162.079986	-84.418532	64.146218
47880		9.832692	-0.015083	-1.380081	-0.547288	-0.125000	0.100512	0.179709	0.093500	0.026139	-0.819580	0.276855	0.343262	0.098320	-0.000126	-0.013847	0.255440	-0.675064	-0.300232	-0.623618	162.120373	-84.470708	64.209229
47881		9.861260	0.089931	-1.107909	-0.286617	-0.007977	0.106878	0.180591	0.099897	0.010092	-0.819336	0.280762	0.334717	0.098607	0.000914	-0.011128	0.256200	-0.674536	-0.300665	-0.623669	162.059464	-84.523468	64.374356
47882		9.897536	-0.085553	-0.877576	-0.259345	0.273923	0.116883	0.158308	0.096643	0.005061	-0.823242	0.275391	0.341797	0.098971	-0.000846	-0.008824	0.256865	-0.674038	-0.301051	-0.623748	161.959330	-84.573618	64.566198
47883		9.817583	-0.341154	-0.675989	-0.315762	0.580860	0.011832	0.160764	0.092548	0.001280	-0.822510	0.277100	0.340088	0.098173	-0.003405	-0.006808	0.257519	-0.673544	-0.301461	-0.623814	161.845204	-84.620775	64.773450
47884		9.780030	-0.194673	-0.702538	-0.234683	0.451762	-0.018747	0.170102	0.079533	-0.005720	-0.824219	0.278564	0.335938	0.097797	-0.001944	-0.007066	0.258164	-0.673066	-0.301942	-0.623831	161.716546	-84.659609	65.000699
47885		9.816925	0.170725	-0.428258	0.215347	0.399024	0.004592	0.164810	0.065875	-0.012923	-0.823730	0.286133	0.332275	0.098168	0.001704	-0.004314	0.258746	-0.672628	-0.302446	-0.623818	161.568241	-84.689601	65.244453
47886		9.809423	0.179282	-0.332690	0.282446	0.459490	-0.010816	0.126969	0.039098	-0.009635	-0.820313	0.279053	0.337891	0.098094	0.001790	-0.003345	0.259172	-0.672325	-0.302857	-0.623768	161.466693	-84.705652	65.419634
47887		9.931569	0.033458	-0.115221	0.325798	0.726079	0.087672	0.145193	0.029955	-0.010523	-0.817871	0.281250	0.343750	0.099316	0.000330	-0.001167	0.259643	-0.672027	-0.303339	-0.623660	161.389509	-84.716516	65.580830
47888		9.905710	-0.147801	-0.217179	0.120337	0.773259	0.065556	0.134358	0.009042	-0.014542	-0.826660	0.278076	0.336182	0.099057	-0.001484	-0.002177	0.260032	-0.671800	-0.303828	-0.623503	161.321824	-84.715306	65.726251
47889		9.833221	0.101224	-0.318480	0.229728	0.525651	0.009472	0.141345	-0.006643	-0.020323	-0.830566	0.278809	0.334961	0.098332	0.001004	-0.003181	0.260401	-0.671606	-0.304376	-0.623291	161.257321	-84.704426	65.872098
47890		9.753466	0.154406	-0.436854	0.184733	0.399620	-0.058152	0.117341	-0.020592	-0.026056	-0.825439	0.286133	0.341797	0.097535	0.001534	-0.004358	0.260652	-0.671476	-0.304889	-0.623075	161.172120	-84.684984	66.025323
47891		9.787580	0.210306	-0.567108	0.139127	0.273876	-0.011249	0.074729	-0.038841	-0.022895	-0.822998	0.284912	0.333740	0.097877	0.002094	-0.005651	0.260741	-0.671464	-0.305281	-0.622859	161.119737	-84.656176	66.120834
47892		9.650969	0.049417	-0.850259	-0.174718	0.169548	-0.127270	0.088629	-0.046899	-0.024398	-0.831055	0.279541	0.341553	0.096512	0.000486	-0.008480	0.260861	-0.671456	-0.305733	-0.622596	161.081686	-84.622753	66.210193
47893		9.642921	0.229072	-0.833474	-0.029840	0.065047	-0.131368	0.066835	-0.051603	-0.024852	-0.819580	0.275879	0.344238	0.096432	0.002282	-0.008309	0.260898	-0.671491	-0.306123	-0.622352	161.040296	-84.586661	66.290151
47894		9.712659	0.264265	-0.862037	-0.019436	0.032567	-0.058342	0.037461	-0.048742	-0.036527	-0.815918	0.285156	0.343994	0.097129	0.002627	-0.008596	0.260805	-0.671536	-0.306459	-0.622177	160.909404	-84.549957	66.443331
47895		9.670256	-0.012871	-1.000540	-0.318324	0.121260	-0.096770	0.032289	-0.042694	-0.037606	-0.827393	0.284668	0.342529	0.096705	-0.000145	-0.009985	0.260697	-0.671570	-0.306770	-0.622031	160.761635	-84.516173	66.609880
47896		9.642267	0.033499	-0.951773	-0.252662	0.129365	-0.127662	0.045722	-0.039268	-0.046288	-0.828125	0.280029	0.339844	0.096425	0.000315	-0.009499	0.260616	-0.671559	-0.307152	-0.621888	160.566002	-84.482661	66.832873
47897		9.588681	0.166070	-0.985770	-0.180685	0.016504	-0.173746	0.047236	-0.038564	-0.046580	-0.829590	0.280762	0.340088	0.095889	0.001641	-0.009839	0.260539	-0.671546	-0.307537	-0.621745	160.372554	-84.449360	67.054266
47898		9.503284	0.472520	-0.973916	0.049326	-0.182932	-0.249827	0.027720	-0.040789	-0.044301	-0.826416	0.286377	0.340332	0.095036	0.004705	-0.009719	0.260402	-0.671566	-0.307858	-0.621621	160.185623	-84.415268	67.258178
47899		9.516532	0.615375	-0.846387	0.241094	-0.177896	-0.243484	0.021275	-0.053002	-0.042653	-0.823975	0.275879	0.334229	0.095169	0.006134	-0.008438	0.260228	-0.671637	-0.308168	-0.621464	160.032614	-84.374842	67.424164
47900		9.669347	0.944081	-0.628139	0.637248	-0.218781	-0.100419	-0.030516	-0.062139	-0.028776	-0.824707	0.283691	0.350098	0.096697	0.009426	-0.006253	0.259910	-0.671824	-0.308284	-0.621338	159.943800	-84.332200	67.495979
47901		9.537154	0.802523	-0.519313	0.603868	-0.048590	-0.246915	-0.057934	-0.081592	-0.009403	-0.821777	0.279541	0.344971	0.095374	0.008019	-0.005157	0.259529	-0.672138	-0.308272	-0.621164	159.984622	-84.282835	67.421393
47902		9.527954	0.768456	-0.301515	0.730705	0.140102	-0.278026	-0.061791	-0.106247	0.011180	-0.823242	0.287598	0.345703	0.095281	0.007689	-0.002967	0.259162	-0.672563	-0.308213	-0.620886	160.177891	-84.224244	67.191703
47903		9.661760	0.856843	-0.145698	0.914065	0.214187	-0.157450	-0.077251	-0.122972	0.022099	-0.832031	0.274902	0.343994	0.096618	0.008579	-0.001401	0.258750	-0.673078	-0.308089	-0.620560	160.449290	-84.158598	66.874300
47904		9.474604	0.659581	-0.200175	0.735032	0.298283	-0.346221	-0.077339	-0.154382	0.043930	-0.819092	0.280273	0.334473	0.094746	0.006616	-0.001931	0.258357	-0.673723	-0.307934	-0.620101	160.883131	-84.079963	66.393755
47905		9.401564	0.852825	-0.109199	0.949640	0.236036	-0.422741	-0.060131	-0.192977	0.061964	-0.820801	0.273926	0.355469	0.094014	0.008557	-0.001004	0.258020	-0.674492	-0.307821	-0.619461	161.475471	-83.983342	65.763686
47906		9.524995	0.975388	0.032303	1.158825	0.278276	-0.312288	-0.038426	-0.229768	0.086722	-0.825928	0.279541	0.342041	0.095245	0.009795	0.000431	0.257775	-0.675384	-0.307739	-0.618631	162.246224	-83.870283	64.966580
47907		9.752372	1.033352	0.137200	1.304991	0.348664	-0.098225	-0.052986	-0.261844	0.108242	-0.819824	0.276611	0.361572	0.097516	0.010387	0.001497	0.257495	-0.676428	-0.307578	-0.617687	163.137386	-83.742113	64.039408
47908		9.665307	0.441904	-0.208365	0.658202	0.502215	-0.170523	-0.008451	-0.291416	0.116914	-0.815430	0.289063	0.355225	0.096653	0.004475	-0.001943	0.257349	-0.677516	-0.307564	-0.616562	164.100666	-83.597507	63.065485
47909		9.649213	0.683775	-0.046300	0.973025	0.468845	-0.199659	0.015309	-0.320725	0.126697	-0.818115	0.285889	0.356445	0.096488	0.006899	-0.000308	0.257266	-0.678679	-0.307624	-0.615286	165.120563	-83.436299	62.047511
47910		9.611882	0.399612	-0.416803	0.543068	0.403875	-0.207296	0.008868	-0.356731	0.146211	-0.816650	0.294189	0.363037	0.096123	0.004067	-0.003996	0.257166	-0.679986	-0.307647	-0.613871	166.220135	-83.255835	60.945736
47911		9.537328	0.337579	-0.550494	0.437281	0.357715	-0.270239	0.026091	-0.380855	0.158859	-0.813721	0.283447	0.369629	0.095381	0.003452	-0.005323	0.257127	-0.681363	-0.307708	-0.612328	167.356455	-83.061147	59.816438
47912		9.581185	0.309464	-0.689333	0.361903	0.298229	-0.213208	0.021836	-0.402970	0.160736	-0.813477	0.284424	0.367920	0.095823	0.003172	-0.006700	0.257043	-0.682812	-0.307779	-0.610712	168.455380	-82.851677	58.721902
47913		9.714347	0.468603	-0.837491	0.425739	0.115932	-0.061038	-0.024318	-0.423986	0.170801	-0.817383	0.293213	0.367676	0.097157	0.004768	-0.008170	0.256795	-0.684399	-0.307695	-0.609079	169.526842	-82.628950	57.627317
47914		9.616543	0.371917	-1.092662	0.216042	0.005939	-0.129545	-0.036408	-0.445440	0.179631	-0.809326	0.291504	0.365723	0.096186	0.003804	-0.010713	0.256502	-0.686075	-0.307574	-0.607377	170.579745	-82.392500	56.544456
47915		9.592174	0.564340	-0.913867	0.517836	0.023118	-0.174505	-0.052037	-0.456936	0.185808	-0.802246	0.286377	0.373535	0.095937	0.005730	-0.008921	0.256157	-0.687809	-0.307398	-0.605647	171.592354	-82.147737	55.492852
47916		9.568038	0.495734	-0.961208	0.477191	0.054005	-0.195714	-0.058960	-0.484208	0.204609	-0.805176	0.291748	0.374023	0.095698	0.005052	-0.009382	0.255799	-0.689661	-0.307169	-0.603806	172.626834	-81.886337	54.414278
47917		9.407560	0.639610	-0.845026	0.693991	0.043524	-0.371204	-0.035830	-0.511490	0.219685	-0.797852	0.296143	0.378662	0.094090	0.006498	-0.008211	0.255522	-0.691583	-0.306989	-0.601813	173.678367	-81.607881	53.331098
47918		9.534860	0.953970	-0.117070	1.476497	0.393196	-0.352116	-0.039640	-0.557419	0.238936	-0.796875	0.296387	0.396484	0.095340	0.009653	-0.000907	0.255218	-0.693672	-0.306788	-0.599636	174.746547	-81.301408	52.228102
47919		9.892230	0.553083	0.372637	1.603850	1.087394	-0.089220	-0.067057	-0.634455	0.280846	-0.786621	0.300781	0.392578	0.098902	0.005671	0.004038	0.254823	-0.696085	-0.306453	-0.597174	175.896877	-80.949816	51.024930
47920		10.185641	-0.627621	0.777770	1.108382	2.249678	0.109816	0.036597	-0.695200	0.288513	-0.795654	0.301514	0.390381	0.101837	-0.006131	0.008131	0.254715	-0.698549	-0.306476	-0.594325	177.053775	-80.560059	49.874197
47921		10.478442	-1.398481	0.396416	0.388310	2.570883	0.441574	0.192899	-0.736472	0.282739	-0.782471	0.298584	0.399170	0.104789	-0.013841	0.004337	0.255072	-0.700916	-0.307031	-0.591090	178.192901	-80.143134	48.831226
47922		10.206365	-0.452520	-0.065821	0.810569	1.593200	0.246296	0.326319	-0.745934	0.284863	-0.781982	0.301758	0.406006	0.102071	-0.004379	-0.000285	0.255881	-0.703132	-0.307980	-0.587604	179.324564	-79.717219	47.871896
47923		9.579694	1.155106	-0.867645	1.451567	-0.126019	-0.234894	0.244839	-0.759957	0.309089	-0.773193	0.306641	0.415527	0.095811	0.011709	-0.008298	0.256448	-0.705518	-0.308615	-0.584153	-179.599546	-79.280375	46.920309
47924		9.046935	1.776677	-1.662581	1.385129	-1.160037	-0.620137	0.097739	-0.803144	0.336673	-0.771973	0.309082	0.413330	0.090505	0.017927	-0.016254	0.256505	-0.708249	-0.308774	-0.580730	-178.608553	-78.815260	45.968119
47925		9.252974	1.782701	-1.918301	1.323526	-1.286297	-0.375074	-0.022258	-0.839506	0.388923	-0.765381	0.316162	0.417236	0.092574	0.018005	-0.018796	0.256228	-0.711305	-0.308439	-0.577285	-177.621496	-78.325464	44.948011
47926		9.687367	1.260044	-2.167851	0.919378	-1.015352	0.099701	-0.103572	-0.876634	0.455192	-0.762451	0.312988	0.431396	0.096938	0.012810	-0.021260	0.255790	-0.714658	-0.307675	-0.573735	-176.591042	-77.808836	43.834296
47927		9.947305	0.477262	-1.994285	0.590913	-0.285745	0.322507	-0.111069	-0.890790	0.484675	-0.753174	0.313477	0.440674	0.099549	0.005003	-0.019502	0.255382	-0.718087	-0.306794	-0.570095	-175.579946	-77.279261	42.733872
47928		10.284143	0.325748	-1.790513	0.765901	0.049393	0.602958	-0.183232	-0.905698	0.504169	-0.748291	0.319092	0.441162	0.102912	0.003501	-0.017442	0.254740	-0.721664	-0.305649	-0.566469	-174.650102	-76.735964	41.672009
47929		10.626375	0.169264	-1.785161	0.815059	0.249078	0.930121	-0.230691	-0.914913	0.518353	-0.740234	0.324707	0.453125	0.106339	0.001948	-0.017367	0.253944	-0.725327	-0.304319	-0.562852	-173.795392	-76.183151	40.656647
47930		11.005579	0.351092	-1.217213	1.497099	0.623753	1.146153	-0.229460	-0.912858	0.517992	-0.743652	0.321533	0.452637	0.110100	0.003782	-0.011674	0.253149	-0.728963	-0.302985	-0.559222	-173.011499	-75.627985	39.713023
47931		11.629729	0.316479	-0.682810	2.055568	1.159844	1.599812	-0.222538	-0.915503	0.539475	-0.726807	0.323242	0.468018	0.116318	0.003471	-0.006299	0.252428	-0.732605	-0.301586	-0.555532	-172.243358	-75.067149	38.787350
47932		12.210783	0.915031	-0.515596	2.834314	0.991368	2.069600	-0.126766	-0.928037	0.568274	-0.721436	0.331543	0.469482	0.122103	0.009494	-0.004595	0.252111	-0.736186	-0.300354	-0.551595	-171.427103	-74.493202	37.866307
47933		11.956356	1.668161	-0.224929	3.636533	0.663376	1.681745	-0.112413	-0.936213	0.570939	-0.716064	0.331543	0.480713	0.119524	0.017022	-0.001699	0.251833	-0.739753	-0.299152	-0.547590	-170.662594	-73.911396	37.004617
47934		11.409027	1.303374	-0.333915	3.300555	0.779240	1.163375	-0.177882	-0.981571	0.588412	-0.711670	0.334229	0.488525	0.114066	0.013367	-0.002791	0.251286	-0.743529	-0.297755	-0.543472	-169.973355	-73.299074	36.180080
47935		11.191523	1.173242	-0.697029	3.038609	0.610699	1.027284	-0.263216	-1.036297	0.632871	-0.696045	0.332275	0.494141	0.111912	0.012078	-0.006406	0.250449	-0.747599	-0.296018	-0.539207	-169.325204	-72.649064	35.344035
47936		10.979503	0.433983	-2.083364	1.672529	0.163516	1.244106	-0.260771	-1.046677	0.647116	-0.696045	0.337646	0.504150	0.109887	0.004669	-0.020265	0.249638	-0.751688	-0.294237	-0.534856	-168.706950	-71.988585	34.538465
47937		10.619571	1.064010	-1.518068	2.522189	0.082652	0.667881	-0.246449	-1.057264	0.649233	-0.680664	0.347656	0.514893	0.106239	0.010967	-0.014633	0.248854	-0.755759	-0.292485	-0.530426	-168.132968	-71.319858	33.784167
47938		10.494208	0.720645	-1.902150	2.115691	0.072368	0.665056	-0.464966	-1.098751	0.694159	-0.673828	0.354004	0.520264	0.105019	0.007528	-0.018462	0.247299	-0.760246	-0.290025	-0.526074	-167.668993	-70.619920	33.011717
47939		10.485065	-0.591018	-3.413392	0.325614	0.013953	1.224948	-0.632351	-1.079905	0.721030	-0.648682	0.345215	0.531738	0.105054	-0.005638	-0.033549	0.245194	-0.764892	-0.286983	-0.521978	-167.293747	-69.925346	32.228231
47940		10.207257	-1.173881	-3.384471	-0.018025	0.443389	0.995758	-0.419479	-0.983492	0.691250	-0.652344	0.346191	0.544922	0.102277	-0.011456	-0.033318	0.243952	-0.768947	-0.284481	-0.517956	-166.848440	-69.286574	31.496883
47941		10.169231	-0.817679	-2.931237	0.627029	0.515611	0.770980	-0.362542	-0.832194	0.652887	-0.639160	0.351563	0.541504	0.101839	-0.007897	-0.028874	0.243029	-0.772462	-0.282073	-0.514464	-166.408722	-68.734946	30.802409
47942		10.221893	0.340760	-1.358374	2.560399	0.747931	0.153901	-0.278988	-0.533373	0.530916	-0.637695	0.351318	0.553955	0.102245	0.003660	-0.013316	0.242538	-0.774913	-0.279988	-0.512144	-166.014871	-68.364793	30.207654
47943		9.815532	1.885753	-0.341427	4.204364	0.215616	-0.741082	-0.526506	-0.203773	0.392709	-0.627441	0.342529	0.549316	0.098122	0.019041	-0.003364	0.241189	-0.776616	-0.277397	-0.511612	-165.852532	-68.196349	29.707806
47944		9.459297	1.985060	-0.938413	3.771341	-0.337381	-0.870513	-0.844717	0.078444	0.190273	-0.635010	0.350830	0.545410	0.094570	0.019901	-0.009505	0.238477	-0.777688	-0.274437	-0.512850	-166.057381	-68.212660	29.407323
47945		9.809188	2.568950	-0.613130	4.464547	-0.517365	-0.702503	-0.928888	0.351851	-0.048961	-0.635254	0.348633	0.550537	0.098087	0.025636	-0.006423	0.235193	-0.777812	-0.271857	-0.515545	-166.550910	-68.414770	29.365387
47946		10.355095	2.794700	0.088080	5.201153	-0.170278	-0.433757	-1.195933	0.598686	-0.199830	-0.635742	0.325928	0.548828	0.103580	0.027847	0.000404	0.230810	-0.777384	-0.268878	-0.519717	-167.335799	-68.773867	29.472585
47947		10.523554	0.715751	-0.778722	3.209100	0.826450	0.231300	-1.259926	0.805639	-0.291270	-0.627686	0.327881	0.549072	0.105213	0.006953	-0.008255	0.226205	-0.776326	-0.265833	-0.524864	-168.241765	-69.259861	29.669450
47948		10.771895	-0.342485	-1.043527	2.309992	1.476082	0.662229	-0.945027	1.018264	-0.423320	-0.641602	0.308838	0.548096	0.107656	-0.003704	-0.010966	0.222748	-0.774138	-0.263874	-0.530532	-169.127821	-69.878458	30.037311
47949		11.228919	-0.539434	-0.820037	2.350045	1.814904	1.060844	-0.671600	1.195062	-0.529701	-0.653564	0.315430	0.547363	0.112223	-0.005721	-0.008852	0.220285	-0.770993	-0.262837	-0.536620	-170.012785	-70.606248	30.568188
47950		11.221303	-0.157389	-0.706097	2.527366	1.557777	1.032795	-0.527511	1.318293	-0.618946	-0.653564	0.294434	0.538330	0.112158	-0.001941	-0.007796	0.218291	-0.767199	-0.262385	-0.543056	-170.983427	-71.408534	31.275191
47951		11.269601	0.221957	-0.994905	2.412008	1.060463	1.191764	-0.443185	1.396425	-0.708545	-0.655029	0.300293	0.526367	0.112630	0.001797	-0.010740	0.216461	-0.762933	-0.262397	-0.549751	-172.118438	-72.258933	32.201750
47952		11.234882	0.542268	-1.071800	2.375428	0.727351	1.209596	-0.325961	1.450400	-0.776249	-0.671875	0.296631	0.521484	0.112287	0.004968	-0.011541	0.214953	-0.758252	-0.262920	-0.556527	-173.401255	-73.137989	33.349850
47953		11.215472	0.664016	-1.046149	2.284227	0.613797	1.220202	-0.259876	1.473802	-0.807379	-0.675781	0.292480	0.507080	0.112099	0.006173	-0.011296	0.213621	-0.753338	-0.263696	-0.563305	-174.835335	-74.024580	34.689186
47954		11.301264	0.425039	-1.124890	1.906875	0.729620	1.367338	-0.207318	1.488500	-0.811363	-0.685547	0.285156	0.502441	0.112941	0.003780	-0.012094	0.212483	-0.748269	-0.264605	-0.570026	-176.404949	-74.908836	36.195102
47955		11.119925	0.114499	-1.285206	1.365016	0.807222	1.268816	-0.167715	1.491618	-0.798041	-0.692627	0.269531	0.496582	0.111103	0.000690	-0.013682	0.211518	-0.743108	-0.265551	-0.576657	-178.110599	-75.783374	37.858432
47956		10.908503	0.296495	-1.441883	1.141049	0.503517	1.123675	-0.159432	1.468675	-0.781816	-0.704834	0.270020	0.482910	0.108986	0.002527	-0.015222	0.210586	-0.737977	-0.266469	-0.583127	-179.988951	-76.630317	39.698577
47957		10.841981	0.705438	-1.469905	1.191132	0.127540	1.085433	-0.199927	1.448975	-0.765501	-0.692871	0.260742	0.483154	0.108335	0.006624	-0.015491	0.209507	-0.732915	-0.267206	-0.589528	177.903486	-77.451122	41.742841
47958		10.704667	1.052613	-1.545717	1.159417	-0.240821	0.989271	-0.291065	1.419080	-0.721886	-0.709229	0.265137	0.468018	0.106970	0.010117	-0.016231	0.208173	-0.728048	-0.267533	-0.595849	175.583721	-78.237219	43.945291
47959		10.534957	0.897021	-1.754852	0.708375	-0.309512	0.877004	-0.409727	1.381966	-0.672645	-0.716553	0.252930	0.458252	0.105254	0.008579	-0.018294	0.206486	-0.723432	-0.267342	-0.602112	173.030891	-78.985258	46.308962
47960		10.339255	0.669900	-1.975431	0.208051	-0.331999	0.727502	-0.493587	1.349562	-0.621822	-0.720947	0.256592	0.447266	0.103276	0.006328	-0.020467	0.204598	-0.719024	-0.266738	-0.608272	170.254710	-79.695965	48.846189
47961		10.260381	0.406886	-2.149522	-0.257065	-0.280198	0.671338	-0.545608	1.320679	-0.568457	-0.726318	0.247070	0.442627	0.102470	0.003718	-0.022183	0.202631	-0.714783	-0.265795	-0.614313	167.257585	-80.372584	51.571348
47962		10.171146	0.235712	-2.274572	-0.620901	-0.269234	0.590270	-0.578944	1.300253	-0.524991	-0.729980	0.243408	0.422363	0.101566	0.002023	-0.023413	0.200642	-0.710657	-0.264602	-0.620238	163.993629	-81.016632	54.542762
47963		9.908650	0.028210	-2.458759	-1.061984	-0.286091	0.337003	-0.598746	1.281487	-0.492585	-0.735107	0.240234	0.426758	0.098926	-0.000037	-0.025222	0.198647	-0.706607	-0.263235	-0.626062	160.389924	-81.626884	57.841087
47964		9.650231	-0.099092	-2.583643	-1.396540	-0.325702	0.074373	-0.583786	1.271381	-0.457951	-0.740234	0.236816	0.409912	0.096333	-0.001288	-0.026446	0.196789	-0.702585	-0.261789	-0.631755	156.424278	-82.204295	61.508758
47965		9.446714	-0.266975	-2.587360	-1.648071	-0.251412	-0.157364	-0.549212	1.262347	-0.434954	-0.751465	0.234863	0.402832	0.094295	-0.002947	-0.026461	0.195103	-0.698547	-0.260366	-0.637320	151.998852	-82.744134	65.655135
47966		9.281774	-0.471268	-2.625936	-1.938279	-0.163806	-0.353100	-0.504388	1.253801	-0.410927	-0.751709	0.236572	0.386230	0.092641	-0.004970	-0.026828	0.193629	-0.694491	-0.258998	-0.642736	147.069823	-83.240192	70.330145
47967		9.146185	-0.610897	-2.697413	-2.206420	-0.142947	-0.516888	-0.462816	1.244340	-0.389820	-0.751221	0.225830	0.385254	0.091280	-0.006350	-0.027528	0.192345	-0.690415	-0.257685	-0.648019	141.562250	-83.685508	75.606754
47968		9.043087	-0.927265	-2.938206	-2.709219	-0.078973	-0.651742	-0.418512	1.240166	-0.373453	-0.763916	0.229980	0.374023	0.090229	-0.009504	-0.029922	0.191253	-0.686303	-0.256452	-0.653179	135.414242	-84.071617	81.548892
47969		8.876161	-1.131132	-3.009882	-3.004733	-0.009624	-0.863088	-0.326222	1.244275	-0.355234	-0.760498	0.232910	0.366211	0.088552	-0.011518	-0.030632	0.190533	-0.682078	-0.255442	-0.658192	128.608004	-84.393497	88.201787
47970		8.639503	-1.277700	-3.036016	-3.222498	0.033082	-1.146421	-0.237395	1.247966	-0.338123	-0.769287	0.219727	0.343750	0.086182	-0.012959	-0.030883	0.190170	-0.677751	-0.254652	-0.663054	121.193153	-84.639156	95.514113
47971		8.397379	-1.508115	-3.030675	-3.457266	0.160493	-1.446337	-0.161730	1.244832	-0.335532	-0.765869	0.220703	0.339844	0.083758	-0.015247	-0.030816	0.190059	-0.673334	-0.254095	-0.667783	113.277952	-84.790005	103.369935
47972		8.196808	-1.813668	-3.126424	-3.811208	0.292068	-1.710842	-0.090815	1.234935	-0.339471	-0.763916	0.226563	0.323730	0.081742	-0.018290	-0.031761	0.190153	-0.668853	-0.253788	-0.672361	105.159404	-84.834212	111.469654
47973		7.980319	-1.832449	-3.208539	-3.977008	0.201743	-1.971786	-0.007049	1.231886	-0.358455	-0.781494	0.221191	0.312500	0.079571	-0.018468	-0.032575	0.190452	-0.664248	-0.253817	-0.676816	97.110603	-84.763813	119.547556
47974		7.861763	-1.783532	-3.154274	-3.991914	0.146961	-2.132858	0.064246	1.213504	-0.370887	-0.780518	0.227783	0.306885	0.078391	-0.017971	-0.032025	0.190915	-0.659597	-0.254137	-0.681100	89.580381	-84.587004	127.147413
47975		7.877724	-1.968305	-3.242746	-4.264780	0.202974	-2.182642	0.146565	1.199731	-0.386699	-0.779785	0.218750	0.300049	0.078543	-0.019811	-0.032914	0.191570	-0.654866	-0.254792	-0.685225	82.771869	-84.314938	134.072242
47976		7.732802	-1.963902	-3.188389	-4.297940	0.180496	-2.375410	0.256221	1.185319	-0.408997	-0.789063	0.225342	0.274902	0.077097	-0.019756	-0.032367	0.192482	-0.650027	-0.255899	-0.689153	76.838226	-83.959282	140.184710
47977		7.459471	-1.609408	-2.902009	-3.921314	0.012526	-2.651834	0.331411	1.156840	-0.443193	-0.794434	0.216553	0.267578	0.074389	-0.016210	-0.029478	0.193476	-0.645140	-0.257393	-0.692900	71.854121	-83.531377	145.389586
47978		7.257592	-1.417516	-2.805934	-3.792326	-0.130901	-2.873263	0.342193	1.111975	-0.467263	-0.794678	0.210938	0.265625	0.072385	-0.014296	-0.028487	0.194356	-0.640344	-0.259035	-0.696481	67.779392	-83.056194	149.689873
47979		7.192635	-1.711197	-3.067767	-4.247115	-0.096765	-3.028496	0.388287	1.068920	-0.497284	-0.798340	0.213135	0.244629	0.071718	-0.017230	-0.031095	0.195215	-0.635588	-0.260965	-0.699869	64.506939	-82.544075	153.212499
47980		7.182884	-1.661097	-3.067337	-4.290224	-0.171095	-3.080260	0.508808	1.033970	-0.529267	-0.797119	0.208496	0.236084	0.071625	-0.016722	-0.031086	0.196293	-0.630771	-0.263444	-0.702990	61.936315	-82.002954	156.100969
47981		7.199917	-1.451380	-3.042461	-4.217716	-0.353403	-3.083113	0.585934	0.987028	-0.559435	-0.803711	0.197998	0.231934	0.071807	-0.014625	-0.030822	0.197438	-0.625977	-0.266322	-0.705864	59.969059	-81.444851	158.428116
47982		7.240896	-1.414816	-3.103742	-4.317794	-0.451072	-3.088250	0.662882	0.929574	-0.573604	-0.812988	0.202148	0.219238	0.072223	-0.014252	-0.031421	0.198688	-0.621267	-0.269564	-0.708439	58.512462	-80.886938	160.286677
47983		7.228270	-1.309047	-3.081844	-4.298604	-0.552976	-3.128759	0.766680	0.867677	-0.584388	-0.810791	0.195801	0.214844	0.072110	-0.013182	-0.031182	0.200132	-0.616632	-0.273255	-0.710664	57.498804	-80.336605	161.759290
47984		7.391775	-1.027764	-3.032727	-4.172436	-0.762038	-2.964209	0.865049	0.804130	-0.587399	-0.809570	0.188232	0.202637	0.073765	-0.010362	-0.030669	0.201773	-0.612094	-0.277359	-0.712531	56.849796	-79.801129	162.921475
47985		7.433965	-0.608919	-2.925129	-3.889505	-1.041139	-2.886042	0.970944	0.733968	-0.576188	-0.814209	0.187744	0.198486	0.074214	-0.006160	-0.029554	0.203672	-0.607688	-0.281862	-0.713994	56.506768	-79.291494	163.835957
47986		7.514833	-0.345802	-2.906131	-3.770057	-1.251749	-2.794326	1.042070	0.659579	-0.555765	-0.814697	0.177979	0.186279	0.075042	-0.003514	-0.029327	0.205745	-0.603475	-0.286623	-0.715076	56.407547	-78.814440	164.545281
47987		7.685446	-0.188107	-2.752466	-3.627026	-1.284874	-2.610527	1.062050	0.568462	-0.515708	-0.818359	0.177246	0.183105	0.076771	-0.001932	-0.027753	0.207883	-0.599600	-0.291412	-0.715782	56.500270	-78.385520	165.071431
47988		7.884580	0.199404	-2.440094	-3.219071	-1.373687	-2.335331	1.060474	0.474860	-0.465999	-0.817871	0.166260	0.169189	0.078792	0.001940	-0.024578	0.210048	-0.596108	-0.296135	-0.716128	56.744331	-78.010039	165.442966
47989		8.093609	0.398822	-2.433649	-3.152515	-1.519196	-2.109321	1.009851	0.369460	-0.388038	-0.817627	0.166016	0.171875	0.080899	0.003955	-0.024466	0.212178	-0.593141	-0.300542	-0.716128	57.082204	-77.705559	165.689203
47990		8.307343	0.479950	-2.389680	-3.128844	-1.547968	-1.890127	0.974114	0.260974	-0.309933	-0.823486	0.166504	0.166016	0.083050	0.004787	-0.023982	0.214312	-0.590699	-0.304697	-0.715754	57.524031	-77.472458	165.808424
47991		8.507395	0.505529	-2.365125	-3.145444	-1.546798	-1.692420	0.921155	0.158321	-0.242424	-0.825195	0.157715	0.167725	0.085061	0.005061	-0.023695	0.216371	-0.588771	-0.308563	-0.715067	58.058438	-77.303932	165.801657
47992		8.687232	0.861282	-2.115893	-2.768741	-1.621707	-1.422756	0.839239	0.060931	-0.164243	-0.820068	0.159668	0.170410	0.086873	0.008630	-0.021149	0.218311	-0.587386	-0.312008	-0.714121	58.645016	-77.202538	165.693395
47993		8.758790	1.048031	-2.080573	-2.624684	-1.724895	-1.310963	0.682182	-0.033384	-0.063503	-0.816650	0.163330	0.169678	0.087595	0.010523	-0.020755	0.220001	-0.586659	-0.314692	-0.713021	59.208965	-77.178560	165.515933
47994		8.690386	0.944078	-2.201264	-2.748494	-1.739312	-1.405536	0.550299	-0.123447	0.043328	-0.822998	0.151855	0.164307	0.086915	0.009520	-0.021933	0.221540	-0.586559	-0.316690	-0.711741	59.755565	-77.232813	165.278881
47995		8.641695	0.842839	-2.014261	-2.652807	-1.537034	-1.443304	0.457318	-0.203269	0.139590	-0.821289	0.155518	0.173340	0.086431	0.008535	-0.020035	0.223022	-0.586997	-0.318160	-0.710260	60.306477	-77.357554	164.982812
47996		8.720561	0.461214	-1.964483	-2.865846	-1.230055	-1.422582	0.368239	-0.282175	0.244487	-0.823242	0.155762	0.171387	0.087227	0.004755	-0.019513	0.224487	-0.587974	-0.319093	-0.708570	60.859811	-77.555854	164.632231
47997		8.908857	0.136593	-1.825844	-2.994165	-0.894483	-1.271329	0.333914	-0.343208	0.315328	-0.820313	0.162109	0.181396	0.089117	0.001537	-0.018103	0.226004	-0.589318	-0.319761	-0.706668	61.459960	-77.806214	164.213857
47998		9.083475	0.256894	-1.662252	-2.786325	-0.849962	-1.046142	0.284919	-0.395926	0.365576	-0.812500	0.162354	0.182129	0.090862	0.002759	-0.016439	0.227467	-0.590976	-0.320165	-0.704628	62.114877	-78.094820	163.711249
47999		9.164366	0.157460	-1.728480	-2.864255	-0.822367	-0.974277	0.227925	-0.449060	0.408785	-0.820313	0.159180	0.195313	0.091679	0.001782	-0.017077	0.228828	-0.592952	-0.320297	-0.702464	62.842433	-78.418627	163.101629
48000		9.312657	0.217921	-1.637113	-2.729203	-0.786576	-0.791290	0.214057	-0.485572	0.441215	-0.814941	0.160400	0.191162	0.093161	0.002402	-0.016142	0.230199	-0.595115	-0.320324	-0.700171	63.652124	-78.766289	162.400879
48001		9.430998	0.466546	-1.425813	-2.366976	-0.794349	-0.595294	0.194966	-0.525638	0.484180	-0.810547	0.164795	0.204102	0.094335	0.004908	-0.014006	0.231598	-0.597504	-0.320197	-0.697728	64.552069	-79.144530	161.597884
48002		9.445701	0.182327	-1.542846	-2.580151	-0.678997	-0.619419	0.151792	-0.565396	0.544330	-0.807373	0.168701	0.204102	0.094495	0.002092	-0.015160	0.233009	-0.600167	-0.319782	-0.695159	65.521712	-79.560564	160.699892
48003		11.145956	0.512467	2.206417	-0.001133	1.916241	1.398511	0.721300	-0.367231	0.489097	-0.817383	0.170654	0.210205	0.111406	0.005317	0.022288	0.236252	-0.601381	-0.321274	-0.692322	66.387526	-79.899263	160.240110
48004		18.167476	16.276014	16.628331	19.893769	2.274725	11.878782	1.717987	0.436200	-0.033856	-0.816406	0.174316	0.203125	0.182066	0.161295	0.167276	0.241958	-0.597762	-0.326825	-0.690885	66.160105	-79.777417	161.471312
48005		22.777016	22.360260	14.625313	22.033139	-3.056920	17.350683	-1.313847	0.704873	-0.217162	-0.819092	0.164063	0.198730	0.228524	0.224306	0.143977	0.238393	-0.596546	-0.322102	-0.695379	63.717063	-79.490542	163.189703
48006		10.719926	6.654733	2.974985	4.850162	-1.848849	2.066185	-1.896932	0.509862	-0.235963	-0.809814	0.159424	0.196045	0.107352	0.066697	0.028844	0.232691	-0.596624	-0.315617	-0.700201	61.600678	-79.232994	164.237362
48007		6.709483	-0.006075	0.041810	-1.199665	0.385414	-3.222463	-0.400881	0.151003	-0.615140	-0.818115	0.155273	0.193359	0.067095	-0.000266	0.000368	0.229544	-0.595586	-0.315900	-0.701993	61.861388	-78.878472	163.738020
48008		9.954982	7.361846	3.588953	5.781178	-1.991727	1.535879	0.129691	-0.129484	-0.127412	-0.815186	0.154785	0.194580	0.099573	0.073532	0.036002	0.229244	-0.595689	-0.316913	-0.701547	62.462624	-78.845322	163.201114
48009		10.294596	7.174821	-2.093628	1.693345	-5.914422	1.322479	-0.165116	-0.379960	0.502011	-0.816162	0.149902	0.198975	0.102805	0.071989	-0.020800	0.229876	-0.598003	-0.315302	-0.700096	62.702371	-79.197650	162.860684
48010		10.180297	3.178344	-4.162372	-2.429827	-4.638448	0.367951	0.585869	-0.445401	0.642176	-0.814697	0.164795	0.203857	0.101792	0.032232	-0.041303	0.233137	-0.599893	-0.315970	-0.697092	63.384225	-79.637997	162.508660
48011		9.599985	4.386261	0.441528	1.795352	-2.178204	0.366956	1.106193	-0.471883	0.499868	-0.808105	0.166748	0.202148	0.095879	0.044076	0.004885	0.237413	-0.601025	-0.318901	-0.693330	64.696642	-80.010486	161.819434
48012		10.998282	4.370151	5.407985	5.031454	1.565987	2.084285	0.772395	-0.509953	0.560880	-0.794922	0.175537	0.198730	0.109721	0.043799	0.054529	0.240828	-0.602760	-0.320524	-0.689889	65.922604	-80.421068	161.024603
48013		9.802204	0.331174	3.336872	0.993512	2.750897	0.125753	0.394377	-0.515986	0.670567	-0.799072	0.180176	0.208008	0.097924	0.003574	0.033628	0.243466	-0.605132	-0.320512	-0.686885	66.884074	-80.887897	160.279440
48014		7.770926	-0.513477	1.307005	-0.620196	1.721228	-2.130780	0.414207	-0.460923	0.605975	-0.798096	0.198975	0.214355	0.077694	-0.004927	0.013239	0.246026	-0.607175	-0.320690	-0.684081	67.848314	-81.306403	159.543801
48015		9.296696	-0.987475	0.998821	-1.325081	1.887885	-0.697815	0.043045	-0.463369	0.659231	-0.796387	0.196289	0.208740	0.092975	-0.009570	0.010202	0.247633	-0.609758	-0.319434	-0.681788	68.613128	-81.751937	158.795690
48016		11.350906	-2.752360	0.347482	-3.230845	2.688301	1.090194	-0.279156	-0.470920	0.858254	-0.786865	0.205078	0.214111	0.113617	-0.027031	0.003780	0.248919	-0.613070	-0.316476	-0.679726	69.006350	-82.304283	158.237268
48017		10.074656	-5.202837	-0.907253	-5.603127	3.336704	-0.492723	-0.045833	-0.397984	0.854388	-0.788330	0.211670	0.216553	0.100985	-0.051599	-0.008860	0.251017	-0.615824	-0.314224	-0.677506	69.306731	-82.839205	157.908028
48018		8.930211	-3.918305	-1.506439	-4.874913	1.946807	-1.457096	0.386287	-0.312344	0.625832	-0.784668	0.226807	0.212402	0.089448	-0.038874	-0.015000	0.253801	-0.617375	-0.314025	-0.675146	69.907820	-83.233933	157.525583
48019		10.435938	-0.324331	-2.088293	-2.750099	-0.860372	0.437742	0.471253	-0.291372	0.471776	-0.777832	0.224854	0.224121	0.104397	-0.002948	-0.020738	0.256356	-0.618496	-0.314558	-0.672902	70.780545	-83.540993	156.918956
48020		11.539632	1.249211	-1.461154	-1.223922	-1.415272	1.735353	0.446799	-0.288698	0.431563	-0.776611	0.227051	0.220947	0.115390	0.012773	-0.014417	0.258702	-0.619569	-0.315126	-0.670749	71.765887	-83.824445	156.185295
48021		10.393377	-1.298937	-2.282226	-3.477528	-0.386599	0.320185	0.448991	-0.297143	0.430909	-0.769531	0.227051	0.226074	0.103995	-0.012714	-0.022697	0.261036	-0.620660	-0.315710	-0.668558	72.881519	-84.107635	155.322272
48022		9.700036	-0.724521	-2.986791	-3.401322	-1.341970	-0.317090	0.646875	-0.258810	0.369709	-0.774170	0.234619	0.220459	0.097052	-0.006969	-0.029765	0.263836	-0.621258	-0.317092	-0.666245	74.095985	-84.348910	154.474277
48023		10.341058	1.113855	-2.942550	-2.001994	-2.508622	0.508905	0.629942	-0.248034	0.322305	-0.774902	0.234863	0.225098	0.103429	0.011398	-0.029262	0.266439	-0.621760	-0.318545	-0.664044	75.403588	-84.560629	153.523299
48024		10.600280	1.878937	-2.563433	-1.144263	-2.718358	0.853543	0.412720	-0.245533	0.317256	-0.769531	0.244141	0.226807	0.106004	0.019010	-0.025465	0.268351	-0.622526	-0.319286	-0.662197	76.665652	-84.766879	152.493379
48025		10.437215	2.515021	-2.159202	-0.337703	-2.836047	0.759236	0.134088	-0.239251	0.322857	-0.766602	0.248779	0.227051	0.104357	0.025333	-0.021450	0.269423	-0.623652	-0.319076	-0.660802	77.813025	-84.973609	151.418703
48026		10.427758	1.920803	-1.769805	-0.488497	-2.157967	0.707020	-0.152029	-0.230421	0.352290	-0.776367	0.244873	0.225586	0.104264	0.019378	-0.017593	0.269712	-0.625177	-0.317817	-0.659849	78.787627	-85.193813	150.353212
48027		10.108330	0.356049	-1.370175	-1.344130	-0.853000	0.269379	-0.279642	-0.216197	0.365163	-0.763184	0.250977	0.231689	0.101091	0.003726	-0.013598	0.269666	-0.626846	-0.316075	-0.659121	79.672017	-85.418403	149.305288
48028		9.763376	0.201475	-0.714192	-0.969775	-0.276273	-0.073217	-0.352831	-0.194346	0.348482	-0.777588	0.247803	0.239746	0.097637	0.002172	-0.007051	0.269369	-0.628509	-0.314112	-0.658597	80.467536	-85.629967	148.304698
48029		9.467555	0.306803	-0.028153	-0.386390	0.151321	-0.349219	-0.379422	-0.157824	0.321030	-0.763672	0.250488	0.234863	0.094671	0.003220	-0.000213	0.268953	-0.630043	-0.312098	-0.658260	81.091432	-85.821845	147.461269
48030		9.650543	0.213928	0.215822	-0.274861	0.393370	-0.169298	-0.445886	-0.136360	0.299633	-0.766602	0.248047	0.241455	0.096501	0.002289	0.002219	0.268289	-0.631555	-0.309900	-0.658120	81.593184	-85.998948	146.702247
48031		9.598701	0.225015	0.095163	-0.314201	0.284736	-0.220249	-0.444453	-0.142772	0.288801	-0.760254	0.252686	0.243652	0.095983	0.002391	0.001015	0.267581	-0.633067	-0.307748	-0.657965	82.225462	-86.170060	145.813442
48032		9.590344	0.703637	0.550009	0.373195	0.294274	-0.192585	-0.428622	-0.140768	0.256095	-0.765381	0.257568	0.251465	0.095890	0.007171	0.005552	0.266818	-0.634494	-0.305746	-0.657834	82.950672	-86.321535	144.840699
48033		9.755658	0.027249	0.734175	0.016383	0.882171	-0.069277	-0.465615	-0.146186	0.243342	-0.767090	0.253906	0.246338	0.097551	0.000408	0.007412	0.265885	-0.635966	-0.303669	-0.657752	83.794478	-86.465397	143.728107
48034		9.725358	-1.038751	0.498322	-0.896109	1.421172	-0.164522	-0.383844	-0.151212	0.235255	-0.761719	0.254883	0.249023	0.097262	-0.010263	0.005077	0.265176	-0.637328	-0.301891	-0.657538	84.818864	-86.603608	142.481651
48035		10.010201	-1.114050	0.752200	-0.763674	1.667330	0.119471	-0.311530	-0.137543	0.194689	-0.756836	0.252930	0.254639	0.100108	-0.011031	0.007608	0.264583	-0.638487	-0.300460	-0.657308	85.878099	-86.716806	141.241997
48036		9.803134	-1.419220	0.516959	-1.113306	1.694630	-0.103330	-0.218334	-0.120844	0.152832	-0.760986	0.261230	0.249268	0.098039	-0.014112	0.005244	0.264175	-0.639401	-0.299446	-0.657047	86.918111	-86.803948	140.075161
48037		9.910266	-0.637957	0.871941	-0.284376	1.426811	0.049562	-0.231269	-0.128205	0.132386	-0.761475	0.263672	0.259033	0.099101	-0.006304	0.008790	0.263647	-0.640326	-0.298463	-0.656804	88.101837	-86.878482	138.757083
48038		10.100869	-0.803958	0.325582	-0.766061	1.150155	0.230726	-0.265607	-0.137468	0.131735	-0.750244	0.271729	0.246094	0.101012	-0.007969	0.003336	0.262992	-0.641323	-0.297382	-0.656585	89.420318	-86.950953	137.284423
48039		10.074809	-0.628213	-0.215885	-0.989730	0.638949	0.215034	-0.209658	-0.137438	0.096736	-0.754639	0.264404	0.264160	0.100753	-0.006236	-0.002083	0.262402	-0.642194	-0.296596	-0.656325	90.837458	-87.001680	135.745158
48040		10.006171	0.294116	-0.437821	-0.455760	-0.151473	0.195858	-0.151164	-0.142225	0.060580	-0.759766	0.267822	0.259766	0.100064	0.002968	-0.004309	0.261872	-0.642948	-0.296124	-0.656012	92.368689	-87.029300	134.125255
48041		10.014319	0.192384	-0.756038	-0.735080	-0.303767	0.200432	-0.179703	-0.166224	0.061910	-0.754639	0.266602	0.258789	0.100149	0.001948	-0.007479	0.261220	-0.643821	-0.295584	-0.655659	94.185495	-87.054640	132.203066
48042		9.835424	-0.111561	-0.854078	-1.001551	-0.162415	0.008105	-0.102036	-0.177114	0.058460	-0.752930	0.265869	0.264648	0.098362	-0.001091	-0.008453	0.260790	-0.644620	-0.295325	-0.655162	96.188377	-87.073917	130.139150
48043		9.653863	-0.011503	-0.685377	-0.791739	-0.105931	-0.167541	-0.026012	-0.183204	0.043174	-0.762207	0.268311	0.266602	0.096545	-0.000095	-0.006765	0.260546	-0.645319	-0.295370	-0.654550	98.309003	-87.080453	128.000980
48044		9.685970	-0.222757	-0.548792	-0.836095	0.150881	-0.145890	-0.018092	-0.187112	0.041822	-0.760986	0.265869	0.264648	0.096865	-0.002208	-0.005397	0.260316	-0.646016	-0.295452	-0.653917	100.474308	-87.081586	125.822620
48045		9.881082	0.275368	0.026191	-0.070600	0.241895	0.069052	-0.019106	-0.169095	0.029390	-0.759521	0.261475	0.281494	0.098810	0.002768	0.000345	0.260070	-0.646638	-0.295546	-0.653357	102.417322	-87.073997	123.866257
48046		9.761368	-0.492993	-0.390423	-0.896245	0.476927	-0.083913	-0.073123	-0.174705	0.038842	-0.754639	0.271729	0.274658	0.097618	-0.004912	-0.003817	0.259670	-0.647360	-0.295441	-0.652848	104.396727	-87.067346	121.842447
48047		9.557010	0.120659	-0.089675	-0.227142	0.272525	-0.261082	0.032770	-0.161302	0.010898	-0.758301	0.268066	0.273926	0.095571	0.001212	-0.000819	0.259543	-0.647862	-0.295753	-0.652260	106.202452	-87.044040	120.053274
48048		9.515876	0.044988	-0.246301	-0.376744	0.220964	-0.303545	-0.008588	-0.177980	0.030402	-0.757080	0.260986	0.274414	0.095161	0.000464	-0.002378	0.259319	-0.648497	-0.295890	-0.651655	108.188450	-87.025394	118.059823
48049		9.588890	1.020835	0.071344	0.559785	-0.208932	-0.187878	0.066209	-0.182243	0.040032	-0.760986	0.263428	0.280273	0.095886	0.010227	0.000804	0.259364	-0.649065	-0.296243	-0.650910	110.277971	-87.007656	116.005589
48050		9.772476	1.373482	0.120926	0.860541	-0.396578	0.010985	-0.033513	-0.204618	0.054001	-0.750732	0.266357	0.281494	0.097720	0.013761	0.001307	0.259096	-0.649853	-0.296256	-0.650224	112.558969	-86.988480	113.702364
48051		9.576593	0.836142	-0.149237	0.308731	-0.218598	-0.205950	-0.061198	-0.240156	0.077780	-0.760010	0.270752	0.276123	0.095764	0.008398	-0.001380	0.258764	-0.650830	-0.296147	-0.649430	115.256117	-86.968397	110.966492
48052		9.372807	0.662307	-0.198566	0.174665	-0.132288	-0.416969	-0.014109	-0.256861	0.096415	-0.760742	0.264404	0.287354	0.093727	0.006668	-0.001866	0.258619	-0.651823	-0.296152	-0.648488	118.183147	-86.946404	108.027371
48053		9.499665	0.441485	0.056825	0.214792	0.222474	-0.307632	-0.027544	-0.277671	0.127407	-0.752930	0.271484	0.287109	0.094993	0.004475	0.000700	0.258500	-0.652949	-0.296038	-0.647455	121.421462	-86.925600	104.768763
48054		9.573505	0.824335	0.448536	0.788040	0.254788	-0.229018	-0.043809	-0.272615	0.136751	-0.753174	0.272217	0.293213	0.095723	0.008310	0.004614	0.258365	-0.654088	-0.295834	-0.646451	124.601370	-86.901106	101.559235
48055		9.619095	-0.057155	0.455512	0.183289	0.882297	-0.224902	0.004118	-0.265304	0.121489	-0.758301	0.273438	0.291260	0.096185	-0.000513	0.004683	0.258347	-0.655121	-0.295824	-0.645416	127.598034	-86.862758	98.560636
48056		9.727619	-0.182875	0.448142	0.111652	0.981057	-0.123216	0.031729	-0.255253	0.107268	-0.765869	0.270996	0.295166	0.097271	-0.001777	0.004605	0.258388	-0.656061	-0.295937	-0.644392	130.349413	-86.813565	95.823406
48057		9.471726	-0.447312	-0.109147	-0.438956	0.758857	-0.370390	0.105020	-0.257845	0.126222	-0.757813	0.270752	0.296387	0.094721	-0.004413	-0.000972	0.258727	-0.656943	-0.296226	-0.643223	133.210292	-86.764153	93.018429
48058		9.636413	0.880005	0.195112	0.754359	0.081704	-0.164001	0.158694	-0.251027	0.111319	-0.756836	0.267334	0.301758	0.096357	0.008852	0.002079	0.259203	-0.657708	-0.296727	-0.642018	135.849466	-86.703927	90.466173
48059		9.846259	0.800275	-0.411080	0.303780	-0.277159	0.066031	0.051223	-0.264288	0.121677	-0.746826	0.273926	0.302490	0.098463	0.008064	-0.003979	0.259340	-0.658671	-0.296866	-0.640911	138.497557	-86.635497	87.843131
48060		9.604650	1.021685	-0.627779	0.340919	-0.588847	-0.157419	-0.003604	-0.281441	0.131623	-0.759521	0.270264	0.309082	0.096048	0.010280	-0.006143	0.259300	-0.659771	-0.296818	-0.639816	141.174463	-86.556262	85.159563
48061		9.665626	0.714875	-0.796270	0.031862	-0.482959	-0.100064	-0.035696	-0.313319	0.144135	-0.752197	0.270752	0.306885	0.096663	0.007217	-0.007813	0.259148	-0.661033	-0.296666	-0.638644	143.981479	-86.459273	82.326973
48062		9.821181	0.422073	-0.685181	-0.070873	-0.178462	0.039533	-0.044973	-0.314275	0.156792	-0.750488	0.281982	0.304443	0.098219	0.004296	-0.006698	0.259003	-0.662326	-0.296443	-0.637467	146.721019	-86.357808	79.556362
48063		9.684827	0.388469	-0.810322	-0.151641	-0.241228	-0.090439	-0.083577	-0.318296	0.156145	-0.751221	0.278809	0.316895	0.096858	0.003957	-0.007951	0.258721	-0.663680	-0.296104	-0.636330	149.302410	-86.246136	76.921741
48064		9.437124	0.412607	-0.940443	-0.196157	-0.354003	-0.328486	-0.089997	-0.341295	0.162206	-0.754150	0.282715	0.323242	0.094384	0.004198	-0.009245	0.258402	-0.665120	-0.295753	-0.635118	151.856537	-86.117314	74.310392
48065		9.462897	0.209685	-0.877039	-0.263841	-0.152022	-0.311807	-0.123613	-0.378219	0.189873	-0.741211	0.285400	0.320313	0.094643	0.002181	-0.008593	0.258004	-0.666761	-0.295249	-0.633792	154.559363	-85.968754	71.530261
48066		9.475800	0.442952	-0.528793	0.183526	-0.048449	-0.313717	-0.013434	-0.382960	0.206337	-0.753174	0.280273	0.323242	0.094763	0.004527	-0.005107	0.258016	-0.668293	-0.295045	-0.632266	157.252449	-85.812866	68.822658
48067		9.471295	0.518256	-0.205609	0.502517	0.144414	-0.339422	-0.064143	-0.415689	0.238642	-0.746826	0.285400	0.328613	0.094711	0.005295	-0.001861	0.257912	-0.670041	-0.294612	-0.630658	160.035273	-85.636970	65.995367
48068		9.349887	0.550994	0.184170	0.837032	0.406213	-0.491095	0.034025	-0.443958	0.262584	-0.750977	0.285400	0.332275	0.093487	0.005632	0.002050	0.258169	-0.671781	-0.294445	-0.628778	162.870965	-85.440159	63.170754
48069		9.557979	0.230715	0.447443	0.844653	0.845554	-0.316385	0.018643	-0.471941	0.288618	-0.737793	0.281982	0.330322	0.095565	0.002445	0.004700	0.258413	-0.673664	-0.294174	-0.626787	165.682742	-85.221163	60.360483
48070		9.533769	-0.278575	0.200525	0.356468	1.034012	-0.335658	0.109703	-0.477726	0.288366	-0.747070	0.292236	0.337158	0.095336	-0.002649	0.002231	0.258952	-0.675439	-0.294196	-0.624639	168.296480	-84.988550	57.800406
48071		9.485024	-0.187510	0.004018	0.334092	0.840531	-0.369038	0.210517	-0.469965	0.282052	-0.739502	0.290771	0.333496	0.094852	-0.001742	0.000261	0.259822	-0.677047	-0.294541	-0.622371	170.689361	-84.750137	55.519144
48072		9.603742	-0.241757	-0.461905	0.030043	0.566607	-0.211569	0.203386	-0.479336	0.277673	-0.738770	0.291504	0.339111	0.096051	-0.002280	-0.004391	0.260637	-0.678679	-0.294888	-0.620084	172.850422	-84.498357	53.465726
48073		9.645698	-0.842022	-1.197668	-0.856529	0.469010	-0.105523	0.219258	-0.482991	0.271413	-0.737793	0.298584	0.352051	0.096497	-0.008276	-0.011753	0.261480	-0.680288	-0.295308	-0.617761	174.802964	-84.237165	51.630083
48074		9.762568	-0.642944	-1.331189	-0.745346	0.259108	0.029581	0.281847	-0.475722	0.242832	-0.742432	0.301025	0.346436	0.097665	-0.006292	-0.013089	0.262455	-0.681743	-0.296006	-0.615405	176.464988	-83.973556	50.121710
48075		9.853688	-0.439925	-1.515254	-0.666548	0.010407	0.144223	0.234839	-0.489859	0.224951	-0.739014	0.301270	0.352051	0.098578	-0.004271	-0.014916	0.263193	-0.683273	-0.296636	-0.613086	177.879441	-83.697064	48.834499
48076		9.889664	0.057162	-1.430588	-0.193329	-0.247312	0.175132	0.254392	-0.486287	0.209820	-0.732666	0.297363	0.348145	0.098930	0.000693	-0.014065	0.263953	-0.684735	-0.297372	-0.610767	179.112990	-83.419511	47.739934
48077		9.888522	0.584852	-1.525668	0.178725	-0.655878	0.186822	0.200332	-0.512355	0.206790	-0.731201	0.310303	0.365479	0.098918	0.005966	-0.014997	0.264478	-0.686341	-0.297983	-0.608436	-179.790757	-83.124326	46.751791
48078		9.864179	0.750850	-1.407127	0.431420	-0.661879	0.148303	0.155870	-0.528768	0.218272	-0.726318	0.302979	0.360107	0.098670	0.007627	-0.013805	0.264858	-0.688063	-0.298440	-0.606096	-178.756901	-82.817808	45.800231
48079		9.734989	-0.161451	-1.556398	-0.294107	-0.137129	0.041898	0.220547	-0.541098	0.230650	-0.727783	0.302979	0.363525	0.097393	-0.001485	-0.015302	0.265479	-0.689752	-0.299063	-0.603593	-177.714377	-82.501688	44.876643
48080		9.706625	0.411557	-0.909831	0.613916	-0.035624	-0.074244	0.232773	-0.562578	0.226194	-0.720215	0.304688	0.370605	0.097087	0.004236	-0.008820	0.266092	-0.691474	-0.299764	-0.601000	-176.770001	-82.171669	44.058469
48081		9.723939	0.547530	-0.489891	1.053559	0.205301	-0.120303	0.160471	-0.585311	0.248181	-0.726807	0.303955	0.368896	0.097246	0.005600	-0.004610	0.266485	-0.693387	-0.300199	-0.598398	-175.854702	-81.825845	43.227163
48082		9.467474	-0.026812	-0.734871	0.497958	0.416878	-0.338948	0.164369	-0.608306	0.262734	-0.716797	0.312988	0.377197	0.094697	-0.000138	-0.007061	0.266897	-0.695377	-0.300623	-0.595687	-174.961939	-81.464711	42.420153
48083		9.268507	-0.163684	-0.583190	0.535422	0.626072	-0.561032	0.231894	-0.642810	0.276093	-0.707275	0.310547	0.379883	0.092705	-0.001502	-0.005536	0.267529	-0.697392	-0.301242	-0.592728	-174.063103	-81.081121	41.645356
48084		9.383750	0.179339	-0.440381	0.959345	0.537511	-0.481494	0.244104	-0.687202	0.316213	-0.712646	0.318115	0.386230	0.093849	0.001947	-0.004079	0.268251	-0.699570	-0.301815	-0.589534	-173.106876	-80.668092	40.818669
48085		9.558086	0.837141	-0.051891	1.793352	0.426078	-0.396621	0.223526	-0.742502	0.353987	-0.713623	0.323486	0.382813	0.095567	0.008541	-0.000155	0.268925	-0.701986	-0.302262	-0.586116	-172.136625	-80.218473	39.964783
48086		9.542754	0.355185	0.205820	1.680170	0.968877	-0.460128	0.261227	-0.802219	0.392110	-0.711670	0.325439	0.392090	0.095411	0.003736	0.002446	0.269747	-0.704569	-0.302761	-0.582370	-171.135949	-79.729698	39.100729
48087		9.701833	0.524751	0.737192	2.257272	1.296581	-0.422946	0.295563	-0.858636	0.420848	-0.697998	0.320557	0.402344	0.096974	0.005440	0.007796	0.270683	-0.707298	-0.303327	-0.578320	-170.143106	-79.203606	38.263266
48088		9.876692	0.194401	0.720894	2.114067	1.562442	-0.263071	0.308684	-0.914227	0.477041	-0.697998	0.332520	0.407471	0.098728	0.002168	0.007664	0.271735	-0.710234	-0.303800	-0.573963	-169.100697	-78.637951	37.381433
48089		10.276166	0.303350	-0.133108	1.800658	0.947586	0.265405	0.317548	-0.971533	0.526189	-0.689697	0.334961	0.410400	0.102758	0.003305	-0.000827	0.272865	-0.713377	-0.304192	-0.569303	-168.045006	-78.031368	36.489394
48090		10.243146	0.459895	-1.189868	1.339542	0.099935	0.421750	0.321221	-1.013967	0.577800	-0.692627	0.335205	0.408936	0.102476	0.004914	-0.011371	0.274080	-0.716688	-0.304458	-0.564397	-166.977006	-77.391573	35.584868
48091		10.243940	1.055170	-1.132319	1.938748	-0.214699	0.362165	0.296342	-1.045174	0.609082	-0.685303	0.338379	0.426758	0.102464	0.010880	-0.010772	0.275237	-0.720143	-0.304572	-0.559352	-165.961589	-76.726693	34.717353
48092		10.950450	0.645316	-1.071911	1.932619	0.233777	1.035648	0.179861	-1.099915	0.683702	-0.676758	0.345459	0.436523	0.109538	0.006837	-0.010111	0.276088	-0.723994	-0.304156	-0.554163	-164.967759	-76.017531	33.800931
48093		11.880127	-0.338469	-1.242025	1.421409	0.926730	2.015805	0.139496	-1.122503	0.728505	-0.657471	0.351318	0.426270	0.118880	-0.002943	-0.011755	0.276872	-0.728001	-0.303482	-0.548867	-164.007217	-75.285364	32.892107
48094		12.495260	-0.355749	-1.072596	1.800654	1.190354	2.546400	0.096897	-1.084777	0.714821	-0.656006	0.360107	0.439941	0.125020	-0.003106	-0.010050	0.277507	-0.731910	-0.302677	-0.543768	-163.163855	-74.572789	32.076357
48095		12.928669	0.362402	-2.525530	1.682994	-0.249632	3.254935	0.028137	-1.107362	0.764255	-0.650879	0.370117	0.444824	0.129409	0.004122	-0.024538	0.277979	-0.736019	-0.301522	-0.538598	-162.351627	-73.836423	31.249159
48096		12.263037	3.027497	-2.350962	3.774122	-1.942088	2.314018	0.003687	-1.109958	0.702437	-0.638184	0.368408	0.446777	0.122651	0.030706	-0.022828	0.278178	-0.740043	-0.300519	-0.533518	-161.737176	-73.106871	30.610583
48097		11.893198	3.397951	-2.103359	4.254349	-2.018498	1.816700	-0.344857	-1.176417	0.726426	-0.631104	0.365479	0.460938	0.118929	0.034376	-0.020393	0.277039	-0.744730	-0.298575	-0.528657	-161.367258	-72.335309	30.016402
48098		12.013456	1.705718	-1.873615	3.327014	-0.659519	1.987175	-0.402112	-1.217550	0.811481	-0.618652	0.373535	0.463379	0.120175	0.017508	-0.018040	0.275835	-0.749693	-0.296205	-0.523583	-160.955019	-71.524523	29.340585
48099		12.031537	1.065649	-1.063566	3.526366	0.402565	1.781479	-0.341422	-1.261527	0.851230	-0.617920	0.380615	0.478516	0.120333	0.011151	-0.009895	0.274881	-0.754700	-0.293888	-0.518168	-160.517137	-70.680956	28.671138
48100		11.340634	0.305311	-1.205258	2.847816	0.748749	1.209228	-0.419213	-1.310202	0.867874	-0.602051	0.383301	0.480225	0.113467	0.003521	-0.011316	0.273587	-0.759918	-0.291354	-0.512627	-160.170782	-69.806403	28.048065
48101		10.690832	-0.708510	-0.723126	2.372918	1.723681	0.517593	-0.126464	-1.314232	0.797595	-0.595459	0.389648	0.500732	0.106980	-0.006663	-0.006524	0.273203	-0.764595	-0.289826	-0.506710	-159.800665	-68.942295	27.575327
48102		10.683577	-1.150397	-2.827776	0.909696	0.582984	1.245735	-0.375196	-1.350963	0.760423	-0.588379	0.387451	0.490234	0.107066	-0.011149	-0.027534	0.271704	-0.769605	-0.287841	-0.501032	-159.671500	-68.064979	27.205615
48103		10.628498	-2.310834	-1.942392	0.758438	2.056330	1.016530	-0.064619	-1.272311	0.688801	-0.573486	0.393799	0.512451	0.106484	-0.022748	-0.018740	0.271318	-0.773847	-0.286787	-0.495279	-159.440720	-67.243977	26.916204
48104		10.508716	-1.944387	-2.732276	0.645315	1.281985	1.124269	-0.153467	-1.263531	0.727670	-0.571045	0.400146	0.513428	0.105327	-0.019082	-0.026643	0.270682	-0.778203	-0.285335	-0.489606	-159.226063	-66.419226	26.587228
48105		10.526975	-2.669808	-3.370096	-0.097837	1.396848	1.471798	-0.252691	-1.238905	0.735731	-0.555176	0.395264	0.521240	0.105573	-0.026352	-0.033014	0.269701	-0.782603	-0.283560	-0.484136	-159.064810	-65.605793	26.252399
48106		10.198328	-2.737347	-3.890444	-0.431462	1.079657	1.380196	-0.240546	-1.189661	0.725160	-0.543457	0.399414	0.524170	0.102311	-0.027049	-0.038264	0.268798	-0.786812	-0.281775	-0.478829	-158.903146	-64.820292	25.922676
48107		9.947704	-2.038503	-2.645456	0.845835	1.451292	0.545293	-0.016005	-0.974304	0.685377	-0.531006	0.408936	0.529541	0.099673	-0.020046	-0.025968	0.268975	-0.790114	-0.280383	-0.474087	-158.580067	-64.157683	25.554671
48108		9.572407	0.409287	0.118138	4.152862	1.597339	-1.326566	0.117168	-0.552350	0.500481	-0.526367	0.406982	0.531006	0.095710	0.004332	0.001448	0.269824	-0.791958	-0.279462	-0.471061	-158.216183	-63.757710	25.224539
48109		9.167477	3.079585	1.504729	6.717803	0.608964	-2.721079	-0.186997	-0.135500	0.250381	-0.526611	0.408447	0.533447	0.091626	0.030925	0.015081	0.269460	-0.792874	-0.278250	-0.470446	-158.122448	-63.632433	25.000591
48110		9.233696	2.765036	0.692597	6.041105	0.264281	-2.274692	-0.680851	0.151108	-0.057587	-0.524414	0.409912	0.531006	0.092350	0.027647	0.006762	0.266811	-0.793347	-0.276710	-0.472064	-158.520179	-63.724927	25.009256
48111		10.055849	3.056861	1.234822	6.861249	0.560918	-1.775436	-0.763260	0.474004	-0.370138	-0.527832	0.401855	0.531982	0.100644	0.030429	0.011993	0.263539	-0.792720	-0.275778	-0.475488	-159.171392	-64.054963	25.247572
48112		10.278532	1.653789	0.090089	5.216653	0.794435	-0.837953	-1.004951	0.722905	-0.490812	-0.541260	0.397461	0.528320	0.102828	0.016289	0.000447	0.259356	-0.791628	-0.274414	-0.480372	-160.005227	-64.540965	25.534089
48113		10.570991	-0.731815	-0.696639	3.111713	2.001667	0.141006	-0.685943	1.009737	-0.611633	-0.546387	0.386963	0.526855	0.105650	-0.007666	-0.007474	0.256528	-0.789229	-0.273909	-0.486092	-160.698055	-65.203873	25.865323
48114		10.726584	-0.916453	-0.377676	3.114802	2.352463	0.227434	-0.430547	1.253953	-0.761631	-0.553223	0.389893	0.516113	0.107203	-0.009582	-0.004429	0.254664	-0.785664	-0.274290	-0.492588	-161.350956	-66.024801	26.311460
48115		10.498715	-0.588692	-0.766001	2.854075	1.783661	0.178636	-0.334685	1.439551	-0.874856	-0.568115	0.376709	0.515137	0.104901	-0.006360	-0.008405	0.253135	-0.781310	-0.275096	-0.499799	-162.053313	-66.965469	26.868311
48116		10.416161	0.029077	-0.424990	3.294196	1.517188	-0.039194	-0.217285	1.572426	-0.968326	-0.577637	0.371338	0.498047	0.104124	-0.000219	-0.005069	0.251993	-0.776287	-0.276372	-0.507441	-162.809861	-67.991346	27.552661
48117		10.581278	0.481334	-0.347679	3.524744	1.234837	0.105165	-0.271084	1.640650	-1.034099	-0.584229	0.356445	0.492676	0.105802	0.004261	-0.004351	0.250548	-0.770994	-0.277654	-0.515463	-163.732813	-69.062285	28.377568
48118		10.941645	0.215210	-0.821778	2.944778	1.130651	0.698595	-0.264301	1.691104	-1.082520	-0.593506	0.353027	0.472900	0.109351	0.001548	-0.009145	0.249048	-0.765422	-0.279050	-0.523675	-164.797255	-70.162464	29.351683
48119		11.121170	0.031508	-1.180538	2.420864	1.010220	1.058820	-0.245491	1.707169	-1.068184	-0.603271	0.343018	0.466309	0.111105	-0.000294	-0.012754	0.247655	-0.759721	-0.280391	-0.531857	-165.938744	-71.263546	30.412012
48120		11.220035	0.095958	-1.394540	2.132313	0.791604	1.262756	-0.275471	1.701227	-1.037466	-0.619385	0.348145	0.459473	0.112079	0.000358	-0.014900	0.246197	-0.754043	-0.281515	-0.539959	-167.181759	-72.348907	31.554384
48121		11.239760	0.051871	-1.820817	1.601077	0.492617	1.449637	-0.338738	1.680633	-0.991446	-0.627441	0.336182	0.437500	0.112240	-0.000070	-0.019152	0.244570	-0.748483	-0.282292	-0.547969	-168.538043	-73.409679	32.770439
48122		11.080998	0.100040	-2.207812	1.117167	0.124864	1.430325	-0.402658	1.657474	-0.937487	-0.641602	0.327637	0.432129	0.110625	0.000436	-0.022997	0.242795	-0.743074	-0.282693	-0.555857	-170.004151	-74.441673	34.056184
48123		10.943736	0.039027	-2.801982	0.424156	-0.300296	1.471995	-0.477300	1.633189	-0.877312	-0.649414	0.312744	0.415771	0.109204	-0.000157	-0.028912	0.240854	-0.737833	-0.282665	-0.563641	-171.584826	-75.445472	35.409809
48124		10.650520	-0.327965	-3.143777	-0.330952	-0.355410	1.286191	-0.493633	1.618133	-0.805795	-0.651855	0.317627	0.406494	0.106232	-0.003787	-0.032289	0.239011	-0.732695	-0.282321	-0.571251	-173.224956	-76.424153	36.809135
48125		10.383635	-0.670144	-3.339389	-0.947396	-0.325939	1.069110	-0.451994	1.602070	-0.721289	-0.670166	0.302979	0.393066	0.103539	-0.007152	-0.034208	0.237519	-0.727604	-0.281781	-0.578599	-174.863177	-77.379396	38.225178
48126		10.021401	-1.003957	-3.565771	-1.580286	-0.335527	0.748486	-0.407809	1.580742	-0.664659	-0.675781	0.297607	0.381104	0.099894	-0.010446	-0.036427	0.236302	-0.722549	-0.281166	-0.585687	-176.568397	-78.309406	39.730569
48127		9.666437	-1.186470	-3.677552	-2.009471	-0.374787	0.394719	-0.363582	1.539970	-0.612226	-0.683838	0.285400	0.358154	0.096340	-0.012228	-0.037496	0.235324	-0.717576	-0.280518	-0.592467	-178.369102	-79.205457	41.354067
48128		9.444025	-1.217328	-3.718666	-2.249204	-0.459345	0.148626	-0.295548	1.514625	-0.566675	-0.685547	0.281250	0.353516	0.094120	-0.012496	-0.037882	0.234672	-0.712617	-0.279918	-0.598959	179.715321	-80.075141	43.129324
48129		9.125068	-1.188129	-3.544361	-2.290341	-0.454843	-0.232162	-0.265903	1.477775	-0.504543	-0.693848	0.277588	0.327393	0.090955	-0.012159	-0.036100	0.234246	-0.707769	-0.279211	-0.605172	177.692993	-80.913819	45.025293
48130		8.697227	-1.340936	-3.461658	-2.515472	-0.386743	-0.705322	-0.280758	1.430460	-0.452419	-0.702393	0.281738	0.319336	0.086691	-0.013655	-0.035218	0.233844	-0.703117	-0.278313	-0.611135	175.489132	-81.714354	47.092072
48131		8.415001	-1.538728	-3.436741	-2.781251	-0.302493	-1.028451	-0.302926	1.382084	-0.412308	-0.711426	0.274902	0.317383	0.083878	-0.015613	-0.034924	0.233407	-0.698650	-0.277246	-0.616883	173.016886	-82.476938	49.412764
48132		8.142094	-1.638799	-3.492405	-3.026031	-0.337084	-1.333036	-0.331921	1.335569	-0.381916	-0.719482	0.278076	0.302002	0.081154	-0.016602	-0.035439	0.232885	-0.694370	-0.276025	-0.622435	170.178930	-83.199454	52.081436
48133		7.838900	-1.750519	-3.569181	-3.285078	-0.374146	-1.669047	-0.353085	1.300999	-0.350361	-0.720215	0.268799	0.287354	0.078124	-0.017706	-0.036169	0.232329	-0.690227	-0.274653	-0.627834	166.888264	-83.888014	55.189466
48134		7.527989	-1.971836	-3.716636	-3.659535	-0.372519	-2.012679	-0.343402	1.284294	-0.328133	-0.728027	0.254883	0.276611	0.075007	-0.019906	-0.037615	0.231842	-0.686127	-0.273243	-0.633101	162.968933	-84.546805	58.931140
48135		7.161861	-2.378905	-4.128723	-4.347905	-0.408099	-2.401482	-0.301156	1.280935	-0.333070	-0.730225	0.255859	0.265381	0.071313	-0.023971	-0.041709	0.231469	-0.681947	-0.271973	-0.638279	158.026214	-85.172470	63.720502
48136		6.781011	-2.512729	-4.338473	-4.694742	-0.509661	-2.825776	-0.209058	1.277651	-0.347418	-0.738281	0.253174	0.256104	0.067487	-0.025290	-0.043790	0.231349	-0.677624	-0.271039	-0.643305	151.672980	-85.747499	69.973591
48137		6.562456	-2.224861	-4.413642	-4.648526	-0.823025	-3.088928	-0.151043	1.275549	-0.378395	-0.745850	0.251953	0.252930	0.065299	-0.022406	-0.044537	0.231314	-0.673165	-0.270385	-0.648255	143.309896	-86.244734	78.270262
48138		6.379368	-2.302703	-4.680534	-4.982704	-0.988202	-3.324135	-0.040030	1.268952	-0.397630	-0.738281	0.243896	0.232666	0.063449	-0.023163	-0.047204	0.231570	-0.668546	-0.270153	-0.653023	132.705318	-86.629636	88.872354
48139		6.237871	-2.376439	-4.517580	-4.986440	-0.871690	-3.540395	0.092175	1.250530	-0.418552	-0.744629	0.244141	0.225586	0.062045	-0.023874	-0.045575	0.232165	-0.663775	-0.270430	-0.657549	120.066442	-86.858244	101.584402
48140		5.996898	-2.444658	-4.518139	-5.101337	-0.874506	-3.849180	0.186580	1.218420	-0.447159	-0.751221	0.230713	0.218262	0.059637	-0.024538	-0.045568	0.232925	-0.658934	-0.271140	-0.661843	106.535727	-86.894170	115.242259
48141		5.650652	-2.848714	-4.689282	-5.556082	-0.745586	-4.280275	0.275135	1.168615	-0.488347	-0.754883	0.223877	0.198730	0.056161	-0.028560	-0.047261	0.233764	-0.654069	-0.272323	-0.665874	93.955675	-86.732023	127.999539
48142		5.522989	-3.033203	-4.796083	-5.815262	-0.727811	-4.487436	0.386709	1.110016	-0.543016	-0.760498	0.224609	0.192871	0.054880	-0.030388	-0.048325	0.234695	-0.649169	-0.274115	-0.669596	83.704753	-86.401897	138.490846
48143		5.409734	-2.780042	-4.706021	-5.630504	-0.901421	-4.652785	0.473554	1.036898	-0.600720	-0.766846	0.208496	0.194092	0.053769	-0.027850	-0.047405	0.235607	-0.644305	-0.276458	-0.673002	76.154716	-85.953896	146.329563
48144		5.520513	-2.379496	-4.545768	-5.302264	-1.122084	-4.575478	0.498389	0.933097	-0.636379	-0.766846	0.210449	0.177490	0.054916	-0.023856	-0.045774	0.236324	-0.639686	-0.279112	-0.676054	71.029745	-85.448573	151.755417
48145		5.971015	-2.697326	-4.598648	-5.638388	-0.942522	-4.209490	0.476736	0.805987	-0.601011	-0.766357	0.198242	0.176514	0.059443	-0.027042	-0.046291	0.236907	-0.635550	-0.281719	-0.678664	67.641854	-84.959634	155.429310
48146		6.418222	-3.183922	-4.871992	-6.252125	-0.795347	-3.867517	0.596039	0.697011	-0.532891	-0.774170	0.196777	0.166748	0.063927	-0.031864	-0.049038	0.237939	-0.631720	-0.284637	-0.680660	65.368962	-84.516763	158.054885
48147		6.611927	-3.076441	-4.645735	-6.073706	-0.752866	-3.704678	0.691781	0.574681	-0.458439	-0.772949	0.196533	0.168945	0.065915	-0.030754	-0.046753	0.239347	-0.628282	-0.287781	-0.682024	63.940244	-84.135275	159.888972
48148		6.619205	-3.838430	-5.066453	-6.934165	-0.541244	-3.826001	0.710495	0.418373	-0.359919	-0.777832	0.192383	0.164795	0.066017	-0.038323	-0.050939	0.240919	-0.625481	-0.290862	-0.682738	63.217799	-83.840582	161.024880
48149		6.601932	-4.296553	-5.210838	-7.375462	-0.367873	-3.924939	0.854339	0.265989	-0.268281	-0.773438	0.187744	0.166504	0.065892	-0.042831	-0.052379	0.243027	-0.623149	-0.294322	-0.682640	63.136191	-83.631777	161.599447
48150		6.689891	-3.865785	-5.215837	-7.097791	-0.732416	-3.813646	0.981498	0.118104	-0.176503	-0.784424	0.189697	0.162109	0.066834	-0.038460	-0.052387	0.245621	-0.621285	-0.298106	-0.681768	63.599277	-83.507721	161.699482
48151		6.704891	-3.862925	-5.637450	-7.389383	-1.095871	-3.824839	1.041534	-0.023982	-0.095715	-0.780273	0.186035	0.175781	0.067037	-0.038367	-0.056567	0.248460	-0.619939	-0.302007	-0.680246	64.548995	-83.461651	161.344252
48152		6.803207	-3.884046	-5.772315	-7.492177	-1.243723	-3.729188	1.220821	-0.138541	-0.014958	-0.779297	0.189941	0.166016	0.068069	-0.038492	-0.057912	0.251947	-0.618859	-0.306403	-0.677978	65.943560	-83.483654	160.644767
48153		6.919702	-4.152016	-5.991924	-7.820811	-1.295815	-3.633715	1.359236	-0.230199	0.048480	-0.776367	0.189941	0.170654	0.069276	-0.041095	-0.060120	0.255927	-0.617991	-0.311171	-0.675101	67.728406	-83.558299	159.632276
48154		6.785330	-4.851353	-6.559226	-8.665131	-1.345200	-3.837365	1.544421	-0.283791	0.074151	-0.786377	0.187500	0.176758	0.067964	-0.047980	-0.065868	0.260468	-0.617067	-0.316540	-0.671705	69.861306	-83.653043	158.376590
48155		7.037971	-4.898139	-4.990089	-7.654213	-0.246705	-3.505810	1.886306	-0.248394	0.019220	-0.781250	0.179932	0.185059	0.070447	-0.048502	-0.050272	0.265917	-0.615452	-0.323152	-0.667892	72.159036	-83.706898	157.152240
48156		15.081722	2.236731	10.280364	6.725338	7.101026	5.759198	2.832942	0.329864	-0.210763	-0.785889	0.193359	0.174805	0.151009	0.020752	0.102856	0.274404	-0.610179	-0.332820	-0.664542	72.529771	-83.530602	158.412605
48157		36.374211	26.939346	23.725191	31.709726	3.264527	30.131061	1.841136	0.875268	-0.185607	-0.786377	0.196533	0.175781	0.365031	0.266866	0.238121	0.280816	-0.604407	-0.338312	-0.664364	69.811247	-83.265121	162.211192
48158		24.101231	23.265161	6.122617	19.247373	-8.639257	16.917893	0.051391	0.520006	0.255796	-0.779785	0.198730	0.168701	0.240873	0.232944	0.060660	0.282667	-0.603035	-0.337009	-0.665487	67.064041	-83.288275	165.007198
48159		11.389714	9.012394	-4.698669	2.874969	-8.880973	2.265766	-0.375744	-0.249668	-0.156670	-0.785156	0.186768	0.165039	0.114026	0.089946	-0.047013	0.280559	-0.604131	-0.336612	-0.665586	68.290982	-83.256331	163.555032
48160		11.344000	8.797471	-4.038290	3.148616	-8.170877	2.258390	0.940359	-0.484554	-0.173904	-0.781250	0.193115	0.171875	0.113613	0.088064	-0.039694	0.281969	-0.604121	-0.340973	-0.662774	71.354343	-83.254821	161.013009
48161		9.509380	11.480372	-8.324259	2.988277	-13.185381	0.614840	0.851435	-0.706009	0.329658	-0.773438	0.203125	0.171143	0.095196	0.115313	-0.082416	0.284392	-0.605811	-0.343819	-0.658713	74.742478	-83.549813	158.093571
48162		7.812669	0.583305	-7.949306	-5.068816	-6.377633	-2.183792	0.921822	-0.800323	0.880744	-0.785156	0.198975	0.173584	0.078416	0.006543	-0.079151	0.288669	-0.608630	-0.345346	-0.653434	78.347257	-84.143365	154.999321
48163		7.293981	-10.265437	-3.884099	-11.161177	3.246734	-3.603652	1.134443	-0.654356	0.821346	-0.774170	0.205078	0.179932	0.073488	-0.102132	-0.039181	0.293633	-0.610530	-0.347520	-0.648276	81.981644	-84.667051	152.000972
48164		10.014942	-5.573874	1.766422	-4.256920	5.117073	-0.316302	0.987655	-0.469980	0.615126	-0.769531	0.234375	0.187012	0.100279	-0.055518	0.017625	0.297787	-0.611657	-0.349558	-0.644210	85.108072	-85.043142	149.430227
48165		12.205450	0.921574	-1.753999	-1.143745	-1.422810	2.417026	-0.011182	-0.355640	0.428895	-0.770996	0.231201	0.187988	0.122065	0.009477	-0.017323	0.298480	-0.613567	-0.348771	-0.642499	87.350582	-85.297492	147.173532
48166		11.003293	2.030516	1.266593	1.653446	0.329946	1.320892	-0.605721	-0.180281	0.515703	-0.769531	0.230957	0.194092	0.109969	0.020627	0.012703	0.297930	-0.615941	-0.345540	-0.642228	88.182637	-85.592125	145.990828
48167		7.550858	-4.608653	-0.743510	-4.610280	2.427264	-2.625116	-0.936401	-0.248443	0.547800	-0.767822	0.237305	0.194580	0.075643	-0.045913	-0.007126	0.296339	-0.619071	-0.341243	-0.642252	89.511246	-85.904382	144.120790
48168		10.847032	-2.413186	-1.585562	-3.478210	0.599573	0.842727	-0.132138	-0.200166	0.498440	-0.765869	0.239746	0.198242	0.108546	-0.023872	-0.015731	0.297156	-0.620754	-0.339603	-0.641118	91.147219	-86.184580	142.405162
48169		10.786699	-5.921613	-3.299201	-7.259747	1.289491	0.576545	0.074071	-0.213129	0.373952	-0.755859	0.242432	0.205322	0.108013	-0.059002	-0.032899	0.298191	-0.621962	-0.339027	-0.639770	93.233683	-86.389554	140.357048
48170		9.202396	-4.332126	-2.590262	-5.456081	0.831995	-0.885220	0.777145	-0.129106	0.170050	-0.754395	0.245605	0.205811	0.092077	-0.043142	-0.026011	0.300899	-0.621496	-0.341206	-0.637793	95.002227	-86.476550	139.031344
48171		10.096484	2.467736	-0.528197	1.231076	-1.459137	0.417805	0.617929	-0.158283	0.133079	-0.759766	0.252197	0.202881	0.100952	0.024761	-0.005126	0.302941	-0.621297	-0.343030	-0.636040	97.000908	-86.538407	137.383836
48172		11.469857	3.903029	-0.675896	2.285385	-2.340833	1.872578	0.230346	-0.244521	0.202901	-0.767334	0.259766	0.198730	0.114667	0.039154	-0.006574	0.303850	-0.622069	-0.343534	-0.634578	99.760851	-86.628032	134.751329
48173		10.323264	2.898459	0.509861	2.244651	-0.830698	0.651641	-0.010637	-0.255191	0.275979	-0.757080	0.260986	0.201416	0.103186	0.029127	0.005229	0.304223	-0.623369	-0.343061	-0.633378	102.798989	-86.749800	131.702218
48174		9.256544	-0.128633	0.178118	-0.330218	0.614249	-0.579844	-0.373500	-0.297695	0.308598	-0.752686	0.271240	0.218018	0.092564	-0.001140	0.001921	0.303493	-0.625404	-0.341400	-0.632620	106.362004	-86.872943	127.919488
48175		10.365077	-1.672014	0.140906	-1.598059	1.540836	0.449971	-0.392154	-0.292167	0.288169	-0.750732	0.275391	0.212891	0.103672	-0.016568	0.001593	0.302648	-0.627414	-0.339732	-0.631933	110.077946	-86.972546	123.973382
48176		11.000731	-2.293802	-0.199356	-2.273151	1.672419	1.066326	-0.428990	-0.279101	0.278263	-0.754395	0.261719	0.217041	0.110042	-0.022789	-0.001791	0.301674	-0.629411	-0.337957	-0.631363	113.821438	-87.055535	119.978814
48177		10.189917	-2.211839	-0.796442	-2.496945	1.121888	0.280253	-0.288628	-0.258920	0.241815	-0.755371	0.277100	0.223389	0.101936	-0.022006	-0.007801	0.301061	-0.631073	-0.336706	-0.630666	117.469528	-87.111260	116.160598
48178		9.920313	-0.437209	-0.778372	-1.020011	0.087568	0.094959	-0.285921	-0.257455	0.174902	-0.755127	0.277832	0.226563	0.099217	-0.004296	-0.007650	0.300245	-0.632605	-0.335671	-0.630071	120.822810	-87.121806	112.639175
48179		9.775267	-0.187156	-1.335935	-1.121637	-0.500124	-0.021502	-0.371621	-0.286252	0.168973	-0.759521	0.275146	0.227783	0.097773	-0.001814	-0.013216	0.299090	-0.634348	-0.334426	-0.629529	124.388117	-87.109975	108.856337
48180		9.736561	0.369310	-0.850383	-0.359070	-0.429968	-0.048145	-0.308923	-0.282460	0.155479	-0.755371	0.271973	0.234863	0.097375	0.003756	-0.008372	0.298095	-0.635955	-0.333414	-0.628916	127.801523	-87.081565	105.261452
48181		9.760466	-0.122268	-0.905972	-0.760701	-0.162091	-0.040409	-0.520443	-0.284037	0.144859	-0.753418	0.276367	0.241211	0.097618	-0.001175	-0.008918	0.296391	-0.637864	-0.331770	-0.628657	130.966439	-87.037453	101.793967
48182		9.449059	-1.157706	-1.240463	-1.762019	0.201149	-0.377725	-0.449220	-0.244060	0.100507	-0.750977	0.278320	0.250000	0.094511	-0.011557	-0.012263	0.294837	-0.639459	-0.330431	-0.628474	133.401036	-86.981320	99.098452
48183		9.615369	-0.794102	-0.798159	-1.189619	0.359193	-0.211712	-0.385874	-0.194657	0.020549	-0.745361	0.275635	0.255859	0.096162	-0.007946	-0.007873	0.293316	-0.640674	-0.329470	-0.628452	134.815590	-86.907223	97.460665
48184		9.791329	-1.111653	-0.726865	-1.386987	0.637419	-0.050302	-0.365927	-0.169576	0.007611	-0.746338	0.276855	0.250732	0.097920	-0.011126	-0.007165	0.291856	-0.641752	-0.328577	-0.628500	135.876899	-86.836379	96.187934
48185		9.879311	-0.257072	-0.248028	-0.410412	0.509790	0.051391	-0.236278	-0.121291	-0.005190	-0.746582	0.275146	0.252930	0.098795	-0.002576	-0.002417	0.290853	-0.642471	-0.328059	-0.628500	136.545387	-86.779285	95.383000
48186		9.823286	1.057457	0.068752	0.823981	-0.043626	0.033075	-0.277288	-0.103081	-0.033841	-0.752441	0.273193	0.267334	0.098234	0.010559	0.000724	0.289655	-0.643140	-0.327478	-0.628673	136.815589	-86.718271	94.953368
48187		9.664815	1.782315	0.080179	1.402258	-0.484260	-0.097191	-0.370073	-0.114972	-0.029848	-0.749512	0.274902	0.267578	0.096650	0.017810	0.000824	0.288153	-0.643989	-0.326608	-0.628946	137.143352	-86.653590	94.412846
48188		9.541628	1.659031	-0.069101	1.215553	-0.525705	-0.218632	-0.441375	-0.147212	0.004460	-0.753418	0.278809	0.273193	0.095416	0.016591	-0.000657	0.286473	-0.645091	-0.325450	-0.629184	137.851867	-86.588417	93.449902
48189		9.733490	1.792382	0.395463	1.616423	-0.230492	-0.043148	-0.449463	-0.176309	0.041431	-0.749023	0.281494	0.271973	0.097328	0.017953	0.004000	0.284836	-0.646358	-0.324185	-0.629281	138.981269	-86.523766	92.060657
48190		9.658123	0.803239	-0.022240	0.597410	0.067853	-0.139865	-0.444991	-0.203717	0.075990	-0.757324	0.286377	0.269043	0.096578	0.008069	-0.000142	0.283275	-0.647751	-0.322861	-0.629233	140.461362	-86.458232	90.322479
48191		9.400346	0.464707	-0.070578	0.321675	0.237914	-0.409107	-0.317600	-0.224849	0.089666	-0.755615	0.280518	0.269043	0.094002	0.004688	-0.000608	0.282135	-0.649054	-0.321921	-0.628884	142.182438	-86.384980	88.415906
48192		9.244331	0.514168	0.051141	0.456845	0.301729	-0.570131	-0.276190	-0.256388	0.106954	-0.754883	0.279297	0.288818	0.092440	0.005192	0.000623	0.281131	-0.650418	-0.321099	-0.628344	144.129387	-86.299671	86.306552
48193		9.395527	0.922903	0.457180	1.054074	0.375199	-0.427338	-0.225794	-0.272601	0.118683	-0.753662	0.276123	0.285889	0.093943	0.009290	0.004689	0.280301	-0.651784	-0.320418	-0.627647	146.185051	-86.205664	84.117027
48194		9.597935	0.478628	0.295502	0.637372	0.559733	-0.235781	-0.353405	-0.322145	0.149372	-0.757324	0.275146	0.284180	0.095971	0.004863	0.003101	0.279070	-0.653525	-0.319306	-0.626952	148.490118	-86.092156	81.603937
48195		9.366673	-0.309579	-0.210323	-0.262572	0.676559	-0.466680	-0.139310	-0.347313	0.167701	-0.755859	0.273438	0.296875	0.093673	-0.003019	-0.001938	0.278556	-0.655077	-0.318837	-0.625798	151.016142	-85.964150	78.992009
48196		9.627942	1.289786	1.095645	1.838140	0.681813	-0.235761	-0.076176	-0.347356	0.160144	-0.754639	0.288086	0.288086	0.096250	0.012979	0.011119	0.278223	-0.656522	-0.318590	-0.624557	153.352734	-85.826889	76.605791
48197		9.730155	0.442175	0.329726	0.734408	0.663749	-0.117323	-0.210052	-0.385274	0.205904	-0.755127	0.277344	0.303467	0.097290	0.004526	0.003480	0.277532	-0.658345	-0.317825	-0.623334	155.903520	-85.673713	73.927475
48198		9.650360	0.167443	0.406277	0.610846	0.908304	-0.214550	-0.051548	-0.377279	0.210367	-0.757813	0.291748	0.307129	0.096494	0.001777	0.004244	0.277387	-0.659923	-0.317528	-0.621880	158.360459	-85.517612	71.433777
48199		9.431682	-0.413056	0.039275	-0.034804	1.002659	-0.425351	-0.065979	-0.406716	0.227606	-0.754639	0.284912	0.306885	0.094320	-0.004023	0.000586	0.277201	-0.661641	-0.317167	-0.620320	160.829441	-85.340674	68.919174
48200		9.291637	-0.214353	0.472692	0.432446	1.208529	-0.595518	0.105030	-0.387544	0.237518	-0.753906	0.283447	0.310547	0.092909	-0.002036	0.004906	0.277639	-0.663070	-0.317276	-0.618539	163.227735	-85.168004	66.573156
48201		9.059758	-0.422252	0.405657	0.263167	1.287262	-0.829614	0.087556	-0.411658	0.268966	-0.750244	0.292236	0.317139	0.090595	-0.004103	0.004241	0.278078	-0.664648	-0.317257	-0.616655	165.694086	-84.978356	64.148183
48202		8.977510	-0.581363	0.055269	-0.044243	1.129330	-0.887487	0.271553	-0.431462	0.296992	-0.751221	0.290527	0.319824	0.089782	-0.005681	0.000739	0.279180	-0.666066	-0.317740	-0.614374	168.273230	-84.772716	61.715045
48203		9.304519	0.551783	0.338594	1.065444	0.658502	-0.570167	0.438456	-0.442198	0.292945	-0.754639	0.296875	0.320557	0.093029	0.005646	0.003604	0.280807	-0.667276	-0.318758	-0.611787	170.745088	-84.550808	59.484894
48204		9.420923	0.921676	-0.049466	1.158505	0.152964	-0.419077	0.412055	-0.479344	0.315078	-0.749023	0.307129	0.327881	0.094195	0.009366	-0.000250	0.282350	-0.668659	-0.319672	-0.609085	173.161819	-84.301402	57.294038
48205		9.309697	1.288956	-0.351499	1.300726	-0.301794	-0.502901	0.453281	-0.512191	0.337688	-0.748535	0.302979	0.330078	0.093084	0.013054	-0.003247	0.284044	-0.670115	-0.320676	-0.606162	175.548813	-84.025398	55.155835
48206		9.463424	1.247858	-0.573339	1.199792	-0.411839	-0.334673	0.494290	-0.547529	0.355482	-0.745117	0.312988	0.333740	0.094627	0.012660	-0.005443	0.285867	-0.671634	-0.321791	-0.603024	177.851870	-83.721567	53.124530
48207		9.782336	1.439756	-0.297995	1.609314	-0.268674	-0.055984	0.495628	-0.575155	0.389831	-0.744141	0.305908	0.333008	0.097803	0.014595	-0.002663	0.287751	-0.673282	-0.322828	-0.599728	-179.872242	-83.393370	51.120129
48208		9.776129	1.123400	-0.713939	1.175504	-0.368843	-0.023608	0.437291	-0.621322	0.412769	-0.729980	0.324463	0.333496	0.097759	0.011451	-0.006811	0.289425	-0.675173	-0.323674	-0.596331	-177.737595	-83.030527	49.222881
48209		9.493405	0.923013	-1.234634	0.751091	-0.649514	-0.246369	0.401270	-0.680647	0.438432	-0.738770	0.323975	0.344482	0.094955	0.009463	-0.012004	0.290954	-0.677324	-0.324405	-0.592739	-175.726501	-82.624560	47.427829
48210		9.528486	0.859294	-1.665087	0.520992	-0.915878	-0.159085	0.376787	-0.722238	0.460858	-0.728027	0.321533	0.341064	0.095324	0.008843	-0.016290	0.292392	-0.679654	-0.325042	-0.589004	-173.856679	-82.186833	45.759407
48211		9.875025	1.046027	-1.555931	0.853842	-0.884382	0.163248	0.312838	-0.749317	0.486403	-0.720215	0.332520	0.352051	0.098782	0.010724	-0.015173	0.293638	-0.682186	-0.325435	-0.585227	-172.123389	-81.724706	44.190105
48212		9.765652	0.149272	-1.823886	0.064209	-0.523936	0.108874	0.305905	-0.790527	0.521352	-0.723633	0.335449	0.355713	0.097723	0.001775	-0.017850	0.294887	-0.684887	-0.325743	-0.581260	-170.468258	-81.230432	42.693875
48213		9.414434	-0.421587	-1.578058	-0.185513	0.010617	-0.259453	0.361174	-0.818909	0.523240	-0.721924	0.331055	0.360352	0.094218	-0.003941	-0.015402	0.296279	-0.687577	-0.326237	-0.577084	-168.961638	-80.713522	41.378085
48214		9.441520	-0.559790	-1.231780	0.006942	0.397888	-0.283059	0.424155	-0.839930	0.528149	-0.723877	0.341064	0.364014	0.094480	-0.005323	-0.011933	0.297858	-0.690220	-0.326919	-0.572713	-167.569607	-80.179726	40.213070
48215		9.697613	0.426488	-0.088498	1.595556	0.755647	-0.267230	0.450844	-0.864117	0.561949	-0.714844	0.348633	0.371338	0.096966	0.004539	-0.000456	0.299578	-0.692931	-0.327586	-0.568144	-166.207984	-79.623017	39.092595
48216		9.483831	0.729949	-0.050875	1.926241	0.612883	-0.517988	0.291882	-0.949759	0.627666	-0.704834	0.364258	0.372314	0.094816	0.007597	-0.000048	0.300783	-0.696204	-0.327692	-0.563425	-164.940295	-79.005580	37.972880
48217		9.196976	0.751653	0.416348	2.275142	0.971888	-0.913203	0.370789	-0.989975	0.653839	-0.708984	0.358398	0.378418	0.091922	0.007809	0.004633	0.302260	-0.699492	-0.327977	-0.558373	-163.715464	-78.357049	36.940611
48218		9.626287	1.019531	0.637351	2.791899	1.077064	-0.584740	0.176839	-1.069007	0.701210	-0.692139	0.372559	0.383545	0.096190	0.010527	0.006897	0.303049	-0.703341	-0.327662	-0.553273	-162.661719	-77.653918	35.967090
48219		10.167909	0.316542	0.421488	2.319466	1.441470	-0.004280	0.158738	-1.140330	0.756928	-0.680664	0.367920	0.396484	0.101640	0.003546	0.004797	0.303799	-0.707476	-0.327194	-0.547839	-161.650771	-76.898149	35.024124
48220		10.565002	0.671096	0.981369	3.131025	1.767844	0.192415	0.083571	-1.211832	0.835439	-0.682861	0.375488	0.404297	0.105559	0.007148	0.010456	0.304364	-0.712012	-0.326335	-0.542132	-160.671610	-76.086014	34.066517
48221		10.809112	-0.592183	0.618432	2.112958	2.323894	0.565304	0.056212	-1.254073	0.872879	-0.675537	0.378662	0.415283	0.108074	-0.005452	0.006860	0.304849	-0.716727	-0.325313	-0.536228	-159.768664	-75.239941	33.167980
48222		12.209212	-1.345296	-0.239518	1.487505	2.354763	2.152743	-0.014254	-1.276203	0.858097	-0.667480	0.386230	0.422852	0.122160	-0.012929	-0.001615	0.304986	-0.721541	-0.324171	-0.530354	-159.047690	-74.382262	32.412608
48223		14.204997	-1.982816	-1.508531	0.908092	2.099776	4.426391	-0.002955	-1.267767	0.882283	-0.651367	0.388184	0.427490	0.142227	-0.019201	-0.014184	0.305225	-0.726313	-0.322938	-0.524421	-158.346505	-73.521391	31.681409
48224		16.409790	0.700158	-0.332638	4.443719	1.789599	5.901237	-0.028160	-1.202926	0.968197	-0.641357	0.401611	0.433594	0.164077	0.007796	-0.002341	0.305684	-0.731048	-0.321211	-0.518604	-157.539268	-72.674150	30.821031
48225		17.136774	4.801693	-1.347370	7.533474	-1.334813	6.311792	-0.258197	-1.255472	1.188732	-0.633057	0.405762	0.436768	0.171159	0.049018	-0.012462	0.305769	-0.736576	-0.318138	-0.512591	-156.620427	-71.746090	29.700875
48226		14.683775	7.880609	-0.397603	10.032612	-2.848151	3.191352	-0.644450	-1.317325	1.229365	-0.632568	0.400391	0.459961	0.146373	0.079695	-0.003267	0.304411	-0.742855	-0.313994	-0.506861	-155.997468	-70.771899	28.653296
48227		13.668170	7.056579	-0.901992	9.005370	-2.905091	2.348190	-0.977424	-1.459197	1.353801	-0.612549	0.409180	0.467041	0.136263	0.071447	-0.008372	0.301877	-0.750116	-0.308727	-0.500883	-155.557758	-69.691240	27.591133
48228		13.311281	4.044059	-1.287426	6.573723	-1.373104	2.438746	-1.019957	-1.581580	1.451536	-0.595703	0.419922	0.476807	0.132912	0.041343	-0.012032	0.299199	-0.757800	-0.303131	-0.494298	-155.164877	-68.520921	26.545253
48229		13.756189	2.213947	-1.615808	5.386525	-0.356525	3.133242	-0.827067	-1.644423	1.405631	-0.582275	0.420166	0.491211	0.137529	0.023042	-0.015121	0.297001	-0.765176	-0.298239	-0.487185	-154.833717	-67.326931	25.676686
48230		13.035045	1.665279	-0.754922	5.463805	0.560952	2.148977	-0.806563	-1.723696	1.372431	-0.574707	0.424805	0.505371	0.130291	0.017519	-0.006496	0.294643	-0.772563	-0.293601	-0.479720	-154.634851	-66.098330	24.957238
48231		12.309658	-0.311177	-2.339635	3.082327	0.623160	2.320067	-1.011425	-1.737849	1.281462	-0.548584	0.424316	0.511719	0.123311	-0.002437	-0.022312	0.291213	-0.780042	-0.288803	-0.472570	-154.704695	-64.884702	24.397230
48232		11.607696	-2.672294	-2.674665	1.141337	1.908685	2.190753	-0.883781	-1.622686	1.181431	-0.534668	0.430420	0.520996	0.116444	-0.026151	-0.025686	0.288173	-0.786818	-0.284491	-0.465767	-154.773644	-63.755179	23.912024
48233		10.562368	-4.286937	-3.774690	-0.836007	2.109203	1.978716	-0.820773	-1.511199	1.203342	-0.521973	0.437744	0.535889	0.106160	-0.042384	-0.036771	0.285557	-0.793183	-0.280046	-0.459230	-154.750190	-62.678547	23.359086
48234		9.645140	-4.900186	-3.822596	-1.470357	2.415016	1.307318	-0.775692	-1.376324	1.165885	-0.507813	0.425293	0.535400	0.096995	-0.048584	-0.037371	0.283194	-0.799041	-0.275632	-0.453169	-154.697653	-61.680410	22.797322
48235		9.126664	-4.316101	-2.608104	-0.422087	2.831854	0.213642	-0.488913	-1.024020	1.048310	-0.497803	0.432373	0.547363	0.091623	-0.042744	-0.025508	0.282173	-0.803469	-0.271817	-0.448254	-154.456693	-60.893211	22.203310
48236		8.841120	-0.626796	0.907931	4.099733	2.680231	-2.370200	-0.291347	-0.393125	0.788902	-0.498535	0.437256	0.551514	0.088417	-0.005906	0.009262	0.282211	-0.805821	-0.268585	-0.445949	-154.081474	-60.494275	21.581751
48237		8.169351	4.985234	0.853042	7.633263	-1.437142	-4.157073	-1.043563	0.027804	0.472862	-0.490723	0.441650	0.554443	0.081576	0.050089	0.008258	0.279071	-0.807848	-0.264348	-0.446789	-154.246119	-60.391224	21.083794
48238		7.426739	6.474001	1.250020	8.490796	-2.434209	-5.272731	-1.623437	0.369669	0.007235	-0.495361	0.434570	0.556152	0.074287	0.064841	0.011837	0.272987	-0.809266	-0.260207	-0.450399	-155.018351	-60.581010	20.902471
48239		7.321297	3.310099	-0.742790	5.083767	-1.613305	-3.757847	-2.493544	0.521408	-0.294266	-0.494629	0.411865	0.558838	0.073241	0.032896	-0.008030	0.262868	-0.811040	-0.255089	-0.456119	-156.511914	-60.923352	20.976940
48240		8.947490	-1.536462	-2.704657	1.364686	0.915660	-0.483614	-1.861444	0.847286	-0.519388	-0.500244	0.398682	0.563232	0.089319	-0.015850	-0.027279	0.255179	-0.810844	-0.251861	-0.462582	-157.743268	-61.486257	21.165164
48241		11.114692	-3.888800	-1.641564	1.343278	3.740245	1.392579	-0.817357	1.271410	-0.776807	-0.504883	0.394531	0.567871	0.110888	-0.039388	-0.016961	0.251637	-0.807933	-0.251529	-0.469742	-158.486552	-62.328745	21.476925
48242		11.070820	-5.984989	-2.056174	-0.464596	5.009188	1.904805	-0.245214	1.575989	-0.862235	-0.525146	0.395264	0.546631	0.110283	-0.060352	-0.021358	0.250570	-0.803420	-0.252481	-0.477477	-158.894460	-63.349336	21.777613
48243		8.849110	-6.054950	-1.883949	-1.532917	4.749335	-0.137550	0.327560	1.803021	-1.067120	-0.540039	0.391846	0.534424	0.087991	-0.060988	-0.019734	0.251577	-0.797307	-0.255316	-0.485618	-159.127911	-64.533396	22.246538
48244		8.570123	-1.447288	-0.716072	1.905575	1.989907	-1.538643	0.546636	1.905957	-1.391510	-0.544434	0.382568	0.527588	0.085524	-0.015047	-0.008017	0.252768	-0.790154	-0.259812	-0.494229	-159.607222	-65.836113	23.119774
48245		10.004412	1.608589	-0.453496	4.423440	0.119949	-0.686066	0.314282	1.959063	-1.562711	-0.563477	0.370117	0.503662	0.100115	0.015312	-0.005491	0.252649	-0.782817	-0.264303	-0.503498	-160.494587	-67.197314	24.283668
48246		10.493725	1.871847	-0.422597	4.561669	0.014923	-0.169775	0.136999	1.995771	-1.576313	-0.582520	0.370605	0.494385	0.105031	0.017894	-0.005261	0.251810	-0.775471	-0.268313	-0.513074	-161.617310	-68.571764	25.580331
48247		9.995632	1.504548	-0.241856	4.036002	0.307402	-0.547381	-0.148438	1.963116	-1.469588	-0.597656	0.362305	0.480957	0.100033	0.014308	-0.003411	0.250054	-0.768584	-0.271176	-0.522700	-162.928194	-69.900069	26.891305
48248		10.393343	0.791156	-0.670532	3.157418	0.576570	0.126642	-0.471058	1.908421	-1.353563	-0.604248	0.355957	0.469727	0.103913	0.007191	-0.007714	0.247250	-0.762294	-0.272778	-0.532324	-164.449520	-71.166763	28.218652
48249		10.934379	-0.410875	-1.601310	1.625234	0.883863	1.089875	-0.716066	1.852993	-1.229857	-0.624512	0.338867	0.463867	0.109161	-0.004840	-0.017009	0.243732	-0.756510	-0.273287	-0.541850	-166.126469	-72.372939	29.552227
48250		11.049918	-0.844444	-2.463682	0.523862	0.614519	1.511017	-0.791547	1.823131	-1.133164	-0.628662	0.327393	0.445801	0.110218	-0.009170	-0.025607	0.240117	-0.750936	-0.273225	-0.551170	-167.894120	-73.535873	30.926782
48251		10.663696	-0.544630	-2.960260	0.045276	-0.022197	1.267337	-0.809623	1.794515	-1.028495	-0.637939	0.318359	0.431152	0.106335	-0.006116	-0.030534	0.236652	-0.745503	-0.272720	-0.560218	-169.704457	-74.659002	32.326774
48252		10.456199	-0.941676	-3.502270	-0.880858	-0.147921	1.218296	-0.780823	1.772104	-0.928011	-0.653809	0.320801	0.425781	0.104201	-0.010040	-0.035909	0.233518	-0.740154	-0.271916	-0.568950	-171.530034	-75.746276	33.752304
48253		10.212239	-1.746390	-3.927436	-1.990679	0.102064	1.086272	-0.646372	1.753880	-0.824879	-0.663818	0.307617	0.406250	0.101700	-0.018013	-0.040110	0.231124	-0.734752	-0.271103	-0.577256	-173.296834	-76.804502	35.189768
48254		9.788740	-2.520593	-4.219634	-2.997635	0.390676	0.715189	-0.448675	1.744651	-0.736753	-0.673828	0.304199	0.395508	0.097421	-0.025661	-0.042990	0.229675	-0.729200	-0.270521	-0.585094	-174.989054	-77.840504	36.660846
48255		9.199038	-2.978301	-4.449849	-3.753588	0.457843	0.136760	-0.242203	1.735345	-0.687016	-0.673096	0.296631	0.371338	0.091497	-0.030152	-0.045257	0.229091	-0.723434	-0.270347	-0.592515	-176.707913	-78.860051	38.274135
48256		8.846275	-3.019997	-4.551757	-4.080456	0.320328	-0.255507	-0.033369	1.727055	-0.658341	-0.688965	0.289795	0.364990	0.087965	-0.030498	-0.046274	0.229316	-0.717434	-0.270674	-0.599532	-178.540678	-79.862647	40.119563
48257		8.434273	-2.555690	-4.209092	-3.734023	0.082307	-0.788684	0.115813	1.711690	-0.612094	-0.689941	0.290039	0.352051	0.083900	-0.025789	-0.042825	0.230175	-0.711306	-0.271277	-0.606195	179.480082	-80.845245	42.194456
48258		7.841411	-2.257482	-3.965557	-3.568205	-0.112345	-1.472259	0.103423	1.675447	-0.548828	-0.703613	0.284180	0.324463	0.078016	-0.022769	-0.040322	0.231114	-0.705336	-0.271638	-0.612618	177.271528	-81.793915	44.488597
48259		6.941399	-2.149135	-3.558334	-3.410063	-0.075552	-2.475947	0.006580	1.622243	-0.494533	-0.706787	0.280273	0.327393	0.069069	-0.021661	-0.036145	0.231788	-0.699657	-0.271551	-0.618881	174.684748	-82.699868	47.103000
48260		6.308650	-2.733005	-3.855790	-4.179625	0.056495	-3.129738	-0.216399	1.554288	-0.430994	-0.709961	0.280518	0.306152	0.062725	-0.027508	-0.039017	0.231771	-0.694490	-0.270613	-0.625088	171.608149	-83.552266	50.077030
48261		5.781483	-3.994048	-4.186884	-5.395078	0.695731	-3.704013	-0.204529	1.524760	-0.407350	-0.724609	0.284424	0.290771	0.057412	-0.040101	-0.042267	0.231814	-0.689384	-0.269645	-0.631113	167.801323	-84.368352	53.787195
48262		5.230380	-4.435412	-4.204178	-5.814711	0.938633	-4.334373	-0.188516	1.491606	-0.439693	-0.732666	0.270752	0.281250	0.051891	-0.044508	-0.042388	0.231750	-0.684281	-0.268862	-0.636996	162.624561	-85.127935	58.877308
48263		4.668279	-4.440445	-4.484543	-6.125242	0.690228	-4.952084	-0.146889	1.457696	-0.497153	-0.736084	0.259033	0.275635	0.046244	-0.044553	-0.045151	0.231587	-0.679117	-0.268429	-0.642739	155.357455	-85.803775	66.082648
48264		4.643440	-4.154749	-4.684243	-6.154792	0.318946	-5.039705	-0.089652	1.410350	-0.543952	-0.745361	0.252197	0.259033	0.045989	-0.041694	-0.047149	0.231391	-0.673939	-0.268380	-0.648257	145.478709	-86.350553	75.933016
48265		4.901447	-3.520701	-4.879203	-5.945592	-0.292604	-4.833787	-0.065430	1.343740	-0.551666	-0.745850	0.252197	0.251709	0.048588	-0.035357	-0.049108	0.231149	-0.668899	-0.268496	-0.653493	133.115389	-86.726070	88.281154
48266		4.774204	-3.539099	-5.514148	-6.499769	-0.728469	-5.022552	-0.020806	1.251305	-0.562658	-0.753418	0.248535	0.243164	0.047296	-0.035530	-0.055435	0.230885	-0.664064	-0.268890	-0.658338	119.270551	-86.885387	102.135509
48267		4.418400	-3.983906	-5.906324	-7.141744	-0.697007	-5.478275	0.105157	1.134793	-0.611960	-0.763672	0.241943	0.232666	0.043726	-0.039942	-0.059333	0.230710	-0.659370	-0.269981	-0.662657	105.959513	-86.806392	115.526906
48268		4.531500	-4.464777	-5.987988	-7.574819	-0.416682	-5.479992	0.332813	1.004051	-0.647602	-0.763184	0.233887	0.226563	0.044869	-0.044694	-0.060180	0.230981	-0.654773	-0.272088	-0.666249	95.248981	-86.541307	126.446519
48269		4.988326	-4.750904	-5.864524	-7.737849	-0.144651	-5.127511	0.606762	0.873508	-0.660220	-0.766602	0.218018	0.208740	0.049469	-0.047494	-0.059006	0.231922	-0.650252	-0.275285	-0.669031	87.614250	-86.170343	134.444980
48270		5.223078	-4.800253	-5.998503	-7.928187	-0.248022	-4.976750	0.846386	0.758624	-0.672537	-0.764648	0.218994	0.213623	0.051841	-0.047922	-0.060385	0.233432	-0.645793	-0.279449	-0.671095	82.475812	-85.743843	140.082468
48271		5.427642	-4.653965	-5.985968	-7.874304	-0.410228	-4.835085	1.015839	0.650545	-0.670616	-0.769775	0.214355	0.210693	0.053925	-0.046415	-0.060271	0.235335	-0.641474	-0.284285	-0.672540	79.175370	-85.301021	143.976782
48272		5.791381	-4.251119	-5.884185	-7.586578	-0.694936	-4.502724	1.147523	0.560677	-0.637629	-0.772217	0.208984	0.207520	0.057613	-0.042356	-0.059247	0.237630	-0.637316	-0.289554	-0.673438	77.084287	-84.873079	146.735601
48273		6.331881	-3.214536	-5.789499	-6.872299	-1.425534	-3.923463	1.197941	0.468859	-0.563686	-0.774170	0.202637	0.204590	0.063092	-0.031975	-0.058235	0.240193	-0.633485	-0.294846	-0.673847	75.811528	-84.492686	148.703168
48274		6.619534	-2.590611	-5.846764	-6.517490	-1.964108	-3.617665	1.137855	0.367403	-0.447759	-0.781494	0.198486	0.204346	0.066030	-0.025720	-0.058736	0.242793	-0.630207	-0.299682	-0.673855	75.089951	-84.187387	150.083549
48275		7.144548	-2.770719	-5.441180	-6.413280	-1.586176	-3.128272	1.068625	0.273279	-0.309825	-0.785889	0.188965	0.207275	0.071328	-0.027526	-0.054657	0.245492	-0.627519	-0.303949	-0.673475	74.722692	-83.972038	151.068332
48276		7.770227	-3.305011	-4.743921	-6.372187	-0.742992	-2.556848	0.975665	0.190678	-0.125231	-0.791748	0.197021	0.199707	0.077636	-0.032867	-0.047674	0.248386	-0.625480	-0.307421	-0.672735	74.501894	-83.869838	151.852691
48277		8.300552	-4.845071	-4.438932	-7.323456	0.499396	-2.184110	0.916924	0.104484	0.055363	-0.786377	0.191650	0.194580	0.082996	-0.048223	-0.044654	0.251568	-0.624073	-0.310225	-0.671570	74.443257	-83.881382	152.440042
48278		8.632436	-6.013619	-4.160689	-8.014657	1.436461	-1.958066	1.038249	0.026486	0.205509	-0.783447	0.187256	0.193604	0.086380	-0.059830	-0.041929	0.255503	-0.622987	-0.313064	-0.669773	74.635707	-83.986799	152.844867
48279		11.455023	-4.828041	1.217953	-3.805067	4.664141	1.131610	1.427248	0.100914	0.250671	-0.783203	0.193115	0.203857	0.114617	-0.048222	0.011777	0.260911	-0.621208	-0.316951	-0.667509	74.587503	-84.107162	153.715501
48280		16.939712	3.574400	8.191508	6.486866	4.566179	7.620046	1.955327	0.368939	0.212277	-0.786621	0.195068	0.203613	0.169511	0.035123	0.081948	0.268231	-0.617730	-0.322352	-0.665245	73.435524	-84.161873	155.999893
48281		30.379001	23.333438	14.433755	24.138438	-2.696129	23.137563	1.947769	0.590314	-0.030070	-0.790039	0.190674	0.204834	0.304254	0.231874	0.145703	0.275057	-0.613078	-0.328139	-0.663930	71.513200	-84.040944	159.054290
48282		26.133738	24.739759	3.175959	18.540534	-12.148289	18.714099	1.112195	0.139248	0.095979	-0.792969	0.201660	0.199951	0.261241	0.247342	0.032953	0.278976	-0.611232	-0.331371	-0.662390	71.289529	-84.063777	159.919998
48283		13.602212	5.534563	-6.744529	-1.188891	-8.208366	4.056269	0.867116	-0.511885	0.026500	-0.784668	0.193604	0.199951	0.136186	0.055654	-0.066856	0.280832	-0.611755	-0.334900	-0.659342	74.494361	-84.161259	157.197666
48284		9.925931	7.701673	-10.080437	-0.990592	-12.258136	0.589310	2.313273	-0.705712	0.091460	-0.792236	0.206055	0.199219	0.099576	0.078219	-0.099553	0.286974	-0.610939	-0.343244	-0.653133	79.634672	-84.298755	153.363495
48285		8.532499	12.282501	-9.528066	3.453673	-14.536658	-0.263212	1.950511	-0.912414	0.442484	-0.786865	0.215820	0.198242	0.085481	0.123933	-0.093686	0.292763	-0.611843	-0.349580	-0.646321	85.796103	-84.612836	148.296138
48286		9.735572	-2.540096	-7.974497	-7.385405	-4.547571	-0.347237	1.893346	-1.010468	1.092236	-0.786377	0.233887	0.207031	0.097892	-0.024114	-0.079484	0.300265	-0.614199	-0.353843	-0.638276	93.377421	-85.239076	141.774376
48287		5.651192	-6.456014	-2.200606	-6.891619	2.117522	-4.666885	1.501326	-0.781429	0.815684	-0.784180	0.234863	0.215088	0.056861	-0.064162	-0.022267	0.306051	-0.615856	-0.357319	-0.631964	100.553991	-85.644551	135.438316
48288		10.153722	7.034861	2.600662	6.769264	-1.188854	0.775662	0.600283	-0.679960	0.471695	-0.781982	0.243164	0.212402	0.101281	0.070509	0.026563	0.308139	-0.617916	-0.358831	-0.628069	106.835063	-85.810027	129.484807
48289		9.499562	-1.655115	-0.991656	-2.305725	0.634325	-0.418838	-1.098093	-0.663334	1.090160	-0.768555	0.245361	0.236084	0.095116	-0.016086	-0.009512	0.306937	-0.623626	-0.353056	-0.626284	114.536985	-86.256187	121.134095
48290		7.848490	-6.270574	-2.734743	-6.935782	1.733565	-2.243930	-0.778822	-0.530429	0.895001	-0.776123	0.255371	0.230957	0.078837	-0.062459	-0.026895	0.306337	-0.628045	-0.348665	-0.624619	122.231712	-86.558479	112.977319
48291		11.775974	-0.487547	-3.818338	-2.812759	-2.201301	2.050405	-0.033428	-0.449387	0.596548	-0.764893	0.262451	0.239502	0.117859	-0.004530	-0.037918	0.307279	-0.630537	-0.347406	-0.622344	129.129239	-86.681036	106.048847
48292		13.001069	-1.715185	-1.174283	-2.232464	0.742436	3.141558	-0.145059	-0.508205	0.659318	-0.766357	0.269043	0.235840	0.130096	-0.016731	-0.011400	0.307957	-0.633477	-0.345686	-0.619976	137.230279	-86.752577	97.851422
48293		10.013386	-10.497743	-3.610639	-10.723985	3.602901	-0.039155	0.141793	-0.425733	0.416223	-0.762695	0.274414	0.245605	0.100429	-0.104743	-0.035967	0.308928	-0.635297	-0.345494	-0.617734	143.233411	-86.712662	91.920137
48294		9.009019	-5.373855	-0.894912	-4.921046	2.836110	-0.948085	0.598535	-0.345099	0.427242	-0.763428	0.284180	0.240234	0.090220	-0.053519	-0.008954	0.311520	-0.636168	-0.346548	-0.614940	148.961032	-86.680714	86.526639
48295		9.489702	0.359702	0.559326	0.665208	0.812999	-0.357896	0.460310	-0.341888	0.252789	-0.761719	0.285889	0.243164	0.094883	0.003704	0.005764	0.313138	-0.636940	-0.347721	-0.612652	152.953722	-86.575229	82.791421
48296		10.860371	2.285454	0.659549	2.363993	-0.083759	1.050565	0.015823	-0.430177	0.201546	-0.757813	0.285400	0.254150	0.108566	0.022963	0.006831	0.313026	-0.638578	-0.347833	-0.610938	156.326863	-86.398009	79.421154
48297		10.169445	-2.571667	-0.146221	-2.066584	1.964333	0.282998	-0.077059	-0.430732	0.269691	-0.756836	0.280029	0.253662	0.101732	-0.025580	-0.001233	0.312825	-0.640484	-0.347441	-0.609267	159.892655	-86.222364	75.803914
48298		10.259744	-4.383415	-1.146184	-4.081358	2.187432	0.402394	0.114060	-0.413207	0.208978	-0.756592	0.285400	0.262939	0.102667	-0.043720	-0.011275	0.313077	-0.641921	-0.347797	-0.607418	162.698915	-86.033001	73.056876
48299		10.892648	-2.367259	-0.628622	-2.081303	1.540880	1.047454	0.446076	-0.311960	0.040032	-0.750000	0.289063	0.262695	0.108941	-0.023637	-0.006169	0.314059	-0.642241	-0.349541	-0.605570	163.948276	-85.864477	72.060788
48300		11.144051	-1.303562	-1.997665	-1.934312	-0.148982	1.417449	0.353936	-0.333551	0.052922	-0.754639	0.293213	0.263672	0.111477	-0.012971	-0.019814	0.314741	-0.642782	-0.350998	-0.603797	165.180851	-85.685088	71.028334
48301		9.518872	0.432924	-1.474612	-0.213131	-0.774392	-0.204065	0.534839	-0.304570	0.018678	-0.758057	0.302246	0.260742	0.095211	0.004377	-0.014589	0.315952	-0.642892	-0.353061	-0.601840	166.145158	-85.514915	70.368701
48302		9.491450	0.810865	-1.565000	0.076679	-1.035976	-0.215025	0.280896	-0.342735	0.031981	-0.759766	0.302734	0.273926	0.094940	0.008146	-0.015476	0.316315	-0.643530	-0.354377	-0.600192	167.045394	-85.325045	69.627176
48303		9.873895	0.330271	-1.856225	-0.450022	-0.959593	0.183563	0.240855	-0.325610	0.008344	-0.754639	0.304932	0.277832	0.098769	0.003329	-0.018397	0.316510	-0.644143	-0.355617	-0.598697	167.691670	-85.140363	69.117327
48304		9.498717	-0.592705	-1.937077	-1.258435	-0.528193	-0.196739	0.132458	-0.293898	0.008154	-0.756836	0.297852	0.283691	0.095016	-0.005910	-0.019235	0.316407	-0.644822	-0.356485	-0.597502	168.178823	-84.973674	68.704668
48305		9.591658	-0.177631	-1.779537	-0.807645	-0.593281	-0.107334	0.075455	-0.254167	-0.041379	-0.762451	0.302490	0.279785	0.095939	-0.001789	-0.017674	0.316046	-0.645391	-0.357276	-0.596606	168.260309	-84.822610	68.666465
48306		9.453241	-0.242947	-1.763657	-0.849976	-0.533155	-0.245738	0.066383	-0.234539	-0.083730	-0.753418	0.308350	0.284668	0.094552	-0.002463	-0.017527	0.315561	-0.645831	-0.358148	-0.595864	168.041851	-84.678264	68.924173
48307		9.537172	-0.159837	-1.457010	-0.604912	-0.292886	-0.186975	0.111017	-0.216392	-0.084927	-0.756592	0.308105	0.294189	0.095387	-0.001631	-0.014468	0.315250	-0.646151	-0.359125	-0.595093	167.843053	-84.543146	69.187958
48308		9.804887	1.137893	-0.715800	0.900730	-0.334341	0.037178	0.135781	-0.183165	-0.071116	-0.767578	0.303711	0.286133	0.098059	0.011349	-0.007060	0.315118	-0.646349	-0.360080	-0.594370	167.695278	-84.428945	69.414714
48309		9.446885	2.070176	-0.462580	1.816721	-0.640820	-0.324164	0.087514	-0.206955	-0.014298	-0.761475	0.307617	0.286377	0.094475	0.020697	-0.004519	0.314958	-0.646803	-0.360743	-0.593559	167.887447	-84.307599	69.272220
48310		9.203025	3.403412	0.272860	3.338597	-0.752267	-0.612624	-0.062922	-0.264395	0.031895	-0.763672	0.313232	0.297363	0.092021	0.034050	0.002840	0.314342	-0.647739	-0.360902	-0.592767	168.296406	-84.160160	68.825082
48311		9.396451	2.756607	0.021222	2.684677	-0.576404	-0.413069	-0.134838	-0.321530	0.111799	-0.756592	0.309326	0.302002	0.093949	0.027619	0.000345	0.313627	-0.649107	-0.360677	-0.591786	169.140677	-83.988364	67.898834
48312		9.366928	1.362405	-0.116954	1.466650	0.080750	-0.461140	-0.102362	-0.386839	0.202159	-0.763184	0.321289	0.306152	0.093657	0.013718	-0.000995	0.313165	-0.650770	-0.360356	-0.590397	170.472945	-83.787848	66.500105
48313		9.415059	1.769796	0.378621	2.115857	0.296088	-0.466341	-0.004082	-0.400423	0.236545	-0.750488	0.308105	0.310303	0.094122	0.017809	0.003974	0.313099	-0.652385	-0.360232	-0.588723	171.965965	-83.578288	64.995847
48314		9.293841	1.186906	-0.047777	1.431117	0.265766	-0.557009	-0.077011	-0.451374	0.287357	-0.754883	0.320557	0.314941	0.092922	0.012002	-0.000273	0.312850	-0.654345	-0.359807	-0.586938	173.591324	-83.339764	63.315566
48315		9.230840	1.912160	0.316510	2.279362	0.187326	-0.662053	-0.032394	-0.487144	0.311204	-0.754395	0.318115	0.317871	0.092270	0.019266	0.003387	0.312751	-0.656384	-0.359486	-0.584907	175.259665	-83.076002	61.616979
48316		9.283104	1.062569	-0.033838	1.431551	0.387929	-0.587392	-0.064258	-0.551131	0.364072	-0.751709	0.319092	0.320557	0.092812	0.010795	-0.000086	0.312583	-0.658742	-0.358997	-0.582642	177.033758	-82.772559	59.792317
48317		9.363897	1.002891	0.338501	1.646567	0.762484	-0.565525	-0.060315	-0.581958	0.399106	-0.743164	0.325684	0.324219	0.093608	0.010217	0.003654	0.312472	-0.661245	-0.358446	-0.580200	178.823635	-82.444571	57.952833
