// General information: 
//  MT Manager version: 2019.2.0 
//  XDA version: 2019.2.0 build 3853 rev 94535 built on 2019-09-09
// Device information: 
//  DeviceId: 00B47796
//  ProductCode: MTW2-3A7G6
//  Firmware Version: 4.6.0
//  Hardware Version: 2.0.0
// Device settings: 
//  Filter Profile: human(46.1)
//  Option Flags: Orientation Smoother Disabled, AHS Disabled, ICC Disabled
// Coordinate system: ENU
PacketCounter	SampleTimeFine	Acc_X	Acc_Y	Acc_Z	FreeAcc_E	FreeAcc_N	FreeAcc_U	Gyr_X	Gyr_Y	Gyr_Z	Mag_X	Mag_Y	Mag_Z	VelInc_X	VelInc_Y	VelInc_Z	Quat_q0	Quat_q1	Quat_q2	Quat_q3	Roll	Pitch	Yaw
51656		5.890093	0.337970	7.672848	-0.086026	0.031920	-0.134278	0.006308	0.002565	-0.002891	-0.811035	-0.013428	-0.536377	0.058902	0.003376	0.076728	-0.060258	-0.317627	0.000566	-0.946299	2.668772	-36.956506	171.820976
51657		5.874484	0.337906	7.691825	-0.062618	0.029354	-0.128519	0.006864	0.001251	-0.006782	-0.814453	-0.015869	-0.528809	0.058745	0.003374	0.076918	-0.060233	-0.317613	0.000558	-0.946305	2.668626	-36.954853	171.824104
51658		5.900124	0.328046	7.712429	-0.068890	0.041667	-0.097022	0.001939	0.000543	0.000795	-0.806396	-0.010498	-0.535400	0.059001	0.003280	0.077124	-0.060232	-0.317637	0.000555	-0.946297	2.669201	-36.957715	171.823956
51659		5.890943	0.349876	7.705849	-0.063835	0.016182	-0.106947	0.004539	-0.001131	0.001302	-0.814941	-0.017822	-0.541504	0.058909	0.003497	0.077059	-0.060092	-0.317859	0.000655	-0.946232	2.652182	-36.985613	171.845292
51660		5.914502	0.318941	7.660625	-0.105597	0.051508	-0.130000	0.003175	0.001956	-0.000337	-0.807373	-0.016113	-0.532715	0.059146	0.003188	0.076606	-0.060093	-0.317877	0.000645	-0.946226	2.653871	-36.987704	171.844426
51661		5.883408	0.317435	7.698543	-0.056703	0.048211	-0.118500	0.003216	0.003303	0.001879	-0.815430	-0.012939	-0.528809	0.058835	0.003174	0.076985	-0.060092	-0.317938	0.000631	-0.946205	2.656455	-36.994945	171.843391
51662		5.883171	0.317666	7.698714	-0.056166	0.048104	-0.118496	0.002472	0.002826	-0.002265	-0.808594	-0.017334	-0.528320	0.058833	0.003175	0.076986	-0.060104	-0.317952	0.000621	-0.946200	2.658560	-36.996498	171.841167
51663		5.890918	0.285935	7.672661	-0.067733	0.079651	-0.135732	0.001746	0.007292	-0.003362	-0.805420	-0.015869	-0.530762	0.058912	0.002858	0.076724	-0.060062	-0.318271	0.000686	-0.946095	2.651856	-37.035636	171.846648
51664		5.923283	0.308774	7.701184	-0.078962	0.059790	-0.092654	0.005066	0.009692	0.002120	-0.814453	-0.009521	-0.541748	0.059237	0.003086	0.077009	-0.060049	-0.318254	0.000669	-0.946101	2.653397	-37.033489	171.847802
51665		5.904103	0.352515	7.688638	-0.076427	0.012245	-0.112591	0.004218	0.010118	-0.005626	-0.802490	-0.011230	-0.537354	0.059045	0.003522	0.076883	-0.059926	-0.318257	0.000750	-0.946108	2.636896	-37.034859	171.868181
51666		5.903114	0.352916	7.689379	-0.075871	0.012124	-0.112587	0.004380	0.015507	0.003240	-0.812012	-0.012451	-0.540283	0.059037	0.003528	0.076889	-0.059909	-0.318212	0.000736	-0.946124	2.637384	-37.029421	171.870392
51667		5.943170	0.343484	7.691933	-0.108335	0.023059	-0.086803	0.001804	0.013584	0.001902	-0.803223	-0.023193	-0.533203	0.059437	0.003435	0.076915	-0.059732	-0.318059	0.000844	-0.946187	2.612731	-37.012361	171.900861
51668		5.887235	0.297633	7.709137	-0.049522	0.061683	-0.108428	0.001077	0.018051	0.000806	-0.798584	-0.013184	-0.534912	0.058879	0.002976	0.077086	-0.059731	-0.318001	0.000841	-0.946207	2.612257	-37.005361	171.901488
51669		5.895217	0.276097	7.716631	-0.051323	0.085661	-0.098459	0.002401	0.013617	0.000229	-0.815918	-0.019287	-0.534424	0.058957	0.002760	0.077162	-0.059843	-0.317885	0.000776	-0.946238	2.624797	-36.990571	171.884416
51670		5.878729	0.275537	7.736272	-0.027102	0.083888	-0.092733	0.004299	0.012814	-0.001190	-0.808350	-0.013672	-0.529541	0.058792	0.002753	0.077359	-0.059846	-0.317853	0.000756	-0.946249	2.627163	-36.986481	171.883414
51671		5.869753	0.308021	7.763196	-0.002968	0.049178	-0.075457	0.003685	0.007836	-0.002563	-0.810791	-0.013672	-0.533691	0.058701	0.003078	0.077630	-0.059843	-0.318087	0.000762	-0.946171	2.629266	-37.014720	171.881740
51672		5.881708	0.353470	7.712736	-0.048056	0.007826	-0.106845	0.004985	0.007000	-0.002309	-0.803223	-0.016113	-0.536865	0.058820	0.003532	0.077125	-0.059851	-0.318083	0.000739	-0.946172	2.632624	-37.014008	171.879734
51673		5.889591	0.321714	7.686621	-0.065970	0.040352	-0.124088	0.001938	0.000543	0.000797	-0.807129	-0.014160	-0.540039	0.058896	0.003217	0.076866	-0.059791	-0.318121	0.000780	-0.946162	2.624848	-37.019157	171.889343
51674		5.877039	0.277349	7.737492	-0.019766	0.081445	-0.092695	0.009468	-0.000423	-0.006267	-0.802246	-0.014160	-0.543945	0.058770	0.002768	0.077375	-0.059810	-0.318154	0.000732	-0.946150	2.632607	-37.022591	171.884281
51675		5.908045	0.279819	7.699677	-0.071869	0.083813	-0.104128	0.003797	-0.001608	-0.002839	-0.805908	-0.017090	-0.542480	0.059080	0.002796	0.076997	-0.059744	-0.317934	0.000750	-0.946228	2.624337	-36.996469	171.896268
51676		5.889680	0.323683	7.686471	-0.069601	0.039163	-0.124109	0.006971	0.000349	-0.003174	-0.814453	-0.022217	-0.537842	0.058897	0.003233	0.076865	-0.059752	-0.317961	0.000719	-0.946219	2.629277	-36.999452	171.893500
51677		5.920410	0.326097	7.648866	-0.117378	0.044726	-0.135551	0.006244	0.004816	-0.004271	-0.818359	-0.018311	-0.534180	0.059206	0.003257	0.076487	-0.059889	-0.317912	0.000603	-0.946227	2.650696	-36.992171	171.870082
51678		5.870677	0.368409	7.673704	-0.067768	-0.003220	-0.144094	0.006244	0.004816	-0.004271	-0.810791	-0.015137	-0.537598	0.058709	0.003680	0.076736	-0.059903	-0.317918	0.000572	-0.946224	2.655650	-36.992537	171.866631
51679		5.937102	0.349293	7.696357	-0.100943	0.022334	-0.086722	0.006882	0.006196	-0.003728	-0.800781	-0.021240	-0.536865	0.059373	0.003489	0.076962	-0.059887	-0.318088	0.000557	-0.946168	2.659122	-37.012924	171.866448
51680		5.888059	0.326575	7.687590	-0.064966	0.040338	-0.124081	0.003580	0.008739	-0.006165	-0.810791	-0.017334	-0.540771	0.058884	0.003263	0.076873	-0.059915	-0.318074	0.000534	-0.946171	2.663287	-37.011048	171.861767
51681		5.881125	0.304543	7.713529	-0.043808	0.062979	-0.108408	0.004424	0.008316	0.001582	-0.806396	-0.016602	-0.533203	0.058814	0.003044	0.077133	-0.060015	-0.317948	0.000447	-0.946207	2.678066	-36.994771	171.845439
51682		5.889776	0.283577	7.720514	-0.044122	0.085119	-0.098419	0.006740	0.005750	-0.009545	-0.802734	-0.015869	-0.533691	0.058900	0.002830	0.077204	-0.060054	-0.317949	0.000404	-0.946204	2.685592	-36.994465	171.838206
51683		5.888285	0.274117	7.687954	-0.060895	0.095933	-0.125646	0.007480	0.006230	-0.005400	-0.807129	-0.012695	-0.527100	0.058885	0.002737	0.076878	-0.060049	-0.317974	0.000389	-0.946196	2.687844	-36.997394	171.837920
51684		5.911470	0.319429	7.709822	-0.071259	0.053774	-0.092559	0.011252	0.008220	-0.007406	-0.812012	-0.019531	-0.533936	0.059118	0.003188	0.077096	-0.060071	-0.317966	0.000328	-0.946197	2.696973	-36.995736	171.832314
51685		5.876075	0.352595	7.682932	-0.058573	0.017454	-0.134036	0.008741	0.004046	-0.007360	-0.807129	-0.019287	-0.529053	0.058762	0.003520	0.076828	-0.060046	-0.318205	0.000334	-0.946118	2.698085	-37.024662	171.833533
51686		5.899394	0.397721	7.704682	-0.068905	-0.024715	-0.100952	0.004242	0.006522	-0.006452	-0.812256	-0.015625	-0.534668	0.058997	0.003974	0.077045	-0.060074	-0.318202	0.000308	-0.946117	2.702806	-37.024076	171.828560
51687		5.876125	0.364520	7.716477	-0.035929	0.005087	-0.106791	0.003044	0.006457	-0.003105	-0.811523	-0.017090	-0.534424	0.058764	0.003643	0.077163	-0.060089	-0.318384	0.000313	-0.946056	2.705166	-37.045908	171.825002
51688		5.890240	0.355413	7.664991	-0.076892	0.018163	-0.139679	0.007646	0.003080	-0.000411	-0.812012	-0.025879	-0.537354	0.058904	0.003551	0.076649	-0.060083	-0.318399	0.000282	-0.946051	2.709301	-37.047513	171.824235
51689		5.921620	0.367789	7.660601	-0.103551	0.012267	-0.123787	0.000559	0.012176	0.003032	-0.811523	-0.016357	-0.541504	0.059221	0.003679	0.076602	-0.060231	-0.318475	0.000200	-0.946016	2.728121	-37.055546	171.799618
51690		5.899103	0.344420	7.705499	-0.056438	0.031084	-0.102455	0.001885	0.007741	0.002458	-0.812012	-0.022461	-0.536621	0.058994	0.003444	0.077053	-0.060221	-0.318467	0.000200	-0.946019	2.727678	-37.054588	171.801002
51691		5.906466	0.312208	7.679878	-0.074485	0.065967	-0.119678	0.001234	0.014906	0.005792	-0.803955	-0.010254	-0.532471	0.059070	0.003123	0.076794	-0.060259	-0.318423	0.000161	-0.946031	2.734063	-37.048912	171.794486
51692		5.903362	0.366614	7.681606	-0.078117	0.011441	-0.118105	0.001132	0.015807	0.002191	-0.804443	-0.011963	-0.539307	0.059040	0.003666	0.076811	-0.060252	-0.318377	0.000161	-0.946047	2.733162	-37.043323	171.795930
51693		5.903979	0.311872	7.681804	-0.075371	0.061367	-0.119654	-0.001431	0.018829	0.003897	-0.812500	-0.020996	-0.534180	0.059047	0.003120	0.076812	-0.059964	-0.318232	0.000324	-0.946115	2.696064	-37.028041	171.843997
51694		5.935489	0.334294	7.710993	-0.086501	0.041445	-0.076570	0.002405	0.018571	0.003279	-0.798096	-0.015381	-0.533691	0.059362	0.003343	0.077104	-0.059949	-0.318172	0.000319	-0.946136	2.695275	-37.020875	171.846416
51695		5.885658	0.310732	7.702824	-0.049832	0.060008	-0.113979	-0.000132	0.017994	0.004154	-0.813965	-0.017090	-0.534180	0.058863	0.003109	0.077023	-0.059982	-0.318148	0.000311	-0.946142	2.697495	-37.017856	171.841886
51696		5.871945	0.265608	7.754578	-0.003552	0.101074	-0.082655	-0.000079	0.010797	0.002493	-0.811035	-0.018555	-0.536133	0.058724	0.002657	0.077543	-0.059974	-0.318125	0.000319	-0.946150	2.695793	-37.015123	171.843464
51697		5.891031	0.343414	7.711717	-0.050468	0.027343	-0.102411	0.001820	0.009993	0.001076	-0.803955	-0.018799	-0.538818	0.058914	0.003434	0.077114	-0.059980	-0.318265	0.000323	-0.946102	2.697350	-37.032075	171.841463
51698		5.905820	0.344077	7.693437	-0.073593	0.028875	-0.108059	-0.003253	0.008839	0.002824	-0.811523	-0.015625	-0.532471	0.059062	0.003443	0.076932	-0.059976	-0.318251	0.000347	-0.946107	2.693732	-37.030520	171.843201
51699		5.872269	0.321276	7.665823	-0.060648	0.048353	-0.151135	0.001884	0.007743	0.002462	-0.816162	-0.023438	-0.535400	0.058726	0.003213	0.076656	-0.059962	-0.318278	0.000353	-0.946099	2.692633	-37.033943	171.845071
51700		5.927180	0.377512	7.683144	-0.100436	-0.002060	-0.102147	-0.000743	0.013016	0.002782	-0.810547	-0.018555	-0.526123	0.059277	0.003776	0.076828	-0.059955	-0.318245	0.000364	-0.946111	2.690384	-37.030005	171.846921
51701		5.895953	0.310595	7.688017	-0.059443	0.061985	-0.119547	-0.000133	0.017997	0.004158	-0.809570	-0.012695	-0.539551	0.058966	0.003107	0.076875	-0.060097	-0.318511	0.000322	-0.946012	2.705983	-37.061292	171.823004
51702		5.892580	0.364785	7.689967	-0.063055	0.007453	-0.117991	-0.001397	0.020183	0.006120	-0.807861	-0.011719	-0.541992	0.058933	0.003650	0.076894	-0.060075	-0.318444	0.000339	-0.946036	2.701821	-37.053441	171.827422
51703		5.900107	0.342517	7.697889	-0.065887	0.026288	-0.107996	-0.002626	0.023719	0.010299	-0.804688	-0.018066	-0.534180	0.059010	0.003429	0.076972	-0.059807	-0.318243	0.000477	-0.946121	2.668303	-37.031175	171.872170
51704		5.907481	0.320056	7.705933	-0.066124	0.048408	-0.097985	-0.005262	0.024045	0.007572	-0.813721	-0.011230	-0.536133	0.059084	0.003205	0.077052	-0.059784	-0.318156	0.000514	-0.946151	2.661157	-37.021113	171.877835
51705		5.850810	0.273489	7.723522	-0.005581	0.085058	-0.119788	-0.003425	0.025492	0.004773	-0.807617	-0.014648	-0.541992	0.058518	0.002738	0.077228	-0.059667	-0.318156	0.000602	-0.946159	2.643790	-37.022160	171.897795
51706		5.856278	0.305913	7.732357	-0.009986	0.052760	-0.108254	-0.000763	0.021568	0.006671	-0.802490	-0.016357	-0.540527	0.058571	0.003061	0.077317	-0.059641	-0.318083	0.000617	-0.946185	2.639629	-37.013520	171.902760
51707		5.863767	0.283859	7.740275	-0.013824	0.074591	-0.098242	-0.001463	0.022438	0.004744	-0.807129	-0.018066	-0.536621	0.058646	0.002841	0.077396	-0.059576	-0.317830	0.000642	-0.946274	2.630081	-36.983482	171.915221
51708		5.885066	0.317253	7.730085	-0.041938	0.043950	-0.092339	0.000562	0.017132	0.006097	-0.809326	-0.015381	-0.535156	0.058857	0.003174	0.077296	-0.059551	-0.317777	0.000651	-0.946293	2.627003	-36.977304	171.919651
51709		5.884787	0.327494	7.763878	-0.021798	0.032056	-0.065161	0.001191	0.013564	0.003592	-0.809326	-0.018066	-0.545654	0.058853	0.003276	0.077635	-0.059539	-0.317824	0.000660	-0.946278	2.625824	-36.983028	171.921178
51710		5.875804	0.283819	7.724163	-0.034125	0.075645	-0.103854	-0.002558	0.007974	0.004756	-0.814209	-0.012451	-0.538086	0.058761	0.002841	0.077239	-0.059525	-0.317814	0.000685	-0.946283	2.621719	-36.982079	171.924342
51711		5.898053	0.317200	7.713269	-0.062863	0.044099	-0.097942	-0.000656	0.007169	0.003341	-0.814209	-0.016113	-0.536621	0.058983	0.003173	0.077131	-0.059438	-0.317781	0.000724	-0.946299	2.612099	-36.978651	171.938226
51712		5.858309	0.271774	7.710904	-0.027799	0.084373	-0.125387	-0.002496	0.005724	0.006141	-0.805664	-0.017334	-0.537598	0.058585	0.002721	0.077107	-0.059417	-0.317781	0.000751	-0.946300	2.607458	-36.979014	171.942333
51713		5.897146	0.316628	7.713986	-0.059959	0.043729	-0.097922	0.003147	0.005558	0.000509	-0.805176	-0.014160	-0.532471	0.058974	0.003165	0.077138	-0.059419	-0.317870	0.000744	-0.946270	2.609666	-36.989647	171.940831
51714		5.879601	0.294900	7.667172	-0.071488	0.065074	-0.146620	0.000732	0.000480	0.004147	-0.811279	-0.016846	-0.534180	0.058796	0.002950	0.076672	-0.059402	-0.317897	0.000754	-0.946262	2.607839	-36.992982	171.943332
51715		5.896622	0.316400	7.714396	-0.055623	0.042345	-0.097890	0.000677	0.007682	0.005816	-0.801270	-0.016602	-0.531006	0.058969	0.003165	0.077142	-0.059339	-0.318048	0.000802	-0.946216	2.600379	-37.011748	171.952624
51716		5.879712	0.304885	7.700673	-0.049248	0.052117	-0.119432	0.000007	0.004951	0.003053	-0.804688	-0.022949	-0.538086	0.058799	0.003050	0.077005	-0.059329	-0.318053	0.000812	-0.946214	2.598509	-37.012546	171.954494
51717		5.879288	0.304715	7.701004	-0.048225	0.054470	-0.119440	0.000643	0.006332	0.003598	-0.811035	-0.014893	-0.532959	0.058795	0.003048	0.077008	-0.059491	-0.318066	0.000744	-0.946200	2.615434	-37.012969	171.929088
51718		5.887916	0.282924	7.708049	-0.048439	0.076581	-0.109419	0.001279	0.007714	0.004144	-0.815430	-0.018555	-0.537598	0.058882	0.002830	0.077078	-0.059474	-0.318058	0.000749	-0.946204	2.613816	-37.012210	171.931776
51719		5.862633	0.303618	7.720646	-0.019241	0.052054	-0.113824	-0.000054	0.007202	0.001669	-0.810791	-0.018555	-0.535400	0.058629	0.003037	0.077204	-0.059476	-0.318256	0.000772	-0.946137	2.613320	-37.036130	171.930571
51720		5.903413	0.294211	7.722863	-0.048921	0.065921	-0.087837	0.005110	0.002502	0.000478	-0.808594	-0.008057	-0.537598	0.059035	0.002940	0.077228	-0.059470	-0.318275	0.000755	-0.946131	2.615586	-37.038319	171.930449
51721		5.901307	0.349160	7.723843	-0.051140	0.009016	-0.086311	0.004413	0.003371	-0.001451	-0.808350	-0.015869	-0.540283	0.059014	0.003489	0.077238	-0.059337	-0.318364	0.000815	-0.946109	2.602516	-37.049906	171.950372
51722		5.886630	0.283323	7.709017	-0.040595	0.073200	-0.109357	-0.001807	-0.000095	0.005018	-0.803955	-0.010742	-0.543457	0.058866	0.002835	0.077090	-0.059320	-0.318393	0.000839	-0.946100	2.598867	-37.053724	171.953464
51723		5.871072	0.282433	7.727811	-0.019860	0.069936	-0.103772	0.005171	0.000251	0.001862	-0.809082	-0.007080	-0.533447	0.058711	0.002823	0.077278	-0.059179	-0.318254	0.000871	-0.946156	2.586251	-37.037593	171.975521
51724		5.893968	0.316469	7.716421	-0.047945	0.039281	-0.097837	0.003201	-0.001644	-0.001159	-0.814941	-0.014404	-0.535889	0.058939	0.003163	0.077165	-0.059184	-0.318292	0.000862	-0.946143	2.588130	-37.042082	171.974186
51725		5.903197	0.295083	7.722995	-0.044999	0.057100	-0.087762	0.003235	-0.000293	0.001060	-0.815674	-0.011475	-0.539551	0.059032	0.002950	0.077230	-0.058919	-0.318492	0.000991	-0.946092	2.561117	-37.067950	172.014176
51726		5.877695	0.305784	7.702177	-0.037834	0.044636	-0.119344	0.006436	-0.001937	-0.000099	-0.808594	-0.016357	-0.533203	0.058776	0.003055	0.077022	-0.058912	-0.318532	0.000969	-0.946079	2.564325	-37.072692	172.013668
51727		5.894165	0.317418	7.716232	-0.040752	0.032708	-0.097779	0.003871	0.001088	0.001606	-0.808105	-0.017090	-0.538818	0.058942	0.003173	0.077162	-0.058788	-0.318673	0.001015	-0.946039	2.554184	-37.090388	172.031322
51728		5.887106	0.284943	7.708594	-0.035204	0.064722	-0.109276	0.006429	-0.006888	-0.003150	-0.804199	-0.018311	-0.540527	0.058868	0.002846	0.077088	-0.058796	-0.318738	0.000990	-0.946017	2.558776	-37.097921	172.028494
51729		5.887688	0.285471	7.708130	-0.036740	0.066115	-0.109291	0.004589	-0.008333	-0.000351	-0.808350	-0.015381	-0.531494	0.058874	0.002853	0.077084	-0.058883	-0.318699	0.000930	-0.946025	2.570325	-37.092470	172.014272
51730		5.903605	0.286750	7.689041	-0.059854	0.067611	-0.114854	0.005739	-0.001068	-0.002028	-0.809082	-0.014404	-0.533691	0.059036	0.002865	0.076891	-0.058887	-0.318735	0.000908	-0.946012	2.573947	-37.096659	172.012415
51731		5.902050	0.342112	7.689560	-0.060525	0.011798	-0.113370	0.008933	-0.007662	-0.006238	-0.805664	-0.018311	-0.541992	0.059018	0.003416	0.076898	-0.058848	-0.318948	0.000906	-0.945943	2.575249	-37.122392	172.015419
51732		5.885954	0.331581	7.675176	-0.054178	0.021577	-0.134912	0.003803	-0.001612	-0.002831	-0.798828	-0.019043	-0.529297	0.058859	0.003314	0.076752	-0.058859	-0.318987	0.000892	-0.945929	2.578107	-37.126916	172.012979
51733		5.918098	0.344108	7.670330	-0.084639	0.015205	-0.118933	0.004500	-0.002480	-0.000901	-0.804688	-0.014404	-0.539551	0.059180	0.003439	0.076704	-0.059003	-0.318944	0.000819	-0.945935	2.594017	-37.120831	171.990433
51734		5.887041	0.342791	7.707873	-0.036609	0.011725	-0.107813	0.003871	0.001089	0.001605	-0.811523	-0.007568	-0.529541	0.058871	0.003427	0.077078	-0.058993	-0.318970	0.000811	-0.945927	2.594973	-37.123890	171.991229
51735		5.917990	0.344576	7.670393	-0.082668	0.011200	-0.118911	0.003208	0.003308	0.001893	-0.807373	-0.008789	-0.537354	0.059181	0.003445	0.076703	-0.058741	-0.319034	0.000922	-0.945921	2.569252	-37.133249	172.029921
51736		5.910115	0.311868	7.663407	-0.077130	0.043214	-0.130399	0.006328	0.012468	0.003235	-0.801514	-0.022705	-0.536377	0.059106	0.003117	0.076630	-0.058719	-0.319007	0.000901	-0.945931	2.570620	-37.129855	172.032330
51737		5.878134	0.310587	7.701650	-0.030853	0.039834	-0.119298	0.003025	0.010060	-0.002261	-0.805664	-0.014404	-0.534668	0.058785	0.003104	0.077014	-0.058732	-0.318904	0.000890	-0.945965	2.571430	-37.117296	172.031019
51738		5.908298	0.312329	7.664789	-0.077688	0.042979	-0.130402	0.001826	0.014950	0.004136	-0.816895	-0.019775	-0.535889	0.059089	0.003124	0.076644	-0.058713	-0.318863	0.000892	-0.945980	2.569778	-37.112474	172.034163
51739		5.891455	0.311540	7.684565	-0.051097	0.041395	-0.124833	0.003004	0.018614	0.001625	-0.811279	-0.011475	-0.531982	0.058922	0.003115	0.076840	-0.058730	-0.318917	0.000873	-0.945961	2.573905	-37.118661	172.030405
51740		5.900200	0.300505	7.725076	-0.033305	0.051858	-0.087686	0.001095	0.014468	-0.000011	-0.810547	-0.019775	-0.533447	0.059008	0.003005	0.077247	-0.058731	-0.318878	0.000871	-0.945974	2.573650	-37.114039	172.030542
51741		5.874372	0.321512	7.738039	-0.004588	0.026874	-0.092188	0.004330	0.014176	0.001051	-0.815186	-0.019531	-0.540039	0.058749	0.003214	0.077376	-0.058684	-0.319021	0.000883	-0.945929	2.571707	-37.131438	172.036135
51742		5.904506	0.323185	7.701236	-0.051417	0.030021	-0.103253	0.000553	0.012187	0.003047	-0.808105	-0.013184	-0.536865	0.059050	0.003233	0.077009	-0.058672	-0.318994	0.000890	-0.945939	2.569854	-37.128254	172.038395
51743		5.879969	0.279107	7.680336	-0.039626	0.071990	-0.136286	0.005656	0.009737	0.000477	-0.810791	-0.009766	-0.528564	0.058803	0.002789	0.076801	-0.058656	-0.319005	0.000865	-0.945936	2.572665	-37.129517	172.039324
51744		5.895590	0.290503	7.695047	-0.044732	0.061871	-0.114734	0.001249	0.011319	0.004978	-0.808838	-0.007080	-0.540771	0.058960	0.002906	0.076947	-0.058633	-0.318983	0.000872	-0.945945	2.570393	-37.126884	172.042941
51745		5.885609	0.312197	7.689017	-0.041964	0.034227	-0.124762	0.004357	0.010575	0.000220	-0.799316	-0.016602	-0.538330	0.058860	0.003120	0.076887	-0.058274	-0.319048	0.001018	-0.945945	2.534960	-37.136976	172.097944
51746		5.893884	0.290658	7.696348	-0.042147	0.056273	-0.114688	0.000552	0.012188	0.003048	-0.803223	-0.018311	-0.540527	0.058943	0.002907	0.076960	-0.058261	-0.319021	0.001025	-0.945955	2.533015	-37.133826	172.100305
51747		5.877511	0.290059	7.715722	-0.021878	0.056237	-0.109183	0.005624	0.008387	-0.001740	-0.811768	-0.017334	-0.539063	0.058778	0.002898	0.077155	-0.058385	-0.318809	0.000958	-0.946019	2.545120	-37.107329	172.082362
51748		5.892467	0.291269	7.697410	-0.044995	0.057713	-0.114710	0.003086	0.007811	-0.000872	-0.808105	-0.017578	-0.537109	0.058928	0.002911	0.076972	-0.058387	-0.318803	0.000949	-0.946021	2.546430	-37.106517	172.081755
51749		5.885454	0.269173	7.723283	-0.021066	0.078996	-0.099118	0.004385	0.006974	-0.000613	-0.806152	-0.019531	-0.538086	0.058857	0.002690	0.077231	-0.058444	-0.318817	0.000904	-0.946012	2.555276	-37.107752	172.071836
51750		5.908737	0.313790	7.745117	-0.031092	0.036672	-0.066090	0.004413	0.003372	-0.001447	-0.807373	-0.015869	-0.537109	0.059089	0.003136	0.077450	-0.058446	-0.318833	0.000888	-0.946007	2.557699	-37.109467	172.070655
51751		5.906904	0.293254	7.679473	-0.067090	0.060917	-0.120236	0.005076	0.001152	-0.001735	-0.808594	-0.015137	-0.532715	0.059070	0.002930	0.076794	-0.058533	-0.318826	0.000836	-0.946004	2.568738	-37.108014	172.056446
51752		5.898525	0.325919	7.705702	-0.047688	0.026900	-0.103224	0.006376	0.000314	-0.001476	-0.807861	-0.020264	-0.544678	0.058985	0.003256	0.077057	-0.058533	-0.318857	0.000812	-0.945994	2.572377	-37.111462	172.055123
51753		5.898467	0.326382	7.705727	-0.047767	0.027809	-0.103227	0.004473	0.001121	-0.000062	-0.804199	-0.010010	-0.532715	0.058985	0.003262	0.077057	-0.058599	-0.318846	0.000766	-0.945993	2.581498	-37.109581	172.044060
51754		5.906618	0.294491	7.679646	-0.065961	0.061487	-0.120232	0.003206	0.003310	0.001897	-0.810059	-0.014160	-0.528564	0.059067	0.002944	0.076796	-0.058588	-0.318861	0.000761	-0.945989	2.581820	-37.111386	172.045236
51755		5.889073	0.348528	7.699216	-0.042763	0.002201	-0.113268	0.005137	-0.001099	-0.000350	-0.812988	-0.018066	-0.538574	0.058890	0.003483	0.076993	-0.058397	-0.319054	0.000837	-0.945935	2.565141	-37.135839	172.072923
51756		5.923849	0.316819	7.726617	-0.049429	0.036514	-0.071578	0.001299	-0.000837	0.000259	-0.816406	-0.010254	-0.534912	0.059238	0.003168	0.077266	-0.058396	-0.319089	0.000841	-0.945924	2.565113	-37.140025	172.072840
51757		5.913982	0.327996	7.686976	-0.063590	0.024007	-0.108681	0.001995	-0.001705	0.002189	-0.814453	-0.011719	-0.529053	0.059139	0.003280	0.076870	-0.058258	-0.319253	0.000887	-0.945877	2.554602	-37.160659	172.092121
51758		5.898447	0.327195	7.705708	-0.039247	0.022172	-0.103175	0.001331	0.000515	0.002477	-0.810791	-0.015869	-0.540283	0.058985	0.003272	0.077057	-0.058247	-0.319282	0.000893	-0.945868	2.553579	-37.164165	172.093701
51759		5.913173	0.317506	7.654083	-0.077786	0.033413	-0.135692	0.001935	0.000545	0.000805	-0.812256	-0.019287	-0.532715	0.059132	0.003175	0.076541	-0.058114	-0.319444	0.000943	-0.945821	2.542727	-37.184525	172.112516
51760		5.929223	0.328861	7.668468	-0.082847	0.023254	-0.114139	0.002514	0.009133	0.003018	-0.807617	-0.016357	-0.532715	0.059296	0.003289	0.076682	-0.058098	-0.319433	0.000942	-0.945826	2.541954	-37.183152	172.114788
51761		5.913018	0.327955	7.687719	-0.055627	0.022157	-0.108628	-0.000660	0.007175	0.003339	-0.804932	-0.014648	-0.535889	0.059133	0.003281	0.076875	-0.058157	-0.319567	0.000933	-0.945777	2.547563	-37.199113	172.104980
51762		5.912211	0.327823	7.688346	-0.055000	0.021975	-0.108624	-0.000840	0.013926	-0.000814	-0.805908	-0.011230	-0.543701	0.059127	0.003278	0.076879	-0.058165	-0.319532	0.000941	-0.945788	2.546461	-37.194936	172.104624
51763		5.903782	0.294845	7.681813	-0.052785	0.052680	-0.120099	0.002456	0.016339	0.004687	-0.811768	-0.014404	-0.530762	0.059044	0.002949	0.076813	-0.058028	-0.319329	0.000983	-0.945865	2.531882	-37.171229	172.127213
51764		5.918851	0.305926	7.696964	-0.057843	0.042516	-0.098548	-0.001441	0.018852	0.003911	-0.806885	-0.005859	-0.533691	0.059196	0.003061	0.076964	-0.058014	-0.319270	0.001000	-0.945886	2.528258	-37.164305	172.130451
51765		5.891940	0.315930	7.677223	-0.048306	0.026275	-0.130151	0.000552	0.017147	0.006102	-0.804443	-0.019043	-0.533691	0.058926	0.003161	0.076767	-0.057720	-0.319353	0.001120	-0.945876	2.499402	-37.176000	172.175239
51766		5.900399	0.304496	7.717935	-0.030401	0.036663	-0.093033	-0.000171	0.021619	0.005007	-0.808838	-0.015869	-0.536865	0.059012	0.003047	0.077173	-0.057699	-0.319281	0.001132	-0.945901	2.495919	-37.167561	172.179416
51767		5.905417	0.326620	7.693616	-0.052319	0.017070	-0.108599	-0.000778	0.016633	0.003626	-0.805176	-0.007080	-0.526367	0.059061	0.003268	0.076931	-0.057781	-0.319249	0.001114	-0.945907	2.501762	-37.163338	172.167657
51768		5.881203	0.292792	7.705962	-0.023081	0.047435	-0.114577	0.001066	0.018078	0.000831	-0.797363	-0.012207	-0.536865	0.058819	0.002928	0.077054	-0.057777	-0.319195	0.001114	-0.945925	2.500888	-37.156822	172.168699
51769		5.898190	0.249494	7.720323	-0.024129	0.088309	-0.094359	0.001819	0.014959	0.004147	-0.810791	-0.009766	-0.539551	0.058988	0.002495	0.077199	-0.057535	-0.319163	0.001225	-0.945951	2.474319	-37.154440	172.207115
51770		5.872579	0.270290	7.733038	0.001025	0.064254	-0.098987	0.001876	0.007752	0.002477	-0.813965	-0.013672	-0.530762	0.058729	0.002703	0.077328	-0.057522	-0.319158	0.001227	-0.945954	2.473331	-37.153880	172.209087
51771		5.849055	0.236686	7.744829	0.032672	0.092096	-0.104943	0.001787	0.008651	-0.001126	-0.813232	-0.024902	-0.546143	0.058494	0.002366	0.077446	-0.057326	-0.319276	0.001287	-0.945926	2.457644	-37.169110	172.237427
51772		5.878064	0.293082	7.708346	-0.018231	0.040737	-0.114536	0.004473	0.001121	-0.000058	-0.812744	-0.015625	-0.535889	0.058781	0.002929	0.077083	-0.057320	-0.319303	0.001276	-0.945917	2.459328	-37.172321	172.237418
51773		5.901605	0.337678	7.729988	-0.028057	0.001237	-0.081557	0.003779	0.001989	-0.001989	-0.805176	-0.015137	-0.527588	0.059017	0.003375	0.077299	-0.057514	-0.319319	0.001169	-0.945900	2.482900	-37.172866	172.205994
51774		5.893387	0.294627	7.689799	-0.040661	0.044889	-0.120002	0.005108	0.002504	0.000490	-0.808838	-0.011475	-0.538330	0.058935	0.002944	0.076897	-0.057505	-0.319340	0.001154	-0.945893	2.484737	-37.175290	172.206360
51775		5.877663	0.294174	7.708610	-0.014712	0.041652	-0.114534	0.001210	0.000060	-0.003343	-0.814697	-0.012207	-0.525635	0.058777	0.002940	0.077086	-0.057431	-0.319453	0.001194	-0.945859	2.477388	-37.189437	172.217085
51776		5.902201	0.273668	7.696716	-0.038605	0.065301	-0.109876	0.006377	0.005270	0.001584	-0.807861	-0.015381	-0.540527	0.059024	0.002735	0.076966	-0.057415	-0.319461	0.001174	-0.945858	2.479404	-37.190329	172.218347
51777		5.895353	0.251649	7.722420	-0.012001	0.084295	-0.094301	0.005742	0.003887	0.001037	-0.811035	-0.017822	-0.536865	0.058955	0.002515	0.077223	-0.057304	-0.319628	0.001189	-0.945808	2.474283	-37.210812	172.232638
51778		5.914581	0.319440	7.646252	-0.080238	0.022379	-0.140948	0.004295	0.002917	-0.007263	-0.812500	-0.021484	-0.532715	0.059147	0.003191	0.076462	-0.057332	-0.319647	0.001166	-0.945800	2.478979	-37.212876	172.227485
51779		5.915046	0.330798	7.679326	-0.058911	0.012617	-0.113944	0.009491	0.004523	-0.003170	-0.803711	-0.014160	-0.539795	0.059152	0.003303	0.076792	-0.057487	-0.319779	0.001056	-0.945746	2.502709	-37.227509	172.200086
51780		5.907953	0.309158	7.705204	-0.035293	0.032984	-0.098403	0.005565	0.010640	-0.003114	-0.810303	-0.007080	-0.526855	0.059084	0.003089	0.077049	-0.057494	-0.319763	0.001031	-0.945751	2.506228	-37.225283	172.198101
51781		5.898055	0.331317	7.699061	-0.033045	0.007623	-0.108502	0.004325	0.009227	-0.001990	-0.814697	-0.017090	-0.533447	0.058984	0.003311	0.076988	-0.057293	-0.319802	0.001102	-0.945750	2.487761	-37.231115	172.228514
51782		5.897289	0.331703	7.699631	-0.032397	0.007416	-0.108500	0.004354	0.010581	0.000229	-0.813477	-0.008545	-0.535400	0.058977	0.003315	0.076993	-0.057286	-0.319785	0.001089	-0.945756	2.489084	-37.229023	172.228990
51783		5.912045	0.332642	7.681557	-0.052511	0.006792	-0.113902	0.001151	0.012226	0.001381	-0.807129	-0.013428	-0.532715	0.059125	0.003326	0.076812	-0.057115	-0.319912	0.001139	-0.945723	2.476001	-37.245179	172.253368
51784		5.886306	0.353436	7.694332	-0.027325	-0.017256	-0.118606	0.001180	0.013580	0.003600	-0.812500	-0.015869	-0.538818	0.058868	0.003535	0.076939	-0.057097	-0.319881	0.001145	-0.945735	2.473955	-37.241498	172.256391
51785		5.916511	0.354892	7.657687	-0.073339	-0.014750	-0.129422	0.000486	0.014448	0.001669	-0.814453	-0.016113	-0.527100	0.059171	0.003549	0.076573	-0.057045	-0.319888	0.001163	-0.945736	2.469150	-37.242591	172.264356
51786		5.917936	0.310552	7.690782	-0.050490	0.027811	-0.103763	-0.001996	0.016579	0.006971	-0.813477	-0.012939	-0.531982	0.059186	0.003108	0.076903	-0.057016	-0.319841	0.001189	-0.945753	2.463754	-37.237286	172.269904
51787		5.881762	0.341919	7.664417	-0.037084	-0.008072	-0.145533	-0.002749	0.024657	0.006711	-0.812744	-0.013672	-0.543701	0.058827	0.003422	0.076637	-0.056894	-0.320035	0.001236	-0.945695	2.454029	-37.261326	172.286863
51788		5.898854	0.308439	7.712200	-0.019788	0.024460	-0.098334	-0.003962	0.024598	0.010056	-0.811279	-0.012207	-0.540527	0.058998	0.003089	0.077115	-0.056854	-0.319951	0.001274	-0.945726	2.446007	-37.251585	172.294880
51789		5.898826	0.253130	7.712960	-0.016771	0.077642	-0.099620	-0.002751	0.024659	0.006716	-0.804443	-0.020020	-0.537598	0.058998	0.002534	0.077122	-0.056722	-0.319788	0.001326	-0.945789	2.430920	-37.232761	172.316790
51790		5.879530	0.306269	7.733775	0.003633	0.021369	-0.092940	-0.002693	0.022409	0.008101	-0.806152	-0.019531	-0.541992	0.058804	0.003066	0.077331	-0.056689	-0.319714	0.001355	-0.945816	2.424500	-37.224200	172.323358
51791		5.854912	0.271911	7.746366	0.030771	0.054825	-0.098977	-0.004020	0.021894	0.005622	-0.806152	-0.015625	-0.535889	0.058558	0.002722	0.077457	-0.056900	-0.319531	0.001304	-0.945865	2.439006	-37.201101	172.293943
51792		5.878322	0.250524	7.735429	0.006907	0.078451	-0.094247	-0.000037	0.013524	0.006951	-0.811768	-0.009766	-0.534912	0.058788	0.002507	0.077350	-0.056868	-0.319500	0.001321	-0.945878	2.434822	-37.197562	172.299358
51793		5.851648	0.260292	7.715468	0.015084	0.064730	-0.125915	-0.004597	0.018261	0.006458	-0.808350	-0.009033	-0.535400	0.058523	0.002607	0.077149	-0.056747	-0.319506	0.001393	-0.945882	2.419496	-37.199249	172.319058
51794		5.876114	0.249582	7.737136	0.009399	0.076690	-0.094235	0.001872	0.007756	0.002485	-0.813721	-0.022949	-0.535400	0.058764	0.002496	0.077369	-0.056734	-0.319503	0.001396	-0.945884	2.418433	-37.198919	172.321111
51795		5.890029	0.315239	7.752494	0.002644	0.012413	-0.071393	-0.000641	0.008535	0.005566	-0.803711	-0.018555	-0.534424	0.058904	0.003154	0.077522	-0.056735	-0.319601	0.001397	-0.945851	2.419609	-37.210688	172.320008
51796		5.872473	0.293077	7.705841	-0.009306	0.033886	-0.119876	-0.000611	0.004930	0.004729	-0.810791	-0.013184	-0.540039	0.058727	0.002932	0.077057	-0.056715	-0.319610	0.001416	-0.945849	2.416212	-37.212057	172.323572
51797		5.887693	0.293556	7.687496	-0.032518	0.036043	-0.125255	-0.000668	0.007182	0.003346	-0.814941	-0.019531	-0.540771	0.058880	0.002937	0.076873	-0.056758	-0.319601	0.001412	-0.945850	2.418619	-37.210790	172.317637
51798		5.902863	0.294043	7.669193	-0.055610	0.037469	-0.130627	0.000023	0.006314	0.005279	-0.815674	-0.014160	-0.533203	0.059031	0.002942	0.076690	-0.056734	-0.319604	0.001428	-0.945850	2.415332	-37.211375	172.321624
51799		5.855278	0.291405	7.725732	0.019173	0.033071	-0.114509	-0.000642	0.008536	0.005567	-0.809570	-0.010254	-0.534668	0.058556	0.002916	0.077255	-0.056749	-0.319733	0.001413	-0.945806	2.419650	-37.226774	172.317624
51800		5.887826	0.237950	7.688115	-0.023630	0.090564	-0.126539	-0.002574	0.007991	0.004757	-0.806641	-0.013672	-0.532471	0.058881	0.002382	0.076879	-0.056732	-0.319728	0.001440	-0.945808	2.415091	-37.226422	172.321261
51801		5.868970	0.281021	7.675174	-0.019800	0.044399	-0.146783	0.001815	0.010009	0.001105	-0.802490	-0.013184	-0.540283	0.058694	0.002810	0.076749	-0.056623	-0.319800	0.001486	-0.945790	2.404767	-37.235785	172.337524
51802		5.901097	0.303587	7.703987	-0.030226	0.024129	-0.103669	0.001928	0.005505	0.003870	-0.807861	-0.010498	-0.532959	0.059013	0.003036	0.077038	-0.056603	-0.319808	0.001491	-0.945789	2.403196	-37.236858	172.340474
51803		5.893227	0.270809	7.696995	-0.025640	0.055003	-0.115084	0.003031	0.010068	-0.002237	-0.811768	-0.014160	-0.541504	0.058936	0.002706	0.076967	-0.056531	-0.319756	0.001518	-0.945811	2.395563	-37.230910	172.351972
51804		5.866961	0.281388	7.676696	-0.018658	0.042624	-0.146773	0.002449	0.011393	0.001655	-0.805664	-0.011475	-0.537109	0.058674	0.002813	0.076764	-0.056520	-0.319736	0.001516	-0.945818	2.395124	-37.228549	172.353536
51805		5.889632	0.325651	7.699054	-0.029190	-0.000501	-0.113801	0.001784	0.013616	0.001944	-0.811035	-0.014160	-0.535645	0.058902	0.003256	0.076987	-0.056449	-0.319665	0.001534	-0.945846	2.388534	-37.220326	172.364814
51806		5.891130	0.281654	7.731972	-0.006274	0.042042	-0.088165	0.003773	0.011909	0.004138	-0.803955	-0.004883	-0.544678	0.058916	0.002816	0.077316	-0.056424	-0.319643	0.001530	-0.945855	2.387752	-37.217717	172.368196
51807		5.919798	0.337780	7.695988	-0.058955	-0.011507	-0.097610	-0.000174	0.011717	-0.001087	-0.806152	-0.012451	-0.536133	0.059203	0.003378	0.076956	-0.056250	-0.319540	0.001597	-0.945900	2.369371	-37.206208	172.395901
51808		5.854005	0.303023	7.672912	-0.017888	0.016775	-0.156903	-0.000098	0.015780	0.005576	-0.802490	-0.010254	-0.536377	0.058546	0.003032	0.076725	-0.056225	-0.319498	0.001612	-0.945916	2.365637	-37.201394	172.400485
51809		5.831259	0.290137	7.750734	0.047033	0.022636	-0.109136	0.001865	0.012719	0.005550	-0.810303	-0.008301	-0.539063	0.058317	0.002902	0.077504	-0.056115	-0.319440	0.001658	-0.945942	2.353613	-37.195004	172.418155
51810		5.863760	0.237112	7.713199	0.004176	0.080093	-0.121098	0.003144	0.005565	0.000531	-0.809326	-0.012451	-0.534668	0.058640	0.002370	0.077130	-0.056107	-0.319448	0.001653	-0.945940	2.354090	-37.195910	172.418838
51811		5.893455	0.303917	7.709822	-0.027651	0.015107	-0.103643	0.001789	0.008656	-0.001113	-0.806641	-0.014893	-0.537842	0.058938	0.003038	0.077096	-0.055948	-0.319486	0.001697	-0.945936	2.341260	-37.201304	172.442245
51812		5.922262	0.359947	7.673771	-0.078503	-0.036311	-0.113098	-0.000068	0.012175	0.004738	-0.808105	-0.014160	-0.536133	0.059227	0.003601	0.076734	-0.055926	-0.319462	0.001712	-0.945946	2.337921	-37.198537	172.446186
51813		5.882711	0.325294	7.704359	-0.025326	-0.007145	-0.113793	-0.000093	0.010821	0.002518	-0.811279	-0.005859	-0.529541	0.058831	0.003254	0.077040	-0.055947	-0.319453	0.001713	-0.945947	2.338642	-37.197451	172.443446
51814		5.909017	0.260047	7.725321	-0.026964	0.059193	-0.083327	-0.001976	0.012985	0.006148	-0.806152	-0.013916	-0.533203	0.059095	0.002603	0.077249	-0.055921	-0.319424	0.001739	-0.945959	2.333591	-37.194254	172.448416
51815		5.901540	0.237259	7.751400	-0.000228	0.077221	-0.067806	-0.002658	0.008892	0.001155	-0.811768	-0.009277	-0.538574	0.059019	0.002374	0.077511	-0.055744	-0.319572	0.001818	-0.945919	2.316450	-37.213110	172.474873
51816		5.875498	0.247716	7.730921	0.006741	0.064864	-0.099514	0.006318	0.007524	0.000225	-0.804932	-0.012695	-0.541504	0.058758	0.002475	0.077307	-0.055732	-0.319572	0.001797	-0.945920	2.318789	-37.212945	172.475463
51817		5.884598	0.236989	7.770993	0.023762	0.074045	-0.062460	0.003088	0.007818	-0.000849	-0.808838	-0.011230	-0.531982	0.058849	0.002368	0.077708	-0.055630	-0.319518	0.001818	-0.945944	2.310610	-37.206858	172.490829
51818		5.865662	0.270122	7.724723	0.007734	0.041122	-0.109670	0.005802	-0.003327	-0.000622	-0.815430	-0.006592	-0.537109	0.058655	0.002699	0.077248	-0.055624	-0.319569	0.001801	-0.945927	2.313192	-37.212872	172.490524
51819		5.864121	0.325164	7.725200	0.006994	-0.016168	-0.108459	0.005802	-0.003327	-0.000622	-0.809082	-0.010254	-0.539063	0.058640	0.003249	0.077253	-0.055382	-0.319752	0.001840	-0.945880	2.298906	-37.235871	172.523625
51820		5.863820	0.315057	7.692059	-0.010595	-0.004727	-0.135328	0.003237	-0.005256	-0.001986	-0.804443	-0.019287	-0.534668	0.058636	0.003149	0.076922	-0.055386	-0.319812	0.001834	-0.945859	2.300607	-37.242996	172.522333
51821		5.864856	0.325811	7.724615	0.008250	-0.015909	-0.108460	0.002018	-0.005314	0.001355	-0.813477	-0.012695	-0.539795	0.058646	0.003258	0.077248	-0.055440	-0.319864	0.001821	-0.945838	2.305512	-37.249068	172.513838
51822		5.889413	0.294540	7.679508	-0.033889	0.019325	-0.130474	0.002627	-0.005285	-0.000315	-0.806641	-0.010986	-0.535889	0.058892	0.002944	0.076797	-0.055437	-0.319923	0.001820	-0.945818	2.306149	-37.256244	172.513732
51823		5.905353	0.295512	7.660648	-0.056796	0.019897	-0.135786	0.005851	-0.000616	0.003820	-0.807861	-0.014404	-0.534668	0.059053	0.002954	0.076607	-0.055327	-0.319973	0.001825	-0.945808	2.301079	-37.262584	172.528483
51824		5.905327	0.295704	7.660661	-0.056118	0.019657	-0.135781	0.001243	0.001413	-0.001120	-0.811523	-0.010254	-0.530762	0.059054	0.002956	0.076606	-0.055329	-0.320001	0.001827	-0.945798	2.301143	-37.265909	172.528011
51825		5.898417	0.273506	7.686295	-0.030089	0.039189	-0.120277	0.003143	0.005566	0.000532	-0.809570	-0.015869	-0.532715	0.058986	0.002734	0.076861	-0.055251	-0.320127	0.001836	-0.945760	2.297904	-37.281354	172.537988
51826		5.920805	0.307318	7.675513	-0.057896	0.008295	-0.114210	0.001814	0.010012	0.001109	-0.814697	-0.012207	-0.538818	0.059212	0.003073	0.076752	-0.055242	-0.320114	0.001837	-0.945765	2.297166	-37.279840	172.539377
51827		5.871489	0.284167	7.666486	-0.020728	0.026691	-0.151994	0.004324	0.014194	0.001090	-0.805908	-0.006592	-0.541504	0.058720	0.002840	0.076661	-0.055211	-0.320167	0.001810	-0.945749	2.300083	-37.286086	172.541818
51828		5.887462	0.306320	7.714304	-0.007228	0.004682	-0.103596	0.003666	0.011454	-0.001681	-0.808838	-0.009033	-0.532227	0.058879	0.003061	0.077140	-0.055213	-0.320148	0.001797	-0.945756	2.301602	-37.283703	172.541235
51829		5.916133	0.362645	7.678370	-0.058618	-0.049308	-0.113015	0.002391	0.013649	0.000278	-0.809082	-0.013184	-0.537598	0.059167	0.003626	0.076780	-0.055002	-0.320097	0.001862	-0.945785	2.282460	-37.278513	172.573457
51830		5.876275	0.328341	7.709139	-0.005675	-0.020487	-0.113781	0.003048	0.016389	0.003051	-0.806396	-0.013916	-0.528320	0.058769	0.003283	0.077087	-0.054982	-0.320054	0.001859	-0.945801	2.281435	-37.273409	172.576477
51831		5.884110	0.306566	7.716852	-0.004073	0.001438	-0.103593	-0.000103	0.015786	0.005579	-0.817383	-0.009277	-0.538330	0.058847	0.003067	0.077164	-0.054958	-0.320096	0.001872	-0.945788	2.279120	-37.278633	172.579962
51832		5.897921	0.296591	7.666329	-0.045474	0.014480	-0.135716	0.002383	0.018614	0.003342	-0.804688	-0.012207	-0.539063	0.058986	0.002966	0.076658	-0.054937	-0.320043	0.001872	-0.945807	2.277553	-37.272283	172.583249
51833		5.880172	0.285053	7.653218	-0.039289	0.023201	-0.157257	-0.002067	0.018850	0.005607	-0.809326	-0.020508	-0.540283	0.058809	0.002853	0.076527	-0.054794	-0.319993	0.001917	-0.945832	2.264202	-37.266898	172.605356
51834		5.872357	0.272801	7.712859	0.002720	0.031839	-0.114947	0.000411	0.026641	0.006432	-0.813477	-0.011719	-0.536865	0.058734	0.002730	0.077121	-0.054762	-0.319901	0.001929	-0.945865	2.260004	-37.256023	172.611118
51835		5.886298	0.273278	7.695588	-0.019719	0.034561	-0.120232	-0.000214	0.020294	0.002820	-0.800537	-0.006104	-0.533691	0.058871	0.002734	0.076950	-0.054833	-0.319867	0.001893	-0.945873	2.267886	-37.251462	172.599979
51836		5.917304	0.295484	7.725304	-0.029952	0.014129	-0.077133	-0.002101	0.022461	0.006451	-0.806885	-0.009766	-0.540283	0.059182	0.002958	0.077246	-0.054805	-0.319794	0.001918	-0.945899	2.262338	-37.242985	172.605606
51837		5.858815	0.303850	7.742843	0.023238	-0.003408	-0.098311	-0.001436	0.020238	0.006164	-0.805420	-0.013916	-0.535156	0.058596	0.003041	0.077422	-0.054627	-0.319675	0.002003	-0.945949	2.241218	-37.229676	172.634830
51838		5.889494	0.315300	7.739509	-0.005315	-0.012165	-0.082046	-0.003946	0.016056	0.006179	-0.797119	-0.010742	-0.539795	0.058901	0.003156	0.077390	-0.054603	-0.319632	0.002038	-0.945965	2.234810	-37.224844	172.640124
51839		5.864748	0.270590	7.718724	0.003692	0.030193	-0.114942	-0.000740	0.014406	0.005036	-0.807861	-0.011230	-0.535645	0.058653	0.002708	0.077183	-0.054636	-0.319508	0.002068	-0.946005	2.230780	-37.210022	172.638150
51840		5.913915	0.239051	7.728655	-0.026418	0.065779	-0.078284	0.001223	0.011343	0.005010	-0.803955	-0.014160	-0.539795	0.059143	0.002392	0.077283	-0.054609	-0.319489	0.002078	-0.946013	2.227922	-37.207836	172.642474
51841		5.872549	0.259007	7.759761	0.022228	0.040370	-0.077921	0.000590	0.009959	0.004458	-0.805908	-0.010986	-0.536621	0.058729	0.002591	0.077595	-0.054608	-0.319457	0.002088	-0.946024	2.226118	-37.204036	172.643348
51842		5.871337	0.248378	7.727391	0.004591	0.051818	-0.104744	0.000547	0.007247	0.000013	-0.803955	-0.010010	-0.537842	0.058716	0.002484	0.077272	-0.054606	-0.319456	0.002095	-0.946024	2.225116	-37.204078	172.643964
51843		5.893840	0.282190	7.716613	-0.023735	0.020179	-0.098671	0.002456	0.006436	-0.001393	-0.799316	-0.012939	-0.536377	0.058941	0.002821	0.077164	-0.054553	-0.319437	0.002113	-0.946034	2.220054	-37.201943	172.652150
51844		5.870480	0.248802	7.728029	0.005416	0.050602	-0.104738	0.003175	0.001959	-0.000301	-0.809326	-0.007080	-0.536621	0.058706	0.002487	0.077280	-0.054548	-0.319462	0.002108	-0.946025	2.220770	-37.204999	172.652412
51845		5.893273	0.282759	7.717025	-0.022796	0.018762	-0.098665	0.003121	0.004211	-0.001682	-0.813232	-0.012695	-0.544189	0.058934	0.002826	0.077169	-0.054481	-0.319459	0.002128	-0.946030	2.214903	-37.204928	172.662446
51846		5.892887	0.283180	7.717304	-0.022115	0.018508	-0.098663	0.004365	0.005625	-0.002799	-0.801270	-0.013184	-0.536865	0.058931	0.002829	0.077171	-0.054486	-0.319467	0.002113	-0.946027	2.217308	-37.205824	172.661038
51847		5.869517	0.250010	7.728721	0.005882	0.049386	-0.104732	0.003100	0.002855	-0.003904	-0.810059	-0.016357	-0.534180	0.058696	0.002498	0.077286	-0.054528	-0.319431	0.002092	-0.946037	2.221761	-37.201184	172.654568
51848		5.876020	0.273090	7.703446	-0.016451	0.028564	-0.120207	0.007551	0.002618	-0.006164	-0.812500	-0.013672	-0.541748	0.058761	0.002726	0.077034	-0.054544	-0.319455	0.002056	-0.946028	2.227509	-37.203710	172.650654
51849		5.892017	0.284974	7.717902	-0.020000	0.019158	-0.098660	0.001823	0.005051	-0.001945	-0.800537	-0.017334	-0.532715	0.058922	0.002848	0.077178	-0.054611	-0.319522	0.002020	-0.946002	2.236269	-37.211393	172.639254
51850		5.859602	0.273272	7.722537	0.009917	0.027413	-0.114938	0.005737	0.003890	0.001068	-0.802979	-0.015381	-0.538574	0.058598	0.002731	0.077224	-0.054595	-0.319539	0.002005	-0.945997	2.237830	-37.213365	172.640550
51851		5.867787	0.241898	7.696678	-0.009045	0.062869	-0.131558	0.009407	0.004060	-0.008950	-0.806885	-0.014893	-0.536865	0.058680	0.002413	0.076966	-0.054824	-0.319523	0.001927	-0.945989	2.258833	-37.210325	172.605863
51852		5.874802	0.276033	7.704270	-0.013060	0.030354	-0.120207	0.009461	0.001808	-0.007569	-0.812256	-0.016846	-0.533203	0.058749	0.002754	0.077042	-0.054843	-0.319551	0.001880	-0.945979	2.266346	-37.213281	172.600855
51853		5.897631	0.310895	7.693190	-0.038963	0.000517	-0.114112	0.008774	0.002676	-0.009502	-0.808838	-0.015625	-0.530029	0.058977	0.003103	0.076931	-0.054974	-0.319664	0.001805	-0.945933	2.283952	-37.226019	172.578550
51854		5.881615	0.311303	7.711959	-0.014494	-0.001339	-0.108853	0.009481	0.003165	-0.005346	-0.816162	-0.019775	-0.540039	0.058817	0.003108	0.077119	-0.054983	-0.319686	0.001761	-0.945925	2.290510	-37.228268	172.575146
51855		5.904221	0.345962	7.701045	-0.039585	-0.030659	-0.102739	0.006831	0.007097	-0.007254	-0.808105	-0.020996	-0.538818	0.059045	0.003455	0.077008	-0.055147	-0.319816	0.001681	-0.945872	2.310487	-37.242943	172.547869
51856		5.912223	0.314707	7.675345	-0.057986	0.002982	-0.119341	0.010133	0.005908	-0.002570	-0.790527	-0.016602	-0.546387	0.059125	0.003142	0.076752	-0.055143	-0.319825	0.001638	-0.945869	2.316195	-37.243715	172.546495
51857		5.856949	0.280273	7.724298	0.014545	0.033167	-0.114962	0.002978	0.012328	-0.003603	-0.803467	-0.013428	-0.541748	0.058574	0.002801	0.077239	-0.055424	-0.319586	0.001565	-0.945934	2.336317	-37.213592	172.506916
51858		5.871981	0.281575	7.706220	-0.008563	0.034559	-0.120216	0.008223	0.006719	-0.001164	-0.811523	-0.014404	-0.536133	0.058722	0.002812	0.077060	-0.055416	-0.319590	0.001533	-0.945933	2.340341	-37.213872	172.506531
51859		5.903456	0.294296	7.702270	-0.037622	0.026097	-0.103915	0.006239	0.008426	-0.003362	-0.805908	-0.016602	-0.528076	0.059038	0.002940	0.077020	-0.055432	-0.319561	0.001499	-0.945942	2.345372	-37.210004	172.502980
51860		5.893671	0.316495	7.695996	-0.036212	0.003689	-0.114102	0.004961	0.010622	-0.001404	-0.812744	-0.012451	-0.536133	0.058941	0.003163	0.076957	-0.055430	-0.319546	0.001481	-0.945947	2.347565	-37.208036	172.502537
51861		5.901975	0.295440	7.703361	-0.033387	0.025579	-0.103898	0.006239	0.008426	-0.003361	-0.805420	-0.020264	-0.532227	0.059023	0.002951	0.077031	-0.055467	-0.319682	0.001459	-0.945899	2.353789	-37.224190	172.495258
51862		5.867332	0.338495	7.708901	-0.007462	-0.020632	-0.119038	0.003663	0.011462	-0.001668	-0.811523	-0.011475	-0.533691	0.058678	0.003383	0.077086	-0.055469	-0.319663	0.001447	-0.945905	2.355343	-37.221770	172.494638
51863		5.884660	0.295483	7.723119	-0.005940	0.024037	-0.098652	0.003790	0.008314	0.003316	-0.814209	-0.014893	-0.537598	0.058850	0.002954	0.077229	-0.055532	-0.319768	0.001435	-0.945866	2.361180	-37.234235	172.484451
51864		5.884070	0.295790	7.723556	-0.005252	0.023803	-0.098651	0.004995	0.007013	-0.002243	-0.802734	-0.014648	-0.534180	0.058843	0.002955	0.077234	-0.055535	-0.319771	0.001416	-0.945865	2.363841	-37.234375	172.483263
51865		5.876187	0.263175	7.716612	0.001142	0.056085	-0.110018	0.000489	0.009501	-0.001369	-0.806641	-0.014404	-0.535400	0.058766	0.002631	0.077163	-0.055576	-0.319807	0.001415	-0.945850	2.366341	-37.238691	172.477271
51866		5.885314	0.252367	7.756607	0.019480	0.066302	-0.073037	0.004471	0.001122	-0.000034	-0.805664	-0.015381	-0.540527	0.058854	0.002522	0.077566	-0.055568	-0.319838	0.001404	-0.945840	2.367853	-37.242266	172.477487
51867		5.868515	0.230980	7.709498	0.006724	0.088399	-0.121387	0.003747	-0.000727	-0.006411	-0.804443	-0.014160	-0.536377	0.058685	0.002306	0.077095	-0.055637	-0.319849	0.001375	-0.945832	2.375106	-37.243288	172.466677
51868		5.867234	0.296935	7.742895	0.021769	0.022012	-0.093425	0.008904	-0.000471	-0.004510	-0.810303	-0.010254	-0.535156	0.058672	0.002965	0.077429	-0.055644	-0.319888	0.001336	-0.945819	2.381141	-37.247660	172.463617
51869		5.882653	0.288005	7.691292	-0.019195	0.034359	-0.125428	0.007641	-0.003243	-0.005615	-0.804199	-0.006104	-0.535400	0.058825	0.002875	0.076914	-0.055592	-0.319967	0.001321	-0.945795	2.381707	-37.257184	172.469275
51870		5.908184	0.278501	7.712187	-0.024641	0.046208	-0.093670	0.005731	-0.002432	-0.004211	-0.805664	-0.018311	-0.531250	0.059081	0.002782	0.077123	-0.055603	-0.320015	0.001299	-0.945779	2.385820	-37.262693	172.466386
51871		5.876808	0.277770	7.749237	0.024340	0.041885	-0.083230	0.004413	-0.002951	-0.006698	-0.809570	-0.010010	-0.533203	0.058767	0.002774	0.077493	-0.055573	-0.320101	0.001303	-0.945751	2.384950	-37.273205	172.469837
51872		5.867324	0.289719	7.709464	0.007367	0.031206	-0.120204	0.010147	0.000944	-0.005626	-0.814941	-0.010254	-0.528809	0.058674	0.002892	0.077095	-0.055583	-0.320134	0.001256	-0.945740	2.392139	-37.276756	172.466046
51873		5.883363	0.291619	7.690613	-0.012355	0.030474	-0.125404	0.008269	-0.008182	-0.010344	-0.812744	-0.018799	-0.533936	0.058831	0.002910	0.076909	-0.055453	-0.320381	0.001264	-0.945663	2.388057	-37.306997	172.481907
51874		5.891000	0.325714	7.697656	-0.016352	-0.002031	-0.114048	0.008252	-0.003214	-0.007283	-0.812012	-0.016113	-0.534668	0.058909	0.003252	0.076978	-0.055473	-0.320433	0.001225	-0.945645	2.394937	-37.312933	172.476827
51875		5.868141	0.292936	7.708720	0.015084	0.029276	-0.120207	0.006361	-0.001045	-0.003658	-0.801758	-0.012939	-0.535400	0.058681	0.002926	0.077088	-0.055581	-0.320582	0.001178	-0.945588	2.408051	-37.330170	172.458572
51876		5.899683	0.295193	7.671480	-0.031812	0.032310	-0.130594	0.006919	0.001235	-0.006708	-0.811523	-0.014648	-0.526367	0.058997	0.002947	0.076715	-0.055601	-0.320613	0.001145	-0.945576	2.413857	-37.333597	172.454006
51877		5.890350	0.317829	7.664808	-0.028690	0.009416	-0.140790	0.009424	0.005422	-0.006720	-0.810547	-0.019043	-0.538330	0.058906	0.003173	0.076647	-0.055609	-0.320710	0.001117	-0.945543	2.419092	-37.345126	172.450824
51878		5.938184	0.342175	7.675018	-0.062571	-0.009384	-0.102847	0.006216	0.007071	-0.005582	-0.812012	-0.013428	-0.534424	0.059385	0.003418	0.076748	-0.055625	-0.320714	0.001088	-0.945541	2.423893	-37.345261	172.447248
51879		5.873018	0.308262	7.651307	-0.021041	0.019527	-0.162348	0.006216	0.007071	-0.005581	-0.802002	-0.019775	-0.533447	0.058733	0.003079	0.076511	-0.055686	-0.320757	0.001045	-0.945523	2.433129	-37.350023	172.436510
51880		5.898156	0.309401	7.705738	-0.008006	0.019622	-0.103830	0.008795	0.010364	-0.001990	-0.806885	-0.007324	-0.536865	0.058986	0.003090	0.077054	-0.055681	-0.320746	0.001008	-0.945527	2.437787	-37.348369	172.435608
51881		5.874241	0.276310	7.717635	0.020565	0.049669	-0.110005	0.005605	0.013371	0.001368	-0.809570	-0.023193	-0.538818	0.058748	0.002761	0.077172	-0.055637	-0.320690	0.001001	-0.945548	2.435945	-37.341649	172.441838
51882		5.905517	0.289036	7.713842	-0.007917	0.040968	-0.093619	0.009443	0.006781	-0.004496	-0.805664	-0.012695	-0.530762	0.059058	0.002885	0.077137	-0.055643	-0.320695	0.000958	-0.945546	2.442129	-37.341977	172.439033
51883		5.912212	0.322856	7.721586	-0.011310	0.009601	-0.082263	0.006902	0.006205	-0.003645	-0.811035	-0.018066	-0.537109	0.059125	0.003225	0.077214	-0.055769	-0.320728	0.000906	-0.945528	2.455433	-37.345212	172.419063
51884		5.904522	0.290509	7.714548	-0.005904	0.041630	-0.093620	0.005677	0.006150	-0.000309	-0.808105	-0.013916	-0.535400	0.059048	0.002903	0.077144	-0.055761	-0.320736	0.000888	-0.945525	2.457660	-37.346007	172.419226
51885		5.894896	0.312684	7.708099	-0.004087	0.019536	-0.103827	0.006234	0.008430	-0.003359	-0.812256	-0.018555	-0.533691	0.058952	0.003123	0.077079	-0.055799	-0.320753	0.000854	-0.945518	2.464192	-37.347646	172.412415
51886		5.894210	0.313175	7.708604	-0.003378	0.019301	-0.103827	0.003711	0.009213	-0.000288	-0.806885	-0.011475	-0.537598	0.058946	0.003130	0.077083	-0.055794	-0.320745	0.000844	-0.945520	2.465233	-37.346692	172.412679
51887		5.893532	0.313520	7.709108	-0.002070	0.018941	-0.103825	0.005009	0.008375	-0.000022	-0.810303	-0.006836	-0.534912	0.058939	0.003133	0.077089	-0.055780	-0.320772	0.000832	-0.945512	2.466590	-37.349835	172.413705
51888		5.901838	0.292320	7.716534	-0.002043	0.040872	-0.093615	0.002340	0.010944	-0.004156	-0.809570	-0.020996	-0.537598	0.059023	0.002921	0.077162	-0.055796	-0.320756	0.000822	-0.945517	2.468501	-37.347801	172.411237
51889		5.916989	0.293495	7.698415	-0.024727	0.041752	-0.098772	0.004360	0.005630	-0.002794	-0.809326	-0.013672	-0.533203	0.059172	0.002932	0.076983	-0.055753	-0.320787	0.000817	-0.945509	2.467592	-37.351681	172.416641
51890		5.900753	0.293139	7.717333	-0.000210	0.039871	-0.093611	0.003135	0.005575	0.000542	-0.800781	-0.011475	-0.539795	0.059010	0.002930	0.077172	-0.055745	-0.320797	0.000812	-0.945506	2.468001	-37.352842	172.417400
51891		5.875081	0.303932	7.696466	0.005546	0.026793	-0.125387	0.006253	0.003460	-0.006415	-0.812500	-0.014160	-0.542480	0.058752	0.003035	0.076964	-0.055681	-0.320771	0.000799	-0.945518	2.466531	-37.349767	172.425799
51892		5.861485	0.260085	7.747456	0.052497	0.067599	-0.094642	0.006363	-0.001044	-0.003652	-0.809326	-0.020264	-0.542236	0.058614	0.002597	0.077475	-0.055687	-0.320813	0.000774	-0.945504	2.470732	-37.354602	172.423355
51893		5.909552	0.273661	7.724326	-0.001284	0.061489	-0.083395	0.007013	-0.004628	-0.006158	-0.813477	-0.018799	-0.537354	0.059094	0.002732	0.077245	-0.055755	-0.320796	0.000713	-0.945506	2.481976	-37.351832	172.411492
51894		5.884657	0.284923	7.702846	0.005476	0.049192	-0.115174	0.008293	-0.006824	-0.008111	-0.808350	-0.010986	-0.539795	0.058844	0.002844	0.077031	-0.055780	-0.320865	0.000673	-0.945481	2.489353	-37.359843	172.405643
51895		5.900939	0.286798	7.683836	-0.017901	0.050439	-0.120329	0.010221	-0.006275	-0.007291	-0.811035	-0.011475	-0.531982	0.059007	0.002862	0.076840	-0.055764	-0.320920	0.000624	-0.945463	2.496024	-37.366094	172.404936
51896		5.885595	0.287451	7.702036	0.006609	0.048560	-0.115172	0.011446	-0.006219	-0.010626	-0.804688	-0.019531	-0.527100	0.058854	0.002867	0.077022	-0.055796	-0.320988	0.000565	-0.945438	2.506296	-37.373691	172.397295
51897		5.893037	0.321588	7.709154	0.004818	0.015718	-0.103821	0.006975	-0.001015	-0.005318	-0.803223	-0.014404	-0.530273	0.058930	0.003212	0.077092	-0.055827	-0.321137	0.000552	-0.945386	2.511266	-37.391532	172.391085
51898		5.915761	0.345787	7.664867	-0.041414	-0.003392	-0.124330	0.012076	-0.004832	-0.010073	-0.805176	-0.008789	-0.531982	0.059156	0.003450	0.076650	-0.055855	-0.321198	0.000491	-0.945363	2.521636	-37.398374	172.383878
51899		5.899726	0.335866	7.650398	-0.034979	0.004956	-0.145893	0.010110	-0.001770	-0.010054	-0.809082	-0.016113	-0.529785	0.058997	0.003352	0.076505	-0.055758	-0.321267	0.000477	-0.945345	2.519950	-37.406841	172.395761
51900		5.900122	0.347682	7.683229	-0.015816	-0.007037	-0.119182	0.007548	0.002624	-0.006148	-0.812500	-0.016113	-0.531982	0.059002	0.003472	0.076832	-0.055775	-0.321292	0.000441	-0.945336	2.525844	-37.409519	172.391647
51901		5.906516	0.370939	7.657948	-0.036064	-0.028045	-0.134536	0.008808	0.005399	-0.005044	-0.811523	-0.016113	-0.537354	0.059067	0.003705	0.076578	-0.055794	-0.321412	0.000412	-0.945294	2.532221	-37.423635	172.386487
51902		5.930705	0.350924	7.646727	-0.059839	-0.004482	-0.129442	0.006803	0.012072	-0.004190	-0.804443	-0.022217	-0.534912	0.059312	0.003505	0.076464	-0.055802	-0.321392	0.000380	-0.945301	2.536651	-37.420980	172.384080
51903		5.872679	0.360285	7.663619	-0.005849	-0.018883	-0.150968	0.004241	0.016467	-0.000285	-0.809814	-0.022949	-0.537598	0.058733	0.003601	0.076631	-0.055911	-0.321330	0.000342	-0.945315	2.546123	-37.412861	172.368100
51904		5.905791	0.328872	7.692613	-0.011825	0.015090	-0.108953	0.006169	0.017018	0.000535	-0.815186	-0.013916	-0.528564	0.059064	0.003287	0.076921	-0.055898	-0.321286	0.000320	-0.945331	2.548040	-37.407488	172.369234
51905		5.863493	0.338924	7.690945	0.020594	0.001646	-0.135621	0.006820	0.013433	-0.001968	-0.805176	-0.006592	-0.534180	0.058640	0.003386	0.076906	-0.055974	-0.321351	0.000285	-0.945304	2.557014	-37.414775	172.356680
51906		5.912852	0.318843	7.734182	0.009303	0.025510	-0.072034	0.001661	0.019502	0.001401	-0.811768	-0.013184	-0.527588	0.059136	0.003188	0.077336	-0.055964	-0.321295	0.000285	-0.945324	2.555931	-37.408023	172.358500
51907		5.886367	0.329145	7.713929	0.017388	0.010791	-0.103828	0.001109	0.010891	-0.000824	-0.809326	-0.012695	-0.531250	0.058868	0.003291	0.077136	-0.055753	-0.321353	0.000342	-0.945317	2.539043	-37.416088	172.389539
51908		5.878322	0.296339	7.707251	0.022771	0.042825	-0.115169	0.004351	0.011965	0.002484	-0.810547	-0.015381	-0.537842	0.058788	0.002962	0.077069	-0.055733	-0.321333	0.000333	-0.945325	2.539142	-37.413697	172.391942
51909		5.893679	0.307879	7.722163	0.018752	0.031653	-0.093599	0.001109	0.010891	-0.000823	-0.810059	-0.017578	-0.530029	0.058941	0.003078	0.077218	-0.055659	-0.321349	0.000351	-0.945324	2.533444	-37.415959	172.402783
51910		5.877111	0.307513	7.741303	0.043290	0.029767	-0.088490	0.005616	0.008408	-0.001686	-0.816406	-0.016602	-0.532227	0.058774	0.003072	0.077411	-0.055657	-0.321347	0.000331	-0.945324	2.536153	-37.415507	172.402082
51911		5.869482	0.275097	7.734294	0.051392	0.061736	-0.099842	0.005026	0.003408	-0.003076	-0.806885	-0.014893	-0.535156	0.058696	0.002748	0.077342	-0.055691	-0.321501	0.000317	-0.945270	2.541447	-37.433865	172.395416
51912		5.876495	0.308639	7.741726	0.047463	0.029214	-0.088508	0.006380	0.000319	-0.001425	-0.813721	-0.017090	-0.526123	0.058765	0.003083	0.077417	-0.055687	-0.321537	0.000295	-0.945258	2.544641	-37.438081	172.394634
51913		5.892281	0.309676	7.723157	0.026406	0.030260	-0.093612	0.001927	0.000551	0.000820	-0.806885	-0.009033	-0.537109	0.058923	0.003096	0.077231	-0.055679	-0.321671	0.000312	-0.945213	2.543692	-37.454409	172.395195
51914		5.898913	0.321657	7.664594	-0.014540	0.021277	-0.135602	0.005829	-0.008294	-0.003651	-0.811279	-0.012207	-0.538086	0.058986	0.003213	0.076648	-0.055686	-0.321748	0.000291	-0.945186	2.547714	-37.463522	172.392529
51915		5.893110	0.310521	7.722491	0.026833	0.028016	-0.093607	0.005248	-0.005599	0.002455	-0.806396	-0.019531	-0.532715	0.058929	0.003104	0.077227	-0.055470	-0.321767	0.000316	-0.945192	2.534644	-37.466632	172.423012
51916		5.925615	0.322957	7.717791	-0.001565	0.019275	-0.077127	0.004547	-0.006096	-0.001699	-0.807861	-0.014404	-0.529053	0.059254	0.003227	0.077180	-0.055470	-0.321834	0.000304	-0.945170	2.537004	-37.474527	172.421868
51917		5.909427	0.301333	7.670345	-0.013056	0.041118	-0.125352	0.004547	-0.006096	-0.001699	-0.808594	-0.008789	-0.533936	0.059092	0.003011	0.076705	-0.055515	-0.321948	0.000295	-0.945128	2.541727	-37.488096	172.414150
51918		5.909886	0.301855	7.669971	-0.012328	0.040872	-0.125350	0.005160	-0.006069	-0.003366	-0.810547	-0.024902	-0.531006	0.059097	0.003016	0.076702	-0.055522	-0.322014	0.000278	-0.945105	2.545176	-37.495944	172.411795
51919		5.885818	0.334115	7.714135	0.032280	0.005169	-0.103862	0.006402	-0.004654	-0.004481	-0.811279	-0.011475	-0.540283	0.058856	0.003337	0.077143	-0.055558	-0.322116	0.000253	-0.945068	2.551482	-37.507991	172.404768
51920		5.917692	0.336129	7.676745	-0.014636	0.008208	-0.114018	0.006435	-0.001932	-0.000043	-0.806152	-0.018555	-0.533936	0.059176	0.003359	0.076768	-0.055547	-0.322164	0.000234	-0.945053	2.554125	-37.513566	172.404936
