// General information: 
//  MT Manager version: 2019.2.0 
//  XDA version: 2019.2.0 build 3853 rev 94535 built on 2019-09-09
// Device information: 
//  DeviceId: 00B47787
//  ProductCode: MTW2-3A7G6
//  Firmware Version: 4.6.0
//  Hardware Version: 2.0.0
// Device settings: 
//  Filter Profile: human(46.1)
//  Option Flags: Orientation Smoother Disabled, AHS Disabled, ICC Disabled
// Coordinate system: ENU
PacketCounter	SampleTimeFine	Acc_X	Acc_Y	Acc_Z	FreeAcc_E	FreeAcc_N	FreeAcc_U	Gyr_X	Gyr_Y	Gyr_Z	Mag_X	Mag_Y	Mag_Z	VelInc_X	VelInc_Y	VelInc_Z	Quat_q0	Quat_q1	Quat_q2	Quat_q3	Roll	Pitch	Yaw
51656		5.154443	0.695420	8.486528	-0.166618	-0.125701	0.138669	0.002792	0.014013	-0.013273	-0.646729	0.284668	-0.587158	0.051551	0.006950	0.084862	0.472219	-0.206596	-0.162276	-0.841424	5.168551	-30.061456	-122.785262
51657		5.120489	0.704866	8.536847	-0.133741	-0.082682	0.165753	0.004330	0.018073	-0.018479	-0.646484	0.279785	-0.578857	0.051213	0.007042	0.085364	0.472167	-0.206539	-0.162267	-0.841469	5.173192	-30.054682	-122.794167
51658		5.130469	0.691951	8.499888	-0.155711	-0.100291	0.137906	0.008813	0.022897	-0.016637	-0.642578	0.284668	-0.582520	0.051315	0.006911	0.084993	0.472119	-0.206591	-0.162250	-0.841486	5.169943	-30.058820	-122.799433
51659		5.087153	0.681234	8.524090	-0.141437	-0.052993	0.136207	0.004749	0.022312	-0.015200	-0.647949	0.281494	-0.589355	0.050882	0.006806	0.085235	0.472085	-0.206518	-0.162230	-0.841527	5.173591	-30.049831	-122.805915
51660		5.098624	0.735508	8.524788	-0.099131	-0.088662	0.146794	0.007718	0.015863	-0.015179	-0.640869	0.279053	-0.583008	0.050994	0.007348	0.085244	0.472096	-0.206551	-0.162207	-0.841517	5.168574	-30.052081	-122.802969
51661		5.059711	0.701187	8.542910	-0.107911	-0.034950	0.140241	0.003446	0.013157	-0.015381	-0.648682	0.284180	-0.578125	0.050603	0.007007	0.085426	0.472052	-0.206520	-0.162203	-0.841550	5.171783	-30.048324	-122.810093
51662		5.099959	0.714478	8.520358	-0.117716	-0.080136	0.142024	0.006623	0.008830	-0.013724	-0.645264	0.280518	-0.579346	0.051004	0.007138	0.085202	0.471996	-0.206655	-0.162206	-0.841548	5.165866	-30.062221	-122.814890
51663		5.095154	0.739102	8.526552	-0.093788	-0.086163	0.146867	0.005346	0.014174	-0.012095	-0.640137	0.281494	-0.582520	0.050958	0.007386	0.085262	0.471969	-0.206618	-0.162204	-0.841573	5.169024	-30.058093	-122.819781
51664		5.164001	0.722282	8.540006	-0.135951	-0.121159	0.191669	-0.008094	0.010548	-0.013200	-0.648438	0.289063	-0.590088	0.051645	0.007223	0.085397	0.471933	-0.206741	-0.162137	-0.841576	5.155372	-30.066971	-122.820440
51665		5.146316	0.748813	8.525772	-0.107607	-0.129333	0.172590	-0.009524	0.021053	-0.018420	-0.637695	0.282959	-0.587891	0.051473	0.007487	0.085252	0.471869	-0.206705	-0.162063	-0.841634	5.151872	-30.058619	-122.829080
51666		5.122357	0.675329	8.500824	-0.162798	-0.089851	0.133369	-0.010622	0.024874	-0.012546	-0.646484	0.288818	-0.588867	0.051235	0.006755	0.085002	0.471989	-0.206688	-0.161894	-0.841604	5.129579	-30.047818	-122.808380
51667		5.132725	0.672062	8.522882	-0.166311	-0.087319	0.157306	-0.010309	0.022627	-0.012299	-0.635498	0.275635	-0.583740	0.051337	0.006722	0.085223	0.471952	-0.206652	-0.161806	-0.841650	5.123520	-30.038877	-122.812838
51668		5.077064	0.663121	8.526254	-0.146450	-0.042657	0.131660	-0.002072	0.019432	-0.016548	-0.635498	0.285645	-0.584717	0.050779	0.006628	0.085258	0.471993	-0.206632	-0.161736	-0.841645	5.115356	-30.032988	-122.805794
51669		5.169839	0.629262	8.522879	-0.220550	-0.095568	0.172547	0.001966	0.016377	-0.015371	-0.648193	0.276123	-0.581055	0.051706	0.006288	0.085225	0.471951	-0.206592	-0.161717	-0.841682	5.117509	-30.027454	-122.812618
51670		5.103119	0.691473	8.543000	-0.130978	-0.068820	0.161324	0.001994	0.020017	-0.017972	-0.640625	0.284424	-0.577393	0.051040	0.006909	0.085425	0.471911	-0.206624	-0.161687	-0.841703	5.113671	-30.028885	-122.817036
51671		5.101325	0.692908	8.543955	-0.130089	-0.068438	0.161339	0.007887	0.018776	-0.021749	-0.643066	0.282471	-0.582764	0.051022	0.006920	0.085435	0.471850	-0.206555	-0.161694	-0.841753	5.121234	-30.021676	-122.827912
51672		5.128889	0.721049	8.559816	-0.113906	-0.094917	0.191006	0.005201	0.019332	-0.018916	-0.638184	0.284668	-0.588379	0.051298	0.007203	0.085593	0.471821	-0.206650	-0.161645	-0.841755	5.110989	-30.028624	-122.828622
51673		5.159441	0.714004	8.511550	-0.145088	-0.137218	0.164098	0.001573	0.026624	-0.016813	-0.640869	0.281738	-0.588867	0.051606	0.007135	0.085109	0.471781	-0.206567	-0.161603	-0.841806	5.113035	-30.017227	-122.835760
51674		5.176995	0.665508	8.522426	-0.193774	-0.123256	0.178468	0.006118	0.027878	-0.024590	-0.638184	0.281982	-0.593750	0.051783	0.006646	0.085217	0.471860	-0.206443	-0.161539	-0.841804	5.110555	-30.001124	-122.826004
51675		5.146045	0.707996	8.546700	-0.140044	-0.112188	0.187158	0.007045	0.031992	-0.019428	-0.641602	0.279541	-0.593994	0.051475	0.007072	0.085459	0.471819	-0.206322	-0.161509	-0.841863	5.116412	-29.986512	-122.834501
51676		5.126008	0.680044	8.554312	-0.156467	-0.083512	0.181472	0.005586	0.038849	-0.022030	-0.648682	0.278564	-0.587158	0.051277	0.006792	0.085533	0.471913	-0.206072	-0.161451	-0.841883	5.122008	-29.957573	-122.826117
51677		5.093831	0.711086	8.520320	-0.123774	-0.093820	0.138418	0.006964	0.039991	-0.020618	-0.650146	0.277100	-0.582275	0.050956	0.007103	0.085193	0.471873	-0.205917	-0.161403	-0.841952	5.127971	-29.938295	-122.834887
51678		5.057400	0.720817	8.571760	-0.089183	-0.046993	0.165378	0.002928	0.043036	-0.021787	-0.645020	0.280518	-0.587158	0.050593	0.007201	0.085707	0.471632	-0.205947	-0.161408	-0.842079	5.136074	-29.940326	-122.869570
51679		4.991884	0.748161	8.528546	-0.045474	-0.036022	0.097478	-0.000105	0.042196	-0.016596	-0.635010	0.277100	-0.588867	0.049937	0.007478	0.085275	0.471603	-0.205803	-0.161321	-0.842147	5.136611	-29.920056	-122.875606
51680		4.959396	0.734059	8.574217	-0.035170	0.013646	0.119595	0.005251	0.037443	-0.019640	-0.642090	0.280273	-0.590332	0.049611	0.007333	0.085733	0.471603	-0.205677	-0.161280	-0.842186	5.139848	-29.904531	-122.877992
51681		4.955708	0.679251	8.596895	-0.078096	0.052429	0.133074	0.000954	0.031093	-0.017256	-0.640137	0.278564	-0.584229	0.049571	0.006788	0.085961	0.471564	-0.205576	-0.161224	-0.842243	5.141532	-29.890562	-122.885107
51682		5.011569	0.722302	8.569487	-0.073003	-0.023291	0.140592	0.006081	0.020585	-0.019344	-0.636963	0.281494	-0.584717	0.050125	0.007216	0.085690	0.471525	-0.205569	-0.161221	-0.842267	5.143105	-29.889388	-122.890920
51683		5.055085	0.712398	8.541895	-0.108541	-0.063453	0.137667	0.005047	0.016406	-0.012276	-0.640869	0.280273	-0.580566	0.050558	0.007119	0.085415	0.471500	-0.205524	-0.161212	-0.842294	5.145925	-29.884069	-122.895619
51684		5.028995	0.730750	8.559774	-0.075022	-0.045238	0.141550	0.002844	0.017626	-0.015801	-0.646484	0.278564	-0.583496	0.050298	0.007302	0.085593	0.471483	-0.205614	-0.161161	-0.842291	5.135314	-29.890473	-122.894703
51685		5.044950	0.817106	8.533764	-0.013900	-0.113097	0.133735	0.000120	0.014544	-0.010382	-0.641846	0.277588	-0.580078	0.050456	0.008168	0.085334	0.471458	-0.205591	-0.161134	-0.842315	5.134712	-29.886346	-122.898246
51686		5.091531	0.670987	8.542442	-0.157582	-0.066879	0.153151	-0.002428	0.014371	-0.011552	-0.644287	0.284912	-0.585938	0.050922	0.006708	0.085421	0.471272	-0.205785	-0.161135	-0.842372	5.130027	-29.905545	-122.920564
51687		5.073396	0.641859	8.548979	-0.173065	-0.036635	0.147487	0.000121	0.014543	-0.010379	-0.644775	0.279297	-0.588379	0.050741	0.006416	0.085486	0.471247	-0.205762	-0.161108	-0.842397	5.129421	-29.901481	-122.924136
51688		5.010787	0.680272	8.562809	-0.105689	-0.003236	0.131219	0.004966	0.009919	-0.015305	-0.645996	0.271973	-0.589844	0.050113	0.006797	0.085626	0.471198	-0.205882	-0.161095	-0.842397	5.122438	-29.913022	-122.927988
51689		5.079766	0.664466	8.576542	-0.149835	-0.039003	0.176239	0.005826	0.011188	-0.015777	-0.644775	0.280029	-0.594482	0.050803	0.006638	0.085763	0.471154	-0.205856	-0.161106	-0.842426	5.126946	-29.910628	-122.935302
51690		5.083454	0.698228	8.550264	-0.129446	-0.069112	0.157995	0.004739	0.004162	-0.014347	-0.646729	0.277100	-0.587646	0.050837	0.006977	0.085502	0.471036	-0.205856	-0.161209	-0.842473	5.142904	-29.915783	-122.954798
51691		5.095548	0.752291	8.550505	-0.089051	-0.104946	0.168432	0.000928	0.012961	-0.016480	-0.635742	0.288574	-0.581543	0.050962	0.007518	0.085502	0.470985	-0.205834	-0.161195	-0.842509	5.144823	-29.912343	-122.962502
51692		5.057421	0.773201	8.547330	-0.050476	-0.089435	0.148319	-0.002626	0.012246	-0.013186	-0.637939	0.286377	-0.590576	0.050580	0.007730	0.085470	0.471007	-0.205975	-0.161099	-0.842481	5.124511	-29.921838	-122.953646
51693		5.109173	0.715585	8.508406	-0.132176	-0.116804	0.136060	-0.004117	0.015461	-0.013191	-0.644287	0.278564	-0.588623	0.051099	0.007154	0.085080	0.470967	-0.205957	-0.161055	-0.842516	5.122338	-29.917172	-122.959002
51694		5.094906	0.674218	8.568152	-0.147763	-0.059651	0.177331	-0.003920	0.017581	-0.011550	-0.630371	0.284912	-0.582764	0.050957	0.006741	0.085677	0.471066	-0.205964	-0.160951	-0.842479	5.106525	-29.912525	-122.942061
51695		5.089487	0.698073	8.574642	-0.123743	-0.065630	0.182064	-0.002595	0.015879	-0.015773	-0.647705	0.278564	-0.588135	0.050902	0.006978	0.085742	0.471018	-0.205938	-0.160915	-0.842519	5.106026	-29.907489	-122.949049
51696		5.096359	0.707899	8.543213	-0.122678	-0.091204	0.159129	0.003013	0.016105	-0.011546	-0.643311	0.279297	-0.586182	0.050971	0.007075	0.085428	0.471089	-0.205987	-0.160844	-0.842481	5.092269	-29.908990	-122.935806
51697		5.098917	0.685423	8.538320	-0.144835	-0.084433	0.154437	0.003480	0.013133	-0.015296	-0.633789	0.280518	-0.588135	0.050995	0.006849	0.085380	0.471047	-0.205959	-0.160839	-0.842512	5.095138	-29.905560	-122.942604
51698		5.060947	0.718067	8.593755	-0.087551	-0.048039	0.185885	0.004309	0.010767	-0.013176	-0.642578	0.282715	-0.581543	0.050615	0.007175	0.085935	0.471100	-0.205964	-0.160819	-0.842485	5.090517	-29.905195	-122.934300
51699		5.080557	0.725277	8.582924	-0.093279	-0.071108	0.186858	0.002109	0.011983	-0.016700	-0.648926	0.274170	-0.587646	0.050811	0.007248	0.085826	0.471050	-0.205943	-0.160812	-0.842519	5.093078	-29.902348	-122.942062
51700		5.046416	0.723166	8.574003	-0.079160	-0.046144	0.162001	0.006344	0.011064	-0.013878	-0.644287	0.279541	-0.580566	0.050469	0.007225	0.085737	0.470844	-0.206121	-0.160870	-0.842580	5.096350	-29.923050	-122.968794
51701		5.058003	0.765820	8.515758	-0.059960	-0.103453	0.120777	0.002154	0.014832	-0.011067	-0.643311	0.281006	-0.594971	0.050587	0.007654	0.085154	0.470819	-0.206093	-0.160851	-0.842604	5.097007	-29.918924	-122.972717
51702		5.109826	0.719701	8.535680	-0.118608	-0.108258	0.160292	-0.004267	0.016182	-0.009190	-0.638428	0.288818	-0.594971	0.051105	0.007196	0.085353	0.470780	-0.206182	-0.160799	-0.842615	5.087281	-29.924983	-122.975083
51703		5.055078	0.766153	8.517464	-0.056298	-0.101558	0.120818	-0.009165	0.017950	-0.009897	-0.637451	0.277100	-0.588135	0.050559	0.007663	0.085170	0.470751	-0.206169	-0.160725	-0.842648	5.080964	-29.919162	-122.978051
51704		5.077477	0.692527	8.522551	-0.127894	-0.082641	0.130705	-0.009634	0.020921	-0.006144	-0.645508	0.284912	-0.585205	0.050784	0.006928	0.085220	0.471005	-0.206078	-0.160554	-0.842561	5.057758	-29.901480	-122.939633
51705		5.013465	0.673537	8.557805	-0.106964	-0.011842	0.127781	-0.009798	0.022433	-0.010370	-0.636963	0.281738	-0.594971	0.050145	0.006737	0.085572	0.470977	-0.206047	-0.160466	-0.842601	5.051067	-29.893044	-122.942580
51706		5.032978	0.746908	8.585177	-0.045525	-0.052753	0.166749	-0.006811	0.016004	-0.010357	-0.638672	0.280029	-0.593506	0.050337	0.007469	0.085847	0.471091	-0.206079	-0.160345	-0.842552	5.031297	-29.890187	-122.922504
51707		5.076437	0.679666	8.578677	-0.124774	-0.054557	0.177674	-0.009705	0.014435	-0.009180	-0.638916	0.279541	-0.586670	0.050771	0.006798	0.085783	0.471063	-0.206082	-0.160275	-0.842580	5.024465	-29.886377	-122.925087
51708		5.058873	0.705741	8.564215	-0.096510	-0.063485	0.158406	-0.007158	0.014611	-0.008004	-0.643066	0.281982	-0.587158	0.050595	0.007058	0.085638	0.471145	-0.206042	-0.160207	-0.842557	5.016244	-29.878785	-122.912657
51709		5.045333	0.708498	8.544077	-0.091330	-0.065292	0.134473	-0.007352	0.012490	-0.009644	-0.642334	0.278076	-0.591797	0.050459	0.007086	0.085437	0.471116	-0.206048	-0.160152	-0.842582	5.010965	-29.876045	-122.915633
51710		5.085204	0.664861	8.542992	-0.146610	-0.072504	0.150109	-0.004489	0.010425	-0.008230	-0.646484	0.284180	-0.590088	0.050857	0.006648	0.085427	0.471080	-0.206118	-0.160131	-0.842589	5.005597	-29.881918	-122.918571
51711		5.034904	0.699568	8.577479	-0.086145	-0.037865	0.157465	-0.000929	0.011143	-0.011515	-0.647949	0.280273	-0.587646	0.050354	0.006993	0.085772	0.471049	-0.206112	-0.160108	-0.842613	5.004650	-29.879869	-122.922859
51712		5.046016	0.629728	8.561022	-0.151722	-0.016134	0.143550	-0.002522	0.004241	-0.011977	-0.638672	0.282227	-0.589600	0.050462	0.006295	0.085609	0.470920	-0.206328	-0.160104	-0.842632	4.995666	-29.901466	-122.935896
51713		5.021428	0.703488	8.557203	-0.077223	-0.037002	0.133570	0.000689	0.003568	-0.012912	-0.637939	0.282471	-0.584717	0.050216	0.007031	0.085571	0.470878	-0.206350	-0.160107	-0.842650	4.996308	-29.903723	-122.941553
51714		5.020711	0.648501	8.578241	-0.117937	0.000835	0.147253	0.007941	-0.000141	-0.012669	-0.643311	0.281738	-0.584717	0.050207	0.006478	0.085783	0.470985	-0.206417	-0.160089	-0.842577	4.986053	-29.910282	-122.923838
51715		5.013097	0.685311	8.530505	-0.092101	-0.033006	0.105011	0.007525	-0.008015	-0.013363	-0.634521	0.278076	-0.584473	0.050128	0.006847	0.085307	0.470939	-0.206471	-0.160149	-0.842578	4.991056	-29.919129	-122.930409
51716		5.010201	0.766020	8.514671	-0.022399	-0.076589	0.096003	0.008036	-0.008136	-0.011484	-0.635010	0.276123	-0.587402	0.050099	0.007654	0.085149	0.470913	-0.206622	-0.160198	-0.842547	4.988080	-29.937536	-122.931387
51717		5.063658	0.664877	8.554351	-0.126476	-0.044173	0.149324	0.009213	-0.009108	-0.011716	-0.644287	0.281982	-0.584961	0.050633	0.006642	0.085546	0.470875	-0.206678	-0.160266	-0.842541	4.993526	-29.947111	-122.936927
51718		5.118491	0.731649	8.531042	-0.098374	-0.126264	0.161645	0.005491	-0.008316	-0.012657	-0.650635	0.279541	-0.589355	0.051182	0.007311	0.085313	0.470839	-0.206787	-0.160325	-0.842523	4.994742	-29.961719	-122.940637
51719		5.069229	0.699787	8.526867	-0.103051	-0.074797	0.131056	0.007052	-0.005046	-0.009609	-0.644287	0.277100	-0.584473	0.050690	0.006992	0.085270	0.470810	-0.206834	-0.160372	-0.842519	4.998139	-29.969089	-122.944553
51720		5.086130	0.741899	8.579626	-0.062947	-0.078933	0.188259	0.004535	-0.001592	-0.013369	-0.642822	0.290283	-0.587158	0.050861	0.007414	0.085797	0.470545	-0.207047	-0.160481	-0.842594	5.007258	-29.996097	-122.980146
51721		5.119215	0.734694	8.530346	-0.094212	-0.121340	0.161747	0.002345	-0.001161	-0.008678	-0.640625	0.280518	-0.589844	0.051192	0.007344	0.085304	0.470518	-0.207090	-0.160499	-0.842595	5.007561	-30.001351	-122.983280
51722		5.118617	0.679308	8.551410	-0.133376	-0.084261	0.175477	-0.001860	0.003384	-0.014083	-0.639160	0.283691	-0.594482	0.051188	0.006790	0.085513	0.470685	-0.207198	-0.160379	-0.842498	4.981086	-30.006877	-122.953544
51723		5.044485	0.720158	8.543603	-0.064538	-0.054047	0.134751	0.003523	-0.002132	-0.008910	-0.643311	0.287598	-0.585205	0.050444	0.007198	0.085437	0.470658	-0.207241	-0.160404	-0.842498	4.982103	-30.012680	-122.956808
51724		5.094093	0.753779	8.547406	-0.054883	-0.107128	0.165370	-0.001349	0.003263	-0.012204	-0.648926	0.284912	-0.585205	0.050943	0.007535	0.085473	0.470888	-0.207296	-0.160282	-0.842379	4.956174	-30.012829	-122.919120
51725		5.088978	0.654401	8.536492	-0.139774	-0.057943	0.145964	0.001708	0.003321	-0.009152	-0.649902	0.286133	-0.591064	0.050891	0.006541	0.085364	0.470864	-0.207321	-0.160286	-0.842386	4.956010	-30.015498	-122.922143
51726		5.097354	0.731552	8.542126	-0.071274	-0.098239	0.160847	0.001197	0.003441	-0.011029	-0.640381	0.282227	-0.587891	0.050975	0.007312	0.085420	0.470816	-0.207595	-0.160242	-0.842353	4.935922	-30.041409	-122.921021
51727		5.100754	0.708829	8.536813	-0.093401	-0.091507	0.156275	-0.000463	0.008164	-0.015258	-0.640869	0.278320	-0.587646	0.051012	0.007085	0.085366	0.470767	-0.207600	-0.160232	-0.842381	4.936342	-30.041074	-122.927778
51728		5.137047	0.689445	8.541109	-0.125981	-0.106462	0.176703	0.002757	0.006713	-0.007982	-0.637695	0.280029	-0.589600	0.051374	0.006891	0.085409	0.470834	-0.207598	-0.160225	-0.842346	4.933115	-30.040823	-122.918005
51729		5.148612	0.687404	8.562372	-0.129110	-0.103833	0.200679	0.000551	0.008703	-0.019712	-0.641113	0.281982	-0.581055	0.051491	0.006869	0.085622	0.470768	-0.207595	-0.160222	-0.842384	4.935566	-30.039953	-122.927646
51730		5.094038	0.678960	8.564605	-0.109141	-0.059116	0.174668	0.006663	0.008823	-0.013608	-0.641846	0.282227	-0.587402	0.050945	0.006783	0.085644	0.470831	-0.207624	-0.160204	-0.842345	4.929311	-30.042366	-122.917308
51731		5.097320	0.712955	8.538520	-0.087491	-0.090738	0.156335	0.006528	0.013963	-0.020414	-0.640381	0.276855	-0.594971	0.050980	0.007122	0.085382	0.470773	-0.207584	-0.160215	-0.842385	4.935244	-30.038463	-122.927080
51732		5.108293	0.711455	8.560087	-0.092019	-0.089279	0.180285	0.004336	0.014393	-0.015725	-0.632324	0.277588	-0.579346	0.051090	0.007109	0.085597	0.470851	-0.207441	-0.160225	-0.842375	4.942235	-30.024528	-122.919642
51733		5.086281	0.706452	8.572104	-0.084406	-0.065402	0.179254	0.005004	0.013542	-0.017831	-0.638428	0.282959	-0.589111	0.050869	0.007058	0.085718	0.470802	-0.207409	-0.160227	-0.842410	4.946465	-30.020958	-122.927711
51734		5.089370	0.740403	8.546124	-0.061471	-0.098600	0.160908	0.008059	0.013603	-0.014778	-0.645264	0.287842	-0.580566	0.050900	0.007397	0.085458	0.470950	-0.207357	-0.160182	-0.842348	4.938852	-30.013876	-122.906334
51735		5.075687	0.755967	8.584581	-0.034842	-0.078805	0.188397	0.002970	0.013239	-0.017127	-0.640137	0.286133	-0.589355	0.050763	0.007554	0.085843	0.470902	-0.207331	-0.160176	-0.842383	4.941661	-30.010500	-122.913900
51736		5.049937	0.762500	8.543406	-0.019277	-0.083501	0.140488	-0.000429	0.011010	-0.009625	-0.635742	0.273926	-0.587402	0.050504	0.007623	0.085431	0.471088	-0.207552	-0.160013	-0.842255	4.902548	-30.025435	-122.877432
51737		5.032011	0.733214	8.549847	-0.034817	-0.053332	0.134903	-0.002758	0.016579	-0.011743	-0.639404	0.279785	-0.587891	0.050328	0.007330	0.085494	0.471060	-0.207531	-0.159969	-0.842285	4.900113	-30.020464	-122.881182
51738		5.034551	0.709991	8.545116	-0.059064	-0.047105	0.130355	-0.007847	0.016215	-0.014093	-0.649658	0.278076	-0.587402	0.050353	0.007100	0.085447	0.471051	-0.207411	-0.159949	-0.842323	4.905802	-30.006752	-122.885182
51739		5.021095	0.724287	8.583520	-0.032418	-0.027299	0.157819	-0.003348	0.005807	-0.005871	-0.643066	0.282959	-0.582520	0.050214	0.007243	0.085834	0.471039	-0.207440	-0.159922	-0.842328	4.901425	-30.008188	-122.885667
51740		5.020362	0.656962	8.546162	-0.093787	-0.006845	0.120271	-0.004366	0.006045	-0.009622	-0.645264	0.278076	-0.585449	0.050207	0.006569	0.085460	0.470841	-0.207704	-0.159928	-0.842372	4.893294	-30.035083	-122.907728
51741		5.044810	0.707485	8.567181	-0.057153	-0.040290	0.154376	-0.000831	0.003136	-0.010317	-0.650391	0.279785	-0.590088	0.050450	0.007073	0.085671	0.470810	-0.207736	-0.159922	-0.842383	4.891893	-30.037891	-122.911327
51742		5.052838	0.661229	8.555980	-0.101620	-0.023800	0.145339	0.002168	-0.003284	-0.010306	-0.639404	0.285156	-0.590332	0.050527	0.006609	0.085561	0.470567	-0.207939	-0.160027	-0.842449	4.900315	-30.063696	-122.943854
51743		5.028633	0.679147	8.572513	-0.070849	-0.006219	0.148804	0.004311	-0.010975	-0.009827	-0.643555	0.284424	-0.579346	0.050282	0.006787	0.085728	0.470531	-0.208019	-0.160076	-0.842439	4.902121	-30.074629	-122.947983
51744		4.988544	0.723778	8.573441	-0.008305	0.002027	0.132826	0.010551	-0.014433	-0.013328	-0.641602	0.286133	-0.592041	0.049880	0.007230	0.085738	0.470661	-0.208245	-0.160054	-0.842315	4.880420	-30.097844	-122.922616
51745		4.973718	0.763049	8.615739	0.041562	0.015566	0.164743	0.010794	-0.026788	-0.013546	-0.632080	0.281738	-0.587402	0.049726	0.007622	0.086164	0.470604	-0.208374	-0.160171	-0.842293	4.887550	-30.117650	-122.930021
51746		4.996703	0.770391	8.602988	0.036674	-0.012212	0.165812	0.001128	-0.028416	-0.008164	-0.638428	0.279785	-0.589844	0.049955	0.007701	0.086037	0.470996	-0.208379	-0.160124	-0.842082	4.866583	-30.117838	-122.871489
51747		5.168919	0.797534	8.505103	-0.038030	-0.193451	0.169882	-0.002643	-0.034892	-0.003937	-0.645508	0.281494	-0.587158	0.051675	0.007975	0.085060	0.470960	-0.208581	-0.160193	-0.842039	4.863009	-30.142681	-122.872886
51748		5.154536	0.644307	8.492611	-0.163027	-0.109334	0.140718	-0.005644	-0.028473	-0.003946	-0.642578	0.279541	-0.585693	0.051533	0.006444	0.084933	0.471041	-0.208711	-0.160230	-0.841954	4.855805	-30.158956	-122.858308
51749		5.214254	0.686246	8.463136	-0.158528	-0.185686	0.148459	-0.007390	-0.012907	-0.003735	-0.640869	0.275146	-0.588623	0.052137	0.006865	0.084634	0.471019	-0.208831	-0.160228	-0.841937	4.848821	-30.171240	-122.858307
51750		5.169545	0.640860	8.511906	-0.167134	-0.105903	0.164702	-0.003643	-0.010063	-0.005376	-0.640137	0.280762	-0.587646	0.051691	0.006409	0.085122	0.470967	-0.208851	-0.160302	-0.841947	4.857826	-30.177261	-122.867054
51751		5.174123	0.629036	8.564638	-0.167651	-0.077563	0.211590	-0.000729	-0.004859	-0.009131	-0.640381	0.280273	-0.581299	0.051739	0.006288	0.085648	0.470935	-0.208917	-0.160314	-0.841946	4.856260	-30.184671	-122.870182
51752		5.166383	0.665265	8.516889	-0.141082	-0.111994	0.169248	0.007920	-0.003769	-0.010063	-0.644043	0.278564	-0.592529	0.051663	0.006647	0.085170	0.471015	-0.208961	-0.160340	-0.841886	4.853359	-30.191191	-122.857897
51753		5.128995	0.686596	8.513053	-0.106280	-0.096608	0.148711	0.008176	0.009244	-0.016175	-0.640381	0.284180	-0.585693	0.051294	0.006858	0.085128	0.470975	-0.208940	-0.160364	-0.841909	4.858822	-30.190203	-122.864855
51754		5.177799	0.721324	8.517185	-0.099707	-0.149034	0.179319	0.007988	0.007121	-0.017810	-0.645264	0.283203	-0.577881	0.051782	0.007205	0.085170	0.471121	-0.208830	-0.160376	-0.841852	4.861363	-30.180227	-122.846598
51755		5.123195	0.713068	8.519443	-0.081538	-0.103888	0.153208	0.004797	0.011417	-0.019458	-0.647949	0.278809	-0.592041	0.051238	0.007124	0.085192	0.471066	-0.208806	-0.160384	-0.841887	4.865912	-30.177808	-122.855556
51756		5.154999	0.717985	8.529574	-0.088907	-0.122671	0.178318	0.007530	0.013723	-0.016646	-0.649902	0.286377	-0.583252	0.051556	0.007172	0.085292	0.470952	-0.208924	-0.160413	-0.841916	4.866191	-30.191205	-122.869645
51757		5.116588	0.739369	8.526312	-0.054118	-0.107275	0.157753	0.006351	0.014692	-0.016412	-0.646729	0.279785	-0.578613	0.051173	0.007387	0.085260	0.470913	-0.208886	-0.160416	-0.841947	4.870517	-30.187104	-122.876420
51758		5.094484	0.734193	8.538413	-0.040646	-0.079769	0.156730	0.002468	0.016208	-0.013372	-0.646484	0.281006	-0.591064	0.050952	0.007337	0.085380	0.470746	-0.209216	-0.160372	-0.841966	4.851488	-30.218270	-122.891202
51759		5.117646	0.718034	8.522361	-0.069328	-0.096607	0.153373	0.001125	0.018682	-0.017357	-0.646484	0.276611	-0.583252	0.051185	0.007175	0.085219	0.470701	-0.209173	-0.160345	-0.842008	4.852976	-30.211937	-122.898389
51760		5.095305	0.712437	8.534634	-0.062097	-0.070933	0.152291	-0.001925	0.017841	-0.012206	-0.643311	0.278564	-0.584717	0.050961	0.007122	0.085342	0.470575	-0.209186	-0.160367	-0.842071	4.859469	-30.213808	-122.916930
51761		5.105732	0.710227	8.556599	-0.065064	-0.068281	0.176277	-0.000191	0.024012	-0.015722	-0.641113	0.282227	-0.585938	0.051068	0.007098	0.085560	0.470539	-0.209125	-0.160320	-0.842115	4.859530	-30.204525	-122.922764
51762		5.066590	0.730750	8.553791	-0.029360	-0.053117	0.155662	-0.004446	0.021282	-0.015956	-0.638184	0.282959	-0.593262	0.050676	0.007305	0.085532	0.470581	-0.209105	-0.160250	-0.842110	4.851475	-30.198626	-122.915792
51763		5.106182	0.743558	8.532183	-0.041423	-0.099701	0.157893	-0.006664	0.018083	-0.008695	-0.644531	0.277344	-0.580811	0.051070	0.007436	0.085317	0.470563	-0.209089	-0.160183	-0.842136	4.845647	-30.193070	-122.917294
51764		5.096189	0.722839	8.506787	-0.059721	-0.096395	0.129456	-0.007312	0.022562	-0.009167	-0.642578	0.289551	-0.581299	0.050972	0.007229	0.085062	0.470689	-0.208997	-0.160095	-0.842106	4.836703	-30.179088	-122.899413
51765		5.110742	0.752292	8.502299	-0.042047	-0.125742	0.135032	-0.011035	0.023342	-0.010108	-0.638184	0.275879	-0.583252	0.051118	0.007525	0.085017	0.470666	-0.208969	-0.159998	-0.842144	4.828687	-30.170443	-122.901522
51766		5.108267	0.695921	8.524751	-0.081064	-0.087589	0.149031	-0.010827	0.029092	-0.011045	-0.643066	0.283447	-0.585449	0.051095	0.006961	0.085240	0.470797	-0.209039	-0.159811	-0.842089	4.798443	-30.167914	-122.876461
51767		5.084896	0.689342	8.537675	-0.073474	-0.063700	0.147925	-0.009623	0.031750	-0.013849	-0.638428	0.286133	-0.576904	0.050863	0.006894	0.085368	0.470766	-0.208969	-0.159704	-0.842144	4.792191	-30.154312	-122.880525
51768		5.082168	0.689124	8.539317	-0.066735	-0.063688	0.147973	-0.009462	0.030243	-0.009630	-0.632080	0.284668	-0.586426	0.050835	0.006893	0.085385	0.470935	-0.209115	-0.159481	-0.842056	4.751640	-30.157762	-122.847134
51769		5.104397	0.671781	8.524006	-0.095385	-0.080563	0.144685	-0.007774	0.029156	-0.007983	-0.644531	0.283936	-0.590820	0.051057	0.006719	0.085232	0.470929	-0.209057	-0.159381	-0.842092	4.744500	-30.145961	-122.847408
51770		5.081154	0.553568	8.578625	-0.174438	0.015558	0.171636	-0.000877	0.021229	-0.011006	-0.646729	0.280518	-0.581787	0.050821	0.005533	0.085781	0.471329	-0.208891	-0.159230	-0.841938	4.722403	-30.122144	-122.790003
51771		5.054445	0.694704	8.613247	-0.034201	-0.021327	0.198128	0.000819	0.020916	-0.017553	-0.642578	0.271240	-0.594727	0.050554	0.006942	0.086127	0.471286	-0.208839	-0.159195	-0.841981	4.723537	-30.114552	-122.796943
51772		5.114901	0.647632	8.542704	-0.121534	-0.072284	0.164258	0.006395	0.018317	-0.018941	-0.644531	0.280029	-0.585205	0.051157	0.006469	0.085423	0.470993	-0.208749	-0.159336	-0.842141	4.756277	-30.111477	-122.845188
51773		5.030713	0.735653	8.546635	-0.006742	-0.054268	0.131721	0.006902	0.018200	-0.017064	-0.639893	0.280029	-0.578613	0.050316	0.007349	0.085462	0.470956	-0.208695	-0.159333	-0.842176	4.760875	-30.105458	-122.852023
51774		5.095367	0.732636	8.508088	-0.045800	-0.115792	0.130732	0.004011	0.016622	-0.015900	-0.645996	0.284668	-0.589844	0.050961	0.007321	0.085077	0.470808	-0.208844	-0.159332	-0.842222	4.757131	-30.120169	-122.869667
51775		5.101710	0.698273	8.556499	-0.069312	-0.081163	0.173168	0.001651	0.018555	-0.015436	-0.647949	0.285156	-0.577881	0.051026	0.006978	0.085560	0.470772	-0.208802	-0.159305	-0.842257	4.758157	-30.114070	-122.875422
51776		5.079293	0.692937	8.568693	-0.055709	-0.055095	0.172088	0.003687	0.018859	-0.016130	-0.643799	0.281006	-0.587158	0.050802	0.006924	0.085682	0.470722	-0.209068	-0.159226	-0.842235	4.734779	-30.137034	-122.874128
51777		5.069023	0.684987	8.601852	-0.052038	-0.028933	0.194936	0.003532	0.020362	-0.020338	-0.643555	0.280273	-0.587402	0.050700	0.006843	0.086013	0.470669	-0.209011	-0.159207	-0.842282	4.738399	-30.129746	-122.883002
51778		5.080142	0.727847	8.543939	-0.032311	-0.085592	0.153663	0.001122	0.015042	-0.014730	-0.645996	0.275879	-0.584229	0.050808	0.007274	0.085436	0.470641	-0.209027	-0.159203	-0.842294	4.737940	-30.131055	-122.886470
51779		5.091146	0.658645	8.528026	-0.100821	-0.066530	0.140514	0.001822	0.017817	-0.019403	-0.635986	0.281006	-0.590576	0.050920	0.006581	0.085276	0.470588	-0.208986	-0.159182	-0.842337	4.740338	-30.125274	-122.894862
51780		5.044196	0.726497	8.535839	-0.021064	-0.063476	0.128529	0.005015	0.013529	-0.017755	-0.642578	0.290283	-0.577393	0.050448	0.007258	0.085355	0.470563	-0.208894	-0.159228	-0.842366	4.752113	-30.118143	-122.901951
51781		5.104893	0.691018	8.523815	-0.083344	-0.095372	0.146068	0.006376	0.014684	-0.016344	-0.648926	0.279053	-0.583984	0.051056	0.006903	0.085235	0.470526	-0.208858	-0.159231	-0.842395	4.756211	-30.114279	-122.908493
51782		5.057533	0.770273	8.590272	0.027134	-0.067741	0.185283	0.002654	0.015459	-0.017290	-0.645752	0.286133	-0.588379	0.050583	0.007697	0.085899	0.470418	-0.209228	-0.159137	-0.842381	4.726830	-30.147044	-122.912365
51783		5.073127	0.733891	8.547590	-0.020787	-0.080669	0.153735	0.005343	0.011289	-0.017515	-0.639893	0.282715	-0.582275	0.050737	0.007332	0.085473	0.470372	-0.209208	-0.159145	-0.842410	4.730746	-30.145157	-122.919850
51784		5.071859	0.734824	8.548262	-0.015463	-0.080755	0.153744	-0.002095	0.015696	-0.013796	-0.646729	0.277344	-0.590332	0.050726	0.007346	0.085479	0.470505	-0.209332	-0.159019	-0.842329	4.703770	-30.151730	-122.894328
51785		5.062532	0.714884	8.522462	-0.033675	-0.076416	0.125405	0.001954	0.012683	-0.012612	-0.645508	0.284180	-0.578369	0.050631	0.007145	0.085221	0.470477	-0.209319	-0.159004	-0.842351	4.704022	-30.149305	-122.898441
51786		5.061183	0.782811	8.560641	0.035866	-0.089441	0.162464	-0.004006	0.007404	-0.011936	-0.647217	0.283203	-0.584717	0.050615	0.007827	0.085604	0.470292	-0.209554	-0.159000	-0.842397	4.696136	-30.172664	-122.919223
51787		5.118462	0.702227	8.516472	-0.068881	-0.111155	0.147482	-0.003977	0.013886	-0.008890	-0.645264	0.282471	-0.590576	0.051191	0.007022	0.085161	0.470274	-0.209553	-0.158953	-0.842416	4.691711	-30.169782	-122.920839
51788		5.063522	0.692293	8.518737	-0.048481	-0.065176	0.121134	-0.005662	0.014966	-0.010532	-0.645020	0.281982	-0.589600	0.050642	0.006923	0.085183	0.470271	-0.209669	-0.158882	-0.842402	4.676617	-30.177871	-122.916684
51789		5.090735	0.719316	8.534934	-0.034535	-0.092185	0.150666	-0.007675	0.018283	-0.012405	-0.640137	0.275146	-0.586182	0.050916	0.007193	0.085344	0.470238	-0.209656	-0.158812	-0.842437	4.671098	-30.172340	-122.920370
51790		5.097616	0.728441	8.503738	-0.037608	-0.117066	0.127873	-0.006666	0.018052	-0.008659	-0.638916	0.276855	-0.591064	0.050984	0.007285	0.085033	0.470209	-0.209589	-0.158803	-0.842471	4.675368	-30.164691	-122.926129
51791		5.116180	0.746178	8.552208	-0.021009	-0.118276	0.180206	-0.007673	0.018282	-0.012401	-0.639893	0.279785	-0.586426	0.051170	0.007462	0.085517	0.470176	-0.209576	-0.158734	-0.842506	4.669874	-30.159152	-122.929823
51792		5.089996	0.639628	8.553327	-0.102421	-0.047299	0.160469	-0.007344	0.018901	-0.006553	-0.646973	0.286377	-0.583984	0.050908	0.006398	0.085528	0.470292	-0.209393	-0.158703	-0.842492	4.673342	-30.138926	-122.917111
51793		5.083898	0.662892	8.560022	-0.078102	-0.053095	0.164813	-0.009333	0.022984	-0.016605	-0.639648	0.285645	-0.581543	0.050849	0.006629	0.085594	0.470244	-0.209360	-0.158621	-0.842543	4.668189	-30.130465	-122.923311
51794		5.074266	0.698651	8.513468	-0.046055	-0.086558	0.122392	-0.001411	0.014842	-0.015879	-0.645020	0.274902	-0.584717	0.050750	0.006983	0.085131	0.470327	-0.209614	-0.158474	-0.842461	4.632687	-30.149159	-122.901189
51795		5.118017	0.644415	8.565923	-0.102900	-0.066865	0.185780	0.002991	0.013219	-0.017029	-0.638428	0.278564	-0.583496	0.051186	0.006439	0.085656	0.470282	-0.209594	-0.158466	-0.842493	4.634920	-30.146312	-122.908137
51796		5.083794	0.697904	8.535855	-0.048773	-0.080964	0.146425	0.002161	0.015570	-0.019131	-0.645508	0.281738	-0.584717	0.050845	0.006973	0.085355	0.470043	-0.209604	-0.158544	-0.842609	4.652320	-30.150528	-122.944562
51797		5.045624	0.651593	8.494786	-0.079898	-0.049247	0.088599	0.006410	0.018306	-0.018871	-0.647949	0.273682	-0.593262	0.050465	0.006508	0.084943	0.469997	-0.209552	-0.158541	-0.842648	4.657020	-30.144705	-122.952501
51798		5.014313	0.760738	8.555572	0.038258	-0.051406	0.132953	0.004527	0.013639	-0.019586	-0.646973	0.279541	-0.583740	0.050150	0.007601	0.085552	0.469736	-0.209547	-0.158654	-0.842774	4.680120	-30.149109	-122.993357
51799		4.980084	0.702219	8.567462	0.005974	0.008434	0.121881	0.002815	0.013951	-0.013048	-0.642822	0.282959	-0.584229	0.049807	0.007018	0.085671	0.469707	-0.209527	-0.158640	-0.842797	4.680991	-30.146057	-122.997743
51800		5.045046	0.710726	8.587448	-0.010480	-0.031252	0.172341	0.008026	0.003499	-0.015143	-0.640869	0.279053	-0.583496	0.050453	0.007100	0.085874	0.469560	-0.209743	-0.158670	-0.842820	4.676474	-30.169594	-123.014098
51801		5.048860	0.744747	8.561009	0.011165	-0.062857	0.153878	0.006342	0.004577	-0.016784	-0.635254	0.281250	-0.591309	0.050491	0.007441	0.085609	0.469513	-0.209752	-0.158697	-0.842839	4.680841	-30.171769	-123.021468
51802		5.101831	0.755990	8.559915	-0.005292	-0.109364	0.180328	0.002616	0.008204	-0.012122	-0.644531	0.284912	-0.586426	0.051022	0.007556	0.085597	0.469740	-0.209626	-0.158677	-0.842747	4.677600	-30.158728	-122.991183
51803		5.068790	0.685761	8.512842	-0.059675	-0.071469	0.118210	0.002616	0.008204	-0.012121	-0.643555	0.281494	-0.592773	0.050692	0.006853	0.085126	0.469711	-0.209631	-0.158675	-0.842763	4.678177	-30.159015	-122.995222
51804		5.018045	0.720436	8.546696	0.002362	-0.037558	0.124335	0.001260	0.007045	-0.013531	-0.640869	0.284668	-0.588623	0.050184	0.007200	0.085465	0.469857	-0.209649	-0.158630	-0.842685	4.666293	-30.159128	-122.972292
51805		5.083142	0.728612	8.566651	-0.017136	-0.079515	0.174810	0.001260	0.007045	-0.013530	-0.645752	0.281738	-0.585693	0.050835	0.007282	0.085665	0.469821	-0.209661	-0.158626	-0.842703	4.666566	-30.160007	-122.977275
51806		5.046096	0.681663	8.525000	-0.045829	-0.048410	0.117012	0.000735	0.003536	-0.012837	-0.640137	0.289307	-0.592773	0.050463	0.006813	0.085249	0.469935	-0.209760	-0.158577	-0.842624	4.650379	-30.168084	-122.956783
51807		5.004254	0.725594	8.526461	0.012040	-0.039173	0.100329	0.003955	0.002881	-0.013755	-0.640381	0.278809	-0.587158	0.050044	0.007251	0.085264	0.469897	-0.209783	-0.158594	-0.842636	4.652347	-30.171342	-122.962092
51808		5.033571	0.686059	8.504094	-0.038795	-0.053382	0.093007	0.002373	-0.004786	-0.006069	-0.637695	0.287109	-0.586426	0.050334	0.006858	0.085042	0.470285	-0.209740	-0.158534	-0.842442	4.633191	-30.165488	-122.905289
51809		5.020429	0.712433	8.600231	0.010332	-0.011372	0.171100	0.007129	-0.005019	-0.009548	-0.645020	0.286377	-0.587646	0.050202	0.007119	0.086004	0.470262	-0.209792	-0.158579	-0.842433	4.635754	-30.173418	-122.908144
51810		5.050419	0.729289	8.556371	0.006748	-0.063027	0.149544	0.007442	-0.013736	-0.012362	-0.642578	0.282715	-0.583740	0.050499	0.007287	0.085567	0.470628	-0.209934	-0.158515	-0.842206	4.605278	-30.186575	-122.849415
51811		5.084164	0.789912	8.544511	0.041486	-0.121947	0.160514	0.002530	-0.009146	-0.007474	-0.642822	0.278076	-0.584961	0.050838	0.007896	0.085448	0.470606	-0.210016	-0.158547	-0.842191	4.604548	-30.196958	-122.851002
51812		5.101830	0.752654	8.500889	-0.005200	-0.134028	0.129258	-0.002884	-0.004442	-0.004458	-0.645752	0.280273	-0.582275	0.051017	0.007527	0.085010	0.470583	-0.210177	-0.158553	-0.842163	4.595917	-30.213967	-122.850158
51813		5.155436	0.762586	8.499530	-0.020718	-0.178355	0.155754	-0.008276	0.003884	-0.004005	-0.643311	0.289063	-0.577148	0.051556	0.007628	0.084994	0.470576	-0.210233	-0.158505	-0.842162	4.587485	-30.217087	-122.848755
51814		5.150500	0.673315	8.547691	-0.077213	-0.105795	0.188655	-0.012814	0.013483	-0.004012	-0.642578	0.282227	-0.582275	0.051511	0.006738	0.085473	0.470580	-0.210598	-0.158340	-0.842100	4.545965	-30.245829	-122.834746
51815		5.156367	0.648535	8.654876	-0.078178	-0.049124	0.282216	-0.014979	0.018294	-0.010084	-0.646484	0.283691	-0.590576	0.051572	0.006489	0.086544	0.470551	-0.210605	-0.158237	-0.842134	4.535262	-30.240515	-122.836571
51816		5.110054	0.646583	8.624899	-0.061304	-0.029674	0.232957	-0.021275	0.008761	-0.012699	-0.641602	0.280518	-0.588623	0.051105	0.006472	0.086246	0.470586	-0.210727	-0.158116	-0.842106	4.512864	-30.246668	-122.825562
51817		5.134736	0.617404	8.550134	-0.112017	-0.068639	0.179021	-0.017179	0.013001	-0.016637	-0.644531	0.284668	-0.580078	0.051353	0.006177	0.085497	0.470523	-0.210756	-0.158024	-0.842151	4.503203	-30.244095	-122.831973
51818		5.075697	0.686614	8.536667	-0.025175	-0.067365	0.142394	-0.004468	0.008267	-0.021951	-0.650146	0.287354	-0.588379	0.050761	0.006862	0.085364	0.470513	-0.210855	-0.157983	-0.842140	4.492912	-30.252075	-122.829904
51819		5.087704	0.673088	8.499409	-0.049959	-0.086652	0.115441	-0.004147	0.008888	-0.016110	-0.642334	0.286133	-0.586670	0.050881	0.006729	0.084992	0.470463	-0.210872	-0.157954	-0.842169	4.490629	-30.251893	-122.836158
51820		5.036789	0.707651	8.533311	0.014358	-0.052210	0.121319	0.001793	0.007696	-0.019816	-0.638672	0.274658	-0.587158	0.050372	0.007071	0.085331	0.470628	-0.210983	-0.157883	-0.842062	4.469170	-30.260400	-122.807306
51821		5.081659	0.698503	8.505846	-0.020567	-0.092723	0.119662	0.004001	0.010129	-0.018864	-0.647949	0.278809	-0.590332	0.050822	0.006979	0.085056	0.470577	-0.210974	-0.157888	-0.842092	4.472388	-30.259406	-122.815252
51822		5.101264	0.706138	8.495261	-0.030215	-0.115064	0.120934	0.000450	0.013015	-0.018173	-0.640137	0.287598	-0.586426	0.051019	0.007057	0.084949	0.470418	-0.210805	-0.157991	-0.842204	4.500717	-30.246775	-122.845295
51823		5.079104	0.700682	8.507193	-0.022630	-0.091137	0.119672	0.001826	0.017796	-0.019320	-0.639648	0.279297	-0.584229	0.050799	0.007001	0.085067	0.470368	-0.210767	-0.157970	-0.842245	4.502699	-30.241350	-122.853184
51824		5.117984	0.782126	8.523511	0.033327	-0.155729	0.158790	0.001143	0.018644	-0.017218	-0.647217	0.285156	-0.582275	0.051188	0.007816	0.085230	0.470597	-0.210703	-0.157884	-0.842149	4.488234	-30.230887	-122.819605
51825		5.117269	0.659663	8.507779	-0.075412	-0.101251	0.136583	0.000460	0.019492	-0.015117	-0.644775	0.277344	-0.582764	0.051181	0.006593	0.085073	0.470565	-0.210664	-0.157848	-0.842184	4.487955	-30.224670	-122.824558
51826		5.085884	0.700677	8.531170	-0.018651	-0.086628	0.143726	-0.000202	0.023962	-0.015573	-0.647949	0.283936	-0.592773	0.050870	0.007003	0.085306	0.470385	-0.210817	-0.157825	-0.842250	4.482771	-30.238375	-122.846255
51827		5.075257	0.692254	8.564461	-0.014768	-0.060377	0.166470	0.003167	0.021812	-0.012290	-0.641113	0.287354	-0.590332	0.050762	0.006918	0.085639	0.470369	-0.210766	-0.157792	-0.842278	4.483031	-30.231011	-122.849244
51828		5.089790	0.723131	8.559896	0.004215	-0.092203	0.171909	0.004183	0.018726	-0.014157	-0.642090	0.285645	-0.580322	0.050906	0.007226	0.085594	0.470692	-0.210640	-0.157720	-0.842142	4.470223	-30.215502	-122.803785
51829		4.960008	0.752847	8.553474	0.088604	-0.016815	0.103070	0.001462	0.019263	-0.011370	-0.641846	0.283447	-0.589355	0.049609	0.007525	0.085530	0.470677	-0.210604	-0.157685	-0.842166	4.469235	-30.209610	-122.806219
51830		5.007897	0.731206	8.579601	0.055798	-0.029979	0.148198	0.001272	0.013520	-0.010452	-0.638428	0.283447	-0.579590	0.050085	0.007309	0.085793	0.470873	-0.210671	-0.157601	-0.842056	4.447935	-30.212807	-122.773918
51831		5.027598	0.738281	8.569030	0.050599	-0.053104	0.149476	-0.000102	0.008738	-0.009307	-0.651123	0.286133	-0.585938	0.050280	0.007381	0.085688	0.470857	-0.210684	-0.157581	-0.842065	4.445594	-30.213032	-122.775472
51832		5.101357	0.699626	8.578062	-0.010140	-0.081668	0.191796	0.000230	0.006503	-0.009078	-0.640381	0.282715	-0.588623	0.051017	0.006994	0.085779	0.470904	-0.210930	-0.157521	-0.841989	4.421560	-30.235592	-122.760557
51833		5.088354	0.702867	8.557527	-0.005271	-0.083574	0.167775	0.000419	0.012246	-0.009992	-0.642090	0.273682	-0.589844	0.050889	0.007026	0.085572	0.470889	-0.210928	-0.157497	-0.842002	4.419606	-30.233831	-122.762353
51834		5.058766	0.676157	8.542696	-0.021183	-0.056471	0.138309	-0.002117	0.012045	-0.011174	-0.645752	0.283691	-0.585449	0.050593	0.006760	0.085424	0.470886	-0.210744	-0.157541	-0.842042	4.436211	-30.217112	-122.768739
51835		5.093990	0.724315	8.585286	0.012837	-0.087125	0.195946	-0.000787	0.009586	-0.007207	-0.635254	0.287109	-0.581299	0.050944	0.007242	0.085850	0.470879	-0.210757	-0.157515	-0.842047	4.432751	-30.216955	-122.768838
51836		5.040290	0.702900	8.528352	0.012030	-0.065154	0.118425	-0.001618	0.011932	-0.009303	-0.639648	0.283936	-0.590332	0.050408	0.007027	0.085280	0.471125	-0.210858	-0.157398	-0.841906	4.403717	-30.222078	-122.727461
51837		5.088633	0.680916	8.554295	-0.023746	-0.077601	0.163645	-0.002470	0.010659	-0.008845	-0.638672	0.279785	-0.587158	0.050891	0.006808	0.085540	0.471111	-0.210869	-0.157363	-0.841918	4.399753	-30.221250	-122.728513
51838		5.041623	0.747421	8.561629	0.055726	-0.076571	0.150702	-0.002470	0.010658	-0.008844	-0.632813	0.281494	-0.590088	0.050421	0.007473	0.085614	0.471348	-0.210709	-0.157324	-0.841832	4.396199	-30.203492	-122.697320
51839		5.070423	0.651624	8.560907	-0.039903	-0.049666	0.158214	-0.000599	0.008848	-0.011170	-0.640625	0.283447	-0.584229	0.050708	0.006514	0.085607	0.471325	-0.210722	-0.157305	-0.841846	4.394128	-30.203555	-122.699947
51840		5.065295	0.675562	8.566854	-0.016299	-0.058381	0.162327	0.002768	0.006703	-0.007889	-0.638184	0.281494	-0.587402	0.050656	0.006752	0.085667	0.471637	-0.210572	-0.157267	-0.841715	4.387104	-30.187358	-122.657448
51841		5.043861	0.669670	8.578321	-0.008786	-0.034445	0.161044	0.000088	0.007999	-0.013266	-0.639160	0.281738	-0.585693	0.050442	0.006693	0.085781	0.471606	-0.210585	-0.157254	-0.841732	4.386132	-30.187772	-122.661428
51842		5.059497	0.700294	8.573128	0.008596	-0.065166	0.166447	-0.000077	0.005876	-0.014905	-0.638184	0.283936	-0.587891	0.050598	0.006999	0.085730	0.471746	-0.210503	-0.157244	-0.841676	4.384628	-30.179389	-122.642930
51843		5.072061	0.687070	8.535649	-0.016177	-0.084596	0.139586	0.004475	0.002770	-0.011853	-0.634521	0.283203	-0.585449	0.050722	0.006866	0.085356	0.471721	-0.210528	-0.157260	-0.841681	4.385831	-30.182827	-122.646198
51844		5.104522	0.691973	8.545714	-0.024877	-0.108717	0.164875	0.004829	0.004155	-0.014177	-0.644043	0.284668	-0.587646	0.051047	0.006914	0.085456	0.472061	-0.210405	-0.157226	-0.841527	4.376382	-30.169689	-122.598971
51845		5.078824	0.709900	8.562607	0.005908	-0.090787	0.167712	0.004497	0.006389	-0.014404	-0.644531	0.283447	-0.593750	0.050791	0.007093	0.085625	0.472029	-0.210412	-0.157236	-0.841541	4.378326	-30.170910	-122.603652
51846		5.103257	0.694081	8.546298	-0.022577	-0.109169	0.164876	0.002624	0.008198	-0.012078	-0.633057	0.281006	-0.585938	0.051036	0.006937	0.085461	0.472242	-0.210343	-0.157240	-0.841439	4.374804	-30.164974	-122.574505
51847		5.114476	0.692234	8.567786	-0.025040	-0.106510	0.188915	0.001793	0.010543	-0.014173	-0.644287	0.277588	-0.582764	0.051150	0.006918	0.085675	0.472212	-0.210339	-0.157229	-0.841459	4.375009	-30.163816	-122.578780
51848		5.059953	0.682711	8.569444	-0.008871	-0.061189	0.162320	0.003477	0.009471	-0.012532	-0.645752	0.280029	-0.589844	0.050604	0.006822	0.085692	0.472167	-0.210290	-0.157257	-0.841491	4.382900	-30.160084	-122.587284
51849		5.042631	0.709818	8.554347	0.019264	-0.069083	0.142395	0.004001	0.006498	-0.016268	-0.634766	0.275879	-0.581787	0.050430	0.007092	0.085542	0.472127	-0.210297	-0.157267	-0.841510	4.385184	-30.161134	-122.593145
51850		5.055100	0.697007	8.516917	-0.007957	-0.087884	0.115553	0.006372	0.004578	-0.016723	-0.639648	0.279785	-0.589844	0.050554	0.006963	0.085168	0.471977	-0.210233	-0.157358	-0.841592	4.405181	-30.158945	-122.618785
51851		5.004183	0.731819	8.550439	0.052395	-0.052377	0.121190	0.004498	0.006386	-0.014398	-0.640625	0.279297	-0.587891	0.050045	0.007313	0.085503	0.471946	-0.210240	-0.157369	-0.841606	4.407167	-30.160126	-122.623439
51852		5.011859	0.697535	8.598100	0.026454	-0.018917	0.163862	0.003796	-0.002862	-0.012801	-0.649902	0.279541	-0.579834	0.050118	0.006971	0.085982	0.472001	-0.210127	-0.157444	-0.841590	4.420402	-30.152879	-122.620017
51853		5.066525	0.697682	8.538075	-0.010867	-0.085518	0.139586	0.005834	-0.002548	-0.013484	-0.643555	0.280762	-0.577637	0.050665	0.006971	0.085382	0.471968	-0.210169	-0.157480	-0.841591	4.423105	-30.159169	-122.624510
51854		5.099210	0.758448	8.526832	0.028159	-0.139100	0.150440	0.001070	-0.002327	-0.010021	-0.648926	0.274658	-0.592041	0.050991	0.007581	0.085269	0.471580	-0.210575	-0.157533	-0.841697	4.418552	-30.202598	-122.671483
51855		5.117005	0.665486	8.504612	-0.063896	-0.114717	0.134060	-0.002985	0.000662	-0.011204	-0.640869	0.271973	-0.587402	0.051171	0.006653	0.085046	0.471549	-0.210627	-0.157522	-0.841704	4.415356	-30.207237	-122.674370
51856		5.107806	0.712710	8.515840	-0.022723	-0.124051	0.142274	0.002603	0.004577	-0.009520	-0.627197	0.276367	-0.594482	0.051080	0.007124	0.085157	0.471165	-0.210482	-0.157702	-0.841921	4.459568	-30.200344	-122.738442
51857		5.077871	0.697414	8.559360	-0.012584	-0.074253	0.163691	-0.001453	0.007566	-0.010703	-0.640137	0.281250	-0.589355	0.050782	0.006972	0.085592	0.471143	-0.210501	-0.157682	-0.841933	4.457002	-30.201034	-122.740743
51858		5.072747	0.721353	8.565252	0.006009	-0.084969	0.167763	-0.000076	0.005867	-0.014893	-0.646973	0.277832	-0.588135	0.050731	0.007210	0.085651	0.471569	-0.210061	-0.157716	-0.841797	4.471709	-30.159254	-122.690898
51859		5.143484	0.695011	8.521059	-0.058298	-0.143285	0.163433	0.000048	0.000755	-0.008152	-0.640137	0.276123	-0.577148	0.051435	0.006948	0.085210	0.471555	-0.210106	-0.157715	-0.841794	4.469367	-30.163848	-122.691784
51860		5.055345	0.748330	8.550178	0.034599	-0.089502	0.147878	-0.002640	0.008524	-0.010474	-0.645508	0.284180	-0.583740	0.050557	0.007482	0.085500	0.471220	-0.210220	-0.157760	-0.841944	4.480336	-30.176633	-122.738641
51861		5.088382	0.741027	8.501872	0.003498	-0.132531	0.122352	-0.004180	0.008099	-0.007923	-0.637695	0.272949	-0.582275	0.050888	0.007410	0.085017	0.471208	-0.210245	-0.157724	-0.841952	4.475334	-30.177068	-122.739056
51862		5.083429	0.708413	8.528920	-0.016214	-0.098818	0.140982	-0.005864	0.009169	-0.009561	-0.643799	0.283936	-0.583496	0.050839	0.007084	0.085287	0.471070	-0.210313	-0.157722	-0.842013	4.476183	-30.183372	-122.757360
51863		5.048894	0.715850	8.578092	0.017194	-0.055019	0.166497	-0.006877	0.005771	-0.010745	-0.649414	0.277832	-0.586182	0.050492	0.007159	0.085779	0.471041	-0.210352	-0.157683	-0.842027	4.470646	-30.185022	-122.759780
51864		5.119460	0.688974	8.534083	-0.045964	-0.111034	0.162266	-0.003845	0.005866	-0.007694	-0.638916	0.282227	-0.579102	0.051197	0.006889	0.085339	0.470891	-0.210513	-0.157689	-0.842069	4.467001	-30.201401	-122.777420
51865		5.107074	0.635858	8.534417	-0.085119	-0.075082	0.152749	-0.000459	0.007345	-0.006965	-0.643311	0.277588	-0.585449	0.051074	0.006357	0.085342	0.470886	-0.210532	-0.157670	-0.842071	4.463847	-30.202352	-122.777285
51866		5.122736	0.666168	8.529212	-0.066256	-0.103267	0.158201	-0.000620	0.005221	-0.008604	-0.642334	0.279053	-0.587158	0.051230	0.006660	0.085291	0.470839	-0.210619	-0.157674	-0.842074	4.460725	-30.211412	-122.781892
51867		5.133953	0.663981	8.550739	-0.068726	-0.100551	0.182244	-0.002265	0.013524	-0.015339	-0.637695	0.279297	-0.583984	0.051346	0.006637	0.085504	0.470801	-0.210611	-0.157642	-0.842104	4.459159	-30.208472	-122.786974
51868		5.116593	0.634891	8.556869	-0.086172	-0.071012	0.176814	0.001489	0.009908	-0.019981	-0.645264	0.285889	-0.585938	0.051171	0.006343	0.085566	0.470821	-0.210512	-0.157681	-0.842110	4.468985	-30.200498	-122.787580
51869		5.072822	0.690148	8.617168	-0.006126	-0.039195	0.210478	0.000141	0.008743	-0.021391	-0.638916	0.287354	-0.585938	0.050733	0.006896	0.086169	0.470756	-0.210513	-0.157677	-0.842146	4.470950	-30.200001	-122.796895
51870		5.118799	0.725798	8.510056	-0.015774	-0.141757	0.143697	0.002497	0.003208	-0.019297	-0.640381	0.279053	-0.581543	0.051190	0.007252	0.085100	0.471106	-0.210568	-0.157628	-0.841946	4.448303	-30.204870	-122.743131
51871		5.099377	0.597168	8.504643	-0.118653	-0.064364	0.120639	0.005386	0.004798	-0.020432	-0.642334	0.285400	-0.584717	0.050996	0.005964	0.085045	0.471049	-0.210574	-0.157654	-0.841972	4.453004	-30.206675	-122.751924
51872		5.071603	0.739011	8.538216	0.024186	-0.099769	0.145118	0.009481	0.009045	-0.024341	-0.646240	0.284912	-0.578125	0.050721	0.007380	0.085380	0.471102	-0.210606	-0.157679	-0.841930	4.451627	-30.211734	-122.743769
51873		5.084165	0.670939	8.522004	-0.044615	-0.081469	0.132906	0.008790	0.009893	-0.022245	-0.645508	0.276855	-0.584473	0.050847	0.006700	0.085218	0.471045	-0.210582	-0.157709	-0.841962	4.458730	-30.210557	-122.753466
51874		5.106935	0.723649	8.543496	-0.004056	-0.111474	0.166458	0.013859	0.010307	-0.019874	-0.644287	0.277832	-0.583252	0.051074	0.007225	0.085433	0.470829	-0.210755	-0.157769	-0.842028	4.463031	-30.231031	-122.781674
51875		5.052273	0.715152	8.545073	0.013244	-0.066301	0.139729	0.010492	0.012439	-0.023148	-0.634033	0.281006	-0.585938	0.050529	0.007141	0.085448	0.470771	-0.210715	-0.157801	-0.842064	4.471335	-30.228403	-122.791862
51876		5.051072	0.717087	8.545621	0.013517	-0.066648	0.139727	0.008951	0.012013	-0.020599	-0.648193	0.281738	-0.576904	0.050517	0.007162	0.085453	0.470855	-0.210602	-0.157848	-0.842037	4.480339	-30.219682	-122.783695
51877		5.024696	0.735248	8.562748	0.044264	-0.048668	0.142436	0.003332	0.010954	-0.016689	-0.641846	0.275635	-0.585449	0.050252	0.007347	0.085625	0.470816	-0.210591	-0.157846	-0.842062	4.482433	-30.218173	-122.789661
51878		5.101460	0.842070	8.503591	0.089021	-0.183477	0.137360	0.000760	0.013610	-0.012276	-0.648193	0.279785	-0.580811	0.051021	0.008417	0.085032	0.470559	-0.210748	-0.157856	-0.842164	4.483770	-30.233802	-122.823282
51879		5.104532	0.819164	8.498902	0.066866	-0.177102	0.133306	-0.005675	0.018506	-0.013005	-0.637207	0.278076	-0.585449	0.051054	0.008191	0.084984	0.470532	-0.210729	-0.157795	-0.842196	4.479285	-30.228183	-122.826461
51880		5.054332	0.729036	8.516476	0.017128	-0.086923	0.117080	-0.009948	0.018612	-0.007685	-0.639648	0.287354	-0.586182	0.050552	0.007293	0.085160	0.470459	-0.210773	-0.157741	-0.842236	4.473457	-30.229325	-122.834810
51881		5.090011	0.709176	8.521993	-0.014876	-0.101758	0.138440	-0.010641	0.019460	-0.005591	-0.645264	0.272461	-0.588379	0.050909	0.007095	0.085215	0.470459	-0.210767	-0.157649	-0.842254	4.463641	-30.223504	-122.833049
51882		5.117028	0.680234	8.559602	-0.045326	-0.091090	0.182468	-0.007711	0.018187	-0.012319	-0.637451	0.282715	-0.577393	0.051178	0.006802	0.085591	0.470540	-0.210675	-0.157620	-0.842238	4.462989	-30.212558	-122.823037
51883		5.070799	0.623136	8.550615	-0.074708	-0.033988	0.147613	-0.000093	0.022428	-0.011304	-0.647217	0.276367	-0.584229	0.050718	0.006229	0.085500	0.470529	-0.210627	-0.157571	-0.842265	4.461051	-30.204773	-122.824883
51884		5.097128	0.651319	8.567245	-0.058443	-0.058973	0.177093	0.001988	0.019880	-0.017577	-0.643311	0.283203	-0.587646	0.050980	0.006508	0.085667	0.470382	-0.210711	-0.157556	-0.842329	4.459826	-30.211846	-122.843719
51885		5.053491	0.695082	8.569202	-0.000795	-0.049319	0.159760	0.005354	0.017749	-0.014298	-0.646973	0.275391	-0.587646	0.050543	0.006945	0.085688	0.470361	-0.210668	-0.157545	-0.842353	4.462120	-30.206628	-122.847797
51886		5.072568	0.703093	8.559045	-0.007048	-0.071635	0.161146	0.006405	0.018282	-0.018705	-0.640137	0.285156	-0.590332	0.050734	0.007023	0.085586	0.470284	-0.210593	-0.157599	-0.842405	4.475920	-30.201381	-122.862299
51887		5.104979	0.697216	8.511222	-0.038193	-0.114729	0.135840	0.007238	0.015942	-0.016612	-0.644531	0.289795	-0.585449	0.051057	0.006965	0.085108	0.470253	-0.210551	-0.157602	-0.842432	4.480127	-30.197089	-122.868011
51888		5.123113	0.716486	8.559620	-0.017276	-0.118039	0.187937	0.002805	0.013923	-0.012937	-0.642822	0.273682	-0.587158	0.051238	0.007160	0.085593	0.470733	-0.210534	-0.157517	-0.842184	4.452854	-30.192985	-122.796267
51889		5.097484	0.722560	8.518325	-0.009012	-0.122339	0.139862	-0.003074	0.019453	-0.019940	-0.644043	0.280273	-0.581787	0.050984	0.007222	0.085178	0.470681	-0.210500	-0.157472	-0.842230	4.452112	-30.186538	-122.803889
51890		5.112057	0.697254	8.535054	-0.035968	-0.111785	0.159908	-0.002610	0.025823	-0.015018	-0.634033	0.283447	-0.588867	0.051132	0.006970	0.085344	0.470466	-0.210464	-0.157476	-0.842358	4.463273	-30.181860	-122.836421
51891		5.126467	0.671934	8.551890	-0.061671	-0.103079	0.179938	0.000262	0.023802	-0.013603	-0.645264	0.279297	-0.592041	0.051275	0.006716	0.085513	0.470447	-0.210408	-0.157428	-0.842392	4.462248	-30.173219	-122.839669
51892		5.091933	0.613018	8.564115	-0.096426	-0.046187	0.169107	0.006243	0.026245	-0.019811	-0.640869	0.277100	-0.590576	0.050931	0.006122	0.085635	0.470774	-0.210124	-0.157433	-0.842279	4.467837	-30.145480	-122.799654
51893		5.091482	0.770566	8.555376	0.035860	-0.130866	0.171951	0.006583	0.024013	-0.019582	-0.645264	0.278076	-0.592529	0.050926	0.007698	0.085548	0.470737	-0.210048	-0.157418	-0.842322	4.472413	-30.136411	-122.806774
51894		5.052349	0.735365	8.573051	0.022453	-0.077760	0.165170	0.004902	0.025074	-0.021216	-0.642578	0.284424	-0.591553	0.050535	0.007346	0.085724	0.470734	-0.209792	-0.157484	-0.842375	4.495940	-30.113391	-122.815570
51895		5.017313	0.732841	8.564151	0.033378	-0.056148	0.139745	0.005600	0.024223	-0.023302	-0.640869	0.283203	-0.584473	0.050184	0.007320	0.085636	0.470681	-0.209714	-0.157468	-0.842427	4.501213	-30.104001	-122.825136
51896		4.969396	0.744235	8.592556	0.072017	-0.015742	0.140974	0.006888	0.014555	-0.014270	-0.636475	0.277588	-0.579102	0.049701	0.007436	0.085922	0.470987	-0.209666	-0.157453	-0.842271	4.490498	-30.099770	-122.781280
51897		5.063776	0.713907	8.591325	0.000795	-0.069558	0.185188	0.008265	0.009244	-0.015909	-0.635010	0.277832	-0.581787	0.050642	0.007131	0.085911	0.470956	-0.209650	-0.157476	-0.842288	4.495210	-30.099265	-122.786675
51898		5.050754	0.718034	8.570697	0.006070	-0.071173	0.161150	0.007434	0.011580	-0.017996	-0.638916	0.286865	-0.585205	0.050513	0.007173	0.085704	0.470932	-0.209655	-0.157496	-0.842296	4.498070	-30.100765	-122.790525
51899		5.055794	0.684857	8.506953	-0.038605	-0.087238	0.106447	0.009456	0.008288	-0.016131	-0.641846	0.278564	-0.581299	0.050562	0.006840	0.085068	0.470901	-0.209640	-0.157526	-0.842312	4.503559	-30.100801	-122.796102
51900		5.069756	0.727914	8.560481	0.005334	-0.093996	0.162545	0.008607	0.007012	-0.015680	-0.644287	0.281006	-0.584717	0.050701	0.007271	0.085603	0.471063	-0.209732	-0.157522	-0.842199	4.490947	-30.111088	-122.769775
51901		5.085610	0.703420	8.576436	-0.020369	-0.085362	0.182600	0.006227	0.008922	-0.015228	-0.643799	0.279785	-0.590820	0.050860	0.007028	0.085762	0.471034	-0.209724	-0.157536	-0.842215	4.494235	-30.110821	-122.774673
51902		5.072182	0.763267	8.534655	0.028692	-0.124526	0.143899	0.006227	0.008922	-0.015227	-0.638184	0.275635	-0.587158	0.050726	0.007626	0.085345	0.471060	-0.209729	-0.157578	-0.842191	4.497512	-30.113974	-122.771608
51903		5.041747	0.748328	8.578169	0.038713	-0.074630	0.165144	0.001808	0.010512	-0.014101	-0.643555	0.273926	-0.586914	0.050423	0.007479	0.085779	0.471031	-0.209725	-0.157569	-0.842210	4.497853	-30.112854	-122.775670
51904		5.037581	0.760816	8.525472	0.037619	-0.101662	0.118475	-0.003120	0.008597	-0.012303	-0.645996	0.283936	-0.582520	0.050380	0.007606	0.085252	0.470861	-0.209652	-0.157624	-0.842312	4.515212	-30.107474	-122.803670
51905		5.074236	0.741898	8.530533	0.005720	-0.116597	0.139933	-0.002987	0.007111	-0.008126	-0.637939	0.287598	-0.588623	0.050746	0.007418	0.085303	0.470850	-0.209678	-0.157596	-0.842317	4.510956	-30.108551	-122.803996
51906		5.080929	0.762676	8.557515	0.030947	-0.120634	0.167947	-0.004535	0.006685	-0.005588	-0.644043	0.282715	-0.578613	0.050812	0.007627	0.085573	0.471221	-0.209803	-0.157507	-0.842096	4.478603	-30.118409	-122.744429
51907		5.057280	0.655734	8.557958	-0.048995	-0.049591	0.149233	-0.008239	0.011035	-0.009088	-0.644043	0.282471	-0.582031	0.050578	0.006559	0.085577	0.471204	-0.209824	-0.157448	-0.842111	4.471502	-30.117218	-122.745104
51908		5.047004	0.702355	8.569511	0.003585	-0.058843	0.157197	-0.003818	0.009446	-0.010211	-0.647217	0.281006	-0.587891	0.050474	0.007023	0.085693	0.471157	-0.210097	-0.157381	-0.842081	4.448620	-30.141682	-122.743094
51909		5.150487	0.680331	8.536257	-0.070114	-0.138666	0.179004	-0.002628	0.008491	-0.010435	-0.641602	0.275635	-0.581055	0.051509	0.006802	0.085360	0.471139	-0.210115	-0.157354	-0.842092	4.445207	-30.141936	-122.744779
51910		5.058645	0.688932	8.532951	-0.019843	-0.076138	0.130631	-0.002120	0.011995	-0.011107	-0.649170	0.280518	-0.581299	0.050592	0.006887	0.085326	0.470960	-0.210203	-0.157363	-0.842169	4.447717	-30.150658	-122.768720
51911		5.086417	0.661158	8.570143	-0.048984	-0.065132	0.174779	0.001512	0.006263	-0.017371	-0.638672	0.283203	-0.585449	0.050867	0.006607	0.085700	0.470915	-0.210215	-0.157366	-0.842191	4.449046	-30.151896	-122.775131
51912		5.043719	0.704668	8.571255	0.011230	-0.054038	0.157219	0.003193	0.005203	-0.015732	-0.647461	0.278076	-0.579346	0.050440	0.007041	0.085711	0.470894	-0.210370	-0.157368	-0.842163	4.440394	-30.168078	-122.774065
51913		5.093973	0.672641	8.538623	-0.046657	-0.089047	0.152200	0.004042	0.006478	-0.016179	-0.642090	0.286377	-0.589355	0.050943	0.006721	0.085385	0.470856	-0.210377	-0.157380	-0.842181	4.442751	-30.169275	-122.779665
51914		5.070477	0.734454	8.587478	0.029850	-0.079226	0.186651	0.004043	0.006477	-0.016178	-0.645996	0.285156	-0.587646	0.050708	0.007339	0.085873	0.470856	-0.210509	-0.157386	-0.842146	4.435005	-30.183519	-122.776144
51915		5.057803	0.738288	8.566661	0.034497	-0.081195	0.162599	0.006083	0.006798	-0.016850	-0.641113	0.278320	-0.583740	0.050582	0.007376	0.085665	0.470818	-0.210510	-0.157406	-0.842164	4.438726	-30.184529	-122.782155
51916		5.091228	0.732305	8.518505	0.004869	-0.124129	0.137507	0.003701	0.008705	-0.016399	-0.640625	0.286865	-0.582031	0.050917	0.007317	0.085183	0.470883	-0.210558	-0.157416	-0.842113	4.434210	-30.190423	-122.771534
51917		5.081615	0.724033	8.550989	0.008774	-0.097769	0.160116	0.001662	0.008383	-0.015725	-0.639404	0.285889	-0.587646	0.050820	0.007236	0.085508	0.470846	-0.210563	-0.157412	-0.842133	4.434971	-30.190588	-122.776698
51918		5.073412	0.704278	8.524848	-0.006121	-0.095591	0.132129	0.003849	0.010829	-0.014757	-0.644531	0.273926	-0.584229	0.050739	0.007037	0.085246	0.471261	-0.210598	-0.157349	-0.841904	4.409365	-30.192855	-122.713592
51919		5.089016	0.679533	8.541033	-0.031736	-0.086983	0.152277	0.004698	0.012104	-0.015203	-0.642578	0.282715	-0.592773	0.050896	0.006789	0.085407	0.471233	-0.210581	-0.157349	-0.841924	4.411543	-30.190927	-122.718124
51920		5.057802	0.720504	8.563479	0.020602	-0.074340	0.158657	0.002511	0.009657	-0.016169	-0.639893	0.278564	-0.582520	0.050583	0.007200	0.085632	0.471199	-0.210509	-0.157407	-0.841950	4.423896	-30.186476	-122.726356
