// General information: 
//  MT Manager version: 2021.4.0 
//  XDA version: 2021.4.0 build 6323 rev 112641 built on 2021-09-28
// Device information: 
//  DeviceId: 00B47793
//  ProductCode: MTW2-3A7G6
//  Firmware Version: 4.6.0
//  Hardware Version: 2.0.0
// Device settings: 
//  Filter Profile: human(46.1)
//  Option Flags: Orientation Smoother Disabled, Position/Velocity Smoother Disabled, Continuous Zero Rotation Update Disabled, AHS Disabled, ICC Disabled
// Coordinate system: ENU
PacketCounter	SampleTimeFine	Acc_X	Acc_Y	Acc_Z	FreeAcc_E	FreeAcc_N	FreeAcc_U	Gyr_X	Gyr_Y	Gyr_Z	Mag_X	Mag_Y	Mag_Z	VelInc_X	VelInc_Y	VelInc_Z	Quat_q0	Quat_q1	Quat_q2	Quat_q3	Roll	Pitch	Yaw
34423		5.644700	-1.423806	7.948502	-0.031398	-0.004038	0.039599	0.008301	-0.000998	-0.008896	-0.969482	0.499268	-0.666992	0.056446	-0.014244	0.079485	0.336751	-0.307288	-0.036033	-0.889311	-10.020657	-34.807286	-135.371968
34424		5.627951	-1.400866	7.927984	-0.018305	-0.017526	0.010171	0.003722	-0.000524	-0.008603	-0.970947	0.500732	-0.666260	0.056279	-0.014013	0.079280	0.336750	-0.307282	-0.036032	-0.889314	-10.020422	-34.806571	-135.372294
34425		5.632713	-1.429170	7.980052	-0.011663	0.015618	0.059031	0.005028	0.000358	-0.009120	-0.975830	0.503662	-0.665527	0.056327	-0.014296	0.079800	0.336743	-0.307270	-0.036033	-0.889321	-10.019156	-34.805426	-135.373924
34426		5.610013	-1.426771	7.971557	-0.001578	0.024524	0.038863	0.005735	-0.000189	-0.006858	-0.969971	0.500000	-0.665771	0.056100	-0.014272	0.079715	0.336753	-0.307260	-0.036037	-0.889320	-10.018429	-34.804348	-135.373092
34427		5.632859	-1.427243	7.980293	-0.011063	0.014116	0.059034	0.006935	0.002668	-0.012418	-0.964355	0.504883	-0.659912	0.056329	-0.014279	0.079802	0.336733	-0.307235	-0.036048	-0.889336	-10.014698	-34.802309	-135.377377
34428		5.609902	-1.424799	7.971988	-0.000981	0.023026	0.038867	0.004518	0.004074	-0.004331	-0.967285	0.511719	-0.669922	0.056100	-0.014251	0.079718	0.336753	-0.307208	-0.036036	-0.889338	-10.015363	-34.798575	-135.375326
34429		5.603387	-1.410649	7.991661	0.021498	0.020997	0.049037	0.006613	0.000667	-0.011532	-0.971436	0.502441	-0.664307	0.056033	-0.014112	0.079916	0.336766	-0.307191	-0.036054	-0.889338	-10.012623	-34.797407	-135.374874
34430		5.603487	-1.409736	7.991752	0.021788	0.020246	0.049038	0.003446	0.000047	-0.006713	-0.961182	0.496582	-0.663330	0.056034	-0.014101	0.079917	0.336773	-0.307183	-0.036048	-0.889338	-10.013248	-34.796181	-135.373970
34431		5.638761	-1.403283	7.968902	-0.006854	-0.011333	0.049769	0.004002	-0.001097	-0.010498	-0.969238	0.498779	-0.664795	0.056386	-0.014037	0.079689	0.336761	-0.307179	-0.036050	-0.889344	-10.012199	-34.795997	-135.375919
34432		5.620866	-1.430063	8.012306	0.009576	0.031452	0.078479	0.002696	-0.001979	-0.009981	-0.973145	0.501709	-0.662598	0.056207	-0.014305	0.080123	0.336753	-0.307181	-0.036049	-0.889347	-10.012112	-34.796240	-135.377015
34433		5.633552	-1.422046	7.980732	-0.009262	0.009555	0.059042	0.004664	-0.004215	-0.009242	-0.972656	0.507080	-0.666016	0.056333	-0.014225	0.079808	0.336739	-0.307191	-0.036055	-0.889348	-10.011394	-34.797799	-135.378648
34434		5.623473	-1.412537	7.940546	-0.018336	-0.002676	0.019436	0.004386	-0.003643	-0.007349	-0.968506	0.504395	-0.676758	0.056233	-0.014129	0.079406	0.336745	-0.307198	-0.036060	-0.889344	-10.011486	-34.798719	-135.377734
34435		5.611464	-1.418851	7.971949	0.001098	0.017696	0.038878	0.006014	-0.000761	-0.008755	-0.971436	0.494629	-0.669189	0.056114	-0.014193	0.079719	0.336759	-0.307188	-0.036072	-0.889341	-10.010010	-34.798014	-135.376585
34436		5.630630	-1.424073	7.920891	-0.039925	-0.002979	0.009273	0.002331	-0.006552	-0.010101	-0.972168	0.500732	-0.668701	0.056303	-0.014244	0.079211	0.336748	-0.307211	-0.036077	-0.889337	-10.010402	-34.800849	-135.377209
34437		5.618100	-1.396552	7.959727	0.004677	-0.006170	0.029599	0.008627	0.001003	-0.009791	-0.973389	0.505615	-0.662354	0.056181	-0.013972	0.079596	0.336737	-0.307190	-0.036093	-0.889348	-10.006624	-34.799392	-135.380328
34438		5.635163	-1.417572	7.980391	-0.007829	0.005775	0.059046	0.001434	-0.000289	-0.008461	-0.967529	0.502930	-0.669189	0.056351	-0.014179	0.079804	0.336733	-0.307187	-0.036081	-0.889351	-10.007739	-34.798530	-135.380585
34439		5.634676	-1.383243	7.987876	0.017665	-0.018599	0.059923	0.003447	0.000047	-0.006716	-0.967529	0.502686	-0.669922	0.056346	-0.013836	0.079879	0.336744	-0.307179	-0.036074	-0.889350	-10.008543	-34.797334	-135.379155
34440		5.606264	-1.401490	7.991254	0.024719	0.012712	0.049044	0.004388	-0.003643	-0.007351	-0.962646	0.505859	-0.662842	0.056061	-0.014019	0.079913	0.336749	-0.307186	-0.036079	-0.889345	-10.008633	-34.798254	-135.378242
34441		5.619483	-1.427218	7.952259	-0.019316	0.014383	0.028725	0.004710	-0.001643	-0.008240	-0.966064	0.500977	-0.670410	0.056194	-0.014276	0.079523	0.336766	-0.307183	-0.036087	-0.889340	-10.008250	-34.798026	-135.376312
34442		5.613892	-1.446823	7.964237	-0.022046	0.036006	0.038017	0.004710	-0.001643	-0.008240	-0.966064	0.507080	-0.671631	0.056138	-0.014472	0.079642	0.336768	-0.307180	-0.036091	-0.889340	-10.007669	-34.797906	-135.376253
34443		5.619296	-1.391667	7.959738	0.006432	-0.010756	0.029594	0.006616	0.000667	-0.011540	-0.967285	0.506592	-0.668457	0.056192	-0.013923	0.079597	0.336774	-0.307161	-0.036109	-0.889343	-10.004627	-34.796595	-135.376750
34444		5.596625	-1.389248	7.951230	0.016498	-0.001811	0.009431	0.004432	-0.001071	-0.006347	-0.968750	0.499756	-0.667969	0.055965	-0.013896	0.079512	0.336785	-0.307157	-0.036108	-0.889341	-10.004908	-34.795964	-135.375459
34445		5.608047	-1.430672	7.983784	0.000969	0.032467	0.048183	0.004562	-0.002244	-0.014293	-0.964600	0.505371	-0.666016	0.056079	-0.014313	0.079838	0.336767	-0.307156	-0.036123	-0.889347	-10.002178	-34.796702	-135.378568
34446		5.649921	-1.437266	7.941393	-0.049826	0.002094	0.038737	0.005417	-0.002188	-0.005978	-0.966064	0.499268	-0.664795	0.056498	-0.014376	0.079414	0.336780	-0.307155	-0.036128	-0.889343	-10.002117	-34.796664	-135.376888
34447		5.620829	-1.421653	7.952305	-0.017589	0.009796	0.028734	0.004326	0.000901	-0.011395	-0.970703	0.501709	-0.671387	0.056208	-0.014221	0.079522	0.336775	-0.307140	-0.036132	-0.889349	-10.000485	-34.795365	-135.378314
34448		5.627444	-1.434104	7.932888	-0.039467	0.010268	0.018580	0.002421	-0.001409	-0.008094	-0.963379	0.495605	-0.670898	0.056273	-0.014344	0.079329	0.336775	-0.307141	-0.036126	-0.889349	-10.001256	-34.795098	-135.378182
34449		5.608267	-1.393590	7.991230	0.027295	0.005838	0.049044	0.003727	-0.000526	-0.008613	-0.969482	0.507324	-0.657227	0.056082	-0.013940	0.079912	0.336773	-0.307133	-0.036125	-0.889353	-10.000883	-34.794221	-135.378659
34450		5.637737	-1.407473	7.980360	-0.004352	-0.003397	0.059049	0.004006	-0.001099	-0.010508	-0.972412	0.504639	-0.657959	0.056376	-0.014079	0.079804	0.336765	-0.307129	-0.036128	-0.889357	-9.999779	-34.794020	-135.380223
34451		5.644470	-1.419930	7.960860	-0.026154	-0.002935	0.048897	0.003406	-0.002526	-0.007725	-0.975098	0.506104	-0.654785	0.056443	-0.014203	0.079609	0.336767	-0.307136	-0.036126	-0.889354	-10.000626	-34.794627	-135.379557
34452		5.608878	-1.390994	7.991254	0.028243	0.003576	0.049042	0.007644	0.002122	-0.010171	-0.975586	0.500732	-0.655029	0.056089	-0.013916	0.079911	0.336765	-0.307111	-0.036139	-0.889363	-9.997347	-34.792575	-135.381280
34453		5.672057	-1.331528	7.972468	0.018177	-0.083676	0.061426	0.004007	-0.001099	-0.010509	-0.970215	0.500000	-0.651611	0.056719	-0.013320	0.079725	0.336739	-0.307112	-0.036137	-0.889372	-9.996582	-34.792837	-135.384906
34454		5.739340	-1.157111	7.753935	-0.027133	-0.315825	-0.101768	-0.000271	-0.000408	-0.025103	-0.985596	0.498779	-0.641357	0.057392	-0.011578	0.077539	0.336659	-0.307109	-0.036143	-0.889404	-9.992158	-34.793698	-135.396582
34455		6.813193	-0.636051	7.418987	-0.506407	-1.425833	0.166094	0.011368	-0.016987	-0.027723	-0.973145	0.502686	-0.643066	0.068125	-0.006374	0.074195	0.336545	-0.307168	-0.036220	-0.889423	-9.981494	-34.804886	-135.412520
34456		6.948235	-0.727902	6.975679	-0.874174	-1.551384	-0.102027	0.004312	-0.000877	-0.025407	-0.986328	0.491943	-0.642090	0.069481	-0.007289	0.069757	0.336470	-0.307159	-0.036248	-0.889453	-9.974355	-34.806039	-135.424351
34457		6.702722	-0.642231	7.296492	-0.510606	-1.387715	0.005218	0.013265	-0.005782	-0.020067	-0.985596	0.498047	-0.638428	0.067024	-0.006434	0.072966	0.336413	-0.307163	-0.036309	-0.889471	-9.964670	-34.809801	-135.434273
34458		6.321747	-1.022843	7.552808	-0.390579	-0.804221	0.049172	0.006540	-0.004479	-0.013565	-0.992920	0.502930	-0.635010	0.063215	-0.010235	0.075529	0.336394	-0.307168	-0.036334	-0.889475	-9.961148	-34.811810	-135.437531
34459		6.119294	-1.136846	7.655945	-0.289395	-0.571438	0.033194	0.007365	0.002697	-0.008284	-0.991943	0.495361	-0.633057	0.061194	-0.011374	0.076558	0.336400	-0.307143	-0.036343	-0.889482	-9.958780	-34.809309	-135.438131
34460		5.659675	-1.249468	7.886995	0.029889	-0.157621	-0.026368	0.001345	0.003457	0.000486	-0.997803	0.496826	-0.625977	0.056598	-0.012495	0.078869	0.336437	-0.307125	-0.036310	-0.889475	-9.963200	-34.805447	-135.432690
34461		5.547775	-1.536351	8.137700	0.048227	0.195702	0.153241	0.003371	-0.005100	-0.008736	-1.001465	0.500244	-0.637451	0.055475	-0.015367	0.081378	0.336434	-0.307140	-0.036315	-0.889471	-9.963468	-34.807377	-135.432532
34462		5.639604	-1.548114	7.961827	-0.104334	0.104357	0.065101	0.003371	-0.005100	-0.008737	-0.996338	0.497559	-0.625977	0.056393	-0.015485	0.079619	0.336431	-0.307155	-0.036320	-0.889467	-9.963698	-34.809258	-135.432397
34463		5.656768	-1.452072	7.932995	-0.069736	0.012947	0.037942	0.005555	-0.003363	-0.013938	-1.002930	0.502930	-0.624756	0.056565	-0.014527	0.079330	0.336409	-0.307158	-0.036339	-0.889473	-9.960556	-34.810721	-135.436022
34464		5.762465	-1.433587	7.864155	-0.156136	-0.080403	0.039990	0.006262	-0.003906	-0.011673	-1.005859	0.487793	-0.619385	0.057622	-0.014342	0.078642	0.336398	-0.307162	-0.036360	-0.889475	-9.957895	-34.812219	-135.438049
34465		5.779173	-1.420418	7.892130	-0.143411	-0.092120	0.070282	0.007180	-0.000480	-0.015350	-1.003906	0.494629	-0.622314	0.057790	-0.014211	0.078921	0.336373	-0.307149	-0.036384	-0.889488	-9.953071	-34.812196	-135.442992
34466		5.927725	-1.269287	7.870095	-0.148467	-0.299274	0.115847	0.011967	-0.006666	-0.019558	-1.003174	0.488770	-0.618408	0.059273	-0.012703	0.078702	0.336335	-0.307155	-0.036446	-0.889498	-9.944236	-34.816032	-135.450107
34467		5.785789	-1.279603	7.830469	-0.092674	-0.219246	0.004254	0.006506	-0.007054	-0.014578	-1.014648	0.497070	-0.616455	0.057854	-0.012803	0.078306	0.336310	-0.307173	-0.036477	-0.889500	-9.940552	-34.819647	-135.453727
34468		5.873004	-1.254683	7.812333	-0.137732	-0.292705	0.035881	0.008092	-0.006744	-0.016996	-1.011230	0.489502	-0.606689	0.058726	-0.012555	0.078125	0.336278	-0.307185	-0.036518	-0.889506	-9.934948	-34.823272	-135.459073
34469		5.930265	-1.181305	7.812408	-0.125633	-0.381226	0.058286	0.008481	-0.009286	-0.013841	-1.017090	0.495117	-0.612305	0.059298	-0.011820	0.078126	0.336260	-0.307210	-0.036561	-0.889503	-9.930571	-34.828077	-135.461917
34470		5.730027	-1.280044	7.843910	-0.053128	-0.180883	-0.016611	0.000841	-0.001722	-0.005689	-1.009277	0.484375	-0.611084	0.057299	-0.012802	0.078440	0.336267	-0.307215	-0.036544	-0.889499	-9.933214	-34.827751	-135.460094
34471		5.741889	-1.321487	7.876283	-0.068643	-0.146676	0.022211	0.006191	-0.009055	-0.013692	-1.015381	0.483398	-0.605469	0.057414	-0.013221	0.078765	0.336246	-0.307242	-0.036576	-0.889496	-9.930189	-34.832415	-135.462864
34472		5.585959	-1.438519	7.996319	0.012866	0.066696	0.046764	0.004924	-0.007365	-0.012166	-1.020996	0.497803	-0.605469	0.055856	-0.014391	0.079965	0.336230	-0.307264	-0.036597	-0.889494	-9.928338	-34.835913	-135.464816
34473		5.512285	-1.502454	8.046155	0.042678	0.173623	0.053989	0.016760	-0.022540	-0.021747	-1.020752	0.490479	-0.604736	0.055112	-0.015037	0.080467	0.336187	-0.307332	-0.036710	-0.889482	-9.917017	-34.848984	-135.471503
34474		5.382690	-1.685849	8.159286	0.063977	0.424388	0.097166	0.033393	-0.034211	-0.037586	-1.015137	0.490723	-0.600830	0.053810	-0.016882	0.081599	0.336097	-0.307421	-0.036942	-0.889476	-9.890701	-34.870139	-135.487718
34475		5.444181	-1.525080	8.100639	0.097979	0.256231	0.062031	0.049655	-0.072412	-0.050498	-1.013672	0.493896	-0.604492	0.054409	-0.015285	0.081022	0.335967	-0.307650	-0.037330	-0.889429	-9.852619	-34.914176	-135.508238
34476		5.866289	-1.294690	7.929490	-0.093670	-0.200443	0.133036	0.060392	-0.087089	-0.066580	-1.011963	0.485107	-0.600830	0.058624	-0.012990	0.079317	0.335780	-0.307923	-0.037815	-0.889385	-9.802963	-34.968001	-135.538163
34477		6.027671	-1.324046	7.786687	-0.278447	-0.298722	0.114630	0.037890	-0.087338	-0.061931	-1.020508	0.489014	-0.607910	0.060239	-0.013274	0.077891	0.335578	-0.308236	-0.038194	-0.889337	-9.768030	-35.021553	-135.564896
34478		5.965188	-1.329547	7.828093	-0.220385	-0.237725	0.113294	0.022771	-0.082318	-0.064570	-1.015869	0.484375	-0.600586	0.059615	-0.013324	0.078304	0.335342	-0.308551	-0.038500	-0.889303	-9.740284	-35.072457	-135.594123
34479		5.855311	-1.348987	7.924454	-0.114305	-0.124710	0.130792	0.014988	-0.075373	-0.062493	-1.026611	0.486816	-0.595459	0.058519	-0.013514	0.079266	0.335105	-0.308849	-0.038758	-0.889278	-9.717341	-35.119292	-135.622755
34480		6.124057	-1.019003	7.753782	-0.152607	-0.572436	0.102584	0.012405	-0.077151	-0.061484	-1.013428	0.495361	-0.597656	0.061208	-0.010214	0.077561	0.334867	-0.309159	-0.039005	-0.889249	-9.696320	-35.166960	-135.650547
34481		6.008394	-1.060864	7.862115	-0.049565	-0.437069	0.129425	-0.008835	-0.079879	-0.045266	-1.020020	0.491943	-0.592041	0.060050	-0.010619	0.078646	0.334669	-0.309520	-0.039137	-0.889192	-9.694112	-35.214669	-135.666809
34482		6.044968	-1.074087	7.845686	-0.081167	-0.446379	0.139410	-0.021447	-0.093865	-0.037901	-1.023682	0.478760	-0.597168	0.060411	-0.010744	0.078486	0.334480	-0.309965	-0.039225	-0.889104	-9.702973	-35.269497	-135.676360
34483		6.041778	-1.065483	7.799762	-0.090239	-0.458486	0.099743	-0.023430	-0.094990	-0.026649	-1.023926	0.485840	-0.589355	0.060379	-0.010654	0.078028	0.334339	-0.310422	-0.039289	-0.888995	-9.717571	-35.323951	-135.677956
34484		6.035011	-1.129791	7.680139	-0.181362	-0.433600	0.008790	-0.018798	-0.081373	-0.013962	-1.023193	0.484619	-0.591553	0.060318	-0.011295	0.076827	0.334264	-0.310812	-0.039331	-0.888885	-9.733643	-35.369412	-135.672396
34485		6.032317	-1.223160	7.613531	-0.266127	-0.375019	-0.033149	-0.015023	-0.065256	-0.008584	-1.023926	0.491211	-0.594727	0.060298	-0.012228	0.076156	0.334221	-0.311125	-0.039355	-0.888790	-9.748635	-35.405331	-135.664980
34486		5.967646	-1.269073	7.649459	-0.233317	-0.290433	-0.035224	-0.002412	-0.039771	-0.003952	-1.023193	0.483398	-0.583252	0.059661	-0.012691	0.076507	0.334224	-0.311305	-0.039384	-0.888725	-9.756490	-35.426326	-135.657408
34487		5.940471	-1.254635	7.658961	-0.201087	-0.282625	-0.045257	-0.002295	-0.014620	0.000138	-1.022705	0.483398	-0.584961	0.059399	-0.012545	0.076594	0.334250	-0.311374	-0.039366	-0.888692	-9.764208	-35.432811	-135.649963
34488		5.745329	-1.350844	7.752299	-0.097201	-0.072005	-0.070147	0.000141	0.012883	0.005085	-1.031250	0.487305	-0.584229	0.057459	-0.013507	0.077519	0.334307	-0.311317	-0.039305	-0.888693	-9.770595	-35.423195	-135.642402
34489		5.606114	-1.392744	7.767792	-0.035216	0.041953	-0.132613	0.006334	0.030165	0.003365	-1.035889	0.478760	-0.579346	0.056073	-0.013929	0.077669	0.334370	-0.311174	-0.039246	-0.888722	-9.771566	-35.404081	-135.638064
34490		5.652423	-1.322237	7.860487	0.027672	-0.015355	-0.041073	0.014819	0.032376	0.001452	-1.036865	0.484375	-0.577881	0.056537	-0.013228	0.078595	0.334437	-0.311005	-0.039223	-0.888757	-9.766734	-35.383811	-135.635348
34491		5.753527	-1.220116	7.735855	-0.036669	-0.188343	-0.096804	0.017391	0.031574	-0.000622	-1.028320	0.478027	-0.582764	0.057547	-0.012208	0.077348	0.334500	-0.310836	-0.039216	-0.888793	-9.759672	-35.364289	-135.633938
34492		5.722960	-1.237744	7.741472	-0.029697	-0.156968	-0.107578	0.021619	0.023969	-0.002098	-1.035889	0.484131	-0.577393	0.057239	-0.012386	0.077407	0.334561	-0.310692	-0.039243	-0.888819	-9.750102	-35.349112	-135.632674
34493		5.714241	-1.395057	7.666869	-0.164982	-0.051273	-0.150919	0.037884	0.032272	-0.020214	-1.032959	0.477539	-0.584961	0.057153	-0.013971	0.076657	0.334568	-0.310482	-0.039357	-0.888885	-9.723409	-35.331097	-135.644899
34494		5.659621	-1.472639	7.800741	-0.116458	0.078311	-0.064260	0.058574	0.036161	-0.032721	-1.035400	0.474854	-0.582275	0.056608	-0.014758	0.077993	0.334552	-0.310216	-0.039576	-0.888974	-9.679584	-35.311992	-135.666257
34495		5.639795	-1.493081	7.847559	-0.100080	0.121012	-0.035362	0.070510	0.038412	-0.041429	-1.041504	0.485596	-0.583252	0.056410	-0.014970	0.078459	0.334517	-0.309920	-0.039857	-0.889078	-9.625326	-35.292534	-135.693849
34496		5.853878	-1.321827	7.780647	-0.162537	-0.148060	0.011020	0.087167	0.039011	-0.058465	-1.033936	0.467773	-0.581299	0.058550	-0.013269	0.077789	0.334432	-0.309588	-0.040238	-0.889208	-9.554678	-35.274242	-135.733302
34497		6.009851	-1.425527	7.762106	-0.337588	-0.156852	0.100039	0.097905	0.048102	-0.063653	-1.033203	0.472900	-0.591064	0.060113	-0.014312	0.077600	0.334342	-0.309198	-0.040659	-0.889359	-9.475253	-35.251361	-135.777327
34498		5.784906	-1.324089	7.815797	-0.126410	-0.086527	-0.000371	0.115235	0.054520	-0.068468	-1.032471	0.469727	-0.576172	0.057866	-0.013306	0.078135	0.334258	-0.308749	-0.041154	-0.889523	-9.383576	-35.225152	-135.825400
34499		5.844646	-1.334205	7.858133	-0.158310	-0.094352	0.069431	0.133398	0.055879	-0.066977	-1.031006	0.470459	-0.581055	0.058464	-0.013414	0.078556	0.334210	-0.308264	-0.041726	-0.889683	-9.282080	-35.198073	-135.872491
34500		5.707883	-1.356409	7.936758	-0.064810	0.029756	0.056800	0.141570	0.063186	-0.071190	-1.026855	0.466309	-0.584473	0.057099	-0.013641	0.079340	0.334156	-0.307731	-0.042327	-0.889859	-9.173790	-35.167075	-135.923275
34501		5.860322	-1.115930	7.900172	-0.038123	-0.245703	0.083753	0.143419	0.054433	-0.065598	-1.038574	0.463379	-0.569824	0.058621	-0.011235	0.078978	0.334129	-0.307236	-0.042944	-0.890011	-9.067324	-35.140548	-135.969093
34502		5.798100	-1.023558	7.861811	0.022696	-0.285224	0.005247	0.135685	0.051675	-0.061498	-1.039307	0.462402	-0.579346	0.057998	-0.010307	0.078596	0.334106	-0.306766	-0.043523	-0.890154	-8.967132	-35.115041	-136.011734
34503		5.707707	-1.097393	8.020787	0.100069	-0.124751	0.091334	0.127288	0.039767	-0.057562	-1.034180	0.466553	-0.579834	0.057090	-0.011041	0.080190	0.334086	-0.306364	-0.044080	-0.890272	-8.874131	-35.095974	-136.050258
34504		5.798367	-1.073385	7.986245	0.032977	-0.197148	0.112702	0.122466	0.025945	-0.055302	-1.039551	0.460449	-0.580078	0.057991	-0.010799	0.079848	0.334065	-0.306031	-0.044634	-0.890367	-8.785659	-35.084376	-136.085725
34505		5.871412	-0.946444	7.872136	0.000639	-0.361522	0.046778	0.114667	0.018030	-0.053137	-1.031738	0.465576	-0.574219	0.058719	-0.009525	0.078711	0.334040	-0.305748	-0.045164	-0.890447	-8.703037	-35.077136	-136.118790
34506		5.761887	-1.006801	7.948836	0.059156	-0.223650	0.053591	0.102779	0.006124	-0.042327	-1.034912	0.458740	-0.581299	0.057619	-0.010121	0.079481	0.334042	-0.305540	-0.045644	-0.890493	-8.632241	-35.075562	-136.143139
34507		5.620451	-1.141998	8.034551	0.096008	-0.007768	0.058400	0.094811	-0.000533	-0.032123	-1.026611	0.457520	-0.568115	0.056202	-0.011467	0.080340	0.334076	-0.305377	-0.046085	-0.890513	-8.570483	-35.076974	-136.159691
34508		5.754100	-1.095384	7.962098	0.003156	-0.133422	0.070972	0.098695	-0.005632	-0.036772	-1.037354	0.445068	-0.564697	0.057537	-0.011004	0.079617	0.334094	-0.305229	-0.046558	-0.890533	-8.504940	-35.081544	-136.178969
34509		6.051529	-0.963759	7.668458	-0.246550	-0.480896	-0.011512	0.095128	-0.003720	-0.035112	-1.047119	0.458984	-0.572021	0.060512	-0.009685	0.076681	0.334114	-0.305079	-0.047010	-0.890553	-8.441993	-35.084984	-136.197267
34510		5.923174	-0.938071	7.736889	-0.124769	-0.402579	-0.032822	0.077576	0.000776	-0.024404	-1.039551	0.453857	-0.575439	0.059231	-0.009418	0.077365	0.334156	-0.304940	-0.047359	-0.890567	-8.393088	-35.084851	-136.208648
34511		5.722736	-1.096057	7.909275	-0.020864	-0.113560	0.010466	0.055404	0.005717	-0.013328	-1.038086	0.451904	-0.569580	0.057229	-0.010986	0.079088	0.334215	-0.304819	-0.047585	-0.890574	-8.361012	-35.081105	-136.212825
34512		5.690467	-1.009196	7.934206	0.061853	-0.152752	0.001809	0.045903	0.007187	-0.010736	-1.040771	0.439453	-0.567871	0.056907	-0.010113	0.079338	0.334270	-0.304708	-0.047762	-0.890581	-8.335323	-35.076190	-136.215389
34513		5.745142	-0.885159	7.868585	0.070873	-0.297196	-0.034577	0.027905	0.011611	-0.004173	-1.043945	0.455078	-0.565918	0.057456	-0.008864	0.078681	0.334329	-0.304610	-0.047841	-0.890589	-8.322305	-35.068341	-136.213818
34514		5.628566	-0.941484	7.964015	0.151532	-0.160510	-0.017589	0.010903	0.014931	0.002767	-1.030762	0.440918	-0.569580	0.056292	-0.009418	0.079635	0.334394	-0.304525	-0.047829	-0.890594	-8.321594	-35.057914	-136.207810
34515		5.729343	-0.808916	7.843694	0.112611	-0.356974	-0.072917	-0.013289	0.022092	0.013123	-1.044678	0.439697	-0.568604	0.057303	-0.008080	0.078431	0.334470	-0.304453	-0.047681	-0.890598	-8.338439	-35.042689	-136.195327
34516		5.696206	-0.811788	7.927609	0.173367	-0.316721	-0.023797	-0.037736	0.035020	0.027346	-1.039551	0.445068	-0.569336	0.056977	-0.008095	0.079268	0.334574	-0.304367	-0.047381	-0.890604	-8.374182	-35.018826	-136.174356
34517		5.625433	-0.896819	7.962291	0.180814	-0.208517	-0.026387	-0.058901	0.041448	0.039773	-1.039063	0.454590	-0.570557	0.056273	-0.008934	0.079614	0.334704	-0.304291	-0.046957	-0.890604	-8.426573	-34.990388	-136.145441
34518		5.812389	-0.910590	7.941477	0.052794	-0.319106	0.065343	-0.066070	0.045283	0.043150	-1.048828	0.441895	-0.553711	0.058144	-0.009067	0.079405	0.334838	-0.304210	-0.046490	-0.890606	-8.484158	-34.959346	-136.114659
34519		5.856434	-1.036334	8.012090	-0.013517	-0.236595	0.162744	-0.075301	0.040990	0.041825	-1.038330	0.439209	-0.567627	0.058583	-0.010321	0.080113	0.334952	-0.304164	-0.045991	-0.890605	-8.546702	-34.930948	-136.084370
34520		6.027302	-1.074840	7.753603	-0.268000	-0.387396	0.055449	-0.069694	0.036852	0.040834	-1.043701	0.452881	-0.562744	0.060289	-0.010709	0.077529	0.335068	-0.304126	-0.045525	-0.890598	-8.605867	-34.904828	-136.054411
34521		5.875147	-1.213920	7.858834	-0.209078	-0.172717	0.070565	-0.065434	0.044081	0.039243	-1.042236	0.442627	-0.559814	0.058771	-0.012102	0.078579	0.335185	-0.304049	-0.045068	-0.890603	-8.661473	-34.874855	-136.026321
34522		5.740855	-1.407352	7.978383	-0.188225	0.077928	0.114605	-0.054285	0.048062	0.036166	-1.042725	0.447510	-0.559326	0.057430	-0.014041	0.079774	0.335307	-0.303934	-0.044659	-0.890617	-8.709220	-34.842743	-136.000849
34523		5.900951	-1.317912	7.970048	-0.230700	-0.093440	0.188204	-0.055064	0.053077	0.029751	-1.034912	0.445801	-0.555908	0.059033	-0.013148	0.079688	0.335400	-0.303797	-0.044248	-0.890650	-8.754529	-34.808465	-135.980343
34524		5.951525	-1.358110	7.891807	-0.325794	-0.121517	0.158512	-0.044392	0.049235	0.019550	-1.039063	0.444824	-0.558838	0.059536	-0.013558	0.078906	0.335462	-0.303656	-0.043906	-0.890691	-8.789929	-34.777109	-135.966533
34525		6.028520	-1.309662	7.823586	-0.376944	-0.228771	0.140822	-0.029785	0.050635	0.008729	-1.047852	0.446533	-0.557373	0.060306	-0.013082	0.078223	0.335499	-0.303483	-0.043644	-0.890749	-8.812588	-34.746041	-135.960320
34526		5.781267	-1.527099	7.893181	-0.332953	0.094640	0.083654	-0.012836	0.042146	-0.000110	-1.043701	0.441406	-0.557373	0.057829	-0.015266	0.078921	0.335521	-0.303317	-0.043485	-0.890805	-8.822587	-34.720417	-135.959337
34527		5.905867	-1.320654	7.857314	-0.299311	-0.148682	0.099380	0.013469	0.043771	-0.018726	-1.043701	0.441406	-0.552490	0.059075	-0.013217	0.078559	0.335499	-0.303096	-0.043468	-0.890889	-8.810105	-34.695649	-135.971311
34528		5.510001	-1.524072	8.116131	-0.064103	0.306151	0.109845	0.023987	0.028935	-0.019761	-1.037354	0.437256	-0.556152	0.055110	-0.015256	0.081152	0.335486	-0.302922	-0.043525	-0.890950	-8.792112	-34.679228	-135.982443
34529		5.524383	-1.425528	8.087306	-0.029290	0.214999	0.082179	0.033936	0.008200	-0.033027	-1.031006	0.439209	-0.554199	0.055245	-0.014278	0.080868	0.335424	-0.302823	-0.043681	-0.891000	-8.764476	-34.675847	-136.000456
34530		5.683357	-1.155909	8.112012	0.054666	-0.073981	0.158920	0.038586	-0.001912	-0.031221	-1.035889	0.446045	-0.555420	0.056831	-0.011584	0.081118	0.335375	-0.302759	-0.043871	-0.891031	-8.735501	-34.677885	-136.016190
34531		5.936948	-1.075450	7.867328	-0.172109	-0.346010	0.094353	0.038908	-0.014755	-0.031975	-1.044922	0.435059	-0.553711	0.059362	-0.010779	0.078676	0.335321	-0.302754	-0.044086	-0.891042	-8.706810	-34.687396	-136.031051
34532		6.147914	-0.894720	7.815717	-0.211854	-0.616521	0.150135	0.034407	-0.016232	-0.026558	-1.041504	0.435059	-0.547852	0.061472	-0.008969	0.078161	0.335283	-0.302762	-0.044275	-0.891044	-8.682909	-34.697128	-136.042070
34533		6.236811	-0.958760	7.645582	-0.392621	-0.662055	0.070607	0.042646	-0.013426	-0.026618	-1.044678	0.428955	-0.547363	0.062362	-0.009612	0.076458	0.335258	-0.302745	-0.044497	-0.891048	-8.654082	-34.705421	-136.053392
34534		5.958042	-1.141538	7.742859	-0.294663	-0.331137	0.013643	0.047967	0.003035	-0.023875	-1.042480	0.430908	-0.549072	0.059580	-0.011441	0.077425	0.335257	-0.302646	-0.044709	-0.891072	-8.622306	-34.704000	-136.064593
34535		5.773174	-1.191613	7.811625	-0.185065	-0.164785	-0.029561	0.048922	0.011593	-0.025662	-1.043945	0.434082	-0.550049	0.057735	-0.011943	0.078110	0.335252	-0.302508	-0.044916	-0.891111	-8.588763	-34.698037	-136.077874
34536		5.736122	-1.158328	7.842682	-0.130682	-0.158075	-0.029517	0.046249	0.016901	-0.027728	-1.049561	0.435547	-0.543457	0.057366	-0.011609	0.078419	0.335234	-0.302348	-0.045103	-0.891162	-8.555645	-34.689078	-136.093166
34537		5.541288	-1.127276	7.944560	0.051661	-0.039908	-0.061360	0.044966	0.018597	-0.026215	-1.048096	0.427002	-0.539307	0.055419	-0.011298	0.079438	0.335222	-0.302185	-0.045281	-0.891213	-8.523749	-34.679185	-136.107542
34538		5.621182	-1.010907	8.019689	0.111309	-0.151867	0.031071	0.037717	0.012094	-0.026771	-1.041992	0.429443	-0.530273	0.056215	-0.010132	0.080192	0.335194	-0.302062	-0.045437	-0.891257	-8.496189	-34.672856	-136.121664
34539		5.767576	-0.997069	7.909697	-0.025736	-0.275237	0.023265	0.031887	0.007151	-0.021777	-1.047363	0.423096	-0.538086	0.057677	-0.009990	0.079093	0.335179	-0.301973	-0.045569	-0.891286	-8.474203	-34.669062	-136.131792
34540		5.818276	-1.082612	7.835843	-0.149195	-0.257533	0.002415	0.025973	0.006703	-0.020906	-1.042969	0.423584	-0.539795	0.058184	-0.010842	0.078355	0.335159	-0.301894	-0.045673	-0.891315	-8.455991	-34.665284	-136.141312
34541		5.638046	-1.162817	7.957291	-0.033298	-0.057630	0.008401	0.013600	0.019878	-0.029637	-1.048340	0.424316	-0.535645	0.056387	-0.011642	0.079567	0.335085	-0.301777	-0.045714	-0.891380	-8.440664	-34.654938	-136.158154
34542		5.699721	-1.183371	7.996965	-0.065103	-0.065739	0.078222	0.009201	0.019085	-0.018109	-1.044189	0.421387	-0.533447	0.057004	-0.011843	0.079964	0.335054	-0.301672	-0.045719	-0.891427	-8.432443	-34.643903	-136.167008
34543		5.620380	-1.205284	7.925505	-0.070501	-0.024503	-0.022415	0.006734	0.028287	-0.026209	-1.039063	0.424561	-0.537842	0.056213	-0.012063	0.079247	0.334986	-0.301530	-0.045710	-0.891501	-8.421914	-34.628498	-136.182336
34544		5.645663	-1.150071	7.929876	-0.051492	-0.080918	-0.011161	0.005106	0.022824	-0.025725	-1.045898	0.414063	-0.530762	0.056464	-0.011510	0.079292	0.334917	-0.301414	-0.045701	-0.891567	-8.412850	-34.615981	-136.196810
34545		5.773429	-1.057937	7.943753	-0.064956	-0.221453	0.061606	-0.000823	0.019787	-0.025833	-1.050049	0.417725	-0.524658	0.057741	-0.010587	0.079432	0.334837	-0.301322	-0.045672	-0.891629	-8.407302	-34.605360	-136.211003
34546		5.606586	-1.167348	8.026644	0.006469	-0.019136	0.047491	-0.008086	0.010693	-0.027355	-1.042480	0.411133	-0.515625	0.056069	-0.011678	0.080264	0.334738	-0.301281	-0.045628	-0.891683	-8.405868	-34.599852	-136.225358
34547		5.396005	-1.202176	8.164207	0.179469	0.165999	0.044118	-0.016550	0.001390	-0.022238	-1.044678	0.421631	-0.521973	0.053959	-0.012021	0.081643	0.334646	-0.301299	-0.045554	-0.891715	-8.411802	-34.599358	-136.235201
34548		5.742968	-1.089732	8.019958	-0.028877	-0.159228	0.110152	-0.015005	-0.011243	-0.029591	-1.045166	0.413818	-0.512939	0.057424	-0.010900	0.080204	0.334521	-0.301367	-0.045519	-0.891741	-8.414725	-34.606472	-136.248863
34549		5.862063	-1.064665	7.918569	-0.133996	-0.273972	0.092262	-0.012045	-0.022310	-0.031399	-1.040283	0.413818	-0.512939	0.058610	-0.010651	0.079193	0.334390	-0.301481	-0.045518	-0.891751	-8.415861	-34.620179	-136.262603
34550		5.918437	-0.957801	7.922498	-0.096227	-0.386072	0.114696	-0.027129	-0.034149	-0.028680	-1.045898	0.414551	-0.505859	0.059169	-0.009576	0.079236	0.334246	-0.301672	-0.045466	-0.891744	-8.427409	-34.640201	-136.273305
34551		5.515171	-1.164737	8.077201	0.097438	0.047876	0.036329	-0.039190	-0.044132	-0.022867	-1.041748	0.414551	-0.505615	0.055133	-0.011638	0.080786	0.334107	-0.301930	-0.045368	-0.891713	-8.448697	-34.665569	-136.278936
34552		5.461412	-1.172427	8.088331	0.136168	0.088024	0.015660	-0.051934	-0.051024	-0.018365	-1.035645	0.416992	-0.508789	0.054592	-0.011708	0.080900	0.333968	-0.302240	-0.045218	-0.891668	-8.479485	-34.694291	-136.280787
34553		5.635935	-1.010963	7.996623	0.093829	-0.161550	0.020770	-0.062693	-0.065297	-0.015087	-1.039795	0.408447	-0.503662	0.056332	-0.010089	0.079988	0.333823	-0.302633	-0.045039	-0.891598	-8.518546	-34.730994	-136.278847
34554		5.617399	-1.029222	8.055124	0.132354	-0.120136	0.059878	-0.071422	-0.076612	-0.009102	-1.041016	0.415283	-0.497559	0.056143	-0.010266	0.080576	0.333689	-0.303091	-0.044830	-0.891503	-8.565675	-34.773428	-136.271614
34555		5.858200	-0.877159	7.928267	0.029413	-0.409414	0.075530	-0.067133	-0.089377	-0.012517	-1.043701	0.399902	-0.492920	0.058546	-0.008749	0.079312	0.333544	-0.303600	-0.044668	-0.891392	-8.609763	-34.823552	-136.265322
34556		5.645974	-1.376254	7.975537	-0.120077	0.113223	0.054077	-0.054767	-0.110317	-0.026065	-1.049316	0.407227	-0.496826	0.056414	-0.013748	0.079790	0.333352	-0.304177	-0.044616	-0.891270	-8.642735	-34.886528	-136.266184
34557		5.495131	-1.569918	8.449692	0.103512	0.487939	0.376012	-0.043384	-0.127568	-0.039034	-1.049561	0.404785	-0.488037	0.054894	-0.015692	0.084535	0.333116	-0.304810	-0.044663	-0.891140	-8.665082	-34.960566	-136.274116
34558		5.598586	-1.861427	8.242092	-0.232273	0.605478	0.302676	-0.041930	-0.171215	-0.077728	-1.051025	0.410400	-0.483154	0.055908	-0.018619	0.082473	0.332699	-0.305625	-0.044848	-0.891007	-8.673915	-35.062498	-136.304228
34559		5.874088	-1.673100	7.973054	-0.401968	0.241763	0.219943	-0.039532	-0.211471	-0.120309	-1.048584	0.399414	-0.479248	0.058646	-0.016751	0.079796	0.332088	-0.306607	-0.045176	-0.890881	-8.666757	-35.191075	-136.359578
34560		6.030836	-1.298550	7.903246	-0.282736	-0.138838	0.208253	-0.029047	-0.235385	-0.136950	-1.041992	0.401123	-0.473877	0.060206	-0.013015	0.079105	0.331412	-0.307672	-0.045616	-0.890743	-8.648226	-35.334457	-136.424114
34561		5.782514	-1.141512	8.214605	0.140663	-0.011393	0.296727	-0.032535	-0.283308	-0.141538	-1.046875	0.406250	-0.469238	0.057701	-0.011443	0.082230	0.330698	-0.308956	-0.046127	-0.890538	-8.632515	-35.505533	-136.486913
34562		5.630940	-1.338341	8.460620	0.259754	0.322235	0.429837	-0.023808	-0.359997	-0.148024	-1.043457	0.397949	-0.467529	0.056147	-0.013415	0.084709	0.329951	-0.310563	-0.046812	-0.890220	-8.613610	-35.720425	-136.546385
34563		5.248216	-1.684394	8.787828	0.472541	0.933335	0.507789	0.012706	-0.476076	-0.177512	-1.045166	0.398193	-0.459229	0.052258	-0.016896	0.088002	0.329100	-0.312620	-0.047898	-0.889757	-8.568466	-36.003739	-136.614507
34564		4.921907	-1.640891	9.473170	1.090201	1.327191	0.850719	0.023145	-0.634207	-0.235867	-1.041260	0.397461	-0.459229	0.048899	-0.016478	0.094885	0.327965	-0.315345	-0.049381	-0.889133	-8.502315	-36.381399	-136.707603
34565		5.813759	-2.249881	8.966284	-0.019899	1.225250	1.038744	0.007864	-0.851450	-0.323028	-1.062744	0.401611	-0.432861	0.057719	-0.022596	0.089908	0.326360	-0.319035	-0.051289	-0.888299	-8.420537	-36.889563	-136.840537
34566		5.371816	-1.893011	9.306628	0.709121	1.374376	0.988246	0.018539	-1.070814	-0.417563	-1.052246	0.396973	-0.429443	0.053179	-0.019050	0.093350	0.324287	-0.323648	-0.053752	-0.887243	-8.303500	-37.529631	-137.019952
34567		5.299562	-1.756613	9.446220	0.995760	1.454587	1.017494	0.050038	-1.299928	-0.531815	-1.062256	0.390869	-0.414307	0.052333	-0.017730	0.094799	0.321683	-0.329184	-0.056909	-0.885957	-8.128472	-38.308731	-137.261467
34568		5.331959	-1.872409	9.229396	0.889101	1.588614	0.855048	0.078499	-1.541948	-0.643146	-1.063965	0.374756	-0.402588	0.052545	-0.018930	0.092694	0.318545	-0.335694	-0.060760	-0.884391	-7.895084	-39.233235	-137.565658
34569		5.855769	-1.834656	9.039925	0.620955	1.377966	1.008044	0.161628	-1.761922	-0.767067	-1.068359	0.368164	-0.382813	0.057687	-0.018642	0.090895	0.314905	-0.342980	-0.065533	-0.882556	-7.558971	-40.291075	-137.949607
34570		5.850864	-1.716608	8.876246	0.726811	1.410926	0.838306	0.197345	-1.973833	-0.885606	-1.070313	0.363037	-0.358154	0.057552	-0.017510	0.089316	0.310702	-0.351069	-0.070993	-0.880440	-7.141550	-41.475975	-138.417755
34571		5.891905	-2.082437	9.129910	0.770309	1.969518	1.046785	0.197332	-2.179697	-1.017311	-1.078613	0.350830	-0.345215	0.057812	-0.021211	0.091912	0.305805	-0.359972	-0.076995	-0.878052	-6.646947	-42.784244	-138.989599
34572		6.398472	-2.057676	9.223330	0.715470	1.968197	1.405648	0.239996	-2.380795	-1.173737	-1.087402	0.346191	-0.322266	0.062758	-0.021059	0.092960	0.300171	-0.369574	-0.083761	-0.875383	-6.024488	-44.212671	-139.697084
34573		6.962714	-2.290165	9.714704	0.740767	2.340434	2.106338	0.233176	-2.574158	-1.332085	-1.086670	0.333008	-0.298340	0.068214	-0.023473	0.098004	0.293693	-0.379895	-0.091063	-0.872428	-5.283784	-45.754123	-140.558803
34574		7.212832	-3.069779	10.031323	0.543874	3.278147	2.476405	0.216981	-2.644176	-1.429622	-1.087891	0.319824	-0.272217	0.070572	-0.031315	0.101219	0.286662	-0.390418	-0.098563	-0.869301	-4.440593	-47.331698	-141.551887
34575		7.773374	-1.807748	10.117032	1.235320	2.353622	2.795633	0.148123	-2.681049	-1.477269	-1.100830	0.305908	-0.231201	0.076232	-0.018720	0.102185	0.279206	-0.401086	-0.105886	-0.866003	-3.540403	-48.921676	-142.649596
34576		8.389914	-3.906275	9.796626	-0.264436	4.016258	3.048484	0.076158	-2.600484	-1.501260	-1.101563	0.287109	-0.216309	0.082320	-0.039722	0.099028	0.271481	-0.411401	-0.112809	-0.862741	-2.585801	-50.454246	-143.846861
34577		8.404103	-5.164013	9.194837	-1.157564	5.124092	2.606301	0.292842	-2.482908	-1.620396	-1.099609	0.272705	-0.200195	0.082469	-0.052448	0.092902	0.263693	-0.420756	-0.120727	-0.859567	-1.333298	-51.906594	-145.241753
34578		8.673577	-2.393052	8.633076	0.047753	2.810217	2.335429	0.440223	-2.406470	-1.703871	-1.101807	0.265869	-0.178711	0.085480	-0.024854	0.087310	0.255844	-0.429445	-0.129327	-0.856385	0.169240	-53.294262	-146.818068
34579		8.929613	-2.240607	8.162398	-0.157703	2.709973	2.187468	0.374633	-2.351558	-1.680300	-1.100586	0.255859	-0.152588	0.088135	-0.023304	0.082622	0.247808	-0.437926	-0.137432	-0.853185	1.728946	-54.624659	-148.500929
34580		8.100255	-2.645196	8.110553	0.141171	3.572446	1.394507	0.358081	-2.206418	-1.656594	-1.101074	0.237305	-0.138916	0.079878	-0.027263	0.081943	0.240015	-0.445716	-0.145271	-0.850074	3.372328	-55.844643	-150.254040
34581		4.844442	-3.130989	9.602940	2.618633	5.817559	-0.605068	0.460489	-1.996189	-1.600325	-1.096191	0.219482	-0.123047	0.047230	-0.031913	0.096432	0.232696	-0.452469	-0.153087	-0.847165	5.129556	-56.916684	-152.063569
34582		4.590204	-4.958963	14.236873	5.108306	9.789913	1.430336	0.253635	-1.557689	-1.040235	-1.098389	0.207275	-0.114014	0.044532	-0.050004	0.142656	0.227690	-0.457959	-0.158284	-0.844617	6.329028	-57.744695	-153.318250
34583		1.671115	-8.493718	13.656595	4.335391	13.301983	-1.707236	-0.119316	-1.021657	-0.017930	-1.097412	0.203613	-0.095703	0.016005	-0.084857	0.136700	0.226467	-0.462408	-0.158894	-0.842404	6.370540	-58.324694	-153.462782
34584		-3.113965	-9.573365	11.852014	4.774446	14.502103	-6.861465	0.076631	-0.804512	0.583778	-1.095215	0.211914	-0.098145	-0.031336	-0.095870	0.118358	0.228489	-0.466171	-0.158739	-0.839809	5.941070	-58.818330	-152.910468
34585		-1.967622	-5.258331	13.439845	7.649259	11.367446	-4.870943	0.144880	-0.563182	1.061008	-1.097168	0.234619	-0.096191	-0.019775	-0.052785	0.134305	0.232748	-0.469227	-0.157412	-0.837183	5.057354	-59.196917	-151.800817
34586		-1.359539	-4.050235	13.903572	8.328956	10.441611	-4.053941	-0.032493	-0.085762	1.295366	-1.108643	0.251953	-0.105957	-0.013392	-0.040567	0.139037	0.238049	-0.470636	-0.154296	-0.835480	3.791043	-59.302492	-150.351452
34587		-2.029627	-2.941689	13.319024	8.785786	9.389040	-4.830266	-0.181711	0.395842	1.281880	-1.105225	0.267578	-0.124756	-0.019844	-0.029424	0.133257	0.243193	-0.470197	-0.149941	-0.835039	2.424610	-59.114516	-148.900258
34588		-1.332270	-1.795566	13.042353	8.879000	8.080270	-4.247334	-0.315477	0.818205	1.106452	-1.106201	0.283447	-0.141113	-0.012690	-0.017821	0.130504	0.247706	-0.467985	-0.144987	-0.835829	1.159487	-58.664849	-147.636195
34589		0.253303	-1.389105	13.013636	8.351400	7.207983	-2.766797	-0.459091	1.289037	0.885350	-1.121338	0.293701	-0.158203	0.003432	-0.013578	0.130148	0.251173	-0.463811	-0.139290	-0.838087	0.051960	-57.929918	-146.662003
34590		1.047101	-1.488258	12.617110	7.610011	6.752119	-2.131908	-0.593653	1.760743	0.627858	-1.118896	0.306885	-0.198242	0.011627	-0.014473	0.126115	0.253669	-0.457595	-0.133092	-0.841751	-0.849784	-56.917509	-145.998065
34591		1.582424	-1.839356	11.661188	6.430048	6.291145	-2.006254	-0.695976	2.145491	0.386011	-1.119385	0.311035	-0.210693	0.017109	-0.017956	0.116496	0.255004	-0.449693	-0.126435	-0.846619	-1.551354	-55.681815	-145.655683
34592		2.227619	-2.261476	10.786466	5.197109	5.881884	-1.762136	-0.783552	2.393925	0.217989	-1.117676	0.309814	-0.248779	0.023590	-0.022167	0.107675	0.255686	-0.440662	-0.119529	-0.852147	-2.124620	-54.305696	-145.506486
34593		3.387486	-2.809670	10.226350	3.845573	5.533765	-0.950988	-0.868498	2.541217	0.131443	-1.117920	0.327148	-0.278320	0.035190	-0.027631	0.101943	0.255857	-0.430979	-0.112233	-0.858020	-2.651602	-52.845319	-145.473642
34594		4.870540	-3.357716	9.882223	2.445388	5.140094	0.199638	-0.950269	2.649477	0.152100	-1.115479	0.329834	-0.318115	0.050035	-0.033071	0.098323	0.255952	-0.420872	-0.104392	-0.863978	-3.216236	-51.323521	-145.450765
34595		6.096494	-4.043861	9.421683	0.983115	4.875584	1.028993	-0.981347	2.728571	0.266433	-1.098877	0.335938	-0.353271	0.062298	-0.039896	0.093570	0.256464	-0.410429	-0.096043	-0.869799	-3.855398	-49.751037	-145.355087
34596		6.966814	-4.270473	8.824402	-0.168551	4.277243	1.426157	-0.968096	2.743398	0.442037	-1.092285	0.356445	-0.393311	0.070965	-0.042124	0.087481	0.257719	-0.399908	-0.087363	-0.875227	-4.575022	-48.163425	-145.139228
34597		7.777136	-4.043185	8.394068	-0.956617	3.359442	1.809770	-0.941183	2.685717	0.639353	-1.082764	0.365234	-0.423340	0.079019	-0.039788	0.083073	0.259810	-0.389597	-0.078449	-0.880090	-5.374175	-46.595782	-144.790270
34598		8.489428	-3.832907	8.158035	-1.581868	2.540930	2.201758	-0.919924	2.594046	0.833730	-1.081543	0.384277	-0.458008	0.086102	-0.037599	0.080643	0.262708	-0.379663	-0.069365	-0.884324	-6.242579	-45.067255	-144.317417
34599		8.907566	-3.552614	8.003281	-1.952083	1.789750	2.393654	-0.887695	2.488391	0.989315	-1.051025	0.395752	-0.480225	0.090237	-0.034729	0.079070	0.266264	-0.370123	-0.060240	-0.887966	-7.146457	-43.582109	-143.756249
34600		9.053468	-3.164556	7.809804	-2.124478	1.043586	2.326543	-0.847114	2.382975	1.104736	-1.037842	0.424072	-0.520264	0.091629	-0.030813	0.077142	0.270324	-0.360968	-0.051223	-0.891069	-8.052918	-42.143359	-143.140368
34601		9.066186	-2.741795	7.470325	-2.274263	0.291799	2.030159	-0.813470	2.256102	1.182723	-1.025635	0.436035	-0.537842	0.091656	-0.026577	0.073782	0.274709	-0.352277	-0.042364	-0.893667	-8.949407	-40.761538	-142.495010
34602		9.120992	-2.297055	7.122356	-2.420821	-0.481900	1.724070	-0.782352	2.109481	1.233882	-1.001953	0.456299	-0.566406	0.092093	-0.022128	0.070343	0.279299	-0.344157	-0.033761	-0.895772	-9.825067	-39.451938	-141.834880
34603		9.353098	-1.882617	6.751331	-2.682322	-1.301989	1.488123	-0.733274	1.958816	1.282081	-0.977783	0.461914	-0.575195	0.094304	-0.017978	0.066659	0.284120	-0.336588	-0.025487	-0.897405	-10.673096	-38.213508	-141.157525
34604		9.507945	-1.459775	6.429410	-2.841515	-2.063356	1.211443	-0.664997	1.813282	1.343367	-0.954590	0.488037	-0.596191	0.095752	-0.013744	0.063475	0.289271	-0.329542	-0.017632	-0.898562	-11.488070	-37.044048	-140.450240
34605		9.682939	-0.698202	6.238524	-2.735281	-3.071151	0.969085	-0.592991	1.681881	1.384701	-0.940674	0.502930	-0.606689	0.097394	-0.006126	0.061587	0.294675	-0.322934	-0.010208	-0.899320	-12.261790	-35.934361	-139.725732
34606		9.768198	0.236812	5.852966	-2.568564	-4.196331	0.459567	-0.554315	1.566311	1.409835	-0.922852	0.505615	-0.610596	0.098116	0.003220	0.057754	0.300214	-0.316758	-0.003098	-0.899737	-13.005440	-34.879897	-138.994041
34607		9.390477	1.029512	5.158267	-2.338586	-4.983944	-0.564124	-0.541511	1.423231	1.415792	-0.908447	0.511475	-0.631348	0.094192	0.011100	0.050884	0.305762	-0.311163	0.003760	-0.899819	-13.732769	-33.895522	-138.260986
34608		8.829081	1.852545	4.586298	-1.875541	-5.622269	-1.609754	-0.544465	1.204371	1.400598	-0.893311	0.524902	-0.631104	0.088431	0.019268	0.045279	0.311211	-0.306533	0.010262	-0.899489	-14.453104	-33.028637	-137.524174
34609		8.993663	2.557408	4.259103	-1.755212	-6.491349	-2.044481	-0.601110	0.935596	1.450287	-0.877441	0.537109	-0.629150	0.089945	0.026353	0.042092	0.316782	-0.303162	0.016686	-0.898590	-15.230028	-32.294129	-136.728184
34610		9.375897	2.600232	3.935557	-2.100155	-6.943434	-2.227687	-0.660036	0.685470	1.582613	-0.869629	0.547363	-0.637451	0.093683	0.026873	0.038947	0.322853	-0.300980	0.023167	-0.897017	-16.091997	-31.668866	-135.818739
34611		9.573525	1.933830	3.401633	-2.819771	-6.760606	-2.511794	-0.641650	0.467899	1.734675	-0.855713	0.568848	-0.638428	0.095641	0.020277	0.033728	0.329629	-0.299692	0.029451	-0.894797	-16.999857	-31.125310	-134.787191
34612		9.561411	1.131986	2.718542	-3.556909	-6.371398	-2.968493	-0.512150	0.258153	1.851040	-0.843262	0.582031	-0.639893	0.095538	0.012274	0.027031	0.337121	-0.299091	0.034972	-0.892004	-17.876870	-30.663911	-133.654765
34613		9.830463	1.168208	2.176173	-3.885412	-6.784188	-3.361832	-0.328150	0.053791	1.931363	-0.836426	0.587891	-0.632568	0.098191	0.012666	0.021715	0.345249	-0.299042	0.039452	-0.888718	-18.682582	-30.284014	-132.442136
34614		10.986531	1.731759	2.111699	-4.121400	-8.099985	-3.062721	-0.178476	-0.075732	2.025294	-0.836426	0.604736	-0.639404	0.109674	0.018448	0.021142	0.354010	-0.299268	0.043173	-0.885015	-19.433749	-29.943547	-131.152984
34615		11.814742	1.286239	2.112144	-4.699087	-8.461561	-2.600243	0.016169	-0.042054	2.043169	-0.821289	0.627197	-0.633057	0.118003	0.014067	0.021147	0.363096	-0.298960	0.046121	-0.881281	-20.063887	-29.567150	-129.869896
34616		10.886280	1.351062	1.699146	-4.221323	-8.090827	-3.492953	0.269390	0.045340	1.900126	-0.814453	0.627197	-0.633057	0.108732	0.014521	0.016986	0.371875	-0.297816	0.047886	-0.877908	-20.483519	-29.162882	-128.703682
34617		9.743285	2.626080	1.340510	-2.869099	-8.383811	-4.802433	0.434712	0.046274	1.661076	-0.804199	0.639404	-0.637695	0.097214	0.027040	0.013441	0.379819	-0.296388	0.048573	-0.874947	-20.727390	-28.799716	-127.691463
34618		8.894059	3.208536	0.899267	-2.170399	-8.334799	-5.809343	0.418985	-0.025934	1.404730	-0.796143	0.642822	-0.636230	0.088711	0.032690	0.009072	0.386612	-0.295353	0.048803	-0.872305	-20.905786	-28.524887	-126.823399
34619		7.995407	2.707937	0.602901	-2.084932	-7.440956	-6.361983	0.332242	-0.152900	1.156810	-0.790771	0.656250	-0.638672	0.079791	0.027531	0.006136	0.392208	-0.295084	0.048802	-0.869895	-21.072190	-28.365991	-126.079413
34620		8.416103	1.771456	0.852025	-2.694258	-7.096808	-5.681048	0.250345	-0.278416	0.981265	-0.795898	0.654297	-0.642578	0.084061	0.018116	0.008660	0.396939	-0.295557	0.048646	-0.867594	-21.246859	-28.309103	-125.413649
34621		14.231132	-8.348548	-7.264437	-16.756719	-5.691041	-6.374936	1.543808	-0.755109	0.095487	-0.800537	0.651611	-0.636475	0.142626	-0.082856	-0.072747	0.399833	-0.295729	0.040625	-0.866618	-20.478209	-28.690762	-125.175611
34622		22.618584	1.902705	-13.297011	-17.385303	-19.737679	-10.249200	2.511735	-1.417914	-1.787778	-0.802490	0.623535	-0.644043	0.227288	0.018653	-0.131125	0.396062	-0.297170	0.024290	-0.868467	-18.655389	-29.796698	-125.965142
34623		13.816773	10.674306	-4.959799	-2.584038	-17.964067	-9.664636	2.639814	-1.258342	-3.043583	-0.822266	0.587158	-0.645020	0.140080	0.105256	-0.047325	0.386864	-0.297709	0.005843	-0.872738	-16.298702	-31.005677	-127.637555
34624		18.159966	0.992027	14.701955	-1.144229	-9.532429	11.511338	0.710273	-1.540829	-1.758963	-0.833008	0.579834	-0.642334	0.180535	0.007804	0.148443	0.380294	-0.303087	-0.002823	-0.873789	-15.449216	-32.128198	-128.486797
34625		17.664142	-31.582250	21.796018	-18.997660	16.237998	24.244173	2.009291	-1.421926	-0.941432	-0.852539	0.563232	-0.638428	0.173605	-0.318821	0.216009	0.379204	-0.305440	-0.015699	-0.873307	-14.102387	-33.051460	-128.853932
34626		16.592988	20.411507	21.450862	16.082895	-19.554779	12.792539	1.980029	-0.574616	-1.040106	-0.844727	0.547363	-0.635254	0.166360	0.201111	0.216987	0.377647	-0.304093	-0.026990	-0.874175	-12.642320	-33.507457	-129.451074
34627		16.463508	19.917517	18.424207	14.174156	-19.618885	10.715189	0.511839	-0.503733	-0.374522	-0.847656	0.541016	-0.633545	0.164541	0.198394	0.185165	0.376748	-0.305277	-0.030715	-0.874027	-12.256123	-33.833715	-129.622629
34628		5.869715	0.216462	7.744802	1.003857	-1.707129	-0.296371	-0.020327	-0.272159	0.134295	-0.858643	0.547852	-0.629395	0.058590	0.002212	0.077528	0.377293	-0.306525	-0.030902	-0.873348	-12.345695	-33.967629	-129.486663
34629		10.254388	-0.744614	6.178180	-2.728528	-4.264494	1.061406	0.112787	-0.357138	0.240142	-0.863037	0.537842	-0.626709	0.102442	-0.007358	0.061961	0.378490	-0.307910	-0.031670	-0.872315	-12.406501	-34.136248	-129.266099
34630		9.138701	-0.975396	5.511769	-2.615070	-3.577585	-0.055171	-0.046560	-0.046396	0.143152	-0.862305	0.548096	-0.630615	0.091381	-0.009676	0.055141	0.379066	-0.308223	-0.031302	-0.871968	-12.496475	-34.142461	-129.157035
34631		7.199135	-4.348821	6.643289	-3.309041	0.377514	0.374598	-0.022576	0.095501	0.113021	-0.861816	0.546143	-0.627930	0.072048	-0.043440	0.066403	0.379570	-0.307870	-0.030819	-0.871890	-12.549144	-34.073323	-129.089568
34632		6.090411	-2.574543	7.986673	-0.836851	0.201351	0.520146	-0.017281	0.140224	0.048209	-0.866455	0.546143	-0.633057	0.060966	-0.025724	0.079826	0.379806	-0.307299	-0.030371	-0.872005	-12.570543	-33.986827	-129.072757
34633		5.167477	-3.422661	8.092674	-0.884683	1.414122	0.243474	-0.027444	0.137030	0.030316	-0.863525	0.548096	-0.629150	0.051735	-0.034208	0.080896	0.379948	-0.306761	-0.029915	-0.872148	-12.591145	-33.904753	-129.067482
34634		5.420361	-2.874874	7.732278	-0.836156	0.750292	-0.005994	0.023662	0.103861	-0.012026	-0.867188	0.548828	-0.633545	0.054242	-0.028761	0.077291	0.379979	-0.306261	-0.029807	-0.872314	-12.569443	-33.846104	-129.085843
34635		6.028247	-1.729924	7.837796	-0.329541	-0.427905	0.210872	0.050258	0.081256	-0.022578	-0.864258	0.550293	-0.630859	0.060312	-0.017326	0.078349	0.380001	-0.305811	-0.029877	-0.872460	-12.530405	-33.801805	-129.107765
34636		5.685987	-1.987801	7.946665	-0.279544	0.005066	0.154915	0.064109	0.068405	-0.025229	-0.871826	0.547852	-0.642334	0.056885	-0.019911	0.079441	0.380030	-0.305387	-0.030033	-0.872590	-12.483616	-33.764607	-129.129609
34637		5.553691	-2.098587	7.692035	-0.424657	0.097355	-0.105724	0.079204	0.046205	-0.042578	-0.867432	0.551025	-0.635254	0.055550	-0.021028	0.076899	0.380004	-0.305031	-0.030326	-0.872716	-12.423494	-33.742365	-129.159669
34638		6.058448	-2.198235	7.013105	-1.112459	-0.345235	-0.359439	0.114591	0.002520	-0.080301	-0.869141	0.549072	-0.633789	0.060577	-0.022047	0.070118	0.379859	-0.304791	-0.030911	-0.872842	-12.332671	-33.748763	-129.208736
34639		5.830172	-1.917443	7.720191	-0.450737	-0.184852	0.037769	0.133244	-0.017275	-0.103312	-0.871338	0.549072	-0.628418	0.058285	-0.019256	0.077194	0.379640	-0.304600	-0.031653	-0.872978	-12.224083	-33.769396	-129.270303
34640		5.605959	-2.417243	7.732501	-0.677054	0.331462	0.010404	0.141712	-0.035944	-0.119285	-0.871826	0.549561	-0.636230	0.056031	-0.024261	0.077318	0.379361	-0.304469	-0.032489	-0.873114	-12.106162	-33.801892	-129.340105
34641		5.816064	-1.837698	7.869723	-0.332395	-0.159450	0.137203	0.153698	-0.047761	-0.130456	-0.877686	0.548828	-0.631348	0.058130	-0.018475	0.078697	0.379049	-0.304368	-0.033420	-0.873250	-11.977978	-33.842647	-129.415736
34642		5.414656	-1.690631	8.160087	0.117178	0.096028	0.124151	0.162209	-0.070957	-0.142511	-0.877930	0.543213	-0.643555	0.054106	-0.017011	0.081606	0.378692	-0.304347	-0.034447	-0.873372	-11.842132	-33.897260	-129.496475
34643		5.786084	-1.284606	8.157748	0.188487	-0.410468	0.260731	0.159205	-0.089355	-0.150934	-0.875977	0.549805	-0.644287	0.057815	-0.012955	0.081593	0.378291	-0.304412	-0.035511	-0.873480	-11.706039	-33.963446	-129.580411
34644		6.021985	-1.020613	7.907671	0.111124	-0.801769	0.146329	0.134947	-0.095985	-0.126328	-0.875244	0.551514	-0.634033	0.060175	-0.010298	0.079099	0.377959	-0.304554	-0.036443	-0.873536	-11.593507	-34.029926	-129.647123
34645		5.651254	-1.128144	8.108849	0.332426	-0.411737	0.121232	0.094565	-0.109325	-0.092353	-0.882568	0.554199	-0.637939	0.056463	-0.011346	0.081114	0.377711	-0.304839	-0.037173	-0.873513	-11.517814	-34.100340	-129.689035
34646		5.585113	-1.181092	8.288121	0.422263	-0.263280	0.238869	0.067495	-0.115685	-0.085916	-0.885986	0.545654	-0.639893	0.055798	-0.011863	0.082910	0.377449	-0.305202	-0.037785	-0.873474	-11.460514	-34.173114	-129.725953
34647		5.843075	-1.120620	8.124866	0.246922	-0.504594	0.241922	0.054469	-0.109820	-0.072204	-0.884277	0.548096	-0.639404	0.058382	-0.011249	0.081278	0.377227	-0.305568	-0.038311	-0.873419	-11.415287	-34.241446	-129.754364
34648		6.045520	-1.247061	7.836419	-0.089966	-0.616957	0.143427	0.046589	-0.085274	-0.063089	-0.886475	0.549072	-0.635254	0.060418	-0.012508	0.078387	0.377038	-0.305841	-0.038739	-0.873386	-11.376172	-34.294506	-129.780134
34649		5.798855	-1.415836	7.612749	-0.187023	-0.396635	-0.148684	0.053611	-0.065699	-0.064287	-0.896729	0.546387	-0.636719	0.057959	-0.014197	0.076143	0.376858	-0.306018	-0.039166	-0.873383	-11.330931	-34.337133	-129.809346
34650		5.399194	-2.000345	7.602817	-0.381113	0.280241	-0.287368	0.070575	-0.047952	-0.078558	-0.890381	0.543457	-0.631348	0.053966	-0.020051	0.076034	0.376644	-0.306079	-0.039653	-0.873431	-11.269162	-34.370923	-129.850853
34651		5.014111	-2.234360	7.805711	-0.239116	0.762896	-0.303555	0.102333	-0.037771	-0.104165	-0.890625	0.545410	-0.643555	0.050115	-0.022410	0.078055	0.376370	-0.306034	-0.040300	-0.873536	-11.178430	-34.402252	-129.911135
34652		5.131916	-1.809708	7.839044	-0.001729	0.408666	-0.278791	0.124030	-0.047617	-0.123890	-0.898438	0.552490	-0.644531	0.051289	-0.018177	0.078391	0.376040	-0.305984	-0.041089	-0.873658	-11.068413	-34.440760	-129.983741
34653		5.192624	-1.550752	8.047366	0.239572	0.263913	-0.117265	0.137551	-0.047083	-0.142835	-0.899658	0.547607	-0.644531	0.051896	-0.015600	0.080475	0.375648	-0.305905	-0.041967	-0.873813	-10.943110	-34.481358	-130.069361
34654		5.938875	-1.385842	7.923718	-0.115234	-0.345520	0.179480	0.131551	-0.045429	-0.147003	-0.893066	0.551758	-0.640137	0.059361	-0.013954	0.079242	0.375229	-0.305826	-0.042820	-0.873979	-10.819448	-34.520881	-130.158302
34655		5.670265	-1.561813	7.900645	-0.113684	-0.041786	0.036001	0.117037	-0.023838	-0.156519	-0.899170	0.545166	-0.639160	0.056681	-0.015709	0.079004	0.374750	-0.305681	-0.043586	-0.874198	-10.698631	-34.549554	-130.256578
34656		5.403178	-1.777725	8.004648	-0.077083	0.326761	0.001398	0.121475	-0.009132	-0.159575	-0.906494	0.552490	-0.643066	0.054014	-0.017869	0.080038	0.374267	-0.305459	-0.044346	-0.874444	-10.572995	-34.569653	-130.359042
34657		5.969772	-1.119354	7.928108	0.018909	-0.509214	0.161596	0.127422	0.004443	-0.172804	-0.904053	0.540283	-0.643066	0.059690	-0.011296	0.079273	0.373739	-0.305166	-0.045129	-0.874732	-10.437698	-34.583734	-130.472249
34658		5.999895	-1.332470	7.644426	-0.298277	-0.448871	-0.018762	0.121038	0.024635	-0.176733	-0.913574	0.547607	-0.651367	0.059997	-0.013424	0.076429	0.373187	-0.304793	-0.045850	-0.875060	-10.303126	-34.586181	-130.590833
34659		5.461508	-1.414342	7.949873	0.072509	0.052162	-0.064821	0.118418	0.039132	-0.157844	-0.914795	0.548340	-0.646240	0.054619	-0.014234	0.079480	0.372718	-0.304368	-0.046506	-0.875374	-10.176303	-34.578756	-130.698171
34660		5.520336	-1.512632	7.902891	-0.063727	0.081859	-0.055277	0.119873	0.041293	-0.150813	-0.911865	0.536377	-0.648438	0.055208	-0.015215	0.079008	0.372281	-0.303929	-0.047151	-0.875677	-10.051340	-34.568762	-130.801030
34661		5.773164	-1.343293	7.895382	-0.102390	-0.188488	0.057716	0.123375	0.024968	-0.161006	-0.908447	0.545410	-0.647461	0.057731	-0.013528	0.078938	0.371801	-0.303556	-0.047860	-0.875972	-9.921471	-34.569252	-130.908767
34662		5.397055	-1.452173	8.108962	0.118526	0.201681	0.032999	0.123993	0.026424	-0.149347	-0.925537	0.543457	-0.648193	0.053970	-0.014612	0.081073	0.371373	-0.303175	-0.048548	-0.876248	-9.795767	-34.567130	-131.008787
34663		5.719500	-1.388935	7.886714	-0.136310	-0.100616	0.026690	0.128215	0.012652	-0.169157	-0.923096	0.542236	-0.657471	0.057188	-0.013988	0.078855	0.370860	-0.302844	-0.049313	-0.876537	-9.660768	-34.574964	-131.120669
34664		5.484796	-1.463974	8.083210	0.023804	0.173720	0.063228	0.125340	0.004538	-0.163198	-0.923096	0.535645	-0.656982	0.054838	-0.014735	0.080822	0.370367	-0.302552	-0.050069	-0.876803	-9.530320	-34.586152	-131.227658
34665		5.641163	-1.225163	8.213621	0.153827	-0.040781	0.225338	0.112257	-0.007072	-0.160439	-0.929199	0.543213	-0.656738	0.056399	-0.012343	0.082131	0.369864	-0.302339	-0.050788	-0.877048	-9.409066	-34.603894	-131.331369
34666		5.869948	-1.106259	7.978909	-0.015116	-0.327419	0.149021	0.098804	-0.032130	-0.149469	-0.937744	0.530029	-0.644531	0.058678	-0.011146	0.079793	0.369381	-0.302259	-0.051474	-0.877238	-9.301418	-34.634163	-131.424882
34667		6.030870	-0.880984	7.955158	0.032221	-0.582055	0.191922	0.083129	-0.067160	-0.137859	-0.945557	0.540771	-0.653320	0.060276	-0.008884	0.079568	0.368916	-0.302369	-0.052142	-0.877357	-9.209318	-34.683487	-131.506498
34668		5.786834	-0.997804	8.040906	0.125585	-0.304688	0.138725	0.069695	-0.105090	-0.127357	-0.930420	0.538574	-0.657471	0.057820	-0.010043	0.080436	0.368467	-0.302669	-0.052802	-0.877403	-9.131366	-34.752757	-131.576920
34669		5.654876	-1.110508	8.185540	0.193384	-0.079061	0.195821	0.057076	-0.139301	-0.133398	-0.950439	0.539551	-0.655273	0.056484	-0.011166	0.081892	0.367963	-0.303143	-0.053481	-0.877409	-9.060143	-34.842309	-131.647810
34670		5.803890	-0.981342	8.189274	0.205998	-0.243783	0.267515	0.035740	-0.172228	-0.134529	-0.947998	0.538086	-0.650635	0.057962	-0.009867	0.081941	0.367413	-0.303798	-0.054127	-0.877374	-9.002644	-34.950075	-131.716174
34671		6.285277	-0.560628	8.058485	0.172923	-0.864573	0.384408	0.006982	-0.215698	-0.117181	-0.953613	0.539063	-0.640381	0.062763	-0.005646	0.080652	0.366882	-0.304703	-0.054702	-0.877246	-8.970886	-35.081299	-131.767909
34672		5.601737	-1.025703	8.678815	0.554214	0.108874	0.552363	-0.051719	-0.289649	-0.102786	-0.956299	0.529785	-0.648193	0.055886	-0.010263	0.086872	0.366305	-0.306041	-0.055131	-0.876995	-8.983083	-35.252626	-131.801808
34673		5.330724	-1.036508	8.993314	0.876451	0.406935	0.648515	-0.059185	-0.375857	-0.097311	-0.968994	0.537354	-0.642334	0.053133	-0.010364	0.090036	0.365715	-0.307774	-0.055680	-0.876600	-9.007012	-35.472713	-131.822366
34674		4.822188	-2.179545	9.193301	0.514524	1.642610	0.654287	-0.054409	-0.500061	-0.123739	-0.968262	0.535156	-0.638428	0.047978	-0.021800	0.092059	0.364980	-0.310031	-0.056514	-0.876058	-9.025547	-35.765008	-131.847656
34675		4.584853	-2.941775	10.402936	0.784974	2.784569	1.568232	-0.054414	-0.725654	-0.226058	-0.971191	0.531494	-0.625977	0.045437	-0.029441	0.104203	0.363729	-0.313246	-0.057920	-0.875342	-9.016464	-36.194583	-131.919456
34676		3.744638	-3.009288	11.792436	1.976908	3.877454	2.153721	-0.127361	-1.134944	-0.355232	-0.994629	0.535400	-0.615234	0.036723	-0.030083	0.118153	0.361671	-0.318338	-0.059950	-0.874220	-9.021509	-36.866935	-132.037080
34677		4.235207	-3.671224	11.347778	1.170292	4.045762	2.122343	-0.202281	-1.684229	-0.530028	-1.000732	0.526611	-0.598145	0.041297	-0.036708	0.113866	0.358545	-0.325897	-0.062922	-0.872512	-9.029458	-37.866189	-132.218172
34678		3.812050	-3.383516	11.588828	1.889546	4.338163	1.929683	-0.244400	-2.239054	-0.766232	-1.016846	0.525146	-0.572266	0.036690	-0.033836	0.116346	0.354105	-0.335840	-0.067081	-0.870242	-8.989890	-39.200209	-132.509810
34679		4.438887	-2.782733	11.298075	2.018520	3.662158	1.917467	-0.142020	-2.823551	-0.996790	-1.027344	0.511475	-0.552979	0.042649	-0.027962	0.113611	0.348574	-0.348008	-0.073097	-0.867204	-8.813322	-40.885372	-132.913814
34680		5.069082	-1.797874	11.280328	2.573221	2.863708	2.075791	0.001851	-3.296129	-1.203352	-1.043945	0.511963	-0.512451	0.048713	-0.018277	0.113617	0.342132	-0.361805	-0.080898	-0.863422	-8.461665	-42.854300	-133.442149
34681		5.948480	0.118729	10.837153	3.383183	1.117694	2.024962	0.038476	-3.633282	-1.310163	-1.062256	0.484863	-0.489258	0.057509	0.000785	0.109428	0.335043	-0.376829	-0.089601	-0.858905	-8.017640	-45.020595	-134.053105
34682		6.677980	-1.489033	10.736038	2.213692	2.297964	2.510974	0.053170	-3.802687	-1.367700	-1.072998	0.470215	-0.443115	0.064619	-0.015366	0.108599	0.327528	-0.392382	-0.098723	-0.853824	-7.491696	-47.283532	-134.742897
34683		8.407171	-2.902788	10.651318	0.738173	2.924854	3.731052	0.140862	-3.673063	-1.399146	-1.083740	0.461426	-0.413086	0.081891	-0.029682	0.108010	0.319985	-0.407068	-0.108031	-0.848666	-6.817937	-49.470025	-135.538783
34684		10.653912	-4.464940	10.402805	-1.140981	3.448392	5.301558	0.158520	-3.317668	-1.417037	-1.092285	0.446777	-0.379639	0.104474	-0.045478	0.105737	0.312480	-0.420062	-0.116842	-0.843950	-6.014724	-51.448209	-136.465107
34685		11.294206	-4.331500	9.429262	-1.694436	3.073974	5.116821	0.205185	-2.933505	-1.492620	-1.101074	0.427002	-0.352051	0.111215	-0.044247	0.095887	0.304885	-0.431194	-0.125375	-0.839879	-5.011922	-53.202014	-137.586011
34686		9.654412	-5.933716	8.796398	-2.160936	5.095697	3.421439	0.310694	-2.571832	-1.540342	-1.112061	0.417725	-0.322266	0.094942	-0.060210	0.089099	0.297469	-0.440509	-0.133871	-0.836387	-3.787960	-54.737600	-138.881801
34687		0.403016	-5.023116	13.413889	5.599885	10.401330	-1.702770	0.369203	-1.892145	-1.536435	-1.109619	0.399414	-0.293213	0.002374	-0.050501	0.134074	0.290596	-0.446815	-0.141566	-0.834188	-2.400337	-55.866474	-140.314787
34688		-7.616959	-2.814351	19.225141	14.378717	14.458473	-5.369137	0.083376	-0.719087	-1.850242	-1.110107	0.371338	-0.285645	-0.077117	-0.027513	0.191964	0.282570	-0.448365	-0.147048	-0.835164	-0.802554	-56.306814	-142.184987
34689		-3.577140	-2.743741	18.961206	12.591180	12.804936	-2.240048	-0.512656	0.308032	-1.848823	-1.111084	0.369629	-0.294678	-0.035728	-0.026621	0.189736	0.273942	-0.446425	-0.148571	-0.838801	0.478513	-56.131957	-144.082353
34690		-11.145371	-9.299653	14.019339	9.022647	17.991735	-11.270607	-0.808045	0.694566	-1.474835	-1.100830	0.348877	-0.297852	-0.111644	-0.091605	0.140953	0.266486	-0.443508	-0.147480	-0.842932	1.246702	-55.720315	-145.571198
34691		-5.042363	-9.887277	14.077369	6.099138	16.449157	-6.127740	-0.720416	0.832345	-0.879757	-1.094727	0.337158	-0.315186	-0.050269	-0.098143	0.141338	0.261816	-0.440300	-0.145241	-0.846459	1.539933	-55.229708	-146.431113
34692		-1.065254	-10.255449	13.753009	3.871140	15.259758	-2.913067	-0.693445	1.247740	-0.087301	-1.089844	0.333984	-0.322754	-0.009837	-0.102072	0.137948	0.260848	-0.435855	-0.140825	-0.849798	1.180641	-54.512884	-146.480164
34693		-1.043033	-10.050890	11.901370	2.739691	14.126649	-3.756506	-0.553847	1.509147	0.586254	-1.084229	0.345215	-0.351563	-0.009236	-0.100207	0.119364	0.263215	-0.430560	-0.135177	-0.852680	0.373755	-53.650920	-145.879048
34694		1.178230	-7.835430	11.213041	2.385293	11.133654	-2.140610	-0.402240	1.545517	1.082751	-1.066650	0.354980	-0.356689	0.013072	-0.078060	0.112190	0.268026	-0.425214	-0.129055	-0.854810	-0.691420	-52.762591	-144.839366
34695		3.701673	-5.443912	10.958697	2.237830	8.011488	-0.105299	-0.416555	1.613624	1.453341	-1.067383	0.372070	-0.377197	0.038293	-0.053936	0.109394	0.274406	-0.419784	-0.121969	-0.856508	-1.988307	-51.816464	-143.505483
34696		3.966729	-2.724236	10.647136	3.376940	5.350638	0.009709	-0.537215	1.635940	1.611099	-1.048096	0.378174	-0.394043	0.040753	-0.026631	0.106213	0.281186	-0.414470	-0.113998	-0.857994	-3.401132	-50.835437	-142.092853
34697		5.385055	-2.445629	10.251284	2.508009	4.186215	0.969180	-0.669896	1.625210	1.427665	-1.036621	0.410889	-0.416016	0.054853	-0.023725	0.102150	0.286860	-0.409222	-0.105827	-0.859680	-4.698843	-49.846059	-140.909696
34698		6.456368	-1.161943	10.018771	2.502209	2.376507	1.654499	-0.785085	1.671168	1.095572	-1.021240	0.415771	-0.428223	0.065459	-0.010871	0.099687	0.290860	-0.403722	-0.097772	-0.861887	-5.782170	-48.833714	-140.077396
34699		6.354560	-0.282894	9.281181	2.528071	1.176072	1.087854	-1.025066	1.670471	0.778529	-1.011963	0.424072	-0.441162	0.064327	-0.002106	0.092289	0.292976	-0.398366	-0.089302	-0.864578	-6.758669	-47.830603	-139.560450
34700		6.692565	-0.725346	8.306098	1.424368	0.790160	0.753800	-1.268128	1.575255	0.566477	-0.996826	0.428467	-0.445557	0.067597	-0.006538	0.082573	0.293616	-0.393646	-0.080344	-0.867397	-7.718550	-46.892702	-139.246191
34701		6.975431	-1.490243	7.517843	0.298674	0.788911	0.515937	-1.412362	1.456301	0.505652	-0.979736	0.437744	-0.460693	0.070336	-0.014196	0.074770	0.293875	-0.389553	-0.071132	-0.869958	-8.713413	-46.021190	-138.963331
34702		7.034174	-2.579328	6.923866	-0.749547	1.253207	0.283716	-1.397481	1.309469	0.569466	-0.978271	0.439941	-0.466797	0.070866	-0.025110	0.068953	0.294111	-0.386093	-0.061982	-0.872118	-9.727165	-45.226531	-138.668203
34703		7.618529	-3.436204	6.707357	-1.690247	1.430922	0.672113	-1.216630	1.193403	0.701677	-0.965576	0.447021	-0.486572	0.076704	-0.033687	0.066823	0.295431	-0.382853	-0.053604	-0.873654	-10.706093	-44.477905	-138.245228
34704		8.367623	-3.164127	6.935867	-1.810519	0.743070	1.336392	-0.938146	1.190057	0.853556	-0.956787	0.457031	-0.493164	0.084221	-0.030958	0.069005	0.297702	-0.379254	-0.046077	-0.874881	-11.587257	-43.712410	-137.754406
34705		8.348633	-2.183671	7.025762	-1.232651	-0.212658	1.244510	-0.703072	1.259415	0.997194	-0.944092	0.458252	-0.498047	0.084034	-0.021173	0.069805	0.301226	-0.374985	-0.039257	-0.875847	-12.383917	-42.883472	-137.161594
34706		7.790153	-1.328312	6.919509	-0.568997	-0.848428	0.641212	-0.523932	1.314625	1.082669	-0.934326	0.473389	-0.505371	0.078424	-0.012679	0.068714	0.305261	-0.370214	-0.032917	-0.876741	-13.091772	-42.009917	-136.560685
34707		7.419121	-0.316376	6.862481	0.110968	-1.670251	0.158894	-0.386120	1.357714	1.124329	-0.913574	0.479980	-0.520264	0.074671	-0.002613	0.068124	0.309838	-0.365005	-0.027067	-0.877519	-13.716268	-41.099620	-135.942321
34708		7.374662	0.467369	6.873797	0.530599	-2.440910	-0.034597	-0.308117	1.397762	1.151327	-0.893311	0.483643	-0.533203	0.074196	0.005205	0.068213	0.314533	-0.359489	-0.021413	-0.878281	-14.281646	-40.160782	-135.348420
34709		7.407415	0.862397	6.698856	0.575731	-2.982339	-0.259684	-0.273271	1.439286	1.167845	-0.884033	0.495605	-0.535889	0.074501	0.009149	0.066441	0.319447	-0.353693	-0.015841	-0.878979	-14.810794	-39.190238	-134.756455
34710		7.643461	0.663618	6.369904	0.076998	-3.195654	-0.367164	-0.234658	1.448631	1.134099	-0.871582	0.497559	-0.545166	0.076854	0.007145	0.063135	0.324148	-0.347774	-0.010456	-0.879700	-15.280996	-38.217738	-134.222873
34711		8.397158	0.558964	6.073675	-0.633799	-3.766322	-0.162575	-0.180823	1.457666	1.064085	-0.844482	0.505615	-0.552490	0.084380	0.006092	0.060117	0.328665	-0.341684	-0.005422	-0.880455	-15.673249	-37.246087	-133.748759
34712		9.068172	0.439101	5.520562	-1.465964	-4.342912	-0.226843	-0.147779	1.471004	1.010551	-0.835693	0.506836	-0.562988	0.091061	0.004891	0.054533	0.332919	-0.335463	-0.000594	-0.881266	-16.007491	-36.274900	-133.335252
34713		9.324084	0.305252	4.578428	-2.301885	-4.749359	-0.860815	-0.129796	1.434166	0.986369	-0.819580	0.512695	-0.564453	0.093549	0.003543	0.045112	0.337107	-0.329339	0.004051	-0.881974	-16.314383	-35.324415	-132.937897
34714		9.257684	0.120329	3.737173	-2.912689	-4.884924	-1.606765	-0.118062	1.322773	1.014690	-0.801514	0.511963	-0.568359	0.092814	0.001696	0.036757	0.341380	-0.323670	0.008505	-0.882397	-16.625948	-34.430417	-132.514996
34715		9.393598	0.166991	3.118503	-3.345054	-5.258758	-2.121997	-0.135914	1.134774	1.088231	-0.784912	0.518799	-0.569824	0.094100	0.002203	0.030650	0.345941	-0.318829	0.012841	-0.882331	-16.985449	-33.624013	-132.015577
34716		9.655053	0.241972	2.577946	-3.754902	-5.709245	-2.516959	-0.205499	0.902187	1.243143	-0.770752	0.517578	-0.573730	0.096648	0.003046	0.025341	0.351060	-0.315112	0.017322	-0.881567	-17.454079	-32.916977	-131.379787
34717		9.234522	-0.364605	1.810589	-4.296455	-5.258263	-3.287590	-0.294950	0.597125	1.420290	-0.765137	0.534912	-0.572754	0.092421	-0.002963	0.017835	0.356818	-0.312856	0.021950	-0.879955	-18.057679	-32.339392	-130.579339
34718		9.622520	-0.803515	1.175211	-5.078200	-5.423659	-3.534677	-0.368657	0.220069	1.565080	-0.757324	0.534180	-0.571777	0.096297	-0.007260	0.011660	0.363122	-0.312361	0.026445	-0.877424	-18.783078	-31.933885	-129.616693
34719		11.055084	-1.288194	0.732328	-6.306798	-6.224728	-3.038880	-0.412040	-0.118301	1.732731	-0.747803	0.534424	-0.563232	0.110652	-0.011908	0.007414	0.370093	-0.313377	0.030788	-0.874001	-19.619317	-31.667917	-128.485117
34720		11.723250	-1.753201	0.230632	-7.103752	-6.583880	-2.975545	-0.394025	-0.362947	1.843603	-0.743652	0.545654	-0.562744	0.117383	-0.016446	0.002552	0.377601	-0.315391	0.034758	-0.869907	-20.503606	-31.498269	-127.231781
34721		11.794666	-1.295729	-0.198163	-6.938837	-7.198437	-3.420275	-0.282051	-0.561890	1.856575	-0.734619	0.555664	-0.553223	0.118065	-0.011864	-0.001633	0.385304	-0.318022	0.037900	-0.865429	-21.348225	-31.415766	-125.932446
34722		12.603951	0.128747	0.179392	-6.027530	-8.835355	-3.141182	-0.208928	-0.699698	1.753625	-0.733887	0.566650	-0.542236	0.126014	0.002395	0.002233	0.392705	-0.321103	0.040276	-0.860845	-22.133223	-31.413226	-124.660098
34723		12.874535	2.014973	-0.039910	-4.864296	-10.482084	-3.789748	-0.298204	-0.703105	1.576583	-0.739502	0.579590	-0.530762	0.128582	0.021164	0.000022	0.399128	-0.324379	0.042759	-0.856532	-22.912934	-31.436189	-123.502144
34724		10.220712	2.389603	-1.119808	-3.842031	-9.125668	-6.153931	-0.400456	-0.773084	1.207653	-0.732910	0.582520	-0.534668	0.102103	0.024491	-0.010852	0.403834	-0.328219	0.044922	-0.852744	-23.643723	-31.566766	-122.546690
34725		9.428382	2.067287	-1.764821	-3.968328	-8.500563	-6.936134	-0.426198	-1.005952	0.678807	-0.731689	0.590088	-0.522461	0.094300	0.020956	-0.017218	0.406227	-0.333204	0.045874	-0.849618	-24.257267	-31.932683	-121.855454
34726		11.448387	-8.533103	-8.396840	-15.808280	-4.223725	-7.235161	1.179203	-1.525599	-0.554029	-0.739502	0.567139	-0.509766	0.114886	-0.085155	-0.083595	0.406196	-0.337398	0.036873	-0.848415	-23.627205	-32.857482	-121.774265
34727		20.231481	0.938959	-9.264713	-13.890546	-16.989277	-6.015053	2.720946	-2.109134	-2.270334	-0.751465	0.552979	-0.501465	0.203375	0.008325	-0.090388	0.401434	-0.341165	0.017266	-0.849800	-21.582574	-34.470512	-122.661287
34728		37.607587	-15.282574	-4.128520	-29.787415	-16.252137	12.845146	4.964465	-1.214065	-3.533725	-0.759033	0.513672	-0.508057	0.373567	-0.158390	-0.042898	0.394829	-0.336500	-0.012263	-0.854826	-17.564266	-35.801647	-124.703745
34729		20.129649	-3.686188	3.613862	-10.063637	-9.595838	5.628931	4.746474	0.236103	-2.814696	-0.764404	0.480957	-0.516113	0.200785	-0.040529	0.034968	0.390630	-0.325830	-0.036762	-0.860169	-13.697374	-36.104449	-126.667959
34730		10.061308	12.366685	18.438954	13.348255	-9.013125	8.482021	2.590560	0.020081	-1.941474	-0.776123	0.456787	-0.523682	0.101810	0.120280	0.185952	0.386484	-0.320286	-0.050989	-0.863393	-11.421345	-36.333042	-128.011342
34731		13.686285	33.788670	27.021270	30.498545	-23.262524	14.431788	0.489770	1.437803	-0.695046	-0.775635	0.453125	-0.537842	0.139976	0.336742	0.270039	0.384623	-0.312955	-0.051395	-0.866881	-10.747857	-35.600101	-128.687795
34732		5.406016	-2.408294	16.983803	4.070162	3.847672	7.278334	0.253800	0.411084	-0.205096	-0.770264	0.458008	-0.547607	0.054384	-0.024354	0.169696	0.384266	-0.310632	-0.051993	-0.867839	-10.494422	-35.388342	-128.877430
34733		5.422368	5.824797	11.626694	7.097677	-3.679945	1.788661	0.177706	-0.019065	-0.027573	-0.764893	0.461426	-0.549072	0.054221	0.058137	0.116324	0.384429	-0.310373	-0.052809	-0.867810	-10.388053	-35.400804	-128.890960
34734		6.838581	0.696329	7.324011	0.641278	-2.402265	-0.080777	0.112149	-0.123368	0.150095	-0.768555	0.464600	-0.546143	0.068335	0.006973	0.073286	0.385253	-0.310734	-0.053267	-0.867287	-10.398345	-35.452913	-128.765956
34735		8.757869	1.394938	5.225679	-0.876989	-4.802362	-0.750567	0.067324	-0.097217	0.206481	-0.780273	0.468750	-0.553711	0.087539	0.014022	0.052304	0.386253	-0.311086	-0.053396	-0.866708	-10.454875	-35.485063	-128.605773
34736		8.335950	-2.893727	4.885419	-3.834786	-1.668529	-0.634482	0.071647	0.001311	0.133194	-0.778076	0.479004	-0.564209	0.083379	-0.028899	0.048843	0.386973	-0.310979	-0.053465	-0.866421	-10.472520	-35.468558	-128.508237
34737		7.236887	-5.180326	5.916497	-4.379028	0.957267	-0.111091	0.106931	0.099364	0.006963	-0.783203	0.481445	-0.565430	0.072400	-0.051832	0.059101	0.387223	-0.310349	-0.053696	-0.866521	-10.411725	-35.410715	-128.510929
34738		6.099946	-3.774301	7.009406	-2.287369	1.066061	-0.106098	0.127591	0.193401	-0.077662	-0.779053	0.481201	-0.576172	0.061053	-0.037811	0.070011	0.387167	-0.309245	-0.053963	-0.866924	-10.298724	-35.307809	-128.583479
34739		5.255329	-2.150344	8.196736	-0.150383	0.867678	0.119755	0.106525	0.234381	-0.107041	-0.776611	0.487061	-0.578125	0.052638	-0.021575	0.081894	0.386968	-0.307999	-0.054111	-0.867447	-10.183317	-35.185423	-128.680134
34740		5.650649	-1.190224	8.510953	0.455484	0.046914	0.462189	0.079912	0.187222	-0.094436	-0.784424	0.487305	-0.592041	0.056580	-0.011963	0.085052	0.386763	-0.307008	-0.054208	-0.867883	-10.092035	-35.087470	-128.762813
34741		5.251664	-1.077727	8.687868	0.808254	0.277087	0.360339	0.059066	0.128536	-0.052476	-0.783691	0.483887	-0.587402	0.052570	-0.010817	0.086842	0.386710	-0.306327	-0.054274	-0.868144	-10.033586	-35.019004	-128.806606
34742		6.004552	-0.977865	8.114182	0.199126	-0.465526	0.316203	0.057844	0.073341	-0.038200	-0.784912	0.488770	-0.593750	0.060073	-0.009814	0.081117	0.386684	-0.305888	-0.054410	-0.868302	-9.985501	-34.979556	-128.836298
34743		6.056207	-0.715849	7.890518	0.240844	-0.753936	0.128335	0.051319	0.011655	-0.024242	-0.791992	0.500732	-0.591309	0.060566	-0.007186	0.078900	0.386707	-0.305736	-0.054624	-0.868331	-9.950875	-34.974196	-128.846683
34744		5.893579	-1.267541	7.820279	-0.102793	-0.287060	0.056696	0.056419	-0.005002	-0.023942	-0.804688	0.495605	-0.597168	0.058932	-0.012705	0.078201	0.386719	-0.305644	-0.054883	-0.868342	-9.914705	-34.977521	-128.857033
34745		6.237135	-1.759823	7.516941	-0.779326	-0.259954	0.078132	0.082737	-0.005686	-0.044795	-0.805908	0.506104	-0.604492	0.062365	-0.017643	0.075164	0.386697	-0.305501	-0.055299	-0.868376	-9.855147	-34.983965	-128.879419
34746		5.686865	-1.920597	7.703175	-0.525773	0.270891	-0.064959	0.093847	0.005079	-0.064065	-0.814453	0.509277	-0.597656	0.056864	-0.019260	0.077021	0.386595	-0.305281	-0.055763	-0.868469	-9.780984	-34.985501	-128.918628
34747		6.330993	-1.747021	7.552707	-0.816344	-0.302540	0.158219	0.101857	-0.003893	-0.084459	-0.814697	0.515381	-0.611328	0.063301	-0.017535	0.075519	0.386433	-0.305082	-0.056319	-0.868575	-9.694684	-34.994720	-128.968174
34748		5.481223	-1.332247	8.380609	0.308709	0.235044	0.282001	0.091046	-0.003892	-0.074328	-0.816406	0.509766	-0.608887	0.054806	-0.013381	0.083801	0.386279	-0.304904	-0.056804	-0.868675	-9.618656	-35.002219	-129.013419
34749		6.423838	-0.882861	7.758526	-0.169025	-0.875941	0.259254	0.089961	-0.035053	-0.081126	-0.824707	0.510010	-0.611572	0.064221	-0.008890	0.077593	0.386111	-0.304863	-0.057366	-0.868726	-9.542564	-35.028574	-129.056174
34750		5.700961	-0.860568	8.195418	0.427754	-0.276492	0.194659	0.051552	-0.037281	-0.058996	-0.829346	0.514160	-0.617188	0.056992	-0.008644	0.081963	0.385954	-0.304910	-0.057720	-0.868756	-9.497406	-35.053399	-129.087018
34751		5.861472	-1.085714	7.908918	0.046580	-0.310766	0.086194	0.019583	-0.058935	-0.054313	-0.837646	0.515381	-0.608643	0.058588	-0.010881	0.079105	0.385782	-0.305118	-0.057980	-0.868743	-9.473726	-35.090704	-129.109480
34752		5.642700	-0.947830	8.282811	0.441215	-0.136065	0.243664	-0.010812	-0.066562	-0.035248	-0.839355	0.516113	-0.614258	0.056398	-0.009484	0.082847	0.385624	-0.305419	-0.058083	-0.868700	-9.475618	-35.129818	-129.120592
34753		5.857986	-1.163970	7.996166	0.044298	-0.213069	0.165395	-0.026302	-0.091187	-0.034126	-0.846436	0.514893	-0.620117	0.058541	-0.011639	0.079990	0.385453	-0.305861	-0.058173	-0.868614	-9.488314	-35.183486	-129.126337
34754		5.359539	-1.150856	8.326016	0.479242	0.209975	0.142106	-0.046200	-0.091664	-0.017977	-0.852051	0.518799	-0.626953	0.053556	-0.011494	0.083287	0.385309	-0.306345	-0.058144	-0.868510	-9.519035	-35.235156	-129.122587
34755		5.792113	-1.189652	7.914881	0.038421	-0.170779	0.065497	-0.052871	-0.110762	-0.025081	-0.864014	0.528320	-0.612061	0.057876	-0.011883	0.079184	0.385129	-0.306926	-0.058142	-0.868384	-9.551889	-35.299034	-129.119885
34756		6.340034	-0.867027	7.493768	-0.211009	-0.879532	-0.000134	-0.066682	-0.114361	-0.012779	-0.862793	0.518799	-0.614746	0.063357	-0.008649	0.074977	0.384969	-0.307548	-0.058061	-0.868241	-9.598015	-35.363027	-129.109799
34757		6.085029	-1.210307	7.628387	-0.243243	-0.429888	0.007736	-0.081838	-0.109647	0.006508	-0.873047	0.520020	-0.618164	0.060809	-0.012070	0.076322	0.384872	-0.308190	-0.057879	-0.868068	-9.660083	-35.423319	-129.086623
34758		5.897052	-1.086322	7.622585	-0.049423	-0.398361	-0.122591	-0.100832	-0.085178	0.011335	-0.866211	0.521973	-0.613281	0.058939	-0.010821	0.076256	0.384772	-0.308759	-0.057556	-0.867932	-9.733588	-35.468487	-129.063095
34759		5.870113	-1.170320	7.540619	-0.122390	-0.351416	-0.192379	-0.106996	-0.075574	0.020615	-0.874756	0.524658	-0.608154	0.058674	-0.011657	0.075435	0.384706	-0.309305	-0.057178	-0.867791	-9.813535	-35.508132	-129.033994
34760		5.365308	-1.396456	7.899808	0.165965	0.244258	-0.166114	-0.100157	-0.051583	0.014985	-0.874512	0.519531	-0.608643	0.053634	-0.013921	0.079019	0.384633	-0.309727	-0.056787	-0.867699	-9.885897	-35.533926	-129.011811
34761		5.421295	-1.772935	8.016794	-0.059335	0.508685	0.012812	-0.088002	-0.050754	0.004103	-0.867676	0.528564	-0.611084	0.054193	-0.017693	0.080189	0.384531	-0.310125	-0.056470	-0.867623	-9.946658	-35.561137	-128.997034
34762		5.699974	-1.533961	7.660361	-0.201417	0.044983	-0.144116	-0.072955	-0.059217	-0.009426	-0.876221	0.531494	-0.617920	0.056976	-0.015314	0.076626	0.384392	-0.310520	-0.056250	-0.867557	-9.994188	-35.593621	-128.990774
34763		5.477065	-1.404647	7.905298	0.132586	0.179068	-0.095930	-0.047893	-0.060351	-0.015343	-0.885498	0.529541	-0.609375	0.054746	-0.014032	0.079073	0.384266	-0.310877	-0.056155	-0.867492	-10.024853	-35.628162	-128.988253
34764		5.654235	-1.652483	7.858077	-0.149726	0.227408	0.004457	-0.013820	-0.059802	-0.034020	-0.893555	0.528809	-0.616943	0.056516	-0.016529	0.078599	0.384111	-0.311154	-0.056230	-0.867456	-10.028623	-35.663426	-128.998952
34765		6.400089	-1.354787	7.360678	-0.566767	-0.613811	-0.000543	0.010638	-0.042588	-0.054234	-0.892578	0.535156	-0.616699	0.063982	-0.013569	0.073620	0.383912	-0.311310	-0.056415	-0.867476	-10.008737	-35.691817	-129.025616
34766		6.299948	-1.334799	7.286981	-0.538237	-0.583837	-0.120394	0.019850	-0.032437	-0.062424	-0.895996	0.535400	-0.611328	0.062983	-0.013375	0.072879	0.383694	-0.311396	-0.056629	-0.867528	-9.979715	-35.714460	-129.059435
34767		5.769230	-1.625109	7.705755	-0.262794	0.100386	-0.054382	0.014371	-0.028040	-0.061352	-0.901855	0.541504	-0.615479	0.057677	-0.016274	0.077064	0.383474	-0.311480	-0.056813	-0.867583	-9.953717	-35.735351	-129.092866
34768		6.154971	-1.423444	7.549292	-0.397720	-0.329915	0.017604	0.031319	-0.043469	-0.084731	-0.901855	0.536133	-0.613037	0.061527	-0.014272	0.075504	0.383174	-0.311586	-0.057132	-0.867657	-9.909793	-35.766394	-129.140904
34769		5.633753	-1.296237	7.985509	0.173900	0.064301	0.043954	0.025297	-0.040394	-0.080897	-0.900879	0.538818	-0.610596	0.056316	-0.012995	0.079865	0.382883	-0.311696	-0.057418	-0.867727	-9.870405	-35.796154	-129.186490
34770		5.332423	-1.355638	8.181050	0.383179	0.369053	0.032059	0.026706	-0.049871	-0.081176	-0.898926	0.538574	-0.612793	0.053298	-0.013589	0.081822	0.382589	-0.311840	-0.057724	-0.867784	-9.830928	-35.830407	-129.231372
34771		5.608019	-1.329723	8.073025	0.206476	0.148967	0.103307	0.018916	-0.053353	-0.069923	-0.903320	0.535889	-0.605957	0.056054	-0.013324	0.080744	0.382331	-0.312022	-0.057990	-0.867815	-9.800488	-35.866355	-129.267843
34772		6.006199	-1.230428	7.776183	-0.074938	-0.262657	0.085938	0.024113	-0.074719	-0.080294	-0.900635	0.544922	-0.626709	0.060028	-0.012338	0.077783	0.382030	-0.312278	-0.058330	-0.867833	-9.764504	-35.914509	-129.309219
34773		5.329150	-1.688660	8.065471	0.097514	0.590687	-0.017545	0.025310	-0.075575	-0.065459	-0.914063	0.537109	-0.611084	0.053255	-0.016914	0.080673	0.381795	-0.312545	-0.058660	-0.867818	-9.733686	-35.962539	-129.340009
34774		6.359435	-1.416835	7.473695	-0.534493	-0.435339	0.078255	0.049658	-0.092103	-0.100267	-0.914551	0.542480	-0.616943	0.063553	-0.014219	0.074763	0.381441	-0.312822	-0.059175	-0.867838	-9.675953	-36.022395	-129.393384
34775		6.125142	-1.209010	7.629307	-0.191102	-0.367608	0.036867	0.046724	-0.102560	-0.118352	-0.914307	0.538574	-0.611816	0.061205	-0.012144	0.076322	0.381002	-0.313150	-0.059732	-0.867875	-9.612862	-36.090702	-129.458080
34776		6.034917	-1.816347	7.841935	-0.461855	0.205082	0.235192	0.050370	-0.140607	-0.144340	-0.922607	0.553955	-0.627686	0.060281	-0.018227	0.078457	0.380444	-0.313622	-0.060412	-0.867902	-9.539651	-36.182065	-129.536827
34777		5.695714	-1.636128	8.246452	0.043592	0.450291	0.332131	0.043947	-0.187543	-0.185803	-0.930420	0.540039	-0.613037	0.056865	-0.016432	0.082514	0.379681	-0.314303	-0.061223	-0.867933	-9.455713	-36.304646	-129.639189
34778		5.782883	-2.079740	8.235307	-0.306158	0.731677	0.432222	-0.025731	-0.277237	-0.224751	-0.932373	0.547607	-0.615234	0.057691	-0.020852	0.082436	0.378611	-0.315487	-0.061959	-0.867919	-9.401447	-36.480618	-129.759017
34779		5.234106	-0.704786	9.235402	1.453861	0.481907	0.715328	0.001544	-0.417131	-0.214687	-0.942383	0.548584	-0.603271	0.052141	-0.007105	0.092463	0.377583	-0.317234	-0.063066	-0.867650	-9.344590	-36.735494	-129.855847
34780		5.187443	-1.383529	9.419669	1.132026	1.101063	0.913899	-0.042235	-0.613184	-0.216503	-0.938721	0.544678	-0.602539	0.051570	-0.013871	0.094358	0.376413	-0.319906	-0.064351	-0.867083	-9.325150	-37.100476	-129.931970
34781		5.023789	-0.792942	10.125350	2.039796	1.095485	1.279118	-0.107125	-0.910035	-0.256559	-0.955811	0.537109	-0.600830	0.049766	-0.007939	0.101485	0.374863	-0.323973	-0.065982	-0.866121	-9.345693	-37.637827	-130.002154
34782		4.454479	-1.283945	10.868337	2.460544	2.144118	1.543283	-0.193881	-1.302293	-0.309973	-0.958008	0.541260	-0.589844	0.043816	-0.012802	0.108983	0.372800	-0.329868	-0.068051	-0.864625	-9.420541	-38.401139	-130.064377
34783		4.124546	-1.294397	11.409390	3.035145	2.670142	1.698849	-0.274964	-1.813465	-0.403638	-0.977051	0.552002	-0.570313	0.040183	-0.012869	0.114479	0.369999	-0.338075	-0.070877	-0.862428	-9.537559	-39.462995	-130.131662
34784		3.749257	-2.031420	12.473975	3.471985	3.992202	2.261334	-0.314067	-2.464533	-0.526422	-0.991211	0.542236	-0.547607	0.035898	-0.020214	0.125220	0.366325	-0.349071	-0.074933	-0.859267	-9.671253	-40.903762	-130.206590
34785		3.914053	-3.063465	13.419595	3.464873	5.262838	3.035205	-0.244983	-3.254376	-0.690081	-1.000977	0.539551	-0.511230	0.036844	-0.030600	0.134845	0.361693	-0.363200	-0.081006	-0.854811	-9.750130	-42.807131	-130.301395
34786		4.694467	-3.679719	13.809394	3.234030	5.801514	3.682764	-0.091924	-4.144838	-0.923435	-1.033691	0.529541	-0.484131	0.043899	-0.036941	0.139042	0.355850	-0.380626	-0.089733	-0.848789	-9.692833	-45.235344	-130.462614
34787		4.128227	-4.143042	13.716337	3.513615	6.876636	2.941304	0.116050	-4.909408	-1.175696	-1.049561	0.514893	-0.429688	0.037655	-0.041739	0.138093	0.348795	-0.400609	-0.101137	-0.841205	-9.423847	-48.119653	-130.743359
34788		5.229780	-3.287324	13.668697	3.987956	6.216422	3.240463	0.278129	-5.385347	-1.355993	-1.061768	0.505371	-0.370605	0.048368	-0.033401	0.137979	0.340821	-0.421935	-0.114339	-0.832309	-8.948255	-51.287901	-131.160502
34789		7.878373	-1.839748	13.521162	4.210631	4.457987	4.699590	0.351768	-5.448558	-1.535962	-1.083496	0.481201	-0.323730	0.074917	-0.019223	0.137255	0.331948	-0.442964	-0.128247	-0.822889	-8.220013	-54.504613	-131.822959
34790		11.678822	-4.204445	14.095187	2.037844	5.601975	7.995447	0.313128	-5.032524	-1.574149	-1.086914	0.465088	-0.273682	0.112857	-0.043167	0.143758	0.322851	-0.461988	-0.141292	-0.813862	-7.301861	-57.481811	-132.716276
34791		12.183025	-5.216866	11.677569	0.053541	5.629851	6.927981	0.429661	-4.502577	-1.631847	-1.092285	0.448730	-0.228027	0.118730	-0.053400	0.119358	0.313957	-0.478333	-0.154000	-0.805551	-6.025154	-60.151275	-133.922766
34792		12.382959	-5.934292	10.792296	-0.719408	6.292894	6.461828	0.643241	-4.080726	-1.712108	-1.093506	0.430420	-0.186279	0.121080	-0.060739	0.110218	0.305406	-0.492326	-0.167014	-0.797777	-4.261809	-62.566622	-135.513955
34793		10.623756	-4.650648	10.305410	0.619999	6.202118	4.393390	0.811537	-3.480465	-1.690211	-1.097900	0.414307	-0.160889	0.104025	-0.047814	0.104685	0.297722	-0.503467	-0.179656	-0.790953	-2.083435	-64.610234	-137.428973
34794		-1.764119	-1.197266	17.178258	11.645883	11.524943	-4.229541	0.584495	-2.369750	-1.480162	-1.093506	0.399902	-0.129639	-0.019765	-0.012333	0.171521	0.291206	-0.510593	-0.189164	-0.786581	0.029518	-65.982032	-139.388256
34795		-0.505979	3.852119	24.527294	19.708779	11.752364	-0.319167	-0.546003	-0.534614	-2.030118	-1.099365	0.373047	-0.134521	-0.005319	0.039244	0.245152	0.281413	-0.511523	-0.192973	-0.788614	2.343908	-66.262469	-142.252523
34796		-14.412176	-7.431742	16.504757	11.575560	18.893758	-16.472801	-1.190051	0.625004	-2.114312	-1.094971	0.352051	-0.136719	-0.144372	-0.071806	0.165931	0.270639	-0.508659	-0.192755	-0.794270	4.324895	-65.833615	-145.168462
34797		-12.017537	-11.353911	13.057555	6.299221	19.184903	-15.819223	-0.768310	0.639716	-1.940707	-1.085938	0.326172	-0.138672	-0.120847	-0.111865	0.131393	0.261713	-0.505230	-0.193779	-0.799186	6.236039	-65.364028	-147.738413
34798		-3.554801	-10.543391	14.874797	5.337580	17.615243	-7.308552	-0.514764	1.082932	-0.966165	-1.087158	0.325439	-0.154053	-0.035248	-0.104879	0.149210	0.257620	-0.500631	-0.192702	-0.803659	6.956109	-64.683549	-148.860415
34799		-3.983701	-11.798823	13.655431	3.926919	17.975396	-8.077812	-0.411065	1.784625	0.245421	-1.076416	0.326904	-0.171631	-0.038470	-0.117755	0.137144	0.259480	-0.494159	-0.188170	-0.808126	6.173782	-63.681027	-148.233773
34800		-4.357835	-10.897279	11.952719	3.377630	16.374339	-8.778926	-0.100981	2.099007	1.163108	-1.073242	0.338623	-0.201416	-0.041686	-0.109158	0.120026	0.265913	-0.486873	-0.182114	-0.811837	4.573440	-62.545361	-146.506793
34801		-1.085724	-7.349425	12.670832	4.636531	13.090259	-5.029865	0.075414	2.359437	1.713679	-1.064209	0.343262	-0.220459	-0.008731	-0.073623	0.126792	0.275527	-0.478622	-0.175206	-0.815051	2.604839	-61.252870	-144.186797
34802		1.110862	-4.590637	13.073727	5.581591	10.397985	-2.468236	-0.018475	2.776034	1.919112	-1.043945	0.363037	-0.250244	0.013361	-0.045773	0.130566	0.285723	-0.468952	-0.166652	-0.818947	0.565118	-59.692127	-141.857467
34803		2.353385	-2.921113	12.264296	5.395906	8.073627	-1.436028	-0.191109	3.127683	1.792916	-1.045898	0.382324	-0.286133	0.025708	-0.028870	0.122280	0.295683	-0.457725	-0.157343	-0.823591	-1.240692	-57.887315	-139.815828
34804		4.012586	-1.612739	11.451427	4.828727	5.797328	-0.174460	-0.395947	3.332590	1.445646	-1.024902	0.389893	-0.322998	0.042141	-0.015602	0.113854	0.303330	-0.445653	-0.147415	-0.829249	-2.648417	-55.949532	-138.409243
34805		5.888784	-1.065493	11.256010	4.059644	4.256575	1.496329	-0.631185	3.435760	1.035236	-1.008789	0.394531	-0.352295	0.060863	-0.009990	0.111558	0.309258	-0.432942	-0.137432	-0.835484	-3.714997	-53.943385	-137.484493
34806		8.301382	-1.464702	11.135148	2.447961	3.158981	3.568513	-0.873111	3.502706	0.642802	-0.998291	0.395264	-0.380859	0.084993	-0.013894	0.109936	0.312436	-0.420033	-0.126918	-0.842525	-4.519168	-51.913823	-137.106327
34807		10.308347	-2.166130	10.649302	0.511964	2.195729	4.994549	-1.099818	3.564065	0.324701	-0.980469	0.395020	-0.416992	0.104995	-0.020913	0.104750	0.314133	-0.406791	-0.116118	-0.849917	-5.178618	-49.856268	-137.022681
34808		11.698329	-2.657544	9.513427	-1.458863	1.013919	5.393856	-1.295260	3.550382	0.145257	-0.956543	0.399902	-0.445801	0.118668	-0.025882	0.093207	0.314150	-0.393753	-0.104686	-0.857502	-5.800412	-47.821924	-137.185359
34809		12.119297	-3.220224	8.192174	-3.117893	0.281957	4.834449	-1.449238	3.420520	0.134828	-0.937744	0.410156	-0.478516	0.122594	-0.031535	0.080063	0.313979	-0.381306	-0.092882	-0.864520	-6.500708	-45.858342	-137.327335
34810		12.770981	-3.397855	7.249914	-4.390947	-0.640918	4.592058	-1.529584	3.164156	0.252708	-0.908203	0.412354	-0.498047	0.128880	-0.033271	0.070723	0.313606	-0.370090	-0.080773	-0.870724	-7.309785	-44.039553	-137.425645
34811		13.925672	-3.059072	6.736293	-5.334639	-2.033838	4.885894	-1.563161	2.911286	0.462283	-0.888672	0.417725	-0.519531	0.140289	-0.029750	0.065560	0.314265	-0.359946	-0.068604	-0.875768	-8.251335	-42.343796	-137.318968
34812		14.002038	-2.347219	5.931872	-5.620799	-3.278667	4.129884	-1.567020	2.678398	0.730015	-0.859863	0.415527	-0.536133	0.140883	-0.022503	0.057615	0.315551	-0.350885	-0.056177	-0.879859	-9.314085	-40.761558	-137.073589
34813		13.391389	-1.777663	4.853157	-5.718387	-4.111152	2.694450	-1.512226	2.410918	1.024050	-0.838135	0.442871	-0.532471	0.134574	-0.016729	0.047041	0.318379	-0.342872	-0.043955	-0.882690	-10.476906	-39.293143	-136.582762
34814		12.736407	-1.013090	3.909188	-5.537696	-4.962553	1.287813	-1.384919	2.092497	1.289835	-0.821289	0.443115	-0.543213	0.127825	-0.009043	0.037821	0.322156	-0.336090	-0.032264	-0.884431	-11.671745	-37.972642	-135.943367
34815		12.827120	-0.179328	3.571038	-5.334890	-6.058085	0.777339	-1.213280	1.780884	1.522549	-0.803223	0.446533	-0.542725	0.128590	-0.000603	0.034572	0.327326	-0.330361	-0.021470	-0.885019	-12.861025	-36.784433	-135.113575
34816		12.859289	0.576562	3.323301	-5.055793	-7.012091	0.286743	-0.987700	1.595506	1.694413	-0.791260	0.464111	-0.549805	0.128796	0.007017	0.032173	0.333369	-0.325071	-0.011655	-0.884906	-13.968751	-35.667824	-134.200371
34817		11.762297	1.743152	2.807992	-4.012360	-7.652381	-1.174983	-0.720142	1.444746	1.765490	-0.774170	0.459473	-0.556885	0.117661	0.018569	0.027165	0.340141	-0.319944	-0.003152	-0.884268	-14.932091	-34.609273	-133.244621
34818		10.917652	3.535569	2.321012	-2.686432	-8.829416	-2.608420	-0.502193	1.247603	1.753312	-0.764893	0.470459	-0.546143	0.109002	0.036369	0.022439	0.347120	-0.315288	0.004027	-0.883224	-15.753350	-33.651812	-132.297505
34819		10.652512	4.726528	2.116458	-1.859696	-9.764599	-3.371803	-0.365729	1.047331	1.694196	-0.758545	0.474121	-0.547119	0.106228	0.048204	0.020520	0.353986	-0.311236	0.010185	-0.881886	-16.470260	-32.802109	-131.380763
34820		10.422317	4.920215	2.003570	-1.595852	-9.908382	-3.802601	-0.251432	0.878377	1.575819	-0.747314	0.470703	-0.550049	0.103918	0.050046	0.019516	0.360515	-0.307713	0.015332	-0.880402	-17.076106	-32.057282	-130.523557
34821		10.184326	4.458133	1.862755	-1.755025	-9.540465	-4.071415	-0.110309	0.738288	1.407992	-0.737061	0.479736	-0.553711	0.101594	0.045307	0.018227	0.366441	-0.304534	0.019373	-0.878979	-17.542584	-31.410039	-129.769606
34822		10.199038	4.079308	1.657864	-2.043134	-9.396187	-4.249854	0.045562	0.625701	1.250876	-0.728271	0.479736	-0.554688	0.101784	0.041426	0.016269	0.371970	-0.301569	0.022256	-0.877610	-17.867625	-30.848086	-129.094395
34823		10.492690	3.378814	1.380723	-2.734560	-9.211458	-4.236918	0.197539	0.519576	1.114819	-0.735596	0.485352	-0.547852	0.104772	0.034359	0.013569	0.377124	-0.298782	0.024077	-0.876314	-18.064572	-30.364156	-128.490595
34824		11.067846	2.189535	1.201881	-3.848654	-8.854285	-3.852468	0.346976	0.426026	0.992236	-0.723633	0.488281	-0.550537	0.110593	0.022424	0.011822	0.381964	-0.296135	0.024874	-0.875094	-18.140224	-29.953001	-127.948441
34825		11.859650	1.546356	1.080048	-4.702227	-9.034161	-3.450213	0.451207	0.365188	0.883587	-0.723633	0.472900	-0.553467	0.118546	0.015963	0.010620	0.386477	-0.293553	0.024944	-0.873980	-18.124489	-29.593127	-127.464617
34826		11.603236	0.921801	0.559176	-5.205149	-8.584624	-3.895989	0.453501	0.284680	0.833290	-0.721924	0.491211	-0.545410	0.116000	0.009689	0.005448	0.390775	-0.291323	0.024767	-0.872819	-18.096623	-29.287189	-126.996894
34827		10.808535	-0.152929	-0.202981	-5.854160	-7.493959	-4.668984	0.391313	0.092596	0.852974	-0.717041	0.487305	-0.547607	0.108090	-0.001064	-0.002082	0.395082	-0.290039	0.024519	-0.871313	-18.127319	-29.081660	-126.479107
34828		11.062745	-0.982952	-0.700719	-6.740474	-7.267448	-4.753954	0.265830	-0.200204	0.934182	-0.707031	0.484375	-0.551758	0.110679	-0.009303	-0.006909	0.399588	-0.290266	0.024351	-0.869185	-18.281786	-29.020908	-125.851630
34829		11.329576	-1.216955	-0.996758	-7.100654	-7.437143	-4.802517	0.060656	-0.452779	1.124412	-0.725098	0.482910	-0.548828	0.113384	-0.011529	-0.009715	0.404640	-0.291966	0.024850	-0.866259	-18.636609	-29.060090	-125.053973
34830		10.843355	-0.858853	-1.041657	-6.517263	-7.431623	-5.154887	-0.204239	-0.645629	1.351204	-0.710938	0.496094	-0.552246	0.108521	-0.007866	-0.010058	0.410294	-0.294998	0.026431	-0.862517	-19.232619	-29.156225	-124.073624
34831		12.791616	-12.291356	-6.643161	-18.264806	-2.558548	-5.490834	0.892690	-1.054830	1.082222	-0.717529	0.496338	-0.535645	0.128928	-0.121922	-0.066299	0.416432	-0.297560	0.022047	-0.858811	-19.166693	-29.520409	-123.169050
34832		22.621399	-3.309802	-11.667840	-19.164294	-16.866519	-7.156313	2.507911	-1.798310	-0.440851	-0.723633	0.479736	-0.534668	0.227182	-0.032149	-0.115046	0.418448	-0.300071	0.006908	-0.857211	-17.784546	-30.575155	-123.063721
34833		21.634752	17.425279	-6.121561	-0.847383	-28.370938	-7.948367	2.987690	-1.478442	-1.603407	-0.736816	0.452637	-0.525879	0.218172	0.173381	-0.057013	0.416069	-0.300167	-0.011363	-0.858288	-15.694268	-31.649009	-123.800863
34834		22.148193	11.686955	11.648650	3.832102	-19.981702	8.864572	0.713718	-1.575531	-1.123776	-0.733398	0.449463	-0.524170	0.221203	0.115205	0.118643	0.412237	-0.305363	-0.019358	-0.858160	-15.050160	-32.687825	-124.246446
34835		16.537475	-10.922271	23.843235	-3.612254	2.801157	20.852544	1.114164	-1.272143	-1.119671	-0.743408	0.442871	-0.521484	0.163236	-0.111470	0.238858	0.409021	-0.308410	-0.028442	-0.858357	-14.131557	-33.553672	-124.762761
34836		9.962561	3.063059	19.193845	7.115511	-2.890970	10.633259	1.437182	-0.798870	-0.902642	-0.749756	0.445801	-0.523193	0.098990	0.028801	0.192546	0.407263	-0.308758	-0.037602	-0.858715	-13.048262	-34.117943	-125.233141
34837		11.771538	9.797542	14.587436	8.755030	-9.747476	6.791045	0.924680	-0.883040	-0.338037	-0.755615	0.437744	-0.514893	0.117233	0.097100	0.146843	0.407096	-0.310605	-0.043864	-0.857831	-12.470802	-34.653141	-125.320794
34838		10.725451	7.919075	11.679952	6.470465	-8.577886	4.284124	0.390920	-0.548041	-0.057002	-0.755859	0.442139	-0.514648	0.106956	0.078931	0.117247	0.407367	-0.312147	-0.046712	-0.856991	-12.276609	-34.964792	-125.272252
34839		7.023104	-1.588555	6.303632	-1.335259	-1.520478	-0.459166	0.208267	-0.452715	0.093518	-0.752930	0.451172	-0.511719	0.070096	-0.015918	0.063179	0.408018	-0.313692	-0.048357	-0.856026	-12.237540	-35.206003	-125.135180
34840		10.167141	-5.053882	5.118504	-5.917207	-1.707171	1.012458	0.239898	-0.175395	0.058700	-0.751953	0.456055	-0.520996	0.101641	-0.050570	0.051214	0.408633	-0.313969	-0.049617	-0.855559	-12.143562	-35.295086	-125.063456
34841		8.496629	-4.224004	6.036375	-4.079801	-0.818793	0.635160	0.222013	0.029289	-0.036653	-0.762451	0.459717	-0.520996	0.084967	-0.042323	0.060304	0.408864	-0.313390	-0.050541	-0.855607	-12.004245	-35.282308	-125.087034
34842		6.158738	-2.317236	7.667273	-0.802356	0.047296	0.259088	0.196515	0.128025	-0.105763	-0.747803	0.454590	-0.533936	0.061624	-0.023280	0.076610	0.408782	-0.312415	-0.051253	-0.855960	-11.844282	-35.221036	-125.172703
34843		6.833750	-1.710584	7.667807	-0.700548	-0.800137	0.545423	0.170579	0.136396	-0.111084	-0.765625	0.467285	-0.537842	0.068380	-0.017209	0.076617	0.408640	-0.311464	-0.051854	-0.856338	-11.696337	-35.156836	-125.262518
34844		6.034660	-1.562695	7.910506	-0.120301	-0.280279	0.254197	0.149023	0.168115	-0.094335	-0.755371	0.468750	-0.549561	0.060406	-0.015714	0.079043	0.408542	-0.310417	-0.052263	-0.856740	-11.565311	-35.071388	-125.345479
34845		5.623461	-1.873920	8.428175	0.076836	0.376496	0.483979	0.134647	0.149886	-0.081889	-0.761719	0.479248	-0.552246	0.056290	-0.018819	0.084227	0.408416	-0.309494	-0.052623	-0.857112	-11.448428	-34.996475	-125.424020
34846		6.066968	-1.008967	8.057394	0.298346	-0.617596	0.300534	0.148884	0.106451	-0.088347	-0.762939	0.486084	-0.554688	0.060708	-0.010176	0.080534	0.408326	-0.308712	-0.053148	-0.857404	-11.325222	-34.944697	-125.493775
34847		5.933478	-1.314318	8.080567	0.129722	-0.315161	0.292409	0.156551	0.097765	-0.084014	-0.764648	0.481934	-0.566406	0.059369	-0.013231	0.080766	0.408229	-0.307965	-0.053716	-0.857684	-11.199571	-34.898889	-125.563689
34848		6.607304	-1.755211	7.532916	-0.800053	-0.655874	0.307182	0.170440	0.073772	-0.111306	-0.769043	0.489258	-0.568115	0.066091	-0.017653	0.075290	0.408065	-0.307272	-0.054436	-0.857965	-11.057828	-34.867765	-125.644413
34849		6.465132	-1.933742	7.416660	-0.939424	-0.474638	0.159088	0.181673	0.072187	-0.125275	-0.773438	0.501465	-0.584229	0.064666	-0.019445	0.074126	0.407829	-0.306571	-0.055229	-0.858277	-10.903872	-34.840544	-125.737885
34850		6.119726	-2.078003	7.451094	-0.883901	-0.127763	0.010260	0.179963	0.066245	-0.149489	-0.778076	0.499512	-0.588379	0.061206	-0.020893	0.074472	0.407512	-0.305881	-0.056063	-0.858620	-10.742494	-34.817412	-125.843543
34851		6.283991	-1.721718	7.475689	-0.710451	-0.453276	0.068027	0.180444	0.062715	-0.162764	-0.778076	0.498291	-0.583984	0.062849	-0.017336	0.074722	0.407129	-0.305210	-0.056933	-0.858983	-10.575635	-34.798930	-125.958608
34852		5.479234	-1.587454	8.399453	0.197325	0.323544	0.333700	0.168517	0.053326	-0.144138	-0.787109	0.502686	-0.603516	0.054803	-0.015985	0.083966	0.406813	-0.304598	-0.057736	-0.859296	-10.424024	-34.782028	-126.058743
34853		5.894448	-1.120296	8.484327	0.362015	-0.220637	0.570165	0.157431	0.022688	-0.132672	-0.793945	0.510010	-0.606445	0.058947	-0.011309	0.084828	0.406513	-0.304154	-0.058543	-0.859541	-10.285135	-34.782513	-126.147902
34854		5.573743	-0.769647	8.252390	0.650120	-0.309767	0.149355	0.131010	0.003321	-0.110904	-0.796387	0.512451	-0.608398	0.055735	-0.007781	0.082518	0.406267	-0.303843	-0.059236	-0.859719	-10.171631	-34.790036	-126.218922
34855		6.018737	-1.063786	8.073035	0.122729	-0.461492	0.301791	0.112157	-0.021330	-0.081811	-0.804688	0.517822	-0.609619	0.060174	-0.010708	0.080731	0.406112	-0.303694	-0.059863	-0.859802	-10.081715	-34.809851	-126.266520
34856		6.421482	-1.103623	7.659365	-0.305001	-0.835898	0.203676	0.092069	-0.044141	-0.074091	-0.807617	0.520508	-0.613037	0.064194	-0.011095	0.076603	0.405951	-0.303676	-0.060429	-0.859845	-10.008196	-34.840285	-126.306525
34857		5.835483	-1.046478	7.797742	0.082945	-0.427040	-0.026804	0.082544	-0.056676	-0.066702	-0.812988	0.524170	-0.616211	0.058329	-0.010516	0.077990	0.405807	-0.303743	-0.060978	-0.859850	-9.943531	-34.878448	-126.339323
34858		5.904137	-1.196776	7.785432	-0.069668	-0.366294	0.024234	0.074732	-0.068676	-0.070289	-0.832275	0.518066	-0.621826	0.059010	-0.012018	0.077870	0.405628	-0.303867	-0.061513	-0.859853	-9.883018	-34.922279	-126.373882
34859		5.567765	-1.465154	8.003126	-0.002217	0.121981	0.045396	0.062225	-0.075580	-0.077403	-0.831299	0.523926	-0.632324	0.055642	-0.014698	0.080048	0.405392	-0.304054	-0.062027	-0.859861	-9.826871	-34.972201	-126.413121
34860		5.295852	-1.568318	8.092700	0.095654	0.412189	-0.024000	0.048107	-0.072739	-0.074030	-0.842773	0.525879	-0.620117	0.052923	-0.015722	0.080942	0.405156	-0.304248	-0.062462	-0.859872	-9.780282	-35.018637	-126.449917
34861		5.408048	-1.460005	7.895844	0.028138	0.207526	-0.133892	0.032396	-0.089091	-0.082503	-0.847412	0.522461	-0.629395	0.054039	-0.014635	0.078980	0.404844	-0.304552	-0.062881	-0.859881	-9.739958	-35.076663	-126.491756
34862		5.360766	-1.525245	8.104217	0.103750	0.366884	0.015697	0.023634	-0.097744	-0.076984	-0.855713	0.524902	-0.640381	0.053562	-0.015283	0.081067	0.404549	-0.304903	-0.063266	-0.859867	-9.707787	-35.137463	-126.527762
34863		5.505007	-1.141231	7.903538	0.223151	-0.042895	-0.116205	0.024052	-0.101324	-0.090136	-0.870117	0.527344	-0.621826	0.055005	-0.011447	0.079062	0.404199	-0.305272	-0.063689	-0.859870	-9.669970	-35.202981	-126.572043
34864		5.750438	-1.209153	7.791644	0.003350	-0.186857	-0.055415	0.021836	-0.105350	-0.085869	-0.860107	0.530518	-0.623047	0.057458	-0.012125	0.077945	0.403861	-0.305656	-0.064095	-0.859862	-9.635647	-35.268895	-126.613448
34865		6.032335	-1.225720	7.512977	-0.276004	-0.447736	-0.114253	0.031240	-0.098745	-0.097010	-0.871582	0.525879	-0.620361	0.060280	-0.012298	0.075158	0.403492	-0.305997	-0.064554	-0.859879	-9.590591	-35.333570	-126.662971
34866		5.728251	-1.423431	7.674209	-0.195210	-0.047598	-0.133219	0.028861	-0.088518	-0.088727	-0.875000	0.525879	-0.622070	0.057242	-0.014271	0.076765	0.403158	-0.306293	-0.064960	-0.859900	-9.549780	-35.390198	-126.708504
34867		4.965759	-1.629174	8.189360	0.271032	0.783480	-0.133261	0.024243	-0.076463	-0.095499	-0.882813	0.526855	-0.625977	0.049618	-0.016325	0.081911	0.402792	-0.306553	-0.065343	-0.859950	-9.507645	-35.442093	-126.759757
34868		5.614770	-1.354754	8.212223	0.167359	0.195978	0.224004	0.029445	-0.086207	-0.098404	-0.881836	0.527832	-0.621826	0.056106	-0.013587	0.082144	0.402417	-0.306835	-0.065761	-0.859993	-9.462283	-35.498273	-126.812437
34869		5.460211	-1.373062	8.222089	0.235514	0.323923	0.144297	0.012231	-0.085880	-0.099534	-0.888916	0.527100	-0.628662	0.054560	-0.013763	0.082243	0.402012	-0.307158	-0.066117	-0.860040	-9.425859	-35.555793	-126.865577
34870		6.093333	-1.248395	7.710194	-0.222796	-0.344532	0.085087	0.001548	-0.108079	-0.106338	-0.888916	0.532959	-0.622070	0.060885	-0.012517	0.077135	0.401553	-0.307586	-0.066472	-0.860074	-9.394548	-35.625024	-126.921421
34871		6.303736	-0.879138	7.601819	-0.102362	-0.754722	0.072530	-0.006147	-0.125975	-0.090505	-0.898926	0.529541	-0.618896	0.062985	-0.008818	0.076058	0.401145	-0.308121	-0.066815	-0.860046	-9.374800	-35.704323	-126.963836
34872		6.131268	-1.082186	7.694442	-0.115460	-0.459737	0.073833	-0.017291	-0.163058	-0.096798	-0.897949	0.536865	-0.621094	0.061245	-0.010845	0.076995	0.400678	-0.308827	-0.067185	-0.859982	-9.361625	-35.803712	-127.006894
34873		6.150401	-1.261669	7.614508	-0.284894	-0.365071	0.045584	-0.023181	-0.179015	-0.107476	-0.903564	0.529541	-0.622314	0.061429	-0.012641	0.076202	0.400153	-0.309618	-0.067587	-0.859911	-9.348046	-35.914581	-127.055207
34874		5.505969	-1.271010	8.109052	0.269839	0.254225	0.064073	-0.033748	-0.190985	-0.114901	-0.896729	0.538330	-0.615723	0.054975	-0.012728	0.081145	0.399573	-0.310470	-0.067970	-0.859843	-9.338523	-36.031427	-127.107874
34875		5.828336	-1.548912	7.954852	-0.150874	0.195628	0.166652	-0.052601	-0.238081	-0.138507	-0.903076	0.542725	-0.621338	0.058178	-0.015508	0.079622	0.398847	-0.311563	-0.068412	-0.859750	-9.332717	-36.178565	-127.171310
34876		5.445947	-1.316234	8.298953	0.386778	0.433213	0.183616	-0.056233	-0.273301	-0.153779	-0.900879	0.544434	-0.627930	0.054336	-0.013181	0.083068	0.398036	-0.312799	-0.068922	-0.859636	-9.325209	-36.345552	-127.241986
34877		5.786546	-1.465410	8.224981	0.097692	0.313813	0.344759	-0.102295	-0.343077	-0.164284	-0.911865	0.541504	-0.626953	0.057712	-0.014659	0.082356	0.397083	-0.314432	-0.069399	-0.859443	-9.343836	-36.554437	-127.311705
34878		6.014296	-0.718933	8.132045	0.510591	-0.338980	0.308725	-0.081259	-0.431995	-0.160717	-0.924561	0.539551	-0.614746	0.059961	-0.007204	0.081453	0.396145	-0.316395	-0.070128	-0.859096	-9.358151	-36.811809	-127.369155
34879		5.933582	-1.104419	8.210345	0.341046	0.039432	0.371555	-0.094186	-0.511982	-0.154919	-0.927490	0.539063	-0.605713	0.059117	-0.011051	0.082260	0.395182	-0.318736	-0.070960	-0.858605	-9.387275	-37.115338	-127.412836
34880		5.666178	-1.107137	8.366899	0.585287	0.312236	0.331075	-0.104966	-0.612213	-0.160067	-0.936523	0.550537	-0.615967	0.056396	-0.011073	0.083848	0.394139	-0.321516	-0.071941	-0.857967	-9.427731	-37.474562	-127.448753
34881		5.238639	-1.451620	8.996883	0.904186	1.105233	0.601476	-0.117046	-0.749904	-0.170344	-0.949951	0.552490	-0.603516	0.052036	-0.014508	0.090173	0.392980	-0.324911	-0.073167	-0.857115	-9.480121	-37.914048	-127.475063
34882		5.193144	-1.720149	9.212751	0.903946	1.464481	0.762742	-0.145026	-0.949832	-0.204378	-0.944336	0.547607	-0.599609	0.051476	-0.017187	0.092385	0.391547	-0.329190	-0.074710	-0.856004	-9.548799	-38.468302	-127.501739
34883		4.901356	-1.562998	9.615810	1.441069	1.778687	0.849777	-0.163855	-1.201663	-0.256434	-0.963623	0.549561	-0.587158	0.048415	-0.015613	0.096463	0.389755	-0.334563	-0.076759	-0.854557	-9.623693	-39.171220	-127.534302
34884		4.967056	-1.495598	9.732002	1.619198	1.846211	0.938481	-0.167509	-1.508697	-0.315662	-0.981201	0.556396	-0.572266	0.048911	-0.014952	0.097703	0.387566	-0.341207	-0.079476	-0.852675	-9.698018	-40.051891	-127.571518
34885		4.818218	-1.920751	10.609735	1.970911	2.723769	1.508228	-0.174413	-1.910322	-0.411187	-0.986328	0.543701	-0.552002	0.047126	-0.019212	0.106568	0.384769	-0.349520	-0.083108	-0.850225	-9.763013	-41.169964	-127.627394
34886		4.915244	-2.268339	11.371783	2.252181	3.418225	2.097701	-0.117290	-2.478319	-0.547357	-1.009033	0.544922	-0.533936	0.047676	-0.022748	0.114328	0.381206	-0.360028	-0.088293	-0.846916	-9.775265	-42.620710	-127.712790
34887		4.877202	-3.018797	12.784731	2.729389	4.845697	3.048160	-0.062960	-3.213855	-0.752693	-1.025146	0.536865	-0.490723	0.046595	-0.030326	0.128617	0.376466	-0.373385	-0.095470	-0.842462	-9.709388	-44.507868	-127.862828
34888		4.128336	-3.902854	14.324495	3.580212	6.958410	3.461172	0.093414	-4.010020	-1.013659	-1.040527	0.519775	-0.462891	0.038202	-0.039295	0.144013	0.370406	-0.389539	-0.105248	-0.836649	-9.468012	-46.868255	-128.128196
34889		4.804247	-4.854754	13.433626	2.443709	7.348237	3.113928	0.347218	-4.772829	-1.293159	-1.059082	0.516602	-0.415527	0.044504	-0.049077	0.135342	0.363077	-0.408068	-0.117997	-0.829296	-8.946205	-49.685353	-128.562670
34890		5.625400	-4.056361	13.440354	3.026302	6.960313	3.267003	0.515661	-5.343133	-1.575484	-1.078857	0.492188	-0.362793	0.052316	-0.041335	0.135730	0.354332	-0.428200	-0.132966	-0.820618	-8.111466	-52.845060	-129.256316
34891		7.760036	-1.885787	13.284698	4.007451	5.009646	4.295226	0.569311	-5.559426	-1.757682	-1.095215	0.471436	-0.315186	0.073698	-0.019899	0.134876	0.344520	-0.448655	-0.148825	-0.811089	-6.980208	-56.134140	-130.246876
34892		10.611668	-3.406049	13.693430	2.603107	5.888951	6.624406	0.594085	-5.385008	-1.809209	-1.110352	0.458008	-0.252441	0.102065	-0.035408	0.139615	0.334397	-0.467943	-0.164469	-0.801347	-5.550579	-59.312832	-131.537025
34893		12.453556	-3.779999	11.371170	0.644453	4.934983	6.735471	0.814883	-5.034709	-1.788068	-1.110107	0.451660	-0.199463	0.121276	-0.039365	0.116634	0.324905	-0.485118	-0.180241	-0.791587	-3.682023	-62.269857	-133.144232
34894		12.373382	-3.924979	11.048619	0.703865	5.654979	6.250992	0.944126	-4.665289	-1.815762	-1.118652	0.422119	-0.151855	0.120749	-0.040885	0.113136	0.315725	-0.500260	-0.195863	-0.782109	-1.289694	-64.984625	-135.212254
34895		11.753198	-5.134499	10.516475	-0.040387	7.091102	5.179439	1.207318	-4.130610	-1.814346	-1.117432	0.405518	-0.113525	0.114855	-0.053038	0.107239	0.307545	-0.512601	-0.211552	-0.773241	1.765405	-67.346737	-137.797300
34896		11.156399	-4.902898	8.748896	-0.737426	6.538556	3.667689	1.574615	-3.487305	-1.714949	-1.116943	0.386230	-0.077881	0.109591	-0.050671	0.089017	0.301220	-0.521743	-0.227312	-0.765101	5.435388	-69.279027	-140.777535
34897		-2.096639	2.585445	15.626605	12.693279	9.063544	-6.349810	1.328684	-2.396132	-1.240304	-1.104248	0.369385	-0.052002	-0.022681	0.024954	0.156169	0.297209	-0.527449	-0.239175	-0.759118	8.568291	-70.554978	-143.304673
34898		-2.591622	2.939507	26.599453	20.331118	16.383880	-3.401770	-0.377796	-0.516700	-1.298290	-1.105225	0.357178	-0.037109	-0.026409	0.030068	0.265870	0.290684	-0.528413	-0.241888	-0.760113	10.563433	-70.723091	-145.651008
34899		-16.959087	-9.823078	18.353868	10.127962	22.491469	-20.419806	-0.836295	0.656326	-1.340003	-1.102051	0.351563	-0.052490	-0.169636	-0.096324	0.184501	0.284252	-0.525478	-0.241281	-0.764760	11.980922	-70.202874	-147.657404
34900		-14.037374	-11.635971	14.918769	6.073166	20.879289	-18.878007	-0.337437	0.699759	-1.133065	-1.095947	0.329834	-0.062744	-0.140505	-0.115311	0.149874	0.279895	-0.521911	-0.241929	-0.768595	13.266723	-69.669730	-149.234292
34901		-4.699715	-9.338302	17.626334	6.781748	19.316809	-8.894150	-0.136190	1.265343	-0.219426	-1.100098	0.328369	-0.082031	-0.045983	-0.093212	0.176620	0.280345	-0.516930	-0.240208	-0.772327	13.055726	-68.933095	-149.081699
34902		-4.714271	-10.337742	16.432957	5.287113	19.251707	-9.079557	-0.161579	2.098664	0.762790	-1.089111	0.330078	-0.103027	-0.045020	-0.103419	0.164893	0.285402	-0.509944	-0.234618	-0.776825	11.231253	-67.849342	-147.221228
34903		-4.901324	-9.328211	14.582849	4.716908	17.356569	-9.392975	-0.004529	2.511974	1.385206	-1.081299	0.350586	-0.126221	-0.046529	-0.093607	0.146425	0.293900	-0.501705	-0.227503	-0.781126	8.752310	-66.565471	-144.514013
34904		-0.607043	-6.249569	14.688621	5.362889	14.163415	-4.733746	0.044560	2.816027	1.715497	-1.078369	0.362061	-0.162598	-0.003465	-0.062566	0.146933	0.303900	-0.492532	-0.219167	-0.785508	6.127310	-65.091997	-141.611381
34905		2.184776	-4.135201	14.597346	5.662493	11.686321	-1.670415	-0.144530	3.201026	1.808856	-1.071289	0.388672	-0.200928	0.024553	-0.041033	0.145625	0.314499	-0.481963	-0.209366	-0.790549	3.562243	-63.344707	-138.810459
34906		3.954392	-3.649619	13.502767	4.533176	9.843758	-0.127292	-0.320054	3.471592	1.625434	-1.060059	0.392578	-0.240723	0.042174	-0.035945	0.134369	0.323755	-0.470364	-0.198649	-0.796542	1.424331	-61.396856	-136.607100
34907		6.376994	-2.929593	12.875757	3.601652	7.782190	2.081542	-0.459825	3.597934	1.327254	-1.051758	0.411377	-0.273438	0.066264	-0.028567	0.127647	0.331972	-0.457872	-0.187987	-0.803000	-0.235276	-59.333968	-134.944095
34908		9.118851	-2.699142	12.433658	2.276364	5.907006	4.502659	-0.639580	3.706115	1.028302	-1.034424	0.403564	-0.309082	0.093608	-0.026120	0.122701	0.338084	-0.444940	-0.176841	-0.810219	-1.511992	-57.200581	-133.876525
34909		10.891768	-2.761716	11.642699	0.821545	4.272342	5.770932	-0.861909	3.782588	0.759438	-1.022461	0.415039	-0.333984	0.111197	-0.026702	0.114455	0.342911	-0.431558	-0.165316	-0.817827	-2.555859	-55.010445	-133.172936
34910		11.938263	-2.905263	10.605231	-0.584679	2.806109	6.161848	-1.096709	3.756857	0.583464	-1.006104	0.419922	-0.382080	0.121431	-0.028127	0.103940	0.345996	-0.418480	-0.153064	-0.825671	-3.495224	-52.841978	-132.790889
34911		13.156592	-3.029879	9.672279	-1.997251	1.303412	6.622353	-1.290759	3.647590	0.519560	-0.990479	0.425537	-0.408447	0.133380	-0.029339	0.094493	0.348460	-0.405902	-0.140344	-0.833140	-4.442342	-50.728437	-132.499033
34912		13.964394	-2.932397	8.939176	-2.968010	-0.059091	6.760487	-1.445996	3.528416	0.529084	-0.968506	0.431396	-0.445801	0.141270	-0.028316	0.087116	0.350170	-0.394024	-0.127038	-0.840231	-5.429621	-48.686773	-132.293724
34913		14.059055	-2.221593	8.072622	-3.268608	-1.566463	6.143350	-1.573364	3.410979	0.575510	-0.943359	0.434326	-0.452881	0.142004	-0.021185	0.078482	0.351862	-0.382684	-0.113316	-0.846703	-6.481242	-46.700779	-132.067267
34914		13.046612	-1.452130	6.848764	-3.192863	-2.650080	4.399635	-1.680175	3.238182	0.639648	-0.928955	0.445801	-0.486328	0.131598	-0.013537	0.066479	0.353158	-0.372231	-0.099229	-0.852571	-7.590973	-44.812905	-131.865025
34915		12.451761	-0.670310	5.959021	-3.061545	-3.708884	3.143411	-1.730043	2.942147	0.706695	-0.892334	0.459961	-0.508301	0.125398	-0.005756	0.057802	0.354544	-0.362998	-0.085315	-0.857468	-8.748167	-43.079693	-131.613241
34916		12.872688	0.149066	5.619441	-3.052275	-5.052650	2.932732	-1.717815	2.659605	0.800764	-0.877441	0.469238	-0.521729	0.129450	0.002481	0.054458	0.355977	-0.354936	-0.071737	-0.861484	-9.925637	-41.499803	-131.329264
34917		12.664078	0.839904	5.004494	-2.952226	-6.025740	2.065482	-1.639816	2.453870	0.919330	-0.859619	0.474854	-0.528320	0.127200	0.009384	0.048412	0.358105	-0.347530	-0.058664	-0.864605	-11.100803	-40.013508	-130.950137
34918		11.653491	1.713940	4.060920	-2.485697	-6.719162	0.380281	-1.502051	2.231988	1.065479	-0.826416	0.477783	-0.529785	0.116883	0.018059	0.039173	0.360749	-0.340848	-0.046284	-0.866915	-12.245033	-38.635609	-130.505956
34919		11.389506	2.723008	3.443354	-2.087642	-7.765836	-0.630251	-1.315492	1.968841	1.260891	-0.812012	0.486572	-0.543945	0.114050	0.028170	0.033128	0.364498	-0.334923	-0.034839	-0.868190	-13.361835	-37.369432	-129.914071
34920		11.725698	2.874895	2.936606	-2.461322	-8.469961	-1.062024	-1.051735	1.776432	1.474189	-0.796387	0.500488	-0.549561	0.117294	0.029764	0.028170	0.369447	-0.329359	-0.024532	-0.868579	-14.400187	-36.176511	-129.189722
34921		11.060151	3.025742	2.445647	-2.285022	-8.512863	-2.081808	-0.667638	1.643902	1.617806	-0.789307	0.494385	-0.546143	0.110547	0.031231	0.023444	0.375586	-0.323610	-0.015878	-0.868308	-15.258151	-35.023628	-128.378163
34922		10.414922	4.193750	2.079535	-1.349010	-9.205931	-3.193895	-0.278299	1.503138	1.677972	-0.770020	0.499023	-0.552002	0.103944	0.042838	0.019954	0.382546	-0.317719	-0.009099	-0.867543	-15.899828	-33.933504	-127.530042
34923		10.268594	5.136212	1.812137	-0.730456	-9.977789	-3.895405	-0.012007	1.357671	1.689877	-0.758301	0.506348	-0.553223	0.102367	0.052229	0.017423	0.389857	-0.311899	-0.003699	-0.866439	-16.382743	-32.913206	-126.679378
34924		10.007922	5.160927	1.199691	-0.830820	-10.076542	-4.713442	0.171088	1.180886	1.656554	-0.747803	0.505615	-0.556641	0.099716	0.052426	0.011452	0.397332	-0.306464	0.000477	-0.864990	-16.745400	-31.991700	-125.824744
34925		10.627136	5.082432	0.745350	-1.337366	-10.646072	-4.894160	0.318563	0.965506	1.585988	-0.749023	0.508789	-0.555176	0.105899	0.051654	0.007024	0.404611	-0.301627	0.003510	-0.863307	-17.003234	-31.195052	-124.998373
34926		11.861247	5.243642	0.479143	-1.858630	-11.765102	-4.661086	0.331284	0.801327	1.463923	-0.738281	0.514648	-0.551025	0.118243	0.053295	0.004405	0.411431	-0.297461	0.005941	-0.861514	-17.216224	-30.507045	-124.216941
34927		12.745649	5.167151	-0.000990	-2.475090	-12.538702	-4.733073	0.194134	0.688496	1.363689	-0.720947	0.512695	-0.559082	0.127099	0.052539	-0.000397	0.417500	-0.294037	0.008609	-0.859745	-17.474335	-29.894564	-123.497850
34928		13.898542	3.352277	-0.779762	-4.609926	-12.460049	-4.473426	0.009164	0.631187	1.241029	-0.718262	0.516602	-0.549561	0.138748	0.034385	-0.008234	0.422842	-0.291244	0.011743	-0.858047	-17.796477	-29.332027	-122.839509
34929		14.177168	0.189139	-1.832800	-7.466029	-10.974762	-4.502570	0.039928	0.658986	1.077475	-0.713135	0.525635	-0.563721	0.141697	0.002659	-0.018794	0.427504	-0.288253	0.014572	-0.856702	-18.039777	-28.779153	-122.296157
34930		13.041924	-2.821595	-3.804956	-10.054937	-8.765222	-5.991943	0.302803	0.604369	0.854643	-0.706299	0.522217	-0.564209	0.130422	-0.027601	-0.038486	0.431582	-0.284950	0.015830	-0.855740	-18.065491	-28.295682	-121.883507
34931		14.798705	-5.890603	-12.827845	-17.558434	-10.260486	-11.974718	1.806164	-0.299372	-0.175552	-0.712402	0.505371	-0.564697	0.148128	-0.057876	-0.128583	0.433439	-0.282330	0.007240	-0.855785	-17.011119	-28.486426	-121.929236
34932		30.097448	5.427431	-14.555389	-17.093787	-29.222512	-8.815068	2.119691	-1.188363	-1.381578	-0.713867	0.490723	-0.570801	0.302202	0.053715	-0.143189	0.430552	-0.282843	-0.006325	-0.857079	-15.486404	-29.359240	-122.574869
34933		32.819773	16.644948	-25.038867	-15.104012	-41.056476	-18.012780	0.956933	-2.336005	-1.358678	-0.730469	0.475342	-0.556152	0.332212	0.165385	-0.245731	0.425996	-0.290725	-0.017344	-0.856566	-14.709215	-30.852383	-123.035360
34934		34.502059	-4.758000	5.570316	-16.743241	-20.013308	13.917166	0.277124	-2.886867	-0.330187	-0.727051	0.473145	-0.544434	0.344090	-0.048230	0.060608	0.424720	-0.302440	-0.025126	-0.852943	-14.701380	-32.498044	-122.751853
34935		16.464163	-19.237696	22.887564	-10.479276	7.732505	21.736676	1.342169	-1.409379	-0.567968	-0.735107	0.477539	-0.541016	0.162479	-0.194376	0.228726	0.424162	-0.305527	-0.034679	-0.851785	-13.862065	-33.360512	-122.884092
34936		-2.480191	12.417882	18.369666	19.364580	-0.171896	1.267659	1.478632	-1.670187	-1.074226	-0.743652	0.471680	-0.535156	-0.025677	0.122954	0.184397	0.421555	-0.309296	-0.046124	-0.851176	-12.765543	-34.431341	-123.334810
34937		19.701302	4.352267	17.137717	2.687012	-10.290038	14.428884	1.422809	-1.537780	-0.545279	-0.752930	0.463867	-0.538086	0.195801	0.041760	0.173187	0.421088	-0.312710	-0.056239	-0.849549	-11.873651	-35.358348	-123.471535
34938		15.399892	10.093879	11.667943	6.293463	-12.669323	6.772304	0.637237	-0.456217	-0.249094	-0.754883	0.467285	-0.540039	0.153857	0.100374	0.117351	0.420926	-0.313236	-0.060263	-0.849160	-11.451817	-35.641193	-123.572781
34939		7.413172	-7.990163	5.733538	-6.596466	2.192020	0.353573	0.293326	-0.092032	-0.153418	-0.760986	0.465576	-0.545898	0.074044	-0.080042	0.057252	0.420739	-0.312976	-0.061924	-0.849229	-11.234012	-35.710122	-123.659860
34940		8.483832	-3.374283	6.788009	-3.128864	-1.071357	1.073104	0.374438	0.165111	-0.197347	-0.761963	0.479004	-0.549316	0.084861	-0.033953	0.067747	0.420567	-0.311428	-0.063443	-0.849771	-10.932083	-35.637064	-123.813269
34941		7.570526	-2.040922	7.489426	-1.420442	-1.035508	0.886828	0.272018	0.209579	-0.215712	-0.762939	0.481201	-0.562500	0.075762	-0.020593	0.074787	0.420118	-0.309919	-0.064462	-0.850468	-10.677505	-35.543122	-123.991461
34942		7.241282	0.563477	8.062712	0.928285	-2.259730	0.760524	0.192907	0.170005	-0.165704	-0.770996	0.480469	-0.579834	0.072486	0.005497	0.080571	0.419797	-0.308739	-0.065150	-0.851003	-10.492948	-35.462897	-124.122500
34943		7.544970	0.588824	7.905499	0.709360	-2.536341	0.809645	0.117408	0.098429	-0.087085	-0.776367	0.488770	-0.582031	0.075491	0.005809	0.079021	0.419637	-0.308066	-0.065551	-0.851295	-10.387909	-35.417169	-124.193918
34944		6.416965	-0.566718	8.108957	0.435483	-0.961034	0.489767	0.071124	0.050417	-0.039375	-0.778809	0.494385	-0.591309	0.064189	-0.005709	0.081071	0.419626	-0.307692	-0.065776	-0.851418	-10.332996	-35.390911	-124.221937
34945		6.561889	-1.260622	7.641673	-0.380184	-0.786681	0.300636	0.042056	0.007974	-0.018413	-0.782227	0.502686	-0.595703	0.065621	-0.012628	0.076411	0.419620	-0.307583	-0.065943	-0.851448	-10.305389	-35.388942	-124.233153
34946		5.865369	-1.320642	8.074118	0.095432	-0.116385	0.252867	0.023272	-0.037189	0.001723	-0.787354	0.504150	-0.602539	0.058639	-0.013215	0.080751	0.419682	-0.307696	-0.066085	-0.851365	-10.300758	-35.407835	-124.221703
34947		5.092645	-1.910635	8.463432	0.188136	0.929315	0.203111	0.013465	-0.039831	-0.005501	-0.794922	0.509521	-0.605957	0.050909	-0.019113	0.084643	0.419685	-0.307853	-0.066214	-0.851297	-10.298331	-35.431329	-124.216131
34948		5.433864	-2.434077	8.342327	-0.418249	0.993262	0.379689	0.013673	-0.057756	-0.022415	-0.793213	0.515137	-0.605469	0.054312	-0.024353	0.083437	0.419623	-0.308065	-0.066396	-0.851237	-10.291022	-35.464290	-124.218795
34949		5.574629	-1.942338	8.196649	-0.177152	0.537028	0.272670	0.022249	-0.072774	-0.038208	-0.814453	0.520996	-0.606201	0.055713	-0.019443	0.081985	0.419494	-0.308333	-0.066683	-0.851181	-10.272906	-35.509612	-124.231118
34950		6.332972	-1.999781	7.548882	-0.868450	-0.169178	0.202723	0.003620	-0.093527	-0.056274	-0.817139	0.517578	-0.617188	0.063289	-0.020017	0.075518	0.419260	-0.308707	-0.066949	-0.851140	-10.260314	-35.566196	-124.252775
34951		6.474530	-1.605892	7.521316	-0.644326	-0.516586	0.206624	-0.006532	-0.098128	-0.062578	-0.826904	0.527588	-0.633789	0.064703	-0.016077	0.075245	0.418961	-0.309136	-0.067200	-0.851111	-10.250545	-35.628480	-124.280603
34952		5.857781	-1.819164	7.837225	-0.369632	0.161602	0.131270	-0.011635	-0.098260	-0.067779	-0.834229	0.526123	-0.623047	0.058533	-0.018207	0.078402	0.418652	-0.309558	-0.067429	-0.851092	-10.242315	-35.688899	-124.309707
34953		6.007974	-1.611890	8.109599	-0.147404	0.040888	0.406712	-0.022750	-0.127339	-0.071161	-0.843750	0.532471	-0.614502	0.060022	-0.016131	0.081136	0.418288	-0.310142	-0.067688	-0.851038	-10.240492	-35.768466	-124.339032
34954		5.887655	-1.097406	8.143918	0.320713	-0.183634	0.289569	-0.033377	-0.152580	-0.057643	-0.854736	0.532715	-0.621826	0.058811	-0.010977	0.081486	0.417970	-0.310844	-0.067922	-0.850919	-10.252741	-35.858479	-124.354318
34955		6.208098	-0.726892	7.967570	0.382771	-0.688731	0.283357	-0.053305	-0.194260	-0.041079	-0.863281	0.534668	-0.624512	0.062002	-0.007260	0.079738	0.417643	-0.311789	-0.068138	-0.850717	-10.285344	-35.972980	-124.357074
34956		5.920966	-0.868396	8.044447	0.461266	-0.363612	0.196311	-0.080150	-0.231863	-0.012482	-0.863525	0.532227	-0.614502	0.059116	-0.008655	0.080517	0.417416	-0.312941	-0.068269	-0.850395	-10.348840	-36.103066	-124.330724
34957		6.261015	-0.942661	7.892092	0.200470	-0.584621	0.286421	-0.091953	-0.282205	-0.010633	-0.874512	0.528320	-0.609863	0.062498	-0.009394	0.079013	0.417165	-0.314345	-0.068466	-0.849984	-10.423332	-36.263491	-124.295539
34958		5.957975	-1.327279	8.105568	0.177101	-0.038608	0.332579	-0.129622	-0.291382	0.003084	-0.872559	0.541260	-0.609863	0.059462	-0.013219	0.081151	0.416904	-0.315857	-0.068486	-0.849550	-10.526626	-36.425430	-124.250055
34959		5.496301	-1.520367	7.918373	0.178131	0.336770	-0.061982	-0.114133	-0.275024	-0.001594	-0.892822	0.545166	-0.601074	0.054854	-0.015159	0.079268	0.416657	-0.317278	-0.068560	-0.849136	-10.617636	-36.580782	-124.208701
