// General information: 
//  MT Manager version: 2021.4.0 
//  XDA version: 2021.4.0 build 6323 rev 112641 built on 2021-09-28
// Device information: 
//  DeviceId: 00B4778E
//  ProductCode: MTW2-3A7G6
//  Firmware Version: 4.6.0
//  Hardware Version: 2.0.0
// Device settings: 
//  Filter Profile: human(46.1)
//  Option Flags: Orientation Smoother Disabled, Position/Velocity Smoother Disabled, Continuous Zero Rotation Update Disabled, AHS Disabled, ICC Disabled
// Coordinate system: ENU
PacketCounter	SampleTimeFine	Acc_X	Acc_Y	Acc_Z	FreeAcc_E	FreeAcc_N	FreeAcc_U	Gyr_X	Gyr_Y	Gyr_Z	Mag_X	Mag_Y	Mag_Z	VelInc_X	VelInc_Y	VelInc_Z	Quat_q0	Quat_q1	Quat_q2	Quat_q3	Roll	Pitch	Yaw
34423		5.411434	2.214297	7.768054	0.047403	0.046553	-0.090292	-0.001522	0.009966	0.004656	-0.543213	-0.089844	-0.523193	0.054118	0.022145	0.077678	0.040142	-0.290457	-0.134662	-0.946514	16.241927	-34.101106	179.845235
34424		5.468042	2.257225	7.783604	0.015631	0.009696	-0.036252	-0.001119	0.006845	0.001990	-0.543457	-0.085205	-0.518555	0.054683	0.022573	0.077834	0.040140	-0.290468	-0.134662	-0.946511	16.242165	-34.102347	179.844727
34425		5.433344	2.232214	7.786971	0.042302	0.034713	-0.058819	0.000803	0.011071	-0.000245	-0.544678	-0.084961	-0.523193	0.054338	0.022322	0.077867	0.040127	-0.290457	-0.134672	-0.946513	16.243855	-34.100888	179.842826
34426		5.463811	2.229300	7.716956	-0.021233	0.018289	-0.098078	0.000250	0.008869	0.001513	-0.544434	-0.087158	-0.523682	0.054641	0.022293	0.077167	0.040126	-0.290458	-0.134679	-0.946512	16.244835	-34.100940	179.842394
34427		5.476910	2.263746	7.764232	-0.001154	-0.001521	-0.045171	-0.002803	0.005426	-0.000878	-0.538818	-0.082764	-0.516602	0.054771	0.022638	0.077641	0.040105	-0.290474	-0.134675	-0.946509	16.245253	-34.102469	179.839491
34428		5.453128	2.245211	7.746798	0.006334	0.011300	-0.076657	-0.001473	0.011738	0.004959	-0.540771	-0.072754	-0.526123	0.054535	0.022454	0.077465	0.040120	-0.290464	-0.134668	-0.946512	16.243651	-34.101495	179.841903
34429		5.430629	2.231455	7.789083	0.045488	0.035980	-0.058838	-0.003156	0.010319	0.002091	-0.546143	-0.086182	-0.520996	0.054310	0.022316	0.077888	0.040129	-0.290456	-0.134659	-0.946516	16.242015	-34.100797	179.843680
34430		5.472112	2.216828	7.749818	-0.012362	0.039099	-0.070186	-0.002703	0.008972	-0.000273	-0.536621	-0.088867	-0.516113	0.054725	0.022169	0.077495	0.040116	-0.290456	-0.134655	-0.946517	16.241957	-34.100506	179.842081
34431		5.471493	2.216550	7.750335	-0.011564	0.039428	-0.070186	-0.001573	0.008190	0.004353	-0.542236	-0.089111	-0.520508	0.054718	0.022167	0.077501	0.040118	-0.290463	-0.134647	-0.946516	16.240896	-34.101374	179.842548
34432		5.417741	2.242051	7.759989	0.042182	0.017422	-0.086739	-0.001070	0.008617	0.002292	-0.544922	-0.083984	-0.517334	0.054181	0.022422	0.077597	0.040118	-0.290465	-0.134646	-0.946515	16.240856	-34.101689	179.842584
34433		5.449774	2.243870	7.749546	0.010318	0.012901	-0.076662	-0.000566	0.009045	0.000231	-0.544922	-0.079346	-0.523193	0.054501	0.022439	0.077493	0.040104	-0.290466	-0.134649	-0.946515	16.241787	-34.101458	179.840613
34434		5.459989	2.250431	7.729236	-0.008072	0.001038	-0.085563	-0.001070	0.008617	0.002292	-0.542236	-0.081299	-0.533203	0.054603	0.022505	0.077290	0.040105	-0.290468	-0.134649	-0.946514	16.241747	-34.101774	179.840649
34435		5.448567	2.243537	7.750492	0.011895	0.013525	-0.076665	-0.001120	0.006843	0.001989	-0.544922	-0.091797	-0.526123	0.054488	0.022436	0.077503	0.040114	-0.290476	-0.134651	-0.946511	16.241730	-34.102910	179.841631
34436		5.447814	2.243178	7.751125	0.012693	0.013855	-0.076666	-0.005193	0.013790	0.002192	-0.544678	-0.085938	-0.523926	0.054483	0.022434	0.077507	0.040112	-0.290455	-0.134630	-0.946521	16.238804	-34.100364	179.842602
34437		5.468681	2.238056	7.761780	0.000008	0.021538	-0.057681	-0.000971	0.012162	0.002898	-0.544922	-0.080566	-0.513672	0.054691	0.022382	0.077614	0.040112	-0.290442	-0.134627	-0.946525	16.238204	-34.098757	179.843061
34438		5.466599	2.214841	7.754276	-0.005995	0.041701	-0.070191	-0.001071	0.008616	0.002292	-0.540039	-0.083496	-0.526855	0.054669	0.022149	0.077540	0.040113	-0.290444	-0.134627	-0.946525	16.238165	-34.099073	179.843098
34439		5.445306	2.242353	7.753126	0.015075	0.014820	-0.076671	-0.000921	0.013935	0.003201	-0.536865	-0.082031	-0.529297	0.054458	0.022425	0.077527	0.040124	-0.290422	-0.134624	-0.946531	16.237128	-34.096608	179.845157
34440		5.433607	2.235433	7.774564	0.035068	0.027341	-0.067785	-0.001071	0.008615	0.002292	-0.534424	-0.081787	-0.523193	0.054339	0.022355	0.077743	0.040125	-0.290424	-0.134624	-0.946531	16.237089	-34.096925	179.845193
34441		5.465643	2.237162	7.764177	0.003172	0.022809	-0.057685	-0.000205	0.010210	0.003878	-0.538818	-0.087158	-0.525146	0.054660	0.022373	0.077639	0.040146	-0.290417	-0.134627	-0.946532	16.236576	-34.096411	179.847944
34442		5.443218	2.241770	7.754760	0.017434	0.015780	-0.076677	0.000199	0.007092	0.001211	-0.540283	-0.079834	-0.524414	0.054435	0.022418	0.077546	0.040142	-0.290426	-0.134634	-0.946528	16.237832	-34.097393	179.846968
34443		5.453501	2.230194	7.785937	0.023947	0.035640	-0.048805	-0.001021	0.010387	0.002595	-0.539307	-0.077637	-0.525146	0.054539	0.022303	0.077856	0.040150	-0.290419	-0.134634	-0.946530	16.237365	-34.096659	179.848201
34444		5.441967	2.241427	7.755737	0.019009	0.016419	-0.076681	-0.001121	0.006841	0.001989	-0.538574	-0.086670	-0.524170	0.054422	0.022415	0.077555	0.040148	-0.290429	-0.134634	-0.946527	16.237602	-34.097902	179.847693
34445		5.474013	2.243239	7.745335	-0.012871	0.011894	-0.066568	-0.000517	0.010814	0.000534	-0.535400	-0.081787	-0.519287	0.054744	0.022433	0.077450	0.040150	-0.290418	-0.134639	-0.946529	16.238111	-34.096602	179.847924
34446		5.451497	2.229714	7.787477	0.026328	0.036606	-0.048815	-0.001071	0.008613	0.002292	-0.537842	-0.087646	-0.520996	0.054518	0.022298	0.077872	0.040150	-0.290421	-0.134639	-0.946528	16.238071	-34.096919	179.847960
34447		5.450880	2.229575	7.787949	0.027112	0.036923	-0.048818	0.001064	0.008686	0.002797	-0.543457	-0.088379	-0.526367	0.054512	0.022296	0.077877	0.040156	-0.290422	-0.134647	-0.946527	16.238964	-34.097179	179.848414
34448		5.439277	2.240945	7.757763	0.022163	0.017698	-0.076689	0.000299	0.010636	0.001817	-0.536621	-0.090820	-0.527588	0.054397	0.022410	0.077575	0.040158	-0.290414	-0.134654	-0.946528	16.239667	-34.096307	179.848526
34449		5.449462	2.247568	7.737494	0.003728	0.005838	-0.085562	0.000249	0.008863	0.001514	-0.541016	-0.079834	-0.512451	0.054498	0.022476	0.077373	0.040153	-0.290414	-0.134660	-0.946527	16.240646	-34.096190	179.847652
34450		5.439225	2.263583	7.766934	0.030539	-0.001472	-0.064185	-0.003663	0.009884	0.004149	-0.546875	-0.078613	-0.515625	0.054396	0.022638	0.077666	0.040160	-0.290412	-0.134644	-0.946530	16.238292	-34.096106	179.849168
34451		5.491759	2.237418	7.758417	-0.021548	0.021205	-0.047567	-0.001072	0.008612	0.002291	-0.548340	-0.079102	-0.512939	0.054921	0.022375	0.077582	0.040162	-0.290416	-0.134643	-0.946529	16.238046	-34.096563	179.849458
34452		5.425719	2.233261	7.780695	0.044557	0.031175	-0.067835	-0.003208	0.008539	0.001785	-0.549316	-0.084229	-0.509277	0.054260	0.022334	0.077804	0.040157	-0.290419	-0.134633	-0.946530	16.236979	-34.096839	179.849143
34453		5.468459	2.241591	7.749734	-0.006461	0.014481	-0.066565	-0.000873	0.015701	0.003503	-0.543457	-0.086670	-0.507324	0.054690	0.022417	0.077493	0.040162	-0.290392	-0.134627	-0.946538	16.235712	-34.093700	179.850583
34454		5.512524	2.254750	7.778366	-0.025735	0.009727	-0.016053	0.000102	0.009600	0.007221	-0.560303	-0.085693	-0.495117	0.055128	0.022549	0.077781	0.040188	-0.290393	-0.134625	-0.946537	16.234401	-34.094264	179.854084
34455		6.105474	1.166199	6.794489	-1.214703	0.781876	-0.717904	-0.007204	0.012941	0.025187	-0.547852	-0.080566	-0.497314	0.061058	0.011672	0.067941	0.040272	-0.290397	-0.134556	-0.946542	16.221880	-34.096226	179.867789
34456		7.959434	1.941446	7.301000	-2.355641	0.180819	0.903874	0.010450	-0.018870	0.017302	-0.560059	-0.091797	-0.495850	0.079586	0.019418	0.073019	0.040342	-0.290538	-0.134594	-0.946491	16.225828	-34.114066	179.872485
34457		6.444145	1.812762	6.663791	-1.462713	0.124236	-0.481865	-0.000044	0.010336	0.012928	-0.561035	-0.084473	-0.492188	0.064444	0.018132	0.066635	0.040390	-0.290541	-0.134580	-0.946490	16.222150	-34.115240	179.879253
34458		6.170727	1.804057	7.320864	-0.882885	0.314542	-0.114794	0.000161	0.000131	0.009051	-0.567139	-0.079834	-0.488281	0.061707	0.018043	0.073209	0.040418	-0.290588	-0.134577	-0.946475	16.221216	-34.121306	179.882140
34459		6.189684	2.161899	7.331355	-0.836726	-0.026202	-0.012995	0.002545	0.003009	0.004456	-0.565186	-0.085938	-0.487793	0.061897	0.021619	0.073313	0.040431	-0.290618	-0.134591	-0.946463	16.222929	-34.125056	179.882579
34460		5.346492	2.250160	7.662971	0.053763	-0.019856	-0.201962	0.003909	0.016270	0.002454	-0.572754	-0.083496	-0.475342	0.053471	0.022501	0.076626	0.040445	-0.290583	-0.134613	-0.946470	16.224852	-34.121187	179.884203
34461		5.263104	2.447913	7.999445	0.334260	-0.116069	0.064482	0.000044	0.013010	-0.001225	-0.576904	-0.083008	-0.488770	0.052636	0.024479	0.079991	0.040433	-0.290562	-0.134621	-0.946475	16.226166	-34.118530	179.882810
34462		5.460200	2.359523	7.702987	-0.002746	-0.113204	-0.081073	-0.000513	0.010810	0.000533	-0.572266	-0.085693	-0.479736	0.054606	0.023596	0.077027	0.040428	-0.290553	-0.134625	-0.946478	16.226863	-34.117357	179.882102
34463		5.542390	2.271292	7.719116	-0.076089	-0.023880	-0.042567	0.000759	0.015340	0.006068	-0.577393	-0.080322	-0.476074	0.055429	0.022714	0.077187	0.040454	-0.290526	-0.134626	-0.946485	16.225619	-34.114582	179.886005
34464		5.369634	2.300799	7.811050	0.120779	-0.027015	-0.059543	-0.001020	0.010381	0.002593	-0.582275	-0.093750	-0.474609	0.053700	0.023009	0.078108	0.040457	-0.290521	-0.134625	-0.946487	16.225305	-34.113976	179.886583
34465		5.871176	2.158417	7.542430	-0.461026	0.035559	-0.024740	-0.002692	0.003781	0.007866	-0.579102	-0.089111	-0.474609	0.058712	0.021587	0.075423	0.040478	-0.290550	-0.134609	-0.946479	16.222669	-34.117847	179.889445
34466		5.672120	2.100560	7.591441	-0.277994	0.104345	-0.110775	0.001986	0.000808	0.006214	-0.576172	-0.091064	-0.469971	0.056721	0.021007	0.075914	0.040497	-0.290592	-0.134619	-0.946464	16.223765	-34.123086	179.890577
34467		5.637890	2.252712	7.679816	-0.177629	-0.017138	-0.024518	0.002036	0.002580	0.006517	-0.588623	-0.081787	-0.471680	0.056379	0.022528	0.076798	0.040518	-0.290625	-0.134628	-0.946452	16.224468	-34.127410	179.892311
34468		5.747149	2.087613	7.541006	-0.367719	0.103060	-0.111720	0.003664	0.002223	0.009084	-0.583496	-0.088379	-0.460449	0.057471	0.020877	0.075410	0.040553	-0.290662	-0.134641	-0.946437	16.225302	-34.132330	179.895624
34469		5.608011	2.137316	7.569973	-0.228539	0.063337	-0.155247	0.000915	0.003365	0.001889	-0.593994	-0.079346	-0.464111	0.056081	0.021373	0.075699	0.040551	-0.290689	-0.134651	-0.946427	16.227003	-34.135486	179.894434
34470		5.546375	2.184311	7.667558	-0.116976	0.045532	-0.101395	0.004171	0.002650	0.007024	-0.585938	-0.093018	-0.468262	0.055464	0.021843	0.076675	0.040578	-0.290721	-0.134670	-0.946414	16.228849	-34.139841	179.896461
34471		5.648762	2.099930	7.522311	-0.292450	0.086671	-0.178875	0.004321	0.001913	0.001317	-0.587402	-0.093506	-0.465088	0.056488	0.020998	0.075223	0.040577	-0.290754	-0.134697	-0.946400	16.232873	-34.143707	179.894608
34472		5.144274	2.373970	7.860242	0.351038	-0.082164	-0.130089	0.013373	-0.008612	0.002814	-0.595947	-0.080078	-0.460693	0.051439	0.023735	0.078606	0.040590	-0.290836	-0.134768	-0.946364	16.242786	-34.153584	179.891657
34473		5.001978	2.296219	7.958040	0.513037	0.020873	-0.150433	0.010132	-0.046796	0.010410	-0.599365	-0.084961	-0.461426	0.050000	0.022961	0.079593	0.040608	-0.291104	-0.134819	-0.946273	16.252046	-34.185699	179.886410
34474		4.870400	2.332827	8.094240	0.709121	0.024791	-0.108249	0.009278	-0.098546	0.023083	-0.593262	-0.083008	-0.456543	0.048661	0.023330	0.080967	0.040650	-0.291625	-0.134859	-0.946105	16.261848	-34.248295	179.879490
34475		5.250095	2.146402	7.965453	0.308038	0.170192	-0.040527	0.018017	-0.113697	0.029369	-0.591797	-0.084717	-0.461182	0.052453	0.021465	0.079686	0.040724	-0.292221	-0.134933	-0.945908	16.275858	-34.320237	179.873847
34476		5.764280	1.995478	7.858785	-0.184867	0.288612	0.129740	0.018492	-0.130621	0.022219	-0.591553	-0.091309	-0.460449	0.057589	0.019954	0.078627	0.040753	-0.292891	-0.135025	-0.945686	16.294829	-34.400331	179.860059
34477		5.720066	2.284462	7.628516	-0.214660	-0.050621	-0.010467	0.024087	-0.124228	0.029052	-0.598145	-0.087402	-0.466064	0.057150	0.022844	0.076323	0.040828	-0.293535	-0.135130	-0.945468	16.313643	-34.478010	179.852090
34478		5.772720	2.097641	7.555551	-0.314439	0.110930	-0.081318	0.022864	-0.109721	0.028898	-0.597412	-0.089111	-0.460205	0.057683	0.020976	0.075590	0.040909	-0.294110	-0.135228	-0.945272	16.330359	-34.547679	179.846756
34479		5.698420	1.936769	7.654570	-0.213065	0.295625	-0.082184	0.033065	-0.102877	0.025615	-0.606201	-0.090088	-0.456543	0.056942	0.019362	0.076578	0.040995	-0.294648	-0.135377	-0.945079	16.353306	-34.613065	179.840596
34480		6.017591	1.899185	7.482223	-0.564894	0.288075	-0.045402	0.042097	-0.101311	0.011090	-0.592529	-0.079590	-0.455811	0.060137	0.018979	0.074857	0.041027	-0.295167	-0.135590	-0.944885	16.386923	-34.675233	179.824934
34481		5.923468	2.023240	7.518313	-0.437935	0.184044	-0.041284	0.045584	-0.098356	-0.003352	-0.600586	-0.082031	-0.449219	0.059198	0.020214	0.075217	0.040997	-0.295662	-0.135839	-0.944696	16.427623	-34.733447	179.800201
34482		5.989056	2.110886	7.482881	-0.487784	0.095794	-0.011105	0.044974	-0.091103	-0.003433	-0.605225	-0.093750	-0.456299	0.059857	0.021091	0.074861	0.040971	-0.296122	-0.136085	-0.944518	16.467374	-34.787632	179.776716
34483		5.929714	2.129066	7.447602	-0.446809	0.073918	-0.068145	0.050567	-0.079480	-0.004768	-0.602539	-0.085449	-0.447998	0.059268	0.021270	0.074505	0.040955	-0.296526	-0.136357	-0.944353	16.509447	-34.835225	179.754643
34484		6.008358	2.156417	7.287834	-0.587535	0.008851	-0.142231	0.053046	-0.061798	-0.010324	-0.606689	-0.085938	-0.454102	0.060062	0.021542	0.072903	0.040928	-0.296841	-0.136645	-0.944213	16.553234	-34.872161	179.732244
34485		5.855186	2.226294	7.423317	-0.371201	-0.014491	-0.106647	0.059031	-0.037710	-0.009570	-0.602539	-0.081299	-0.459229	0.058539	0.022238	0.074251	0.040930	-0.297042	-0.136954	-0.944105	16.597319	-34.896014	179.715170
34486		5.939139	2.178747	7.332152	-0.494622	0.011430	-0.141288	0.054218	-0.017510	-0.011891	-0.602051	-0.088867	-0.447266	0.059386	0.021764	0.073333	0.040928	-0.297147	-0.137241	-0.944030	16.637377	-34.908350	179.700490
34487		5.789409	2.186316	7.425123	-0.317995	0.035365	-0.152081	0.054718	-0.005820	-0.015508	-0.601807	-0.089355	-0.448975	0.057894	0.021838	0.074259	0.040918	-0.297194	-0.137533	-0.943974	16.677644	-34.913710	179.685780
34488		5.953687	2.223211	7.375488	-0.473521	-0.007949	-0.088357	0.050281	-0.000025	-0.018944	-0.612305	-0.086914	-0.451172	0.059539	0.022208	0.073760	0.040889	-0.297212	-0.137808	-0.943929	16.716155	-34.915273	179.669866
34489		5.856370	2.187214	7.511402	-0.324598	0.070201	-0.045812	0.051324	0.002590	-0.022777	-0.616943	-0.096191	-0.446777	0.058567	0.021846	0.075119	0.040845	-0.297216	-0.138093	-0.943888	16.756300	-34.914810	179.651973
34490		5.677179	2.262705	7.640267	-0.094874	0.039434	-0.029369	0.054774	0.002892	-0.023070	-0.618408	-0.084229	-0.444824	0.056776	0.022600	0.076408	0.040805	-0.297217	-0.138395	-0.943845	16.798630	-34.914072	179.633885
34491		5.741862	2.271958	7.616451	-0.159316	0.030230	-0.008872	0.058005	-0.003926	-0.024551	-0.609131	-0.091553	-0.450684	0.057420	0.022690	0.076172	0.040758	-0.297248	-0.138715	-0.943791	16.844034	-34.916870	179.613489
34492		5.679640	2.319952	7.653088	-0.079617	0.000454	-0.004329	0.052078	-0.010672	-0.020233	-0.619629	-0.087158	-0.444336	0.056795	0.023174	0.076540	0.040718	-0.297315	-0.139002	-0.943729	16.885309	-34.924018	179.594549
34493		5.724439	2.374223	7.575058	-0.148998	-0.067741	-0.026940	0.053994	-0.017734	-0.020924	-0.615723	-0.094238	-0.451660	0.057240	0.023716	0.075762	0.040673	-0.297415	-0.139301	-0.943655	16.928643	-34.934967	179.573763
34494		5.737684	2.350609	7.654643	-0.117176	-0.016047	0.037488	0.058042	-0.031680	-0.013254	-0.620117	-0.095947	-0.447754	0.057366	0.023480	0.076562	0.040660	-0.297585	-0.139611	-0.943556	16.973131	-34.954771	179.555189
34495		5.759408	2.304931	7.645011	-0.143381	0.031336	0.031505	0.061269	-0.045453	-0.006859	-0.626709	-0.085449	-0.447998	0.057577	0.023024	0.076470	0.040672	-0.297824	-0.139928	-0.943433	17.018521	-34.983240	179.538111
34496		5.625425	2.342442	7.722339	0.020819	0.023238	0.024282	0.060553	-0.064290	-0.004394	-0.620361	-0.099121	-0.446289	0.056230	0.023400	0.077249	0.040682	-0.298153	-0.140243	-0.943282	17.064929	-35.022371	179.518726
34497		5.463759	2.424230	7.825488	0.231300	-0.019776	0.031800	0.062904	-0.090963	0.002014	-0.616455	-0.093018	-0.454102	0.054602	0.024218	0.078287	0.040707	-0.298613	-0.140564	-0.943088	17.113284	-35.077236	179.498151
34498		5.443265	2.513822	7.801336	0.260045	-0.105914	0.022475	0.063443	-0.118317	0.011281	-0.620850	-0.098145	-0.441162	0.054385	0.025117	0.078054	0.040757	-0.299207	-0.140880	-0.942850	17.161818	-35.148568	179.478000
34499		5.503450	2.404734	7.811296	0.212725	0.008113	0.038288	0.056038	-0.148930	0.024994	-0.619629	-0.098145	-0.445068	0.054973	0.024032	0.078161	0.040839	-0.299957	-0.141146	-0.942569	17.204415	-35.239020	179.460665
34500		5.565321	2.467077	7.843601	0.207292	-0.036167	0.113895	0.050053	-0.175772	0.038511	-0.615479	-0.100830	-0.449463	0.055579	0.024662	0.078491	0.040957	-0.300844	-0.141370	-0.942247	17.241782	-35.346391	179.446654
34501		5.493173	2.333343	7.717724	0.194479	0.061028	-0.058657	0.114058	-0.191471	0.088389	-0.626221	-0.100586	-0.432373	0.054847	0.023314	0.077243	0.041395	-0.301826	-0.141823	-0.941846	17.298287	-35.470876	179.462783
34502		5.381111	2.847777	7.819911	0.451402	-0.394635	0.079614	0.100735	-0.249816	0.109985	-0.630615	-0.096436	-0.439453	0.053698	0.028468	0.078281	0.041873	-0.303101	-0.142193	-0.941360	17.345991	-35.630920	179.481026
34503		5.742024	2.158051	7.873594	0.104854	0.290906	0.163574	0.118228	-0.306568	0.114034	-0.629150	-0.094971	-0.438965	0.057287	0.021567	0.078837	0.042357	-0.304641	-0.142649	-0.940771	17.409027	-35.822747	179.489943
34504		5.679975	2.173987	7.754496	0.127069	0.249604	0.038300	0.126416	-0.369541	0.117365	-0.638428	-0.098877	-0.435059	0.056644	0.021724	0.077663	0.042823	-0.306477	-0.143153	-0.940077	17.483528	-36.049532	179.487427
34505		5.674868	2.268355	7.931797	0.290376	0.223636	0.193732	0.160649	-0.449990	0.133799	-0.631592	-0.093262	-0.429443	0.056555	0.022658	0.079464	0.043361	-0.308694	-0.143808	-0.939227	17.581365	-36.323146	179.478466
34506		5.525323	2.168133	8.112245	0.548794	0.387374	0.216619	0.199201	-0.546325	0.155500	-0.636719	-0.097168	-0.431152	0.055014	0.021643	0.081295	0.043991	-0.311368	-0.144631	-0.938188	17.705482	-36.653070	179.462675
34507		5.451262	2.546751	8.314613	0.853995	0.106258	0.414430	0.248336	-0.672614	0.179481	-0.631592	-0.096924	-0.416504	0.054210	0.025413	0.083360	0.044718	-0.314637	-0.145673	-0.936901	17.865111	-37.056093	179.434589
34508		5.217087	2.594661	8.636202	1.315902	0.181975	0.520211	0.309917	-0.838326	0.224891	-0.648926	-0.104736	-0.411133	0.051779	0.025871	0.086620	0.045633	-0.318697	-0.146967	-0.935281	18.064862	-37.557351	179.398972
34509		5.309092	2.625024	8.777328	1.432109	0.230312	0.676047	0.377957	-1.033933	0.264100	-0.658936	-0.090332	-0.407471	0.052601	0.026154	0.088096	0.046696	-0.323675	-0.148557	-0.933266	18.316035	-38.171995	179.343384
34510		5.368939	2.788825	8.915054	1.622515	0.157295	0.837296	0.410694	-1.266488	0.318026	-0.658203	-0.093262	-0.402832	0.053079	0.027789	0.089545	0.047888	-0.329759	-0.150261	-0.930799	18.599504	-38.922584	179.267062
34511		5.503385	2.589842	9.205755	1.811056	0.483616	1.060395	0.449041	-1.544459	0.378468	-0.664063	-0.093750	-0.385254	0.054272	0.025794	0.092537	0.049213	-0.337153	-0.152101	-0.927778	18.924631	-39.834775	179.160923
34512		5.347347	2.749655	9.355370	2.243701	0.429093	1.071033	0.490924	-1.858706	0.446652	-0.671631	-0.103027	-0.374512	0.052539	0.027384	0.094112	0.050681	-0.346018	-0.154086	-0.924100	19.299839	-40.929375	179.016880
34513		5.293943	2.829806	9.575742	2.667156	0.480407	1.159009	0.519878	-2.226085	0.536685	-0.685059	-0.086914	-0.352539	0.051793	0.028188	0.096412	0.052328	-0.356601	-0.156122	-0.919632	19.721502	-42.238773	178.831146
34514		5.328928	3.167028	9.852963	3.165790	0.313755	1.384597	0.525652	-2.630126	0.644378	-0.683594	-0.096924	-0.335938	0.051885	0.031579	0.099301	0.054155	-0.369065	-0.158074	-0.914260	20.181972	-43.785771	178.598549
34515		5.498595	4.028788	10.485048	3.982079	-0.223948	2.039813	0.507129	-3.029232	0.758220	-0.707520	-0.091064	-0.312988	0.053236	0.040224	0.105768	0.056141	-0.383367	-0.159804	-0.907932	20.672315	-45.568261	178.315192
34516		6.550343	3.530597	10.789781	3.743271	0.437067	2.740038	0.520996	-3.339976	0.879252	-0.712646	-0.086426	-0.286377	0.063533	0.035305	0.109062	0.058439	-0.399065	-0.161408	-0.900710	21.199807	-47.540061	178.000705
34517		8.339352	4.362351	10.855332	3.251262	-0.206810	4.179309	0.584834	-3.526098	1.004295	-0.726318	-0.070801	-0.263916	0.081242	0.043715	0.110126	0.061258	-0.415553	-0.163051	-0.892736	21.770657	-49.634998	177.687121
34518		8.141712	3.662180	10.359708	3.357168	0.354890	3.438860	0.666413	-3.587432	1.114850	-0.742188	-0.074951	-0.217529	0.079336	0.036719	0.105155	0.064669	-0.432232	-0.164789	-0.884216	22.377519	-51.784229	177.397234
34519		8.981765	2.831003	10.012888	2.872248	1.120581	3.581923	0.834641	-3.639519	1.201958	-0.741455	-0.071045	-0.201904	0.087804	0.028419	0.101857	0.068761	-0.448995	-0.167038	-0.875085	23.085728	-53.977794	177.109578
34520		8.467463	3.449292	9.003035	3.065982	0.264032	2.643607	1.037969	-3.602799	1.257841	-0.753418	-0.051270	-0.172363	0.082815	0.034545	0.091713	0.073557	-0.465401	-0.169974	-0.865506	23.918048	-56.162523	176.820625
34521		9.744801	5.042206	8.470421	2.888175	-1.275928	3.683253	1.083986	-3.402093	1.335991	-0.757324	-0.052490	-0.139893	0.095648	0.050599	0.086615	0.078942	-0.480810	-0.172788	-0.855999	24.707474	-58.258048	176.621113
34522		9.927717	4.891131	6.805130	1.903215	-1.670555	2.929437	1.067342	-3.096454	1.449140	-0.759033	-0.033691	-0.118164	0.097849	0.049254	0.069836	0.085008	-0.494852	-0.175079	-0.846902	25.321466	-60.221087	176.619022
34523		10.407750	3.647744	5.338366	0.504684	-1.021955	2.386247	1.120510	-2.641626	1.521409	-0.755127	-0.023193	-0.095459	0.103079	0.036959	0.054956	0.091885	-0.506861	-0.177172	-0.838605	25.726324	-61.966398	176.890580
34524		6.975323	2.978178	3.161780	0.419533	-1.325929	-1.714350	1.173354	-2.160949	1.533106	-0.759033	-0.010498	-0.081787	0.069175	0.030124	0.032543	0.099348	-0.516724	-0.179195	-0.831274	25.918307	-63.467715	177.431665
34525		0.812359	3.049754	2.318151	2.652302	-1.830509	-7.588182	1.279030	-1.771414	1.426023	-0.769043	0.001221	-0.067871	0.007700	0.030404	0.023446	0.106970	-0.524717	-0.181705	-0.824750	26.061758	-64.741918	178.087462
34526		15.623351	5.609528	12.925589	6.232332	0.466990	10.276068	1.516381	-0.981679	1.512883	-0.765137	0.008057	-0.066650	0.155170	0.056286	0.130446	0.116273	-0.529327	-0.184516	-0.819907	25.784082	-65.630950	179.351205
34527		9.256034	7.791562	11.527802	8.695150	-2.096049	4.303748	1.007424	0.868046	1.147781	-0.762939	0.015869	-0.069336	0.092614	0.077866	0.115268	0.124427	-0.526254	-0.185112	-0.820554	24.594654	-65.464569	-178.707448
34528		-1.642620	7.175486	6.754792	9.079838	-3.464188	-7.495774	0.738741	1.344727	0.903159	-0.756348	0.023193	-0.087891	-0.016293	0.071431	0.067922	0.131302	-0.521127	-0.184938	-0.822791	23.323320	-64.974855	-176.840369
34529		2.043960	6.382589	7.016981	7.400132	-2.670062	-4.132766	0.466632	1.624566	0.555095	-0.745850	0.029541	-0.105713	0.020833	0.063720	0.070150	0.136284	-0.514661	-0.184354	-0.826175	22.220891	-64.243425	-175.323422
34530		2.078276	6.017483	7.550843	7.589967	-2.094767	-3.850578	0.387721	2.151056	0.088438	-0.750000	0.034424	-0.126953	0.021568	0.060038	0.075396	0.139607	-0.505597	-0.184267	-0.831220	21.428279	-63.122495	-174.190716
34531		0.757457	5.222798	7.351043	7.590438	-1.403756	-5.090381	0.322059	2.631957	-0.315763	-0.754883	0.020020	-0.150635	0.008624	0.052097	0.073486	0.141506	-0.494128	-0.184567	-0.837704	20.900899	-61.654591	-173.386560
34532		0.208477	4.299733	7.001711	7.077887	-0.698058	-5.693614	0.272706	2.946106	-0.634463	-0.741455	0.019043	-0.174316	0.003253	0.042893	0.070033	0.142211	-0.480990	-0.185188	-0.845062	20.601106	-59.951753	-172.863510
34533		0.772987	3.416180	6.955789	6.258184	0.037222	-5.178134	0.283613	3.209968	-0.900811	-0.737305	0.003662	-0.203857	0.008999	0.034025	0.069469	0.142024	-0.466354	-0.186262	-0.853024	20.499200	-58.052065	-172.554194
34534		1.374783	2.944235	6.764242	5.434143	0.328643	-4.648445	0.316520	3.454451	-1.150910	-0.726074	-0.004639	-0.233643	0.015083	0.029251	0.067436	0.141032	-0.450283	-0.187827	-0.861438	20.567543	-55.971740	-172.418755
34535		1.664113	2.697391	6.451228	4.746971	0.380490	-4.429524	0.296217	3.668993	-1.329619	-0.718750	-0.012451	-0.267090	0.018000	0.026762	0.064230	0.139375	-0.432967	-0.189491	-0.870177	20.702704	-53.739477	-172.375517
34536		1.700571	2.116971	5.892596	3.888777	0.631793	-4.658207	0.237071	3.791889	-1.430721	-0.711670	-0.020508	-0.292480	0.018270	0.020972	0.058612	0.137212	-0.414898	-0.190953	-0.878960	20.837829	-51.421850	-172.373858
34537		1.701234	1.400982	5.422579	3.079894	1.043143	-4.946202	0.190028	3.808718	-1.486455	-0.694580	-0.041504	-0.321533	0.018144	0.013826	0.053901	0.134665	-0.396553	-0.192236	-0.887500	20.971533	-49.082798	-172.405089
34538		1.930208	1.125195	4.967216	2.329933	1.049161	-5.003141	0.158121	3.729993	-1.528652	-0.675537	-0.047119	-0.341553	0.020309	0.011060	0.049308	0.131737	-0.378384	-0.193433	-0.895575	21.121377	-46.778149	-172.484070
34539		2.304237	1.288414	4.726957	1.793104	0.747251	-4.759334	0.110371	3.563835	-1.569018	-0.666504	-0.069336	-0.374512	0.023980	0.012673	0.046855	0.128325	-0.360795	-0.194528	-0.903061	21.290335	-44.552665	-172.630736
34540		3.132140	1.621776	4.645916	1.080365	0.322729	-4.089944	0.030711	3.325503	-1.627596	-0.648926	-0.081055	-0.401367	0.032219	0.015951	0.045931	0.124228	-0.344154	-0.195450	-0.909904	21.476179	-42.442874	-172.874260
34541		4.631602	1.847120	4.898911	-0.017542	0.082845	-2.823356	-0.075831	3.071145	-1.741627	-0.637695	-0.093018	-0.420654	0.047219	0.018081	0.048262	0.119139	-0.328504	-0.196179	-0.916190	21.684053	-40.442859	-173.252751
34542		6.531370	1.920190	5.118798	-1.567926	-0.059799	-1.441351	-0.183494	2.839225	-1.871915	-0.622070	-0.109375	-0.435547	0.066208	0.018631	0.050235	0.113013	-0.313763	-0.196707	-0.922002	21.904987	-38.538571	-173.764485
34543		8.367955	1.857696	5.279726	-3.224088	-0.075296	-0.276441	-0.268179	2.640156	-1.997486	-0.604492	-0.121338	-0.456543	0.084547	0.017805	0.051661	0.105948	-0.299767	-0.197100	-0.927398	22.135068	-36.710397	-174.391767
34544		9.904495	1.634468	5.030129	-4.955722	-0.061953	0.262014	-0.305291	2.439772	-2.060339	-0.602051	-0.139160	-0.464355	0.099810	0.015395	0.049063	0.098311	-0.286587	-0.197468	-0.932314	22.369822	-34.973946	-175.090324
34545		11.051058	1.510241	4.543659	-6.467565	-0.170406	0.345212	-0.311044	2.189514	-2.038998	-0.589844	-0.150635	-0.473877	0.111146	0.014041	0.044200	0.090493	-0.274519	-0.197854	-0.936645	22.601509	-33.371338	-175.818758
34546		12.186737	1.593534	4.038824	-7.904309	-0.439615	0.418987	-0.320620	1.873286	-1.907590	-0.573242	-0.163818	-0.472656	0.122383	0.014833	0.039219	0.082947	-0.264020	-0.198117	-0.940299	22.801327	-31.963710	-176.528152
34547		13.424151	1.819889	3.567099	-9.352869	-0.804945	0.584989	-0.344847	1.540573	-1.695149	-0.567383	-0.163818	-0.487793	0.134659	0.017119	0.034605	0.076025	-0.255256	-0.198094	-0.943304	22.942727	-30.776372	-177.177999
34548		14.306276	1.990014	3.044019	-10.507545	-1.110495	0.494972	-0.394391	1.207087	-1.436707	-0.560791	-0.178223	-0.485596	0.143381	0.018930	0.029537	0.069920	-0.248319	-0.197611	-0.945727	23.004314	-29.822668	-177.746774
34549		15.622001	1.428910	2.445352	-12.202520	-0.787580	0.313619	-0.358524	0.920168	-1.187566	-0.549805	-0.184326	-0.494141	0.156412	0.013404	0.023710	0.064748	-0.242947	-0.197073	-0.947600	23.038461	-29.074975	-178.232690
34550		16.229371	1.824339	1.538799	-13.166438	-1.434410	-0.134229	-0.220597	0.736551	-0.999047	-0.553955	-0.187256	-0.488281	0.162437	0.017449	0.014770	0.060454	-0.238580	-0.197010	-0.949006	23.112728	-28.466713	-178.648358
34551		15.509521	3.213113	0.299486	-12.875427	-3.101926	-1.120252	-0.134145	0.543308	-0.810699	-0.543945	-0.196289	-0.495117	0.155231	0.031504	0.002552	0.056963	-0.235278	-0.197185	-0.950009	23.201790	-28.001705	-178.997695
34552		14.995725	3.759176	-0.837170	-12.866835	-3.977953	-2.175705	-0.133696	0.300989	-0.609881	-0.536377	-0.194092	-0.498535	0.150058	0.037129	-0.008622	0.054188	-0.233325	-0.197190	-0.950652	23.261201	-27.709733	-179.287520
34553		14.523899	5.016138	-1.501798	-12.532795	-5.326040	-2.537901	-0.079880	0.037296	-0.494445	-0.537109	-0.202393	-0.491455	0.145360	0.049796	-0.015065	0.051763	-0.232720	-0.197387	-0.950894	23.349657	-27.582135	-179.575285
34554		15.307380	15.177212	-7.780254	-14.021920	-17.117719	-3.849543	-2.242543	-0.587914	0.383362	-0.542480	-0.176758	-0.485840	0.153015	0.151184	-0.079050	0.050375	-0.236499	-0.186428	-0.952247	22.028697	-27.981997	-179.496622
34555		7.345796	-7.672834	4.698238	-5.790949	8.800853	-4.923135	-2.099342	-1.619117	0.856975	-0.548340	-0.171143	-0.472656	0.073397	-0.075911	0.048376	0.050441	-0.245554	-0.175821	-0.951969	20.763941	-29.029325	-179.365109
34556		8.169905	3.115307	18.231363	1.780000	3.483520	10.024686	-1.237086	-1.485483	-0.119178	-0.556641	-0.157471	-0.462158	0.080362	0.032234	0.182717	0.047030	-0.252862	-0.170455	-0.951207	20.261631	-29.807028	-179.784310
34557		1.314479	-7.176404	15.679046	5.035317	12.104128	1.465063	-1.288179	-1.598037	0.236571	-0.562012	-0.141846	-0.448975	0.011973	-0.070737	0.157347	0.045145	-0.260995	-0.164408	-0.950165	19.633986	-30.718521	179.998070
34558		4.166201	-14.027988	13.451180	0.614303	17.712234	-0.814404	-0.591346	-1.957890	0.499145	-0.569092	-0.129639	-0.430908	0.040689	-0.139778	0.135327	0.045116	-0.270867	-0.161389	-0.947918	19.361230	-31.875964	179.872031
34559		13.312857	-3.541952	13.932918	-4.800950	7.942879	7.442886	-0.263344	-1.752799	0.818914	-0.574951	-0.130615	-0.420166	0.132043	-0.034693	0.140536	0.047209	-0.279923	-0.159429	-0.945514	19.141579	-32.983351	-179.998797
34560		13.071207	3.861485	9.376719	-5.352457	-0.615772	5.828862	-0.359745	-1.087509	0.767837	-0.573486	-0.123779	-0.408447	0.130050	0.039284	0.094405	0.049452	-0.285796	-0.156916	-0.944062	18.797392	-33.720174	-179.746596
34561		6.101576	10.065515	4.839947	-0.651416	-8.000125	0.063624	-0.600568	-0.959628	0.483419	-0.578125	-0.111816	-0.398438	0.060540	0.100947	0.048388	0.050106	-0.290890	-0.153634	-0.943011	18.396720	-34.334315	-179.644711
34562		17.174675	1.193964	9.669893	-8.743081	1.807974	7.799490	-0.849089	-0.583979	0.389908	-0.578613	-0.113525	-0.398682	0.171439	0.012686	0.097147	0.050245	-0.294192	-0.149217	-0.942688	17.838218	-34.726389	-179.516634
34563		4.790420	-0.249186	7.767679	0.215301	2.603937	-1.065109	-0.274387	-0.065160	0.222444	-0.574219	-0.108154	-0.394775	0.047882	-0.002332	0.077696	0.050826	-0.294777	-0.147622	-0.942725	17.606989	-34.805576	-179.385971
34564		6.742645	3.815382	8.728213	-0.118576	-1.017717	1.812809	-0.304669	0.054052	0.153294	-0.573242	-0.102783	-0.402588	0.067421	0.038338	0.087206	0.051125	-0.294753	-0.145956	-0.942976	17.370199	-34.807061	-179.275915
34565		5.955089	2.171908	8.411446	0.055347	0.422182	0.711156	-0.282088	0.089352	0.134689	-0.586182	-0.094238	-0.386963	0.059574	0.021878	0.084057	0.051394	-0.294545	-0.144414	-0.943264	17.149126	-34.785916	-179.170905
34566		6.491434	2.890177	7.271738	-0.875693	-0.644423	0.296112	-0.243910	0.115185	0.113876	-0.571533	-0.086670	-0.399170	0.064940	0.029027	0.072645	0.051640	-0.294188	-0.143077	-0.943566	16.955094	-34.746603	-179.074672
34567		6.169710	1.882585	8.003904	-0.407109	0.515891	0.445968	-0.190323	0.136388	0.064573	-0.573242	-0.085693	-0.394531	0.061746	0.018922	0.079979	0.051748	-0.293683	-0.142058	-0.943871	16.808089	-34.687444	-179.007186
34568		6.104797	1.255012	8.006520	-0.475086	1.099014	0.262749	-0.130530	0.104553	0.019927	-0.573242	-0.096924	-0.404053	0.061089	0.012608	0.080025	0.051710	-0.293278	-0.141396	-0.944098	16.716224	-34.638040	-178.976116
34569		6.346544	1.392360	7.673211	-0.834941	0.855948	0.170582	-0.076426	0.051892	-0.021394	-0.570557	-0.096680	-0.399902	0.063487	0.013946	0.076710	0.051519	-0.293081	-0.141062	-0.944220	16.676902	-34.610931	-178.983165
34570		6.090598	1.824664	7.667861	-0.552332	0.442009	0.123128	-0.042227	0.018220	-0.034189	-0.569824	-0.093994	-0.395752	0.060916	0.018252	0.076669	0.051294	-0.293023	-0.140918	-0.944271	16.666009	-34.599977	-179.005540
34571		5.925923	2.285344	7.716999	-0.308983	0.018464	0.177088	-0.030310	0.006523	-0.045526	-0.575195	-0.100342	-0.401855	0.059267	0.022852	0.077165	0.051025	-0.293011	-0.140849	-0.944300	16.667378	-34.593823	-179.037745
34572		6.108315	2.292414	7.504176	-0.574272	-0.052773	0.114385	-0.013450	0.018651	-0.046408	-0.575928	-0.094238	-0.404297	0.061095	0.022915	0.075035	0.050784	-0.292936	-0.140859	-0.944335	16.677539	-34.580624	-179.068176
34573		6.340858	2.250721	7.275834	-0.899047	-0.081568	0.056205	-0.001373	0.030287	-0.046250	-0.570557	-0.093018	-0.406982	0.063425	0.022493	0.072749	0.050571	-0.292804	-0.140921	-0.944378	16.693049	-34.561309	-179.096104
34574		5.855154	2.225985	7.469061	-0.403558	0.008158	-0.072986	0.007089	0.045789	-0.048598	-0.564209	-0.093506	-0.405029	0.058574	0.022243	0.074678	0.050369	-0.292593	-0.141025	-0.944439	16.712698	-34.532843	-179.122545
34575		5.518244	2.143803	7.725577	-0.007536	0.170202	-0.081170	0.023619	0.049079	-0.050911	-0.576172	-0.091797	-0.394775	0.055207	0.021415	0.077245	0.050183	-0.292363	-0.141207	-0.944493	16.742115	-34.502444	-179.149783
34576		5.689346	2.000655	7.749230	-0.166209	0.317479	0.000234	0.046612	0.037854	-0.070783	-0.573242	-0.097168	-0.406982	0.056915	0.019968	0.077486	0.049929	-0.292164	-0.141531	-0.944519	16.793616	-34.474639	-179.192524
34577		5.758510	1.972078	7.692608	-0.263546	0.335964	-0.012513	0.069511	0.032514	-0.093139	-0.568115	-0.094482	-0.410645	0.057607	0.019667	0.076924	0.049600	-0.291970	-0.141996	-0.944526	16.867030	-34.446282	-179.251094
34578		5.814431	2.056431	7.774694	-0.255676	0.291850	0.103553	0.106966	0.026276	-0.115534	-0.571045	-0.089844	-0.413330	0.058166	0.020489	0.077750	0.049214	-0.291779	-0.142674	-0.944504	16.971149	-34.417270	-179.325798
34579		5.954485	2.125177	7.666277	-0.423040	0.209861	0.113089	0.156803	0.032811	-0.134137	-0.567627	-0.091797	-0.409912	0.059572	0.021152	0.076670	0.048818	-0.291533	-0.143611	-0.944458	17.109766	-34.381695	-179.411353
34580		5.583201	2.226535	7.891926	0.015097	0.206242	0.105441	0.198506	0.039307	-0.165909	-0.567871	-0.093994	-0.410156	0.055866	0.022141	0.078930	0.048337	-0.291221	-0.144790	-0.944399	17.283464	-34.336718	-179.516547
34581		5.845495	2.372765	7.783304	-0.242636	0.058487	0.203165	0.217962	0.044614	-0.189661	-0.564941	-0.103271	-0.410645	0.058495	0.023587	0.077846	0.047777	-0.290864	-0.146093	-0.944337	17.476152	-34.284774	-179.636062
34582		6.033214	2.412938	7.546886	-0.527345	-0.024843	0.132093	0.217762	0.059650	-0.194150	-0.567383	-0.106934	-0.417969	0.060378	0.023989	0.075477	0.047205	-0.290429	-0.147400	-0.944297	17.668556	-34.223232	-179.755171
34583		5.958927	2.644811	7.483837	-0.470446	-0.237117	0.098621	0.210661	0.068014	-0.204667	-0.567627	-0.113037	-0.408936	0.059642	0.026308	0.074846	0.046580	-0.289951	-0.148684	-0.944273	17.859299	-34.155245	-179.879043
34584		5.770472	2.806002	7.740681	-0.162335	-0.283977	0.236346	0.203166	0.087378	-0.205780	-0.563965	-0.114014	-0.411865	0.057767	0.027922	0.077410	0.045953	-0.289379	-0.149931	-0.944282	18.043692	-34.075886	-179.999205
34585		6.021687	2.485326	7.496617	-0.570400	-0.028292	0.102482	0.192889	0.094857	-0.212711	-0.560547	-0.108643	-0.414795	0.060279	0.024717	0.074961	0.045284	-0.288771	-0.151136	-0.944309	18.223282	-33.991196	179.878170
34586		5.916274	2.423879	7.308091	-0.608854	-0.002921	-0.121718	0.197535	0.104466	-0.215763	-0.568848	-0.107178	-0.423096	0.059227	0.024103	0.073074	0.044614	-0.288111	-0.152366	-0.944344	18.405264	-33.900116	179.756020
34587		5.960459	2.286752	7.579472	-0.540789	0.238518	0.079495	0.194332	0.108360	-0.220419	-0.559570	-0.112793	-0.430420	0.059671	0.022728	0.075785	0.043921	-0.287431	-0.153585	-0.944386	18.586018	-33.806061	179.632213
34588		4.978918	2.434071	8.094617	0.555739	0.282831	-0.022477	0.221491	0.129885	-0.220817	-0.560303	-0.110352	-0.427246	0.049869	0.024196	0.080941	0.043281	-0.286641	-0.154930	-0.944437	18.779553	-33.699607	179.513357
34589		5.535346	2.322935	8.050633	0.032025	0.406515	0.221374	0.238672	0.142387	-0.214826	-0.571045	-0.116455	-0.429199	0.055436	0.023074	0.080494	0.042704	-0.285793	-0.156342	-0.944487	18.978526	-33.587456	179.401836
34590		5.795783	2.416193	7.563008	-0.446087	0.194307	0.005221	0.256335	0.161634	-0.227947	-0.566650	-0.116699	-0.440918	0.058046	0.023999	0.075614	0.042104	-0.284838	-0.157853	-0.944551	19.189580	-33.461786	179.286695
34591		5.727248	2.536797	7.534890	-0.404408	0.100523	-0.023024	0.252011	0.162836	-0.228780	-0.566406	-0.118652	-0.432861	0.057363	0.025207	0.075334	0.041496	-0.283879	-0.159343	-0.944617	19.397503	-33.335271	179.172068
34592		5.136005	2.682178	7.401112	0.023760	-0.058705	-0.413487	0.242306	0.154724	-0.218786	-0.566895	-0.131592	-0.437988	0.051447	0.026676	0.074004	0.040914	-0.282964	-0.160775	-0.944674	19.596942	-33.214396	179.062682
34593		4.998850	2.644970	7.289437	0.056975	-0.036583	-0.586875	0.209630	0.119988	-0.175516	-0.571533	-0.123535	-0.434082	0.050055	0.026329	0.072892	0.040463	-0.282257	-0.161997	-0.944696	19.766092	-33.120635	178.973835
34594		4.978033	2.714964	7.383113	0.123161	-0.051656	-0.504393	0.170276	0.071049	-0.112311	-0.573242	-0.129395	-0.441406	0.049822	0.027059	0.073837	0.040214	-0.281837	-0.162955	-0.944667	19.896585	-33.065024	178.914605
34595		5.172388	2.898994	7.481152	0.034520	-0.173712	-0.268370	0.136879	0.056330	-0.079874	-0.562744	-0.133545	-0.440918	0.051757	0.028918	0.074817	0.040061	-0.281522	-0.163711	-0.944637	19.998127	-33.023898	178.873009
34596		5.597336	2.876147	7.820288	-0.157019	-0.018374	0.223959	0.127779	0.068473	-0.081516	-0.564453	-0.128662	-0.446045	0.056012	0.028689	0.078202	0.039896	-0.281147	-0.164425	-0.944632	20.093586	-32.975536	178.833251
34597		5.596549	2.771433	7.707006	-0.242221	0.056718	0.103876	0.134549	0.099961	-0.084443	-0.566895	-0.134277	-0.444092	0.056016	0.027639	0.077061	0.039753	-0.280623	-0.165167	-0.944664	20.189631	-32.909922	178.799198
34598		5.743083	2.787424	7.338744	-0.565497	-0.065659	-0.102602	0.117998	0.130634	-0.093215	-0.577881	-0.129395	-0.447266	0.057492	0.027804	0.073366	0.039570	-0.279946	-0.165839	-0.944755	20.275380	-32.825716	178.766863
34599		5.782056	2.625994	7.237024	-0.690844	0.064096	-0.209504	0.099387	0.119200	-0.074672	-0.562744	-0.137939	-0.442383	0.057873	0.026202	0.072349	0.039440	-0.279345	-0.166397	-0.944840	20.345199	-32.751632	178.743895
34600		5.175120	2.804363	7.331667	-0.113338	-0.074522	-0.411557	0.078980	0.110785	-0.052797	-0.568359	-0.126953	-0.455322	0.051799	0.028001	0.073299	0.039377	-0.278803	-0.166832	-0.944926	20.396958	-32.686084	178.732955
34601		4.889711	3.071466	7.425426	0.210998	-0.294450	-0.413278	0.039596	0.082774	-0.016988	-0.574463	-0.136475	-0.451416	0.048930	0.030696	0.074240	0.039405	-0.278434	-0.167034	-0.944998	20.417186	-32.643062	178.738318
34602		4.822036	3.122130	7.349957	0.232595	-0.368383	-0.494330	-0.006378	0.055527	0.022896	-0.570801	-0.128906	-0.458984	0.048237	0.031229	0.073485	0.039535	-0.278234	-0.166971	-0.945063	20.401033	-32.622304	178.762594
34603		4.501492	3.257205	7.157653	0.426146	-0.572454	-0.779665	-0.083427	0.012996	0.090016	-0.566162	-0.135742	-0.450928	0.045005	0.032622	0.071560	0.039839	-0.278308	-0.166457	-0.945119	20.322913	-32.638087	178.819644
34604		4.607821	3.340930	7.159328	0.356631	-0.665114	-0.697854	-0.186751	-0.017519	0.183710	-0.565430	-0.124756	-0.454590	0.046041	0.033518	0.071566	0.040417	-0.278621	-0.165332	-0.945199	20.157299	-32.688413	178.929347
34605		5.053528	3.266929	7.107229	-0.047754	-0.633504	-0.521834	-0.281119	-0.040193	0.251525	-0.566895	-0.118652	-0.456787	0.050480	0.032833	0.071036	0.041165	-0.279120	-0.163669	-0.945310	19.916595	-32.764251	179.077485
34606		5.029533	3.196849	7.230449	0.036645	-0.564913	-0.459892	-0.370473	-0.038470	0.312780	-0.570068	-0.124512	-0.449219	0.050231	0.032181	0.072255	0.042079	-0.279674	-0.161499	-0.945479	19.602869	-32.850099	179.265840
34607		5.002073	3.291887	7.373649	0.162953	-0.654561	-0.337841	-0.423644	-0.016411	0.349973	-0.571045	-0.125244	-0.460693	0.049957	0.033162	0.073671	0.043112	-0.280166	-0.159018	-0.945707	19.242161	-32.930503	179.483948
34608		5.031682	3.436175	6.990734	-0.020339	-0.968283	-0.590041	-0.497125	-0.045118	0.389560	-0.574463	-0.115234	-0.456055	0.050234	0.034633	0.069833	0.044206	-0.280836	-0.156140	-0.945937	18.828308	-33.032292	179.722047
34609		4.661239	3.529463	7.234557	0.451479	-1.039351	-0.580211	-0.567599	-0.099172	0.428467	-0.571777	-0.113770	-0.449463	0.046500	0.035599	0.072268	0.045343	-0.281807	-0.152883	-0.946126	18.365512	-33.169331	179.974853
34610		5.290487	2.702757	7.943695	0.175648	-0.098362	0.104743	-0.614883	-0.135485	0.454317	-0.575684	-0.104248	-0.453857	0.052789	0.027392	0.079389	0.046506	-0.282974	-0.149374	-0.946282	17.869243	-33.328654	-179.761488
34611		6.443684	0.494352	8.595648	-0.806861	2.134782	0.696450	-0.457177	-0.044232	0.334973	-0.573486	-0.093018	-0.460693	0.064409	0.005248	0.085959	0.047396	-0.283583	-0.146755	-0.946466	17.494190	-33.416026	-179.554983
34612		4.931098	2.071102	8.286360	0.578372	0.499882	0.020136	-0.376876	-0.003319	0.179876	-0.571533	-0.089844	-0.457520	0.049291	0.020911	0.082825	0.047695	-0.283861	-0.144727	-0.946680	17.216058	-33.453219	-179.441023
34613		5.008919	2.359115	8.460773	0.662094	0.238171	0.274144	-0.339167	-0.015404	0.178396	-0.576172	-0.094971	-0.451660	0.050062	0.023779	0.084571	0.048033	-0.284187	-0.142881	-0.946845	16.961042	-33.496651	-179.330164
34614		5.599908	1.876108	8.313564	0.017181	0.615236	0.366468	-0.272684	-0.022754	0.162208	-0.583984	-0.089844	-0.462158	0.055974	0.018920	0.083116	0.048382	-0.284517	-0.141375	-0.946954	16.750751	-33.540736	-179.231204
34615		6.092470	2.016202	7.801508	-0.629289	0.296620	0.265147	-0.214841	-0.037022	0.151785	-0.581543	-0.075684	-0.455811	0.060895	0.020292	0.078005	0.048754	-0.284896	-0.140159	-0.947002	16.578587	-33.590971	-179.141641
34616		5.880992	2.134523	7.578129	-0.540584	0.098465	-0.001045	-0.161025	-0.053654	0.143344	-0.582520	-0.082031	-0.455566	0.058774	0.021448	0.075780	0.049151	-0.285331	-0.139216	-0.946990	16.442122	-33.648460	-179.060733
34617		5.352555	2.319079	7.917409	0.120862	0.010542	0.020857	-0.120211	-0.071404	0.146138	-0.582275	-0.081055	-0.458984	0.053480	0.023277	0.079179	0.049607	-0.285844	-0.138464	-0.946921	16.329561	-33.716331	-178.981160
34618		5.334888	2.232867	8.051488	0.204800	0.118628	0.097769	-0.069765	-0.103413	0.151290	-0.582275	-0.083496	-0.454102	0.053290	0.022397	0.080535	0.050138	-0.286497	-0.137953	-0.946771	16.247422	-33.802201	-178.904216
34619		5.248036	2.061331	8.230460	0.358916	0.327044	0.152032	-0.023051	-0.150539	0.148596	-0.587158	-0.074951	-0.456543	0.052403	0.020662	0.082342	0.050690	-0.287362	-0.137678	-0.946519	16.197696	-33.913808	-178.837873
34620		5.234504	1.937703	8.341758	0.429161	0.474703	0.203803	0.033008	-0.208136	0.127365	-0.595459	-0.079346	-0.456299	0.052246	0.019397	0.083475	0.051182	-0.288468	-0.137714	-0.946151	16.194141	-34.053372	-178.796617
34621		5.438126	2.155356	8.176909	0.238532	0.218123	0.235997	0.075025	-0.278135	0.108615	-0.599609	-0.076416	-0.449707	0.054256	0.021552	0.081853	0.051598	-0.289883	-0.137992	-0.945655	16.228941	-34.228764	-178.781254
34622		5.886436	2.055562	8.213184	-0.094852	0.325961	0.493450	0.152835	-0.373391	0.119411	-0.592529	-0.081055	-0.454346	0.058699	0.020528	0.082257	0.052112	-0.291732	-0.138648	-0.944962	16.314970	-34.457988	-178.777477
34623		5.474329	2.275597	8.657989	0.572818	0.272588	0.661311	0.251268	-0.545282	0.126637	-0.597656	-0.083740	-0.451416	0.054493	0.022682	0.086757	0.052684	-0.294373	-0.139800	-0.943941	16.473960	-34.783173	-178.803160
34624		4.665690	2.774286	9.483344	1.849679	0.089584	0.956198	0.427720	-0.838681	0.208185	-0.601074	-0.081055	-0.448242	0.046230	0.027588	0.095087	0.053695	-0.298402	-0.141742	-0.942328	16.737610	-35.282420	-178.834500
34625		3.055450	2.236017	12.294730	4.732769	1.542928	2.049545	0.736846	-1.429960	0.351582	-0.618164	-0.084717	-0.441895	0.029635	0.021959	0.123243	0.055421	-0.305224	-0.145077	-0.939531	17.195458	-36.129779	-178.894857
34626		2.650799	3.658124	12.780332	5.828657	0.469032	2.416060	1.071913	-2.252947	0.571737	-0.614502	-0.086670	-0.419434	0.024961	0.035967	0.128284	0.058089	-0.315941	-0.149863	-0.935066	17.869495	-37.463963	-178.993777
34627		1.301370	4.184060	13.883096	7.982376	0.512581	2.350211	1.286424	-3.277881	0.829864	-0.629150	-0.086426	-0.399170	0.010562	0.040993	0.139283	0.061521	-0.331504	-0.155503	-0.928515	18.718761	-39.401117	-179.173454
34628		1.856186	4.269925	14.226628	8.267431	0.737114	2.642732	1.248143	-4.528535	1.092404	-0.656738	-0.076660	-0.360352	0.015101	0.041898	0.142897	0.065107	-0.352935	-0.160845	-0.919417	19.662523	-42.061873	-179.522633
34629		2.944598	3.886238	14.698725	8.336295	1.447737	3.155072	1.089611	-5.814850	1.330276	-0.683105	-0.083008	-0.315674	0.024897	0.038234	0.147965	0.068424	-0.380254	-0.165334	-0.907408	20.706008	-45.456425	179.872459
34630		3.550377	5.570629	15.143903	9.480935	0.210795	3.712510	0.943714	-6.725007	1.751786	-0.703369	-0.066650	-0.267822	0.029896	0.055266	0.152769	0.072549	-0.411690	-0.168495	-0.892669	21.751455	-49.416024	179.188675
34631		8.092319	3.635251	15.581732	7.396954	2.388964	6.340136	0.921232	-7.263235	2.283846	-0.720459	-0.053711	-0.207520	0.074776	0.036503	0.158776	0.078450	-0.445423	-0.170427	-0.875442	22.743577	-53.767393	178.597510
34632		14.096557	7.444634	17.623188	7.935212	-0.093815	12.580800	1.241983	-7.035460	2.439128	-0.737305	-0.039307	-0.156006	0.133729	0.074991	0.181486	0.085825	-0.477522	-0.173081	-0.857117	23.923854	-58.026617	178.033007
34633		16.649268	10.638844	14.439040	6.709166	-3.992203	13.375350	1.065862	-6.260306	2.580390	-0.740967	-0.021973	-0.096680	0.160470	0.107695	0.150049	0.093945	-0.505874	-0.174084	-0.839619	24.768372	-61.907899	177.763912
34634		16.387652	11.631525	13.329085	7.792100	-5.230585	12.396264	0.852615	-5.680529	2.884539	-0.746826	0.003906	-0.054932	0.158300	0.118043	0.138341	0.103203	-0.531601	-0.172960	-0.822699	25.001384	-65.560119	178.049531
34635		17.017784	11.359191	13.868585	9.261481	-4.771750	12.598602	0.565891	-4.693229	3.119815	-0.744629	0.028076	-0.014404	0.165062	0.115793	0.142925	0.113425	-0.553127	-0.169362	-0.807776	24.127687	-68.752762	179.349624
34636		5.861661	10.880343	10.253785	10.946731	-5.903452	0.343217	0.025691	-3.896640	3.397765	-0.754395	0.056641	0.007324	0.054745	0.109742	0.103644	0.123867	-0.571575	-0.162238	-0.794756	21.581962	-71.571338	-177.928646
34637		20.554028	2.641504	13.801540	6.975801	2.667306	13.937263	0.194772	-2.946819	3.493505	-0.741699	0.086670	0.035645	0.202976	0.029839	0.141047	0.135869	-0.585876	-0.154828	-0.783784	17.454688	-73.836857	-173.489351
34638		21.208431	5.085901	19.691720	13.558683	2.438103	16.141646	0.955467	-0.353960	2.762158	-0.738281	0.111816	0.041992	0.211014	0.052836	0.197541	0.149191	-0.588722	-0.150721	-0.780020	12.817269	-74.451257	-168.099133
34639		5.839010	9.305172	11.449572	12.319203	-4.047155	-0.667766	1.516918	1.097601	2.143570	-0.737061	0.129883	0.033691	0.058024	0.092805	0.114881	0.162816	-0.584892	-0.149512	-0.780409	8.992591	-74.069625	-163.221898
34640		1.271571	12.463293	7.935659	11.923300	-7.923589	-5.943023	1.101406	1.443376	1.825372	-0.733398	0.144775	0.012695	0.012156	0.124306	0.079953	0.174213	-0.579713	-0.147302	-0.782231	5.713317	-73.387901	-159.147965
34641		0.870134	11.506491	6.158127	10.161874	-7.711333	-6.923033	0.533109	1.602567	1.408157	-0.735840	0.156250	-0.000977	0.008386	0.114960	0.061820	0.182423	-0.574007	-0.143922	-0.785191	3.169019	-72.538562	-156.166614
34642		0.013579	8.879390	5.642733	8.798269	-5.456616	-7.941901	0.244254	1.779271	0.733830	-0.734131	0.154297	-0.031006	0.000313	0.088726	0.056533	0.187265	-0.567334	-0.141163	-0.789390	1.879424	-71.543711	-154.663292
34643		-1.746459	6.843815	4.845246	7.708061	-3.734830	-9.807460	0.302704	1.934670	-0.136082	-0.736328	0.165283	-0.044434	-0.016948	0.068376	0.048722	0.188930	-0.559314	-0.140949	-0.794737	2.172509	-70.437023	-154.788734
34644		-3.680978	6.277389	3.873994	7.252226	-3.364814	-11.823626	0.425015	1.976124	-0.967621	-0.734619	0.157959	-0.056885	-0.036120	0.062867	0.039233	0.187642	-0.550377	-0.143487	-0.800804	3.770337	-69.282644	-156.230529
34645		-4.701752	5.939601	3.204497	6.933446	-3.220955	-12.846405	0.434787	1.910061	-1.597678	-0.742920	0.144287	-0.077148	-0.046232	0.059697	0.032619	0.183783	-0.541154	-0.147845	-0.807167	6.124118	-68.116785	-158.488140
34646		-5.069787	4.535626	2.951965	6.287389	-2.072935	-13.152892	0.366771	1.822230	-2.022637	-0.748535	0.121338	-0.097168	-0.049964	0.045809	0.030061	0.177930	-0.531951	-0.153128	-0.813585	8.789904	-66.935880	-161.144736
34647		-4.569266	2.262890	3.303958	5.434044	-0.015067	-12.529946	0.375829	1.784105	-2.322072	-0.748535	0.098145	-0.113770	-0.045129	0.023092	0.033487	0.170815	-0.522545	-0.159253	-0.820005	11.586486	-65.697311	-163.961839
34648		-3.853607	0.621490	3.761981	4.850849	1.515135	-11.699777	0.488627	1.828532	-2.518008	-0.753906	0.076660	-0.122803	-0.038108	0.006604	0.037985	0.163190	-0.512596	-0.166271	-0.826419	14.385493	-64.356695	-166.739721
34649		-2.721845	-0.069669	4.314194	4.549989	2.227256	-10.413947	0.584573	1.972011	-2.601208	-0.762451	0.050049	-0.143555	-0.026798	-0.000473	0.043406	0.155540	-0.501759	-0.173745	-0.832982	17.004201	-62.868211	-169.287527
34650		-1.721278	-0.352478	4.722923	4.307012	2.561097	-9.281086	0.588646	2.188910	-2.575783	-0.753906	0.022705	-0.154785	-0.016739	-0.003447	0.047404	0.148154	-0.489909	-0.180947	-0.839820	19.255020	-61.221421	-171.452869
34651		-0.791397	-0.676135	5.041659	3.945760	2.925630	-8.272398	0.507227	2.450848	-2.470556	-0.747803	-0.000732	-0.188477	-0.007379	-0.006796	0.050492	0.141200	-0.476951	-0.187307	-0.847051	21.035872	-59.417791	-173.166627
34652		0.168914	-1.105342	5.210691	3.348765	3.334534	-7.349544	0.407760	2.729598	-2.330808	-0.749023	-0.012695	-0.208984	0.002270	-0.011184	0.052056	0.134820	-0.462879	-0.192650	-0.854665	22.354400	-57.475265	-174.438834
34653		0.993697	-1.594119	5.361071	2.724056	3.807499	-6.595447	0.344094	3.016416	-2.238645	-0.741455	-0.037598	-0.229004	0.010564	-0.016149	0.053427	0.128913	-0.447539	-0.197254	-0.862659	23.328013	-55.386670	-175.369307
34654		1.635103	-0.987366	5.309481	2.435992	3.228511	-5.878315	0.276199	3.273872	-2.183469	-0.723389	-0.052002	-0.251221	0.017107	-0.010131	0.052805	0.123302	-0.431037	-0.201198	-0.870932	24.036821	-53.170622	-176.046560
34655		2.400997	0.174304	4.966569	2.021089	2.017400	-5.089990	0.096283	3.454018	-2.182367	-0.713623	-0.082031	-0.272705	0.024880	0.001451	0.049242	0.117437	-0.413671	-0.204168	-0.879432	24.514943	-50.854453	-176.581883
34656		2.920954	0.749328	4.537153	1.420956	1.292972	-4.715191	-0.136980	3.561398	-2.224533	-0.708984	-0.088135	-0.303223	0.030092	0.007193	0.044836	0.110966	-0.395768	-0.206044	-0.888031	24.802479	-48.472471	-177.061195
34657		3.617964	0.758383	4.118836	0.473069	1.070483	-4.403830	-0.311339	3.578395	-2.352571	-0.686523	-0.120361	-0.324219	0.036995	0.007215	0.040520	0.103546	-0.377558	-0.207302	-0.896523	25.017024	-46.047030	-177.594890
34658		4.007795	0.594036	3.436938	-0.503524	0.905883	-4.602137	-0.378824	3.474533	-2.566538	-0.679932	-0.130371	-0.357178	0.040739	0.005485	0.033655	0.094887	-0.359470	-0.208615	-0.904576	25.286111	-43.624217	-178.283423
34659		4.505495	0.389122	2.763256	-1.546640	0.803690	-4.808218	-0.344232	3.234473	-2.779670	-0.659180	-0.151123	-0.369629	0.045543	0.003307	0.026893	0.085030	-0.342043	-0.210487	-0.911851	25.678419	-41.267829	-179.155561
34660		5.880089	-0.399289	2.462649	-3.186024	1.417969	-4.461685	-0.205803	2.877971	-2.882096	-0.640869	-0.183105	-0.388428	0.059082	-0.004818	0.023782	0.074532	-0.325945	-0.213223	-0.918009	26.208486	-39.066728	179.840941
34661		8.770302	-1.434768	2.747444	-5.756377	2.582005	-2.978002	0.160859	2.518224	-2.864913	-0.614014	-0.196777	-0.400635	0.087822	-0.015627	0.026357	0.064296	-0.311234	-0.217666	-0.922833	26.947851	-37.043651	178.792401
34662		12.483745	-0.925343	3.005028	-8.694280	2.468548	-0.646008	0.617428	2.241188	-2.782905	-0.615479	-0.217773	-0.405762	0.125018	-0.011082	0.028618	0.054827	-0.297654	-0.224100	-0.926377	27.905743	-35.173467	177.768484
34663		18.393166	0.456109	3.337360	-13.347263	1.817818	3.155223	0.920384	2.054071	-2.614661	-0.591064	-0.241699	-0.422119	0.184299	0.002005	0.031495	0.046359	-0.284936	-0.231669	-0.928973	28.952509	-33.427106	176.848016
34664		24.591291	2.529456	2.858469	-18.725451	0.338637	6.573061	0.876672	2.101054	-2.302176	-0.574951	-0.264404	-0.428467	0.246464	0.022342	0.026100	0.039324	-0.272310	-0.238514	-0.931350	29.814815	-31.734909	176.180717
34665		27.308437	3.041989	0.767462	-22.397218	-0.724601	6.105443	0.488096	2.234621	-1.603597	-0.561279	-0.267578	-0.434814	0.273380	0.028215	0.004692	0.035161	-0.259894	-0.242517	-0.934026	30.190290	-30.168847	175.995485
34666		26.692309	-0.316213	-2.170820	-24.226901	0.793341	1.575407	0.222561	2.201713	-0.589789	-0.554443	-0.282715	-0.430176	0.266652	-0.003922	-0.024649	0.035343	-0.248881	-0.243929	-0.936647	30.126894	-28.912257	176.383892
34667		27.281176	-3.048644	-4.905220	-26.682513	1.685927	-1.888508	0.528205	1.957877	0.216720	-0.547852	-0.267090	-0.446777	0.272346	-0.030057	-0.051800	0.039381	-0.239900	-0.245784	-0.938343	30.068801	-28.006721	177.141982
34668		26.003780	0.789818	-7.582313	-26.054720	-3.378117	-3.176878	0.933276	1.535690	0.546960	-0.521484	-0.271973	-0.452637	0.259422	0.008968	-0.077777	0.044932	-0.233213	-0.249202	-0.938878	30.231643	-27.407187	177.943104
34669		23.051872	5.688881	-9.867853	-23.373077	-9.168373	-4.266407	0.841466	0.838515	0.455484	-0.527588	-0.269531	-0.451660	0.229972	0.057830	-0.099401	0.049075	-0.229686	-0.252437	-0.938675	30.474990	-27.127892	178.465527
34670		21.303479	7.694150	-10.934651	-21.785961	-11.602800	-4.980368	0.482710	-0.074826	-0.044078	-0.517822	-0.270264	-0.447021	0.213093	0.077158	-0.109081	0.049307	-0.229903	-0.254781	-0.937977	30.776385	-27.155806	178.412413
34671		19.210636	8.453417	-10.540934	-19.647078	-11.999681	-5.163843	0.175308	-1.038813	-0.846608	-0.523193	-0.275635	-0.428223	0.193006	0.083810	-0.104335	0.044193	-0.233688	-0.256838	-0.936734	31.252288	-27.419933	177.595238
34672		7.754227	30.796132	-3.983788	-2.594044	-28.416947	4.681967	-2.841752	-2.096716	-0.772022	-0.520020	-0.268555	-0.427734	0.079171	0.307058	-0.043381	0.034538	-0.243146	-0.244861	-0.937939	30.151047	-28.230924	176.467484
34673		16.561935	30.180574	11.803465	-3.915649	-20.427653	20.049642	-4.780745	-2.740668	-0.364650	-0.534668	-0.239990	-0.418213	0.164601	0.304247	0.113041	0.023627	-0.256327	-0.223282	-0.940151	27.936179	-29.506562	175.383953
34674		6.961863	-6.642183	27.260503	6.067402	17.498007	12.378019	-6.002929	-1.132173	2.818708	-0.533447	-0.196289	-0.416016	0.068917	-0.057220	0.274806	0.027887	-0.265399	-0.191473	-0.944523	23.819446	-30.799129	176.732863
34675		3.468890	-34.285893	27.842451	5.651474	42.145574	2.612416	-3.118343	-1.862338	2.195820	-0.533691	-0.167725	-0.401123	0.035791	-0.338070	0.284051	0.032311	-0.276714	-0.174066	-0.944503	21.576532	-32.273658	177.607316
34676		19.437884	-19.555893	23.877156	-7.051012	27.048483	13.617305	-1.937902	-1.328362	1.493185	-0.548096	-0.140137	-0.397705	0.194220	-0.191774	0.241932	0.035505	-0.284614	-0.163056	-0.944006	20.128232	-33.293893	178.232472
34677		11.292979	-2.530740	10.515449	-4.211071	6.065849	3.970533	-1.147580	-1.127765	0.595397	-0.546143	-0.135986	-0.393066	0.112407	-0.024366	0.105931	0.035746	-0.290660	-0.156994	-0.943182	19.404851	-34.022255	178.352178
34678		15.292996	-4.003469	7.025473	-9.484719	6.375814	3.173788	-0.506826	-0.565481	0.147045	-0.553955	-0.127686	-0.387939	0.152760	-0.039743	0.070788	0.035243	-0.293572	-0.154500	-0.942711	19.135605	-34.360442	178.315606
34679		10.716082	-0.649608	6.704013	-5.285342	2.966193	1.298877	-0.266274	-0.342540	-0.008519	-0.549316	-0.131836	-0.396484	0.107046	-0.006411	0.067232	0.034533	-0.295272	-0.153324	-0.942398	19.032457	-34.549461	178.228868
34680		8.146901	5.083094	6.369245	-2.434631	-2.662256	1.130898	-0.211924	-0.101948	0.032750	-0.553223	-0.121094	-0.390869	0.081428	0.050912	0.063680	0.034281	-0.295855	-0.152304	-0.942389	18.914437	-34.615353	178.223915
34681		6.557084	6.353491	6.645181	-0.773548	-3.847662	0.775876	-0.230124	0.001460	0.121679	-0.554199	-0.130371	-0.402832	0.065533	0.063651	0.066378	0.034501	-0.296027	-0.151046	-0.942530	18.739048	-34.642323	178.301122
34682		6.429363	2.675902	7.649800	-0.686663	-0.066008	0.509168	-0.161502	0.061628	0.087433	-0.551758	-0.132324	-0.399658	0.064305	0.026849	0.076457	0.034706	-0.295872	-0.150155	-0.942714	18.608453	-34.629480	178.369131
34683		6.173672	1.224023	8.713062	-0.121595	1.620685	0.812212	-0.067543	0.051431	0.009021	-0.551514	-0.123779	-0.411377	0.061759	0.012272	0.087111	0.034673	-0.295695	-0.149821	-0.942823	18.562157	-34.608494	178.383170
34684		6.358874	0.615088	8.113669	-0.697278	2.022945	0.290120	0.008968	-0.010071	-0.074650	-0.552246	-0.124268	-0.409912	0.063587	0.006124	0.081140	0.034311	-0.295726	-0.149985	-0.942801	18.599063	-34.604908	178.328278
34685		6.140319	2.050301	7.946142	-0.387662	0.609216	0.411157	0.073654	-0.037403	-0.108672	-0.554932	-0.133789	-0.418701	0.061399	0.020440	0.079480	0.033866	-0.295856	-0.150506	-0.942693	18.688911	-34.610622	178.244976
34686		6.494324	2.659844	7.251410	-0.963919	-0.158554	0.231199	0.102941	-0.054378	-0.113440	-0.562988	-0.126953	-0.416992	0.064939	0.026524	0.072545	0.033427	-0.296050	-0.151178	-0.942540	18.799824	-34.623804	178.154603
34687		6.799008	2.621505	7.215215	-1.237008	-0.107384	0.366525	0.119780	-0.063819	-0.125551	-0.560791	-0.128174	-0.409668	0.067983	0.026129	0.072190	0.032951	-0.296284	-0.151945	-0.942360	18.925851	-34.640476	178.054187
34688		6.106176	2.719629	7.442065	-0.525667	-0.131451	0.175929	0.132094	-0.044886	-0.135482	-0.564697	-0.141357	-0.412109	0.061063	0.027106	0.074452	0.032458	-0.296411	-0.152785	-0.942201	19.060583	-34.644083	177.951355
34689		6.099776	2.854930	7.553663	-0.438082	-0.205676	0.295797	0.150209	-0.029665	-0.142402	-0.570557	-0.129883	-0.415283	0.061007	0.028449	0.075567	0.031973	-0.296466	-0.153715	-0.942050	19.205992	-34.638743	177.847540
34690		5.841066	3.069523	7.530978	-0.206649	-0.403519	0.189816	0.149019	-0.012585	-0.147914	-0.570557	-0.134033	-0.411621	0.058429	0.030596	0.075336	0.031473	-0.296428	-0.154648	-0.941926	19.350831	-34.622108	177.743956
34691		6.086642	3.111045	7.348680	-0.504858	-0.470965	0.199914	0.137645	-0.005887	-0.150640	-0.571777	-0.139893	-0.419922	0.060888	0.031014	0.073510	0.030948	-0.296366	-0.155527	-0.941818	19.488915	-34.601936	177.640305
34692		5.479357	3.044842	7.435193	0.027900	-0.382441	-0.095206	0.137472	0.024688	-0.138206	-0.579590	-0.146240	-0.413818	0.054824	0.030359	0.074366	0.030505	-0.296162	-0.156385	-0.941755	19.618438	-34.566629	177.551926
34693		5.121122	2.909118	7.546426	0.358213	-0.214364	-0.249053	0.115820	0.023668	-0.132150	-0.583984	-0.143799	-0.429199	0.051239	0.029014	0.075475	0.030059	-0.295977	-0.157129	-0.941703	19.733038	-34.533710	177.467490
34694		5.641339	2.672432	7.314077	-0.237211	-0.028729	-0.199925	0.111040	0.023714	-0.101866	-0.575195	-0.145264	-0.414551	0.056436	0.026655	0.073149	0.029746	-0.295810	-0.157808	-0.941652	19.833854	-34.505685	177.402902
34695		5.501348	2.975256	7.301463	-0.088709	-0.311501	-0.204179	0.104192	0.048406	-0.100870	-0.586914	-0.144775	-0.416748	0.055046	0.029687	0.073017	0.029450	-0.295534	-0.158447	-0.941640	19.926709	-34.465286	177.344971
34696		5.655250	2.819139	7.419450	-0.181324	-0.107109	-0.069317	0.106212	0.064937	-0.101290	-0.585938	-0.150635	-0.421875	0.056591	0.028123	0.074191	0.029166	-0.295174	-0.159097	-0.941653	20.018841	-34.414998	177.290715
34697		5.299968	2.826482	7.636924	0.223113	-0.045500	-0.099326	0.112062	0.075041	-0.105146	-0.586182	-0.133545	-0.427979	0.053043	0.028194	0.076365	0.028881	-0.294768	-0.159775	-0.941674	20.113994	-34.359278	177.236566
34698		5.736979	2.440389	7.238126	-0.420638	0.223652	-0.271622	0.102780	0.069289	-0.085740	-0.583252	-0.140869	-0.425781	0.057405	0.024342	0.072374	0.028669	-0.294400	-0.160385	-0.941692	20.197629	-34.309577	177.193743
34699		5.316720	2.973752	7.321882	0.043809	-0.260568	-0.291614	0.088255	0.061354	-0.077962	-0.589355	-0.143311	-0.419434	0.053201	0.029684	0.073216	0.028466	-0.294084	-0.160913	-0.941707	20.270796	-34.266478	177.154265
34700		5.381557	2.688486	7.357661	-0.037999	0.031762	-0.308908	0.052953	0.043451	-0.040641	-0.586182	-0.145264	-0.415527	0.053837	0.026854	0.073572	0.028372	-0.293880	-0.161225	-0.941720	20.312720	-34.239540	177.134736
34701		5.598522	2.876796	7.243520	-0.255507	-0.169441	-0.221338	0.031570	0.050048	-0.024480	-0.584229	-0.137695	-0.422363	0.056007	0.028750	0.072426	0.028329	-0.293668	-0.161409	-0.941756	20.335298	-34.213113	177.127401
34702		5.362576	2.745404	7.284765	-0.061801	-0.039093	-0.359809	0.019585	0.048874	-0.011761	-0.593262	-0.143799	-0.415527	0.053645	0.027444	0.072837	0.028326	-0.293467	-0.161521	-0.941799	20.346788	-34.189000	177.127977
34703		6.065060	2.638792	7.081919	-0.771608	0.025656	-0.153199	-0.004533	0.049229	0.019638	-0.592529	-0.144287	-0.423584	0.060665	0.026395	0.070804	0.028438	-0.293300	-0.161470	-0.941857	20.332686	-34.171806	177.149107
34704		5.831995	2.445295	7.734489	-0.258289	0.408179	0.166321	0.022083	0.080918	-0.006451	-0.597168	-0.143311	-0.417725	0.058352	0.024443	0.077324	0.028489	-0.292951	-0.161581	-0.941944	20.339345	-34.131534	177.160838
34705		5.895751	2.250345	7.632531	-0.403827	0.565265	0.066424	0.056511	0.111715	-0.022992	-0.598145	-0.148193	-0.412598	0.059003	0.022475	0.076299	0.028540	-0.292447	-0.161872	-0.942050	20.367316	-34.072303	177.169339
34706		5.716018	2.488636	7.731337	-0.178090	0.370517	0.110554	0.085656	0.134898	-0.051964	-0.598633	-0.141357	-0.410156	0.057219	0.024838	0.077285	0.028514	-0.291798	-0.162341	-0.942171	20.419631	-33.993965	177.164613
34707		5.878568	2.566153	7.335645	-0.528427	0.184497	-0.084322	0.094386	0.141366	-0.054558	-0.593018	-0.142334	-0.419189	0.058845	0.025611	0.073327	0.028495	-0.291123	-0.162852	-0.942292	20.476659	-33.912522	177.159953
34708		5.697663	2.877412	7.284473	-0.373645	-0.125745	-0.135345	0.086564	0.148771	-0.048588	-0.589111	-0.145508	-0.418945	0.057038	0.028729	0.072815	0.028497	-0.290411	-0.163318	-0.942431	20.526294	-33.827409	177.160949
34709		4.573609	2.955663	7.466159	0.655494	-0.180816	-0.596669	0.063461	0.141829	-0.028162	-0.594727	-0.142090	-0.414063	0.045793	0.029526	0.074639	0.028558	-0.289759	-0.163644	-0.942573	20.555956	-33.751037	177.173611
34710		5.016536	3.160126	7.112236	0.118804	-0.469257	-0.565980	0.006026	0.092661	0.025028	-0.596436	-0.144287	-0.410645	0.050194	0.031605	0.071100	0.028745	-0.289383	-0.163632	-0.942685	20.540567	-33.710833	177.208610
34711		5.008777	3.485066	6.954474	0.085259	-0.833747	-0.598794	-0.070318	0.055519	0.084419	-0.589111	-0.138428	-0.407471	0.050092	0.034896	0.069519	0.029072	-0.289249	-0.163177	-0.942795	20.464894	-33.703357	177.273001
34712		4.571789	3.416612	7.168891	0.553643	-0.731630	-0.695361	-0.159954	0.029349	0.159043	-0.593994	-0.137939	-0.413574	0.045701	0.034260	0.071655	0.029598	-0.289305	-0.162198	-0.942931	20.314900	-33.723827	177.379191
34713		4.863089	3.446850	7.059297	0.262586	-0.810929	-0.612827	-0.270620	0.003238	0.255568	-0.594238	-0.132324	-0.407227	0.048588	0.034626	0.070545	0.030400	-0.289585	-0.160558	-0.943100	20.069870	-33.778015	177.541803
34714		5.055870	3.272202	6.755411	-0.078048	-0.774984	-0.796156	-0.383226	-0.003481	0.339918	-0.592041	-0.127686	-0.401367	0.050502	0.032937	0.067492	0.031429	-0.289973	-0.158268	-0.943334	19.730629	-33.850692	177.757903
34715		5.189660	3.265499	6.873923	-0.115008	-0.775817	-0.634915	-0.451645	-0.016550	0.392393	-0.586426	-0.117676	-0.401855	0.051827	0.032912	0.068669	0.032598	-0.290479	-0.155578	-0.943586	19.333907	-33.940213	178.005951
34716		5.568241	2.170019	8.118063	0.083221	0.610265	0.249004	-0.402632	0.054324	0.375623	-0.582764	-0.115967	-0.398926	0.055663	0.021968	0.081121	0.033812	-0.290621	-0.153133	-0.943900	18.961904	-33.985949	178.259959
34717		5.548961	2.096955	7.881408	-0.034314	0.554277	0.035977	-0.398196	0.054036	0.309322	-0.582031	-0.100830	-0.397949	0.055478	0.021212	0.078757	0.034720	-0.290718	-0.150802	-0.944212	18.616085	-34.019178	178.471050
34718		5.664082	2.433907	8.042693	0.012361	0.237351	0.318155	-0.379331	0.049220	0.256988	-0.585205	-0.103271	-0.401611	0.056629	0.024564	0.080367	0.035404	-0.290786	-0.148638	-0.944509	18.300872	-34.043628	178.646990
34719		5.355736	2.305036	8.433479	0.461941	0.429461	0.420724	-0.322757	0.032278	0.199433	-0.580078	-0.103760	-0.398926	0.053548	0.023240	0.084289	0.035886	-0.290887	-0.146825	-0.944743	18.040851	-34.067181	178.781737
34720		5.829205	1.773982	8.168100	-0.150159	0.829837	0.342766	-0.288319	-0.001923	0.159644	-0.576416	-0.096924	-0.398926	0.058277	0.017904	0.081656	0.036204	-0.291106	-0.145240	-0.944908	17.819451	-34.100995	178.883088
34721		6.117892	2.212481	7.666123	-0.586069	0.238524	0.221887	-0.206976	-0.027769	0.156056	-0.572021	-0.095215	-0.396484	0.061151	0.022252	0.076647	0.036606	-0.291436	-0.144047	-0.944974	17.648570	-34.148894	178.976912
34722		6.182519	2.049924	7.540962	-0.724505	0.336404	0.119771	-0.169711	-0.037825	0.106067	-0.573730	-0.087891	-0.393799	0.061800	0.020596	0.075404	0.036818	-0.291764	-0.143107	-0.945007	17.518888	-34.192536	179.035732
34723		5.679333	2.146346	7.732650	-0.182062	0.276930	0.013077	-0.129378	-0.052577	0.084171	-0.576660	-0.082031	-0.389160	0.056764	0.021537	0.077328	0.036976	-0.292145	-0.142389	-0.944992	17.421742	-34.241295	179.077257
34724		5.513022	2.151791	7.699769	-0.051424	0.247697	-0.104647	-0.079282	-0.090357	0.113791	-0.571289	-0.083008	-0.395020	0.055083	0.021580	0.077014	0.037319	-0.292709	-0.141875	-0.944881	17.346886	-34.314814	179.130563
34725		6.050152	1.958949	7.548444	-0.592681	0.386915	0.032100	-0.042857	-0.132614	0.081978	-0.566650	-0.078369	-0.391113	0.060443	0.019630	0.075520	0.037535	-0.293451	-0.141584	-0.944686	17.309250	-34.406898	179.154312
34726		4.838945	2.340194	8.323495	0.904811	0.228669	0.051463	0.007404	-0.185315	0.083286	-0.569824	-0.089111	-0.388428	0.048303	0.023419	0.083281	0.037794	-0.294425	-0.141541	-0.944379	17.306346	-34.527100	179.167985
34727		5.135427	2.380892	8.445953	0.758243	0.230047	0.323755	0.042352	-0.256119	0.086996	-0.565430	-0.076172	-0.385498	0.051236	0.023813	0.084530	0.038072	-0.295736	-0.141668	-0.943939	17.330023	-34.687591	179.169576
34728		5.038343	2.720931	8.440010	0.920129	-0.092380	0.344421	0.081466	-0.342657	0.077920	-0.561523	-0.075195	-0.384277	0.050228	0.027194	0.084497	0.038303	-0.297434	-0.142012	-0.943344	17.390263	-34.892930	179.146842
34729		5.340979	2.709827	8.723130	0.871210	0.016878	0.732580	0.160712	-0.490514	0.100005	-0.562256	-0.071289	-0.381836	0.053182	0.027055	0.087384	0.038652	-0.299836	-0.142721	-0.942462	17.505239	-35.183753	179.107512
34730		4.829249	2.452963	9.503311	1.748986	0.507129	0.973175	0.253099	-0.752580	0.118306	-0.571777	-0.080322	-0.384277	0.047920	0.024438	0.095245	0.039036	-0.303456	-0.143891	-0.941109	17.699537	-35.619881	179.023464
34731		3.102453	2.748061	11.403208	4.374398	0.809230	1.475260	0.557723	-1.210426	0.235751	-0.578125	-0.080078	-0.377686	0.030301	0.027198	0.114293	0.040107	-0.309254	-0.146397	-0.938787	18.082650	-36.326830	178.915797
34732		4.222583	1.805860	11.304253	3.438879	1.778743	1.758066	0.820531	-1.902335	0.368812	-0.583984	-0.077637	-0.369385	0.041115	0.017670	0.113510	0.041697	-0.318313	-0.150061	-0.935104	18.662772	-37.432417	178.733537
34733		2.964096	3.267108	11.823234	5.261108	0.650279	1.638717	1.193460	-2.701161	0.529742	-0.585449	-0.078613	-0.353271	0.027953	0.032039	0.118810	0.044028	-0.331101	-0.155351	-0.929677	19.521767	-38.999491	178.450904
34734		2.755684	4.552963	12.313293	6.334557	-0.247769	2.007999	1.402422	-3.688998	0.665562	-0.601563	-0.083496	-0.324707	0.025126	0.044749	0.123927	0.046554	-0.348430	-0.161559	-0.922132	20.637500	-41.120078	177.966954
34735		1.929504	4.686901	12.810921	7.790326	-0.061140	1.548595	1.158213	-4.722383	0.897243	-0.632568	-0.079590	-0.296631	0.016051	0.046201	0.128783	0.048866	-0.370593	-0.166392	-0.912462	21.761196	-43.833608	177.286476
34736		3.740506	3.969612	13.364501	7.331205	1.007411	2.578322	0.987324	-5.688528	1.247259	-0.643555	-0.073486	-0.263916	0.033335	0.039249	0.134826	0.051617	-0.397216	-0.169913	-0.900380	22.918564	-47.124340	176.458035
34737		4.245672	4.786377	13.773654	8.249148	0.523216	2.924608	0.801495	-6.484907	1.741918	-0.670410	-0.061279	-0.210449	0.037543	0.047649	0.139198	0.055497	-0.427491	-0.171646	-0.885838	24.032162	-50.934655	175.592523
34738		7.443551	4.409293	14.321049	7.525031	1.304110	5.069819	0.583999	-6.965438	2.194218	-0.680176	-0.052246	-0.161377	0.068901	0.044446	0.145804	0.060433	-0.459807	-0.171371	-0.869228	25.054775	-55.091539	174.732694
34739		13.741753	5.400843	15.956089	6.763119	1.365316	10.797741	0.710508	-6.873074	2.294465	-0.691162	-0.037598	-0.107178	0.131197	0.054959	0.164336	0.066095	-0.491155	-0.171156	-0.851530	26.273740	-59.214741	173.767594
34740		15.401734	7.499067	13.927691	6.318938	-1.120469	11.307452	0.867544	-6.323146	2.214129	-0.702148	-0.024170	-0.067139	0.148668	0.076038	0.144362	0.072188	-0.519435	-0.171417	-0.834022	27.709798	-63.023031	172.696713
34741		15.557923	9.465506	11.979545	6.579519	-3.554478	10.658405	0.980803	-5.907093	2.432199	-0.705811	-0.012695	-0.013672	0.150781	0.095905	0.124765	0.079764	-0.545556	-0.171242	-0.816506	29.097308	-66.666938	171.785792
34742		17.974047	10.416715	12.814410	8.013096	-3.949539	12.898499	1.018675	-5.255109	2.643337	-0.711914	0.007813	0.022705	0.174891	0.105830	0.133319	0.088784	-0.568655	-0.170224	-0.799858	30.121635	-70.036974	171.312706
34743		12.334747	9.697844	11.633910	9.781533	-4.016082	6.608043	1.025050	-4.454016	2.971774	-0.713623	0.038818	0.064697	0.119256	0.098164	0.119527	0.099746	-0.588359	-0.167800	-0.784683	30.144745	-73.102337	171.907878
34744		6.263892	8.105622	9.635079	9.876627	-3.563596	-0.459257	0.967780	-3.589820	3.134840	-0.720703	0.057373	0.090088	0.059616	0.081535	0.097833	0.111837	-0.604448	-0.164131	-0.771489	28.724465	-75.780700	173.957916
34745		23.607784	4.406210	10.074503	5.396589	0.306804	15.661308	1.087611	-2.917215	3.211021	-0.716064	0.091797	0.103516	0.233831	0.047267	0.104418	0.125075	-0.617603	-0.160228	-0.759770	25.591170	-78.112171	177.813852
34746		24.825394	7.923799	18.719597	14.965723	0.227723	18.568005	1.389563	-0.266055	2.662604	-0.720703	0.112549	0.109131	0.246932	0.081227	0.188085	0.139241	-0.619840	-0.157449	-0.756056	19.782182	-78.846822	-175.444988
34747		9.087301	11.367622	10.687941	12.441103	-6.109839	1.759783	1.534221	1.385220	1.985064	-0.716309	0.130127	0.082764	0.090486	0.113754	0.107124	0.152564	-0.615058	-0.156134	-0.757661	14.107986	-78.421793	-168.760275
34748		-0.764799	13.445200	5.221755	10.517273	-9.862182	-8.949008	0.851200	1.527347	1.696283	-0.717285	0.139160	0.078369	-0.008385	0.134159	0.052851	0.162776	-0.609934	-0.152983	-0.760316	9.250478	-77.765695	-163.297182
34749		-0.326622	11.036951	3.752882	8.166826	-8.287528	-9.022795	0.080362	1.190249	1.393790	-0.720947	0.151855	0.065674	-0.003812	0.110329	0.037595	0.169210	-0.606406	-0.148084	-0.762700	5.350238	-77.193885	-159.254035
34750		0.927138	7.783903	3.759077	6.498773	-5.459324	-7.930927	-0.178445	1.009893	0.759025	-0.721191	0.156250	0.059082	0.009165	0.077907	0.037475	0.172296	-0.603288	-0.144263	-0.765210	3.202322	-76.654333	-157.153335
34751		1.406623	6.202987	4.784736	6.581758	-3.657514	-7.233527	-0.029489	1.072265	-0.153378	-0.730713	0.155029	0.056152	0.014370	0.062026	0.047762	0.172376	-0.599111	-0.143711	-0.768570	3.412037	-76.039424	-157.385528
34752		0.083132	6.315531	4.757748	6.875046	-3.654944	-8.433273	0.115938	1.249001	-1.069883	-0.731934	0.144287	0.040039	0.001466	0.063121	0.047606	0.169493	-0.593455	-0.146298	-0.773098	5.654800	-75.282561	-159.631163
34753		-1.492772	6.189506	4.374960	6.844323	-3.580760	-9.910497	0.021764	1.407994	-1.729141	-0.741943	0.127197	0.024170	-0.014083	0.062014	0.043857	0.163877	-0.586711	-0.150336	-0.778662	8.924684	-74.359367	-163.005071
34754		-2.785857	4.350285	4.132651	6.176837	-1.966716	-11.132174	-0.186043	1.518462	-2.112341	-0.749268	0.110840	0.007080	-0.027082	0.043830	0.041493	0.156223	-0.579347	-0.154569	-0.784895	12.372672	-73.285063	-166.705341
34755		-3.111404	1.164692	4.246643	5.046385	0.922828	-11.471655	-0.229157	1.640369	-2.326134	-0.757813	0.099365	0.007813	-0.030626	0.012054	0.042705	0.147665	-0.571249	-0.159136	-0.791546	15.668054	-72.052219	-170.293574
34756		-3.210319	-1.047945	4.371785	4.320816	2.929858	-11.618864	-0.060201	1.806354	-2.397019	-0.755615	0.070557	-0.007080	-0.031829	-0.010084	0.044009	0.139414	-0.562207	-0.164409	-0.798409	18.628111	-70.662462	-173.453011
34757		-2.982907	-2.074543	4.537527	4.030750	3.880175	-11.389762	0.153875	2.008702	-2.296345	-0.763672	0.048828	-0.030029	-0.029607	-0.020440	0.045658	0.132297	-0.552144	-0.170083	-0.805423	21.042136	-69.134981	-175.928377
34758		-2.331825	-2.313818	4.701109	3.885632	4.126470	-10.687415	0.306513	2.261773	-2.056090	-0.757324	0.020020	-0.045654	-0.023022	-0.022973	0.047237	0.126758	-0.541054	-0.175493	-0.812647	22.759496	-67.497431	-177.586687
34759		-1.421033	-2.472588	4.948181	3.691952	4.355892	-9.700684	0.356257	2.577659	-1.738733	-0.755859	0.009277	-0.061523	-0.013786	-0.024693	0.049617	0.122884	-0.528778	-0.180011	-0.820298	23.741590	-65.748708	-178.433079
34760		-0.741775	-2.703136	5.003423	3.344864	4.587929	-9.004463	0.366332	2.919640	-1.426627	-0.749756	-0.006592	-0.085449	-0.006880	-0.027073	0.050088	0.120599	-0.515259	-0.183483	-0.828431	24.105315	-63.892419	-178.602366
34761		-0.422402	-2.655144	4.825918	3.030454	4.476487	-8.675236	0.371542	3.233238	-1.174440	-0.738525	-0.015869	-0.114746	-0.003600	-0.026619	0.048271	0.119621	-0.500503	-0.186091	-0.836993	24.049274	-61.927882	-178.299327
34762		-0.076355	-2.367932	4.593457	2.726229	4.123524	-8.304227	0.397302	3.475782	-1.042080	-0.731689	-0.027832	-0.145996	-0.000089	-0.023769	0.045893	0.119454	-0.484703	-0.188267	-0.845783	23.812429	-59.869684	-177.767118
34763		0.489941	-1.461166	4.288354	2.465314	3.172672	-7.663349	0.443257	3.644921	-1.061888	-0.726074	-0.038574	-0.165283	0.005601	-0.014735	0.042753	0.119428	-0.467950	-0.190523	-0.854670	23.606005	-57.714116	-177.227895
34764		0.840566	0.211813	3.663752	2.343221	1.392148	-7.215760	0.334480	3.695027	-1.224248	-0.722656	-0.052979	-0.196777	0.009093	0.002003	0.036477	0.118461	-0.450743	-0.192589	-0.863544	23.495294	-55.497397	-176.865084
34765		0.866256	1.159624	2.889963	2.017982	0.200034	-7.296053	0.072991	3.583022	-1.452359	-0.708984	-0.059570	-0.222168	0.009262	0.011520	0.028741	0.115764	-0.433759	-0.194037	-0.872239	23.465957	-53.284025	-176.776545
34766		0.597207	0.475017	2.174092	1.333660	0.505405	-8.003183	-0.134292	3.319226	-1.815873	-0.696533	-0.076904	-0.239502	0.006375	0.004708	0.021634	0.110738	-0.417560	-0.195448	-0.880443	23.643552	-51.129235	-177.097858
34767		0.488288	-0.806132	1.696889	0.563533	1.451232	-8.653392	-0.092308	2.867247	-2.309796	-0.687012	-0.090088	-0.259766	0.005032	-0.008111	0.016901	0.103141	-0.402674	-0.198260	-0.887642	24.244722	-49.091651	-177.949115
34768		2.315830	-2.500155	2.017745	-1.036037	3.093472	-7.567376	0.243586	2.297457	-2.880397	-0.679932	-0.118408	-0.267578	0.023024	-0.025358	0.019882	0.093091	-0.389467	-0.203935	-0.893342	25.443255	-47.207852	-179.369717
34769		6.865264	-2.828011	2.288359	-4.147756	3.573719	-4.300583	0.746765	1.845128	-3.447696	-0.666992	-0.146729	-0.269043	0.068357	-0.029544	0.022143	0.080989	-0.377297	-0.213100	-0.897595	27.236752	-45.384610	178.742492
34770		10.886833	-0.267981	2.027578	-6.547374	1.457106	-0.998055	0.928594	1.531437	-3.670591	-0.660400	-0.173096	-0.272461	0.108944	-0.004770	0.019423	0.067866	-0.366098	-0.223539	-0.900776	29.186851	-43.621014	176.720720
34771		14.537769	1.444861	2.724451	-8.540174	0.736165	2.326304	0.535512	1.313581	-3.430880	-0.655029	-0.205566	-0.266846	0.145771	0.011879	0.026322	0.054829	-0.356116	-0.231758	-0.903584	30.726492	-41.988037	174.907282
34772		20.501868	-0.299083	3.316885	-13.385140	3.343141	5.712830	0.093367	1.365275	-2.952693	-0.644775	-0.219971	-0.284912	0.205165	-0.006034	0.031766	0.043213	-0.346492	-0.237043	-0.906579	31.696297	-40.446102	173.517715
34773		26.713938	-1.508710	2.118855	-19.481909	4.763960	8.023087	-0.053135	1.643255	-2.225339	-0.650146	-0.241943	-0.276123	0.267112	-0.018054	0.018998	0.034955	-0.336402	-0.240289	-0.909875	32.154020	-38.973915	172.754013
34774		29.892363	-0.708932	-1.007457	-24.018688	3.117912	7.748952	-0.045880	1.988777	-1.243687	-0.645752	-0.248291	-0.287354	0.298752	-0.008950	-0.013044	0.031588	-0.325884	-0.241817	-0.913414	32.129067	-37.633757	172.752815
34775		31.195206	-0.379780	-5.982531	-28.206658	0.571889	4.785124	0.157394	2.075508	-0.345504	-0.640625	-0.255127	-0.291504	0.311302	-0.004287	-0.063061	0.032754	-0.315969	-0.242765	-0.916600	31.872443	-36.522446	173.328167
34776		30.480318	2.729501	-11.304422	-30.168611	-4.988292	1.555515	0.506380	1.725464	0.100704	-0.642334	-0.240479	-0.309326	0.303799	0.027739	-0.115598	0.036090	-0.308127	-0.244643	-0.918643	31.749857	-35.716541	174.029313
34777		28.648609	7.416603	-15.632942	-30.085295	-11.578101	-0.815331	0.615383	0.978566	0.074290	-0.639893	-0.257568	-0.301514	0.285690	0.074756	-0.157499	0.038556	-0.303641	-0.247182	-0.919357	31.868644	-35.265768	174.432433
34778		26.762406	9.164320	-18.164884	-29.515107	-14.569852	-2.975166	0.488184	-0.034608	-0.283000	-0.637695	-0.247314	-0.297363	0.267785	0.091707	-0.181379	0.037934	-0.303394	-0.249871	-0.918737	32.256108	-35.200291	174.246675
34779		24.725610	8.191255	-18.337601	-28.205972	-13.818383	-4.504189	0.378614	-1.113765	-0.808496	-0.641357	-0.250977	-0.275391	0.248601	0.081255	-0.181840	0.033384	-0.307465	-0.253052	-0.916687	32.997359	-35.492366	173.341674
34780		30.127928	33.218563	-9.230097	-22.240341	-30.250021	16.390594	-0.020702	-2.051204	-0.742519	-0.627930	-0.254395	-0.263428	0.303435	0.331052	-0.089231	0.027332	-0.315951	-0.254435	-0.913614	33.713069	-36.243856	172.100986
34781		29.941252	16.119921	11.562733	-14.100573	-6.085071	22.650225	-7.615456	0.210583	2.045703	-0.626221	-0.216553	-0.283203	0.297831	0.168486	0.108989	0.024873	-0.318439	-0.216216	-0.922620	28.566245	-36.752033	173.420563
34782		-2.720858	-16.795809	13.292414	7.074074	20.294556	-7.797966	-7.483584	0.622670	1.411079	-0.606934	-0.178711	-0.291748	-0.025620	-0.163012	0.139168	0.020106	-0.317830	-0.179230	-0.930836	23.621741	-36.791401	174.518441
34783		14.482885	-24.648357	34.197459	4.698274	35.444268	16.797433	-3.899680	1.602928	1.203698	-0.597412	-0.142090	-0.305420	0.149042	-0.238881	0.345499	0.020926	-0.311821	-0.158979	-0.936512	20.662568	-36.206864	175.739010
34784		-1.726727	-3.489758	20.966416	12.894301	9.606263	4.193950	-1.488101	1.773814	0.866306	-0.582764	-0.133057	-0.319336	-0.015259	-0.033405	0.210058	0.024055	-0.304377	-0.150472	-0.940284	19.225708	-35.425294	176.738321
34785		8.303622	-0.890135	13.871559	0.910241	5.301585	5.459017	-0.638355	0.762049	0.308191	-0.567871	-0.127686	-0.329346	0.083577	-0.008331	0.138425	0.025092	-0.301153	-0.146915	-0.941856	18.644253	-35.075670	177.112862
34786		5.001763	-2.186371	13.034039	2.907023	6.083508	2.606011	-0.233135	0.133316	0.069159	-0.578857	-0.125977	-0.341309	0.050112	-0.021694	0.130332	0.025150	-0.300646	-0.145706	-0.942205	18.469828	-35.020441	177.185024
34787		7.430497	-3.502118	8.767104	-1.638974	6.190059	0.352751	-0.030431	-0.134392	-0.070536	-0.569336	-0.132324	-0.340088	0.074234	-0.035034	0.087726	0.024661	-0.301284	-0.145690	-0.942016	18.498532	-35.086690	177.105138
34788		8.402837	-1.148773	6.066050	-3.612662	3.213115	-0.574246	0.039043	-0.196466	-0.221903	-0.563477	-0.125488	-0.333984	0.083956	-0.011593	0.060741	0.023517	-0.302084	-0.146242	-0.941703	18.633448	-35.157490	176.910545
34789		8.367899	3.098007	4.586720	-3.840912	-1.252972	-0.629289	0.055211	-0.119654	-0.225813	-0.567871	-0.133301	-0.349121	0.083686	0.030873	0.045926	0.022437	-0.302530	-0.146860	-0.941490	18.768838	-35.187104	176.730595
34790		7.640765	5.137579	5.446224	-2.497778	-2.968153	0.156691	0.021924	-0.004250	-0.151657	-0.561035	-0.136963	-0.352051	0.076445	0.051312	0.054469	0.021739	-0.302477	-0.147202	-0.941470	18.842504	-35.165960	176.625556
34791		5.171758	4.977406	7.648308	0.729032	-2.285021	0.398358	0.022269	0.067697	-0.082580	-0.552979	-0.132813	-0.355957	0.051764	0.049744	0.076471	0.021421	-0.302151	-0.147428	-0.941547	18.879995	-35.120257	176.582903
34792		5.007902	3.384820	8.557455	1.162140	-0.501428	0.587511	0.030521	0.026057	-0.049371	-0.552490	-0.129150	-0.365967	0.050099	0.033823	0.085573	0.021239	-0.302030	-0.147653	-0.941555	18.915477	-35.101527	176.552646
34793		5.219123	2.349121	8.266057	0.690543	0.420288	0.208880	0.053411	-0.003260	-0.057930	-0.555664	-0.130615	-0.378174	0.052197	0.023454	0.082668	0.021032	-0.302052	-0.147997	-0.941498	18.970683	-35.098776	176.510255
34794		6.110459	2.692566	7.744316	-0.286331	-0.006565	0.408859	0.056260	-0.019456	-0.078997	-0.555908	-0.130127	-0.377197	0.061108	0.026880	0.077457	0.020716	-0.302120	-0.148392	-0.941421	19.038127	-35.099129	176.450050
34795		6.498541	2.952347	7.280120	-0.830274	-0.361070	0.342498	0.055223	-0.012355	-0.067976	-0.563232	-0.134766	-0.391846	0.064991	0.029481	0.072813	0.020458	-0.302177	-0.148760	-0.941351	19.099374	-35.099347	176.398949
34796		5.885407	3.389993	7.421698	-0.193665	-0.761397	0.216990	0.040152	-0.003276	-0.044123	-0.563721	-0.132568	-0.390625	0.058860	0.033872	0.074225	0.020294	-0.302197	-0.149025	-0.941306	19.142186	-35.097386	176.365529
34797		6.524442	2.695756	7.230479	-0.910758	-0.115794	0.250731	0.044819	-0.018240	-0.018579	-0.559326	-0.140625	-0.390625	0.065240	0.026935	0.072317	0.020248	-0.302320	-0.149270	-0.941229	19.179494	-35.110042	176.345735
34798		6.033849	2.459763	7.441032	-0.419638	0.151557	0.067983	0.053582	-0.023026	-0.028581	-0.570068	-0.131836	-0.399658	0.060333	0.024569	0.074424	0.020162	-0.302443	-0.149577	-0.941142	19.226716	-35.121657	176.318042
34799		6.067314	2.364667	7.506957	-0.419217	0.270611	0.112501	0.066142	-0.026223	-0.035219	-0.565674	-0.130615	-0.401855	0.060667	0.023611	0.075085	0.020065	-0.302589	-0.149949	-0.941038	19.283658	-35.135500	176.285369
34800		6.429768	2.168202	7.164462	-0.930305	0.384023	0.003605	0.052761	-0.034422	-0.037339	-0.569824	-0.128418	-0.406250	0.064289	0.021651	0.071661	0.019928	-0.302758	-0.150266	-0.940936	19.335295	-35.151576	176.249208
34801		5.746437	3.066072	7.162445	-0.255822	-0.503268	-0.148102	0.049403	-0.014389	-0.028130	-0.573242	-0.139404	-0.404297	0.057464	0.030635	0.071636	0.019847	-0.302856	-0.150547	-0.940861	19.378384	-35.160361	176.223941
34802		5.994576	2.658233	7.293966	-0.434243	-0.057405	-0.014155	0.026902	-0.025012	-0.010279	-0.568604	-0.136230	-0.409424	0.059938	0.026569	0.072951	0.019806	-0.303004	-0.150700	-0.940790	19.403674	-35.176457	176.207822
34803		5.725039	2.861345	7.249163	-0.210827	-0.276472	-0.148690	0.012795	-0.012635	-0.004748	-0.581543	-0.133545	-0.412598	0.057246	0.028607	0.072497	0.019781	-0.303115	-0.150773	-0.940743	19.416680	-35.188752	176.198399
34804		5.693864	2.840979	7.311429	-0.151349	-0.239858	-0.124147	-0.002548	0.000626	0.016341	-0.577637	-0.133301	-0.418457	0.056937	0.028415	0.073114	0.019839	-0.303166	-0.150745	-0.940730	19.411521	-35.196058	176.205844
34805		5.366105	2.739821	7.399429	0.153074	-0.137242	-0.272720	-0.027690	0.022734	0.023185	-0.579590	-0.134277	-0.416016	0.053666	0.027415	0.073984	0.019911	-0.303136	-0.150582	-0.940764	19.385950	-35.194572	176.223124
34806		6.018068	2.945056	7.116908	-0.512332	-0.385899	-0.059253	-0.044318	0.025990	0.037884	-0.589355	-0.136230	-0.409668	0.060184	0.029478	0.071155	0.020027	-0.303088	-0.150323	-0.940819	19.345243	-35.192256	176.250722
34807		5.866703	2.527469	7.052216	-0.479948	-0.020922	-0.309569	-0.055866	0.033522	0.040970	-0.591309	-0.140137	-0.410889	0.058674	0.025306	0.070505	0.020148	-0.303023	-0.149999	-0.940889	19.295322	-35.188305	176.282258
34808		5.200721	2.467149	7.185405	0.129082	0.033581	-0.606897	-0.063678	0.037308	0.046540	-0.587158	-0.136230	-0.410156	0.052015	0.024706	0.071836	0.020283	-0.302930	-0.149634	-0.940974	19.238721	-35.181465	176.318196
34809		5.196699	2.358190	7.638289	0.374061	0.262246	-0.288954	-0.071987	0.007447	0.066726	-0.597168	-0.127197	-0.414795	0.051962	0.023627	0.076372	0.020481	-0.303008	-0.149198	-0.941013	19.173207	-35.196442	176.360758
34810		5.128342	2.793611	7.550569	0.438686	-0.192249	-0.279281	-0.084402	-0.004187	0.074354	-0.592773	-0.125244	-0.409180	0.051271	0.027987	0.075495	0.020685	-0.303133	-0.148698	-0.941048	19.099603	-35.217220	176.405573
34811		5.293015	2.669858	7.569458	0.302603	-0.070735	-0.203095	-0.090220	-0.010995	0.078656	-0.598145	-0.125977	-0.411865	0.052915	0.026754	0.075685	0.020898	-0.303309	-0.148160	-0.941071	19.021446	-35.244317	176.451890
34812		5.454228	2.775585	7.747617	0.288468	-0.122048	0.055439	-0.074501	0.001756	0.076461	-0.595459	-0.132568	-0.410645	0.054532	0.027806	0.077465	0.021131	-0.303407	-0.147702	-0.941107	18.951841	-35.262173	176.499552
34813		5.491112	2.579273	7.536141	0.115542	-0.004914	-0.138754	-0.086864	0.020893	0.085759	-0.597656	-0.108154	-0.398193	0.054908	0.025849	0.075344	0.021406	-0.303437	-0.147165	-0.941175	18.868612	-35.273198	176.557941
34814		6.333848	2.520077	7.156610	-0.794200	-0.030203	0.038901	-0.100358	0.063671	0.105413	-0.603027	-0.113770	-0.397705	0.063348	0.025270	0.071533	0.021782	-0.303267	-0.146535	-0.941319	18.764944	-35.262710	176.638922
34815		6.224224	2.284389	7.067035	-0.791612	0.148262	-0.155891	-0.126748	0.129091	0.093326	-0.598633	-0.118164	-0.394287	0.062277	0.022918	0.070616	0.022112	-0.302798	-0.145788	-0.941579	18.641924	-35.216258	176.726702
34816		6.595131	2.249393	6.954128	-1.173969	0.148497	-0.039504	-0.158288	0.176853	0.085025	-0.602539	-0.101318	-0.399170	0.066003	0.022577	0.069465	0.022386	-0.302086	-0.144903	-0.941937	18.498500	-35.140294	176.819257
34817		6.791010	2.515051	6.513106	-1.562898	-0.243579	-0.202183	-0.178664	0.213266	0.084155	-0.594727	-0.109619	-0.406006	0.067969	0.025237	0.065036	0.022655	-0.301220	-0.143915	-0.942360	18.338959	-35.046123	176.919120
34818		5.879919	2.940918	7.190591	-0.402235	-0.520005	-0.091846	-0.182514	0.258656	0.081870	-0.598633	-0.097656	-0.393311	0.058880	0.029499	0.071803	0.022938	-0.300122	-0.142911	-0.942856	18.173253	-34.924669	177.026772
34819		5.784392	2.022562	7.125134	-0.500451	0.314783	-0.433569	-0.210623	0.261072	0.072404	-0.594727	-0.098633	-0.392334	0.057929	0.020322	0.071154	0.023137	-0.299024	-0.141784	-0.943370	17.994833	-34.801950	177.128220
34820		5.052498	2.414464	7.798303	0.504817	0.076244	-0.225708	-0.191394	0.235542	0.070370	-0.593506	-0.103760	-0.391357	0.050608	0.024237	0.077900	0.023335	-0.298026	-0.140758	-0.943834	17.832265	-34.690545	177.222087
34821		4.536167	2.329227	8.332523	1.197484	0.265954	-0.121026	-0.189648	0.187872	0.051461	-0.588379	-0.092041	-0.395996	0.045434	0.023383	0.083260	0.023416	-0.297255	-0.139769	-0.944222	17.683536	-34.603644	177.292976
34822		4.974113	2.403164	8.124090	0.718508	0.134498	-0.015573	-0.169448	0.123437	0.074502	-0.579590	-0.088135	-0.394043	0.049782	0.024119	0.081190	0.023587	-0.296786	-0.138853	-0.944501	17.546120	-34.553775	177.365078
34823		5.128575	2.267424	8.090328	0.549309	0.243834	0.012570	-0.141020	0.062526	0.073040	-0.589355	-0.083008	-0.391602	0.051303	0.022750	0.080871	0.023755	-0.296615	-0.138075	-0.944664	17.432410	-34.538776	177.423503
34824		5.502207	1.676077	7.865197	0.040468	0.749699	-0.097691	-0.114039	0.021269	0.063328	-0.577637	-0.077637	-0.389893	0.055025	0.016823	0.078637	0.023885	-0.296614	-0.137449	-0.944753	17.343182	-34.542621	177.466678
34825		5.414333	1.951094	7.946427	0.195789	0.494114	-0.015495	-0.062064	-0.033115	0.068518	-0.578369	-0.088623	-0.390625	0.054123	0.019554	0.079467	0.024082	-0.296882	-0.137063	-0.944719	17.287630	-34.579013	177.502264
34826		5.702542	1.879010	7.956726	-0.036464	0.571303	0.138767	-0.014164	-0.092863	0.051522	-0.580811	-0.068848	-0.380859	0.056984	0.018810	0.079592	0.024226	-0.297399	-0.136939	-0.944571	17.273420	-34.643224	177.514035
34827		5.467514	2.411737	8.003654	0.264202	0.063701	0.172040	0.037143	-0.140955	0.041838	-0.575684	-0.070313	-0.379150	0.054614	0.024114	0.080080	0.024371	-0.298147	-0.137074	-0.944312	17.297373	-34.734059	177.509642
34828		5.508901	2.256013	7.924485	0.183994	0.197795	0.094988	0.072656	-0.185260	0.042577	-0.565918	-0.070068	-0.380859	0.055011	0.022543	0.079304	0.024539	-0.299083	-0.137385	-0.943966	17.347245	-34.847290	177.496231
34829		5.568049	2.533804	7.940959	0.202801	-0.055225	0.209185	0.094363	-0.227597	0.044908	-0.583740	-0.078125	-0.385498	0.055584	0.025313	0.079485	0.024724	-0.300234	-0.137795	-0.943536	17.413277	-34.986016	177.475617
34830		5.742489	2.564270	7.840087	0.034864	-0.096224	0.237590	0.120160	-0.285634	0.054512	-0.564453	-0.071045	-0.390137	0.057306	0.025611	0.078498	0.024950	-0.301645	-0.138324	-0.943003	17.498164	-35.156134	177.448730
34831		5.805375	2.588031	7.985706	0.103723	-0.063522	0.393039	0.159669	-0.372118	0.055720	-0.569824	-0.071533	-0.378662	0.057898	0.025833	0.079986	0.025185	-0.303475	-0.139043	-0.942303	17.615556	-35.375623	177.404155
34832		5.658832	2.621849	8.128671	0.352975	-0.044813	0.426694	0.191803	-0.468684	0.076037	-0.566895	-0.071045	-0.385986	0.056388	0.026162	0.081444	0.025494	-0.305752	-0.139899	-0.941432	17.756587	-35.649320	177.351572
34833		5.389546	2.476986	8.362057	0.743259	0.173207	0.411001	0.359910	-0.604871	0.173597	-0.572021	-0.079834	-0.378662	0.053621	0.024666	0.083827	0.026426	-0.308730	-0.141408	-0.940208	17.973224	-36.016251	177.334070
34834		4.196595	3.063431	9.537343	2.547278	-0.065516	0.744911	0.442857	-0.958933	0.220169	-0.565674	-0.071533	-0.380615	0.041474	0.030469	0.095641	0.027452	-0.313372	-0.143284	-0.938357	18.267038	-36.582261	177.267379
34835		4.358984	2.526686	10.241156	2.881961	0.710681	1.207875	0.643024	-1.383427	0.320047	-0.577148	-0.074463	-0.379395	0.042840	0.025006	0.102790	0.028957	-0.320050	-0.145989	-0.935637	18.695858	-37.398609	177.167316
34836		3.373358	2.500885	11.394068	4.533507	1.111813	1.397314	0.815135	-1.980250	0.427657	-0.587158	-0.060059	-0.369629	0.032550	0.024614	0.114368	0.030801	-0.329530	-0.149406	-0.931740	19.272975	-38.555759	176.989423
34837		2.429956	3.722607	11.961132	6.077906	0.180723	1.405397	0.977897	-2.771894	0.560543	-0.604248	-0.067627	-0.349121	0.022534	0.036704	0.120112	0.032938	-0.342728	-0.153452	-0.926232	20.025574	-40.165662	176.686537
34838		3.108396	4.196888	11.964912	6.023249	-0.120329	1.768299	1.030693	-3.719792	0.752062	-0.617188	-0.068848	-0.327637	0.028693	0.041461	0.120412	0.035311	-0.360335	-0.157529	-0.918747	20.919011	-42.317531	176.228162
34839		3.151629	4.555851	12.469127	6.890064	-0.174845	1.961303	1.066676	-4.704152	0.972827	-0.633789	-0.065430	-0.292480	0.028349	0.045033	0.125624	0.037974	-0.382462	-0.161463	-0.908961	21.978877	-45.035803	175.579051
34840		4.188141	4.688611	13.033165	7.216166	0.066948	2.727265	1.087025	-5.576279	1.295980	-0.653809	-0.061523	-0.254395	0.037920	0.046427	0.131679	0.041410	-0.408518	-0.164925	-0.896771	23.179232	-48.275407	174.786276
34841		4.970329	5.365190	13.056572	7.645547	-0.395746	3.043028	1.036892	-6.356310	1.788558	-0.682861	-0.051270	-0.205078	0.045038	0.053386	0.132324	0.046270	-0.438091	-0.167150	-0.882041	24.414654	-52.026559	173.951978
34842		8.289826	5.944128	15.256452	8.437167	0.114785	6.480365	0.981184	-6.879169	2.329375	-0.682373	-0.047607	-0.160645	0.076887	0.059602	0.155571	0.052896	-0.469885	-0.167865	-0.865004	25.614001	-56.166977	173.166909
34843		13.252623	4.495240	16.389281	7.555012	2.292626	10.235024	1.101677	-6.821652	2.407674	-0.711182	-0.025146	-0.104980	0.126284	0.045578	0.168522	0.060124	-0.500837	-0.168671	-0.846816	27.054141	-60.286705	172.216688
34844		14.219662	7.452856	15.543473	8.639210	-0.570907	10.782710	1.356892	-6.549575	2.484622	-0.711426	-0.013916	-0.058105	0.136065	0.075167	0.160467	0.068464	-0.529967	-0.170068	-0.827964	28.789942	-64.273290	171.135769
34845		14.942630	9.414959	13.766707	8.828560	-2.850075	10.563309	1.340822	-6.233692	2.607519	-0.724121	0.007324	-0.006592	0.143791	0.095103	0.142843	0.077458	-0.557247	-0.170750	-0.808900	30.637988	-68.120150	169.956931
34846		17.972456	9.518946	14.601521	9.936557	-2.356332	13.041544	1.353698	-5.706494	2.835710	-0.725342	0.030518	0.044189	0.174086	0.096671	0.151688	0.087771	-0.581958	-0.170457	-0.790295	32.304708	-71.760940	169.009666
34847		13.166549	9.577563	14.071631	12.241087	-2.838554	7.653199	1.390529	-4.998472	3.119095	-0.726807	0.047852	0.078857	0.126579	0.096780	0.144593	0.099829	-0.603518	-0.169003	-0.772812	33.276996	-75.139769	168.827293
34848		8.624327	10.386380	12.930729	13.524655	-4.210157	2.382841	1.197071	-4.185044	3.352961	-0.722168	0.077148	0.115479	0.081756	0.104476	0.131674	0.112809	-0.621727	-0.165551	-0.757181	32.687384	-78.200906	170.138395
34849		17.940629	8.156685	12.437674	11.188755	-2.102819	10.519000	0.979282	-3.563909	3.383075	-0.715088	0.110352	0.136230	0.175741	0.083940	0.127938	0.125662	-0.637295	-0.160715	-0.743125	30.045767	-80.957255	173.394519
34850		28.592933	11.424121	23.259787	21.405535	-0.893506	22.281357	0.816612	-0.794637	2.805419	-0.717041	0.128174	0.139404	0.283370	0.117274	0.234202	0.138023	-0.641947	-0.155307	-0.738060	22.194397	-82.080879	-178.194350
34851		10.649191	10.999300	15.180932	16.699805	-3.962391	3.235916	0.948574	1.318863	1.962814	-0.712891	0.140137	0.138184	0.106411	0.110318	0.151630	0.149312	-0.637916	-0.151603	-0.740126	13.602287	-81.708787	-168.966308
34852		-1.593469	11.697566	8.192524	12.468628	-7.142803	-9.857917	0.563197	1.743313	1.552767	-0.720459	0.153320	0.110107	-0.016124	0.116619	0.082394	0.158154	-0.632207	-0.147440	-0.744018	7.046119	-80.888990	-162.007122
34853		-3.308951	9.493990	5.457754	9.400629	-6.122342	-12.052472	0.075030	1.457439	1.249897	-0.724854	0.165771	0.101318	-0.033283	0.094712	0.054855	0.164093	-0.627631	-0.142631	-0.747535	2.425835	-80.117722	-157.278342
34854		-2.246429	7.008195	4.949111	7.748166	-4.113117	-11.117706	-0.098915	1.256766	0.693310	-0.720947	0.169678	0.096924	-0.022396	0.070029	0.049597	0.167255	-0.623525	-0.139069	-0.750934	0.089839	-79.411600	-154.961615
34855		-1.087494	5.546001	5.751897	7.654716	-2.535505	-9.780423	0.026494	1.313891	-0.134447	-0.726807	0.174072	0.087646	-0.010459	0.055460	0.057596	0.167727	-0.618473	-0.138512	-0.755098	0.498702	-78.660731	-155.361544
34856		-1.540073	5.548815	5.752650	7.739330	-2.503504	-10.108636	0.133523	1.531835	-1.002226	-0.727783	0.163330	0.078125	-0.014681	0.055524	0.057678	0.165399	-0.611890	-0.140843	-0.760524	3.197895	-77.769938	-158.039998
34857		-2.634401	5.212169	5.254667	7.384933	-2.338398	-11.120318	0.037714	1.748592	-1.692671	-0.734619	0.146729	0.066650	-0.025441	0.052330	0.052782	0.160279	-0.603980	-0.144736	-0.767183	7.100804	-76.686117	-162.018364
34858		-3.604613	3.291594	4.678305	6.319995	-0.813829	-12.072498	-0.157290	1.874004	-2.112144	-0.751709	0.122803	0.049561	-0.035255	0.033328	0.047090	0.153031	-0.595362	-0.149012	-0.774546	11.148960	-75.438188	-166.281207
34859		-3.738909	0.262796	4.460218	4.972555	1.794506	-12.260854	-0.221994	1.965906	-2.342518	-0.752930	0.100830	0.023438	-0.036914	0.003112	0.044963	0.144726	-0.586108	-0.153631	-0.782259	14.899553	-74.038284	-170.299191
34860		-3.402479	-1.852774	4.371218	4.026263	3.611476	-12.017763	-0.130934	2.083041	-2.421658	-0.762695	0.083008	0.020508	-0.033788	-0.018089	0.044077	0.136440	-0.576155	-0.158705	-0.790090	18.131647	-72.503590	-173.751452
34861		-2.709054	-2.754162	4.422609	3.581449	4.388570	-11.360833	-0.056864	2.241192	-2.299673	-0.761719	0.057129	-0.005127	-0.026907	-0.027219	0.044536	0.128933	-0.565444	-0.163581	-0.798054	20.580333	-70.855041	-176.363835
34862		-1.863785	-3.195529	4.540101	3.287528	4.795298	-10.515814	-0.064842	2.440978	-1.998660	-0.764648	0.040039	-0.033447	-0.018400	-0.031756	0.045637	0.122742	-0.554075	-0.167395	-0.806172	22.084867	-69.139971	-178.003666
34863		-0.958474	-3.554542	4.747138	3.028386	5.182861	-9.578046	-0.138476	2.690010	-1.605817	-0.772217	0.024658	-0.036621	-0.009230	-0.035437	0.047622	0.118103	-0.541907	-0.169636	-0.814624	22.676326	-67.364125	-178.724857
34864		-0.117724	-3.840258	4.977886	2.782192	5.523043	-8.674557	-0.176078	2.952372	-1.208092	-0.752197	0.017334	-0.059814	-0.000674	-0.038354	0.049825	0.115181	-0.528927	-0.170443	-0.823358	22.556640	-65.540803	-178.703716
34865		0.879281	-3.536972	5.181649	2.598232	5.309966	-7.535701	-0.139036	3.245153	-0.912065	-0.755371	0.002686	-0.085449	0.009471	-0.035376	0.051691	0.113789	-0.514795	-0.170409	-0.832465	22.017665	-63.621650	-178.194419
34866		1.339524	-2.496759	4.999328	2.529785	4.265207	-6.909693	-0.065949	3.513180	-0.756988	-0.744629	-0.007568	-0.113037	0.014176	-0.025004	0.049757	0.113430	-0.499518	-0.170072	-0.841838	21.329440	-61.595249	-177.461302
34867		1.633703	-1.137255	4.553823	2.401886	2.819388	-6.499203	-0.003338	3.705204	-0.756641	-0.739258	-0.013672	-0.143066	0.017134	-0.011436	0.045226	0.113349	-0.483191	-0.169833	-0.851373	20.701941	-59.457392	-176.742068
34868		1.347153	0.149777	3.787558	2.280431	1.328467	-6.776953	0.053818	3.783533	-0.960629	-0.722412	-0.027344	-0.168945	0.014192	0.001421	0.037612	0.112567	-0.466184	-0.170221	-0.860828	20.341520	-57.238668	-176.281831
34869		0.673586	1.422985	2.820310	2.247926	-0.206302	-7.502779	0.139839	3.708436	-1.383891	-0.717285	-0.043213	-0.198975	0.007355	0.014161	0.028080	0.110052	-0.448873	-0.171944	-0.869964	20.430840	-54.969998	-176.292128
34870		0.390250	2.595686	1.850728	2.011799	-1.655230	-7.934692	0.227397	3.339835	-1.988423	-0.706299	-0.053955	-0.212402	0.004469	0.025893	0.018465	0.104749	-0.432464	-0.175540	-0.878173	21.095979	-52.781241	-176.953411
34871		1.963130	3.219683	1.428268	0.862525	-2.427558	-6.710854	0.350566	2.814385	-2.745323	-0.699951	-0.085938	-0.230713	0.020269	0.031897	0.014057	0.095883	-0.417426	-0.181522	-0.885219	22.396102	-50.699590	-178.352342
34872		4.560984	4.095436	1.602006	-0.557423	-3.131988	-4.334010	0.515301	2.330282	-3.477776	-0.688965	-0.109619	-0.240234	0.046496	0.040110	0.015586	0.083645	-0.403654	-0.189917	-0.891066	24.230389	-48.688912	179.630747
34873		7.072371	5.058074	2.134924	-1.833749	-3.612649	-1.829360	0.558636	1.951869	-3.973230	-0.679688	-0.150879	-0.248535	0.071914	0.049101	0.020790	0.068882	-0.390848	-0.199574	-0.895915	26.292278	-46.704499	177.276780
34874		11.376232	4.559011	3.471988	-4.394046	-2.161101	1.945380	0.468391	1.726154	-4.168423	-0.666504	-0.174072	-0.246094	0.114973	0.043122	0.033834	0.052814	-0.378733	-0.209184	-0.900008	28.276871	-44.734425	174.880997
34875		17.852013	3.103663	4.326927	-9.256658	0.391563	6.347578	0.371901	1.826327	-4.003504	-0.658203	-0.200195	-0.257080	0.179478	0.027372	0.041686	0.037376	-0.366135	-0.217917	-0.903914	29.923240	-42.703047	172.807918
34876		21.777912	0.978513	3.265164	-13.816914	2.735882	7.141349	0.288810	2.161502	-3.353833	-0.648682	-0.227295	-0.266846	0.218238	0.006083	0.030305	0.025078	-0.352624	-0.224924	-0.907985	31.008466	-40.665065	171.426060
34877		23.641125	-0.667658	1.187159	-17.359651	3.899931	5.812271	0.318391	2.405659	-2.275828	-0.652588	-0.249268	-0.277344	0.236435	-0.009383	0.009014	0.017985	-0.339058	-0.230058	-0.912025	31.525238	-38.809507	170.903086
34878		26.563219	-0.606203	-1.401296	-21.622845	3.190560	5.358446	0.542806	2.530013	-1.131960	-0.653320	-0.260742	-0.278564	0.265387	-0.007520	-0.017390	0.016633	-0.326175	-0.234211	-0.915685	31.677754	-37.238841	171.161343
34879		29.322969	1.798352	-5.632514	-26.223964	-0.639806	4.562392	0.869324	2.570280	-0.339201	-0.648193	-0.267334	-0.285400	0.292504	0.017743	-0.060010	0.019483	-0.313920	-0.238514	-0.918796	31.726721	-35.884329	171.915106
34880		28.598328	4.342909	-11.329545	-28.615381	-5.899516	0.742083	1.149204	2.251394	0.014131	-0.649414	-0.262451	-0.306885	0.284683	0.044112	-0.116253	0.024016	-0.303497	-0.243542	-0.920869	31.901364	-34.796235	172.752532
34881		26.714810	5.971540	-16.142520	-29.417783	-10.147347	-3.368391	1.347230	1.528052	-0.015967	-0.650635	-0.267578	-0.302734	0.265911	0.060789	-0.163053	0.027825	-0.296290	-0.249581	-0.921492	32.362088	-34.052136	173.303431
34882		26.147540	6.521694	-18.846930	-30.205506	-12.254371	-5.466782	1.440556	0.553078	-0.289017	-0.636230	-0.275391	-0.303711	0.261049	0.066198	-0.188717	0.029297	-0.293211	-0.256571	-0.920511	33.168978	-33.699794	173.337663
34883		35.503330	23.265804	-15.835548	-32.816427	-24.417887	9.664951	1.101392	-0.543048	-0.184972	-0.645508	-0.273193	-0.293945	0.355675	0.233193	-0.156107	0.029343	-0.295347	-0.261998	-0.918295	33.978096	-33.904268	173.019333
34884		52.363176	12.755064	-12.713109	-47.014499	-13.042443	16.367279	-5.663876	0.663655	4.521487	-0.642822	-0.216309	-0.301025	0.520192	0.135634	-0.132627	0.042566	-0.298897	-0.229061	-0.925408	29.085990	-34.938946	175.932346
34885		23.493267	5.345719	-1.013281	-18.599905	-4.348675	4.904012	-6.920474	1.130962	3.634895	-0.617432	-0.174072	-0.310059	0.233845	0.057289	-0.013396	0.050283	-0.299129	-0.191220	-0.933503	23.611017	-35.289418	178.559462
34886		4.454028	-21.248356	26.143669	6.095615	29.378690	6.134176	-4.419901	0.745836	2.775586	-0.608398	-0.130615	-0.320557	0.048415	-0.205986	0.265861	0.057306	-0.299350	-0.166198	-0.937808	19.919488	-35.486655	-179.438419
34887		3.115029	-32.393699	34.671226	9.387131	42.218021	9.950870	-1.113253	1.208952	1.050030	-0.590820	-0.117676	-0.318848	0.034946	-0.321824	0.348304	0.061550	-0.294926	-0.159068	-0.940174	18.721713	-35.039722	-178.466595
34888		6.963954	-2.265148	17.691679	3.282987	7.855969	7.337454	-0.611979	0.240954	0.203999	-0.579590	-0.119873	-0.336914	0.069875	-0.022039	0.176901	0.061782	-0.294183	-0.155826	-0.940935	18.265361	-34.950446	-178.281236
34889		5.236977	-4.586278	12.185458	1.290986	8.215426	1.491524	-0.107706	-0.307423	-0.071626	-0.569824	-0.109863	-0.340820	0.052166	-0.045816	0.121960	0.061037	-0.295669	-0.155522	-0.940567	18.271183	-35.112162	-178.399133
34890		7.720692	-1.498070	6.888129	-2.903719	3.518491	-0.405879	-0.011158	-0.397178	-0.319716	-0.567627	-0.119385	-0.342529	0.077046	-0.015100	0.069035	0.059193	-0.297332	-0.156073	-0.940070	18.440503	-35.275046	-178.702983
34891		10.443900	4.186632	3.825917	-5.592513	-2.867550	0.274003	0.069247	-0.357899	-0.278501	-0.560303	-0.124512	-0.352539	0.104428	0.041708	0.038461	0.057698	-0.298839	-0.156918	-0.939544	18.634846	-35.426103	-178.971049
34892		9.288354	6.047081	3.113398	-4.650516	-4.809744	-0.443964	0.014356	-0.190123	-0.149680	-0.563965	-0.116455	-0.353760	0.092899	0.060399	0.031227	0.056852	-0.299651	-0.157274	-0.939277	18.728396	-35.506394	-179.117086
34893		8.256002	4.327211	5.122879	-3.059482	-2.500477	0.062402	-0.050418	0.010127	-0.052533	-0.550781	-0.109863	-0.360107	0.082574	0.043263	0.051214	0.056528	-0.299643	-0.157115	-0.939326	18.719950	-35.498948	-179.152677
34894		5.123072	4.799714	7.358630	0.796303	-2.177067	0.089778	-0.081776	0.137447	-0.004412	-0.552734	-0.116211	-0.365967	0.051282	0.048026	0.073531	0.056477	-0.299058	-0.156709	-0.939583	18.659416	-35.428107	-179.128081
34895		5.182430	3.068918	8.562109	1.045928	-0.156942	0.602058	-0.072307	0.121462	0.006947	-0.548828	-0.116699	-0.377686	0.051875	0.030722	0.085578	0.056487	-0.298581	-0.156327	-0.939798	18.601113	-35.371236	-179.099141
34896		5.298269	1.784771	8.619421	0.718049	1.067596	0.380257	-0.026708	0.069440	-0.002542	-0.548340	-0.114746	-0.383789	0.053013	0.017859	0.086173	0.056474	-0.298301	-0.156196	-0.939910	18.580368	-35.337634	-179.088714
34897		5.906319	2.787744	8.192397	0.186874	-0.028931	0.662795	0.004524	0.022065	-0.011553	-0.541992	-0.120605	-0.392822	0.059074	0.027872	0.081918	0.056434	-0.298254	-0.156231	-0.939921	18.586109	-35.331299	-179.094395
34898		6.347005	2.376056	7.501081	-0.631575	0.129383	0.275955	0.004211	0.014768	-0.021641	-0.546631	-0.120605	-0.387451	0.063478	0.023752	0.075007	0.056335	-0.298207	-0.156290	-0.939932	18.597515	-35.323898	-179.108925
34899		6.717901	2.469685	7.187240	-1.085520	-0.064379	0.272126	0.014173	-0.008617	-0.019065	-0.548584	-0.111572	-0.399902	0.067178	0.024685	0.071877	0.056250	-0.298296	-0.156389	-0.939893	18.615642	-35.332874	-179.126472
34900		5.970346	2.308751	7.328602	-0.428966	0.146276	-0.092690	0.021400	-0.028066	-0.008745	-0.551270	-0.119873	-0.406250	0.059694	0.023077	0.073297	0.056203	-0.298456	-0.156521	-0.939823	18.637491	-35.351083	-179.142025
34901		6.006632	2.879537	7.635055	-0.173274	-0.289467	0.314090	0.030942	-0.055932	-0.001272	-0.557861	-0.118408	-0.410889	0.060045	0.028783	0.076372	0.056190	-0.298777	-0.156686	-0.939694	18.664536	-35.389055	-179.158369
34902		5.865026	2.439677	7.607439	-0.154769	0.122181	0.096137	0.024961	-0.046931	0.007500	-0.556396	-0.124512	-0.413086	0.058631	0.024389	0.076091	0.056211	-0.299037	-0.156816	-0.939588	18.684650	-35.420474	-179.167380
34903		5.860998	2.594198	7.353710	-0.253016	-0.104753	-0.061624	0.015610	-0.042484	0.010314	-0.555176	-0.115967	-0.407471	0.058593	0.025939	0.073552	0.056240	-0.299308	-0.156888	-0.939488	18.696725	-35.453286	-179.173021
34904		6.202606	2.550414	6.983541	-0.736800	-0.188027	-0.160301	0.001341	-0.035869	0.020088	-0.564697	-0.118896	-0.414551	0.062011	0.025510	0.069847	0.056292	-0.299533	-0.156885	-0.939414	18.697011	-35.481011	-179.171172
34905		5.927256	2.777234	7.145040	-0.374626	-0.347043	-0.136107	-0.017077	-0.019906	0.026767	-0.572266	-0.108398	-0.417969	0.059262	0.027786	0.071454	0.056367	-0.299720	-0.156773	-0.939368	18.681048	-35.504633	-179.160760
34906		6.434806	2.784824	6.970798	-0.878599	-0.421544	0.026234	-0.052671	0.002843	0.041412	-0.573486	-0.114014	-0.420898	0.064343	0.027880	0.069700	0.056470	-0.299795	-0.156473	-0.939388	18.637049	-35.515251	-179.135949
34907		5.554608	3.150800	7.242484	0.059896	-0.675686	-0.180728	-0.083115	0.048524	0.060512	-0.578125	-0.106201	-0.422363	0.055554	0.031555	0.072398	0.056658	-0.299706	-0.155981	-0.939487	18.561247	-35.507919	-179.087636
34908		5.794773	2.886725	7.089308	-0.274854	-0.492128	-0.228685	-0.131819	0.081869	0.072297	-0.580078	-0.116699	-0.419434	0.057966	0.028935	0.070850	0.056848	-0.299456	-0.155240	-0.939678	18.449672	-35.481162	-179.024534
34909		6.153920	2.517581	7.152269	-0.611978	-0.145498	-0.067526	-0.183422	0.116830	0.073482	-0.583496	-0.110107	-0.410400	0.061572	0.025264	0.071464	0.057000	-0.299085	-0.154238	-0.939952	18.302708	-35.438897	-178.952520
34910		5.900956	2.684238	6.962652	-0.484679	-0.382695	-0.319347	-0.220811	0.149654	0.080140	-0.587158	-0.107666	-0.421387	0.059051	0.026943	0.069553	0.057147	-0.298547	-0.153048	-0.940309	18.128694	-35.376393	-178.869520
34911		6.230784	1.929402	7.346402	-0.704775	0.424897	-0.023021	-0.257447	0.156363	0.070920	-0.585449	-0.101563	-0.415283	0.062358	0.019411	0.073390	0.057206	-0.298009	-0.151690	-0.940696	17.935716	-35.311832	-178.791070
34912		5.419756	2.508348	7.130254	-0.057901	-0.205113	-0.514269	-0.252480	0.189113	0.079136	-0.583496	-0.101807	-0.419189	0.054255	0.025195	0.071219	0.057330	-0.297292	-0.150341	-0.941131	17.739584	-35.227186	-178.700906
34913		5.606870	2.919264	7.349683	-0.025128	-0.555599	-0.134488	-0.238350	0.225779	0.088006	-0.583008	-0.097412	-0.398193	0.056139	0.029305	0.073399	0.057550	-0.296433	-0.149026	-0.941598	17.543059	-35.127289	-178.597014
34914		5.358108	2.554063	7.777622	0.320302	-0.096577	-0.034551	-0.226967	0.240546	0.087427	-0.589600	-0.097168	-0.406006	0.053663	0.025652	0.077683	0.057789	-0.295472	-0.147769	-0.942083	17.352946	-35.015456	-178.491442
34915		5.856637	2.116629	7.515352	-0.333993	0.199303	-0.060279	-0.214815	0.260962	0.085648	-0.576172	-0.086914	-0.408691	0.058655	0.021272	0.075054	0.058058	-0.294437	-0.146558	-0.942580	17.167610	-34.895343	-178.382957
34916		5.906711	1.636959	7.505212	-0.495529	0.625741	-0.155572	-0.188004	0.276067	0.077814	-0.584717	-0.079834	-0.406250	0.059164	0.016463	0.074955	0.058336	-0.293289	-0.145488	-0.943086	17.000364	-34.761892	-178.277695
34917		6.503886	1.724133	7.360926	-1.067711	0.460066	0.092091	-0.181960	0.268501	0.060218	-0.588623	-0.079346	-0.403809	0.065132	0.017328	0.073506	0.058539	-0.292189	-0.144466	-0.943572	16.843680	-34.632919	-178.185836
34918		5.707321	2.257245	7.632180	-0.185176	0.035285	-0.020689	-0.154512	0.254803	0.062987	-0.570313	-0.082031	-0.395020	0.057163	0.022649	0.076232	0.058779	-0.291119	-0.143580	-0.944023	16.704725	-34.508216	-178.095927
34919		5.073469	1.718648	7.982048	0.400218	0.653166	-0.230408	-0.136518	0.216656	0.059643	-0.571533	-0.078613	-0.402344	0.050816	0.017256	0.079754	0.059008	-0.290249	-0.142788	-0.944397	16.581003	-34.407295	-178.015800
34920		4.685934	1.742325	8.132764	0.790215	0.672025	-0.322722	-0.105155	0.155600	0.058527	-0.569824	-0.065674	-0.404297	0.046917	0.017480	0.081282	0.059228	-0.289628	-0.142171	-0.944667	16.483805	-34.336042	-177.949307
34921		4.499830	1.776900	8.282973	1.020586	0.678078	-0.298903	-0.084971	0.119819	0.034598	-0.570068	-0.074707	-0.401855	0.045045	0.017812	0.082795	0.059345	-0.289182	-0.141686	-0.944869	16.410156	-34.284009	-177.905395
34922		4.678295	1.937629	8.125549	0.814524	0.462974	-0.284435	-0.071290	0.064872	0.025253	-0.563965	-0.072754	-0.401611	0.046807	0.019411	0.081233	0.059392	-0.288956	-0.141304	-0.944992	16.355084	-34.257109	-177.879083
34923		4.787599	2.133694	7.960957	0.673606	0.216401	-0.307425	-0.050136	0.020363	0.029615	-0.562256	-0.066406	-0.405029	0.047881	0.021364	0.079599	0.059465	-0.288966	-0.141020	-0.945027	16.314244	-34.258824	-177.858003
34924		5.139632	2.431330	7.819858	0.367585	-0.125582	-0.152124	-0.039585	-0.016515	0.038024	-0.558838	-0.066895	-0.400635	0.051385	0.024339	0.078198	0.059561	-0.289124	-0.140794	-0.945006	16.281497	-34.278704	-177.839076
34925		5.552584	2.672199	7.754025	0.044040	-0.392213	0.083825	-0.029680	-0.042029	0.052528	-0.564453	-0.063965	-0.402100	0.055503	0.026748	0.077548	0.059727	-0.289438	-0.140592	-0.944930	16.250587	-34.318361	-177.814845
34926		5.145795	2.530766	7.876737	0.424384	-0.211430	-0.081184	-0.013205	-0.048759	0.073891	-0.560059	-0.060547	-0.394775	0.051429	0.025332	0.078778	0.060008	-0.289765	-0.140447	-0.944833	16.222961	-34.361707	-177.778238
34927		5.880262	2.514756	7.720123	-0.258393	-0.270629	0.205385	-0.015943	-0.066778	0.082855	-0.548828	-0.060791	-0.405518	0.058766	0.025178	0.077219	0.060321	-0.290213	-0.140274	-0.944702	16.191157	-34.419800	-177.738521
34928		5.663897	2.668219	7.685344	-0.057028	-0.423696	0.090890	0.010440	-0.095065	0.106877	-0.549072	-0.056885	-0.396973	0.056588	0.026708	0.076882	0.060759	-0.290775	-0.140208	-0.944510	16.169577	-34.493864	-177.688763
34929		5.983804	2.453466	7.684562	-0.347429	-0.231010	0.222441	0.037869	-0.135637	0.101017	-0.553711	-0.052246	-0.410645	0.059774	0.024550	0.076891	0.061187	-0.291544	-0.140283	-0.944234	16.169156	-34.592742	-177.650144
34930		6.015541	2.072848	7.720140	-0.409207	0.144983	0.182085	0.089622	-0.218307	0.096172	-0.551270	-0.052734	-0.412109	0.060061	0.020723	0.077276	0.061604	-0.292656	-0.140643	-0.943810	16.210422	-34.732915	-177.631376
34931		5.508505	2.185263	8.293752	0.366643	0.239046	0.371302	0.155181	-0.333957	0.087646	-0.557617	-0.057129	-0.415039	0.054937	0.021812	0.083046	0.062001	-0.294315	-0.141352	-0.943162	16.304333	-34.938816	-177.640509
34932		5.339657	2.116041	8.793948	0.803706	0.481591	0.648907	0.201071	-0.494658	0.100105	-0.556885	-0.049072	-0.423096	0.053168	0.021099	0.088092	0.062404	-0.296696	-0.142316	-0.942244	16.439429	-35.231590	-177.674087
34933		4.128004	2.299146	9.635744	2.350829	0.631908	0.639478	0.257868	-0.741371	0.136550	-0.565674	-0.054199	-0.418701	0.040907	0.022895	0.096539	0.062893	-0.300273	-0.143561	-0.940888	16.621116	-35.669168	-177.733000
34934		3.735142	2.730186	10.168855	3.149610	0.445275	0.896693	0.494287	-1.141930	0.245372	-0.563721	-0.054932	-0.416992	0.036736	0.027095	0.101967	0.063953	-0.305701	-0.145885	-0.938709	16.946324	-36.340832	-177.803439
34935		3.536161	2.327556	10.990784	3.834358	1.165092	1.262319	0.682259	-1.645975	0.370705	-0.574219	-0.048584	-0.408936	0.034412	0.022964	0.110272	0.065524	-0.313533	-0.149042	-0.935516	17.395138	-37.312446	-177.900423
34936		2.329524	3.030504	12.167806	5.833036	1.018755	1.483123	0.905538	-2.297532	0.546241	-0.588867	-0.049805	-0.393066	0.021813	0.029814	0.122070	0.067766	-0.324405	-0.153173	-0.930971	17.996358	-38.666296	-178.033261
34937		2.242798	4.303033	12.461424	6.671756	0.052039	1.776181	0.961546	-3.082929	0.776970	-0.606201	-0.052246	-0.381592	0.020336	0.042511	0.125144	0.070563	-0.339043	-0.157414	-0.924820	18.658696	-40.490519	-178.208414
34938		2.854179	5.321649	12.422850	6.858404	-0.792127	2.149732	0.842877	-4.072789	1.027454	-0.622803	-0.048828	-0.352539	0.025729	0.052828	0.124995	0.073506	-0.358348	-0.160982	-0.916662	19.325455	-42.893162	-178.483738
34939		3.440913	4.704856	13.308425	7.414989	0.228466	2.677506	0.857412	-5.129261	1.321377	-0.645752	-0.047607	-0.314941	0.030669	0.046686	0.134104	0.076934	-0.382531	-0.164373	-0.905943	20.091598	-45.922071	-178.876448
34940		3.489833	5.464362	13.737724	8.588249	-0.178402	2.713183	0.794157	-6.003807	1.734953	-0.671631	-0.031250	-0.265137	0.030278	0.054371	0.138549	0.081324	-0.410691	-0.166892	-0.892674	20.849440	-49.496914	-179.284614
34941		5.745614	5.696762	13.881894	8.187441	-0.218439	4.006647	0.745770	-6.912494	2.388767	-0.689697	-0.018799	-0.217529	0.051928	0.057087	0.140890	0.087684	-0.443000	-0.168017	-0.876261	21.473351	-53.690715	-179.535123
34942		8.976877	8.334599	15.391327	9.401008	-2.006864	7.343307	0.522547	-7.411695	3.099558	-0.709473	-0.000977	-0.167969	0.082679	0.084256	0.157285	0.096107	-0.477517	-0.166567	-0.857319	21.642587	-58.297209	-179.377329
34943		16.160868	8.776942	17.047148	8.709846	-1.766490	13.628619	0.438308	-7.279157	3.335370	-0.724121	0.029297	-0.105469	0.153771	0.089996	0.176360	0.105300	-0.510938	-0.163854	-0.837261	21.462684	-62.883841	-178.882586
34944		16.985656	10.334802	16.344874	10.132321	-3.466464	13.585557	0.414061	-6.717320	3.500508	-0.726807	0.057373	-0.050781	0.162398	0.105888	0.169205	0.115416	-0.541369	-0.160078	-0.817297	20.656549	-67.200872	-177.731793
34945		18.311523	12.166294	16.161595	11.886123	-5.319622	14.158849	0.135184	-6.106018	3.694323	-0.727295	0.087646	-0.000732	0.175781	0.124844	0.167142	0.125907	-0.568885	-0.154064	-0.797986	18.582199	-71.212631	-175.431100
34946		18.096311	13.660617	16.498016	14.412710	-6.782296	13.258328	-0.341147	-5.172033	3.929477	-0.719727	0.118896	0.043213	0.173888	0.140356	0.169301	0.136550	-0.592492	-0.144717	-0.780618	14.062263	-74.696608	-170.909683
34947		11.232831	14.608190	14.658589	16.083770	-8.434668	5.168994	-1.057310	-4.197989	4.222052	-0.715820	0.151611	0.081055	0.106103	0.149146	0.148074	0.146783	-0.612409	-0.130901	-0.765686	5.476680	-77.488806	-162.691720
34948		2.699977	5.754592	12.411681	12.946958	-0.867428	-4.710341	-1.393898	-3.555930	4.099996	-0.699951	0.183105	0.119873	0.023594	0.058918	0.124149	0.155815	-0.629518	-0.115588	-0.752375	-7.018767	-79.510446	-150.758428
34949		26.542580	2.649996	24.548087	19.521024	3.993643	20.469940	-0.033200	-1.450884	3.012003	-0.701172	0.215820	0.133301	0.263196	0.030516	0.247391	0.166168	-0.636676	-0.107118	-0.745357	-17.331007	-79.964981	-140.298028
34950		3.018976	9.013824	14.817789	16.620300	-3.055272	-4.877326	1.278553	0.389471	1.698211	-0.699219	0.220215	0.117432	0.029718	0.089442	0.148693	0.176756	-0.635067	-0.106165	-0.744430	-21.250966	-79.437803	-135.568846
34951		-5.304458	14.596889	7.412686	13.306346	-9.726008	-14.761828	1.262506	0.404588	0.967146	-0.700684	0.236816	0.099121	-0.053597	0.145238	0.075153	0.184561	-0.632949	-0.107457	-0.744155	-22.762786	-79.018333	-133.292464
34952		-1.963555	14.709217	6.871689	12.529333	-10.352328	-11.624044	0.536988	0.234143	0.326397	-0.705078	0.234375	0.104004	-0.019795	0.146875	0.069135	0.187590	-0.631786	-0.108225	-0.744274	-23.072294	-78.827224	-132.662968
34953		-0.412873	11.675360	8.116509	12.211437	-7.293770	-9.605148	0.067118	0.446676	-0.566995	-0.709717	0.230713	0.111328	-0.003616	0.116737	0.081213	0.185915	-0.629755	-0.109878	-0.746171	-21.017951	-78.714990	-134.716778
34954		-0.460983	8.936679	9.163406	12.002789	-4.412935	-9.106008	-0.070314	0.951719	-1.597258	-0.719238	0.215576	0.096191	-0.003460	0.089430	0.091621	0.180240	-0.625397	-0.113775	-0.750631	-15.895183	-78.492577	-139.982918
34955		-1.951247	6.893343	8.669312	10.925838	-2.621123	-10.293181	-0.110904	1.453733	-2.409617	-0.734131	0.195313	0.078857	-0.018049	0.069205	0.086790	0.171636	-0.618609	-0.119608	-0.757336	-8.606896	-77.972495	-147.490497
34956		-3.018828	4.184479	8.002698	9.425061	-0.378961	-11.110326	-0.117217	1.877975	-2.873070	-0.736816	0.167969	0.068604	-0.028830	0.042312	0.080277	0.161483	-0.609822	-0.126439	-0.765542	-0.859056	-77.039060	-155.493591
34957		-3.543917	1.614138	7.543467	8.140355	1.752392	-11.464035	-0.045758	2.233986	-3.030709	-0.751709	0.138916	0.054199	-0.034344	0.016685	0.075819	0.151102	-0.599278	-0.133715	-0.774696	6.050537	-75.679275	-162.628139
34958		-3.388483	-0.580032	7.210936	7.010936	3.551514	-11.242955	0.102069	2.580782	-2.945869	-0.751953	0.120361	0.030029	-0.033032	-0.005347	0.072536	0.141683	-0.587154	-0.140978	-0.784411	11.440120	-73.964201	-168.150403
34959		-2.910826	-2.054032	6.936855	6.128367	4.728168	-10.759681	0.296075	2.948858	-2.707271	-0.768799	0.097900	0.004150	-0.028357	-0.020256	0.069760	0.133959	-0.573343	-0.148004	-0.794624	15.278221	-71.959377	-171.985055
34960		-2.021859	-2.681390	6.834072	5.550441	5.212701	-9.826027	0.479347	3.310425	-2.350139	-0.759521	0.077148	-0.025879	-0.019399	-0.026747	0.068602	0.128406	-0.558046	-0.154413	-0.805142	17.729058	-69.762516	-174.287451
34961		-1.035053	-2.570928	6.604071	5.026160	4.997348	-8.785160	0.576328	3.679832	-1.947129	-0.756836	0.056152	-0.062012	-0.009385	-0.025805	0.066145	0.124963	-0.541221	-0.159800	-0.816044	19.073496	-67.407258	-175.375227
34962		-0.374253	-2.058385	6.325202	4.653602	4.417128	-8.019925	0.582869	4.010903	-1.569462	-0.749756	0.034912	-0.091064	-0.002636	-0.020745	0.063252	0.123299	-0.523147	-0.163897	-0.827196	19.612328	-64.945590	-175.598429
34963		0.039251	-1.589163	5.876131	4.174514	3.814565	-7.560141	0.547660	4.245107	-1.307196	-0.747070	0.033691	-0.129639	0.001534	-0.016060	0.058693	0.122747	-0.504032	-0.166951	-0.838458	19.706745	-62.400204	-175.352305
34964		0.768235	-0.755249	5.664968	3.839710	2.954240	-6.685938	0.537051	4.364752	-1.195413	-0.735596	0.008545	-0.166504	0.008870	-0.007755	0.056444	0.122687	-0.484313	-0.169508	-0.849503	19.662378	-59.819329	-174.949554
