// General information: 
//  MT Manager version: 2021.4.0 
//  XDA version: 2021.4.0 build 6323 rev 112641 built on 2021-09-28
// Device information: 
//  DeviceId: 00B47786
//  ProductCode: MTW2-3A7G6
//  Firmware Version: 4.6.0
//  Hardware Version: 2.0.0
// Device settings: 
//  Filter Profile: human(46.1)
//  Option Flags: Orientation Smoother Disabled, Position/Velocity Smoother Disabled, Continuous Zero Rotation Update Disabled, AHS Disabled, ICC Disabled
// Coordinate system: ENU
PacketCounter	SampleTimeFine	Acc_X	Acc_Y	Acc_Z	FreeAcc_E	FreeAcc_N	FreeAcc_U	Gyr_X	Gyr_Y	Gyr_Z	Mag_X	Mag_Y	Mag_Z	VelInc_X	VelInc_Y	VelInc_Z	Quat_q0	Quat_q1	Quat_q2	Quat_q3	Roll	Pitch	Yaw
34423		9.506095	1.684372	-1.663094	0.011147	0.085160	-0.016695	0.001214	0.007357	-0.012035	-0.850098	-0.065186	0.492920	0.095061	0.016838	-0.016634	-0.004494	-0.753687	-0.134698	-0.643267	133.749627	-75.565476	56.900135
34424		9.488436	1.701076	-1.669334	0.006145	0.064696	-0.029716	0.005872	0.006605	-0.014023	-0.850342	-0.063232	0.497070	0.094885	0.017005	-0.016696	-0.004491	-0.753691	-0.134733	-0.643255	133.748682	-75.562619	56.904297
34425		9.459845	1.758867	-1.641506	0.040953	0.008000	-0.051791	0.009352	0.006336	-0.012556	-0.854492	-0.064697	0.495850	0.094599	0.017583	-0.016417	-0.004467	-0.753695	-0.134777	-0.643241	133.752327	-75.560355	56.906248
34426		9.461197	1.831479	-1.656812	0.040870	-0.063922	-0.034761	0.002221	0.006741	-0.013013	-0.852539	-0.064453	0.494873	0.094613	0.018309	-0.016571	-0.004474	-0.753699	-0.134797	-0.643232	133.750627	-75.557970	56.909030
34427		9.426887	1.834381	-1.651665	0.041833	-0.072658	-0.068350	0.003016	0.008567	-0.013554	-0.844971	-0.063477	0.502930	0.094269	0.018338	-0.016520	-0.004475	-0.753696	-0.134825	-0.643230	133.745388	-75.556203	56.916466
34428		9.417793	1.767647	-1.694378	-0.013935	-0.017159	-0.081817	-0.006042	0.005059	-0.007982	-0.848389	-0.051758	0.491943	0.094178	0.017672	-0.016947	-0.004499	-0.753708	-0.134799	-0.643221	133.749396	-75.555234	56.908465
34429		9.449474	1.724953	-1.700757	-0.023901	0.029868	-0.057733	-0.004482	0.002266	-0.014349	-0.853027	-0.063477	0.499756	0.094496	0.017242	-0.017009	-0.004529	-0.753724	-0.134811	-0.643199	133.749755	-75.550653	56.906651
34430		9.450305	1.696595	-1.682157	-0.010967	0.060674	-0.065249	-0.000928	0.005877	-0.005562	-0.843018	-0.065918	0.498779	0.094503	0.016963	-0.016824	-0.004525	-0.753736	-0.134793	-0.643190	133.759098	-75.551009	56.896167
34431		9.450265	1.697480	-1.681493	-0.009993	0.059977	-0.065243	0.003015	0.008565	-0.013550	-0.850586	-0.067139	0.496338	0.094503	0.016969	-0.016819	-0.004528	-0.753734	-0.134818	-0.643187	133.754381	-75.549112	56.902697
34432		9.490955	1.722681	-1.644275	0.036766	0.050831	-0.027721	0.003229	0.006125	-0.013989	-0.853271	-0.064209	0.497803	0.094910	0.017220	-0.016445	-0.004535	-0.753739	-0.134845	-0.643175	133.752750	-75.546079	56.906005
34433		9.458962	1.767814	-1.636980	0.048645	0.002380	-0.051824	0.004238	0.005512	-0.014968	-0.852295	-0.058838	0.498291	0.094590	0.017671	-0.016372	-0.004540	-0.753745	-0.134881	-0.643160	133.751048	-75.542455	56.910208
34434		9.426938	1.812959	-1.629768	0.060527	-0.046063	-0.075935	-0.002848	0.003346	-0.013393	-0.848877	-0.062012	0.483398	0.094270	0.018123	-0.016300	-0.004570	-0.753759	-0.134886	-0.643142	133.751312	-75.538568	56.907963
34435		9.451101	1.774023	-1.695381	-0.007232	-0.014068	-0.048235	-0.004026	0.003829	-0.009940	-0.853027	-0.070801	0.493896	0.094512	0.017735	-0.016956	-0.004584	-0.753772	-0.134882	-0.643128	133.755265	-75.536550	56.902606
34436		9.425923	1.794345	-1.760697	-0.070035	-0.049539	-0.057668	-0.003493	0.010661	-0.012073	-0.852539	-0.065186	0.493896	0.094259	0.017937	-0.017612	-0.004607	-0.753764	-0.134880	-0.643138	133.745451	-75.536107	56.910388
34437		9.423572	1.753059	-1.762230	-0.080029	-0.010489	-0.067131	-0.000930	0.005874	-0.005560	-0.852051	-0.059326	0.504883	0.094236	0.017528	-0.017625	-0.004603	-0.753774	-0.134862	-0.643129	133.754187	-75.536547	56.900488
34438		9.489624	1.708419	-1.772742	-0.089955	0.044566	-0.009412	0.000997	0.009783	-0.011585	-0.847412	-0.061523	0.492188	0.094896	0.017079	-0.017732	-0.004608	-0.753769	-0.134873	-0.643133	133.749103	-75.535958	56.906041
34439		9.448675	1.735552	-1.694404	-0.014330	0.022873	-0.057695	0.005895	0.013043	-0.008724	-0.845947	-0.064697	0.491211	0.094486	0.017352	-0.016950	-0.004576	-0.753755	-0.134895	-0.643145	133.746502	-75.537948	56.913044
34440		9.489488	1.760267	-1.656752	0.032455	0.013695	-0.020216	0.002460	0.010740	-0.008157	-0.844727	-0.057861	0.497314	0.094895	0.017599	-0.016572	-0.004564	-0.753749	-0.134898	-0.643151	133.745985	-75.539157	56.914746
34441		9.489491	1.761097	-1.655851	0.033419	0.012976	-0.020218	0.001836	0.009040	-0.010090	-0.847168	-0.066895	0.493408	0.094895	0.017606	-0.016563	-0.004556	-0.753747	-0.134910	-0.643152	133.745133	-75.539003	56.917326
34442		9.452977	1.721463	-1.652786	0.023428	0.044031	-0.063255	-0.002030	0.011614	-0.008644	-0.847412	-0.061279	0.492188	0.094530	0.017210	-0.016534	-0.004562	-0.753738	-0.134900	-0.643164	133.739894	-75.540357	56.921249
34443		9.467266	1.694028	-1.665655	0.007482	0.071315	-0.052149	0.003900	0.005250	-0.010015	-0.846436	-0.056641	0.495850	0.094673	0.016936	-0.016659	-0.004551	-0.753747	-0.134917	-0.643150	133.746001	-75.538730	56.917455
34444		9.437654	1.781009	-1.655623	0.030251	-0.016859	-0.066858	0.003377	0.015255	-0.013198	-0.846436	-0.061768	0.495361	0.094376	0.017804	-0.016563	-0.004549	-0.753724	-0.134942	-0.643172	133.731018	-75.539641	56.934640
34445		9.416804	1.784693	-1.681960	0.002307	-0.029081	-0.081836	-0.002608	0.007346	-0.008543	-0.843750	-0.061035	0.500244	0.094168	0.017843	-0.016823	-0.004551	-0.753727	-0.134937	-0.643169	133.732950	-75.539482	56.932105
34446		9.447261	1.670398	-1.672477	-0.006556	0.089208	-0.074610	-0.002798	0.000771	-0.011356	-0.843994	-0.067139	0.498047	0.094473	0.016698	-0.016725	-0.004576	-0.753751	-0.134934	-0.643141	133.740509	-75.535418	56.922357
34447		9.501237	1.696619	-1.667116	0.011415	0.076483	-0.018541	0.002799	0.010989	-0.013096	-0.849854	-0.066162	0.492676	0.095013	0.016960	-0.016676	-0.004577	-0.753742	-0.134957	-0.643147	133.732692	-75.534638	56.931934
34448		9.471580	1.783647	-1.657050	0.034171	-0.011692	-0.033284	0.006279	0.010725	-0.011628	-0.844482	-0.067383	0.490479	0.094716	0.017831	-0.016575	-0.004562	-0.753734	-0.134985	-0.643151	133.729059	-75.534404	56.939115
34449		9.426267	1.827347	-1.617533	0.074829	-0.056601	-0.076090	0.002628	0.010859	-0.010623	-0.849121	-0.061035	0.501709	0.094263	0.018269	-0.016180	-0.004557	-0.753726	-0.134998	-0.643158	133.724184	-75.534722	56.945448
34450		9.468280	1.772869	-1.675682	0.013174	-0.004835	-0.035208	-0.004286	0.008818	-0.011527	-0.844971	-0.065674	0.500000	0.094683	0.017723	-0.016761	-0.004582	-0.753724	-0.134992	-0.643161	133.717714	-75.533775	56.949307
34451		9.452563	1.730956	-1.645223	0.032094	0.037728	-0.063254	-0.003323	0.010769	-0.014536	-0.845215	-0.061279	0.499023	0.094526	0.017302	-0.016458	-0.004610	-0.753714	-0.135001	-0.643171	133.704615	-75.532332	56.960951
34452		9.428441	1.721863	-1.692329	-0.018764	0.033802	-0.080123	0.001881	0.006468	-0.008050	-0.838867	-0.067383	0.498779	0.094285	0.017215	-0.016926	-0.004603	-0.753722	-0.135002	-0.643161	133.710787	-75.531894	56.955404
34453		9.459391	1.708218	-1.716595	-0.040604	0.049326	-0.048431	0.000032	0.007816	-0.008564	-0.832520	-0.069336	0.499756	0.094594	0.017078	-0.017170	-0.004603	-0.753726	-0.134998	-0.643157	133.713471	-75.531718	56.952420
34454		9.452466	1.733827	-1.642756	0.035004	0.035642	-0.063256	-0.002702	0.012465	-0.012601	-0.841553	-0.070801	0.509521	0.094525	0.017332	-0.016434	-0.004623	-0.753712	-0.135001	-0.643173	133.700409	-75.531769	56.964025
34455		9.430510	1.695735	-1.933852	-0.257738	0.019504	-0.041146	0.012477	-0.000636	-0.011400	-0.827393	-0.067627	0.504883	0.094306	0.016953	-0.019337	-0.004601	-0.753744	-0.135039	-0.643127	133.719630	-75.526815	56.949849
34456		8.857826	2.305352	-2.400123	-0.665020	-0.763815	-0.404678	0.024851	-0.041338	-0.040652	-0.832764	-0.077148	0.501953	0.088588	0.023038	-0.023980	-0.004644	-0.753885	-0.135235	-0.642921	133.765550	-75.493942	56.916839
34457		8.864605	2.103907	-2.801911	-1.088041	-0.631351	-0.364095	-0.007378	-0.077198	-0.038178	-0.831055	-0.073730	0.504639	0.088661	0.021021	-0.027986	-0.004836	-0.754145	-0.135306	-0.642600	133.854345	-75.447510	56.818689
34458		9.181999	1.944088	-2.698487	-0.968621	-0.387899	-0.102810	-0.006025	-0.076238	-0.057913	-0.830566	-0.066650	0.510254	0.091836	0.019413	-0.026950	-0.005075	-0.754385	-0.135467	-0.642282	133.911113	-75.393628	56.756177
34459		9.024855	2.495536	-2.470599	-0.653017	-0.908207	-0.193525	0.016727	-0.071353	-0.057145	-0.824707	-0.079834	0.506348	0.090264	0.024932	-0.024672	-0.005226	-0.754612	-0.135694	-0.641966	133.974519	-75.341815	56.699638
34460		9.412285	2.203198	-2.323830	-0.508283	-0.514659	0.103065	-0.018413	-0.063969	-0.047700	-0.826904	-0.079102	0.518799	0.094136	0.022007	-0.023210	-0.005470	-0.754819	-0.135777	-0.641704	134.019557	-75.296994	56.641886
34461		9.491679	1.902877	-2.005645	-0.242885	-0.150943	0.069304	-0.013373	-0.045097	-0.038789	-0.824707	-0.074951	0.503906	0.094925	0.019009	-0.020036	-0.005657	-0.754972	-0.135839	-0.641509	134.051247	-75.263294	56.600350
34462		9.600684	1.695780	-1.633479	0.096188	0.136413	0.071097	0.009028	-0.024911	-0.024619	-0.818848	-0.080566	0.512207	0.096011	0.016947	-0.016322	-0.005697	-0.755069	-0.135924	-0.641375	134.085391	-75.243521	56.570105
34463		9.485587	1.995373	-1.542890	0.230879	-0.159460	-0.001487	0.016031	-0.034457	-0.024930	-0.821533	-0.076172	0.515137	0.094861	0.019943	-0.015411	-0.005719	-0.755198	-0.136031	-0.641201	134.137934	-75.219828	56.524863
34464		9.429445	1.951263	-1.421168	0.336255	-0.106331	-0.085550	-0.015708	-0.037688	-0.026591	-0.825439	-0.090820	0.515869	0.094300	0.019499	-0.014195	-0.005868	-0.755334	-0.136043	-0.641036	134.174603	-75.194133	56.477341
34465		9.507294	1.637496	-1.645983	0.071017	0.178234	-0.027878	-0.027296	-0.045492	-0.030745	-0.816406	-0.086426	0.514893	0.095079	0.016358	-0.016440	-0.006081	-0.755493	-0.136032	-0.640850	134.210350	-75.163621	56.423537
34466		9.286978	1.800053	-1.773142	-0.046450	-0.042555	-0.188333	-0.005312	-0.057887	-0.037996	-0.812988	-0.090820	0.517334	0.092878	0.017982	-0.017705	-0.006240	-0.755687	-0.136120	-0.640601	134.266706	-75.125153	56.361796
34467		9.378680	1.782516	-1.983783	-0.235305	-0.036350	-0.065088	-0.013253	-0.065840	-0.043143	-0.818115	-0.081055	0.516602	0.093797	0.017804	-0.019808	-0.006455	-0.755903	-0.136198	-0.640328	134.322728	-75.081386	56.295078
34468		9.413681	1.848679	-2.121623	-0.344798	-0.110589	0.005926	0.007643	-0.059542	-0.042957	-0.810547	-0.088623	0.529053	0.094147	0.018467	-0.021187	-0.006583	-0.756099	-0.136347	-0.640063	134.380964	-75.040192	56.239048
34469		9.265330	2.042489	-2.105944	-0.306800	-0.321793	-0.104164	0.010322	-0.053827	-0.049505	-0.818359	-0.083008	0.523438	0.092664	0.020403	-0.021033	-0.006720	-0.756272	-0.136525	-0.639819	134.421927	-74.998604	56.201994
34470		9.373965	1.715424	-2.095998	-0.340847	0.022675	-0.061256	0.000063	-0.054324	-0.042490	-0.811523	-0.094238	0.522217	0.093749	0.017134	-0.020935	-0.006871	-0.756451	-0.136648	-0.639579	134.468009	-74.959670	56.154031
34471		9.289463	1.627986	-1.914125	-0.188778	0.122652	-0.191999	0.020956	-0.048003	-0.042329	-0.811279	-0.096191	0.523926	0.092903	0.016262	-0.019117	-0.006942	-0.756611	-0.136833	-0.639350	134.516498	-74.923331	56.115380
34472		9.312808	1.276061	-1.380207	0.267700	0.558595	-0.332286	0.023892	-0.053790	-0.052533	-0.816650	-0.080566	0.525146	0.093135	0.012738	-0.013775	-0.007034	-0.756782	-0.137069	-0.639095	134.559980	-74.880490	56.084234
34473		9.824446	0.572583	-1.257437	0.327518	1.372943	0.007521	0.053029	-0.069069	-0.082909	-0.814209	-0.089844	0.525635	0.098251	0.005688	-0.012539	-0.007128	-0.756983	-0.137510	-0.638762	134.597901	-74.819109	56.075564
34474		10.313181	1.303898	-1.449775	0.365536	0.753682	0.649723	0.144265	-0.070908	-0.124495	-0.805176	-0.085449	0.531006	0.103145	0.012985	-0.014452	-0.007007	-0.757163	-0.138402	-0.638357	134.629121	-74.740019	56.128583
34475		9.946745	2.261813	-1.443768	0.518002	-0.235677	0.473912	0.084602	-0.068629	-0.102237	-0.803467	-0.087158	0.527344	0.099484	0.022573	-0.014394	-0.007042	-0.757349	-0.139016	-0.638003	134.655718	-74.670953	56.150383
34476		9.591821	1.584040	-1.544244	0.239603	0.330493	0.022467	0.052936	-0.073310	-0.089939	-0.802246	-0.096191	0.528320	0.095931	0.015801	-0.015403	-0.007158	-0.757556	-0.139487	-0.637653	134.689038	-74.604989	56.146993
34477		9.544323	1.431859	-1.707201	0.052454	0.447601	-0.022093	0.155902	-0.079026	-0.102969	-0.808594	-0.089355	0.521729	0.095457	0.014283	-0.017023	-0.006934	-0.757777	-0.140329	-0.637208	134.770538	-74.531444	56.154063
34478		9.151204	1.410426	-2.248948	-0.524759	0.297625	-0.303343	0.228618	-0.075458	-0.115372	-0.803955	-0.093262	0.524414	0.091529	0.014077	-0.022439	-0.006467	-0.757978	-0.141455	-0.636725	134.869997	-74.454274	56.186495
34479		9.048469	1.757679	-2.549569	-0.748757	-0.103522	-0.278897	0.285590	-0.059267	-0.121501	-0.807617	-0.091309	0.531494	0.090503	0.017558	-0.025444	-0.005795	-0.758124	-0.142782	-0.636261	134.969408	-74.381217	56.252235
34480		9.270764	1.629332	-2.658541	-0.837092	0.055575	-0.067647	0.291918	-0.055382	-0.114956	-0.796143	-0.081543	0.532471	0.092724	0.016279	-0.026536	-0.005073	-0.758260	-0.144108	-0.635806	135.076055	-74.312383	56.314889
34481		9.153434	2.156020	-2.608396	-0.683175	-0.462395	-0.088647	0.329780	-0.049743	-0.116041	-0.802490	-0.080811	0.537598	0.091553	0.021550	-0.026026	-0.004209	-0.758377	-0.145554	-0.635343	135.194651	-74.245461	56.387083
34482		9.241578	2.983834	-2.527186	-0.400262	-1.216278	0.140058	0.291937	-0.045764	-0.101808	-0.802490	-0.094727	0.530518	0.092437	0.029828	-0.025207	-0.003438	-0.758488	-0.146830	-0.634922	135.306071	-74.185912	56.444829
34483		9.148248	2.715034	-2.375272	-0.314798	-0.948816	-0.029824	0.213686	-0.037499	-0.073911	-0.797852	-0.083008	0.539063	0.091497	0.027142	-0.023707	-0.002873	-0.758591	-0.147746	-0.634588	135.400945	-74.140997	56.472488
34484		9.028600	2.349386	-2.270524	-0.302999	-0.604877	-0.234962	0.183059	-0.043838	-0.046365	-0.798828	-0.085938	0.536621	0.090296	0.023494	-0.022664	-0.002337	-0.758733	-0.148466	-0.634253	135.526434	-74.104575	56.450777
34485		8.883858	2.379560	-2.186323	-0.228255	-0.650136	-0.384513	0.178405	-0.036602	-0.039147	-0.797363	-0.076660	0.531982	0.088847	0.023798	-0.021826	-0.001795	-0.758857	-0.149139	-0.633948	135.649223	-74.073983	56.428418
34486		8.834488	2.319594	-2.027966	-0.088166	-0.573692	-0.474355	0.143415	-0.049892	-0.031481	-0.796143	-0.082031	0.541992	0.088354	0.023197	-0.020241	-0.001367	-0.759027	-0.149676	-0.633619	135.781199	-74.041005	56.376331
34487		8.944458	2.041186	-1.809208	0.085020	-0.240410	-0.465069	0.121601	-0.060756	-0.023997	-0.792725	-0.081055	0.540283	0.089453	0.020412	-0.018053	-0.001009	-0.759238	-0.150112	-0.633264	135.926271	-74.006494	56.297096
34488		9.106807	1.878033	-1.736083	0.152852	-0.032307	-0.354859	0.112509	-0.082683	-0.019537	-0.798828	-0.082520	0.537598	0.091077	0.018781	-0.017313	-0.000685	-0.759520	-0.150505	-0.632832	136.102316	-73.964677	56.180718
34489		9.221030	1.858362	-1.663508	0.247091	0.028814	-0.263537	0.121382	-0.101894	-0.035839	-0.801514	-0.088379	0.545410	0.092222	0.018577	-0.016577	-0.000398	-0.759851	-0.150984	-0.632321	136.285754	-73.908326	56.061251
34490		9.514406	1.578115	-1.506135	0.392628	0.397922	-0.067417	0.125698	-0.122879	-0.048080	-0.800049	-0.077148	0.544434	0.095157	0.015768	-0.014993	-0.000144	-0.760238	-0.151528	-0.631726	136.481599	-73.838348	55.932063
34491		9.468237	1.536053	-1.334299	0.555666	0.466025	-0.155495	0.164469	-0.140296	-0.061068	-0.788818	-0.083740	0.541016	0.094696	0.015343	-0.013264	0.000198	-0.760670	-0.152238	-0.631034	136.703218	-73.755857	55.798400
34492		9.468530	1.690832	-1.126417	0.808230	0.366215	-0.169378	0.183923	-0.167066	-0.080318	-0.795166	-0.077393	0.548340	0.094701	0.016881	-0.011170	0.000538	-0.761170	-0.153087	-0.630226	136.942416	-73.654505	55.658691
34493		9.595745	1.720230	-1.095535	0.884659	0.383935	-0.050125	0.187434	-0.196836	-0.096801	-0.791260	-0.083008	0.544922	0.095976	0.017166	-0.010845	0.000812	-0.761750	-0.154006	-0.629300	137.197195	-73.534059	55.504045
34494		9.603349	1.527006	-0.893489	1.056251	0.622188	-0.124987	0.191816	-0.231536	-0.121264	-0.791260	-0.083740	0.547363	0.096053	0.015220	-0.008809	0.001003	-0.762418	-0.155035	-0.628237	137.462029	-73.389303	55.342138
34495		9.603078	1.255165	-0.846084	1.061741	0.906707	-0.191829	0.202556	-0.272796	-0.154088	-0.794678	-0.072510	0.549561	0.096052	0.012486	-0.008317	0.001095	-0.763189	-0.156218	-0.627006	137.736015	-73.214205	55.176153
34496		9.604969	1.267439	-0.726767	1.207091	0.939342	-0.218393	0.226643	-0.317074	-0.182702	-0.784912	-0.086426	0.556641	0.096073	0.012595	-0.007101	0.001160	-0.764072	-0.157591	-0.625586	138.035011	-73.009046	54.999099
34497		9.756951	1.238273	-0.758357	1.227166	1.021277	-0.078345	0.221534	-0.364339	-0.210216	-0.778076	-0.080811	0.549805	0.097596	0.012288	-0.007392	0.001078	-0.765078	-0.159047	-0.623986	138.345675	-72.772965	54.805882
34498		9.714682	1.571756	-1.162575	0.951750	0.640760	0.030100	0.238742	-0.397838	-0.229144	-0.778564	-0.083740	0.564453	0.097188	0.015620	-0.011414	0.000980	-0.766168	-0.160634	-0.622240	138.673911	-72.514967	54.605012
34499		9.752853	1.691680	-1.557405	0.651418	0.486366	0.174520	0.236919	-0.427371	-0.248909	-0.774902	-0.084229	0.564209	0.097582	0.016814	-0.015346	0.000785	-0.767329	-0.162284	-0.620379	139.001518	-72.236501	54.402576
34500		9.800573	1.628105	-1.857396	0.400271	0.529322	0.272511	0.240352	-0.437478	-0.267808	-0.767334	-0.085449	0.562256	0.098068	0.016172	-0.018340	0.000541	-0.768499	-0.164021	-0.618471	139.309473	-71.946175	54.223372
34501		9.600094	1.864292	-1.991578	0.338866	0.260551	0.158311	0.285119	-0.437775	-0.277477	-0.773193	-0.086182	0.583252	0.096070	0.018538	-0.019679	0.000434	-0.769657	-0.165926	-0.616520	139.622834	-71.651900	54.064272
34502		9.922890	1.924409	-1.644733	0.786068	0.390600	0.390328	0.308082	-0.425021	-0.285293	-0.772705	-0.082764	0.574951	0.099291	0.019128	-0.016207	0.000407	-0.770760	-0.167937	-0.614594	139.917851	-71.359978	53.939026
34503		10.061270	2.046917	-1.733875	0.804006	0.329842	0.563719	0.257702	-0.469428	-0.325538	-0.764404	-0.083496	0.582031	0.100686	0.020327	-0.017076	0.000020	-0.771961	-0.169941	-0.612533	140.173790	-71.033645	53.823454
34504		10.068409	1.451801	-1.918931	0.520748	0.892615	0.487539	0.197651	-0.492939	-0.278338	-0.763916	-0.086182	0.585693	0.100751	0.014397	-0.018927	-0.000470	-0.773265	-0.171583	-0.610426	140.473667	-70.713946	53.625624
34505		10.130294	0.748478	-1.482847	0.805166	1.699595	0.279126	0.213641	-0.515186	-0.297102	-0.753174	-0.081543	0.594482	0.101352	0.007350	-0.014560	-0.000978	-0.774615	-0.173339	-0.608215	140.773859	-70.377343	53.435932
34506		10.456462	0.629539	-1.098294	1.249854	2.023754	0.448016	0.217397	-0.575291	-0.375533	-0.749268	-0.086670	0.591553	0.104607	0.006111	-0.010675	-0.001758	-0.776069	-0.175413	-0.605759	141.031669	-69.985267	53.293997
34507		10.932993	0.339658	-0.618974	1.773683	2.580007	0.686164	0.211088	-0.636768	-0.413229	-0.734131	-0.090088	0.606689	0.109356	0.003177	-0.005838	-0.002735	-0.777667	-0.177606	-0.603062	141.292337	-69.552143	53.143940
34508		11.546310	-0.507542	-0.464391	1.874872	3.638389	1.005665	0.243611	-0.693753	-0.460806	-0.739014	-0.095703	0.610107	0.115466	-0.005336	-0.004250	-0.003775	-0.779380	-0.180083	-0.600103	141.560509	-69.076116	53.006188
34509		12.147388	-0.914512	-0.172011	2.229042	4.323859	1.356893	0.327037	-0.762343	-0.553440	-0.742432	-0.087158	0.610596	0.121453	-0.009479	-0.001272	-0.004836	-0.781201	-0.183158	-0.596787	141.822804	-68.536337	52.924275
34510		12.622581	-1.108510	-0.010754	2.498310	4.765322	1.659330	0.392304	-0.836560	-0.660925	-0.721924	-0.088623	0.612793	0.126187	-0.011503	0.000398	-0.006024	-0.783123	-0.186850	-0.593101	142.058686	-67.924783	52.912015
34511		13.007225	-1.392093	0.306612	2.872447	5.316159	1.793579	0.463185	-0.917219	-0.765159	-0.719971	-0.094238	0.622314	0.130002	-0.014426	0.003629	-0.007322	-0.785161	-0.191143	-0.589010	142.283256	-67.240399	52.955069
34512		13.518519	-1.833223	0.123994	2.771638	5.965825	2.139333	0.514545	-1.024959	-0.872072	-0.708252	-0.107422	0.629639	0.135095	-0.018926	0.001884	-0.008833	-0.787379	-0.196002	-0.584413	142.506963	-66.469489	53.032098
34513		14.033496	-1.982257	0.345760	3.139912	6.456844	2.411657	0.615002	-1.114356	-0.986386	-0.702393	-0.096436	0.646973	0.140213	-0.020526	0.004177	-0.010374	-0.789706	-0.201578	-0.579330	142.736952	-65.618660	53.164398
34514		14.635162	-1.992927	0.313082	3.345722	6.823555	2.856108	0.674429	-1.215210	-1.120049	-0.685303	-0.111328	0.646729	0.146215	-0.020761	0.003950	-0.012164	-0.792135	-0.207845	-0.573737	142.942512	-64.675312	53.363411
34515		14.999660	-1.801528	0.011787	3.321762	6.897198	3.211303	0.694101	-1.293965	-1.242165	-0.685059	-0.111084	0.660400	0.149876	-0.018949	0.001023	-0.014312	-0.794598	-0.214616	-0.567758	143.101696	-63.654655	53.626578
34516		15.018801	-1.159166	-0.261027	3.391546	6.470830	3.362877	0.739878	-1.337046	-1.351628	-0.668701	-0.117188	0.667480	0.150118	-0.012599	-0.001652	-0.016629	-0.796990	-0.221941	-0.561492	143.222975	-62.576370	53.965576
34517		14.730100	-0.124011	-1.070316	3.043007	5.477108	3.561585	0.666789	-1.399106	-1.446314	-0.658691	-0.110107	0.676270	0.147357	-0.002272	-0.009679	-0.019575	-0.799360	-0.229393	-0.554995	143.271719	-61.438046	54.340883
34518		13.865456	0.841308	-2.223389	2.222255	4.259371	3.409056	0.604647	-1.405071	-1.565295	-0.650635	-0.127197	0.698242	0.138867	0.007392	-0.021235	-0.023099	-0.801510	-0.237137	-0.548466	143.206460	-60.255471	54.811965
34519		12.709244	1.631287	-3.135994	1.481514	3.120366	2.918495	0.692862	-1.372579	-1.563185	-0.630615	-0.132813	0.696045	0.127426	0.015424	-0.030432	-0.026227	-0.803489	-0.245073	-0.541901	143.194943	-59.089164	55.283069
34520		11.490896	2.792306	-3.696190	1.178068	1.676889	2.405933	0.859152	-1.293432	-1.566815	-0.619385	-0.119873	0.701904	0.115359	0.027177	-0.036099	-0.028592	-0.805173	-0.253471	-0.535380	143.248976	-57.957232	55.796571
34521		10.198935	5.233957	-4.629294	1.027559	-1.014985	2.465405	0.803894	-1.194818	-1.637947	-0.603760	-0.138184	0.713135	0.102688	0.051684	-0.045472	-0.031246	-0.806400	-0.261975	-0.529256	143.186272	-56.846963	56.415496
34522		7.947624	6.899542	-5.415803	0.443730	-3.461872	1.497215	0.702332	-1.010549	-1.486304	-0.591553	-0.133301	0.719482	0.080258	0.068590	-0.053512	-0.033659	-0.807235	-0.269617	-0.523972	143.097189	-55.872008	57.005508
34523		6.031382	7.866514	-6.130375	-0.254228	-5.201806	0.613960	0.505520	-0.861742	-1.225859	-0.574951	-0.136963	0.725830	0.061058	0.078447	-0.060843	-0.035986	-0.807938	-0.275677	-0.519560	143.012579	-55.055193	57.457310
34524		4.106204	8.328719	-6.804021	-1.142121	-6.565074	-0.425635	0.340980	-0.704620	-1.024145	-0.568848	-0.141846	0.729736	0.041727	0.083190	-0.067752	-0.038230	-0.808437	-0.280528	-0.516016	142.899664	-54.378620	57.834617
34525		2.341412	8.278453	-7.277370	-2.045145	-7.420438	-1.582957	0.194040	-0.569401	-0.851589	-0.572021	-0.141602	0.738037	0.023973	0.082754	-0.072626	-0.040438	-0.808776	-0.284301	-0.513243	142.755623	-53.823725	58.147264
34526		1.154775	8.010054	-6.674666	-1.963747	-7.600123	-2.853743	0.155285	-0.374791	-0.692550	-0.564453	-0.149658	0.733887	0.011950	0.080111	-0.066662	-0.042111	-0.808814	-0.287382	-0.511330	142.602522	-53.411580	58.447597
34527		1.156351	6.685194	-5.351216	-1.362506	-6.169943	-3.918645	0.219481	0.000779	-0.519932	-0.565186	-0.150635	0.745850	0.011737	0.066880	-0.053439	-0.042547	-0.808146	-0.289992	-0.510877	142.419776	-53.230413	58.830357
34528		3.350051	4.693424	-4.354196	-0.669705	-3.158579	-3.348558	0.161513	0.256947	-0.356726	-0.562012	-0.147949	0.737061	0.033528	0.046910	-0.043547	-0.042424	-0.807040	-0.291860	-0.511571	142.184865	-53.221165	59.238809
34529		4.315100	2.555800	-3.640539	-0.695239	-0.732857	-3.698342	0.030959	0.546727	-0.176941	-0.555176	-0.149414	0.736328	0.043074	0.025526	-0.036519	-0.041950	-0.805424	-0.292716	-0.513663	141.845745	-53.405422	59.681880
34530		3.275919	1.542486	-3.740913	-1.554749	-0.471137	-4.866376	0.146363	0.822519	-0.055475	-0.568848	-0.144043	0.730713	0.032609	0.015443	-0.037532	-0.040290	-0.803290	-0.293445	-0.516712	141.509242	-53.754769	60.203921
34531		2.421394	2.749576	-2.958494	-0.644228	-1.741979	-5.485288	0.216378	1.041162	-0.076327	-0.585205	-0.154541	0.727783	0.024070	0.027519	-0.029681	-0.038087	-0.800559	-0.294464	-0.520524	141.082784	-54.192780	60.882554
34532		2.779194	4.325649	-2.691245	0.341827	-2.817162	-4.750615	0.212284	1.221337	0.000862	-0.590088	-0.146729	0.725830	0.027627	0.043285	-0.027036	-0.035427	-0.797443	-0.295201	-0.525058	140.596092	-54.735127	61.629754
34533		3.603803	5.049828	-2.754391	0.787015	-3.047230	-3.798588	-0.006950	1.408878	0.232736	-0.602051	-0.152832	0.715088	0.035784	0.050539	-0.027798	-0.032760	-0.794105	-0.294446	-0.530684	140.010134	-55.441315	62.337503
34534		3.887485	5.007479	-2.805725	0.733403	-2.936387	-3.575831	-0.267315	1.590341	0.430021	-0.608398	-0.148438	0.705322	0.038542	0.050120	-0.028432	-0.030328	-0.790484	-0.292240	-0.537411	139.273872	-56.294808	63.041581
34535		3.991545	4.705692	-2.781507	0.565267	-2.695610	-3.629994	-0.463641	1.750291	0.619029	-0.624756	-0.142334	0.687012	0.039524	0.047114	-0.028271	-0.027935	-0.786618	-0.288749	-0.545046	138.418416	-57.283338	63.744420
34536		4.301248	4.245673	-2.794696	0.333113	-2.248019	-3.554047	-0.591190	1.911257	0.869662	-0.642334	-0.139648	0.680176	0.042557	0.042559	-0.028481	-0.025119	-0.782573	-0.283929	-0.553473	137.513004	-58.430144	64.413309
34537		4.523951	3.519968	-2.940417	-0.156339	-1.672182	-3.593387	-0.675285	2.056556	1.097791	-0.660156	-0.144531	0.666992	0.044739	0.035346	-0.029985	-0.021797	-0.778336	-0.277955	-0.562546	136.565300	-59.721352	65.065332
34538		4.855436	3.137487	-3.092516	-0.493644	-1.349612	-3.416190	-0.734934	2.174828	1.233088	-0.672852	-0.136230	0.653076	0.048019	0.031557	-0.031565	-0.018152	-0.773824	-0.271265	-0.572085	135.529184	-61.108847	65.772165
34539		5.226365	3.304469	-3.562422	-0.902879	-1.585393	-2.913892	-0.785889	2.269763	1.369665	-0.697754	-0.139404	0.633545	0.051627	0.033258	-0.036343	-0.014189	-0.769083	-0.263850	-0.581973	134.408617	-62.583595	66.530487
34540		5.441541	3.792657	-3.888612	-1.111967	-2.149543	-2.515105	-0.869944	2.342362	1.534778	-0.712402	-0.132080	0.611084	0.053661	0.038169	-0.039683	-0.009964	-0.764185	-0.255518	-0.592142	133.206850	-64.147594	67.316880
34541		5.608669	4.256023	-4.130431	-1.287390	-2.713950	-2.223012	-0.948833	2.399342	1.715913	-0.735596	-0.128418	0.598389	0.055217	0.042838	-0.042173	-0.005435	-0.759174	-0.246196	-0.602506	131.933715	-65.802340	68.120099
34542		5.639580	4.477548	-4.387661	-1.605606	-3.143941	-2.155242	-1.012650	2.401099	1.895628	-0.753174	-0.124023	0.579590	0.055436	0.045079	-0.044774	-0.000598	-0.754186	-0.235947	-0.612807	130.634672	-67.526869	68.902528
34543		6.139724	4.550507	-4.387325	-1.684315	-3.215444	-1.783417	-1.050915	2.357266	2.019115	-0.765625	-0.112061	0.555176	0.060411	0.045884	-0.044830	0.004415	-0.749280	-0.225044	-0.622829	129.312394	-69.282067	69.675124
34544		7.100760	4.013404	-4.133209	-1.688797	-2.544678	-1.194275	-1.031393	2.289739	2.137081	-0.794189	-0.106445	0.538818	0.070094	0.040670	-0.042347	0.009799	-0.744512	-0.213709	-0.632403	128.021945	-71.058794	70.418278
34545		8.142209	3.084921	-3.774491	-1.714527	-1.505136	-0.601452	-0.939335	2.189074	2.202942	-0.806885	-0.094482	0.522461	0.080656	0.031560	-0.038778	0.015615	-0.739931	-0.202360	-0.641334	126.800849	-72.824552	71.134767
34546		9.095475	2.956791	-3.614988	-1.674869	-1.315575	0.187069	-0.838731	2.037010	2.104088	-0.816406	-0.083984	0.511963	0.090263	0.030365	-0.037198	0.021337	-0.735545	-0.191669	-0.649447	125.558603	-74.487931	71.928118
34547		9.585167	4.101327	-3.435718	-1.271428	-2.439952	0.813849	-0.816275	1.851759	1.882909	-0.829834	-0.061279	0.489258	0.095136	0.041768	-0.035410	0.026232	-0.731391	-0.181835	-0.656745	124.152539	-75.981059	72.896576
34548		9.571757	4.937550	-3.396884	-1.146050	-3.437647	0.883071	-0.913410	1.636382	1.757456	-0.840088	-0.057373	0.480225	0.094996	0.050054	-0.034976	0.030168	-0.727712	-0.172145	-0.663242	122.697850	-77.339595	73.853361
34549		9.634290	4.226186	-3.191745	-1.302739	-2.907411	0.709288	-0.987689	1.426578	1.707051	-0.844971	-0.047607	0.463623	0.095747	0.042920	-0.032813	0.033475	-0.724583	-0.162391	-0.668945	121.344941	-78.604012	74.656522
34550		9.279150	3.023217	-3.478410	-2.055582	-2.093914	0.123536	-0.978990	1.183898	1.595068	-0.861572	-0.035645	0.458496	0.092339	0.030797	-0.035481	0.036244	-0.722075	-0.153096	-0.673688	120.218788	-79.738276	75.231669
34551		8.482955	2.292747	-3.690487	-2.584564	-1.730884	-0.803849	-0.854397	0.964449	1.361562	-0.862305	-0.032959	0.447510	0.084492	0.023344	-0.037412	0.038497	-0.720028	-0.145082	-0.677516	119.228183	-80.691692	75.738655
34552		8.012527	2.333010	-3.647770	-2.620729	-1.930388	-1.306561	-0.698842	0.750570	0.991770	-0.863770	-0.022461	0.437012	0.079871	0.023598	-0.036860	0.039907	-0.718358	-0.138963	-0.680484	118.210819	-81.398887	76.362922
34553		7.564104	3.226329	-3.729293	-2.545525	-2.932906	-1.660978	-0.606115	0.540991	0.616237	-0.870361	-0.029297	0.431396	0.075440	0.032382	-0.037595	0.040217	-0.717094	-0.134539	-0.682685	117.158275	-81.857705	77.074322
34554		7.673992	3.375480	-2.278554	-1.147951	-2.748051	-1.651438	-0.467253	0.417323	0.351579	-0.872803	-0.020508	0.429443	0.076633	0.033836	-0.023025	0.040046	-0.716031	-0.131566	-0.684388	116.059453	-82.147368	77.913302
34555		9.221380	4.485788	-2.229382	-0.821926	-3.598887	0.010682	-0.712884	-0.095791	-0.199577	-0.872559	-0.039307	0.430908	0.092269	0.044686	-0.022409	0.036762	-0.716402	-0.129821	-0.684517	115.694705	-82.022812	77.867632
34556		14.003190	0.919917	3.543066	4.073693	1.831101	3.954700	-1.372272	-0.189146	-0.346201	-0.876221	-0.041260	0.422607	0.140014	0.009200	0.035500	0.030562	-0.717095	-0.126362	-0.684743	115.046835	-81.799752	77.727571
34557		25.374020	-17.674237	2.441402	-0.565834	21.146093	12.873987	-1.933902	-0.413604	0.183572	-0.869141	-0.044678	0.427246	0.253849	-0.176259	0.026645	0.024007	-0.718924	-0.119100	-0.684389	115.782243	-81.795363	75.863310
34558		16.595652	-8.404103	-0.115066	-1.183002	10.450234	5.531671	-0.865594	-0.400089	-0.084184	-0.868652	-0.045410	0.428223	0.165922	-0.084114	-0.000455	0.020393	-0.720374	-0.116454	-0.683436	116.600743	-81.653399	74.534747
34559		8.617061	0.073705	-1.943067	-1.527653	0.772469	-1.146433	-1.152010	-0.670298	0.289384	-0.865967	-0.055664	0.432129	0.086234	0.000751	-0.019146	0.016860	-0.722969	-0.111499	-0.681616	118.824701	-81.623960	71.618380
34560		8.313397	-0.750769	-3.169451	-2.836117	1.335212	-1.452373	-1.201398	-0.690292	0.311057	-0.856445	-0.054688	0.439453	0.083254	-0.007567	-0.031362	0.013217	-0.725613	-0.106302	-0.679714	121.107957	-81.582841	68.614302
34561		9.217045	-1.973230	-3.716661	-3.463290	2.615206	-0.657013	-1.041348	-0.766755	-0.254302	-0.856201	-0.058105	0.444824	0.092286	-0.020042	-0.036709	0.008184	-0.728172	-0.103691	-0.677457	122.519264	-81.229267	66.581993
34562		8.389306	1.592610	-3.043183	-2.212758	-0.800109	-1.058234	-0.617476	-0.692370	-0.799015	-0.850586	-0.077148	0.445313	0.084060	0.015497	-0.030189	0.002895	-0.730149	-0.104500	-0.675244	122.755387	-80.631520	65.984333
34563		8.467701	6.274836	-3.195511	-1.595077	-5.286023	-0.283836	-0.457029	-0.716174	-0.993146	-0.844482	-0.082275	0.458008	0.085101	0.062254	-0.031794	-0.002483	-0.732074	-0.106548	-0.672837	122.751924	-79.932722	65.720631
34564		9.363993	5.484623	-2.021868	-0.480937	-4.109354	0.421308	-0.813414	-0.596071	-0.624596	-0.833984	-0.089844	0.447754	0.093871	0.054471	-0.020161	-0.007855	-0.733758	-0.106053	-0.671037	122.837094	-79.448613	65.160079
34565		10.052149	0.030521	-2.457523	-1.622764	1.341341	0.319101	-0.730237	-0.521739	-0.182450	-0.849609	-0.089844	0.467285	0.100585	0.000124	-0.024314	-0.011405	-0.735411	-0.104208	-0.669464	123.480052	-79.199207	64.078583
34566		10.337426	1.361318	-3.457715	-2.357005	0.021595	0.916472	-0.253943	-0.511874	-0.509326	-0.828369	-0.093018	0.459961	0.103496	0.013306	-0.034329	-0.014286	-0.736873	-0.105165	-0.667649	123.795136	-78.795384	63.609090
34567		9.781828	3.947345	-3.729297	-2.283968	-2.563028	0.835651	-0.245814	-0.472498	-0.579054	-0.830811	-0.097412	0.465576	0.098020	0.039144	-0.037110	-0.017354	-0.738157	-0.106401	-0.665959	123.887840	-78.370606	63.369657
34568		9.776815	4.447991	-3.857872	-2.319629	-2.995489	0.952990	-0.437593	-0.421645	-0.468943	-0.828613	-0.114990	0.459961	0.097953	0.044166	-0.038469	-0.020731	-0.739302	-0.106601	-0.664559	123.913076	-78.014418	63.087445
34569		9.858009	3.523155	-3.838440	-2.396741	-2.015738	0.888658	-0.534008	-0.373594	-0.246546	-0.824951	-0.119141	0.467529	0.098695	0.035008	-0.038294	-0.023705	-0.740388	-0.105657	-0.663401	124.099196	-77.779050	62.582955
34570		9.573603	3.262157	-3.725589	-2.330425	-1.758491	0.562873	-0.478144	-0.340150	-0.179861	-0.823486	-0.116943	0.476563	0.095829	0.032446	-0.037171	-0.026227	-0.741395	-0.104659	-0.662339	124.330163	-77.585772	62.065846
34571		9.455340	3.006504	-3.550553	-2.187225	-1.475925	0.389592	-0.432142	-0.270268	-0.199977	-0.825439	-0.130859	0.470215	0.094631	0.029894	-0.035442	-0.028616	-0.742161	-0.103890	-0.661502	124.399350	-77.405125	61.740008
34572		9.536543	2.468799	-3.195539	-1.880566	-0.868760	0.334269	-0.321272	-0.194533	-0.172408	-0.829102	-0.124512	0.471436	0.095418	0.024554	-0.031902	-0.030455	-0.742701	-0.103403	-0.660890	124.407445	-77.262150	61.542755
34573		9.492030	3.104404	-3.073644	-1.684213	-1.460245	0.395853	-0.196446	-0.152922	-0.186170	-0.823975	-0.128662	0.470215	0.094973	0.030925	-0.030694	-0.031862	-0.743115	-0.103378	-0.660362	124.379239	-77.125931	61.454888
34574		9.254206	3.507406	-2.892965	-1.480730	-1.864321	0.219421	-0.190330	-0.104825	-0.094509	-0.817383	-0.128174	0.474609	0.092574	0.035003	-0.028914	-0.032911	-0.743415	-0.103047	-0.660025	124.383712	-77.048833	61.338129
34575		9.211438	2.634357	-2.385248	-1.078021	-0.964728	-0.046061	-0.211725	-0.056993	-0.033174	-0.826416	-0.131836	0.481445	0.092126	0.026303	-0.023854	-0.033820	-0.743586	-0.102420	-0.659884	124.363853	-77.015966	61.232789
34576		9.702729	1.194780	-1.926760	-0.726106	0.582947	0.107787	-0.173094	-0.032128	-0.015920	-0.825195	-0.139404	0.472900	0.097031	0.011923	-0.019262	-0.034508	-0.743688	-0.101865	-0.659819	124.338736	-76.999560	61.156494
34577		9.804334	0.546275	-1.692584	-0.550123	1.260190	0.056330	-0.042557	-0.025685	-0.041246	-0.820068	-0.134277	0.470459	0.098047	0.005439	-0.016914	-0.034800	-0.743780	-0.101830	-0.659706	124.340165	-76.972982	61.128582
34578		9.604228	0.849172	-1.329425	-0.177694	0.959530	-0.128815	0.074609	-0.028361	-0.069730	-0.822998	-0.127930	0.468750	0.096047	0.008463	-0.013277	-0.034743	-0.743884	-0.102293	-0.659519	124.373870	-76.932340	61.137575
34579		9.334899	1.547408	-1.297284	-0.095849	0.232991	-0.265212	0.124726	-0.046274	-0.090301	-0.820068	-0.127441	0.477539	0.093359	0.015440	-0.012942	-0.034582	-0.744047	-0.102990	-0.659235	124.444517	-76.875935	61.137252
34580		9.209034	2.049618	-0.936255	0.308487	-0.243376	-0.340127	0.097534	-0.065667	-0.119085	-0.820068	-0.125732	0.475830	0.092106	0.020446	-0.009322	-0.034622	-0.744253	-0.103706	-0.658889	124.498000	-76.799886	61.139427
34581		9.446960	1.525453	-0.782238	0.438251	0.338650	-0.227428	0.074214	-0.078845	-0.099890	-0.819336	-0.135498	0.477295	0.094480	0.015210	-0.007779	-0.034697	-0.744509	-0.104267	-0.658507	124.591281	-76.728385	61.086274
34582		9.465305	1.768815	-0.830621	0.429343	0.111801	-0.157959	0.102899	-0.107341	-0.141575	-0.822021	-0.138916	0.473877	0.094670	0.017625	-0.008246	-0.034812	-0.744839	-0.105077	-0.657998	124.698911	-76.628162	61.035964
34583		9.129522	2.280649	-0.841345	0.450299	-0.442455	-0.386191	0.095824	-0.123445	-0.158094	-0.816895	-0.142090	0.485840	0.091318	0.022738	-0.008346	-0.035023	-0.745214	-0.105916	-0.657427	124.810931	-76.514635	60.975867
34584		9.190022	2.447001	-0.940710	0.391749	-0.585278	-0.282042	0.102702	-0.141231	-0.178268	-0.811768	-0.143066	0.480225	0.091929	0.024393	-0.009330	-0.035278	-0.745635	-0.106856	-0.656784	124.932178	-76.386017	60.911387
34585		9.532920	2.453491	-1.294005	0.098899	-0.534810	0.100677	0.103053	-0.152633	-0.182345	-0.808838	-0.132813	0.487305	0.095361	0.024455	-0.012855	-0.035559	-0.746092	-0.107802	-0.656095	125.068693	-76.251438	60.830033
34586		9.600698	2.166633	-1.715954	-0.325189	-0.261457	0.169198	0.129862	-0.157258	-0.177279	-0.815430	-0.132324	0.481445	0.096040	0.021592	-0.017070	-0.035717	-0.746569	-0.108824	-0.655375	125.233557	-76.117925	60.736589
34587		9.376915	2.098790	-1.805916	-0.429842	-0.234600	-0.047805	0.191364	-0.156690	-0.173104	-0.808594	-0.135010	0.480469	0.093801	0.020924	-0.017966	-0.035638	-0.747057	-0.110027	-0.654622	125.436003	-75.986239	60.639857
34588		9.606136	2.259414	-1.928068	-0.485487	-0.339096	0.224719	0.265537	-0.132785	-0.181694	-0.804443	-0.132568	0.484131	0.096095	0.022532	-0.019187	-0.035290	-0.747471	-0.111514	-0.653916	125.621963	-75.858671	60.604700
34589		9.857710	2.426063	-2.000564	-0.488994	-0.440884	0.513443	0.289896	-0.095832	-0.168487	-0.818848	-0.133545	0.487061	0.098607	0.024206	-0.019923	-0.034793	-0.747776	-0.113032	-0.653333	125.770062	-75.749325	60.622149
34590		9.634723	2.519207	-1.952850	-0.441386	-0.564015	0.310304	0.300694	-0.077866	-0.136460	-0.811768	-0.128906	0.476318	0.096372	0.025156	-0.019453	-0.034136	-0.748039	-0.114473	-0.652816	125.932287	-75.661147	60.632240
34591		9.307614	2.736975	-1.766495	-0.253968	-0.820161	0.011061	0.303186	-0.083607	-0.109293	-0.810547	-0.132324	0.490479	0.093098	0.027346	-0.017585	-0.033388	-0.748335	-0.115817	-0.652278	126.141487	-75.583377	60.594717
34592		9.446646	2.368631	-1.682434	-0.186129	-0.418681	0.060010	0.309919	-0.075994	-0.081930	-0.808838	-0.142822	0.486572	0.094483	0.023674	-0.016752	-0.032516	-0.748620	-0.117084	-0.651768	126.375034	-75.521047	60.536620
34593		9.567369	1.924577	-1.441309	0.021079	0.067351	0.051943	0.356680	-0.058975	-0.080413	-0.813477	-0.130859	0.494385	0.095686	0.019233	-0.014351	-0.031462	-0.748858	-0.118495	-0.651292	126.606288	-75.464862	60.507557
34594		9.509522	2.082000	-1.671872	-0.177656	-0.119254	0.062286	0.425910	-0.045350	-0.097223	-0.813965	-0.133301	0.490234	0.095109	0.020809	-0.016653	-0.030187	-0.749047	-0.120201	-0.650822	126.829567	-75.405891	60.528703
34595		9.434466	2.723752	-1.805440	-0.213012	-0.769470	0.139705	0.456550	-0.024539	-0.101029	-0.805908	-0.134766	0.497070	0.094361	0.027231	-0.017981	-0.028804	-0.749169	-0.122019	-0.650405	127.028549	-75.352078	60.592284
34596		9.436011	2.845532	-1.634818	-0.012730	-0.865756	0.140115	0.432257	-0.009326	-0.065170	-0.808594	-0.125488	0.493408	0.094370	0.028460	-0.016282	-0.027380	-0.749254	-0.123630	-0.650064	127.233463	-75.320249	60.636182
34597		9.561486	2.820222	-1.592787	0.054199	-0.809383	0.249846	0.415777	-0.005143	-0.035508	-0.809814	-0.130615	0.498047	0.095620	0.028218	-0.015867	-0.025925	-0.749341	-0.125071	-0.649749	127.461032	-75.303118	60.645968
34598		9.485122	2.591833	-1.467947	0.144455	-0.593139	0.110383	0.368989	-0.003923	-0.004280	-0.819336	-0.118164	0.496582	0.094852	0.025943	-0.014630	-0.024536	-0.749432	-0.126248	-0.649470	127.700611	-75.300912	60.616559
34599		9.249338	2.168519	-1.182269	0.339344	-0.203108	-0.247434	0.318768	-0.024022	-0.004624	-0.804688	-0.126709	0.504883	0.092495	0.021702	-0.011777	-0.023355	-0.749581	-0.127257	-0.649144	127.945970	-75.291151	60.550653
34600		9.150697	1.960183	-0.779432	0.699631	0.027467	-0.448135	0.288266	-0.067636	-0.011627	-0.807373	-0.112793	0.496338	0.091511	0.019608	-0.007735	-0.022333	-0.749860	-0.128191	-0.648674	128.238624	-75.263044	60.418544
34601		9.392247	1.882039	-0.462821	1.040503	0.200041	-0.281271	0.239888	-0.097738	-0.033178	-0.814209	-0.117920	0.504639	0.093928	0.018810	-0.004560	-0.021587	-0.750218	-0.129041	-0.648116	128.525240	-75.214074	60.263175
34602		9.533961	1.978889	-0.293172	1.255368	0.165720	-0.153757	0.193511	-0.126371	-0.058669	-0.811523	-0.114258	0.496582	0.095347	0.019764	-0.002852	-0.021111	-0.750645	-0.129838	-0.647479	128.797329	-75.143566	60.096117
34603		9.553085	1.968367	0.038656	1.596948	0.232932	-0.193287	0.144125	-0.154511	-0.069953	-0.804688	-0.123291	0.509521	0.095537	0.019650	0.000475	-0.020879	-0.751150	-0.130510	-0.646765	129.071117	-75.057417	59.897323
34604		9.243601	1.937725	0.222528	1.748612	0.227641	-0.531580	0.115842	-0.169238	-0.080362	-0.802002	-0.109619	0.508301	0.092442	0.019339	0.002315	-0.020793	-0.751691	-0.131132	-0.646013	129.336035	-74.961352	59.691490
34605		8.989005	1.689895	0.300329	1.767121	0.431180	-0.843882	0.085714	-0.206025	-0.109696	-0.802979	-0.105957	0.508789	0.089896	0.016848	0.003103	-0.020944	-0.752329	-0.131759	-0.645137	129.601419	-74.838396	59.466378
34606		8.937743	1.819007	0.586464	2.081723	0.348748	-0.919954	0.047033	-0.247619	-0.150053	-0.798096	-0.119385	0.515625	0.089384	0.018122	0.005980	-0.021392	-0.753067	-0.132412	-0.644127	129.853379	-74.682435	59.232871
34607		9.062750	2.058112	0.726532	2.299591	0.183451	-0.780786	-0.008903	-0.306723	-0.178744	-0.800781	-0.125977	0.508057	0.090635	0.020500	0.007403	-0.022187	-0.753970	-0.132983	-0.642925	130.123920	-74.491612	58.946028
34608		8.933422	1.981899	0.654151	2.224971	0.237074	-0.915775	-0.083080	-0.368587	-0.200098	-0.799072	-0.123535	0.513916	0.089342	0.019732	0.006698	-0.023366	-0.755045	-0.133392	-0.641535	130.413162	-74.268399	58.595975
34609		9.108884	1.424282	0.538410	2.073043	0.821592	-0.850681	-0.130462	-0.440757	-0.232451	-0.796875	-0.127930	0.522949	0.091093	0.014141	0.005576	-0.024883	-0.756322	-0.133757	-0.639896	130.733535	-74.003497	58.183981
34610		9.466594	0.618909	0.338589	1.831403	1.680328	-0.651010	-0.105360	-0.496121	-0.250412	-0.793213	-0.130859	0.525146	0.094665	0.006072	0.003617	-0.026393	-0.757759	-0.134267	-0.638025	131.115164	-73.709571	57.723547
34611		9.211295	0.375420	-0.173947	1.297057	1.816503	-0.866357	-0.030374	-0.558244	-0.282083	-0.788574	-0.128418	0.526611	0.092122	0.003624	-0.001483	-0.027768	-0.759379	-0.135122	-0.635858	131.573261	-73.377397	57.226448
34612		9.474731	0.188027	-0.568571	0.973184	2.042619	-0.592633	0.050316	-0.639171	-0.306639	-0.778809	-0.129395	0.529541	0.094768	0.001736	-0.005382	-0.028962	-0.761240	-0.136319	-0.633319	132.140590	-73.002738	56.663618
34613		9.872171	-0.103935	-0.871189	0.751991	2.420100	-0.231107	0.119423	-0.690659	-0.349947	-0.777588	-0.136963	0.538818	0.098749	-0.001207	-0.008372	-0.030070	-0.763234	-0.137885	-0.630521	132.738142	-72.588117	56.108601
34614		9.501081	0.801413	-0.660793	1.115286	1.529534	-0.444360	0.205586	-0.755647	-0.405199	-0.779297	-0.135742	0.535400	0.095051	0.007828	-0.006241	-0.031062	-0.765394	-0.139927	-0.627397	133.374724	-72.123308	55.563910
34615		9.275585	0.717173	-0.257211	1.522885	1.653265	-0.781419	0.208218	-0.862713	-0.447889	-0.770752	-0.128906	0.548096	0.092782	0.006966	-0.002165	-0.032258	-0.767845	-0.142115	-0.623840	134.064743	-71.596476	54.962125
34616		9.044722	0.073311	0.312638	1.992362	2.335849	-1.298957	0.239891	-0.960606	-0.520551	-0.765625	-0.134277	0.558350	0.090432	0.000494	0.003561	-0.033623	-0.770532	-0.144666	-0.619856	134.768026	-70.998482	54.364457
34617		8.944130	-0.353094	0.935459	2.575318	2.856047	-1.675926	0.229238	-1.086243	-0.630617	-0.756104	-0.137207	0.563965	0.089377	-0.003824	0.009836	-0.035462	-0.773499	-0.147578	-0.615355	135.441768	-70.302746	53.788733
34618		9.343848	-0.660297	1.137642	2.878500	3.353575	-1.475781	0.236127	-1.208386	-0.734120	-0.742432	-0.143066	0.577148	0.093342	-0.006960	0.011933	-0.037678	-0.776731	-0.150888	-0.610330	136.093063	-69.513319	53.239004
34619		9.358466	-0.269599	0.970093	2.890983	3.046667	-1.389338	0.206639	-1.344789	-0.845725	-0.732422	-0.141113	0.585449	0.093504	-0.003102	0.010327	-0.040454	-0.780245	-0.154500	-0.604741	136.701922	-68.621239	52.712816
34620		9.404327	-0.496415	0.678096	2.685431	3.332087	-1.396574	0.151326	-1.480085	-0.959985	-0.726074	-0.154297	0.591797	0.093964	-0.005421	0.007473	-0.043889	-0.784012	-0.158358	-0.598600	137.246112	-67.625904	52.219546
34621		9.401727	-0.981231	0.555270	2.587053	3.878053	-1.570798	0.147980	-1.583433	-1.081001	-0.715820	-0.155762	0.606689	0.093915	-0.010325	0.006289	-0.047781	-0.787925	-0.162639	-0.591980	137.718148	-66.538666	51.798078
34622		9.561993	-0.310965	-0.697495	1.696724	3.266302	-0.954692	0.319085	-1.695877	-1.194750	-0.688965	-0.162354	0.612305	0.095654	-0.003671	-0.006170	-0.051418	-0.792039	-0.167836	-0.584689	138.235003	-65.358378	51.432003
34623		10.384305	-0.394285	-1.543007	1.237319	3.655754	-0.041799	0.516855	-1.781810	-1.385421	-0.679199	-0.172119	0.623047	0.103945	-0.004624	-0.014516	-0.054899	-0.796198	-0.174318	-0.576773	138.720709	-64.067819	51.221257
34624		12.385154	-1.919586	-1.152637	1.977945	5.979949	1.083491	0.808955	-1.840896	-1.581240	-0.658203	-0.169189	0.637451	0.123794	-0.020131	-0.010467	-0.057822	-0.800319	-0.182385	-0.568227	139.216348	-62.677084	51.185012
34625		16.292289	-1.262004	1.894565	6.257726	7.371751	3.495282	1.272469	-1.944519	-1.866320	-0.646973	-0.175049	0.652588	0.162601	-0.014265	0.020440	-0.059786	-0.804454	-0.192838	-0.558653	139.790807	-61.135407	51.359063
34626		22.038072	-0.579550	1.797842	8.311019	9.305366	8.450419	1.126606	-2.225141	-2.190317	-0.610840	-0.179932	0.670410	0.220081	-0.008317	0.020386	-0.063494	-0.808817	-0.204061	-0.547853	140.200826	-59.351629	51.630008
34627		22.187634	-2.801165	0.662368	7.048863	11.708040	7.901004	1.031734	-2.346838	-1.958801	-0.583740	-0.181885	0.682617	0.221491	-0.030225	0.009072	-0.067062	-0.813503	-0.213985	-0.536588	140.786363	-57.600271	51.635126
34628		21.890693	-4.911257	0.040351	6.104661	13.816327	6.774396	1.118156	-2.487183	-1.916087	-0.566895	-0.177979	0.703613	0.218398	-0.051218	0.002839	-0.070293	-0.818420	-0.223873	-0.524526	141.497457	-55.801208	51.550586
34629		22.506219	-6.978538	-0.180769	5.788636	16.300295	6.187753	1.282421	-2.611432	-2.085998	-0.543457	-0.194092	0.725098	0.224320	-0.072127	0.000667	-0.073419	-0.823288	-0.234761	-0.511560	142.219726	-53.886472	51.564020
34630		21.718842	-5.669170	0.160995	6.443546	15.245931	5.348883	1.437666	-2.645904	-2.291374	-0.517334	-0.182617	0.732910	0.216477	-0.059198	0.004058	-0.076443	-0.827779	-0.246815	-0.498017	142.893318	-51.883886	51.752008
34631		18.809359	-3.539220	-2.250721	4.183174	12.113301	4.579068	1.739657	-2.654946	-2.398740	-0.486328	-0.185303	0.754639	0.187932	-0.037464	-0.020332	-0.078475	-0.831968	-0.259941	-0.483840	143.662799	-49.843093	52.041751
34632		17.025758	2.728061	-4.599737	4.018002	6.015230	6.500279	2.116593	-2.624701	-2.773557	-0.455811	-0.183594	0.761963	0.171200	0.025380	-0.043479	-0.079764	-0.835378	-0.275463	-0.468936	144.423369	-47.691738	52.642689
34633		15.237655	9.413210	-6.707273	4.555944	-0.238922	8.759153	1.958813	-2.453547	-3.235212	-0.425049	-0.181641	0.784668	0.154679	0.092281	-0.064275	-0.082533	-0.837287	-0.292437	-0.454554	144.816057	-45.472447	53.641955
34634		11.627617	13.015603	-7.067072	4.761512	-4.692131	7.789019	1.689597	-2.115708	-2.740449	-0.400879	-0.176514	0.791992	0.118781	0.129124	-0.068329	-0.084760	-0.838664	-0.306778	-0.441980	145.209341	-43.577876	54.461257
34635		8.569768	15.198790	-7.177536	4.793975	-7.805195	6.680718	1.089926	-1.826258	-2.026937	-0.379639	-0.174316	0.802734	0.087880	0.151490	-0.070153	-0.087475	-0.840009	-0.316788	-0.431715	145.505731	-42.056828	54.937323
34636		5.690426	14.012711	-7.334082	3.224655	-8.330170	4.425450	0.562628	-1.553958	-1.479525	-0.364990	-0.176758	0.803955	0.058505	0.139903	-0.072497	-0.090758	-0.841248	-0.323474	-0.423592	145.660975	-40.842040	55.189357
34637		5.447872	12.610011	-8.235695	1.981988	-7.269155	4.320326	0.260786	-1.388223	-1.260344	-0.343750	-0.178467	0.812744	0.055841	0.125858	-0.081808	-0.094586	-0.842276	-0.328597	-0.416713	145.690235	-39.777854	55.368813
34638		4.661380	10.087980	-9.426136	-0.313344	-5.781893	3.559502	0.177132	-1.134254	-0.949649	-0.327148	-0.177002	0.822021	0.047626	0.100739	-0.093904	-0.097677	-0.843172	-0.332376	-0.411153	145.728916	-38.933205	55.467410
34639		4.455675	8.204511	-6.866806	0.740198	-4.074548	1.011759	0.257945	-0.766827	-0.878962	-0.315674	-0.180420	0.828369	0.045180	0.081936	-0.068390	-0.099687	-0.843446	-0.336142	-0.407026	145.746625	-38.286296	55.668942
34640		6.052224	5.405817	-5.580173	1.124357	-0.701769	-0.053937	0.191119	-0.560063	-0.796481	-0.304199	-0.178467	0.824707	0.060893	0.053869	-0.055580	-0.101440	-0.843365	-0.339562	-0.403910	145.707860	-37.762954	55.909173
34641		6.661332	2.806511	-5.359124	0.312948	1.725323	-0.986859	0.192922	-0.143470	-0.570957	-0.305420	-0.178711	0.831787	0.066732	0.027926	-0.053516	-0.102045	-0.842829	-0.342191	-0.402656	145.650248	-37.510256	56.176678
34642		4.914236	2.471034	-4.961004	-0.325497	0.889471	-2.466249	0.350865	0.249153	-0.620350	-0.302490	-0.184814	0.823486	0.049157	0.024645	-0.049628	-0.101386	-0.841472	-0.345592	-0.402755	145.569882	-37.426135	56.638788
34643		2.801496	3.688309	-4.561937	-0.347916	-1.361798	-3.465426	0.232421	0.475358	-0.637829	-0.301514	-0.178223	0.824951	0.028024	0.036847	-0.045643	-0.100894	-0.839574	-0.348886	-0.403998	145.358787	-37.442975	57.197066
34644		2.030923	5.142163	-4.327766	0.217295	-2.918208	-3.430457	0.007572	0.682565	-0.391665	-0.298828	-0.174561	0.828613	0.020262	0.051384	-0.043345	-0.100461	-0.837543	-0.350843	-0.406618	145.055268	-37.634974	57.701856
34645		2.449724	5.698696	-3.757620	1.069579	-2.989810	-3.292506	-0.316064	0.946223	-0.036979	-0.306396	-0.178467	0.822266	0.024329	0.056923	-0.037782	-0.100221	-0.835435	-0.350734	-0.411083	144.622553	-38.065711	58.104131
34646		2.520306	5.075468	-3.491086	0.920618	-2.478562	-3.704614	-0.662120	1.255988	0.236475	-0.320313	-0.190674	0.813965	0.024923	0.050668	-0.035236	-0.100294	-0.832949	-0.348961	-0.417567	144.003109	-38.728242	58.490185
34647		1.834427	4.132302	-3.267375	0.258591	-2.248493	-4.714313	-0.855891	1.568125	0.427158	-0.326904	-0.200195	0.810547	0.017998	0.041221	-0.032992	-0.100249	-0.830006	-0.346077	-0.425760	143.243827	-39.596613	58.908367
34648		0.974145	3.528244	-3.140705	-0.365570	-2.392451	-5.640967	-0.947063	1.835767	0.587297	-0.344238	-0.204590	0.812500	0.009348	0.035161	-0.031661	-0.099745	-0.826626	-0.342480	-0.435256	142.397298	-40.637182	59.379516
34649		0.366315	3.037555	-3.045631	-0.840450	-2.451263	-6.360016	-1.003100	2.063438	0.771017	-0.368896	-0.215576	0.794678	0.003231	0.030235	-0.030643	-0.098697	-0.822945	-0.338022	-0.445826	141.493599	-41.840371	59.870526
34650		-0.049656	2.621219	-2.917863	-1.161131	-2.428253	-6.959320	-1.031024	2.278502	0.958236	-0.381104	-0.223877	0.794189	-0.000955	0.026057	-0.029304	-0.096940	-0.818938	-0.332832	-0.457346	140.547507	-43.199998	60.395813
34651		-0.345592	2.286370	-2.887976	-1.461922	-2.395356	-7.401988	-1.033631	2.470362	1.148347	-0.400146	-0.229980	0.767090	-0.003944	0.022692	-0.028951	-0.094448	-0.814661	-0.326841	-0.469661	139.571066	-44.707746	60.941921
34652		-0.457484	2.230111	-3.054081	-1.725210	-2.486124	-7.499291	-1.021421	2.626453	1.346283	-0.430176	-0.226318	0.754883	-0.005126	0.022112	-0.030589	-0.091138	-0.810148	-0.320117	-0.482576	138.582447	-46.349737	61.506683
34653		-0.461556	2.443656	-3.437175	-2.023283	-2.761126	-7.306788	-1.002874	2.767395	1.556531	-0.450684	-0.236084	0.744141	-0.005281	0.024225	-0.034424	-0.087022	-0.805439	-0.312527	-0.496006	137.586367	-48.125743	62.073982
34654		-0.382769	3.215008	-3.908480	-2.160042	-3.460235	-6.793192	-1.061752	2.881755	1.779015	-0.471924	-0.229980	0.733154	-0.004676	0.031903	-0.039191	-0.082363	-0.800520	-0.303892	-0.509935	136.549604	-50.028834	62.640447
34655		-0.084268	4.016052	-4.127658	-2.046148	-4.043520	-6.258448	-1.242690	3.004955	2.034653	-0.500732	-0.239502	0.719482	-0.001872	0.039888	-0.041502	-0.077588	-0.795337	-0.293682	-0.524567	135.401582	-52.077486	63.194331
34656		-0.365511	4.133313	-4.719672	-2.727940	-4.483096	-6.356146	-1.386312	3.101096	2.419817	-0.536377	-0.229004	0.693359	-0.004886	0.040951	-0.047412	-0.072174	-0.790083	-0.281522	-0.539728	134.238259	-54.313559	63.654641
34657		-0.675383	3.940094	-5.294623	-3.533901	-4.662652	-6.685814	-1.658662	3.155316	2.738890	-0.560059	-0.240967	0.674316	-0.008126	0.038856	-0.053149	-0.066893	-0.784669	-0.267218	-0.555350	132.966340	-56.697381	64.038455
34658		-0.242506	3.252164	-5.972333	-4.430896	-4.047873	-6.606755	-1.821461	3.158602	2.908343	-0.596436	-0.231201	0.640625	-0.003838	0.031927	-0.059963	-0.061714	-0.778999	-0.251695	-0.570966	131.585811	-59.148261	64.435444
34659		0.852547	2.435290	-6.338438	-4.938551	-2.957253	-6.112502	-1.757561	3.167536	2.997666	-0.623535	-0.223877	0.626221	0.007157	0.023908	-0.063716	-0.055986	-0.773005	-0.235866	-0.586256	130.152564	-61.635984	64.924506
34660		2.042796	1.782011	-6.704078	-5.383290	-2.017166	-5.426617	-1.436016	3.222342	3.011907	-0.649658	-0.229492	0.601563	0.019077	0.017631	-0.067482	-0.048878	-0.766538	-0.220817	-0.601058	128.698365	-64.142418	65.633223
34661		2.548904	2.155553	-6.988367	-5.602684	-2.324775	-4.998360	-0.978175	3.293332	3.022188	-0.669678	-0.208252	0.576660	0.024007	0.021582	-0.070393	-0.039881	-0.759572	-0.207000	-0.615314	127.229006	-66.670105	66.631708
34662		3.518696	4.235063	-7.783595	-5.818027	-4.193589	-3.531610	-0.679077	3.275566	2.886497	-0.710693	-0.194092	0.553467	0.033291	0.042574	-0.078536	-0.030163	-0.752198	-0.194513	-0.628851	125.553267	-69.116322	68.019756
34663		4.876682	6.844226	-8.273040	-5.636011	-6.481835	-1.733709	-0.449568	3.198256	2.609769	-0.728760	-0.180176	0.522461	0.046537	0.068872	-0.083641	-0.020513	-0.744484	-0.183685	-0.641546	123.467285	-71.388919	69.961333
34664		5.720728	8.629397	-7.386422	-4.465870	-7.974322	-0.969723	-0.461152	3.064870	2.427765	-0.747070	-0.170654	0.500000	0.055013	0.086799	-0.074918	-0.011604	-0.736728	-0.173412	-0.653472	120.866446	-73.503551	72.411282
34665		5.545956	6.691779	-5.697185	-3.507960	-6.106038	-2.171216	-0.297864	2.843084	2.701055	-0.772705	-0.144043	0.480469	0.053732	0.067566	-0.057844	-0.001389	-0.729656	-0.162584	-0.664204	118.356762	-75.656706	74.836697
34666		7.862594	3.708977	-5.723919	-4.245748	-2.994842	-0.794140	0.026130	2.458600	2.398047	-0.795410	-0.135254	0.472168	0.077462	0.038031	-0.058191	0.008690	-0.723370	-0.153880	-0.673039	115.759423	-77.524001	77.521545
34667		9.469474	3.006044	-6.822147	-5.546022	-2.486982	0.593925	0.502960	2.005506	1.502691	-0.810059	-0.109619	0.449707	0.093775	0.030940	-0.069088	0.017130	-0.717731	-0.150004	-0.679756	112.769777	-78.784457	80.870097
34668		7.733879	5.806675	-7.394102	-5.577763	-5.827613	-0.695304	0.713253	1.529395	0.859792	-0.797119	-0.101807	0.434082	0.076520	0.058661	-0.074320	0.023781	-0.713121	-0.149171	-0.684573	109.879960	-79.565422	84.227940
34669		6.161700	8.380770	-6.845374	-4.469419	-8.563112	-1.954005	0.549770	1.082080	0.484212	-0.817383	-0.093506	0.430176	0.061043	0.084144	-0.068554	0.028227	-0.709734	-0.149162	-0.687919	107.458815	-80.030150	87.007728
34670		5.639306	8.430954	-6.348277	-3.993443	-8.645160	-2.567241	0.048403	0.589895	0.362759	-0.814453	-0.090576	0.423828	0.056052	0.084427	-0.063628	0.030110	-0.708001	-0.147924	-0.689889	105.998262	-80.330103	88.517842
34671		5.127839	7.437831	-6.446809	-4.374638	-7.825810	-3.270791	-0.542384	0.053731	0.276464	-0.820068	-0.086670	0.431396	0.051158	0.074274	-0.064683	0.029206	-0.708135	-0.145035	-0.690403	105.805386	-80.494262	88.398156
34672		6.440005	7.974300	-2.163762	-0.138494	-7.082029	-2.094504	-0.911223	-0.230484	0.001740	-0.811523	-0.096680	0.421143	0.064425	0.079644	-0.021926	0.025841	-0.709094	-0.141883	-0.690208	106.079012	-80.462628	87.591029
34673		15.240958	10.689868	6.070541	8.501083	-6.314257	6.657674	-1.455297	-0.552721	-0.604083	-0.816650	-0.098877	0.418457	0.152565	0.106878	0.060349	0.018226	-0.710773	-0.139040	-0.689302	106.485982	-80.044745	86.332053
34674		30.919045	2.985676	19.874882	20.421771	6.658906	20.162577	-2.131071	-0.281552	-0.491494	-0.806641	-0.112793	0.416016	0.308986	0.031216	0.198856	0.008786	-0.711589	-0.133426	-0.689755	105.730794	-79.733102	85.858583
34675		37.958399	-15.250388	2.168627	-0.130694	22.067572	24.699173	-2.748193	-0.851044	-0.877849	-0.798584	-0.132813	0.423096	0.378808	-0.153836	0.025407	-0.004594	-0.714016	-0.127043	-0.688491	105.963729	-79.118636	84.015650
34676		14.115790	-13.013926	-5.342050	-7.029382	14.422165	2.007802	-2.320681	-1.215775	0.460868	-0.803711	-0.130615	0.421631	0.141773	-0.130415	-0.051048	-0.012040	-0.718413	-0.117335	-0.685543	108.544575	-79.167759	80.033624
34677		10.502498	-11.422020	-9.596133	-10.695934	11.741643	-0.836923	-1.849806	-1.383903	1.281032	-0.796143	-0.136475	0.428711	0.106413	-0.114418	-0.094171	-0.015100	-0.723770	-0.106250	-0.681645	112.854669	-79.577278	74.566948
34678		10.521656	-5.008527	-12.673943	-12.607419	5.235893	0.677810	-0.624905	-1.601247	0.036913	-0.790283	-0.136230	0.440918	0.106235	-0.050460	-0.125734	-0.018060	-0.729207	-0.103826	-0.676129	117.024225	-79.211968	69.960468
34679		6.795845	4.963994	-12.293458	-11.064392	-4.949618	-1.150958	-0.533233	-1.559640	-1.508337	-0.776367	-0.152588	0.446289	0.069285	0.048794	-0.122529	-0.025906	-0.733640	-0.107323	-0.670510	118.672385	-78.032284	67.964546
34680		0.882821	14.054876	-8.114583	-6.283761	-14.331385	-5.421807	-0.894525	-1.114114	-1.763477	-0.768311	-0.160156	0.458496	0.010519	0.140096	-0.081718	-0.035671	-0.736300	-0.110605	-0.666601	118.534810	-76.841814	67.580103
34681		4.198723	11.994316	-5.167498	-3.409869	-11.215910	-2.687501	-1.053285	-0.814166	-1.034380	-0.765137	-0.183594	0.449707	0.042817	0.119449	-0.052132	-0.043441	-0.738265	-0.110702	-0.663945	118.487494	-76.100016	67.004967
34682		11.479360	-3.149677	-8.686039	-7.801203	4.884526	1.694908	-0.824607	-0.633167	0.757581	-0.757324	-0.181152	0.456787	0.115187	-0.031418	-0.086366	-0.044296	-0.740626	-0.104990	-0.662184	120.196825	-76.302787	64.758052
34683		14.513625	-7.762303	-7.323508	-6.527113	10.132531	3.576151	0.480332	-0.394526	-0.229633	-0.754639	-0.175537	0.452393	0.145191	-0.077614	-0.073135	-0.043460	-0.741949	-0.107307	-0.660384	121.020144	-76.076143	64.193478
34684		12.999636	0.207550	-6.315100	-4.842514	2.204391	3.626160	1.067158	-0.421947	-1.663794	-0.748047	-0.180908	0.462891	0.130142	0.001329	-0.062868	-0.045196	-0.742678	-0.116868	-0.657821	120.566178	-75.135400	65.293086
34685		12.236107	9.137324	-4.818389	-2.348852	-6.331203	4.707110	1.014839	-0.161495	-1.461577	-0.745605	-0.192627	0.459717	0.123064	0.090718	-0.047623	-0.046324	-0.742595	-0.125538	-0.656237	119.919786	-74.366669	66.562522
34686		7.087236	12.675172	-3.284391	-0.855318	-10.770648	0.431199	0.417910	-0.107105	-0.335497	-0.749023	-0.183105	0.465820	0.071102	0.126701	-0.032541	-0.045917	-0.742864	-0.128092	-0.655467	120.031424	-74.171546	66.695001
34687		4.724148	9.792061	-3.007580	-1.180587	-8.547503	-2.546740	-0.082539	-0.183745	0.105563	-0.745361	-0.183838	0.477051	0.047217	0.097933	-0.030073	-0.045994	-0.743554	-0.127335	-0.654826	120.437337	-74.171921	66.220755
34688		8.166249	5.993515	-2.744635	-1.031892	-3.994975	-0.162910	-0.295589	-0.249976	-0.120415	-0.744385	-0.196045	0.475586	0.081733	0.059845	-0.027433	-0.047623	-0.744261	-0.126719	-0.654026	120.602498	-74.041736	65.872636
34689		11.834259	1.974692	-2.760470	-1.135419	0.815924	2.419007	-0.225230	-0.149175	-0.105507	-0.750732	-0.182129	0.475098	0.118374	0.019653	-0.027539	-0.048903	-0.744668	-0.126286	-0.653551	120.646893	-73.947032	65.688548
34690		11.201778	0.129049	-2.623900	-1.293021	2.450508	1.354426	0.216006	-0.020398	0.064856	-0.747559	-0.185303	0.482910	0.112020	0.001355	-0.026226	-0.047877	-0.744862	-0.126707	-0.653325	120.895754	-73.974935	65.558081
34691		9.160086	3.094831	-1.870661	-0.398586	-0.851421	-0.009590	0.577998	0.020487	-0.174220	-0.744629	-0.185791	0.476074	0.091626	0.030922	-0.018627	-0.046279	-0.744861	-0.129197	-0.652954	121.038289	-73.896305	65.751328
34692		8.731025	6.493729	-1.475606	0.415488	-4.181774	0.332102	0.506803	-0.003251	-0.166873	-0.749512	-0.190186	0.486572	0.087365	0.064902	-0.014590	-0.044916	-0.744912	-0.131434	-0.652544	121.187413	-73.815397	65.898077
34693		8.541308	6.572619	-1.249468	0.650814	-4.281897	0.134986	0.218940	0.023333	0.097052	-0.757080	-0.183594	0.474121	0.085380	0.065781	-0.012433	-0.043771	-0.744990	-0.131739	-0.652472	121.397451	-73.870604	65.806454
34694		9.119502	4.250817	-1.621351	0.036150	-1.962737	0.187804	0.061035	0.025712	0.268063	-0.750732	-0.181885	0.486816	0.091136	0.042635	-0.016212	-0.042629	-0.745130	-0.130907	-0.652555	121.692036	-74.011064	65.535995
34695		9.502602	2.761410	-1.931262	-0.430611	-0.495844	0.248289	0.090200	0.058479	0.273122	-0.763916	-0.173828	0.485107	0.094983	0.027753	-0.019328	-0.041365	-0.745177	-0.130145	-0.652735	121.957942	-74.162314	65.309855
34696		9.321155	2.738068	-2.111521	-0.630970	-0.567699	0.092816	0.192404	0.086946	0.251716	-0.761230	-0.177490	0.482422	0.093168	0.027518	-0.021129	-0.039748	-0.745130	-0.129815	-0.652955	122.214707	-74.312762	65.157302
34697		9.326514	2.915498	-1.913284	-0.410375	-0.745442	0.108023	0.189332	0.114208	0.262246	-0.762695	-0.158936	0.475586	0.093216	0.029295	-0.019158	-0.038113	-0.745004	-0.129428	-0.653272	122.438151	-74.475278	65.034709
34698		9.481309	2.288479	-1.752811	-0.327764	-0.118360	0.091008	0.165889	0.137233	0.303777	-0.762207	-0.158203	0.478760	0.094766	0.023043	-0.017574	-0.036391	-0.744818	-0.128827	-0.653702	122.657592	-74.666032	64.905362
34699		9.379996	1.698193	-1.702289	-0.379837	0.397115	-0.145016	0.183360	0.150624	0.321904	-0.768555	-0.156250	0.482422	0.093760	0.017148	-0.017078	-0.034555	-0.744605	-0.128208	-0.654166	122.889019	-74.868416	64.771890
34700		9.266802	1.720972	-1.684425	-0.377948	0.314608	-0.250746	0.264663	0.176990	0.305938	-0.769043	-0.151611	0.490479	0.092627	0.017374	-0.016903	-0.032433	-0.744300	-0.127928	-0.654676	123.105460	-75.072338	64.704493
34701		9.357330	1.933488	-1.704360	-0.363228	0.093799	-0.114130	0.295058	0.192423	0.270453	-0.765381	-0.144775	0.480713	0.093531	0.019487	-0.017105	-0.030324	-0.743930	-0.127870	-0.655209	123.273412	-75.262881	64.702888
34702		9.349028	1.911316	-1.468316	-0.143971	0.110849	-0.159693	0.285647	0.204013	0.233291	-0.778564	-0.146484	0.484131	0.093453	0.019243	-0.014751	-0.028344	-0.743487	-0.127932	-0.655788	123.371096	-75.440425	64.770783
34703		9.453911	1.658702	-1.755349	-0.463080	0.312967	-0.071204	0.323016	0.214086	0.225022	-0.780762	-0.142090	0.475586	0.094501	0.016722	-0.017628	-0.026265	-0.743013	-0.128138	-0.656371	123.462388	-75.616092	64.865028
34704		9.490583	2.106675	-1.819615	-0.461479	-0.149390	0.065819	0.390297	0.213854	0.196576	-0.786133	-0.138184	0.479004	0.094866	0.021196	-0.018256	-0.024010	-0.742521	-0.128679	-0.656908	123.556656	-75.779264	64.998221
34705		9.545308	2.088194	-1.417749	-0.073064	-0.094341	0.059960	0.385222	0.237665	0.204414	-0.792725	-0.136963	0.481934	0.095415	0.021007	-0.014251	-0.021751	-0.741956	-0.129168	-0.657528	123.612780	-75.952643	65.165466
34706		9.901902	1.108333	-1.039115	0.163458	0.954354	0.158182	0.302866	0.214374	0.215026	-0.795410	-0.130859	0.480713	0.098996	0.011206	-0.010480	-0.019759	-0.741456	-0.129352	-0.658119	123.677783	-76.124858	65.276995
34707		9.935128	1.016333	-0.357675	0.807215	1.121329	0.084717	0.287752	0.204071	0.186979	-0.793457	-0.125977	0.475586	0.099338	0.010261	-0.003663	-0.017941	-0.740973	-0.129580	-0.658670	123.717987	-76.279340	65.402877
34708		9.504568	0.916022	0.421631	1.501399	1.217946	-0.452342	0.233556	0.149257	0.162577	-0.793457	-0.127930	0.474854	0.095041	0.009233	0.004156	-0.016421	-0.740642	-0.129724	-0.659054	123.801115	-76.405892	65.454742
34709		9.076155	0.110815	1.648703	2.519459	2.072293	-1.183376	0.118689	0.066262	0.083333	-0.798096	-0.121582	0.478760	0.090767	0.001136	0.016458	-0.015657	-0.740527	-0.129767	-0.659192	123.878588	-76.467226	65.442694
34710		9.090012	-0.744766	2.273930	2.986444	2.991840	-1.417224	0.089571	-0.034540	-0.010764	-0.799316	-0.123779	0.478760	0.090896	-0.007463	0.022752	-0.015361	-0.740676	-0.130063	-0.658974	124.012940	-76.452621	65.356988
34711		9.036006	-0.082645	2.590955	3.413426	2.394998	-1.387620	0.067370	-0.148582	-0.107679	-0.792480	-0.119385	0.484131	0.090340	-0.000884	0.025976	-0.015555	-0.741140	-0.130629	-0.658335	124.229697	-76.354421	65.171587
34712		8.996285	0.634407	2.810014	3.764331	1.740538	-1.325517	-0.035846	-0.260463	-0.177489	-0.800781	-0.121826	0.480713	0.089932	0.006269	0.028216	-0.016420	-0.741913	-0.131112	-0.657348	124.507171	-76.187745	64.864510
34713		9.042843	1.101846	2.794848	3.858913	1.314957	-1.200033	-0.173608	-0.361063	-0.254086	-0.799316	-0.123779	0.487305	0.090392	0.010928	0.028102	-0.018126	-0.742955	-0.131410	-0.656064	124.789100	-75.951065	64.469674
34714		8.550275	1.640941	2.519516	3.659004	0.667721	-1.547486	-0.274150	-0.457137	-0.314111	-0.793457	-0.128906	0.488525	0.085471	0.016310	0.025368	-0.020452	-0.744255	-0.131599	-0.654483	125.101049	-75.654952	63.985573
34715		8.291024	1.776019	1.980696	3.159190	0.427363	-1.709899	-0.331253	-0.557222	-0.357155	-0.786621	-0.127930	0.493408	0.082886	0.017645	0.020009	-0.023210	-0.745843	-0.131744	-0.652552	125.488286	-75.304165	63.387696
34716		8.832061	1.270168	1.320985	2.532320	0.977689	-1.210664	-0.367787	-0.660742	-0.397268	-0.778320	-0.136963	0.494873	0.088301	0.012551	0.013478	-0.026291	-0.747722	-0.131910	-0.650247	125.959792	-74.899666	62.681435
34717		9.594355	0.554322	0.440366	1.699070	1.769230	-0.510253	-0.325410	-0.735584	-0.450821	-0.781250	-0.131104	0.503662	0.095939	0.005334	0.004748	-0.029447	-0.749803	-0.132396	-0.647611	126.482691	-74.442889	61.944193
34718		9.841760	0.530615	-0.438971	0.931774	1.791100	-0.155693	-0.243592	-0.809785	-0.475551	-0.778564	-0.141357	0.500488	0.098447	0.005067	-0.003997	-0.032414	-0.752100	-0.133232	-0.644628	127.104239	-73.948004	61.152877
34719		9.481653	0.988223	-0.975866	0.503300	1.255571	-0.325848	-0.147767	-0.861247	-0.503689	-0.765869	-0.151855	0.507813	0.094882	0.009636	-0.009357	-0.035153	-0.754543	-0.134467	-0.641364	127.782769	-73.419510	60.356333
34720		9.480718	0.971189	-1.248617	0.310601	1.300059	-0.294348	-0.107358	-0.924424	-0.519630	-0.759033	-0.153564	0.512207	0.094888	0.009459	-0.012053	-0.037823	-0.757162	-0.135881	-0.637817	128.512274	-72.859233	59.529491
34721		9.397634	0.991492	-1.312120	0.321833	1.316075	-0.368978	-0.019442	-0.977352	-0.563496	-0.753662	-0.156250	0.522705	0.094066	0.009649	-0.012663	-0.040347	-0.759917	-0.137720	-0.633980	129.265651	-72.256777	58.726388
34722		8.760296	1.543765	-0.968048	0.728557	0.724586	-0.924137	0.030067	-1.039526	-0.598062	-0.748291	-0.157227	0.529541	0.087697	0.015177	-0.009223	-0.042822	-0.762827	-0.139838	-0.629847	130.040233	-71.613709	57.929471
34723		8.932737	1.082322	-0.502624	1.224913	1.331417	-0.984119	0.031595	-1.122909	-0.662770	-0.747314	-0.155518	0.541504	0.089389	0.010528	-0.004523	-0.045561	-0.765927	-0.142177	-0.625353	130.797376	-70.907748	57.147561
34724		9.199484	0.483983	0.169043	1.922533	2.122207	-1.055289	0.093874	-1.195635	-0.735957	-0.731445	-0.161865	0.542480	0.092000	0.004500	0.002243	-0.048331	-0.769178	-0.144975	-0.620493	131.544543	-70.140005	56.411805
34725		9.425742	-0.178757	0.425547	2.206289	2.925884	-1.116286	0.181318	-1.294441	-0.831031	-0.720215	-0.165771	0.554688	0.094219	-0.002183	0.004864	-0.051135	-0.772648	-0.148373	-0.615131	132.300061	-69.290445	55.715945
34726		9.227823	-0.347290	1.081836	2.878033	3.184331	-1.565349	0.243737	-1.405866	-0.929427	-0.713867	-0.179199	0.569824	0.092182	-0.003915	0.011462	-0.054073	-0.776350	-0.152309	-0.609228	133.054915	-68.353372	55.055896
34727		9.607971	-0.598232	1.211234	3.151277	3.647767	-1.392553	0.316305	-1.515514	-1.037761	-0.695557	-0.173828	0.582275	0.095951	-0.006500	0.012830	-0.057147	-0.780263	-0.156838	-0.602764	133.798320	-67.324731	54.447429
34728		10.020971	0.352107	0.655626	3.003646	2.939148	-0.685268	0.445736	-1.618612	-1.156651	-0.677490	-0.178467	0.591309	0.100170	0.002926	0.007374	-0.060141	-0.784355	-0.162184	-0.595707	134.544102	-66.203446	53.913464
34729		10.416562	0.378733	-0.368234	2.269002	3.075497	-0.108430	0.486275	-1.717718	-1.259166	-0.665283	-0.182129	0.606201	0.104213	0.003139	-0.002779	-0.063362	-0.788584	-0.167997	-0.588130	135.252651	-64.997783	53.440018
34730		11.710980	0.598475	-1.415925	1.809423	3.367251	1.362807	0.710807	-1.794559	-1.427631	-0.656738	-0.192139	0.613281	0.117269	0.005196	-0.013088	-0.066242	-0.792864	-0.175095	-0.579932	135.955599	-63.690938	53.111710
34731		14.583539	0.071943	-1.218168	2.855058	5.104365	3.601946	0.880615	-1.873429	-1.600575	-0.639160	-0.194580	0.624268	0.145941	-0.000399	-0.010815	-0.069016	-0.797153	-0.183310	-0.571123	136.628553	-62.281360	52.921284
34732		19.492595	-1.992606	0.355640	5.499544	9.279161	6.548519	1.008444	-1.968798	-1.770292	-0.617920	-0.195557	0.633545	0.194692	-0.021674	0.005367	-0.071833	-0.801454	-0.192506	-0.561652	137.272602	-60.764569	52.845623
34733		19.989370	-3.013086	0.132508	5.458333	10.727418	6.428518	1.140611	-2.081999	-1.816199	-0.591309	-0.197021	0.653320	0.199582	-0.031959	0.003225	-0.074347	-0.805907	-0.202168	-0.551466	137.998882	-59.182073	52.760191
34734		18.369847	-3.749423	0.063200	4.949449	11.051005	4.500670	1.240551	-2.173880	-1.757504	-0.572021	-0.202637	0.671875	0.183340	-0.039118	0.002387	-0.076369	-0.810524	-0.211796	-0.540704	138.840417	-57.581825	52.606373
34735		18.759885	-4.635092	-0.084445	4.922077	12.310937	4.244895	1.425325	-2.279086	-1.969474	-0.558350	-0.200928	0.682617	0.187126	-0.048198	0.000951	-0.078311	-0.815067	-0.222675	-0.529102	139.664086	-55.856206	52.596132
34736		19.806199	-4.189608	-0.313243	5.405347	12.710069	4.990808	1.563999	-2.393927	-2.157613	-0.528320	-0.197021	0.694092	0.197616	-0.044016	-0.001104	-0.080285	-0.819512	-0.234590	-0.516644	140.474041	-54.010486	52.701112
34737		20.398188	-3.084018	0.443880	6.838325	12.497434	5.114148	1.576621	-2.442910	-2.240100	-0.505615	-0.195557	0.713135	0.203547	-0.033168	0.006672	-0.082455	-0.823726	-0.246761	-0.503772	141.238235	-52.115107	52.873154
34738		19.014003	-1.194101	-0.815521	6.073344	10.459392	4.928626	1.628880	-2.473728	-2.344062	-0.472412	-0.198242	0.725098	0.190065	-0.014115	-0.005913	-0.084678	-0.827622	-0.259411	-0.490487	141.966489	-50.169476	53.136146
34739		17.185618	2.629663	-2.971494	5.133196	6.451945	5.778363	1.876800	-2.470515	-2.520463	-0.440430	-0.195801	0.744141	0.172519	0.024389	-0.027352	-0.086277	-0.831079	-0.273277	-0.476638	142.727628	-48.167077	53.548276
34740		15.660318	7.560836	-4.274119	5.641679	1.847174	7.081034	1.938675	-2.381532	-2.818402	-0.408447	-0.191162	0.747314	0.158140	0.073784	-0.040143	-0.088165	-0.833592	-0.288478	-0.462743	143.339884	-46.104934	54.228074
34741		13.419551	11.255510	-4.974163	6.074584	-2.007619	7.232630	1.798075	-2.185987	-2.578212	-0.379883	-0.195313	0.770264	0.136161	0.111241	-0.047256	-0.089761	-0.835604	-0.302311	-0.449796	143.928014	-44.221299	54.850613
34742		10.477390	12.670515	-5.528795	5.444590	-4.504454	6.027999	1.399215	-1.955078	-1.971564	-0.358643	-0.190186	0.777100	0.106547	0.126038	-0.053369	-0.091288	-0.837582	-0.312737	-0.438542	144.488971	-42.651038	55.200364
34743		7.688186	12.773902	-6.147164	4.175538	-6.036449	4.546346	0.880097	-1.742441	-1.491012	-0.333252	-0.177979	0.793213	0.078361	0.127425	-0.060232	-0.093580	-0.839442	-0.320037	-0.429134	144.891308	-41.343284	55.351568
34744		6.341615	12.794470	-6.297202	3.738372	-6.664180	3.795220	0.363352	-1.561609	-1.225789	-0.324951	-0.186035	0.794922	0.064687	0.127664	-0.062238	-0.097175	-0.840992	-0.325171	-0.421372	145.052315	-40.206406	55.423364
34745		4.873786	11.691596	-7.272721	2.002596	-6.650216	3.036414	0.072304	-1.437461	-0.947411	-0.305908	-0.181885	0.796387	0.049812	0.116708	-0.072330	-0.101194	-0.842515	-0.328543	-0.414714	145.120946	-39.220929	55.379464
34746		3.984800	9.739415	-9.214709	-0.660741	-5.763031	2.914960	0.111287	-1.327499	-0.761562	-0.293945	-0.184326	0.808594	0.040829	0.097291	-0.091824	-0.104479	-0.844081	-0.331256	-0.408510	145.251251	-38.346241	55.272768
34747		4.644310	9.422399	-6.860589	1.386369	-4.738191	1.721782	0.229343	-0.957773	-0.948777	-0.273926	-0.181641	0.801270	0.047217	0.094080	-0.068273	-0.107028	-0.844598	-0.335167	-0.403562	145.282904	-37.585947	55.433484
34748		6.251032	7.404456	-5.057117	2.581480	-1.891253	0.638803	-0.013359	-0.800964	-0.817005	-0.256836	-0.189941	0.810791	0.063014	0.073784	-0.050324	-0.110072	-0.844856	-0.338112	-0.399727	145.186938	-36.940906	55.578851
34749		7.620696	3.535703	-5.295283	1.191828	1.965116	-0.151748	-0.188717	-0.488398	-0.385219	-0.253174	-0.197021	0.806152	0.076404	0.035160	-0.052800	-0.112461	-0.845104	-0.339039	-0.397749	145.067568	-36.585515	55.596070
34750		6.933500	0.782567	-5.540908	-0.625479	3.581923	-1.678437	-0.062953	-0.098542	-0.320629	-0.247803	-0.199707	0.811279	0.069375	0.007697	-0.055377	-0.113530	-0.844752	-0.340168	-0.397228	144.949085	-36.432823	55.734097
34751		4.180447	0.552478	-5.479959	-1.948461	1.944744	-3.469759	0.018469	0.158807	-0.517235	-0.245361	-0.203125	0.813477	0.041775	0.005422	-0.054832	-0.114206	-0.843596	-0.342425	-0.397553	144.746999	-36.337091	56.091026
34752		2.255390	2.748267	-4.886232	-1.314660	-0.909799	-3.985258	-0.004634	0.365198	-0.543256	-0.242676	-0.206299	0.808838	0.022539	0.027420	-0.048904	-0.114678	-0.841966	-0.344869	-0.398759	144.473602	-36.326370	56.547509
34753		1.859796	4.687187	-4.113539	0.017425	-2.535702	-3.819391	-0.232675	0.569773	-0.243581	-0.245850	-0.209229	0.804932	0.018538	0.046801	-0.041243	-0.115156	-0.840303	-0.345702	-0.401397	144.120649	-36.510577	56.915927
34754		1.675427	5.277002	-4.031792	0.243671	-3.092473	-3.706454	-0.532633	0.812833	0.061681	-0.252441	-0.215820	0.793945	0.016574	0.052667	-0.040526	-0.115863	-0.838495	-0.344793	-0.405733	143.637132	-36.906658	57.213787
34755		1.343878	5.022304	-3.968614	-0.044387	-3.139982	-4.075319	-0.822140	1.092261	0.263179	-0.263184	-0.217041	0.802979	0.013155	0.050077	-0.039965	-0.116887	-0.836268	-0.342594	-0.411853	142.978599	-37.499181	57.522278
34756		0.967255	4.084421	-3.897552	-0.683495	-2.717004	-4.816798	-1.066030	1.357722	0.443799	-0.265381	-0.235107	0.793213	0.009316	0.040656	-0.039257	-0.118098	-0.833610	-0.339278	-0.419569	142.162357	-38.270689	57.856344
34757		0.753442	2.654497	-3.681997	-1.358738	-1.804929	-5.804391	-1.143699	1.630304	0.600637	-0.287842	-0.245850	0.780029	0.007154	0.026355	-0.037030	-0.118829	-0.830520	-0.335268	-0.428617	141.264227	-39.217828	58.242772
34758		0.360306	1.350033	-3.415476	-1.974214	-1.091121	-6.892206	-1.096298	1.911789	0.725954	-0.294189	-0.259766	0.777100	0.003227	0.013325	-0.034260	-0.118610	-0.826966	-0.330973	-0.438766	140.333820	-40.329006	58.714743
34759		-0.257559	0.582804	-3.233807	-2.466214	-0.923040	-7.830584	-0.961887	2.158816	0.834242	-0.313965	-0.268311	0.770508	-0.002948	0.005661	-0.032335	-0.117171	-0.823007	-0.326616	-0.449725	139.413286	-41.583720	59.276783
34760		-0.848665	0.747094	-3.292047	-2.707390	-1.459296	-8.183044	-0.744930	2.384380	0.941424	-0.331543	-0.274658	0.757568	-0.008913	0.007307	-0.032843	-0.114211	-0.818708	-0.322391	-0.461234	138.547547	-42.968160	59.928742
34761		-0.877003	1.533624	-3.396824	-2.508336	-2.125777	-7.851083	-0.582512	2.566805	1.075982	-0.347900	-0.273193	0.747314	-0.009287	0.015188	-0.033896	-0.109959	-0.814140	-0.318025	-0.473228	137.720080	-44.475864	60.641628
34762		-0.729522	2.187630	-3.974678	-2.717382	-2.660047	-7.233087	-0.556102	2.725130	1.285145	-0.375000	-0.274658	0.724609	-0.007976	0.021716	-0.039702	-0.104830	-0.809370	-0.312896	-0.485826	136.885355	-46.122634	61.367198
34763		-0.552161	2.897316	-4.644493	-3.008092	-3.263750	-6.561971	-0.726111	2.882035	1.540544	-0.406738	-0.277100	0.719727	-0.006413	0.028757	-0.046461	-0.099495	-0.804318	-0.306315	-0.499343	135.940254	-47.928414	62.088947
34764		-0.026441	3.524451	-4.807234	-2.834572	-3.553732	-5.957284	-1.066089	3.032675	1.818284	-0.438721	-0.277588	0.696533	-0.001314	0.034979	-0.048245	-0.094574	-0.798900	-0.297756	-0.513961	134.787425	-49.896981	62.807481
34765		0.110943	3.571572	-5.298667	-3.335477	-3.677586	-5.789172	-1.327798	3.126449	2.210597	-0.468262	-0.279541	0.679199	-0.000114	0.035366	-0.053227	-0.089514	-0.793399	-0.286883	-0.529343	133.537615	-52.054862	63.435657
34766		-0.279077	3.326936	-5.631610	-3.970607	-3.824672	-6.282714	-1.632373	3.188749	2.585841	-0.495605	-0.279541	0.656494	-0.004117	0.032761	-0.056526	-0.084540	-0.787780	-0.273622	-0.545331	132.167773	-54.384043	63.977580
34767		-0.241136	2.771155	-6.318098	-4.915551	-3.514029	-6.475486	-1.709179	3.192994	2.896495	-0.530029	-0.274902	0.630371	-0.003818	0.027122	-0.063361	-0.078972	-0.782136	-0.258784	-0.561299	130.801520	-56.840563	64.445290
34768		0.518404	2.032559	-6.937067	-5.678557	-2.671168	-6.188585	-1.550383	3.192896	3.143740	-0.563232	-0.273438	0.612305	0.003760	0.019853	-0.069593	-0.072047	-0.776448	-0.243287	-0.576844	129.545121	-59.397801	64.878147
34769		0.780808	2.195895	-7.590633	-6.318844	-2.877993	-5.961763	-1.308460	3.230280	3.266641	-0.590332	-0.262939	0.593018	0.006225	0.021572	-0.076157	-0.063742	-0.770446	-0.227883	-0.591962	128.337917	-62.018418	65.401709
34770		0.886239	3.378295	-7.361469	-5.896592	-3.938222	-5.800291	-1.159476	3.221194	3.315345	-0.618164	-0.252441	0.565430	0.007117	0.033483	-0.073933	-0.054693	-0.764138	-0.212603	-0.606549	127.094112	-64.651232	66.049515
34771		1.653892	4.304886	-7.791501	-6.084156	-4.666976	-4.999712	-1.069422	3.035092	3.212119	-0.646729	-0.239990	0.549805	0.014662	0.042876	-0.078377	-0.045780	-0.757893	-0.197822	-0.619975	125.813730	-67.166534	66.780009
34772		3.777286	6.730451	-8.481732	-6.017359	-6.426776	-2.465825	-0.847151	2.875623	2.847185	-0.666260	-0.224121	0.510742	0.035586	0.067460	-0.085625	-0.037293	-0.751476	-0.184985	-0.632198	124.311337	-69.449831	67.873918
34773		6.008497	11.318508	-7.987795	-4.434450	-10.115881	0.482689	-0.755402	2.742117	2.350287	-0.695557	-0.217285	0.503418	0.057645	0.113567	-0.081108	-0.030141	-0.744748	-0.174208	-0.643500	122.281613	-71.439929	69.567838
34774		7.295096	12.617827	-7.241085	-3.581032	-11.105346	1.531002	-0.925531	2.526965	2.512542	-0.716797	-0.198730	0.477539	0.070434	0.126734	-0.073897	-0.023277	-0.738577	-0.162189	-0.653955	120.222429	-73.423841	71.170914
34775		7.304758	4.705898	-6.846829	-5.098315	-3.839250	-0.777309	-0.736660	2.191917	3.159038	-0.734863	-0.185303	0.468262	0.071537	0.047942	-0.069433	-0.013867	-0.733780	-0.148304	-0.662858	119.119513	-75.620125	71.876946
34776		10.158141	-0.172408	-7.738920	-6.873823	1.065635	0.897865	-0.040903	1.635177	2.169131	-0.751465	-0.154053	0.443359	0.100955	-0.000643	-0.078216	-0.005592	-0.729934	-0.140274	-0.668945	118.190043	-77.162261	72.808764
34777		10.969118	3.306817	-7.768928	-6.272619	-2.303774	2.309908	0.395302	1.082165	0.497575	-0.757568	-0.160156	0.447266	0.109186	0.033494	-0.078215	-0.001704	-0.726697	-0.139775	-0.672586	116.565496	-77.702679	74.705044
34778		8.539408	7.496989	-6.894258	-4.762823	-6.751445	0.598382	0.450447	0.588644	0.040478	-0.757568	-0.150146	0.438232	0.085176	0.075143	-0.069024	0.000503	-0.724780	-0.141112	-0.674374	115.501477	-77.874081	76.057455
34779		6.867672	10.088628	-6.655432	-4.083420	-9.549614	-0.573066	0.125492	0.064867	-0.282977	-0.765381	-0.149658	0.451660	0.068798	0.100831	-0.066513	0.000071	-0.724399	-0.142529	-0.674487	115.129013	-77.745521	76.512003
34780		3.932878	11.680993	-7.116966	-4.364944	-11.734154	-3.043617	-0.419184	-0.437768	-0.485820	-0.750977	-0.156006	0.449951	0.039768	0.116564	-0.071327	-0.003375	-0.725559	-0.142839	-0.673164	115.409166	-77.389346	75.978881
34781		4.119061	13.855901	-1.457302	1.581107	-12.662983	-2.868344	-0.481521	-0.615652	-0.785959	-0.753174	-0.164795	0.443604	0.041780	0.138360	-0.014778	-0.008187	-0.727089	-0.144029	-0.671215	115.705480	-76.832589	75.391989
34782		7.098630	13.590511	-3.189441	-0.075480	-11.964063	0.292504	-1.344258	-1.043691	-1.217050	-0.739258	-0.170898	0.447510	0.071979	0.135252	-0.032431	-0.017887	-0.729657	-0.143856	-0.668272	115.932029	-75.946963	74.366151
34783		12.354956	4.193533	2.289911	3.840499	-0.758246	2.842348	-2.305353	-0.868788	-0.249198	-0.743896	-0.173828	0.451172	0.123502	0.042046	0.022951	-0.027735	-0.732155	-0.136948	-0.666652	116.154889	-75.601317	72.773822
34784		42.501723	-20.798575	1.932661	2.027444	30.231247	26.582551	-2.204140	-0.644091	0.841387	-0.740479	-0.181396	0.450928	0.425816	-0.205956	0.022974	-0.033415	-0.734553	-0.126385	-0.665839	117.065808	-75.869535	70.530577
34785		24.183364	-9.329945	-2.271237	-1.518546	14.381741	11.818234	-0.381512	-0.551650	-0.559869	-0.729248	-0.183838	0.454102	0.241632	-0.094018	-0.021867	-0.037008	-0.736001	-0.127047	-0.663921	117.399046	-75.441254	69.961013
34786		17.468784	-3.677051	-5.820344	-4.635817	7.073514	6.951106	-0.946662	-1.113917	-0.222541	-0.737549	-0.191162	0.447510	0.174966	-0.037237	-0.057054	-0.041914	-0.739397	-0.124477	-0.660334	118.791140	-75.030427	67.960186
34787		12.937657	-5.101253	-10.317223	-9.498863	7.013819	2.853215	-0.855678	-0.972452	0.275831	-0.731445	-0.193115	0.460449	0.129946	-0.051273	-0.102322	-0.044749	-0.742620	-0.120391	-0.657281	120.421467	-74.894141	65.764332
34788		8.037601	-1.086474	-9.123573	-8.233472	2.157380	-1.061837	-0.371038	-0.952840	-0.104369	-0.720947	-0.191895	0.474609	0.080804	-0.011076	-0.090831	-0.047020	-0.745630	-0.119307	-0.653904	121.832712	-74.562613	64.080767
34789		5.851159	1.926857	-8.058856	-7.019013	-1.120939	-2.575971	-0.081326	-0.815077	-0.685561	-0.724121	-0.202637	0.468994	0.058905	0.019034	-0.080357	-0.050027	-0.747895	-0.121367	-0.650708	122.474766	-73.982789	63.365293
34790		4.080823	6.200124	-5.978414	-4.639282	-5.451535	-3.520397	0.327288	-0.538792	-1.054890	-0.714111	-0.207520	0.479004	0.041296	0.061882	-0.059572	-0.052539	-0.749109	-0.126202	-0.648189	122.467751	-73.308883	63.567726
34791		4.949712	9.894399	-2.427450	-0.525783	-8.425080	-2.260758	0.420709	-0.375581	-0.918530	-0.707275	-0.209717	0.487793	0.049996	0.098766	-0.023973	-0.054154	-0.749886	-0.130870	-0.646229	122.404322	-72.750327	63.886119
34792		9.901851	9.134552	-1.502497	0.990691	-6.219907	2.190418	0.010792	-0.441486	-0.685861	-0.701172	-0.210449	0.486572	0.099364	0.091006	-0.014801	-0.056596	-0.750894	-0.133317	-0.644346	122.441558	-72.284745	63.853256
34793		14.907836	2.237243	-2.172231	0.165658	1.772478	5.313378	-0.349158	-0.314672	-0.348981	-0.703857	-0.212891	0.480713	0.149151	0.022075	-0.021526	-0.059220	-0.751612	-0.133380	-0.643259	122.404834	-72.020101	63.681801
34794		12.166287	-1.639782	-2.424375	-0.911743	4.737982	1.733101	0.264516	-0.194266	-0.064287	-0.706299	-0.209229	0.491699	0.121681	-0.016405	-0.024147	-0.058540	-0.752306	-0.134375	-0.642302	122.804939	-71.930825	63.420117
34795		9.101267	4.474022	-2.033447	-0.138824	-1.904030	0.352930	0.746892	-0.242515	-0.586767	-0.708008	-0.209473	0.485107	0.091168	0.044548	-0.020057	-0.057757	-0.752939	-0.138874	-0.640672	123.055615	-71.573949	63.606875
34796		8.127360	9.329357	-2.607118	-0.116850	-6.814427	0.837993	0.549257	-0.263905	-0.602398	-0.706543	-0.211670	0.495361	0.081588	0.093119	-0.025708	-0.057780	-0.753552	-0.142785	-0.639087	123.206843	-71.203936	63.779059
34797		7.249561	8.901112	-3.320151	-0.948352	-6.685528	0.047003	0.109360	-0.239985	-0.284790	-0.702393	-0.215332	0.502686	0.072662	0.088926	-0.033066	-0.058459	-0.754190	-0.144084	-0.637981	123.364403	-70.991804	63.674681
34798		9.056348	5.215561	-3.856659	-1.715815	-2.682048	0.862325	-0.089720	-0.224956	-0.055963	-0.711670	-0.207520	0.501465	0.090621	0.052113	-0.038488	-0.059117	-0.754874	-0.143904	-0.637151	123.593220	-70.895582	63.377900
34799		10.870246	1.809440	-3.715248	-1.777584	1.106498	1.626509	0.045476	-0.128705	0.066052	-0.700439	-0.203857	0.506592	0.108720	0.018139	-0.037078	-0.058840	-0.755389	-0.143707	-0.636611	123.877242	-70.885539	63.100540
34800		10.215237	1.545769	-3.226006	-1.416823	1.202730	0.850034	0.393887	-0.062935	0.010218	-0.706543	-0.201172	0.503418	0.102162	0.015526	-0.032197	-0.057344	-0.755745	-0.144865	-0.636062	124.218726	-70.871752	62.977664
34801		9.077075	4.409405	-2.974858	-0.898127	-1.834699	0.507830	0.574924	-0.061752	-0.146789	-0.708252	-0.207031	0.512939	0.090812	0.044113	-0.029594	-0.055692	-0.756041	-0.147177	-0.635326	124.516272	-70.781829	63.007533
34802		8.411679	6.237517	-2.194309	0.074475	-3.689693	0.230145	0.449634	-0.013466	-0.007917	-0.698486	-0.199219	0.511963	0.084121	0.062421	-0.021797	-0.054006	-0.756236	-0.148592	-0.634910	124.804799	-70.775185	62.974491
34803		8.605937	5.565431	-2.051455	0.163358	-2.991205	0.200833	0.273893	-0.029513	0.152992	-0.715576	-0.193604	0.509521	0.086020	0.055748	-0.020426	-0.052521	-0.756561	-0.148821	-0.634594	125.166277	-70.836481	62.753451
34804		9.136995	4.111829	-2.040228	0.039035	-1.475088	0.305459	0.194414	0.001290	0.201654	-0.712646	-0.192383	0.506836	0.091328	0.041230	-0.020363	-0.051124	-0.756792	-0.148636	-0.634476	125.488971	-70.932565	62.529505
34805		9.174380	3.205149	-2.158450	-0.205807	-0.641993	0.119410	0.231850	0.028277	0.258005	-0.709473	-0.188965	0.512207	0.091699	0.032195	-0.021560	-0.049417	-0.756996	-0.148352	-0.634434	125.854618	-71.061230	62.279550
34806		9.038376	2.971511	-2.171510	-0.268620	-0.489874	-0.069723	0.254902	0.043773	0.245601	-0.721680	-0.188965	0.518555	0.090342	0.029854	-0.021697	-0.047620	-0.757136	-0.148203	-0.634440	126.204058	-71.191088	62.064290
34807		8.966867	2.641354	-1.846350	-0.009675	-0.186440	-0.286117	0.238647	0.050934	0.245219	-0.724609	-0.187744	0.516846	0.089631	0.026545	-0.018455	-0.045912	-0.757256	-0.147992	-0.634471	126.538001	-71.320487	61.852007
34808		8.850540	2.142866	-1.386632	0.343929	0.281755	-0.612201	0.256837	0.044602	0.264981	-0.722900	-0.180420	0.517822	0.088474	0.021564	-0.013858	-0.044045	-0.757403	-0.147775	-0.634479	126.914916	-71.458673	61.609261
34809		9.018096	1.884736	-0.893353	0.812341	0.608507	-0.612354	0.253953	0.036991	0.229141	-0.732178	-0.170654	0.512695	0.090158	0.018962	-0.008926	-0.042341	-0.757554	-0.147670	-0.634439	127.267967	-71.575067	61.386488
34810		9.503217	1.846153	-0.959006	0.821851	0.748723	-0.148163	0.265713	0.012736	0.206113	-0.729248	-0.168701	0.519287	0.095012	0.018572	-0.009571	-0.040650	-0.757755	-0.147697	-0.634303	127.640276	-71.674379	61.154287
34811		9.705075	1.893713	-1.022910	0.806208	0.728625	0.068611	0.263420	0.018442	0.202125	-0.733398	-0.166748	0.515625	0.097031	0.019049	-0.010213	-0.039002	-0.757942	-0.147724	-0.634177	128.002798	-71.771358	60.928442
34812		9.490875	1.905867	-1.227617	0.584365	0.608791	-0.091374	0.270921	0.014578	0.215853	-0.734375	-0.171631	0.515381	0.094887	0.019178	-0.012257	-0.037259	-0.758141	-0.147729	-0.634042	128.392557	-71.874750	60.681280
34813		9.407834	2.187349	-0.977579	0.872741	0.328962	-0.149480	0.215076	0.006290	0.181745	-0.733887	-0.149170	0.528076	0.094058	0.021969	-0.009755	-0.035869	-0.758339	-0.147676	-0.633899	128.727894	-71.957336	60.454942
34814		9.222889	2.101765	-1.123316	0.695142	0.322629	-0.317762	0.102786	-0.020214	0.178320	-0.743896	-0.155029	0.526123	0.092211	0.021106	-0.011213	-0.034908	-0.758587	-0.147284	-0.633747	129.033693	-72.030548	60.195010
34815		8.953930	2.566560	-1.050581	0.815475	-0.198497	-0.476767	0.013818	-0.049956	0.142532	-0.740479	-0.155029	0.525146	0.089524	0.025730	-0.010482	-0.034441	-0.758895	-0.146735	-0.633531	129.291806	-72.074830	59.929592
34816		8.422393	2.663194	-0.837781	0.963840	-0.416094	-1.001952	-0.130737	-0.076030	0.138319	-0.746826	-0.144043	0.521240	0.084209	0.026685	-0.008363	-0.034534	-0.759248	-0.145745	-0.633331	129.498744	-72.109310	59.633088
34817		8.359825	1.685209	-0.559414	1.058366	0.530446	-1.348763	-0.313498	-0.158379	0.083080	-0.741699	-0.156006	0.515137	0.083596	0.016878	-0.005554	-0.035575	-0.759797	-0.144367	-0.632931	129.651982	-72.087221	59.281114
34818		8.229519	1.074823	0.127273	1.611555	1.167009	-1.754313	-0.367942	-0.239067	-0.029693	-0.745605	-0.149414	0.524658	0.082295	0.010738	0.001351	-0.037218	-0.760499	-0.143234	-0.632250	129.754660	-71.987474	58.951246
34819		8.454427	0.079639	0.312090	1.678685	2.207903	-1.819679	-0.404018	-0.338933	-0.105713	-0.745605	-0.155518	0.529785	0.084539	0.000758	0.003263	-0.039329	-0.761458	-0.142254	-0.631188	129.882956	-71.815669	58.570654
34820		9.264760	-0.732045	0.453276	1.845632	3.232332	-1.284932	-0.370319	-0.442355	-0.215097	-0.745605	-0.162842	0.529541	0.092629	-0.007411	0.004751	-0.041712	-0.762659	-0.141778	-0.629691	130.040096	-71.559233	58.181325
34821		9.573717	-0.714264	0.716040	2.198803	3.352202	-1.060163	-0.314592	-0.513980	-0.269407	-0.740723	-0.159424	0.528564	0.095709	-0.007260	0.007418	-0.044120	-0.764057	-0.141664	-0.627855	130.254534	-71.250550	57.762882
34822		10.179523	-0.540431	0.391147	2.066020	3.346828	-0.400056	-0.283730	-0.605084	-0.350164	-0.729248	-0.165527	0.530518	0.101773	-0.005577	0.004227	-0.046711	-0.765674	-0.141938	-0.625632	130.503626	-70.873872	57.327356
34823		9.799570	0.244533	-0.095400	1.708808	2.481765	-0.484194	-0.193117	-0.679221	-0.402139	-0.739502	-0.160889	0.537109	0.098003	0.002248	-0.000623	-0.049183	-0.767502	-0.142672	-0.623031	130.826886	-70.444856	56.865834
34824		9.294387	0.280562	-0.468237	1.320984	2.314384	-0.891832	-0.143886	-0.750539	-0.461374	-0.723389	-0.166260	0.547119	0.092967	0.002588	-0.004335	-0.051687	-0.769501	-0.143769	-0.620102	131.183965	-69.963887	56.398400
34825		9.168396	0.340271	-0.732612	1.115671	2.247874	-0.957539	-0.020625	-0.829222	-0.532156	-0.721436	-0.182861	0.547607	0.091722	0.003158	-0.006946	-0.054001	-0.771713	-0.145496	-0.616744	131.610142	-69.420457	55.930171
34826		9.375069	0.827686	-0.812636	1.229043	1.895139	-0.640207	0.082455	-0.909430	-0.577008	-0.718994	-0.167725	0.561523	0.093810	0.008010	-0.007697	-0.056103	-0.774143	-0.147690	-0.612979	132.115099	-68.827077	55.439988
34827		9.798026	1.064635	-0.471377	1.766236	1.893925	-0.291695	0.155286	-0.983131	-0.631610	-0.708252	-0.173584	0.569580	0.098035	0.010340	-0.004224	-0.058154	-0.776758	-0.150290	-0.608834	132.659498	-68.179447	54.949105
34828		9.516645	1.363605	0.042772	2.339497	1.644105	-0.633896	0.220226	-1.046497	-0.686790	-0.692871	-0.179199	0.570313	0.095208	0.013308	0.000941	-0.060156	-0.779509	-0.153280	-0.604361	133.222543	-67.483337	54.477060
34829		8.806503	1.703148	0.598896	2.863775	1.226462	-1.380181	0.250929	-1.150389	-0.749187	-0.701416	-0.184814	0.576172	0.088092	0.016694	0.006517	-0.062311	-0.782505	-0.156566	-0.599408	133.815306	-66.717604	53.988444
34830		9.407283	1.188410	0.570089	2.986855	1.982214	-1.015982	0.281125	-1.274462	-0.840120	-0.677979	-0.187256	0.581543	0.094083	0.011480	0.006317	-0.064707	-0.785764	-0.160254	-0.593891	134.423257	-65.863981	53.500065
34831		9.364605	0.836455	0.686472	3.134257	2.401005	-1.252537	0.361797	-1.388899	-0.947519	-0.671631	-0.190918	0.602539	0.093633	0.007908	0.007530	-0.067199	-0.789254	-0.164552	-0.587779	135.046269	-64.917626	53.041663
34832		9.433579	0.506088	0.625409	3.148619	2.829821	-1.344196	0.428398	-1.510629	-1.062396	-0.653320	-0.192383	0.603760	0.094310	0.004545	0.006977	-0.069853	-0.792961	-0.169448	-0.581051	135.671914	-63.874189	52.619768
34833		10.071800	0.357010	0.106793	2.928080	3.264814	-0.738340	0.526035	-1.639921	-1.205312	-0.643311	-0.202637	0.621826	0.100724	0.002959	0.001902	-0.072645	-0.796880	-0.175128	-0.573615	136.298121	-62.718005	52.254964
34834		11.803125	-0.098674	0.139820	3.503759	4.466510	0.536764	0.627881	-1.756778	-1.398942	-0.615479	-0.202637	0.629395	0.118002	-0.001819	0.002430	-0.075672	-0.800901	-0.181812	-0.565488	136.877890	-61.435934	52.005652
34835		14.177755	-0.742968	-0.303519	3.835864	6.112511	2.417050	0.728299	-1.893943	-1.556238	-0.604492	-0.204102	0.641357	0.141735	-0.008525	-0.001723	-0.078863	-0.805087	-0.189324	-0.556572	137.457469	-60.033371	51.818133
34836		16.429648	0.258027	-0.130340	5.132754	6.344927	4.449081	0.863840	-2.016364	-1.686670	-0.589111	-0.197754	0.653809	0.164312	0.001195	0.000360	-0.081965	-0.809398	-0.197662	-0.546889	138.067224	-58.528248	51.684282
34837		18.887384	-1.953044	0.923183	6.643928	9.746385	5.095137	0.684393	-2.170986	-1.759258	-0.569580	-0.210938	0.671387	0.188578	-0.021226	0.011209	-0.086132	-0.813826	-0.205695	-0.536617	138.588078	-56.928637	51.531007
34838		20.117020	-5.406122	1.011599	6.559993	13.702768	4.474274	0.770757	-2.280272	-1.818883	-0.544922	-0.211914	0.682861	0.200536	-0.055931	0.012192	-0.090198	-0.818346	-0.214116	-0.525670	139.150964	-55.258752	51.384582
34839		19.089093	-4.668250	0.721986	6.356266	12.883822	3.614330	1.080838	-2.396758	-2.003191	-0.520996	-0.213135	0.703613	0.190308	-0.048637	0.009244	-0.093583	-0.822910	-0.223990	-0.513701	139.807907	-53.469224	51.336957
34840		19.822527	-4.403008	0.370078	6.614326	13.311298	4.025032	1.255292	-2.516138	-2.204160	-0.490723	-0.214600	0.711914	0.197659	-0.046243	0.005904	-0.096871	-0.827393	-0.235026	-0.500799	140.477000	-51.552733	51.399847
34841		20.427415	-3.503663	0.292632	7.271681	13.211488	4.406283	1.400560	-2.575353	-2.438990	-0.473877	-0.213867	0.733643	0.203768	-0.037555	0.005295	-0.100182	-0.831538	-0.247273	-0.487200	141.106148	-49.526485	51.622679
34842		19.890627	-1.324341	-0.551441	7.253407	11.449590	4.814232	1.412651	-2.615883	-2.634969	-0.427979	-0.226318	0.738525	0.198759	-0.015836	-0.003020	-0.103933	-0.835228	-0.260266	-0.473132	141.648012	-47.412539	51.979713
34843		18.135793	0.220745	-1.957870	6.114495	9.562638	4.467417	1.741974	-2.613317	-2.693669	-0.412109	-0.215088	0.759766	0.181602	-0.000081	-0.017201	-0.106404	-0.838668	-0.274153	-0.458426	142.345304	-45.283183	52.392634
34844		17.307615	5.299661	-3.673204	6.513393	5.282661	6.641838	2.004951	-2.634306	-3.117995	-0.368896	-0.218506	0.767334	0.174337	0.050635	-0.033926	-0.108720	-0.841314	-0.290305	-0.442824	143.010237	-42.998961	53.087013
34845		15.296816	9.647796	-4.515407	7.090371	1.117281	7.388661	1.941532	-2.440953	-3.148507	-0.340332	-0.208252	0.787354	0.154994	0.094469	-0.042347	-0.111042	-0.843038	-0.306370	-0.427895	143.581148	-40.800233	53.893479
34846		12.470594	11.985135	-5.375401	6.605985	-1.986254	6.933436	1.706914	-2.211165	-2.453462	-0.313721	-0.196045	0.799805	0.126744	0.118750	-0.051344	-0.112460	-0.844845	-0.319037	-0.414494	144.239389	-38.947461	54.391839
34847		9.871566	12.439317	-6.117610	5.477388	-3.639254	5.882618	1.153345	-1.992044	-1.847843	-0.289063	-0.200195	0.804932	0.100459	0.123817	-0.059466	-0.114572	-0.846614	-0.328019	-0.403139	144.749296	-37.404867	54.634985
34848		8.437961	12.626009	-6.706667	4.784701	-4.450612	5.447744	0.706595	-1.749287	-1.439591	-0.266357	-0.195801	0.814209	0.085866	0.125880	-0.065875	-0.117341	-0.848157	-0.334467	-0.393692	145.085348	-36.109536	54.749475
34849		7.124015	12.517887	-7.875973	3.496446	-5.068260	5.404395	0.375705	-1.536953	-1.134201	-0.247070	-0.188965	0.809570	0.072550	0.124917	-0.077971	-0.120537	-0.849496	-0.339041	-0.385847	145.283261	-35.016872	54.777896
34850		5.342846	10.947844	-9.945541	0.565786	-5.016425	5.081109	0.242358	-1.401570	-0.823474	-0.231201	-0.193115	0.815918	0.054574	0.109375	-0.098943	-0.123467	-0.850954	-0.342105	-0.378943	145.473584	-34.086831	54.686645
34851		4.687422	10.326842	-7.900088	1.588340	-4.744627	3.071009	0.211564	-1.013061	-0.926563	-0.211914	-0.196289	0.828369	0.047751	0.103132	-0.078651	-0.126047	-0.851429	-0.345757	-0.373676	145.526328	-33.308952	54.808381
34852		6.266955	7.906963	-5.662385	2.859138	-1.672469	1.272624	-0.148983	-0.834010	-0.807260	-0.201904	-0.202881	0.813721	0.063223	0.078773	-0.056420	-0.129629	-0.851515	-0.348338	-0.369837	145.373974	-32.651922	54.930901
34853		7.945247	3.621473	-5.409228	1.755789	2.684526	-0.055027	-0.324457	-0.462844	-0.356496	-0.194580	-0.204834	0.815674	0.079642	0.035985	-0.053967	-0.132471	-0.851564	-0.348897	-0.368185	145.180996	-32.318759	54.942138
34854		7.678113	0.436302	-5.342958	0.093449	4.834554	-1.793379	-0.025183	0.053978	-0.195346	-0.188721	-0.207275	0.821289	0.076771	0.004281	-0.053451	-0.132844	-0.851139	-0.349673	-0.368299	145.101577	-32.279058	55.063210
34855		4.706424	0.124291	-5.358314	-1.529933	2.998287	-3.524054	0.138057	0.397758	-0.273802	-0.186768	-0.202148	0.821289	0.046959	0.001216	-0.053676	-0.132060	-0.850047	-0.351297	-0.369555	145.020362	-32.377375	55.361070
34856		1.975508	2.817485	-5.114757	-1.341312	-0.840125	-3.854784	0.117910	0.643545	-0.265411	-0.185791	-0.203369	0.822998	0.019628	0.028179	-0.051194	-0.130919	-0.848496	-0.353020	-0.371875	144.878112	-32.590813	55.751172
34857		1.037554	5.564781	-4.621261	-0.077551	-3.461552	-3.377561	-0.177746	0.840371	-0.030089	-0.189209	-0.206543	0.824707	0.010189	0.055605	-0.046305	-0.130239	-0.846787	-0.353306	-0.375719	144.591973	-32.975383	56.089695
34858		1.089400	6.242892	-4.438258	0.360658	-3.929190	-3.157663	-0.650662	1.053304	0.337484	-0.205322	-0.221680	0.813477	0.010554	0.062302	-0.044642	-0.130497	-0.844995	-0.351288	-0.381510	144.095826	-33.577452	56.313947
34859		1.150485	5.083243	-4.182156	-0.091547	-3.077209	-3.881867	-1.033419	1.337367	0.692190	-0.210449	-0.229004	0.802979	0.011048	0.050654	-0.042158	-0.131184	-0.842981	-0.347193	-0.389398	143.417767	-34.431294	56.465701
34860		0.913081	3.200216	-3.745060	-0.887659	-1.894096	-5.260328	-1.239809	1.619584	0.961030	-0.231201	-0.236816	0.807373	0.008673	0.031811	-0.037720	-0.131718	-0.840662	-0.341724	-0.398952	142.629429	-35.502970	56.601207
34861		0.511284	1.596875	-3.474226	-1.703043	-1.014445	-6.503391	-1.242285	1.874166	1.170925	-0.242188	-0.249756	0.789307	0.004694	0.015781	-0.034886	-0.131386	-0.838068	-0.335475	-0.409678	141.828822	-36.764172	56.749931
34862		-0.018469	0.696951	-3.315962	-2.288900	-0.722618	-7.421076	-1.097534	2.111441	1.333821	-0.265137	-0.257568	0.772705	-0.000581	0.006784	-0.033192	-0.129697	-0.835215	-0.328948	-0.421175	141.085542	-38.185920	56.937469
34863		-0.512231	0.707559	-3.279683	-2.519788	-1.080371	-7.812171	-0.907271	2.317676	1.471986	-0.298828	-0.265381	0.781250	-0.005553	0.006887	-0.032766	-0.126554	-0.832110	-0.322303	-0.433242	140.419229	-39.749455	57.168638
34864		-0.820772	1.448314	-3.462191	-2.529515	-1.889002	-7.624049	-0.733865	2.492882	1.591127	-0.303711	-0.264893	0.768555	-0.008753	0.014288	-0.034568	-0.122125	-0.828747	-0.315589	-0.445722	139.819352	-41.429585	57.443840
34865		-0.756306	2.439561	-3.651052	-2.307198	-2.675771	-7.098096	-0.665212	2.646513	1.718799	-0.336426	-0.270996	0.759521	-0.008255	0.024205	-0.036485	-0.116850	-0.825077	-0.308504	-0.458714	139.229556	-43.223910	57.752123
34866		-0.493457	3.084855	-4.208384	-2.486570	-3.135412	-6.428346	-0.732177	2.766314	1.929987	-0.361572	-0.276855	0.746826	-0.005813	0.030641	-0.042120	-0.111155	-0.821193	-0.300390	-0.472284	138.614689	-45.144980	58.031899
34867		-0.413505	3.330626	-4.524537	-2.727063	-3.395059	-6.239394	-0.865453	2.920318	2.225689	-0.394043	-0.275391	0.725586	-0.005165	0.033057	-0.045318	-0.105037	-0.817044	-0.290724	-0.486710	137.956904	-47.244144	58.254784
34868		-0.818254	2.983215	-5.020977	-3.534550	-3.482035	-6.625693	-0.948103	3.020461	2.605929	-0.420654	-0.273926	0.712402	-0.009327	0.029478	-0.050215	-0.098149	-0.812846	-0.279254	-0.501663	137.351448	-49.528795	58.337514
34869		-1.359628	2.721180	-5.586974	-4.414353	-3.694430	-7.106011	-1.153025	3.122851	2.901990	-0.456299	-0.274902	0.687744	-0.014858	0.026680	-0.055799	-0.091160	-0.808332	-0.265981	-0.517246	136.694519	-51.972890	58.331427
34870		-0.970356	2.869866	-6.250230	-4.949288	-3.747878	-6.699327	-1.408595	3.169579	3.098443	-0.487061	-0.266602	0.670898	-0.011133	0.028093	-0.062533	-0.084591	-0.803430	-0.251147	-0.533170	135.936227	-54.512312	58.270029
34871		0.187548	2.737041	-7.089636	-5.543321	-3.232769	-5.738262	-1.454567	3.224806	3.247751	-0.527344	-0.270020	0.650146	0.000291	0.026867	-0.071106	-0.077688	-0.798095	-0.235466	-0.549148	135.163094	-57.135871	58.196063
34872		0.913356	2.222111	-7.165136	-5.720726	-2.534714	-5.575900	-1.501974	3.385299	3.458862	-0.560547	-0.258301	0.626709	0.007538	0.021821	-0.071953	-0.070162	-0.792068	-0.218739	-0.565560	134.343089	-59.909014	58.147970
34873		0.678354	1.019827	-6.887870	-5.993797	-1.587269	-6.573709	-1.471418	3.456506	3.704141	-0.593262	-0.255859	0.597168	0.005407	0.009799	-0.069053	-0.061694	-0.785585	-0.201000	-0.581935	133.600689	-62.812840	58.032360
34874		0.893884	0.881750	-6.916199	-6.117839	-1.444610	-6.668000	-0.907537	3.492217	3.560394	-0.617676	-0.233887	0.584229	0.007574	0.008646	-0.069342	-0.051355	-0.778505	-0.185348	-0.597443	132.975640	-65.670086	58.148535
34875		2.935693	3.549588	-7.170915	-5.445430	-3.376065	-4.193333	-0.291482	3.474622	3.104641	-0.648682	-0.214844	0.551758	0.027550	0.035828	-0.072250	-0.039962	-0.770749	-0.173190	-0.611845	132.208479	-68.328415	58.799721
34876		5.986815	12.941719	-7.364722	-3.233316	-11.488753	0.915527	-0.324929	3.346487	2.156087	-0.666260	-0.203369	0.524414	0.057224	0.129923	-0.074830	-0.031694	-0.762195	-0.164483	-0.625300	130.374716	-70.522772	60.558879
34877		7.060858	22.686840	-5.833063	0.075830	-20.434714	3.638852	-0.837408	3.506205	1.720750	-0.700439	-0.199219	0.493164	0.067607	0.227208	-0.060484	-0.026595	-0.752397	-0.155790	-0.639469	127.067975	-72.550759	63.538151
34878		3.952188	6.517578	-5.441799	-3.570897	-6.103973	-3.674044	-1.433872	3.069480	3.887475	-0.730225	-0.184814	0.479492	0.037404	0.065521	-0.055472	-0.017140	-0.745206	-0.136901	-0.652405	125.964378	-75.388597	63.831037
34879		7.588753	-3.496412	-6.695703	-6.421071	3.918984	-2.193696	-0.032452	2.838804	3.090763	-0.749023	-0.163818	0.464111	0.075455	-0.033807	-0.068025	-0.005212	-0.737929	-0.125458	-0.663095	124.704916	-77.775394	65.106130
34880		13.167410	-1.174583	-7.789614	-6.808782	2.270949	3.748512	1.004545	2.312758	1.260108	-0.764404	-0.137451	0.439453	0.130830	-0.010523	-0.079467	0.004146	-0.731039	-0.124152	-0.670933	121.833252	-79.108233	68.624154
34881		9.620872	5.083729	-7.917043	-6.185296	-4.710236	1.170696	1.578576	1.936908	0.510826	-0.778809	-0.124756	0.434814	0.095307	0.051709	-0.079691	0.012855	-0.724802	-0.127495	-0.676935	118.380137	-79.920634	73.055307
34882		6.749624	10.294062	-7.217564	-4.593372	-10.263779	-1.027940	1.560721	1.462894	0.008045	-0.772949	-0.122314	0.423096	0.066966	0.103505	-0.071860	0.019493	-0.719750	-0.132613	-0.681171	115.028436	-80.304127	77.364883
34883		4.874378	13.967895	-6.360467	-2.945259	-14.002848	-2.426061	0.876381	0.929958	-0.376638	-0.785156	-0.115723	0.423096	0.048712	0.139865	-0.063219	0.022003	-0.716270	-0.136829	-0.683924	112.203909	-80.322180	80.739510
34884		4.959976	15.366341	-3.432429	0.299575	-14.685143	-2.278544	0.555417	0.341886	-0.577579	-0.789063	-0.109863	0.422363	0.049985	0.153614	-0.033983	0.022274	-0.714674	-0.140724	-0.684793	110.801529	-80.089115	82.485263
34885		8.666235	18.961343	-7.053446	-2.236329	-18.172655	2.398899	0.138761	-0.856540	-1.918189	-0.773193	-0.128662	0.429932	0.088776	0.188817	-0.070026	0.015617	-0.716240	-0.148117	-0.681775	111.260487	-78.889082	82.099449
34886		10.345023	10.359165	4.100031	6.655569	-6.916616	1.977211	-1.069082	-0.938702	-1.924174	-0.770752	-0.139404	0.427979	0.104250	0.102810	0.040937	0.004556	-0.718084	-0.151392	-0.679275	111.172918	-77.669780	81.563003
34887		39.770692	-16.360030	0.961772	-0.957874	24.269020	25.687880	-3.195984	-1.288246	0.200314	-0.764404	-0.153564	0.442139	0.397786	-0.162993	0.014788	-0.007199	-0.722614	-0.139804	-0.676928	112.677013	-77.501803	78.148138
34888		30.734410	-26.954986	-6.684767	-10.056711	31.365615	15.304637	-1.188134	-1.172635	-0.400039	-0.759766	-0.168213	0.433594	0.307182	-0.270548	-0.063441	-0.013642	-0.726270	-0.137146	-0.673451	114.347012	-77.026313	75.737817
34889		11.347627	-3.776066	-9.832376	-9.592592	4.558264	1.452264	-0.922736	-1.828263	0.094801	-0.746338	-0.161621	0.445313	0.114386	-0.038156	-0.097105	-0.017904	-0.732428	-0.133530	-0.667381	117.967462	-76.614982	71.476470
34890		11.476601	-2.376527	-12.950223	-12.180128	2.932998	2.357011	-1.066517	-1.666574	0.268213	-0.739258	-0.171143	0.452637	0.115871	-0.024297	-0.128411	-0.022004	-0.738072	-0.128797	-0.661950	121.145957	-76.279546	67.578140
34891		5.688364	-0.651601	-9.670907	-9.054542	0.586746	-3.181141	-0.452958	-1.323746	-0.169035	-0.731689	-0.173096	0.456055	0.057516	-0.006783	-0.096315	-0.025064	-0.742317	-0.127738	-0.657283	123.291457	-75.794273	65.099924
34892		1.076693	5.519870	-7.430203	-6.302607	-6.042847	-6.557695	0.199953	-1.021589	-1.614308	-0.729736	-0.177002	0.467773	0.011592	0.055182	-0.074189	-0.030256	-0.744668	-0.134216	-0.653100	123.360140	-74.701501	65.147064
34893		1.751550	8.401054	-6.427725	-4.730774	-8.468778	-5.245711	0.344257	-0.822564	-1.783512	-0.715576	-0.177490	0.476563	0.018528	0.083959	-0.064058	-0.035326	-0.746216	-0.141816	-0.649463	123.005926	-73.589031	65.720464
34894		5.608168	7.086361	-4.623411	-2.654459	-5.924846	-2.009306	0.718885	-0.655496	-0.791083	-0.715088	-0.184814	0.484619	0.056512	0.070806	-0.045795	-0.035655	-0.747930	-0.146946	-0.646325	123.656849	-73.005603	65.470598
34895		10.492809	7.651883	-2.587728	0.133249	-4.797563	2.528681	0.843451	-0.586941	-1.116568	-0.707275	-0.186035	0.489258	0.105428	0.076039	-0.025247	-0.036519	-0.749179	-0.153706	-0.643250	123.922439	-72.287135	65.698953
34896		14.519872	7.722938	-2.090035	1.235800	-3.479299	6.348981	0.257908	-0.595995	-1.554628	-0.707520	-0.194580	0.496094	0.145855	0.076124	-0.020368	-0.040989	-0.749957	-0.160208	-0.640482	123.452161	-71.358151	66.349135
34897		13.314847	3.724524	-3.110880	-0.594215	-0.041424	4.346390	0.068449	-0.445600	-0.325031	-0.696777	-0.195313	0.500732	0.133278	0.037039	-0.030799	-0.042112	-0.751179	-0.161523	-0.638645	123.836854	-71.061755	65.984570
34898		9.575670	4.322428	-3.455078	-1.252867	-1.726688	1.039177	0.389338	-0.404955	-0.205690	-0.699951	-0.194824	0.514404	0.095871	0.043193	-0.034273	-0.041613	-0.752420	-0.163415	-0.636733	124.444750	-70.835536	65.577136
34899		7.872201	6.694366	-3.932446	-1.430349	-4.513312	0.179001	0.369912	-0.454326	-0.402359	-0.700195	-0.182373	0.513916	0.078945	0.066857	-0.039022	-0.041855	-0.753653	-0.165981	-0.634591	124.916354	-70.497725	65.302343
34900		7.795842	7.331238	-3.945975	-1.271217	-5.099357	0.310211	0.234325	-0.433313	-0.376479	-0.695557	-0.193848	0.513672	0.078181	0.073211	-0.039205	-0.042506	-0.754796	-0.168014	-0.632651	125.291555	-70.179903	65.046170
34901		9.258400	5.981916	-3.981532	-1.319581	-3.342579	1.342554	0.066845	-0.409510	-0.374082	-0.697754	-0.191162	0.518555	0.092777	0.059659	-0.039606	-0.043804	-0.755839	-0.169496	-0.630919	125.534506	-69.867306	64.823481
34902		10.633090	3.859367	-3.772228	-1.304138	-0.858399	2.008872	0.075570	-0.300878	-0.111263	-0.690430	-0.197754	0.523193	0.106409	0.038549	-0.037548	-0.044105	-0.756745	-0.170051	-0.629662	125.876128	-69.716275	64.505273
34903		9.947991	3.029405	-3.259589	-1.042847	-0.214906	1.033092	0.279355	-0.208685	0.088200	-0.686035	-0.186279	0.533203	0.099500	0.030383	-0.032450	-0.042975	-0.757589	-0.170496	-0.628605	126.397461	-69.684254	64.114631
34904		8.778285	4.566494	-2.910968	-0.532225	-1.976750	0.296415	0.455010	-0.186623	-0.049627	-0.695557	-0.185791	0.531494	0.087821	0.045709	-0.028924	-0.041547	-0.758264	-0.172035	-0.627467	126.862688	-69.598868	63.896161
34905		8.557543	6.725941	-2.748712	0.083995	-4.044274	0.659269	0.416671	-0.177767	-0.048740	-0.697754	-0.172852	0.532959	0.085616	0.067296	-0.027271	-0.040299	-0.758916	-0.173435	-0.626373	127.293893	-69.512720	63.685421
34906		8.091607	7.270534	-2.858467	0.061394	-4.723326	0.394757	0.257264	-0.157255	0.119522	-0.700195	-0.174805	0.526855	0.080895	0.072790	-0.028427	-0.039066	-0.759598	-0.173717	-0.625545	127.763104	-69.513262	63.341565
34907		7.966809	6.293400	-2.971280	-0.250084	-3.882965	0.024252	0.093226	-0.134716	0.260680	-0.699707	-0.166504	0.534180	0.079606	0.063052	-0.029630	-0.038035	-0.760313	-0.172944	-0.624954	128.245835	-69.580865	62.879032
34908		8.522918	4.826492	-3.035278	-0.523253	-2.375288	0.148847	0.024388	-0.071657	0.380494	-0.704102	-0.174561	0.533936	0.085148	0.048431	-0.030316	-0.036796	-0.760905	-0.171522	-0.624700	128.731460	-69.726953	62.375678
34909		8.834965	3.841284	-3.136561	-0.771618	-1.409257	0.190738	0.051225	-0.005371	0.428555	-0.709961	-0.163086	0.543945	0.088268	0.038610	-0.031353	-0.035292	-0.761347	-0.170002	-0.624663	129.206970	-69.912964	61.895608
34910		8.584292	3.636215	-2.622536	-0.353781	-1.251961	-0.215962	0.113120	0.055014	0.390192	-0.717041	-0.160889	0.531250	0.085765	0.036544	-0.026228	-0.033576	-0.761561	-0.168841	-0.624813	129.614533	-70.106586	61.530567
34911		8.319130	3.654850	-2.339764	-0.115854	-1.342145	-0.526921	0.081493	0.067096	0.394076	-0.717529	-0.154541	0.536865	0.083111	0.036722	-0.023411	-0.032001	-0.761746	-0.167560	-0.625014	130.000727	-70.301589	61.165389
34912		8.642194	3.212387	-1.823429	0.339483	-0.786427	-0.453308	-0.030655	0.079396	0.423532	-0.718994	-0.152832	0.531006	0.086346	0.032304	-0.018274	-0.030708	-0.761881	-0.165825	-0.625377	130.345344	-70.517142	60.780638
34913		8.928710	2.332216	-1.512427	0.496268	0.134894	-0.475456	-0.121139	0.067991	0.487209	-0.720947	-0.149170	0.551514	0.089225	0.023530	-0.015169	-0.029609	-0.762101	-0.163557	-0.625759	130.728272	-70.751502	60.297202
34914		9.299278	1.678821	-1.188063	0.730938	0.866041	-0.356364	-0.162570	0.046729	0.462880	-0.731934	-0.148438	0.540771	0.092951	0.016994	-0.011916	-0.028723	-0.762342	-0.161253	-0.626105	131.097847	-70.970150	59.807094
34915		9.674555	1.427443	-1.399283	0.539549	1.135623	-0.014130	-0.145690	0.014402	0.418306	-0.725342	-0.136475	0.534668	0.096714	0.014467	-0.014010	-0.027978	-0.762661	-0.159159	-0.626286	131.477844	-71.152507	59.312955
34916		9.557196	1.624280	-1.041482	0.912122	0.934910	-0.150554	-0.127922	-0.023185	0.383708	-0.735352	-0.133301	0.536133	0.095542	0.016419	-0.010414	-0.027262	-0.763054	-0.157254	-0.626320	131.884953	-71.308464	58.805255
34917		9.339689	0.441079	-0.794654	0.881549	2.004894	-0.688050	-0.210127	-0.086768	0.338795	-0.742676	-0.131348	0.539551	0.093393	0.004561	-0.007911	-0.027080	-0.763609	-0.155254	-0.626151	132.281344	-71.416393	58.257297
34918		9.722028	-1.525493	-0.601131	0.752774	3.984889	-0.826018	-0.202265	-0.184166	0.226262	-0.731445	-0.137207	0.545654	0.097243	-0.015151	-0.005906	-0.027267	-0.764367	-0.153693	-0.625602	132.678940	-71.441236	57.715290
34919		9.787423	-2.192362	-0.205927	1.037952	4.685969	-1.003215	-0.011681	-0.239190	0.098309	-0.737061	-0.135254	0.538330	0.097887	-0.021876	-0.001941	-0.027195	-0.765235	-0.153210	-0.624662	133.106600	-71.386491	57.254531
34920		9.620779	-2.306531	0.178764	1.384724	4.807218	-1.275442	0.079105	-0.321671	-0.015289	-0.737793	-0.123047	0.538574	0.096203	-0.023073	0.001933	-0.027166	-0.766272	-0.153434	-0.623336	133.551850	-71.254035	56.832052
34921		9.391442	-2.389775	0.698707	1.859866	4.913264	-1.639622	0.111525	-0.423720	-0.134459	-0.740234	-0.135498	0.549316	0.093883	-0.023965	0.007173	-0.027483	-0.767548	-0.154202	-0.621560	133.994972	-71.028078	56.429661
34922		9.483777	-1.592321	1.016313	2.380403	4.249200	-1.458758	0.172712	-0.534414	-0.242928	-0.736084	-0.135498	0.548096	0.094791	-0.016047	0.010403	-0.027967	-0.769076	-0.155559	-0.619307	134.467204	-70.715026	56.034257
34923		9.551451	-0.392328	1.389144	3.042355	3.216444	-1.227117	0.177968	-0.638503	-0.332183	-0.729492	-0.132813	0.555420	0.095463	-0.004094	0.014193	-0.028807	-0.770859	-0.157259	-0.616617	134.946878	-70.320136	55.631763
34924		9.302758	0.017748	1.578858	3.316270	2.827890	-1.443743	0.173228	-0.765630	-0.403229	-0.726807	-0.136963	0.562744	0.092966	-0.000024	0.016145	-0.029965	-0.772954	-0.159197	-0.613434	135.466391	-69.846199	55.184454
34925		9.040215	0.820794	1.591856	3.508338	2.043525	-1.539356	0.200789	-0.885471	-0.481433	-0.729736	-0.136475	0.571045	0.090350	0.007974	0.016327	-0.031367	-0.775350	-0.161500	-0.609727	136.021607	-69.288262	54.713180
34926		8.794892	1.196411	1.467912	3.490941	1.654879	-1.688030	0.193426	-1.017143	-0.551872	-0.720703	-0.133789	0.585693	0.087905	0.011707	0.015138	-0.033101	-0.778056	-0.164028	-0.605498	136.603291	-68.648437	54.208403
34927		9.013265	1.633324	1.319486	3.571931	1.349026	-1.382507	0.191645	-1.138764	-0.623176	-0.703369	-0.139648	0.590332	0.090106	0.016039	0.013723	-0.035169	-0.781049	-0.166803	-0.600751	137.196650	-67.926158	53.686775
34928		9.065855	1.621426	0.983033	3.354124	1.399803	-1.293650	0.148614	-1.268706	-0.695892	-0.700439	-0.144043	0.605225	0.090649	0.015891	0.010417	-0.037718	-0.784319	-0.169700	-0.595503	137.776002	-67.120748	53.151636
34929		8.827041	1.021829	0.400100	2.714614	1.884273	-1.554383	0.137409	-1.387626	-0.756819	-0.691895	-0.139893	0.604248	0.088278	0.009881	0.004620	-0.040603	-0.787850	-0.172770	-0.589741	138.355775	-66.237602	52.604663
34930		8.947081	0.700824	-0.348188	2.075703	2.205909	-1.357748	0.191105	-1.519492	-0.860481	-0.680908	-0.144775	0.618408	0.089523	0.006626	-0.002795	-0.043681	-0.791629	-0.176369	-0.583360	138.936435	-65.258049	52.087585
34931		9.644648	0.003859	-0.677600	1.910327	3.144313	-0.871797	0.206553	-1.645234	-0.971881	-0.670410	-0.155518	0.628662	0.096497	-0.000424	-0.005983	-0.047138	-0.795618	-0.180412	-0.576386	139.481558	-64.178852	51.614874
34932		10.364052	-0.762002	-0.340890	2.376883	4.265594	-0.633261	0.300244	-1.742027	-1.091764	-0.653809	-0.152832	0.631836	0.103621	-0.008181	-0.002518	-0.050642	-0.799715	-0.185160	-0.568865	140.005486	-63.012475	51.221680
34933		10.962097	-0.281870	0.070274	3.190456	4.223315	-0.208959	0.441095	-1.856535	-1.236289	-0.640381	-0.161865	0.646729	0.109588	-0.003499	0.001713	-0.054101	-0.803949	-0.190836	-0.560644	140.530517	-61.740030	50.913552
34934		12.834168	-0.253282	-0.329658	3.560215	5.005452	1.463441	0.505348	-1.987280	-1.381563	-0.611816	-0.166260	0.657471	0.128344	-0.003413	-0.002029	-0.057820	-0.808309	-0.197213	-0.551724	141.025834	-60.356836	50.678080
34935		14.749263	-1.260614	-0.816275	3.664946	6.815506	2.832527	0.611378	-2.120563	-1.531648	-0.598145	-0.164795	0.677734	0.147466	-0.013714	-0.006640	-0.061651	-0.812790	-0.204415	-0.542021	141.517345	-58.858513	50.513449
34936		16.624766	-1.781835	0.186794	5.280814	8.418153	3.634368	0.863557	-2.231636	-1.663892	-0.574463	-0.165283	0.691650	0.166058	-0.019214	0.003641	-0.064911	-0.817350	-0.212766	-0.531466	142.089922	-57.263450	50.421470
34937		18.856600	-2.417458	1.669637	7.447345	10.405268	4.345140	0.926703	-2.404066	-1.797087	-0.556885	-0.170898	0.702881	0.188120	-0.025950	0.018842	-0.068438	-0.822062	-0.221720	-0.519972	142.670093	-55.542875	50.361705
34938		20.173620	-3.445375	1.573060	7.798063	12.229877	4.709955	0.957391	-2.557189	-1.875717	-0.530273	-0.177246	0.716309	0.201179	-0.036425	0.018134	-0.072192	-0.826878	-0.230971	-0.507655	143.263098	-53.725156	50.306881
34939		20.076783	-2.689726	1.060634	7.826979	11.831023	4.684357	1.036351	-2.735716	-2.027167	-0.502686	-0.180176	0.732422	0.200312	-0.028993	0.013202	-0.076189	-0.831759	-0.240907	-0.494304	143.862220	-51.773856	50.299276
34940		21.793124	-2.988217	0.752055	8.437887	13.288005	5.569695	1.175217	-2.833013	-2.192267	-0.478760	-0.173340	0.755127	0.217452	-0.032323	0.010418	-0.080109	-0.836452	-0.251763	-0.480152	144.461065	-49.721567	50.395180
34941		22.086816	-1.740287	1.145968	9.616613	12.867109	5.486708	1.345213	-2.877754	-2.378747	-0.443604	-0.175781	0.761230	0.220446	-0.020117	0.014505	-0.083788	-0.840774	-0.263680	-0.465350	145.056618	-47.588725	50.627336
34942		20.894842	-0.888387	1.530269	10.010447	12.038484	4.135055	1.444327	-2.875491	-2.382907	-0.419922	-0.178711	0.771973	0.208574	-0.011495	0.018227	-0.087027	-0.844792	-0.275756	-0.450235	145.693899	-45.456094	50.889202
34943		18.317753	2.285287	-1.173479	8.204069	8.191717	4.598514	1.760821	-2.932402	-2.611800	-0.387695	-0.170898	0.793213	0.183600	0.020543	-0.008857	-0.089482	-0.848397	-0.289345	-0.434160	146.413748	-43.227546	51.300775
34944		16.443319	8.208993	-2.655798	9.016309	2.685874	6.195374	1.827215	-2.917068	-2.972083	-0.350586	-0.163330	0.805176	0.165988	0.079854	-0.023408	-0.092375	-0.851060	-0.304494	-0.417670	147.010188	-40.894495	51.972843
34945		14.185328	12.643797	-4.346334	9.106943	-1.758496	7.330675	1.557026	-2.729553	-2.804249	-0.316650	-0.155762	0.817627	0.144177	0.124750	-0.040530	-0.095736	-0.853057	-0.318277	-0.402280	147.487003	-38.711081	52.618440
34946		10.836429	14.640581	-5.936089	7.739216	-5.015967	6.977901	0.971098	-2.458980	-2.047026	-0.285400	-0.156494	0.824707	0.110570	0.145563	-0.057302	-0.099609	-0.855122	-0.327695	-0.389179	147.864229	-36.891954	52.910313
34947		8.030975	14.807870	-6.737997	6.236282	-6.617065	5.886929	0.212105	-2.164357	-1.472475	-0.266846	-0.159912	0.831299	0.082119	0.147549	-0.066341	-0.105111	-0.856990	-0.333218	-0.378794	147.948914	-35.394054	52.967504
34948		6.962916	12.195762	-8.295237	3.527521	-5.148105	5.256304	-0.289057	-1.879474	-1.135435	-0.235840	-0.166992	0.841309	0.071096	0.121437	-0.082465	-0.111624	-0.858485	-0.336482	-0.370571	147.802973	-34.134677	52.932461
34949		6.136295	8.702995	-10.735776	-0.197684	-2.969328	5.012663	-0.251851	-1.642433	-0.822205	-0.226318	-0.165039	0.844971	0.062599	0.086639	-0.106956	-0.117004	-0.860007	-0.338527	-0.363453	147.730137	-33.087929	52.795707
34950		5.660676	7.083751	-8.239876	0.636550	-1.793675	2.290768	0.060628	-1.096730	-0.774088	-0.212158	-0.174805	0.837158	0.057331	0.070641	-0.082064	-0.120004	-0.860737	-0.341271	-0.358142	147.743716	-32.318381	52.834313
34951		7.064013	4.666196	-4.569645	2.773622	1.176769	-0.676117	-0.063538	-0.665474	-0.613995	-0.201904	-0.168701	0.825928	0.070934	0.046430	-0.045476	-0.122531	-0.860873	-0.343309	-0.354997	147.651013	-31.808517	52.932282
34952		8.180510	0.393318	-4.463185	1.289840	5.125022	-2.127258	-0.305407	-0.270676	-0.114518	-0.200928	-0.176514	0.835693	0.081868	0.003818	-0.044527	-0.124514	-0.860999	-0.343047	-0.354254	147.497303	-31.641016	52.891249
34953		6.338157	-1.095396	-4.696593	-0.571577	4.971673	-3.617056	-0.001688	0.212838	-0.157796	-0.196777	-0.177246	0.847656	0.063323	-0.011004	-0.047033	-0.124430	-0.860377	-0.343796	-0.355067	147.412135	-31.696956	53.049333
34954		3.603960	1.551339	-4.227250	-0.334619	1.187022	-4.178527	0.003239	0.515239	-0.421017	-0.200928	-0.180420	0.836914	0.035963	0.015438	-0.042365	-0.124278	-0.858767	-0.345886	-0.356984	147.193754	-31.813700	53.467229
34955		1.843389	5.326899	-4.329924	0.580406	-2.774297	-3.294367	-0.207366	0.752328	-0.331073	-0.208008	-0.182861	0.833252	0.018359	0.053194	-0.043424	-0.124484	-0.856759	-0.347302	-0.360345	146.831520	-32.072458	53.917295
34956		1.768070	7.628347	-4.102859	1.810129	-4.505890	-2.425467	-0.532172	1.049265	0.164191	-0.207275	-0.192383	0.832275	0.017402	0.076188	-0.041323	-0.124644	-0.854839	-0.346241	-0.365829	146.370977	-32.624857	54.207585
34957		1.955592	7.000580	-3.869045	1.647968	-3.949237	-2.777915	-1.046258	1.385809	0.619820	-0.224854	-0.208008	0.832031	0.019069	0.069861	-0.039189	-0.125572	-0.852716	-0.342468	-0.373928	145.677768	-33.483718	54.377026
34958		1.738643	5.179551	-3.918389	0.472874	-2.809490	-3.722898	-1.445393	1.727475	0.766107	-0.233643	-0.208008	0.820068	0.016847	0.051575	-0.039704	-0.127336	-0.849863	-0.337514	-0.384192	144.716128	-34.545848	54.615063
34959		1.456504	3.154614	-3.748470	-0.640987	-1.536906	-4.980567	-1.595525	2.079155	0.941331	-0.266113	-0.219482	0.816162	0.014025	0.031312	-0.037883	-0.128818	-0.846402	-0.331641	-0.396262	143.620573	-35.827833	54.919190
34960		1.146271	1.204908	-3.581785	-1.670830	-0.319465	-6.248976	-1.481362	2.426635	1.199071	-0.274414	-0.233154	0.799805	0.010955	0.011849	-0.036041	-0.128671	-0.842560	-0.325110	-0.409683	142.564785	-37.351286	55.265886
