// General information: 
//  MT Manager version: 2019.2.0 
//  XDA version: 2019.2.0 build 3853 rev 94535 built on 2019-09-09
// Device information: 
//  DeviceId: 00B4778E
//  ProductCode: MTW2-3A7G6
//  Firmware Version: 4.6.0
//  Hardware Version: 2.0.0
// Device settings: 
//  Filter Profile: human(46.1)
//  Option Flags: Orientation Smoother Disabled, AHS Disabled, ICC Disabled
// Coordinate system: ENU
PacketCounter	SampleTimeFine	Acc_X	Acc_Y	Acc_Z	FreeAcc_E	FreeAcc_N	FreeAcc_U	Gyr_X	Gyr_Y	Gyr_Z	Mag_X	Mag_Y	Mag_Z	VelInc_X	VelInc_Y	VelInc_Z	Quat_q0	Quat_q1	Quat_q2	Quat_q3	Roll	Pitch	Yaw
62782		5.843544	-1.591085	7.686538	0.003940	-0.002042	-0.026912	-0.001085	0.009567	-0.001787	-0.697754	0.317383	-0.386963	0.058439	-0.015911	0.076863	0.261943	-0.327643	-0.004789	-0.907752	-11.723366	-36.680076	-143.909404
62783		5.810654	-1.590995	7.674414	0.018034	0.011234	-0.056092	-0.000202	0.010653	0.002877	-0.701172	0.331543	-0.390381	0.058111	-0.015909	0.076741	0.261912	-0.327636	-0.004773	-0.907763	-11.723652	-36.679106	-143.913330
62784		5.834418	-1.610011	7.659706	-0.015231	0.013782	-0.050350	0.001129	0.007865	0.000699	-0.693604	0.331543	-0.378662	0.058347	-0.016100	0.076595	0.261915	-0.327640	-0.004784	-0.907761	-11.722617	-36.679848	-143.913206
62785		5.843610	-1.614788	7.682047	-0.010263	0.017645	-0.026536	-0.002661	0.010964	-0.001296	-0.698730	0.326904	-0.395020	0.058440	-0.016147	0.076817	0.261901	-0.327635	-0.004776	-0.907767	-11.722733	-36.679190	-143.915070
62786		5.830739	-1.586542	7.666894	0.002632	-0.003249	-0.050726	0.000884	0.006474	-0.000988	-0.700439	0.329346	-0.386719	0.058310	-0.015866	0.076667	0.261896	-0.327645	-0.004790	-0.907765	-11.721255	-36.680909	-143.915924
62787		5.844800	-1.600800	7.630242	-0.034863	-0.004028	-0.068787	-0.001874	0.007571	0.001284	-0.695313	0.328369	-0.389160	0.058451	-0.016007	0.076300	0.261881	-0.327654	-0.004782	-0.907766	-11.722136	-36.681775	-143.917232
62788		5.822003	-1.605516	7.639760	-0.016558	0.012555	-0.074161	-0.000373	0.007718	0.000992	-0.692627	0.335205	-0.386719	0.058223	-0.016055	0.076395	0.261883	-0.327660	-0.004785	-0.907763	-11.722097	-36.682565	-143.916882
62789		5.816777	-1.558549	7.652520	0.016967	-0.023091	-0.074915	-0.000692	0.007871	-0.000497	-0.688721	0.331299	-0.384033	0.058171	-0.015585	0.076523	0.261894	-0.327666	-0.004795	-0.907758	-11.721668	-36.683458	-143.915490
62790		5.852898	-1.605733	7.653389	-0.028462	0.000879	-0.044968	0.001129	0.007865	0.000699	-0.693604	0.335693	-0.390381	0.058532	-0.016058	0.076531	0.261896	-0.327669	-0.004806	-0.907756	-11.720634	-36.684200	-143.915365
62791		5.837682	-1.591512	7.690903	0.010486	0.002714	-0.026917	-0.000692	0.007871	-0.000497	-0.693359	0.333984	-0.389893	0.058380	-0.015915	0.076907	0.261923	-0.327675	-0.004821	-0.907746	-11.720260	-36.685074	-143.911942
62792		5.819411	-1.605661	7.641704	-0.013667	0.014629	-0.074159	-0.000278	0.012196	0.003075	-0.695313	0.333496	-0.390869	0.058199	-0.016056	0.076414	0.261934	-0.327661	-0.004816	-0.907748	-11.720650	-36.683110	-143.910784
62793		5.850649	-1.605824	7.655089	-0.026286	0.002427	-0.044962	0.002236	0.009708	-0.000884	-0.684326	0.333740	-0.389648	0.058510	-0.016059	0.076548	0.261960	-0.327654	-0.004841	-0.907743	-11.718232	-36.682978	-143.908480
62794		5.847675	-1.582279	7.661755	-0.009162	-0.015127	-0.045339	-0.002193	0.007723	-0.000205	-0.698242	0.333008	-0.377686	0.058480	-0.015822	0.076615	0.261953	-0.327662	-0.004838	-0.907742	-11.718736	-36.683905	-143.908967
62795		5.849339	-1.605889	7.656077	-0.024823	0.003465	-0.044959	-0.000766	0.009414	-0.000299	-0.691895	0.331055	-0.382568	0.058497	-0.016059	0.076558	0.261973	-0.327662	-0.004848	-0.907736	-11.718390	-36.683953	-143.906501
62796		5.816524	-1.605722	7.643889	-0.010769	0.016702	-0.074159	0.001054	0.009408	0.000897	-0.693359	0.331055	-0.383057	0.058169	-0.016057	0.076436	0.261977	-0.327658	-0.004856	-0.907736	-11.717349	-36.683806	-143.906461
62797		5.845631	-1.582382	7.663293	-0.006954	-0.013565	-0.045335	-0.000692	0.007870	-0.000498	-0.693115	0.326904	-0.386475	0.058459	-0.015824	0.076631	0.261980	-0.327665	-0.004863	-0.907733	-11.716963	-36.684774	-143.906083
62798		5.815261	-1.605775	7.644839	-0.009311	0.017746	-0.074159	-0.000373	0.007717	0.000991	-0.695313	0.327393	-0.385986	0.058156	-0.016057	0.076446	0.261981	-0.327671	-0.004866	-0.907730	-11.716925	-36.685565	-143.905732
62799		5.836794	-1.601240	7.636275	-0.026160	0.002216	-0.068759	0.001053	0.009408	0.000897	-0.697998	0.327637	-0.389404	0.058372	-0.016013	0.076360	0.261973	-0.327668	-0.004871	-0.907734	-11.715856	-36.685471	-143.907113
62800		5.846003	-1.605941	7.658613	-0.021190	0.006097	-0.044951	0.001128	0.007864	0.000699	-0.695313	0.332031	-0.384766	0.058463	-0.016060	0.076584	0.261976	-0.327671	-0.004881	-0.907731	-11.714823	-36.686214	-143.906987
62801		5.813254	-1.605764	7.646367	-0.007138	0.019331	-0.074160	-0.000766	0.009413	-0.000300	-0.699219	0.325684	-0.385010	0.058136	-0.016057	0.076461	0.261967	-0.327670	-0.004882	-0.907734	-11.714337	-36.686263	-143.908261
62802		5.827712	-1.568346	7.702787	0.034900	-0.009579	-0.027313	-0.001875	0.007570	0.001283	-0.691162	0.334229	-0.387451	0.058280	-0.015682	0.077026	0.261968	-0.327679	-0.004878	-0.907731	-11.715294	-36.687102	-143.907685
62803		5.821933	-1.610678	7.669059	-0.001434	0.023742	-0.050357	0.000885	0.006473	-0.000988	-0.697266	0.322510	-0.384521	0.058222	-0.016107	0.076689	0.261963	-0.327690	-0.004892	-0.907729	-11.713848	-36.688879	-143.908497
62804		5.809140	-1.582387	7.653857	0.011435	0.002829	-0.074543	-0.000766	0.009413	-0.000300	-0.700439	0.334229	-0.387939	0.058095	-0.015824	0.076536	0.261958	-0.327688	-0.004894	-0.907730	-11.713348	-36.688869	-143.909295
62805		5.842969	-1.568564	7.614458	-0.027236	-0.032123	-0.087520	-0.000766	0.009413	-0.000300	-0.688965	0.327637	-0.379395	0.058433	-0.015685	0.076142	0.261934	-0.327688	-0.004889	-0.907738	-11.712832	-36.688955	-143.912496
62806		5.851973	-1.610924	7.683359	-0.012569	0.012632	-0.021143	-0.000449	0.009260	0.001189	-0.694336	0.329834	-0.388428	0.058523	-0.016109	0.076831	0.261936	-0.327687	-0.004890	-0.907737	-11.712785	-36.688857	-143.912231
62807		5.829251	-1.578001	7.646361	-0.003953	-0.011648	-0.069129	-0.000692	0.007869	-0.000498	-0.698242	0.329102	-0.391357	0.058295	-0.015780	0.076461	0.261933	-0.327693	-0.004895	-0.907736	-11.712342	-36.689797	-143.912624
62808		5.840837	-1.606240	7.662491	-0.015375	0.010319	-0.044944	0.001127	0.007864	0.000700	-0.703369	0.325928	-0.384277	0.058411	-0.016063	0.076623	0.261935	-0.327697	-0.004906	-0.907734	-11.711309	-36.690540	-143.912499
62809		5.830358	-1.601456	7.641145	-0.018912	0.007492	-0.068745	0.001127	0.007864	0.000699	-0.696045	0.333496	-0.378174	0.058307	-0.016015	0.076409	0.261911	-0.327701	-0.004907	-0.907739	-11.710214	-36.691372	-143.915787
62810		5.839494	-1.606298	7.663502	-0.013924	0.011386	-0.044943	-0.002025	0.010656	0.001679	-0.703125	0.326172	-0.376221	0.058399	-0.016062	0.076632	0.261913	-0.327696	-0.004898	-0.907741	-11.711154	-36.690434	-143.915382
62811		5.848807	-1.573690	7.639289	-0.018592	-0.025583	-0.063699	-0.002193	0.007722	-0.000207	-0.695557	0.322021	-0.375732	0.058491	-0.015736	0.076391	0.261878	-0.327706	-0.004885	-0.907747	-11.711781	-36.691616	-143.919302
62812		5.823552	-1.554880	7.655006	0.016103	-0.027076	-0.069508	-0.000524	0.010803	0.001387	-0.705811	0.331299	-0.378906	0.058240	-0.015548	0.076547	0.261882	-0.327699	-0.004884	-0.907749	-11.711727	-36.690630	-143.919122
62813		5.896503	-1.611820	7.609909	-0.085061	-0.020469	-0.052064	-0.000299	0.006173	0.000793	-0.696289	0.318604	-0.372314	0.058967	-0.016118	0.076097	0.261835	-0.327714	-0.004873	-0.907757	-11.711740	-36.692575	-143.924560
62814		8.885952	-0.872052	6.883336	-2.096499	-2.198704	1.044169	0.014546	-0.051931	-0.017002	-0.702881	0.324951	-0.370605	0.088841	-0.008733	0.068856	0.261778	-0.327971	-0.005052	-0.907679	-11.700797	-36.728923	-143.928153
62815		6.604706	-2.189898	6.016044	-1.760374	-0.140259	-0.785396	-0.030523	0.014518	0.017433	-0.707764	0.310303	-0.372559	0.066053	-0.021884	0.060159	0.261732	-0.327989	-0.004858	-0.907687	-11.724326	-36.724358	-143.926400
62816		6.647289	-1.129264	6.528237	-0.976911	-0.984539	-0.530667	0.006685	0.017711	0.000725	-0.699707	0.303955	-0.367920	0.066479	-0.011295	0.065276	0.261744	-0.327941	-0.004881	-0.907701	-11.719264	-36.719573	-143.927688
62817		6.524193	-1.522974	7.017471	-0.795389	-0.498061	-0.156149	-0.005539	-0.003827	0.002257	-0.712646	0.314941	-0.369385	0.065241	-0.015227	0.070176	0.261659	-0.328008	-0.004846	-0.907701	-11.723553	-36.726995	-143.935354
62818		6.073959	-1.337056	7.589223	-0.075548	-0.343026	-0.006892	0.002741	0.018508	0.004775	-0.715820	0.317139	-0.373047	0.060747	-0.013370	0.075886	0.261683	-0.327961	-0.004843	-0.907711	-11.722377	-36.721292	-143.933925
62819		5.694776	-1.490180	7.836803	0.243411	0.012165	-0.014361	-0.005578	0.009757	0.007020	-0.712158	0.313721	-0.368408	0.056952	-0.014898	0.078366	0.261696	-0.327966	-0.004808	-0.907706	-11.727678	-36.720381	-143.930595
62820		5.594470	-1.579697	7.944887	0.329629	0.155309	0.025097	-0.003498	0.017162	0.012187	-0.710693	0.316650	-0.362549	0.055952	-0.015792	0.079444	0.261743	-0.327934	-0.004767	-0.907704	-11.733294	-36.714570	-143.923784
62821		5.898317	-1.625122	7.552589	-0.121727	-0.020875	-0.093762	-0.006744	0.015477	0.011081	-0.715820	0.311768	-0.365967	0.058990	-0.016245	0.075522	0.261781	-0.327914	-0.004715	-0.907701	-11.740466	-36.709944	-143.917443
62822		5.800186	-1.700572	7.608220	-0.061664	0.099448	-0.096442	-0.005550	0.021164	0.003649	-0.718994	0.310059	-0.360107	0.058010	-0.017003	0.076077	0.261786	-0.327866	-0.004673	-0.907717	-11.743336	-36.702882	-143.917191
62823		6.115269	-1.608930	7.377291	-0.359214	-0.170371	-0.104365	-0.001324	0.008175	-0.003476	-0.716064	0.314453	-0.362793	0.061155	-0.016090	0.073771	0.261766	-0.327872	-0.004680	-0.907721	-11.741950	-36.704049	-143.919953
62824		6.354362	-1.549094	7.337354	-0.509195	-0.341668	-0.002573	0.001754	0.006925	-0.004255	-0.722900	0.313477	-0.362793	0.063546	-0.015493	0.073371	0.261748	-0.327878	-0.004702	-0.907723	-11.738568	-36.705897	-143.923161
62825		5.820462	-1.657984	7.554431	-0.086810	0.044074	-0.133501	0.000338	0.010623	-0.009815	-0.721924	0.308350	-0.360596	0.058208	-0.016583	0.075541	0.261702	-0.327871	-0.004724	-0.907739	-11.733367	-36.706439	-143.930703
62826		5.922418	-1.488652	7.627271	-0.028673	-0.136011	-0.042987	0.004256	-0.001582	-0.010494	-0.715576	0.309082	-0.363037	0.059223	-0.014891	0.076273	0.261659	-0.327913	-0.004779	-0.907736	-11.726680	-36.713785	-143.937040
62827		5.578313	-1.730029	7.647876	0.091474	0.239758	-0.193190	0.006558	0.001193	-0.005920	-0.718506	0.314453	-0.365967	0.055783	-0.017304	0.076478	0.261641	-0.327940	-0.004834	-0.907731	-11.720361	-36.719163	-143.940488
62828		5.437077	-1.610383	7.819120	0.342852	0.236237	-0.162795	0.013914	-0.025996	-0.010651	-0.722412	0.310303	-0.363525	0.054360	-0.016112	0.078197	0.261612	-0.328080	-0.004966	-0.907688	-11.710190	-36.740223	-143.943396
62829		5.999906	-1.630719	7.532656	-0.198269	-0.059395	-0.047638	0.014553	-0.051927	-0.016999	-0.731201	0.306396	-0.360107	0.059978	-0.016318	0.075341	0.261555	-0.328338	-0.005145	-0.907610	-11.699257	-36.776684	-143.946903
62830		5.807618	-1.527687	7.558413	-0.005502	-0.047109	-0.159211	0.031832	-0.054973	-0.033490	-0.727539	0.303955	-0.359863	0.058053	-0.015299	0.075598	0.261452	-0.328586	-0.005433	-0.907549	-11.671737	-36.816652	-143.961630
62831		6.226639	-1.656787	7.448241	-0.399782	-0.145155	0.026589	0.037141	-0.077537	-0.038825	-0.723389	0.304932	-0.363037	0.062234	-0.016594	0.074503	0.261332	-0.328929	-0.005785	-0.907457	-11.640877	-36.870010	-143.976778
62832		6.332648	-1.459516	7.522322	-0.325174	-0.343281	0.116782	0.030269	-0.073201	-0.040044	-0.723633	0.298340	-0.360840	0.063296	-0.014619	0.075244	0.261196	-0.329261	-0.006100	-0.907374	-11.613009	-36.920952	-143.993543
62833		5.997679	-1.594551	7.533785	-0.161377	-0.059316	-0.053430	0.022852	-0.069467	-0.036501	-0.723877	0.305420	-0.356934	0.059948	-0.015965	0.075357	0.261063	-0.329587	-0.006372	-0.907291	-11.590546	-36.969510	-144.008300
62834		6.267500	-1.474537	7.379943	-0.364788	-0.310404	-0.030563	0.021330	-0.075646	-0.038490	-0.725830	0.316162	-0.367432	0.062644	-0.014765	0.073822	0.260919	-0.329942	-0.006648	-0.907202	-11.568601	-37.021635	-144.023695
62835		6.070882	-1.526462	7.511098	-0.179794	-0.142569	-0.037739	0.015712	-0.052296	-0.026715	-0.728516	0.300293	-0.367432	0.060687	-0.015279	0.075126	0.260820	-0.330199	-0.006849	-0.907135	-11.552829	-37.059428	-144.034097
62836		6.165763	-1.491485	7.419126	-0.275506	-0.229102	-0.057884	0.014396	-0.043484	-0.022260	-0.722412	0.304443	-0.356445	0.061640	-0.014927	0.074204	0.260739	-0.330417	-0.007025	-0.907078	-11.538904	-37.091630	-144.042751
62837		6.157896	-1.395045	7.633729	-0.093446	-0.265066	0.089870	0.012098	-0.031389	-0.006205	-0.734863	0.303711	-0.352295	0.061567	-0.013957	0.076346	0.260727	-0.330585	-0.007148	-0.907019	-11.532072	-37.115339	-144.041745
62838		6.257863	-1.357436	7.431048	-0.257944	-0.379238	-0.014035	0.009372	-0.029650	0.004005	-0.727295	0.310303	-0.359619	0.062568	-0.013577	0.074319	0.260757	-0.330748	-0.007240	-0.906950	-11.530973	-37.136764	-144.033908
62839		6.284104	-1.451233	7.507807	-0.271560	-0.294789	0.076831	0.007068	-0.012168	0.014403	-0.731934	0.305908	-0.353516	0.062838	-0.014510	0.075081	0.260832	-0.330836	-0.007281	-0.906896	-11.534115	-37.147329	-144.021149
62840		6.066612	-1.596673	7.494138	-0.207778	-0.069645	-0.041954	0.004488	0.003276	0.015181	-0.731445	0.303467	-0.357178	0.060669	-0.015964	0.074940	0.260906	-0.330856	-0.007289	-0.906868	-11.537713	-37.148989	-144.010170
62841		5.967435	-1.521481	7.556068	-0.071187	-0.077224	-0.065467	0.008479	0.020557	0.017951	-0.734619	0.305664	-0.354736	0.059683	-0.015213	0.075554	0.261000	-0.330795	-0.007289	-0.906863	-11.538715	-37.140780	-143.999612
62842		6.004215	-1.644338	7.458759	-0.212652	-0.007154	-0.099693	0.004880	0.018373	0.007432	-0.727783	0.307373	-0.358154	0.060050	-0.016443	0.074582	0.261040	-0.330746	-0.007291	-0.906870	-11.537482	-37.134853	-143.996261
62843		6.057399	-1.550473	7.509843	-0.172755	-0.104207	-0.042678	0.001793	0.025003	0.002560	-0.728760	0.300537	-0.351563	0.060584	-0.015505	0.075091	0.261053	-0.330672	-0.007280	-0.906893	-11.535385	-37.125915	-143.997178
62844		6.099330	-1.593162	7.400093	-0.286899	-0.107841	-0.096338	0.001056	0.020821	-0.002496	-0.733887	0.302490	-0.351074	0.061001	-0.015933	0.073994	0.261042	-0.330616	-0.007279	-0.906916	-11.531911	-37.119751	-144.001169
62845		6.138031	-1.447273	7.441564	-0.218511	-0.244457	-0.063873	0.002878	0.020818	-0.001302	-0.736084	0.314209	-0.359863	0.061388	-0.014474	0.074409	0.261039	-0.330560	-0.007285	-0.906937	-11.527917	-37.113609	-144.004199
62846		6.195335	-1.541539	7.340905	-0.361138	-0.208531	-0.092939	-0.001661	0.008322	-0.004971	-0.737305	0.302490	-0.350342	0.061956	-0.015416	0.073407	0.261012	-0.330565	-0.007291	-0.906944	-11.526033	-37.114745	-144.008137
62847		6.084162	-1.512195	7.480320	-0.192851	-0.155680	-0.055766	0.002311	0.019574	-0.004476	-0.733643	0.302002	-0.349609	0.060849	-0.015124	0.074797	0.260994	-0.330514	-0.007301	-0.906967	-11.521123	-37.109672	-144.013217
62848		5.987208	-1.497265	7.582883	-0.062878	-0.104227	-0.036505	-0.001078	0.015591	0.000479	-0.736328	0.309570	-0.351318	0.059878	-0.014972	0.075824	0.260992	-0.330486	-0.007292	-0.906978	-11.520591	-37.106103	-144.014361
62849		5.959153	-1.455187	7.605084	-0.011766	-0.123791	-0.042789	-0.007081	0.015000	0.001655	-0.743652	0.314453	-0.356445	0.059597	-0.014549	0.076047	0.260987	-0.330469	-0.007255	-0.906986	-11.524063	-37.102899	-144.014465
62850		6.097776	-1.536450	7.579689	-0.155745	-0.124362	0.033912	-0.006575	0.023812	0.007302	-0.738525	0.312988	-0.354980	0.060987	-0.015360	0.075790	0.261007	-0.330410	-0.007199	-0.907002	-11.528865	-37.093934	-144.011987
62851		6.132830	-1.509579	7.488075	-0.220704	-0.182191	-0.020865	-0.006272	0.017636	0.006515	-0.739502	0.308105	-0.359863	0.061335	-0.015091	0.074876	0.260941	-0.330381	-0.007124	-0.907032	-11.533673	-37.088704	-144.019741
62852		5.768953	-1.513715	7.653558	0.110093	0.020828	-0.110288	-0.014139	0.030641	0.011243	-0.738525	0.313965	-0.352295	0.057702	-0.015128	0.076528	0.260967	-0.330302	-0.007019	-0.907055	-11.543887	-37.075453	-144.015474
62853		5.926408	-1.530383	7.579149	-0.044856	-0.054782	-0.070877	-0.011999	0.030486	0.013927	-0.737793	0.306885	-0.357422	0.059277	-0.015295	0.075783	0.260922	-0.330222	-0.006887	-0.907097	-11.554002	-37.062160	-144.020212
62854		6.172650	-1.491339	7.421823	-0.279899	-0.235537	-0.051779	-0.013501	0.030337	0.014220	-0.736816	0.311523	-0.356445	0.061739	-0.014904	0.074210	0.260963	-0.330143	-0.006780	-0.907115	-11.565132	-37.048736	-144.013815
62855		6.177508	-1.474687	7.451566	-0.258399	-0.249655	-0.028360	-0.017669	0.035766	0.018864	-0.731201	0.313721	-0.362305	0.061790	-0.014734	0.074506	0.261018	-0.330046	-0.006640	-0.907136	-11.580154	-37.031906	-144.004809
62856		6.245714	-1.510785	7.414061	-0.343135	-0.261097	-0.010963	-0.021368	0.037955	0.024602	-0.739502	0.310791	-0.366211	0.062473	-0.015092	0.074130	0.261093	-0.329943	-0.006470	-0.907153	-11.599515	-37.013009	-143.992223
62857		5.980682	-1.577784	7.466426	-0.174407	-0.072839	-0.118888	-0.014576	0.045919	0.014703	-0.732910	0.315674	-0.368408	0.059825	-0.015768	0.074652	0.261060	-0.329797	-0.006310	-0.907217	-11.610077	-36.990971	-143.997225
62858		5.987163	-1.532846	7.583748	-0.089521	-0.096810	-0.030480	-0.016776	0.048255	0.020147	-0.741211	0.314941	-0.362305	0.059891	-0.015316	0.075824	0.261122	-0.329641	-0.006154	-0.907256	-11.624012	-36.966803	-143.989276
62859		6.153023	-1.606795	7.439540	-0.319936	-0.140974	-0.031787	-0.015368	0.043920	0.017773	-0.745117	0.317139	-0.360107	0.061548	-0.016057	0.074383	0.261105	-0.329505	-0.005990	-0.907312	-11.636488	-36.945533	-143.991403
62860		5.959686	-1.579669	7.452107	-0.176599	-0.074667	-0.142613	-0.014896	0.046064	0.013211	-0.744873	0.310303	-0.362061	0.059615	-0.015787	0.074509	0.261139	-0.329356	-0.005857	-0.907357	-11.646594	-36.923394	-143.988025
62861		5.847323	-1.613236	7.633266	-0.014754	0.037213	-0.062874	-0.008099	0.048644	0.008975	-0.742188	0.305176	-0.367920	0.058493	-0.016127	0.076319	0.261074	-0.329189	-0.005727	-0.907437	-11.650769	-36.900496	-143.999476
62862		6.053687	-1.577964	7.576382	-0.167702	-0.103124	0.010749	-0.009784	0.039539	0.005101	-0.750488	0.311523	-0.359375	0.060552	-0.015774	0.075753	0.261079	-0.329063	-0.005639	-0.907482	-11.655090	-36.882956	-144.000853
62863		6.225984	-1.570595	7.419671	-0.370904	-0.220914	-0.009892	-0.006947	0.036897	0.002635	-0.747314	0.315674	-0.360840	0.062274	-0.015703	0.074186	0.260975	-0.328948	-0.005535	-0.907554	-11.656949	-36.867385	-144.016645
62864		5.901636	-1.630478	7.526423	-0.128683	0.000571	-0.111231	-0.008259	0.051087	0.001434	-0.740723	0.315918	-0.363037	0.059036	-0.016301	0.075250	0.260966	-0.328767	-0.005446	-0.907623	-11.657852	-36.843789	-144.022265
62865		6.244454	-1.501064	7.456250	-0.333501	-0.286652	0.018318	0.000874	0.036842	-0.005259	-0.739258	0.311279	-0.362305	0.062458	-0.015013	0.074551	0.260857	-0.328641	-0.005397	-0.907700	-11.651929	-36.829167	-144.041317
62866		5.949941	-1.588856	7.488605	-0.167897	-0.067952	-0.118738	-0.007570	0.043216	0.001932	-0.748535	0.317139	-0.363525	0.059516	-0.015885	0.074874	0.260851	-0.328496	-0.005320	-0.907755	-11.653334	-36.809930	-144.045446
62867		5.872951	-1.584112	7.443394	-0.145157	-0.045651	-0.201136	-0.002357	0.041173	-0.004088	-0.740723	0.306396	-0.370361	0.058745	-0.015841	0.074422	0.260739	-0.328354	-0.005248	-0.907839	-11.649385	-36.792748	-144.064658
62868		5.963834	-1.471952	7.537144	-0.097726	-0.169931	-0.091367	-0.004645	0.045049	0.001550	-0.743896	0.312012	-0.365479	0.059655	-0.014717	0.075358	0.260737	-0.328196	-0.005183	-0.907897	-11.648800	-36.772527	-144.069316
62869		5.920203	-1.566169	7.591973	-0.084686	-0.060130	-0.059280	-0.004093	0.046285	0.004727	-0.745361	0.313721	-0.373535	0.059220	-0.015659	0.075906	0.260656	-0.328035	-0.005080	-0.907979	-11.649102	-36.751459	-144.083743
62870		5.951373	-1.501245	7.647796	-0.043634	-0.123044	-0.007366	-0.007023	0.044446	0.005104	-0.747559	0.319580	-0.366211	0.059531	-0.015008	0.076465	0.260667	-0.327883	-0.004998	-0.908031	-11.651424	-36.731165	-144.085824
62871		5.907786	-1.647682	7.609456	-0.110397	0.014720	-0.039857	-0.007898	0.043992	0.008371	-0.736572	0.319824	-0.360596	0.059095	-0.016471	0.076082	0.260607	-0.327736	-0.004879	-0.908102	-11.655635	-36.710963	-144.096027
62872		6.004027	-1.560011	7.505010	-0.195489	-0.127381	-0.078587	-0.009078	0.043057	0.002212	-0.745361	0.309570	-0.367432	0.060057	-0.015596	0.075038	0.260600	-0.327593	-0.004795	-0.908156	-11.658045	-36.691783	-144.099934
62873		6.064626	-1.561058	7.533528	-0.221130	-0.151936	-0.019902	-0.006226	0.046434	0.002033	-0.744385	0.313965	-0.372559	0.060664	-0.015608	0.075322	0.260514	-0.327433	-0.004690	-0.908239	-11.658438	-36.670947	-144.115018
62874		5.922788	-1.630927	7.555310	-0.152114	-0.022582	-0.076240	-0.000776	0.039766	-0.004572	-0.743652	0.314697	-0.377197	0.059243	-0.016310	0.075541	0.260490	-0.327294	-0.004660	-0.908296	-11.653544	-36.654399	-144.123194
62875		6.216995	-1.552459	7.469937	-0.359052	-0.244774	0.019519	0.001030	0.033743	-0.005650	-0.753906	0.320801	-0.369385	0.062182	-0.015527	0.074689	0.260382	-0.327182	-0.004618	-0.908368	-11.647671	-36.641577	-144.141605
62876		5.936872	-1.639902	7.603380	-0.141861	-0.014596	-0.028681	-0.003707	0.037927	-0.004199	-0.749512	0.316406	-0.373779	0.059383	-0.016399	0.076023	0.260355	-0.327055	-0.004575	-0.908421	-11.644777	-36.626018	-144.149249
62877		5.808666	-1.573448	7.593836	-0.034896	-0.014683	-0.123454	-0.004096	0.039620	-0.005493	-0.745605	0.321777	-0.369385	0.058101	-0.015735	0.075927	0.260235	-0.326923	-0.004500	-0.908504	-11.641408	-36.609884	-144.168945
62878		5.917628	-1.513124	7.505242	-0.132048	-0.135200	-0.137937	-0.005364	0.040861	-0.003520	-0.753662	0.316406	-0.372559	0.059191	-0.015130	0.075041	0.260209	-0.326785	-0.004445	-0.908561	-11.639503	-36.592599	-144.176532
62879		6.067469	-1.584698	7.451844	-0.297836	-0.154735	-0.079097	-0.003005	0.042090	0.000863	-0.753418	0.326416	-0.374268	0.060690	-0.015846	0.074506	0.260123	-0.326640	-0.004364	-0.908638	-11.637952	-36.574344	-144.191674
62880		6.110482	-1.584813	7.569951	-0.258744	-0.155076	0.039357	-0.001638	0.038673	-0.009242	-0.748047	0.311035	-0.372314	0.061119	-0.015850	0.075688	0.260077	-0.326507	-0.004338	-0.908699	-11.631724	-36.558948	-144.202940
62881		6.036146	-1.551133	7.610984	-0.172554	-0.142719	0.021844	-0.000863	0.035282	-0.006657	-0.740234	0.317139	-0.375732	0.060374	-0.015513	0.076099	0.259959	-0.326390	-0.004286	-0.908775	-11.626406	-36.545388	-144.222484
62882		5.954496	-1.536101	7.623950	-0.107136	-0.115772	-0.019049	0.003491	0.038806	-0.007115	-0.753174	0.323730	-0.370361	0.059559	-0.015364	0.076228	0.259931	-0.326250	-0.004280	-0.908834	-11.618123	-36.529669	-144.232276
62883		5.733524	-1.628306	7.702181	0.036679	0.080976	-0.074085	0.000251	0.037121	-0.008236	-0.748779	0.317871	-0.375977	0.057349	-0.016286	0.077011	0.259817	-0.326124	-0.004237	-0.908912	-11.611365	-36.515260	-144.251965
62884		5.809397	-1.506159	7.560065	-0.041041	-0.086101	-0.160584	-0.001021	0.032347	-0.008545	-0.753662	0.307617	-0.373535	0.058106	-0.015064	0.075591	0.259775	-0.326018	-0.004222	-0.908962	-11.605632	-36.503329	-144.261820
62885		6.019854	-1.582132	7.451973	-0.280318	-0.138858	-0.108264	-0.002215	0.032046	-0.006771	-0.759033	0.306885	-0.371582	0.060210	-0.015823	0.074510	0.259642	-0.325918	-0.004164	-0.909036	-11.601327	-36.491599	-144.282509
62886		6.080997	-1.535215	7.300219	-0.389566	-0.235581	-0.199086	-0.002835	0.032350	-0.009753	-0.760010	0.321289	-0.379883	0.060821	-0.015354	0.072993	0.259591	-0.325815	-0.004142	-0.909087	-11.596138	-36.479804	-144.293203
62887		5.997387	-1.543754	7.499105	-0.224173	-0.154543	-0.090843	-0.001876	0.043287	-0.008655	-0.751465	0.324951	-0.380859	0.059989	-0.015439	0.074978	0.259442	-0.325664	-0.004071	-0.909184	-11.589904	-36.461988	-144.317918
62888		5.698929	-1.593457	7.674462	0.047900	0.058576	-0.122045	-0.000372	0.037419	-0.011219	-0.755127	0.319580	-0.375244	0.057003	-0.015938	0.076734	0.259389	-0.325534	-0.004056	-0.909246	-11.582275	-36.447515	-144.330353
62889		5.864364	-1.500046	7.677389	-0.016549	-0.100236	-0.036549	-0.005150	0.036218	-0.004126	-0.755615	0.322021	-0.384766	0.058657	-0.015000	0.076764	0.259283	-0.325419	-0.003983	-0.909318	-11.580417	-36.433144	-144.347249
62890		5.779485	-1.588953	7.696246	0.005469	0.018601	-0.057738	-0.004808	0.041445	-0.008290	-0.755615	0.315186	-0.382080	0.057810	-0.015890	0.076951	0.259236	-0.325278	-0.003938	-0.909382	-11.576210	-36.416073	-144.358210
62891		6.004070	-1.580313	7.465082	-0.275970	-0.135528	-0.108093	0.000557	0.030945	-0.009026	-0.754883	0.315674	-0.382568	0.060052	-0.015806	0.074641	0.259110	-0.325179	-0.003902	-0.909454	-11.569502	-36.405224	-144.378731
62892		6.282217	-1.426160	7.377825	-0.438484	-0.415273	-0.036811	-0.006308	0.035281	-0.010291	-0.764893	0.324219	-0.379639	0.062834	-0.014263	0.073768	0.259051	-0.325067	-0.003862	-0.909510	-11.565858	-36.391841	-144.390200
62893		6.033256	-1.603528	7.476394	-0.304021	-0.128799	-0.078268	-0.006472	0.044374	-0.007616	-0.764404	0.314453	-0.385986	0.060349	-0.016035	0.074751	0.258915	-0.324916	-0.003773	-0.909603	-11.562629	-36.373300	-144.412261
62894		5.887681	-1.508932	7.642818	-0.068834	-0.114853	-0.048652	-0.004741	0.045909	-0.006210	-0.754883	0.320801	-0.383301	0.058894	-0.015089	0.076415	0.258877	-0.324754	-0.003719	-0.909672	-11.558885	-36.353482	-144.422394
62895		5.838017	-1.546680	7.576061	-0.096482	-0.072442	-0.124716	-0.012495	0.049789	-0.004216	-0.762207	0.312744	-0.386719	0.058399	-0.015463	0.075747	0.258745	-0.324587	-0.003590	-0.909770	-11.560064	-36.331514	-144.443137
62896		5.628950	-1.640449	7.756467	0.099125	0.135774	-0.091028	-0.011616	0.056250	-0.005199	-0.765625	0.310547	-0.385010	0.056311	-0.016401	0.077550	0.258701	-0.324387	-0.003489	-0.909854	-11.559813	-36.305775	-144.454034
62897		5.942822	-1.623253	7.625203	-0.179062	-0.050980	-0.011609	-0.006860	0.046059	-0.008913	-0.770020	0.316406	-0.390137	0.059445	-0.016233	0.076239	0.258537	-0.324229	-0.003392	-0.909957	-11.556144	-36.286439	-144.479862
62898		6.091872	-1.595769	7.486482	-0.348725	-0.170471	-0.037508	-0.012687	0.053773	-0.011564	-0.761475	0.320557	-0.388428	0.060938	-0.015956	0.074849	0.258463	-0.324041	-0.003300	-0.910046	-11.554105	-36.262821	-144.494830
62899		6.060018	-1.680229	7.510695	-0.357361	-0.080029	-0.023744	-0.009413	0.060834	-0.016087	-0.765137	0.321045	-0.384033	0.060622	-0.016804	0.075089	0.258277	-0.323819	-0.003188	-0.910178	-11.547724	-36.236018	-144.525971
62900		5.966009	-1.698258	7.549108	-0.286255	-0.015654	-0.046204	-0.007723	0.069287	-0.020135	-0.761230	0.317627	-0.385010	0.059685	-0.016986	0.075471	0.258171	-0.323554	-0.003113	-0.910303	-11.538036	-36.204670	-144.549091
62901		5.876036	-1.673627	7.622101	-0.178004	0.015971	-0.045738	-0.008597	0.075118	-0.030266	-0.758301	0.317871	-0.387451	0.058786	-0.016742	0.076200	0.257924	-0.323266	-0.003010	-0.910475	-11.524205	-36.171471	-144.591804
62902		5.900977	-1.620749	7.732982	-0.110502	-0.024062	0.048072	-0.004939	0.080484	-0.033493	-0.758789	0.319336	-0.388428	0.059038	-0.016215	0.077306	0.257763	-0.322946	-0.002955	-0.910635	-11.506550	-36.135356	-144.625762
62903		5.905012	-1.487599	7.626437	-0.119479	-0.161315	-0.055416	-0.006913	0.083560	-0.034317	-0.759033	0.307373	-0.397705	0.059079	-0.014883	0.076240	0.257508	-0.322617	-0.002858	-0.910824	-11.489458	-36.097867	-144.671454
62904		6.406308	-1.435812	7.451822	-0.534112	-0.472089	0.093060	-0.013647	0.073413	-0.032630	-0.766846	0.314941	-0.386475	0.064088	-0.014363	0.074496	0.257336	-0.322340	-0.002771	-0.910971	-11.477801	-36.065609	-144.703759
62905		6.210815	-1.406368	7.462875	-0.390949	-0.406469	-0.018376	-0.013092	0.085116	-0.025084	-0.772461	0.300049	-0.389648	0.062138	-0.014067	0.074603	0.257093	-0.322012	-0.002623	-0.911155	-11.467947	-36.026192	-144.745664
62906		6.108623	-1.325864	7.607246	-0.207234	-0.406520	0.022717	-0.016602	0.077567	-0.030002	-0.768799	0.305176	-0.391846	0.061114	-0.013261	0.076050	0.256928	-0.321721	-0.002512	-0.911305	-11.458771	-35.991292	-144.776686
62907		5.581615	-1.541247	7.733373	0.107828	0.044720	-0.152393	-0.021773	0.088514	-0.019864	-0.770752	0.312988	-0.387207	0.055849	-0.015410	0.077311	0.256665	-0.321388	-0.002301	-0.911497	-11.455775	-35.949377	-144.819314
62908		5.328453	-1.494688	7.744657	0.298095	0.120389	-0.299388	-0.028233	0.085130	-0.022154	-0.771484	0.308838	-0.401611	0.053316	-0.014942	0.077426	0.256517	-0.321077	-0.002115	-0.911649	-11.455890	-35.909334	-144.845921
62909		5.605629	-1.645896	7.569065	-0.063698	0.089497	-0.251792	-0.025822	0.068342	-0.024604	-0.764648	0.309326	-0.399658	0.056080	-0.016456	0.075674	0.256244	-0.320841	-0.001926	-0.911809	-11.454998	-35.879279	-144.886547
62910		5.805985	-1.726011	7.576459	-0.233627	0.064952	-0.115652	-0.018754	0.055849	-0.033721	-0.768311	0.316650	-0.395020	0.058078	-0.017263	0.075750	0.256058	-0.320651	-0.001840	-0.911928	-11.447431	-35.856993	-144.917035
62911		6.175160	-1.584172	7.587186	-0.409428	-0.228799	0.086182	-0.012147	0.046590	-0.043934	-0.762939	0.302002	-0.402832	0.061766	-0.015851	0.075858	0.255733	-0.320497	-0.001776	-0.912074	-11.432687	-35.841344	-144.966287
62912		5.882287	-1.578201	7.740295	-0.126369	-0.072086	0.035308	-0.017131	0.049362	-0.044218	-0.774414	0.312988	-0.395996	0.058838	-0.015788	0.077390	0.255501	-0.320334	-0.001723	-0.912196	-11.420495	-35.823882	-145.003114
62913		5.886898	-1.520450	7.724847	-0.115088	-0.127252	0.016410	-0.017901	0.052741	-0.046811	-0.777344	0.308594	-0.395264	0.058886	-0.015211	0.077234	0.255141	-0.320159	-0.001626	-0.912359	-11.407406	-35.805098	-145.056756
62914		5.955839	-1.508821	7.429197	-0.331287	-0.218586	-0.180243	-0.016713	0.041660	-0.045213	-0.777588	0.313477	-0.390625	0.059570	-0.015095	0.074281	0.254905	-0.320031	-0.001585	-0.912470	-11.395233	-35.792062	-145.093171
62915		5.953266	-1.479372	7.518638	-0.266941	-0.227929	-0.115439	-0.007441	0.047505	-0.035319	-0.781250	0.310303	-0.395996	0.059548	-0.014801	0.075173	0.254605	-0.319867	-0.001521	-0.912611	-11.381260	-35.774908	-145.139234
62916		5.762289	-1.581915	7.739857	-0.061878	-0.013133	-0.034763	-0.004218	0.038729	-0.038544	-0.786377	0.307617	-0.404785	0.057635	-0.015829	0.077388	0.254420	-0.319736	-0.001531	-0.912709	-11.364894	-35.762751	-145.170603
62917		5.745459	-1.444815	7.993087	0.157955	-0.082337	0.134950	-0.009855	0.036423	-0.036170	-0.774658	0.309082	-0.395264	0.057467	-0.014455	0.079921	0.254104	-0.319625	-0.001468	-0.912836	-11.352880	-35.751910	-145.216667
62918		5.756181	-1.490397	7.790547	0.009285	-0.081271	-0.012645	-0.019881	0.036580	-0.031098	-0.781738	0.309082	-0.404785	0.057574	-0.014905	0.077896	0.253928	-0.319524	-0.001397	-0.912920	-11.348692	-35.740110	-145.242571
62919		5.893779	-1.564155	7.555824	-0.255597	-0.119908	-0.107329	-0.011779	0.036125	-0.021719	-0.785400	0.311279	-0.399902	0.058950	-0.015644	0.075549	0.253685	-0.319417	-0.001307	-0.913025	-11.343662	-35.727800	-145.277293
62920		5.953238	-1.474426	7.631983	-0.211487	-0.213499	-0.026378	-0.008684	0.034893	-0.022456	-0.775635	0.302002	-0.407715	0.059544	-0.014748	0.076310	0.253566	-0.319310	-0.001275	-0.913096	-11.336702	-35.715970	-145.296973
62921		6.099093	-1.435797	7.552904	-0.338638	-0.327779	-0.010408	-0.014708	0.022897	-0.018020	-0.781250	0.305908	-0.399414	0.060998	-0.014358	0.075523	0.253329	-0.319267	-0.001181	-0.913177	-11.335922	-35.710678	-145.327970
62922		5.813629	-1.469826	7.557813	-0.161995	-0.166164	-0.167722	-0.013572	0.028286	-0.009756	-0.785156	0.302002	-0.396240	0.058146	-0.014696	0.075571	0.253261	-0.319196	-0.001115	-0.913221	-11.337432	-35.701128	-145.337943
62923		5.714134	-1.518039	7.697632	-0.037530	-0.056178	-0.106774	-0.007311	0.023371	-0.003687	-0.779297	0.303711	-0.399658	0.057150	-0.015179	0.076970	0.253088	-0.319142	-0.001026	-0.913288	-11.338161	-35.693962	-145.360784
62924		5.737747	-1.481173	7.857945	0.056647	-0.073395	0.028772	-0.005019	0.009683	-0.005743	-0.786621	0.312256	-0.403320	0.057381	-0.014811	0.078577	0.253051	-0.319145	-0.001017	-0.913297	-11.337898	-35.694411	-145.365400
62925		5.803322	-1.433839	7.705975	-0.053251	-0.169818	-0.061543	-0.011304	0.002301	-0.000714	-0.790527	0.299805	-0.402344	0.058034	-0.014334	0.077060	0.252898	-0.319192	-0.000936	-0.913323	-11.343822	-35.698747	-145.381718
62926		5.726763	-1.472466	7.621849	-0.067811	-0.115076	-0.167029	-0.010732	0.001077	0.010012	-0.792725	0.303955	-0.402832	0.057269	-0.014718	0.076219	0.252924	-0.319241	-0.000886	-0.913298	-11.353889	-35.702255	-145.374242
62927		5.742878	-1.558783	7.758378	-0.037331	-0.025386	-0.035120	-0.008999	-0.007844	0.007057	-0.786133	0.295410	-0.400879	0.057426	-0.015582	0.077587	0.252784	-0.319332	-0.000807	-0.913305	-11.362443	-35.711414	-145.386940
62928		5.851756	-1.479255	7.594873	-0.166304	-0.171806	-0.114431	-0.012275	-0.014918	0.011548	-0.790527	0.302979	-0.410400	0.058513	-0.014785	0.075954	0.252815	-0.319456	-0.000768	-0.913253	-11.375317	-35.723731	-145.376175
62929		5.762788	-1.500257	7.627320	-0.095031	-0.107645	-0.137157	-0.013152	-0.010918	0.016895	-0.789795	0.305908	-0.400391	0.057625	-0.014993	0.076277	0.252716	-0.319566	-0.000659	-0.913242	-11.390479	-35.733505	-145.381339
62930		5.985823	-1.529521	7.635249	-0.249910	-0.183894	0.004149	-0.008062	-0.025683	0.012605	-0.799805	0.302002	-0.409180	0.059849	-0.015288	0.076361	0.252758	-0.319735	-0.000651	-0.913172	-11.402254	-35.751744	-145.368331
62931		5.669426	-1.541592	7.629576	-0.043768	-0.028311	-0.183221	-0.018686	-0.025224	0.014683	-0.796143	0.306885	-0.400391	0.056686	-0.015405	0.076304	0.252640	-0.319917	-0.000539	-0.913141	-11.420874	-35.769801	-145.373032
62932		5.708227	-1.562845	7.716140	-0.024985	-0.013834	-0.088268	-0.013106	-0.028300	0.017959	-0.806641	0.302246	-0.399902	0.057073	-0.015618	0.077170	0.252698	-0.320103	-0.000502	-0.913059	-11.437938	-35.788896	-145.355933
62933		5.959681	-1.507602	7.703006	-0.170900	-0.179800	0.039491	-0.008629	-0.032300	0.015060	-0.796631	0.299072	-0.405029	0.059585	-0.015068	0.077040	0.252586	-0.320305	-0.000440	-0.913020	-11.451546	-35.810877	-145.360835
62934		5.976302	-1.616444	7.536771	-0.325573	-0.119237	-0.065289	-0.009062	-0.024610	0.016058	-0.802979	0.306885	-0.398926	0.059755	-0.016156	0.075376	0.252642	-0.320470	-0.000420	-0.912946	-11.465241	-35.828110	-145.345552
62935		5.752111	-1.576658	7.665978	-0.078801	-0.029238	-0.100181	-0.005229	-0.022304	0.012462	-0.799561	0.301270	-0.402832	0.057514	-0.015761	0.076667	0.252525	-0.320621	-0.000365	-0.912925	-11.475044	-35.844773	-145.353473
62936		5.835497	-1.615335	7.649078	-0.158999	-0.036415	-0.058502	-0.011932	-0.021073	0.010752	-0.805664	0.299805	-0.401611	0.058348	-0.016146	0.076498	0.252553	-0.320773	-0.000337	-0.912864	-11.487955	-35.860620	-145.342349
62937		5.920084	-1.616167	7.585824	-0.249638	-0.084542	-0.058988	-0.007629	-0.021997	0.008249	-0.804932	0.303955	-0.400635	0.059193	-0.016156	0.075865	0.252404	-0.320927	-0.000274	-0.912852	-11.497409	-35.877589	-145.354297
62938		5.756913	-1.552281	7.748774	-0.012857	-0.037745	-0.035493	-0.003751	-0.025689	0.002360	-0.803955	0.300049	-0.408691	0.057559	-0.015521	0.077495	0.252406	-0.321090	-0.000302	-0.912794	-11.502616	-35.896983	-145.348328
62939		5.633693	-1.586382	7.819610	0.098411	0.061456	-0.046012	-0.006079	-0.027844	0.005686	-0.804443	0.301270	-0.397705	0.056326	-0.015860	0.078204	0.252252	-0.321268	-0.000259	-0.912774	-11.510637	-35.917529	-145.360806
62940		5.514629	-1.633828	7.750652	0.119183	0.147871	-0.162970	-0.002555	-0.036767	0.003945	-0.811279	0.302490	-0.399902	0.055132	-0.016336	0.077517	0.252263	-0.321480	-0.000304	-0.912696	-11.516731	-35.942960	-145.352165
62941		6.085868	-1.458195	7.519988	-0.311424	-0.303744	-0.038994	-0.004230	-0.044306	0.000227	-0.817139	0.302246	-0.403809	0.060842	-0.014580	0.075214	0.252078	-0.321730	-0.000296	-0.912659	-11.522847	-35.973366	-145.367135
62942		6.056331	-1.650640	7.462260	-0.409714	-0.129149	-0.070792	0.003592	-0.043694	0.000367	-0.812500	0.293701	-0.402832	0.060547	-0.016508	0.074636	0.252083	-0.321966	-0.000383	-0.912574	-11.524551	-36.003094	-145.359987
62943		5.964747	-1.594668	7.593059	-0.242123	-0.111690	-0.029813	0.001239	-0.038000	-0.009486	-0.824219	0.295410	-0.404053	0.059632	-0.015950	0.075942	0.251848	-0.322181	-0.000402	-0.912563	-11.523049	-36.031079	-145.384394
62944		5.937450	-1.528483	7.617898	-0.175053	-0.150065	-0.036759	0.001923	-0.039849	-0.006701	-0.820557	0.298584	-0.406250	0.059359	-0.015288	0.076191	0.251818	-0.322401	-0.000488	-0.912494	-11.522509	-36.059458	-145.382694
62945		5.844913	-1.555757	7.487848	-0.198698	-0.102262	-0.189730	-0.003749	-0.035233	-0.009765	-0.816650	0.304199	-0.398926	0.058435	-0.015559	0.074889	0.251563	-0.322610	-0.000478	-0.912490	-11.523516	-36.085926	-145.409029
62946		5.824776	-1.696872	7.626980	-0.164818	0.055576	-0.068563	0.003388	-0.032772	-0.012417	-0.826416	0.301514	-0.404053	0.058234	-0.016974	0.076279	0.251509	-0.322796	-0.000571	-0.912439	-11.519207	-36.110986	-145.412304
62947		5.836898	-1.700447	7.647173	-0.159469	0.059687	-0.044824	0.007686	-0.033696	-0.014927	-0.835449	0.294189	-0.404053	0.058355	-0.017012	0.076481	0.251263	-0.322984	-0.000624	-0.912441	-11.511424	-36.137183	-145.440719
62948		5.804419	-1.558702	7.772009	0.003734	-0.025432	0.011990	0.007083	-0.033389	-0.017914	-0.823242	0.299805	-0.402100	0.058030	-0.015595	0.077729	0.251190	-0.323168	-0.000744	-0.912395	-11.502788	-36.163218	-145.447739
62949		6.353406	-1.656888	7.326565	-0.665496	-0.259830	-0.000491	0.008284	-0.044471	-0.016331	-0.831055	0.295166	-0.398682	0.063516	-0.016577	0.073279	0.250917	-0.323404	-0.000808	-0.912387	-11.494966	-36.195624	-145.478303
62950		6.210029	-1.401866	7.360282	-0.429503	-0.407432	-0.099142	0.006559	-0.045089	-0.025490	-0.829590	0.298340	-0.403809	0.062082	-0.014029	0.073616	0.250809	-0.323642	-0.000952	-0.912332	-11.484478	-36.229091	-145.488958
62951		5.898985	-1.641681	7.656055	-0.154841	-0.002725	-0.010426	0.016794	-0.034314	-0.016771	-0.833496	0.293213	-0.401855	0.058975	-0.016428	0.076569	0.250547	-0.323821	-0.001042	-0.912341	-11.470737	-36.255855	-145.521393
62952		5.600617	-1.481293	7.789989	0.199375	0.019605	-0.106764	0.012836	-0.050017	-0.019446	-0.836426	0.286865	-0.392578	0.055985	-0.014823	0.077913	0.250476	-0.324074	-0.001211	-0.912270	-11.459530	-36.291396	-145.527169
62953		5.516659	-1.587964	7.774429	0.201601	0.152963	-0.151794	0.006912	-0.053099	-0.010814	-0.839111	0.287354	-0.403809	0.055145	-0.015885	0.077758	0.250436	-0.324351	-0.001344	-0.912182	-11.455544	-36.328016	-145.526250
62954		6.147157	-1.479539	7.445066	-0.356863	-0.279057	-0.055620	0.016066	-0.071106	-0.011604	-0.832275	0.294922	-0.397217	0.061444	-0.014805	0.074471	0.250406	-0.324696	-0.001542	-0.912068	-11.447477	-36.374508	-145.523597
62955		5.791339	-1.568994	7.630508	-0.046163	-0.002709	-0.105790	0.013695	-0.066342	-0.013716	-0.844482	0.287109	-0.397949	0.057887	-0.015699	0.076323	0.250364	-0.325024	-0.001727	-0.911962	-11.439507	-36.418896	-145.522841
62956		6.002493	-1.608368	7.583537	-0.226396	-0.066881	-0.011102	0.016957	-0.070656	-0.014869	-0.846191	0.291016	-0.394775	0.059997	-0.016095	0.075855	0.250320	-0.325366	-0.001933	-0.911851	-11.429533	-36.465506	-145.522545
62957		6.195060	-1.500878	7.358798	-0.431463	-0.279595	-0.090601	0.020161	-0.089908	-0.022502	-0.857422	0.282715	-0.398682	0.061916	-0.015023	0.073614	0.250248	-0.325794	-0.002192	-0.911718	-11.416177	-36.524127	-145.524618
62958		5.785038	-1.697777	7.544867	-0.132532	0.117233	-0.156456	0.016147	-0.088229	-0.026230	-0.851074	0.282959	-0.393555	0.057815	-0.016991	0.075473	0.250151	-0.326216	-0.002435	-0.911593	-11.403399	-36.581895	-145.529809
62959		5.572805	-1.621054	7.840742	0.225902	0.204210	-0.062381	0.030724	-0.099936	-0.036776	-0.856201	0.292480	-0.395752	0.055686	-0.016233	0.078433	0.250031	-0.326676	-0.002778	-0.911460	-11.378849	-36.647767	-145.540497
62960		5.571161	-1.512835	7.726402	0.216934	0.100732	-0.170770	0.028554	-0.126137	-0.042607	-0.863037	0.281250	-0.394043	0.055660	-0.015151	0.077297	0.249879	-0.327256	-0.003152	-0.911293	-11.355250	-36.728675	-145.551885
62961		5.830276	-1.642787	7.663604	-0.041091	0.097373	-0.044857	0.031792	-0.140945	-0.048155	-0.864502	0.284912	-0.389893	0.058245	-0.016454	0.076674	0.249708	-0.327901	-0.003569	-0.911106	-11.328684	-36.818853	-145.564882
62962		6.034956	-1.640058	7.461824	-0.284142	-0.019496	-0.080876	0.039087	-0.158071	-0.057930	-0.869629	0.277832	-0.390137	0.060286	-0.016433	0.074663	0.249502	-0.328611	-0.004056	-0.910904	-11.295182	-36.919416	-145.582669
62963		6.196410	-1.566392	7.455716	-0.347929	-0.143335	0.000321	0.037292	-0.185718	-0.078144	-0.875977	0.276611	-0.384521	0.061889	-0.015702	0.074612	0.249203	-0.329452	-0.004604	-0.910680	-11.256419	-37.038101	-145.610645
62964		5.988242	-1.555571	7.625783	-0.090300	-0.013149	0.006836	0.040421	-0.193635	-0.089156	-0.878906	0.274414	-0.378662	0.059802	-0.015598	0.076313	0.248856	-0.330322	-0.005192	-0.910457	-11.211690	-37.162115	-145.645681
62965		5.705799	-1.722730	7.574137	0.002619	0.269128	-0.178425	0.042232	-0.205436	-0.108227	-0.885742	0.276367	-0.378662	0.056971	-0.017274	0.075796	0.248426	-0.331245	-0.005837	-0.910235	-11.158619	-37.295194	-145.692466
62966		5.920554	-1.593163	7.581486	-0.059596	0.080634	-0.062818	0.051612	-0.233884	-0.127659	-0.890625	0.273193	-0.369873	0.059107	-0.015989	0.075880	0.247920	-0.332282	-0.006590	-0.909989	-11.093958	-37.446041	-145.749560
62967		5.902427	-1.600625	7.526553	-0.066505	0.108201	-0.115603	0.042012	-0.263819	-0.148124	-0.887207	0.278320	-0.374023	0.058913	-0.016066	0.075340	0.247306	-0.333469	-0.007372	-0.909717	-11.028178	-37.616251	-145.817096
62968		5.889622	-1.898694	7.516862	-0.180175	0.398183	-0.086187	0.044467	-0.277535	-0.164439	-0.890137	0.266602	-0.371338	0.058776	-0.019052	0.075246	0.246619	-0.334710	-0.008207	-0.909440	-10.954609	-37.795559	-145.895017
62969		6.130746	-1.734747	7.514553	-0.243789	0.175657	0.034825	0.080376	-0.327883	-0.193568	-0.892334	0.264648	-0.359375	0.061167	-0.017437	0.075239	0.245857	-0.336137	-0.009319	-0.909109	-10.851435	-38.006587	-145.987090
62970		5.874123	-1.729906	7.515059	-0.050736	0.317717	-0.124016	0.081211	-0.353015	-0.221935	-0.906494	0.266357	-0.355225	0.058589	-0.017395	0.075247	0.244965	-0.337671	-0.010511	-0.908768	-10.736575	-38.234334	-146.097073
62971		6.043331	-1.673175	7.520283	-0.108375	0.231504	-0.024403	0.106484	-0.374999	-0.259838	-0.915771	0.254883	-0.343994	0.060270	-0.016850	0.075307	0.243942	-0.339273	-0.011910	-0.908429	-10.591241	-38.478610	-146.232058
62972		6.152490	-1.444601	7.339264	-0.161842	-0.009431	-0.128767	0.123712	-0.418856	-0.292327	-0.912109	0.256104	-0.352783	0.061350	-0.014581	0.073512	0.242795	-0.341047	-0.013495	-0.908050	-10.423729	-38.750367	-146.386198
62973		5.805439	-1.824708	7.525984	0.034304	0.556417	-0.150281	0.126847	-0.452809	-0.312802	-0.917725	0.239258	-0.342285	0.057855	-0.018385	0.075379	0.241558	-0.342969	-0.015171	-0.907630	-10.246331	-39.043333	-146.552086
62974		6.159579	-0.978561	7.538433	0.223441	-0.290352	-0.035601	0.154501	-0.526045	-0.316324	-0.926514	0.242676	-0.335449	0.061382	-0.009941	0.075538	0.240343	-0.345185	-0.017066	-0.907078	-10.055520	-39.377213	-146.713201
62975		6.133178	-1.034233	7.606776	0.294062	-0.163641	0.007442	0.155220	-0.579806	-0.291202	-0.924316	0.243652	-0.328613	0.061096	-0.010491	0.076237	0.239237	-0.347644	-0.018986	-0.906393	-9.878297	-39.738861	-146.850957
62976		5.853555	-1.230563	7.691922	0.480495	0.199421	-0.082682	0.168884	-0.641678	-0.282508	-0.937500	0.231445	-0.323975	0.058271	-0.012453	0.077096	0.238185	-0.350362	-0.021026	-0.905579	-9.700236	-40.133940	-146.976922
62977		6.117271	-1.228585	7.375972	0.160511	0.080332	-0.153355	0.172967	-0.693147	-0.291036	-0.942871	0.223389	-0.305176	0.060899	-0.012439	0.073960	0.237093	-0.353304	-0.023162	-0.904669	-9.517719	-40.558921	-147.104898
62978		6.437962	-1.285837	7.319614	-0.055766	0.047532	0.019483	0.182299	-0.733194	-0.299526	-0.944580	0.218018	-0.297852	0.064091	-0.013021	0.073420	0.235970	-0.356407	-0.025400	-0.903685	-9.326439	-41.006697	-147.237163
62979		6.609734	-1.257767	7.156222	-0.202646	-0.017353	0.007703	0.199955	-0.789616	-0.326092	-0.948975	0.217529	-0.294434	0.065793	-0.012757	0.071810	0.234748	-0.359737	-0.027833	-0.902612	-9.113629	-41.488780	-147.385316
62980		6.315392	-1.279967	7.146354	0.022489	0.186795	-0.192041	0.187722	-0.820214	-0.341138	-0.966309	0.210693	-0.280762	0.062838	-0.012974	0.071710	0.233426	-0.363207	-0.030272	-0.901486	-8.899343	-41.988793	-147.544978
62981		6.603789	-1.025142	7.152053	0.016849	-0.083388	-0.024692	0.194595	-0.869724	-0.356552	-0.957520	0.211182	-0.269287	0.065708	-0.010439	0.071797	0.232035	-0.366885	-0.032828	-0.900265	-8.673477	-42.518043	-147.714225
62982		6.441258	-1.239986	7.066441	0.030102	0.225413	-0.173731	0.192513	-0.909196	-0.371870	-0.963623	0.200684	-0.263428	0.064067	-0.012587	0.070944	0.230558	-0.370729	-0.035447	-0.898970	-8.439709	-43.070141	-147.895319
62983		6.342201	-1.136227	7.260037	0.327907	0.292163	-0.115835	0.190763	-0.943759	-0.389943	-0.971191	0.197998	-0.241699	0.063056	-0.011555	0.072888	0.228986	-0.374719	-0.038132	-0.897606	-8.195387	-43.643085	-148.091161
62984		6.817857	-1.086664	6.678558	-0.255114	0.005617	-0.210548	0.201997	-1.012642	-0.419864	-0.976074	0.187500	-0.233887	0.067816	-0.011077	0.067118	0.227279	-0.378987	-0.040999	-0.896121	-7.928285	-44.256557	-148.308626
62985		7.061274	-1.010022	6.570078	-0.368789	-0.097456	-0.122430	0.190023	-1.060831	-0.444724	-0.979980	0.180420	-0.217529	0.070240	-0.010319	0.066064	0.225422	-0.383469	-0.043915	-0.894543	-7.651647	-44.898874	-148.546832
62986		6.843431	-0.900215	6.977486	0.159763	0.074516	0.000365	0.185141	-1.107976	-0.460219	-0.982666	0.170410	-0.207764	0.068025	-0.009224	0.070144	0.223467	-0.388147	-0.046889	-0.892864	-7.365405	-45.567981	-148.799971
62987		6.566160	-0.943677	6.941109	0.363999	0.293344	-0.222890	0.176753	-1.158938	-0.460751	-0.983643	0.177979	-0.189453	0.065236	-0.009649	0.069781	0.221474	-0.393050	-0.049883	-0.891051	-7.079692	-46.265505	-149.055929
62988		6.887673	-0.635051	6.751644	0.264594	-0.057794	-0.150733	0.178273	-1.218126	-0.452114	-0.983887	0.166260	-0.173828	0.068449	-0.006566	0.067928	0.219497	-0.398198	-0.052928	-0.889077	-6.794292	-46.994889	-149.307418
62989		6.995045	-0.788757	6.652131	0.158110	0.108172	-0.129428	0.174842	-1.266710	-0.445783	-0.992676	0.153564	-0.163574	0.069509	-0.008101	0.066955	0.217519	-0.403552	-0.055998	-0.886959	-6.509547	-47.750936	-149.557474
62990		7.129988	-0.814116	6.460542	0.031792	0.127173	-0.157669	0.183849	-1.321387	-0.464730	-0.996094	0.150879	-0.139160	0.070852	-0.008366	0.065067	0.215449	-0.409111	-0.059202	-0.884706	-6.202032	-48.538132	-149.828320
62991		7.433298	-0.678877	6.135750	-0.211020	-0.088500	-0.153071	0.177507	-1.377369	-0.476022	-0.999512	0.143799	-0.123291	0.073892	-0.007020	0.061861	0.213289	-0.414902	-0.062460	-0.882305	-5.883953	-49.357206	-150.114468
62992		7.249034	-0.750191	6.337744	0.108644	0.194945	-0.157290	0.186643	-1.425194	-0.491414	-0.996094	0.132568	-0.116455	0.072017	-0.007739	0.063885	0.211052	-0.420864	-0.065835	-0.879770	-5.541442	-50.203028	-150.422401
62993		7.346787	-0.635271	6.271350	0.162670	0.144217	-0.134899	0.176149	-1.447829	-0.493230	-1.000244	0.132813	-0.088135	0.072995	-0.006589	0.063237	0.208766	-0.426914	-0.069190	-0.877140	-5.191740	-51.060941	-150.743429
62994		7.604452	-0.450247	6.023515	0.030703	-0.071732	-0.101604	0.176639	-1.474109	-0.497394	-1.000000	0.132324	-0.075439	0.075586	-0.004744	0.060789	0.206440	-0.433048	-0.072578	-0.874405	-4.825886	-51.932476	-151.081036
62995		7.809672	-0.535643	5.706735	-0.235675	-0.046472	-0.128420	0.174183	-1.494345	-0.503272	-1.007813	0.111084	-0.053467	0.077654	-0.005602	0.057644	0.204064	-0.439246	-0.075985	-0.871577	-4.442465	-52.814741	-151.438382
62996		7.957195	-0.398173	5.582349	-0.234678	-0.144648	-0.088486	0.168728	-1.515991	-0.518082	-0.999023	0.102295	-0.035400	0.079135	-0.004235	0.056421	0.201589	-0.445508	-0.079417	-0.868664	-4.034629	-53.708181	-151.826110
62997		7.965562	-0.317683	5.498828	-0.153125	-0.136810	-0.130541	0.167327	-1.536860	-0.539237	-1.001709	0.093750	-0.011963	0.079221	-0.003437	0.055595	0.198998	-0.451826	-0.082907	-0.865667	-3.592404	-54.612911	-152.252604
62998		7.939637	-0.241476	5.411598	-0.058608	-0.116753	-0.202152	0.163502	-1.553475	-0.542757	-0.996582	0.090332	-0.000244	0.078966	-0.002674	0.054728	0.196361	-0.458185	-0.086398	-0.862580	-3.128228	-55.524961	-152.703968
62999		8.091339	-0.056933	5.306964	-0.020508	-0.247867	-0.139380	0.142661	-1.571923	-0.535113	-0.991455	0.080078	0.017090	0.080491	-0.000823	0.053703	0.193690	-0.464618	-0.089795	-0.859390	-2.659372	-56.445513	-153.170246
63000		8.322935	-0.047134	5.134862	-0.142704	-0.260960	-0.037741	0.149809	-1.591960	-0.528356	-0.996826	0.081543	0.046387	0.082815	-0.000729	0.052008	0.191040	-0.471098	-0.093219	-0.856085	-2.167478	-57.374852	-153.654373
63001		8.216362	-0.028731	5.010098	-0.059182	-0.183447	-0.191296	0.142080	-1.600459	-0.526298	-0.989502	0.070313	0.065918	0.081758	-0.000539	0.050756	0.188364	-0.477590	-0.096607	-0.852698	-1.654407	-58.306969	-154.163518
63002		8.254172	-0.026497	4.741481	-0.165627	-0.177646	-0.296775	0.141217	-1.597346	-0.515879	-0.993164	0.063721	0.083984	0.082158	-0.000511	0.048072	0.185717	-0.484039	-0.099956	-0.849249	-1.121669	-59.234342	-154.691380
63003		8.346525	0.116914	4.845820	0.053280	-0.182724	-0.162731	0.147062	-1.617452	-0.517119	-0.993408	0.058594	0.111328	0.083072	0.000918	0.049132	0.183057	-0.490534	-0.103346	-0.845687	-0.552360	-60.170878	-155.252406
63004		8.280314	0.087942	4.820476	0.174476	-0.041116	-0.232817	0.144988	-1.647913	-0.512723	-0.984619	0.053223	0.122803	0.082404	0.000633	0.048885	0.180380	-0.497124	-0.106734	-0.841985	0.046918	-61.121613	-155.844127
63005		8.556051	0.192662	4.502828	-0.030530	-0.192674	-0.144282	0.154519	-1.706764	-0.517794	-0.969238	0.038086	0.139893	0.085177	0.001671	0.045758	0.177660	-0.503912	-0.110222	-0.838069	0.697640	-62.103135	-156.482407
63006		8.545576	0.290767	4.605517	0.228830	-0.126976	-0.104387	0.165820	-1.746067	-0.520349	-0.976074	0.036133	0.163086	0.085056	0.002647	0.046801	0.174921	-0.510811	-0.113788	-0.833983	1.404791	-63.103177	-157.171359
63007		8.437289	0.222744	4.782476	0.526200	0.137126	-0.127074	0.165343	-1.796586	-0.518778	-0.963135	0.022461	0.186768	0.083944	0.001969	0.048582	0.172145	-0.517879	-0.117383	-0.829692	2.164917	-64.128344	-157.913365
63008		8.643888	0.467432	4.176035	0.186494	-0.227833	-0.206178	0.137641	-1.862380	-0.514506	-0.954834	0.020508	0.213623	0.086057	0.004424	0.042566	0.169259	-0.525197	-0.120897	-0.825169	2.968475	-65.186385	-158.714707
63009		8.527664	0.392962	3.971785	0.178109	-0.100304	-0.399621	0.139330	-1.933795	-0.507626	-0.943848	0.009277	0.228027	0.084897	0.003686	0.040543	0.166347	-0.532762	-0.124450	-0.820369	3.840645	-66.280677	-159.583081
63010		8.581101	0.379338	4.113866	0.421999	0.080769	-0.298740	0.154298	-2.023034	-0.524651	-0.946045	0.008789	0.250000	0.085399	0.003537	0.042007	0.163331	-0.540612	-0.128170	-0.815251	4.837739	-67.418963	-160.570816
63011		8.679165	0.539707	3.830687	0.373757	-0.059718	-0.318139	0.153057	-2.137455	-0.539808	-0.928467	-0.006104	0.270996	0.086390	0.005134	0.039236	0.160158	-0.548859	-0.132005	-0.809740	5.977160	-68.614560	-161.704228
63012		8.649090	0.416537	3.837103	0.508622	0.191202	-0.357299	0.147469	-2.244682	-0.550713	-0.922607	-0.010498	0.300537	0.086064	0.003899	0.039342	0.156833	-0.557464	-0.135914	-0.803844	7.283480	-69.860871	-163.010358
63013		8.882065	0.676380	3.814523	0.697303	0.059540	-0.148070	0.149661	-2.355457	-0.554216	-0.907959	-0.015137	0.330811	0.088381	0.006489	0.039193	0.153404	-0.566433	-0.139912	-0.797525	8.795083	-71.158289	-164.522075
63014		9.175113	0.529852	3.162876	0.179429	0.055607	-0.095345	0.132102	-2.505797	-0.575741	-0.890381	-0.016602	0.349854	0.091360	0.005014	0.032778	0.149709	-0.575909	-0.143992	-0.790685	10.604384	-72.523163	-166.345952
63015		9.409696	0.541266	3.088077	0.259144	0.153991	0.100671	0.116344	-2.650901	-0.594785	-0.884277	-0.031250	0.384521	0.093692	0.005115	0.032127	0.145764	-0.585856	-0.148150	-0.783312	12.807834	-73.946847	-168.576710
63016		9.074662	0.423395	3.387972	0.785602	0.561914	-0.165523	0.103768	-2.801209	-0.615009	-0.862061	-0.030273	0.407715	0.090273	0.003938	0.035148	0.141561	-0.596270	-0.152396	-0.775370	15.557984	-75.421960	-171.365758
63017		9.126989	0.523720	3.579132	1.215074	0.712508	-0.096986	0.078475	-2.996735	-0.652563	-0.853760	-0.035645	0.432129	0.090736	0.004926	0.037156	0.136958	-0.607299	-0.156762	-0.766717	19.147769	-76.955164	-175.015055
63018		10.094457	-0.018688	3.719071	1.168769	1.433246	0.784445	0.107019	-3.217155	-0.711020	-0.825928	-0.043213	0.456787	0.100327	-0.000565	0.038808	0.132009	-0.618953	-0.161524	-0.757219	24.090553	-78.524864	179.990616
63019		10.432875	-0.001802	3.366950	1.089409	1.488076	0.993225	0.205414	-3.414847	-0.770883	-0.797119	-0.054199	0.492432	0.103732	-0.000454	0.035444	0.126940	-0.631062	-0.166930	-0.746848	31.092696	-80.061790	172.985764
63020		11.550892	1.597077	4.388868	2.794258	0.716046	2.307447	0.262333	-3.635951	-0.790054	-0.780029	-0.053223	0.514160	0.114747	0.015457	0.046000	0.121753	-0.643735	-0.172692	-0.735499	41.085916	-81.487924	163.015747
63021		10.328521	2.391002	4.836792	4.058797	0.365207	1.103613	-0.016489	-3.973341	-0.638181	-0.752930	-0.060059	0.545898	0.102373	0.023586	0.050406	0.115890	-0.657708	-0.177081	-0.722933	55.152589	-82.748333	148.808184
63022		11.069614	0.609272	4.438739	3.303224	2.101223	1.468314	-0.086222	-4.345733	-0.594425	-0.731934	-0.065186	0.575439	0.109715	0.005785	0.046776	0.109573	-0.672812	-0.181210	-0.708859	75.173348	-83.498465	128.596440
63023		13.728264	1.444245	4.967026	4.430332	2.059469	4.018973	-0.048343	-4.640920	-0.552524	-0.692139	-0.071533	0.619873	0.136120	0.014078	0.052835	0.103210	-0.688632	-0.185401	-0.693369	98.497653	-83.325326	105.094063
63024		12.259633	0.985590	3.265543	3.277802	1.926485	2.330038	0.066546	-4.906400	-0.580952	-0.661621	-0.073975	0.646729	0.121774	0.009490	0.035653	0.096837	-0.704887	-0.190117	-0.676471	118.677722	-82.092423	84.792928
63025		16.270202	1.749477	6.170792	6.933649	3.254004	5.907468	0.003841	-5.317557	-0.530911	-0.622803	-0.079590	0.673584	0.161031	0.017065	0.066005	0.089957	-0.722141	-0.194518	-0.657710	133.290857	-80.035664	70.007263
63026		16.241617	-0.635050	5.317785	5.936004	5.452369	5.268381	0.062872	-5.296907	-0.559978	-0.598633	-0.079590	0.704346	0.160914	-0.006820	0.057451	0.083150	-0.738758	-0.199069	-0.638510	142.434029	-77.557673	60.726575
63027		13.850252	0.183817	3.979754	5.460871	4.109728	2.873466	0.298861	-5.432953	-0.757936	-0.552734	-0.076172	0.743896	0.137359	0.001253	0.043542	0.076387	-0.754970	-0.205013	-0.618187	148.341397	-74.740948	54.821103
63028		16.766227	-0.565870	6.362823	8.396478	6.671834	4.568422	0.459350	-5.432500	-0.880251	-0.516602	-0.074219	0.753418	0.165825	-0.006544	0.068135	0.069794	-0.770420	-0.211761	-0.597277	152.282755	-71.780721	50.982101
63029		12.037547	-0.985019	3.827616	5.599789	5.341642	0.217005	0.666654	-5.241359	-0.996169	-0.471680	-0.064209	0.775879	0.119267	-0.010581	0.041377	0.063803	-0.784529	-0.219347	-0.576481	154.969393	-68.831444	48.535365
63030		9.224657	-1.076149	0.893943	2.707753	3.902205	-1.783168	1.032850	-5.119103	-1.205343	-0.446777	-0.061035	0.800049	0.091911	-0.011370	0.011237	0.058734	-0.797374	-0.228613	-0.555411	156.919895	-65.866423	47.064206
63031		11.821974	-2.431335	1.062582	3.324346	6.232132	0.030214	1.751818	-4.727049	-1.511217	-0.419678	-0.057617	0.816895	0.117739	-0.025312	0.013194	0.056088	-0.808004	-0.240815	-0.534782	158.405228	-63.027617	46.530846
63032		12.766688	-2.376037	3.194916	5.673238	7.574218	-0.364772	2.531060	-3.759728	-1.645702	-0.395996	-0.032959	0.828369	0.126837	-0.025228	0.034026	0.057359	-0.815153	-0.255222	-0.516814	159.654010	-60.673656	46.759950
63033		34.570807	1.418559	15.552583	24.979592	17.188747	12.978626	3.024331	-2.452325	-1.508005	-0.389404	-0.014648	0.838135	0.343847	0.009192	0.159914	0.062635	-0.818541	-0.269833	-0.503247	160.807512	-59.054733	47.429818
63034		22.279212	5.685725	17.469047	24.320955	10.350880	1.814547	1.808786	0.702792	-0.429968	-0.408447	0.004639	0.824219	0.223525	0.054799	0.174408	0.069890	-0.815608	-0.275919	-0.503755	161.235873	-59.350275	48.138138
63035		20.138308	4.125205	14.602688	20.301230	9.895746	1.399501	0.542333	2.440702	0.262127	-0.443848	0.011475	0.811279	0.203092	0.041126	0.143667	0.076110	-0.809587	-0.275340	-0.512800	161.010361	-60.718206	48.756499
63036		12.634539	0.947740	7.896753	10.669839	6.987041	-2.053940	0.051684	3.756483	0.505062	-0.496338	0.019531	0.781982	0.127774	0.009779	0.076579	0.082760	-0.800509	-0.271959	-0.527612	160.220228	-62.839499	49.687168
63037		8.460924	0.582030	5.350692	6.975592	4.647144	-4.309499	0.005919	4.372055	0.430829	-0.550049	0.032227	0.738281	0.085739	0.006003	0.051641	0.089831	-0.789385	-0.268373	-0.544772	158.903119	-65.269708	51.154388
63038		7.736561	0.438762	4.138771	5.501669	3.891477	-4.177935	0.050816	4.662846	0.312224	-0.604004	0.040039	0.711670	0.078295	0.004499	0.039571	0.097102	-0.776890	-0.265122	-0.562781	157.007338	-67.808500	53.252679
63039		7.528365	0.020389	3.120785	4.145093	3.592359	-3.786485	0.091758	5.031255	0.287020	-0.660156	0.044434	0.668213	0.076036	0.000299	0.029301	0.104889	-0.762843	-0.261736	-0.581862	154.336944	-70.500551	56.164396
63040		6.984101	-0.013965	2.677410	3.382216	3.114715	-3.914199	0.140602	5.351868	0.354777	-0.697998	0.050049	0.627686	0.070524	-0.000033	0.024893	0.113411	-0.747417	-0.257902	-0.601658	150.639078	-73.310833	60.138528
63041		6.237700	0.452456	2.758925	3.320102	2.417461	-4.349524	0.057430	5.547209	0.534552	-0.747070	0.055908	0.573242	0.063098	0.004685	0.025847	0.122327	-0.731118	-0.252830	-0.621756	145.462014	-76.169883	65.535748
63042		6.108830	1.070395	3.066740	3.636976	1.846761	-4.225394	-0.207489	5.624180	0.850237	-0.781738	0.072510	0.516113	0.061872	0.010997	0.028923	0.131259	-0.714569	-0.245547	-0.641770	138.022332	-79.003414	73.029422
63043		5.584069	1.032009	2.875486	3.187717	1.487879	-4.509008	-0.601673	5.607375	1.232239	-0.804932	0.081055	0.458740	0.056551	0.010750	0.027144	0.139876	-0.698209	-0.235431	-0.661447	126.474088	-81.696838	84.388212
63044		5.500058	-0.038013	2.432659	2.042762	1.940953	-4.500477	-0.903265	5.513046	1.591024	-0.836426	0.102051	0.406982	0.055643	0.000166	0.022799	0.148403	-0.682218	-0.222948	-0.680330	106.695714	-83.955012	103.794749
63045		5.498687	-1.532567	1.679752	0.447111	2.606558	-4.483263	-0.950823	5.426331	1.865130	-0.850342	0.108398	0.354736	0.055556	-0.014734	0.015366	0.156400	-0.666594	-0.208273	-0.698437	73.413056	-85.066585	136.501860
63046		5.491511	-3.208016	0.928867	-1.223539	3.446131	-4.527843	-0.653734	5.351915	1.998480	-0.878174	0.136230	0.307861	0.055456	-0.031500	0.007913	0.166698	-0.650255	-0.195072	-0.715072	38.482452	-84.264382	171.198746
63047		6.345607	-3.697634	1.043276	-1.654725	3.691030	-3.595464	-0.119872	5.303807	2.004887	-0.891357	0.153076	0.256836	0.064070	-0.036330	0.008761	0.177727	-0.633318	-0.182950	-0.730651	17.883338	-82.095645	-168.259780
63048		7.450173	-2.754433	2.075173	-0.723231	3.045348	-2.224311	0.357670	5.325438	1.967853	-0.890381	0.180420	0.197266	0.075284	-0.026841	0.018705	0.190837	-0.615124	-0.173234	-0.745113	7.271881	-79.355748	-157.303624
63049		8.200918	-1.075610	3.150529	0.576948	1.720848	-1.151155	0.581481	5.401325	1.937170	-0.900146	0.192627	0.147217	0.082919	-0.010043	0.029244	0.203863	-0.596015	-0.163809	-0.759192	1.387667	-76.353245	-151.029375
63050		8.162772	0.825530	3.923426	1.850933	0.104183	-0.910556	0.492591	5.426510	1.922324	-0.898682	0.223877	0.099121	0.082569	0.008953	0.037024	0.216978	-0.576276	-0.154367	-0.772656	-2.292107	-73.238787	-146.924778
63051		7.846405	1.795918	4.069436	2.217855	-0.965784	-1.124690	0.196002	5.338182	1.860078	-0.893555	0.234131	0.055420	0.079342	0.018656	0.038602	0.228322	-0.556749	-0.143638	-0.785664	-4.814279	-70.123345	-144.211423
63052		8.114311	1.938737	3.980778	1.829947	-1.537136	-0.884257	-0.070320	5.189752	1.659583	-0.884521	0.258789	0.001465	0.081975	0.020079	0.037681	0.238279	-0.537465	-0.132781	-0.797949	-6.519844	-67.075387	-142.423040
63053		8.653901	2.369854	4.488737	1.958686	-2.153941	-0.212782	-0.257619	5.051460	1.320126	-0.875488	0.276611	-0.041260	0.087476	0.024330	0.042655	0.245789	-0.518385	-0.121957	-0.809933	-7.537992	-64.114125	-141.512370
63054		9.491197	2.923323	5.337263	2.248722	-2.834306	0.864371	-0.446526	4.979844	0.853069	-0.873291	0.288818	-0.072266	0.096074	0.029757	0.050924	0.251036	-0.499159	-0.111797	-0.821780	-7.985386	-61.226276	-141.296408
63055		10.427955	3.176523	6.142782	2.198128	-3.359981	2.036915	-0.656301	4.975822	0.310761	-0.848633	0.290283	-0.115723	0.105713	0.032124	0.058704	0.253250	-0.479591	-0.101990	-0.833940	-7.982677	-58.381455	-141.750545
63056		11.504330	2.848778	6.649361	1.431968	-3.602494	3.210776	-0.861775	5.026766	-0.247204	-0.844238	0.293457	-0.155273	0.116699	0.028622	0.063451	0.252627	-0.459479	-0.092608	-0.846453	-7.657778	-55.552567	-142.726371
63057		12.542467	2.259108	6.821402	0.168902	-3.753668	4.143767	-1.003757	5.084701	-0.749030	-0.837158	0.276367	-0.199707	0.127187	0.022448	0.064882	0.249405	-0.438746	-0.083633	-0.859246	-7.125081	-52.721357	-144.093934
63058		13.549513	1.670553	6.793312	-1.332919	-3.945675	4.854636	-1.116414	5.104606	-1.149494	-0.821533	0.270508	-0.225830	0.137263	0.016286	0.064353	0.244058	-0.417611	-0.074981	-0.872018	-6.514066	-49.900573	-145.695356
63059		14.626626	0.964624	6.444779	-3.235132	-4.121556	5.316508	-1.231721	5.060892	-1.383372	-0.816406	0.261719	-0.253906	0.147897	0.009008	0.060662	0.237109	-0.396414	-0.066247	-0.884447	-5.971079	-47.107328	-147.380352
63060		15.205338	0.218624	5.740183	-5.136146	-4.118764	5.046644	-1.328526	4.933850	-1.459659	-0.804199	0.248535	-0.292480	0.153420	0.001434	0.053617	0.229567	-0.375589	-0.057409	-0.896067	-5.585641	-44.384070	-148.980379
63061		15.527523	-0.299187	4.997558	-6.753054	-4.145195	4.446796	-1.389070	4.684852	-1.399883	-0.792236	0.244141	-0.324951	0.156365	-0.003754	0.046345	0.221672	-0.355713	-0.048331	-0.906639	-5.392423	-41.792402	-150.461555
63062		15.576953	-0.656421	4.103868	-8.121450	-4.178859	3.470853	-1.426480	4.332215	-1.241368	-0.783936	0.240234	-0.346680	0.156567	-0.007258	0.037703	0.214488	-0.337298	-0.039273	-0.915796	-5.402480	-39.393307	-151.701463
63063		15.819228	-0.570155	3.536512	-9.127541	-4.546088	2.799541	-1.443295	3.865239	-1.020229	-0.774170	0.229736	-0.374023	0.158806	-0.006270	0.032344	0.207889	-0.320905	-0.030179	-0.923521	-5.600386	-37.248521	-152.739070
63064		17.679294	-0.239658	3.178147	-10.990821	-5.657395	3.221106	-1.453658	3.402480	-0.785302	-0.766357	0.226074	-0.404785	0.177289	-0.002876	0.028788	0.202403	-0.306572	-0.021200	-0.929837	-5.959782	-35.359515	-153.538112
63065		19.822760	0.085768	2.856071	-13.055920	-6.841083	3.745197	-1.420694	3.096751	-0.562836	-0.759766	0.233887	-0.420410	0.198640	0.000487	0.025483	0.197703	-0.293539	-0.012275	-0.935199	-6.420750	-33.634209	-154.184103
63066		20.358469	0.385409	1.969826	-14.236494	-7.487957	2.825267	-1.316535	2.938961	-0.396724	-0.753906	0.225342	-0.433350	0.203852	0.003566	0.016680	0.194067	-0.281078	-0.003809	-0.939850	-6.903217	-31.993312	-154.685042
63067		19.527682	0.641179	0.474319	-14.648211	-7.624212	0.639198	-1.111345	2.802112	-0.290433	-0.746826	0.225830	-0.453369	0.195326	0.006144	0.001972	0.191025	-0.268983	0.003750	-0.944004	-7.318671	-30.424917	-155.127972
63068		17.868303	1.320081	-1.010313	-14.137879	-7.797068	-1.980271	-0.828564	2.593365	-0.203702	-0.740723	0.236816	-0.483887	0.178545	0.012971	-0.012473	0.188880	-0.257555	0.009850	-0.947572	-7.616956	-28.972062	-155.483308
63069		16.292868	1.610225	-2.231116	-13.576809	-7.574589	-4.216979	-0.537613	2.266680	-0.090664	-0.728271	0.232666	-0.498291	0.162669	0.015965	-0.024199	0.187515	-0.247345	0.014436	-0.950500	-7.802554	-27.696576	-155.753672
63070		15.874004	0.798395	-3.238686	-14.122719	-6.723763	-5.518218	-0.160903	1.888031	0.035059	-0.724121	0.231201	-0.511719	0.158423	0.007985	-0.033890	0.187335	-0.238553	0.017000	-0.952738	-7.829169	-26.627392	-155.896416
63071		15.854395	0.026621	-3.679305	-14.651368	-6.033085	-6.093322	0.256345	1.557740	0.174808	-0.709961	0.225342	-0.516846	0.158251	0.000453	-0.038026	0.188235	-0.230907	0.017455	-0.954434	-7.671230	-25.734424	-155.931592
63072		15.073114	-0.423754	-3.993301	-14.341530	-5.390159	-6.882201	0.618172	1.246170	0.347847	-0.705078	0.237549	-0.533691	0.150485	-0.003850	-0.040883	0.190493	-0.224385	0.016066	-0.955566	-7.366103	-25.005745	-155.816119
63073		13.686909	-0.547804	-4.317245	-13.382670	-4.854122	-7.912822	0.841041	0.870354	0.513714	-0.695557	0.235840	-0.542236	0.136693	-0.004944	-0.043789	0.193725	-0.219422	0.013457	-0.956109	-6.989441	-24.479523	-155.573772
63074		12.433318	-0.148403	-4.300815	-12.166104	-4.850641	-8.562805	0.887959	0.407046	0.653366	-0.699219	0.224365	-0.550537	0.124249	-0.000886	-0.043266	0.197789	-0.216611	0.010310	-0.955957	-6.635975	-24.208806	-155.196034
63075		12.138800	0.330220	-3.622850	-11.416664	-5.242217	-8.150700	0.789464	-0.110622	0.782742	-0.694824	0.229492	-0.550293	0.121393	0.003920	-0.036147	0.202289	-0.216361	0.007279	-0.955099	-6.386607	-24.226654	-154.711037
63076		12.282948	0.721632	-2.756868	-10.961808	-5.708718	-7.314822	0.625476	-0.572533	0.913356	-0.701660	0.234131	-0.543457	0.122873	0.007863	-0.027193	0.207341	-0.218468	0.004688	-0.953551	-6.279777	-24.500229	-154.100275
63077		11.982016	0.968704	-1.810742	-10.137491	-5.850151	-6.527847	0.476396	-0.978143	1.039698	-0.696289	0.239258	-0.530029	0.119854	0.010352	-0.017497	0.212705	-0.222656	0.002548	-0.951406	-6.307253	-24.998151	-153.395788
63078		11.601954	0.936054	-0.880179	-9.336907	-5.693652	-5.731371	0.399605	-1.330781	1.135750	-0.703125	0.248047	-0.519775	0.116019	0.010036	-0.008010	0.218558	-0.228581	0.000482	-0.948674	-6.424270	-25.689057	-152.586577
63079		11.249113	1.110931	0.178740	-8.387885	-5.697938	-4.814571	0.424396	-1.622711	1.175248	-0.702393	0.246826	-0.511230	0.112404	0.011765	0.002724	0.224450	-0.235852	-0.001945	-0.945512	-6.559667	-26.543296	-151.743216
63080		10.798951	1.575817	1.492973	-7.085595	-5.857116	-3.745300	0.510303	-1.847085	1.133553	-0.705078	0.258057	-0.491699	0.107754	0.016329	0.015967	0.230376	-0.244050	-0.005108	-0.941988	-6.658290	-27.525098	-150.882078
63081		9.748621	2.096930	2.940094	-5.197277	-5.726395	-2.865107	0.569666	-2.008142	1.029780	-0.705322	0.257568	-0.474365	0.097075	0.021384	0.030438	0.235645	-0.252918	-0.008818	-0.938310	-6.714523	-28.606178	-150.091157
63082		8.987847	2.028886	4.281785	-3.819772	-5.140243	-1.925093	0.631660	-2.103641	0.839426	-0.722412	0.268311	-0.448975	0.089335	0.020527	0.043824	0.240269	-0.262104	-0.013213	-0.934558	-6.697579	-29.752344	-149.382758
63083		8.619219	2.205723	5.710999	-2.574132	-4.862903	-0.785336	0.634055	-2.081510	0.629059	-0.724121	0.260010	-0.431152	0.085522	0.022144	0.058073	0.243634	-0.271154	-0.017808	-0.931021	-6.623135	-30.902448	-148.838202
63084		-5.550479	5.129427	23.446401	18.228453	1.943472	6.642638	0.065695	-1.971553	0.568487	-0.722168	0.263916	-0.414307	-0.057958	0.051055	0.233918	0.246177	-0.280330	-0.019760	-0.927589	-6.864080	-31.991274	-148.303454
63085		-11.915248	-2.665127	34.571657	25.129428	13.676686	13.115964	-0.830739	-1.026341	0.920362	-0.712402	0.277344	-0.399414	-0.120805	-0.025770	0.345208	0.249173	-0.286246	-0.015900	-0.925053	-7.716926	-32.514217	-147.595746
63086		-5.015589	7.747027	26.008950	20.899824	-0.047196	8.210134	-0.717688	-1.023843	0.573983	-0.717529	0.282471	-0.392822	-0.051709	0.078255	0.259548	0.250709	-0.291955	-0.013051	-0.922896	-8.390529	-33.054239	-147.110410
63087		-4.889559	8.054744	3.581274	9.126730	-4.197742	-10.641431	-1.548332	-2.555400	0.761270	-0.716553	0.304932	-0.367432	-0.049649	0.080630	0.034558	0.251764	-0.305748	-0.008017	-0.918188	-9.719030	-34.437360	-146.314561
63088		32.854433	-3.497475	14.113837	-15.905976	-9.585087	20.942825	-1.511348	-2.312516	0.266209	-0.720947	0.309082	-0.346436	0.326926	-0.033452	0.145181	0.250555	-0.318289	-0.003598	-0.914276	-10.856469	-35.719037	-145.841524
63089		16.472865	-14.564344	4.921620	-14.898856	6.007173	5.987149	-0.376581	-0.027867	0.316266	-0.726318	0.320068	-0.336670	0.164952	-0.145290	0.049513	0.251401	-0.318939	-0.001430	-0.913823	-11.201894	-35.706109	-145.617629
63090		1.166163	-9.625401	3.250495	-3.325353	8.398451	-5.018731	0.048011	-0.549296	0.373108	-0.719971	0.324707	-0.339111	0.011752	-0.096240	0.032514	0.253174	-0.321431	-0.001761	-0.912460	-11.370275	-35.978150	-145.282395
63091		8.267977	0.860390	9.702266	0.614214	-2.937471	2.606141	0.036685	-0.538611	0.132061	-0.710693	0.324951	-0.328857	0.082412	0.008641	0.097246	0.253829	-0.323890	-0.002418	-0.911406	-11.448014	-36.271861	-145.113740
63092		7.407809	0.398109	7.276434	-0.400827	-2.530165	0.257962	-0.202310	-0.493954	0.028615	-0.718018	0.332275	-0.330322	0.073898	0.004065	0.072943	0.253622	-0.326437	-0.002093	-0.910555	-11.617502	-36.551122	-145.022800
63093		8.604467	-4.533077	7.214464	-3.462540	1.209694	1.727739	-0.188981	-0.281806	0.030144	-0.710693	0.333984	-0.325684	0.085950	-0.045250	0.072309	0.253448	-0.328008	-0.001562	-0.910040	-11.762687	-36.711966	-144.959648
63094		6.305987	-3.343517	7.371196	-1.281915	1.256714	0.289612	-0.057434	-0.143605	0.080513	-0.720459	0.338135	-0.324951	0.063020	-0.033389	0.073767	0.253716	-0.328776	-0.001367	-0.909689	-11.841893	-36.788306	-144.881584
63095		6.016725	-1.170813	8.313088	0.490105	-0.347912	0.498372	-0.100920	-0.067660	0.061732	-0.720459	0.337158	-0.330566	0.060143	-0.011648	0.083157	0.253830	-0.329261	-0.000912	-0.909482	-11.931711	-36.825232	-144.827008
63096		6.137353	-1.970993	7.869985	-0.211508	0.211085	0.355856	-0.126373	-0.050813	0.049812	-0.711426	0.344727	-0.331787	0.061358	-0.019645	0.078728	0.253845	-0.329693	-0.000336	-0.909321	-12.029587	-36.853021	-144.783847
63097		6.599584	-2.005109	7.530402	-0.722868	-0.037506	0.373478	-0.081755	-0.024189	0.063143	-0.723633	0.350098	-0.332031	0.065993	-0.019999	0.075320	0.253998	-0.329956	0.000088	-0.909183	-12.105258	-36.865292	-144.734613
63098		6.776769	-1.868614	7.512679	-0.780082	-0.250087	0.443315	-0.065083	0.011500	0.089250	-0.711914	0.344971	-0.330078	0.067780	-0.018631	0.075129	0.254293	-0.330027	0.000530	-0.909075	-12.179026	-36.853327	-144.673119
63099		7.687520	-2.159743	7.552371	-1.485203	-0.423021	1.069222	-0.015789	0.088985	0.112479	-0.715820	0.352539	-0.335205	0.076921	-0.021548	0.075491	0.254778	-0.329691	0.000880	-0.909060	-12.227325	-36.796184	-144.606463
63100		6.795809	-2.042532	7.256500	-1.032262	-0.173839	0.282655	-0.014738	0.121275	0.105148	-0.717285	0.354980	-0.341064	0.068013	-0.020384	0.072525	0.255229	-0.329199	0.001258	-0.909112	-12.268778	-36.720731	-144.550621
63101		6.463792	-1.897508	7.541421	-0.584908	-0.110316	0.281859	-0.015091	0.119727	0.078367	-0.714600	0.350586	-0.353027	0.064690	-0.018944	0.075377	0.255560	-0.328723	0.001588	-0.909191	-12.299421	-36.650511	-144.512645
63102		6.005652	-1.643314	7.469608	-0.217667	-0.138917	-0.091747	-0.014162	0.097405	0.042589	-0.718750	0.357422	-0.347412	0.060096	-0.016415	0.074668	0.255726	-0.328339	0.001831	-0.909282	-12.316458	-36.596013	-144.497001
63103		6.241805	-1.412083	7.533644	-0.231875	-0.445501	0.059377	-0.010389	0.076589	0.022128	-0.724609	0.358887	-0.348145	0.062448	-0.014110	0.075313	0.255810	-0.328054	0.001992	-0.909362	-12.324847	-36.556820	-144.491757
63104		5.622063	-1.808790	7.677950	0.071545	0.208289	-0.128591	-0.012796	0.052320	0.000868	-0.725342	0.370850	-0.348145	0.056241	-0.018083	0.076766	0.255789	-0.327873	0.002102	-0.909432	-12.327840	-36.532658	-144.498355
63105		5.645038	-1.598243	7.851216	0.256412	0.042309	-0.014989	0.002094	0.003214	-0.012553	-0.733154	0.367920	-0.350830	0.056451	-0.015987	0.078511	0.255781	-0.327905	0.002041	-0.909423	-12.321566	-36.538652	-144.500415
63106		5.917132	-1.625921	7.569249	-0.101432	-0.104251	-0.069564	0.000101	-0.030285	-0.034997	-0.724609	0.367432	-0.343750	0.059157	-0.016270	0.075701	0.255619	-0.328084	0.001928	-0.909404	-12.309773	-36.565112	-144.519433
63107		6.563497	-1.382528	7.352762	-0.537402	-0.646909	0.104302	0.023944	-0.055039	-0.050343	-0.727295	0.364746	-0.351318	0.065611	-0.013851	0.073544	0.255477	-0.328354	0.001631	-0.909348	-12.280543	-36.608330	-144.538819
63108		5.880203	-1.635836	7.714120	0.011885	-0.041281	0.023905	0.013034	-0.059369	-0.059755	-0.729736	0.364258	-0.355713	0.058774	-0.016381	0.077158	0.255224	-0.328648	0.001381	-0.909313	-12.253616	-36.654074	-144.570745
63109		6.352630	-1.260109	7.516995	-0.235999	-0.612381	0.087731	0.015605	-0.070333	-0.058424	-0.732422	0.366455	-0.353271	0.063496	-0.012626	0.075191	0.255030	-0.328998	0.001090	-0.909241	-12.227090	-36.706840	-144.593656
63110		6.060826	-1.732695	7.396104	-0.331438	-0.077054	-0.100715	0.021075	-0.077021	-0.064978	-0.736328	0.367920	-0.358154	0.060574	-0.017354	0.073983	0.254767	-0.329362	0.000772	-0.909183	-12.194864	-36.763078	-144.626661
63111		6.166186	-1.574217	7.519621	-0.247725	-0.234226	0.032539	0.014720	-0.068955	-0.070639	-0.741943	0.362061	-0.355713	0.061630	-0.015769	0.075216	0.254520	-0.329707	0.000465	-0.909127	-12.163511	-36.816534	-144.657873
63112		5.640327	-1.820769	7.521520	-0.012275	0.234264	-0.239458	0.029424	-0.084522	-0.089441	-0.745850	0.362549	-0.355469	0.056363	-0.018244	0.075236	0.254159	-0.330095	0.000060	-0.909088	-12.116776	-36.879889	-144.707008
63113		6.129011	-1.586998	7.499345	-0.231295	-0.187213	-0.002746	0.032565	-0.087342	-0.090389	-0.746582	0.375732	-0.359619	0.061250	-0.015910	0.075018	0.253830	-0.330500	-0.000378	-0.909032	-12.068269	-36.946055	-144.752255
63114		5.998597	-1.849216	7.412359	-0.314052	0.098766	-0.105091	0.026750	-0.091613	-0.097619	-0.747559	0.367676	-0.353516	0.059943	-0.018531	0.074149	0.253428	-0.330923	-0.000794	-0.908990	-12.020033	-37.014295	-144.806282
63115		5.995664	-1.671182	7.530688	-0.152890	-0.021903	-0.043951	0.037543	-0.101909	-0.110353	-0.744141	0.354736	-0.358154	0.059909	-0.016759	0.075334	0.253043	-0.331388	-0.001314	-0.908928	-11.961445	-37.090862	-144.860069
63116		5.925134	-1.542801	7.720541	0.073167	-0.054603	0.040528	0.040491	-0.120591	-0.110011	-0.751953	0.363037	-0.354980	0.059196	-0.015476	0.077238	0.252607	-0.331925	-0.001849	-0.908852	-11.902392	-37.176730	-144.918780
63117		5.965150	-1.679319	7.507008	-0.136510	0.025106	-0.079291	0.039998	-0.129400	-0.115673	-0.766357	0.359619	-0.362061	0.059593	-0.016843	0.075105	0.252174	-0.332511	-0.002416	-0.908757	-11.842099	-37.269336	-144.976132
63118		6.010258	-1.730648	7.553356	-0.153001	0.073489	-0.007450	0.035424	-0.140965	-0.127136	-0.765869	0.361084	-0.352539	0.060038	-0.017358	0.075573	0.251650	-0.333146	-0.002983	-0.908668	-11.780073	-37.368539	-145.044287
63119		5.929313	-1.644603	7.412715	-0.136701	0.027148	-0.179911	0.034752	-0.134050	-0.119925	-0.773926	0.355469	-0.361816	0.059234	-0.016494	0.074164	0.251175	-0.333760	-0.003534	-0.908572	-11.720897	-37.464202	-145.106054
63120		6.127404	-1.580375	7.363364	-0.257487	-0.111598	-0.107894	0.036078	-0.136871	-0.122100	-0.767090	0.360840	-0.363037	0.061214	-0.015854	0.073673	0.250675	-0.334375	-0.004090	-0.908481	-11.659850	-37.560409	-145.171686
63121		5.847956	-1.718159	7.423905	-0.093999	0.161391	-0.209036	0.028386	-0.115591	-0.121231	-0.773682	0.355713	-0.363525	0.058426	-0.017228	0.074270	0.250184	-0.334913	-0.004592	-0.908416	-11.601703	-37.645770	-145.237418
63122		5.790833	-1.445275	7.449621	0.090398	-0.032903	-0.267523	0.032158	-0.106686	-0.114670	-0.778320	0.351563	-0.356201	0.057860	-0.014498	0.074525	0.249712	-0.335395	-0.005080	-0.908366	-11.543041	-37.724073	-145.302566
63123		5.921742	-1.597443	7.328899	-0.130384	0.033917	-0.256880	0.025469	-0.118382	-0.113139	-0.780273	0.352783	-0.364014	0.059165	-0.016017	0.073322	0.249240	-0.335949	-0.005555	-0.908288	-11.489886	-37.810014	-145.364078
63124		5.976521	-1.611413	7.624124	0.014697	0.088105	0.007431	0.030968	-0.119966	-0.109725	-0.783203	0.348145	-0.365723	0.059711	-0.016159	0.076275	0.248787	-0.336492	-0.006045	-0.908208	-11.434881	-37.895113	-145.424132
63125		6.027034	-1.410861	7.477163	-0.007021	-0.121768	-0.106569	0.025454	-0.142771	-0.106568	-0.784668	0.352539	-0.353271	0.060209	-0.014150	0.074813	0.248339	-0.337157	-0.006538	-0.908080	-11.386376	-37.993939	-145.478402
63126		6.594296	-1.226473	7.204841	-0.446824	-0.569956	0.004348	0.044590	-0.162880	-0.097075	-0.794189	0.345459	-0.373779	0.065878	-0.012313	0.072099	0.247965	-0.337878	-0.007122	-0.907910	-11.332538	-38.101631	-145.523637
63127		5.652590	-1.714375	7.760789	0.292769	0.394891	-0.072101	0.050648	-0.175917	-0.102975	-0.789307	0.336670	-0.362061	0.056449	-0.017192	0.077653	0.247568	-0.338662	-0.007762	-0.907721	-11.273655	-38.218640	-145.571854
63128		6.229680	-1.687894	7.420900	-0.263762	0.072241	0.018529	0.042324	-0.204104	-0.123418	-0.803467	0.350830	-0.358154	0.062211	-0.016933	0.074269	0.247068	-0.339571	-0.008432	-0.907512	-11.212653	-38.352368	-145.630508
63129		5.925226	-1.906598	7.287523	-0.232512	0.396308	-0.239797	0.066295	-0.237942	-0.141702	-0.807373	0.331055	-0.360352	0.059152	-0.019132	0.072939	0.246503	-0.340614	-0.009280	-0.907266	-11.132417	-38.508505	-145.700200
63130		5.826671	-1.992847	7.717214	0.071647	0.620043	0.040599	0.072745	-0.250881	-0.176007	-0.812012	0.333984	-0.349121	0.058152	-0.020008	0.077238	0.245813	-0.341695	-0.010235	-0.907037	-11.033801	-38.674198	-145.790821
63131		6.035626	-1.970909	7.564726	-0.129287	0.510322	0.049416	0.091278	-0.293030	-0.208335	-0.812500	0.340088	-0.352051	0.060225	-0.019806	0.075727	0.244947	-0.342953	-0.011365	-0.906783	-10.912824	-38.868512	-145.906646
63132		6.403048	-1.681389	7.336142	-0.356741	0.087002	0.062032	0.122531	-0.335182	-0.232350	-0.815918	0.336182	-0.356689	0.063888	-0.016933	0.073458	0.244081	-0.344349	-0.012746	-0.906469	-10.766021	-39.087412	-146.027766
63133		6.297456	-1.661524	7.378205	-0.233057	0.162518	0.024773	0.134238	-0.352082	-0.257285	-0.817627	0.326172	-0.357178	0.062823	-0.016746	0.073882	0.243087	-0.345816	-0.014236	-0.906155	-10.601381	-39.319676	-146.169664
63134		6.336859	-1.384846	7.375860	-0.113120	-0.056343	0.008754	0.146816	-0.395904	-0.280753	-0.828125	0.321533	-0.352539	0.063203	-0.013991	0.073874	0.242036	-0.347450	-0.015883	-0.905784	-10.421131	-39.577301	-146.320313
63135		6.561317	-1.420743	7.192977	-0.362045	-0.110638	0.019136	0.147713	-0.429101	-0.295803	-0.833008	0.317871	-0.343994	0.065437	-0.014357	0.072060	0.240858	-0.349243	-0.017586	-0.905377	-10.234351	-39.856351	-146.486124
63136		6.119835	-1.700708	7.281251	-0.123481	0.390703	-0.159023	0.180494	-0.464532	-0.324370	-0.832520	0.317139	-0.344971	0.061001	-0.017172	0.072939	0.239659	-0.351139	-0.019544	-0.904921	-10.016591	-40.156288	-146.663351
63137		6.051569	-0.788752	7.641724	0.583296	-0.259954	-0.054029	0.195957	-0.528721	-0.335022	-0.848633	0.299805	-0.344971	0.060300	-0.008064	0.076569	0.238364	-0.353316	-0.021649	-0.904368	-9.787692	-40.494552	-146.850749
63138		6.393803	-1.309215	7.135528	-0.151741	0.010439	-0.143819	0.189828	-0.574587	-0.343580	-0.855957	0.307129	-0.342041	0.063710	-0.013270	0.071526	0.237079	-0.355689	-0.023815	-0.903721	-9.559605	-40.857420	-147.033192
63139		5.999348	-1.124082	7.711364	0.581956	0.189012	0.002915	0.176722	-0.598081	-0.346511	-0.856934	0.293457	-0.331787	0.059743	-0.011413	0.077283	0.235654	-0.358193	-0.025925	-0.903046	-9.336211	-41.234959	-147.229904
63140		6.282690	-0.959231	7.469057	0.363482	-0.064169	-0.012564	0.195311	-0.668927	-0.339671	-0.867432	0.293945	-0.328125	0.062560	-0.009772	0.074891	0.234378	-0.360977	-0.028219	-0.902201	-9.108808	-41.649720	-147.403787
63141		6.267833	-1.044889	7.162838	0.185337	0.013394	-0.239353	0.185047	-0.716476	-0.339427	-0.874512	0.283447	-0.323730	0.062403	-0.010621	0.071842	0.232965	-0.363997	-0.030486	-0.901279	-8.887430	-42.092536	-147.588835
63142		6.355441	-0.999444	7.299162	0.288291	0.033799	-0.087287	0.203799	-0.780815	-0.336748	-0.883057	0.287109	-0.323486	0.063252	-0.010176	0.073229	0.231693	-0.367263	-0.032942	-0.900195	-8.658971	-42.569365	-147.754083
63143		6.215909	-0.836368	7.352591	0.538373	0.025704	-0.163522	0.221457	-0.874620	-0.343284	-0.892334	0.264893	-0.313232	0.061822	-0.008552	0.073787	0.230285	-0.370939	-0.035559	-0.898949	-8.419871	-43.101102	-147.932562
63144		6.635609	-0.624023	7.075149	0.256653	-0.316153	-0.101266	0.244129	-0.989929	-0.324807	-0.895996	0.268799	-0.309326	0.065994	-0.006434	0.071071	0.229094	-0.375085	-0.038413	-0.897414	-8.183121	-43.694479	-148.072962
63145		6.149366	-0.856821	7.310721	0.681228	0.215296	-0.247961	0.269694	-1.109520	-0.328226	-0.905273	0.260010	-0.296387	0.061073	-0.008768	0.073435	0.227756	-0.379743	-0.041472	-0.895658	-7.933566	-44.357314	-148.226960
63146		5.906799	-0.835583	7.459753	1.019636	0.412436	-0.324522	0.292673	-1.254719	-0.338492	-0.917480	0.258789	-0.282227	0.058584	-0.008565	0.074954	0.226525	-0.384990	-0.044869	-0.893563	-7.672005	-45.101154	-148.359761
63147		6.316072	-0.833621	7.189608	0.691653	0.287990	-0.235892	0.318024	-1.466317	-0.345085	-0.922607	0.250488	-0.270264	0.062617	-0.008559	0.072343	0.225096	-0.391152	-0.048571	-0.891052	-7.401015	-45.966993	-148.502699
63148		5.952889	-1.217848	7.471507	1.040495	0.944744	-0.285564	0.315259	-1.624111	-0.370751	-0.935059	0.238037	-0.255127	0.058897	-0.012406	0.075176	0.223653	-0.397968	-0.052542	-0.888166	-7.122208	-46.922193	-148.637598
63149		6.261522	-1.495961	7.031638	0.562855	1.082187	-0.357645	0.335778	-1.824247	-0.445716	-0.947266	0.236084	-0.235596	0.061937	-0.015217	0.070858	0.221667	-0.405621	-0.056904	-0.884928	-6.789902	-47.997674	-148.848759
63150		6.836980	-1.699338	6.641483	0.013863	1.088197	-0.192216	0.333191	-2.025526	-0.553025	-0.964600	0.225098	-0.219238	0.067645	-0.017292	0.067074	0.219302	-0.414073	-0.061756	-0.881270	-6.392780	-49.192186	-149.123131
63151		6.339780	-1.850384	6.840477	0.520841	1.595466	-0.453843	0.328730	-2.215807	-0.684962	-0.968750	0.213867	-0.188965	0.062571	-0.018832	0.069070	0.216055	-0.423301	-0.066979	-0.877297	-5.901106	-50.503520	-149.544515
63152		6.495748	-1.633674	6.605065	0.527798	1.442191	-0.532224	0.356197	-2.463484	-0.805776	-0.973145	0.207764	-0.169434	0.064071	-0.016715	0.066814	0.212425	-0.433455	-0.072917	-0.872740	-5.295918	-51.958580	-150.058384
63153		6.450828	-1.695006	6.915232	0.934894	1.789700	-0.419971	0.376103	-2.725892	-0.925076	-0.969238	0.191650	-0.139648	0.063478	-0.017376	0.069990	0.208184	-0.444614	-0.079469	-0.867561	-4.561821	-53.566676	-150.708720
63154		5.720178	-1.740900	7.189126	1.697749	2.330329	-0.918076	0.413407	-3.066975	-1.060742	-0.988281	0.179688	-0.111572	0.055997	-0.017858	0.072720	0.203250	-0.457045	-0.086817	-0.861547	-3.651638	-55.368243	-151.535479
63155		5.949698	-1.437982	7.408822	2.104964	2.289056	-0.720052	0.446229	-3.495152	-1.216329	-0.989258	0.172119	-0.071777	0.058101	-0.014903	0.075079	0.197474	-0.471085	-0.095073	-0.854426	-2.510186	-57.411855	-152.597967
63156		5.691604	-0.809873	8.209726	3.373209	2.316230	-0.664378	0.524430	-3.983268	-1.343212	-0.997070	0.146973	-0.028320	0.055209	-0.008691	0.083186	0.191027	-0.486877	-0.104402	-0.845908	-1.066441	-59.722402	-153.937048
63157		6.170847	-0.798792	8.961605	4.060798	2.764103	-0.072303	0.532706	-4.510382	-1.505569	-1.000732	0.126953	0.023926	0.059604	-0.008683	0.090954	0.183542	-0.504562	-0.114614	-0.835819	0.786312	-62.315280	-155.704765
63158		6.754154	0.796737	9.504099	5.294986	1.750801	0.456124	0.541953	-5.074489	-1.668869	-0.994629	0.115967	0.072021	0.065163	0.007156	0.096735	0.174955	-0.524167	-0.125717	-0.823914	3.244901	-65.193123	-158.098392
63159		10.038323	-0.525331	10.525232	4.802596	3.277897	3.527180	0.470136	-5.719184	-1.805987	-0.985107	0.107178	0.128174	0.097266	-0.006393	0.108050	0.165068	-0.545982	-0.137346	-0.809810	6.575808	-68.376600	-161.427438
63160		12.882893	-0.389172	10.104989	4.184777	3.237985	5.683897	0.792244	-6.070800	-1.716934	-0.979004	0.086426	0.193604	0.125642	-0.005390	0.104877	0.156020	-0.568485	-0.150193	-0.793678	11.187152	-71.668773	-165.848365
63161		16.619183	4.375664	14.414147	9.619071	1.157429	10.412911	0.702742	-6.389400	-1.392138	-0.955811	0.069580	0.247070	0.161769	0.042101	0.149507	0.147604	-0.591973	-0.161852	-0.775619	17.186534	-75.032232	-171.686377
63162		15.812728	1.513971	12.419296	7.932265	3.624176	8.363416	-0.070424	-6.621990	-0.919749	-0.932617	0.063965	0.306396	0.153969	0.014470	0.129332	0.138380	-0.616659	-0.169109	-0.756296	25.034581	-78.394875	-179.787136
63163		18.190652	-3.598373	11.649802	5.720079	8.520452	9.528516	-0.007673	-6.433739	-0.805337	-0.902588	0.053467	0.370605	0.177888	-0.036701	0.122266	0.129791	-0.640018	-0.175936	-0.736599	38.059106	-81.318548	166.983579
63164		17.821200	-2.639701	7.718629	3.642258	6.601803	8.275378	0.838048	-5.871016	-1.103651	-0.882568	0.046387	0.416992	0.175696	-0.027709	0.082255	0.123176	-0.659864	-0.186294	-0.717428	60.298594	-83.073919	145.028846
63165		16.877797	0.083661	10.590477	8.221853	5.961258	7.327957	1.657527	-4.834028	-1.082990	-0.859619	0.047363	0.450439	0.166151	-0.000968	0.109939	0.120206	-0.674978	-0.198732	-0.700329	85.164277	-83.310013	120.948312
63166		28.394114	-5.961542	29.750054	22.587164	21.513327	17.641927	1.473374	-2.263112	0.279560	-0.847656	0.056396	0.453125	0.280639	-0.061427	0.300241	0.123888	-0.682263	-0.204300	-0.690964	97.265552	-83.442671	109.616517
63167		9.313018	-3.507601	23.208220	18.760736	14.614551	-1.321153	1.067566	-0.503555	1.912478	-0.835449	0.079102	0.458252	0.092883	-0.035426	0.232128	0.133604	-0.685277	-0.201765	-0.686903	102.367978	-84.473309	105.100376
63168		7.625053	-1.887555	18.471490	15.333971	10.862769	-2.757934	0.877346	-0.015831	2.525677	-0.835205	0.103516	0.448242	0.076473	-0.018721	0.184639	0.145246	-0.687262	-0.196129	-0.684184	107.440308	-85.868654	100.515242
63169		6.886921	-0.425020	18.323903	15.882961	9.381783	-3.248875	0.559758	1.193767	2.905527	-0.839111	0.127930	0.429688	0.070018	-0.003751	0.182812	0.158250	-0.685555	-0.187164	-0.685522	104.204243	-87.656968	104.076241
63170		1.462777	0.435093	14.874745	13.275563	6.720561	-8.338410	0.326527	2.028883	2.781995	-0.851807	0.156006	0.401123	0.016075	0.004325	0.148596	0.170770	-0.680874	-0.177128	-0.689836	49.589088	-89.109608	158.893785
63171		-2.144606	0.981011	11.638031	10.740777	4.697941	-11.700707	0.080841	2.387878	2.454976	-0.859375	0.183105	0.371582	-0.020172	0.009510	0.116630	0.181014	-0.674795	-0.166484	-0.695822	-20.419123	-87.928894	-131.127617
63172		-2.578797	-0.206612	9.918558	8.692979	5.005571	-11.920028	-0.041810	2.567659	2.083539	-0.855469	0.204590	0.350586	-0.024489	-0.002305	0.099506	0.190226	-0.667573	-0.156976	-0.702509	-29.363183	-86.091336	-122.196146
63173		-2.896452	-1.284600	8.369847	6.869111	5.289629	-12.031453	0.075860	2.785874	1.673940	-0.863281	0.226807	0.309814	-0.027686	-0.013113	0.084085	0.197874	-0.659088	-0.148461	-0.710217	-29.828169	-84.236089	-121.783899
63174		-3.538498	-1.681285	7.182717	5.707103	5.207679	-12.503912	0.340758	2.880318	1.234162	-0.866943	0.237305	0.284912	-0.034241	-0.017149	0.072297	0.205485	-0.649389	-0.142750	-0.718117	-28.102702	-82.454457	-123.323901
63175		-0.944512	-1.162325	8.146285	6.623610	4.968391	-9.606627	0.566284	2.944648	0.863771	-0.881348	0.246826	0.247314	-0.008194	-0.011891	0.081556	0.211900	-0.638898	-0.138475	-0.726452	-25.591365	-80.731042	-125.623398
63176		2.784451	-0.270270	10.102257	8.324975	4.611410	-5.419362	0.570328	3.294169	0.617558	-0.881348	0.264893	0.213135	0.029512	-0.002900	0.100538	0.218207	-0.626697	-0.135079	-0.735792	-22.770143	-78.868843	-128.157121
63177		4.768652	-0.183915	10.719207	8.488847	4.419884	-3.025772	0.372663	3.855042	0.471525	-0.878662	0.265381	0.173584	0.049745	-0.001922	0.106243	0.223226	-0.612395	-0.130425	-0.747082	-19.985743	-76.717019	-130.851104
63178		4.528085	-0.771572	9.629005	7.070320	4.304672	-3.083738	0.155356	4.364921	0.385646	-0.883789	0.282959	0.124268	0.047382	-0.007700	0.095265	0.227928	-0.596056	-0.124937	-0.759709	-17.594396	-74.282838	-133.228208
63179		4.197041	-1.788245	8.384731	5.333930	4.494973	-3.297725	0.049955	4.663800	0.326142	-0.884033	0.284912	0.084473	0.043939	-0.017833	0.082833	0.231932	-0.578367	-0.118655	-0.773059	-15.648971	-71.670429	-135.264899
63180		5.546585	-2.793229	8.314842	4.193613	4.829767	-1.641402	0.070384	4.870112	0.287929	-0.885254	0.290771	0.047607	0.057508	-0.027879	0.081755	0.236061	-0.559496	-0.112428	-0.786511	-14.057527	-68.935939	-136.911506
63181		7.585521	-3.288474	8.842394	3.465024	4.723741	0.779342	0.143992	5.128357	0.339658	-0.877197	0.298096	-0.003662	0.078144	-0.032816	0.086416	0.240475	-0.539186	-0.105878	-0.800150	-12.784346	-66.033302	-138.217483
63182		8.973788	-3.355127	9.086261	2.713447	4.172037	2.415786	0.199859	5.400833	0.501693	-0.862549	0.298828	-0.051758	0.092231	-0.033411	0.088361	0.245785	-0.517444	-0.098809	-0.813682	-11.874132	-62.953989	-139.098325
63183		10.132194	-2.595273	9.449085	2.401885	2.911918	3.766016	0.215877	5.592596	0.729663	-0.856201	0.306885	-0.083496	0.104004	-0.025676	0.091580	0.251971	-0.494583	-0.090882	-0.826824	-11.321361	-59.730721	-139.588072
63184		11.251909	-1.443817	9.625841	2.047650	1.141214	4.877084	0.119306	5.728954	0.973083	-0.844971	0.311279	-0.131348	0.115283	-0.013938	0.092974	0.258779	-0.471022	-0.081731	-0.839340	-11.106580	-56.407754	-139.760045
63185		11.788756	-1.140879	9.504474	1.204918	0.093718	5.322821	0.030304	5.818529	1.087575	-0.825928	0.315186	-0.177246	0.120645	-0.010772	0.091560	0.265572	-0.446814	-0.071684	-0.851287	-11.047344	-53.016491	-139.824947
63186		12.763360	-0.941263	9.676257	0.269159	-0.979061	6.197061	0.055322	5.876766	1.052675	-0.806641	0.317871	-0.216553	0.130450	-0.008757	0.092954	0.272158	-0.421947	-0.061751	-0.862600	-10.952849	-49.601375	-139.904855
63187		13.925769	0.283432	10.452962	0.089564	-2.857069	7.363184	0.090169	5.951495	0.930945	-0.795410	0.322998	-0.269043	0.142270	0.003446	0.100327	0.277865	-0.396268	-0.051969	-0.873534	-10.767933	-46.152654	-140.110237
63188		14.857373	2.382498	11.557931	0.583273	-5.345758	8.380192	-0.057439	5.993730	0.772264	-0.768555	0.322021	-0.298096	0.151854	0.024440	0.111054	0.282550	-0.370232	-0.041856	-0.883935	-10.602888	-42.701242	-140.392360
63189		15.650391	3.552790	11.934450	0.087980	-7.275729	8.813318	-0.392376	5.962411	0.562091	-0.752930	0.318848	-0.343994	0.159866	0.036202	0.114541	0.285070	-0.344405	-0.030530	-0.893973	-10.554398	-39.285465	-140.850647
63190		16.407260	2.049266	10.781406	-2.760596	-7.338976	8.299244	-0.616673	5.864022	0.218004	-0.739258	0.322754	-0.381592	0.167115	0.020996	0.102879	0.285750	-0.319000	-0.019046	-0.903451	-10.528521	-35.964695	-141.471058
63191		18.105297	0.244611	10.156148	-6.072635	-7.382143	8.613342	-0.453714	5.712885	-0.188561	-0.735352	0.325195	-0.422119	0.183857	0.002496	0.096330	0.284011	-0.293711	-0.008986	-0.912683	-10.305646	-32.767704	-142.392110
63192		20.325076	0.171014	9.634471	-8.829488	-9.012232	8.805832	-0.179214	5.572782	-0.461090	-0.711182	0.317871	-0.465576	0.205833	0.001320	0.090632	0.281780	-0.268443	-0.000947	-0.921161	-9.910747	-29.675830	-143.350981
63193		21.638521	0.718569	7.815665	-11.327722	-10.755022	7.090282	-0.048581	5.365083	-0.553872	-0.685791	0.309082	-0.499268	0.218396	0.006601	0.072314	0.278298	-0.243714	0.006236	-0.929040	-9.486505	-26.703231	-144.391936
63194		21.823285	1.224442	4.270068	-13.629184	-11.923471	3.147229	0.006514	5.016949	-0.576611	-0.654541	0.308105	-0.534180	0.219246	0.011612	0.037209	0.275380	-0.220385	0.012464	-0.935650	-9.108573	-23.925064	-145.265920
63195		20.969729	0.809988	-0.499955	-15.781094	-11.619981	-2.296419	0.097898	4.465261	-0.626399	-0.644775	0.297607	-0.570313	0.209540	0.007447	-0.009675	0.271630	-0.199353	0.017533	-0.941365	-8.733173	-21.457066	-146.151366
63196		21.907288	-0.698556	-4.935034	-19.300322	-11.054973	-6.651352	0.390772	3.805240	-0.704155	-0.625732	0.294434	-0.591797	0.218055	-0.007653	-0.053520	0.268318	-0.180980	0.020140	-0.945963	-8.240695	-19.365466	-146.920172
63197		23.089868	-2.518092	-8.953299	-22.707985	-10.166317	-10.575523	0.864563	3.188681	-0.631656	-0.613037	0.286865	-0.613281	0.229351	-0.025509	-0.093308	0.265484	-0.164794	0.019771	-0.949721	-7.538998	-17.608921	-147.595226
63198		22.643617	-3.821494	-13.116408	-24.305121	-8.904525	-15.226176	1.356850	2.493549	-0.421997	-0.597656	0.274170	-0.640625	0.224695	-0.037787	-0.134230	0.264321	-0.151219	0.016272	-0.952367	-6.634591	-16.226231	-148.030139
63199		21.923445	-1.815193	-15.021222	-23.125360	-10.354517	-18.031658	1.466328	1.559686	-0.037395	-0.595703	0.266357	-0.644775	0.218050	-0.017083	-0.152044	0.264975	-0.141879	0.011321	-0.953693	-5.759886	-15.344323	-148.168470
63200		20.436339	0.762715	-14.624483	-20.332651	-11.919339	-18.565321	0.840425	0.394455	0.532393	-0.588623	0.259033	-0.650391	0.204052	0.008786	-0.146612	0.268080	-0.138895	0.008198	-0.953296	-5.354610	-15.095099	-147.876559
63201		19.301182	0.472614	-12.721970	-18.934775	-11.162325	-16.987548	0.035838	-0.733973	1.017683	-0.589600	0.274658	-0.638672	0.193449	0.005732	-0.126509	0.272862	-0.142343	0.007745	-0.951433	-5.502466	-15.464001	-147.247619
63202		18.056814	-0.694886	-9.691387	-17.638970	-9.543467	-14.082558	-0.379539	-1.556445	1.207601	-0.602295	0.276855	-0.633057	0.181353	-0.006038	-0.095493	0.278379	-0.150253	0.008270	-0.948610	-5.940635	-16.287631	-146.439468
63203		16.459078	0.200153	-5.989295	-14.750927	-9.397381	-10.760736	-0.435897	-2.100604	1.185950	-0.608398	0.286133	-0.621826	0.165193	0.002852	-0.058166	0.283591	-0.160814	0.008301	-0.945329	-6.433112	-17.417679	-145.615961
63204		14.914554	2.846803	-2.397947	-10.882886	-10.660007	-7.760135	-0.498921	-2.494916	1.035996	-0.614746	0.300293	-0.591553	0.149280	0.029184	-0.022190	0.288159	-0.173297	0.007937	-0.941737	-6.965776	-18.773433	-144.820271
63205		13.135495	5.372692	0.449027	-7.023198	-11.613110	-5.640233	-0.689812	-2.758896	0.652651	-0.629395	0.304443	-0.571533	0.131102	0.054174	0.006114	0.290483	-0.187296	0.007783	-0.938339	-7.561720	-20.302229	-144.242117
63206		11.756304	6.703331	2.890273	-4.196502	-11.714743	-3.759093	-0.889621	-2.900535	-0.048644	-0.644775	0.314697	-0.558594	0.117147	0.067138	0.030305	0.289497	-0.202218	0.007680	-0.935543	-8.148269	-21.957584	-144.028054
63207		7.568801	5.318484	6.581355	-0.212801	-7.826409	-1.591668	-1.037740	-2.922740	-0.830415	-0.657471	0.324951	-0.533447	0.074939	0.053217	0.066636	0.284320	-0.217460	0.007487	-0.933712	-8.644724	-23.692837	-144.311936
63208		-12.865914	-7.656705	34.426245	19.974328	17.235010	16.893511	0.147426	-2.376603	-1.515331	-0.674316	0.314941	-0.507324	-0.133314	-0.075822	0.342641	0.277463	-0.228423	0.001755	-0.933185	-8.260730	-25.172638	-145.035092
63209		-18.238582	6.463410	22.097862	26.471162	6.594592	1.072235	-0.987470	-2.071380	-1.229713	-0.679932	0.304443	-0.490723	-0.184253	0.066847	0.218750	0.270444	-0.239506	0.002086	-0.932466	-8.571671	-26.457506	-145.633882
63210		-8.302916	3.445100	-1.304811	7.166537	1.029194	-15.296804	-1.513027	-4.483956	-0.636403	-0.699951	0.317139	-0.448975	-0.082595	0.034605	-0.015165	0.265631	-0.262435	0.002298	-0.927665	-9.460853	-29.057252	-145.585566
63211		13.512811	-8.124235	2.968442	-12.056668	0.873505	0.734127	-0.772807	-4.857839	-1.168024	-0.732178	0.323730	-0.403320	0.133872	-0.081903	0.033262	0.259048	-0.285970	-0.002099	-0.922557	-9.787304	-31.919991	-145.825904
63212		38.353862	-5.163811	25.713012	-15.136416	-9.333779	33.109028	-0.896920	-4.082959	-1.679669	-0.742432	0.317627	-0.363525	0.377735	-0.053650	0.265119	0.249906	-0.305914	-0.005667	-0.918657	-9.943492	-34.394922	-146.479232
63213		44.023353	-20.180668	11.362533	-33.025398	-0.517429	27.381972	-0.531413	-1.179671	0.134579	-0.742920	0.318359	-0.363037	0.439687	-0.201203	0.116755	0.249598	-0.312049	-0.004500	-0.916682	-10.382054	-35.053827	-146.250133
63214		-1.501268	-2.236333	2.963489	1.675136	3.132709	-7.964098	0.171773	-0.617734	0.643345	-0.733154	0.319580	-0.354980	-0.015032	-0.022437	0.029569	0.252794	-0.314718	-0.005070	-0.914889	-10.584624	-35.340033	-145.727288
63215		10.286580	1.443702	12.821142	1.175715	-3.802904	6.200826	-0.322566	-1.077760	0.011618	-0.747314	0.321777	-0.349854	0.102172	0.014650	0.128740	0.252243	-0.320112	-0.004944	-0.913169	-10.856142	-35.953417	-145.584737
63216		10.445866	-3.901256	5.329538	-5.644627	-0.464290	1.171934	-0.328661	-0.609213	0.089179	-0.744385	0.326904	-0.327637	0.104313	-0.038878	0.053677	0.252104	-0.323350	-0.004085	-0.912070	-11.129587	-36.291564	-145.439686
63217		8.365734	-2.753148	7.708717	-2.265915	-0.106630	1.669630	-0.286635	-0.424898	0.026431	-0.737061	0.332764	-0.324707	0.083497	-0.027410	0.077304	0.251676	-0.325711	-0.003273	-0.911351	-11.339336	-36.535511	-145.370246
63218		6.583628	-1.686913	7.420292	-0.715735	-0.272611	0.220449	-0.229052	-0.361179	0.047772	-0.735107	0.333496	-0.323242	0.065706	-0.016768	0.074341	0.251511	-0.327685	-0.002622	-0.910691	-11.521011	-36.738160	-145.285098
63219		6.829328	-0.089297	8.478234	0.529636	-1.605010	0.942378	-0.219212	-0.285691	0.118501	-0.736328	0.336670	-0.320068	0.068173	-0.000760	0.084881	0.251690	-0.329324	-0.001814	-0.910052	-11.721428	-36.892640	-145.158731
63220		8.079372	-2.924575	8.890544	-1.308208	0.353493	2.476928	-0.185911	-0.182494	0.247558	-0.729736	0.338867	-0.308838	0.080749	-0.029063	0.089006	0.252505	-0.330431	-0.000806	-0.909426	-11.948442	-36.971123	-144.957574
63221		6.753891	-1.272937	7.662020	-0.394483	-0.710454	0.447991	-0.058021	-0.024163	0.355778	-0.728760	0.347900	-0.312012	0.067552	-0.012587	0.076632	0.254030	-0.330677	-0.000010	-0.908912	-12.134265	-36.950010	-144.702269
63222		6.776243	-1.479039	7.368812	-0.668524	-0.616644	0.265863	-0.067741	0.010344	0.349032	-0.723633	0.358887	-0.315430	0.067792	-0.014647	0.073690	0.255500	-0.330756	0.000872	-0.908471	-12.319078	-36.907097	-144.458644
63223		6.251174	-1.463762	7.051640	-0.499963	-0.462251	-0.300499	-0.018767	-0.024095	0.332623	-0.729248	0.360107	-0.309570	0.062527	-0.014527	0.070525	0.256983	-0.330950	0.001451	-0.907981	-12.472225	-36.887601	-144.219906
63224		6.306534	-1.582155	6.950268	-0.641817	-0.421044	-0.326246	-0.005969	-0.041464	0.312501	-0.721436	0.369385	-0.315674	0.063076	-0.015721	0.069516	0.258389	-0.331184	0.001926	-0.907496	-12.610727	-36.877140	-143.994211
63225		5.934080	-1.439578	7.215255	-0.162407	-0.338329	-0.367862	0.004225	-0.096398	0.250918	-0.718262	0.378418	-0.309326	0.059324	-0.014323	0.072181	0.259538	-0.331676	0.002172	-0.906987	-12.723156	-36.907486	-143.801332
63226		5.964986	-2.347335	7.670784	-0.319135	0.503330	0.166129	0.003416	-0.159702	0.162249	-0.716064	0.371582	-0.308594	0.059608	-0.023426	0.076755	0.260278	-0.332435	0.002202	-0.906497	-12.804670	-36.981415	-143.661832
63227		5.292141	-3.020936	7.738546	-0.144805	1.417532	-0.066533	-0.007789	-0.196879	0.059812	-0.713623	0.379639	-0.320313	0.052854	-0.030191	0.077439	0.260542	-0.333399	0.002055	-0.906068	-12.853767	-37.091797	-143.586203
63228		5.797672	-3.106920	7.585503	-0.582917	1.237784	0.133863	0.019884	-0.265303	-0.052159	-0.712891	0.387207	-0.313965	0.057868	-0.031092	0.075929	0.260338	-0.334616	0.001516	-0.905679	-12.846009	-37.251869	-143.579567
63229		6.097513	-2.653308	7.365032	-0.671771	0.688192	0.063466	0.026137	-0.322575	-0.149380	-0.712158	0.380615	-0.321045	0.060836	-0.026588	0.073745	0.259710	-0.336106	0.000703	-0.905308	-12.799272	-37.459064	-143.630559
63230		5.972496	-1.981099	7.693184	-0.049929	0.251401	0.122840	0.032544	-0.370432	-0.193872	-0.718506	0.386719	-0.324219	0.059563	-0.019881	0.077039	0.258885	-0.337781	-0.000268	-0.904921	-12.733449	-37.695831	-143.707306
63231		6.222304	-1.794729	7.345217	-0.305854	-0.054071	-0.025262	0.045878	-0.401719	-0.229979	-0.709473	0.378418	-0.322510	0.062055	-0.018036	0.073573	0.257924	-0.339601	-0.001409	-0.904513	-12.647285	-37.957328	-143.803645
63232		6.172179	-1.647119	7.494264	-0.084867	-0.093870	0.033965	0.077821	-0.422866	-0.263933	-0.721680	0.381348	-0.327637	0.061541	-0.016582	0.075066	0.256855	-0.341451	-0.002770	-0.904118	-12.528481	-38.231974	-143.923330
63233		5.948393	-1.968916	7.670758	0.045619	0.363327	0.085101	0.089796	-0.444136	-0.279865	-0.729492	0.388184	-0.316895	0.059286	-0.019807	0.076831	0.255739	-0.343401	-0.004249	-0.903690	-12.397187	-38.523088	-144.050623
63234		5.631539	-2.004375	7.791625	0.334650	0.606962	-0.016743	0.126573	-0.467148	-0.282236	-0.732178	0.385742	-0.319580	0.056105	-0.020172	0.078035	0.254666	-0.345383	-0.005919	-0.903228	-12.244010	-38.824317	-144.179097
63235		5.691881	-2.154167	7.475614	0.060507	0.700574	-0.198740	0.172541	-0.493566	-0.332520	-0.733643	0.379883	-0.320313	0.056698	-0.021701	0.074878	0.253576	-0.347440	-0.007965	-0.902730	-12.044281	-39.148162	-144.323553
63236		5.871963	-2.889148	7.253144	-0.503919	1.277530	-0.140626	0.240829	-0.528885	-0.473474	-0.741943	0.378662	-0.323730	0.058459	-0.029118	0.072651	0.251831	-0.349541	-0.010561	-0.902381	-11.740032	-39.505826	-144.585311
63237		6.192826	-2.827856	6.969748	-0.828124	1.102545	-0.167835	0.335922	-0.583633	-0.639886	-0.742188	0.371094	-0.323975	0.061633	-0.028593	0.069830	0.249622	-0.351771	-0.013991	-0.902081	-11.306465	-39.914022	-144.947286
63238		6.531637	-2.259555	7.047857	-0.704566	0.564643	0.017066	0.385800	-0.642312	-0.715607	-0.748047	0.369385	-0.317139	0.065008	-0.022965	0.070644	0.247021	-0.354172	-0.017808	-0.901790	-10.805635	-40.359082	-145.380729
63239		6.875998	-1.685553	7.248247	-0.502955	0.056979	0.306615	0.404137	-0.703364	-0.762806	-0.759277	0.358398	-0.318359	0.068439	-0.017264	0.072689	0.244365	-0.356828	-0.021914	-0.901377	-10.270841	-40.842497	-145.830309
63240		6.595185	-1.225597	7.391001	0.003257	-0.089345	0.168114	0.420011	-0.735226	-0.762279	-0.770020	0.351563	-0.313477	0.065632	-0.012662	0.074125	0.241590	-0.359579	-0.026081	-0.900920	-9.718787	-41.338413	-146.303529
63241		6.214998	-1.525986	7.170579	-0.004782	0.390506	-0.209636	0.386446	-0.712627	-0.774856	-0.776611	0.340332	-0.314453	0.061834	-0.015639	0.071897	0.238816	-0.362272	-0.030135	-0.900454	-9.169925	-41.821463	-146.782285
63242		6.816454	-0.933085	7.220842	-0.050467	-0.261964	0.157419	0.413317	-0.718901	-0.801157	-0.783447	0.339844	-0.308594	0.067866	-0.009753	0.072433	0.235841	-0.364928	-0.034321	-0.900016	-8.581044	-42.304514	-147.307230
63243		6.540116	-1.190448	7.072442	-0.060528	0.149743	-0.107914	0.410959	-0.709835	-0.798661	-0.795166	0.334473	-0.305664	0.065101	-0.012310	0.070931	0.232982	-0.367550	-0.038522	-0.899523	-7.985294	-42.780408	-147.826214
63244		6.664016	-0.728817	7.055215	0.085265	-0.206626	-0.083073	0.437573	-0.707500	-0.783254	-0.794678	0.317383	-0.303467	0.066360	-0.007703	0.070771	0.230118	-0.370106	-0.042769	-0.899021	-7.369929	-43.247361	-148.360198
63245		6.815694	-0.551240	6.860329	-0.028837	-0.365076	-0.133505	0.447570	-0.701122	-0.757179	-0.805908	0.304932	-0.299316	0.067894	-0.005924	0.068829	0.227495	-0.372630	-0.047046	-0.898432	-6.753401	-43.706930	-148.870063
63246		6.734167	-0.624170	6.867164	0.019438	-0.164454	-0.175872	0.445619	-0.686623	-0.725840	-0.819092	0.303955	-0.285400	0.067082	-0.006639	0.068888	0.224895	-0.375071	-0.051195	-0.897844	-6.142219	-44.149816	-149.382457
63247		6.768740	-0.493127	6.924401	0.119233	-0.178285	-0.119418	0.447551	-0.672836	-0.698710	-0.818359	0.290771	-0.287598	0.067436	-0.005322	0.069460	0.222496	-0.377460	-0.055318	-0.897195	-5.535447	-44.581841	-149.873574
63248		6.866649	-0.238283	6.789970	0.108523	-0.377463	-0.160940	0.456970	-0.670932	-0.690405	-0.821289	0.287109	-0.291992	0.068429	-0.002775	0.068123	0.220067	-0.379805	-0.059432	-0.896541	-4.916824	-45.005956	-150.379444
63249		6.772191	-0.342440	6.664188	0.063891	-0.188572	-0.307383	0.441299	-0.661453	-0.647923	-0.835693	0.277100	-0.287598	0.067489	-0.003791	0.066857	0.217876	-0.382143	-0.063416	-0.895810	-4.322604	-45.421415	-150.850361
63250		6.970271	0.015441	6.817183	0.227710	-0.439644	-0.075493	0.448662	-0.697514	-0.602336	-0.839111	0.260498	-0.277832	0.069464	-0.000208	0.068414	0.215806	-0.384622	-0.067350	-0.894962	-3.741719	-45.849602	-151.302781
63251		7.429781	0.131535	6.094982	-0.446493	-0.809642	-0.246494	0.455597	-0.728957	-0.575291	-0.848633	0.258301	-0.284180	0.074078	0.000963	0.061223	0.213906	-0.387251	-0.071320	-0.893977	-3.165406	-46.294334	-151.733592
63252		7.297297	0.156788	6.114321	-0.307182	-0.691092	-0.321255	0.399313	-0.758296	-0.557759	-0.846680	0.258057	-0.277344	0.072744	0.001242	0.061422	0.211907	-0.390049	-0.075010	-0.892934	-2.622473	-46.749644	-152.165984
63253		7.146103	0.288022	6.589550	0.198015	-0.528481	-0.104309	0.379039	-0.788893	-0.514925	-0.861572	0.246094	-0.263672	0.071207	0.002571	0.066182	0.210103	-0.393028	-0.078584	-0.891745	-2.109425	-47.221422	-152.562618
63254		7.139524	0.060816	6.399557	0.020434	-0.291922	-0.229139	0.359562	-0.823078	-0.488346	-0.853271	0.244385	-0.261963	0.071132	0.000319	0.064289	0.208300	-0.396163	-0.082025	-0.890471	-1.614505	-47.707106	-152.954178
63255		7.054287	-0.177876	6.174237	-0.136432	-0.036085	-0.437446	0.332272	-0.830172	-0.473512	-0.865967	0.227295	-0.249023	0.070281	-0.002048	0.062031	0.206547	-0.399371	-0.085345	-0.889133	-1.135758	-48.197209	-153.336020
63256		7.329071	0.147890	6.075095	-0.176516	-0.360177	-0.300470	0.297607	-0.842221	-0.469502	-0.879395	0.222168	-0.239258	0.073037	0.001217	0.061061	0.204686	-0.402642	-0.088488	-0.887780	-0.669492	-48.689189	-153.730737
63257		7.365534	-0.472983	6.097497	-0.400573	0.278972	-0.251559	0.269956	-0.871538	-0.486174	-0.878906	0.222900	-0.231445	0.073377	-0.004991	0.061289	0.202683	-0.406076	-0.091581	-0.886361	-0.198348	-49.198929	-154.148609
63258		7.066127	-0.510958	6.181947	-0.128067	0.511837	-0.425013	0.259065	-0.932347	-0.538740	-0.886230	0.206055	-0.231689	0.070358	-0.005380	0.062141	0.200384	-0.409732	-0.094780	-0.884863	0.312757	-49.738055	-154.625272
63259		7.028762	-0.243455	6.372918	0.202746	0.436087	-0.334056	0.248417	-1.053242	-0.591890	-0.893799	0.197998	-0.216553	0.069943	-0.002721	0.064095	0.197769	-0.413916	-0.098169	-0.883133	0.868457	-50.346293	-155.162960
63260		6.334607	0.376238	6.987732	1.370731	0.367598	-0.480924	0.244521	-1.236564	-0.600954	-0.896973	0.188232	-0.208984	0.062923	0.003487	0.070272	0.195003	-0.418869	-0.101727	-0.881008	1.447834	-51.052919	-155.730116
63261		6.054886	0.459802	7.175502	1.789357	0.530183	-0.599858	0.224848	-1.472665	-0.564405	-0.902344	0.183838	-0.192139	0.060031	0.004347	0.072203	0.192201	-0.424901	-0.105344	-0.878306	2.016566	-51.894891	-156.294205
63262		5.969183	1.204142	7.494265	2.495507	0.099452	-0.485036	0.259441	-1.788045	-0.532512	-0.914795	0.172119	-0.182617	0.059050	0.011786	0.075488	0.189456	-0.432243	-0.109342	-0.874824	2.616290	-52.911416	-156.863006
63263		5.468069	0.950281	7.936513	3.124707	0.727127	-0.675138	0.283152	-2.159131	-0.516984	-0.926270	0.163818	-0.160889	0.053844	0.009250	0.079963	0.186573	-0.441174	-0.113743	-0.870413	3.267030	-54.139917	-157.473400
63264		6.105815	0.059783	7.117723	1.979642	1.234136	-0.729780	0.368564	-2.590576	-0.594654	-0.934570	0.166016	-0.133789	0.060131	0.000286	0.071961	0.183300	-0.451765	-0.119079	-0.864945	4.098698	-55.604474	-158.231529
63265		6.109571	-0.767406	7.498033	2.112191	2.298029	-0.626504	0.504218	-3.053351	-0.803644	-0.942627	0.149170	-0.103516	0.059910	-0.008107	0.075881	0.179070	-0.464035	-0.125859	-0.858350	5.299467	-57.318417	-159.329679
63266		5.768975	-1.189436	7.557777	2.385074	2.983029	-1.025354	0.691574	-3.660874	-1.106665	-0.955811	0.134766	-0.062500	0.056226	-0.012472	0.076573	0.173580	-0.478380	-0.134661	-0.850229	7.086787	-59.340626	-160.963373
63267		6.205816	-1.576457	7.951176	2.589450	3.685398	-0.652325	0.873918	-4.348263	-1.456534	-0.957275	0.113770	-0.032959	0.060193	-0.016559	0.080763	0.166431	-0.495061	-0.145584	-0.840251	9.696050	-61.691774	-163.391995
63268		5.971589	-2.798263	10.218748	4.296142	6.091552	-0.204820	1.110659	-5.137267	-1.805290	-0.956055	0.098877	0.025635	0.056809	-0.029077	0.103512	0.157784	-0.514248	-0.158949	-0.827882	13.491271	-64.373481	-166.934435
63269		7.094915	-1.683209	11.340200	5.627223	5.901581	0.921009	1.443724	-6.023337	-2.085324	-0.954590	0.077148	0.075195	0.067308	-0.018375	0.115337	0.147918	-0.536172	-0.174930	-0.812428	19.047449	-67.361618	-172.121551
63270		10.313103	0.528185	10.861612	5.547658	4.143845	3.474994	1.471389	-6.982383	-2.231998	-0.946533	0.058594	0.146240	0.099301	0.003343	0.112157	0.136578	-0.561149	-0.191940	-0.793484	27.034743	-70.553929	-179.771009
63271		16.351945	-1.569171	11.539463	4.081865	7.180300	8.478605	1.833897	-7.586137	-2.165862	-0.931152	0.039795	0.218750	0.158801	-0.018523	0.121318	0.125672	-0.587509	-0.210285	-0.771246	38.614806	-73.552847	169.161257
63272		15.880771	6.621075	14.820869	11.771623	2.542757	9.432436	1.754895	-8.072106	-1.721336	-0.902588	0.019775	0.288330	0.153196	0.063535	0.155034	0.115581	-0.615226	-0.227000	-0.746063	54.542849	-76.040759	153.708503
63273		17.259059	4.019313	12.470442	9.549998	4.766766	9.037884	0.838262	-8.381794	-1.137808	-0.875977	0.018555	0.358887	0.167384	0.038688	0.131958	0.104229	-0.644210	-0.238225	-0.719291	74.835790	-77.529659	133.361560
63274		16.105617	0.426459	10.165329	7.312585	7.362875	6.156166	0.832114	-8.360794	-1.017025	-0.836914	0.008301	0.434814	0.156639	0.003019	0.108279	0.093190	-0.672079	-0.248644	-0.691232	97.052057	-77.282482	111.100064
63275		14.798383	4.323900	10.509074	10.626790	4.532236	4.832287	0.826155	-8.049122	-0.735221	-0.798096	0.013916	0.494629	0.143749	0.042255	0.111110	0.083276	-0.698090	-0.257467	-0.662908	115.474382	-75.562410	92.637233
63276		12.811779	3.610841	6.773427	7.913998	3.440111	2.373140	0.955753	-7.310875	-0.818636	-0.757324	0.008545	0.542969	0.125670	0.035252	0.072528	0.074419	-0.720412	-0.266366	-0.636017	127.837112	-72.946974	80.368762
63277		14.711174	-0.339508	3.467845	3.934345	6.356122	3.325141	1.767132	-6.239740	-1.186057	-0.710449	0.007080	0.594482	0.145911	-0.004596	0.039207	0.068602	-0.737670	-0.278385	-0.611260	135.497672	-70.053493	73.353308
63278		23.424907	6.334227	21.973704	24.632908	12.540489	7.720483	2.492058	-4.284738	-1.374128	-0.690430	0.019043	0.609375	0.229875	0.058967	0.225446	0.067593	-0.747779	-0.292454	-0.592224	139.714541	-67.704654	70.364809
63279		51.600508	11.559747	41.011196	47.245418	27.549948	28.748966	0.710304	-0.368339	-0.405955	-0.687988	0.013672	0.610107	0.515479	0.113091	0.411466	0.068429	-0.748079	-0.296123	-0.589921	140.024947	-67.389762	70.456808
63280		5.588819	6.769082	22.560911	23.300476	6.544896	-9.303984	-1.726454	2.546977	1.083083	-0.707031	0.019287	0.585693	0.058375	0.069942	0.224279	0.068914	-0.742687	-0.286078	-0.601520	137.819304	-68.893338	71.767713
63281		3.604710	-1.034078	13.243453	11.302245	7.851715	-9.992135	-2.911833	2.707515	2.030815	-0.720703	0.016602	0.552002	0.037926	-0.008037	0.132058	0.067855	-0.738353	-0.268571	-0.614898	135.555492	-70.816631	72.366544
63282		0.636757	-7.600888	6.111139	1.860814	9.283388	-12.235034	-2.267413	2.731008	2.215198	-0.744141	0.020020	0.536133	0.008045	-0.075227	0.061865	0.069934	-0.733567	-0.252447	-0.627104	133.584757	-72.814847	73.073598
63283		2.610069	-8.029724	5.060263	1.054506	9.785986	-9.905699	-0.818962	3.122230	1.964200	-0.766846	0.031738	0.509766	0.027675	-0.079824	0.050506	0.076852	-0.726471	-0.241377	-0.638804	131.171500	-74.850189	75.069837
63284		2.900651	-3.895603	5.543468	3.348561	6.450372	-8.591136	0.340862	3.602033	1.732504	-0.781738	0.047607	0.467041	0.030334	-0.038791	0.054830	0.087943	-0.716809	-0.234750	-0.650648	127.537076	-76.923894	79.018425
63285		3.655926	0.914882	6.713680	6.501022	2.895340	-6.876228	0.670571	4.064158	1.722474	-0.805420	0.071533	0.431885	0.037834	0.009248	0.066407	0.100578	-0.705176	-0.228796	-0.663523	121.527712	-79.059647	85.533928
63286		3.591573	4.278542	7.441612	8.572142	0.217128	-6.200627	0.242168	4.423840	1.903405	-0.823242	0.094727	0.397705	0.037142	0.043046	0.073656	0.112766	-0.692381	-0.220608	-0.677661	111.448674	-81.171958	95.903489
63287		2.857421	4.863088	6.927087	8.288162	-0.741008	-6.564699	-0.545957	4.634043	2.116602	-0.837891	0.107910	0.360596	0.029649	0.049129	0.068458	0.123152	-0.679084	-0.208753	-0.692893	94.435347	-82.969746	112.763792
63288		2.748846	3.160783	5.583452	6.221263	-0.014074	-6.648739	-1.158485	4.731389	2.226291	-0.847900	0.117432	0.314453	0.028439	0.032241	0.054984	0.131814	-0.665518	-0.194206	-0.708516	68.774776	-83.857291	137.920903
63289		2.760969	0.810090	4.353500	3.977054	1.359746	-6.720707	-1.320032	4.816485	2.188051	-0.866211	0.145020	0.271240	0.028553	0.008694	0.042799	0.139823	-0.651191	-0.179004	-0.724125	41.296818	-83.287610	164.806830
63290		3.178222	-0.682212	3.604035	2.507455	2.221872	-6.301883	-1.102710	4.902882	2.046270	-0.869141	0.158936	0.225342	0.032720	-0.006295	0.035282	0.147968	-0.635836	-0.164869	-0.739348	22.089435	-81.493718	-176.457504
63291		3.887756	-0.963850	3.469246	2.027184	2.245974	-5.463121	-0.730659	4.974022	1.877196	-0.877197	0.180908	0.183594	0.039812	-0.009143	0.033744	0.156795	-0.619264	-0.152548	-0.754093	10.889698	-79.052956	-165.502051
63292		4.782849	-0.312681	4.078072	2.495717	1.683924	-4.287240	-0.445172	5.042894	1.688802	-0.879150	0.187500	0.141113	0.048860	-0.002628	0.039564	0.165566	-0.601703	-0.141647	-0.768426	4.473862	-76.319903	-159.197972
63293		5.654285	0.758196	5.055433	3.374466	0.827348	-3.028989	-0.381245	5.114669	1.515688	-0.877197	0.210449	0.100342	0.057750	0.008111	0.049073	0.174004	-0.583177	-0.131433	-0.782529	0.552288	-73.424852	-155.339037
63294		6.341336	1.422907	5.672105	3.721648	0.136713	-2.032983	-0.526823	5.181224	1.373207	-0.866211	0.211426	0.061523	0.064753	0.014817	0.055016	0.181174	-0.564092	-0.120827	-0.796478	-2.042460	-70.450855	-152.927816
63295		6.482283	1.572558	5.906902	3.617079	-0.213555	-1.674070	-0.726254	5.227835	1.225865	-0.870361	0.225098	0.005615	0.066237	0.016339	0.057291	0.187296	-0.544419	-0.109780	-0.810233	-3.888374	-67.418538	-151.373280
63296		6.677625	0.979680	6.317558	3.297246	0.142505	-1.178492	-0.877235	5.234375	1.005342	-0.864746	0.238037	-0.026855	0.068347	0.010410	0.061356	0.191778	-0.524427	-0.098563	-0.823701	-5.146373	-64.388606	-150.545803
63297		7.413696	0.207996	7.004000	2.872858	0.618280	-0.045326	-0.899873	5.272210	0.708542	-0.852295	0.236328	-0.052734	0.075940	0.002656	0.068043	0.195082	-0.503690	-0.087987	-0.836958	-5.892136	-61.337830	-150.262857
63298		8.606076	-0.077248	8.188153	2.749114	0.659057	1.723769	-0.857380	5.350608	0.399585	-0.844238	0.242676	-0.101563	0.088211	-0.000253	0.079542	0.196870	-0.482165	-0.078157	-0.850089	-6.218576	-58.270380	-150.453164
63299		9.861086	0.304035	9.657655	2.916921	0.079587	3.679558	-0.880240	5.454617	0.183604	-0.833008	0.239990	-0.136230	0.101192	0.003549	0.093825	0.197696	-0.459704	-0.068600	-0.863066	-6.364757	-55.148307	-150.870288
63300		11.049594	0.515786	10.837008	2.635270	-0.521165	5.435964	-1.029578	5.526482	0.080210	-0.823242	0.245605	-0.170654	0.113431	0.005750	0.105234	0.197487	-0.436761	-0.058499	-0.875680	-6.534269	-52.001991	-151.392271
63301		12.781869	0.207885	11.976346	1.640976	-0.932818	7.600177	-1.210034	5.563627	0.089211	-0.823486	0.239258	-0.201172	0.131082	0.002847	0.116131	0.196755	-0.413428	-0.047464	-0.887757	-6.840830	-48.826875	-151.898863
63302		15.366892	-1.117779	12.486490	-0.897751	-0.955161	9.973177	-1.370763	5.626576	0.137124	-0.813965	0.241699	-0.249756	0.157108	-0.010235	0.120549	0.195778	-0.389704	-0.035556	-0.899187	-7.281984	-45.623142	-152.367415
63303		19.874169	-3.542114	12.656243	-5.549191	-0.763138	13.342889	-1.263684	5.855288	0.083504	-0.801514	0.245850	-0.293945	0.202351	-0.034561	0.120893	0.194519	-0.364442	-0.023915	-0.910370	-7.631143	-42.287990	-152.922903
63304		23.108667	-2.632445	12.712919	-8.564686	-3.330798	15.044769	-1.108236	6.179718	0.128044	-0.792969	0.246582	-0.344971	0.234886	-0.025496	0.120053	0.193721	-0.337272	-0.012631	-0.921173	-7.918564	-38.775143	-153.457185
63305		24.054811	-0.136646	10.789534	-10.835926	-6.925002	13.197307	-1.308470	6.297945	0.384567	-0.762939	0.244141	-0.399414	0.243787	-0.000227	0.100256	0.193391	-0.309371	0.000205	-0.931069	-8.444401	-35.170572	-153.851353
63306		24.563465	0.664385	7.029232	-14.256633	-8.921269	9.427037	-1.650263	6.029198	0.760003	-0.744873	0.262939	-0.448975	0.247574	0.008121	0.062785	0.194271	-0.282791	0.014877	-0.939184	-9.321856	-31.695582	-153.974701
63307		25.747690	0.081175	2.182809	-18.859467	-9.705877	4.940411	-1.584502	5.525108	1.007007	-0.716553	0.271240	-0.493652	0.257940	0.002245	0.014692	0.195994	-0.258182	0.029150	-0.945557	-10.244595	-28.478229	-153.973020
63308		25.287098	1.126603	-2.230856	-20.901490	-11.014329	-0.466392	-1.079603	4.989821	1.137503	-0.694336	0.283691	-0.527344	0.252140	0.012558	-0.028671	0.199181	-0.235440	0.040588	-0.950393	-10.922068	-25.553461	-153.842854
63309		23.939286	1.523616	-7.650845	-22.445358	-11.070645	-7.075742	-0.279934	4.293144	0.951945	-0.673340	0.278320	-0.547119	0.237601	0.016258	-0.081644	0.202320	-0.215071	0.047323	-0.954239	-11.110833	-23.035959	-153.787539
63310		22.240232	2.368359	-12.987513	-23.000321	-11.168927	-13.696844	0.593871	3.364227	0.660247	-0.645020	0.278320	-0.572754	0.220096	0.024806	-0.133518	0.205281	-0.198274	0.048582	-0.957177	-10.772590	-21.076880	-153.781076
63311		21.688316	2.420085	-17.087299	-23.946272	-11.001384	-18.398974	1.216442	2.190901	0.469271	-0.633789	0.276611	-0.579834	0.214936	0.025755	-0.173081	0.208091	-0.186429	0.045477	-0.959101	-10.088815	-19.796579	-153.752258
63312		23.820777	1.586648	-18.958927	-26.523291	-11.303522	-19.718037	1.397840	0.898890	0.450793	-0.631348	0.270264	-0.591553	0.237314	0.017732	-0.190538	0.211342	-0.180598	0.040114	-0.959745	-9.347093	-19.250599	-153.574038
63313		25.536068	2.016902	-18.975250	-27.630613	-12.708291	-19.365515	1.025097	-0.216902	0.613170	-0.625977	0.275146	-0.585205	0.255501	0.021923	-0.189366	0.215184	-0.180468	0.035517	-0.959096	-8.887789	-19.322635	-153.192898
63314		24.717774	-0.209512	-26.832750	-30.673455	-10.833173	-26.327515	0.489906	-1.969037	0.698107	-0.633057	0.267090	-0.574463	0.249807	-0.000573	-0.265879	0.219309	-0.189292	0.031664	-0.956593	-8.812168	-20.381105	-152.587911
63315		11.602170	0.221770	-27.853745	-20.279509	-6.259972	-31.258527	1.459545	-3.658044	0.652835	-0.649170	0.269775	-0.550781	0.121077	0.004629	-0.276326	0.224258	-0.205108	0.021281	-0.952463	-8.242028	-22.406176	-151.866872
63316		12.628920	5.623518	14.968826	-1.567041	-9.536812	8.123111	1.579520	-4.515093	0.524878	-0.667236	0.258057	-0.530273	0.122715	0.055361	0.152925	0.228789	-0.224764	0.009215	-0.947128	-7.623676	-24.932139	-151.151717
63317		9.478269	17.351261	29.134018	12.952574	-16.870849	18.244017	0.584766	-3.571007	0.441606	-0.685303	0.267090	-0.505859	0.089173	0.172858	0.293472	0.231527	-0.241021	0.002856	-0.942495	-7.540424	-26.936239	-150.588502
63318		0.448296	22.027095	14.149758	15.853365	-18.298840	0.157928	-0.572753	-3.546934	-0.163661	-0.703857	0.276123	-0.474365	0.002161	0.220673	0.140918	0.230075	-0.258403	0.001237	-0.938239	-7.964503	-28.967815	-150.383187
63319		5.124074	9.187812	6.681486	3.378644	-9.610806	-2.634317	-0.919587	-3.944234	-1.520734	-0.728516	0.267578	-0.451172	0.050614	0.091801	0.067395	0.221655	-0.277976	-0.000973	-0.934664	-8.171938	-31.336235	-151.021902
