// General information: 
//  MT Manager version: 2019.2.0 
//  XDA version: 2019.2.0 build 3853 rev 94535 built on 2019-09-09
// Device information: 
//  DeviceId: 00B47791
//  ProductCode: MTW2-3A7G6
//  Firmware Version: 4.6.0
//  Hardware Version: 2.0.0
// Device settings: 
//  Filter Profile: human(46.1)
//  Option Flags: Orientation Smoother Disabled, AHS Disabled, ICC Disabled
// Coordinate system: ENU
PacketCounter	SampleTimeFine	Acc_X	Acc_Y	Acc_Z	FreeAcc_E	FreeAcc_N	FreeAcc_U	Gyr_X	Gyr_Y	Gyr_Z	Mag_X	Mag_Y	Mag_Z	VelInc_X	VelInc_Y	VelInc_Z	Quat_q0	Quat_q1	Quat_q2	Quat_q3	Roll	Pitch	Yaw
62782		9.251883	0.897611	3.276467	0.014167	-0.023649	0.043150	0.001943	0.012567	-0.009395	-0.835205	-0.252686	-0.748779	0.092521	0.008971	0.032759	0.810939	0.123369	-0.564154	0.094281	15.716582	-69.759891	2.271780
62783		9.240031	0.929628	3.267683	0.009355	0.009778	0.032106	-0.000708	0.010733	-0.010619	-0.832275	-0.243896	-0.753174	0.092403	0.009291	0.032672	0.810964	0.123345	-0.564124	0.094270	15.710543	-69.755521	2.275033
62784		9.239571	0.930539	3.268724	0.008752	0.010761	0.032105	0.000637	0.011794	-0.009121	-0.828369	-0.247803	-0.754150	0.092398	0.009301	0.032682	0.810991	0.123323	-0.564091	0.094272	15.702668	-69.750881	2.281385
62785		9.228436	0.910607	3.277428	0.003965	-0.010382	0.022690	-0.000478	0.016747	-0.007900	-0.825439	-0.242920	-0.751221	0.092287	0.009103	0.032767	0.811032	0.123289	-0.564039	0.094277	15.690175	-69.743615	2.291658
62786		9.206886	0.929562	3.299542	-0.027561	0.001189	0.011621	-0.003205	0.014336	-0.012673	-0.832764	-0.250977	-0.750977	0.092072	0.009290	0.032989	0.811070	0.123256	-0.563994	0.094250	15.684171	-69.736885	2.292759
62787		9.173725	0.920115	3.305850	-0.040761	-0.009657	-0.018264	-0.001822	0.015685	-0.009401	-0.827393	-0.244873	-0.746338	0.091740	0.009197	0.033051	0.811110	0.123221	-0.563946	0.094244	15.673609	-69.729971	2.300154
62788		9.226646	0.913368	3.281695	0.002196	-0.007422	0.022693	-0.003205	0.014335	-0.012675	-0.831055	-0.245605	-0.757324	0.092269	0.009128	0.032810	0.811147	0.123193	-0.563902	0.094223	15.667834	-69.723370	2.302092
62789		9.214433	0.886055	3.267344	0.019942	-0.028848	0.003889	-0.000592	0.015882	-0.013227	-0.831299	-0.249023	-0.750488	0.092148	0.008855	0.032666	0.811189	0.123174	-0.563850	0.094206	15.663617	-69.715755	2.303475
62790		9.204425	0.933880	3.305181	-0.029924	0.005127	0.011613	0.001497	0.015070	-0.015186	-0.830566	-0.240723	-0.750000	0.092047	0.009332	0.033045	0.811227	0.123169	-0.563799	0.094185	15.663855	-69.708287	2.301265
62791		9.204706	0.883253	3.323585	-0.030494	-0.048453	0.013283	0.001459	0.010497	-0.009033	-0.830322	-0.241455	-0.755127	0.092049	0.008828	0.033231	0.811250	0.123149	-0.563770	0.094187	15.656811	-69.704292	2.306915
62792		9.235037	0.938612	3.279213	0.004027	0.018685	0.032096	0.002279	0.009200	-0.008941	-0.829102	-0.250732	-0.753906	0.092352	0.009382	0.032788	0.811269	0.123125	-0.563748	0.094181	15.650292	-69.701088	2.311059
62793		9.246013	0.908559	3.289991	0.007650	-0.012755	0.043177	0.002727	0.010982	-0.011085	-0.834961	-0.251709	-0.745605	0.092462	0.009080	0.032895	0.811294	0.123116	-0.563716	0.094178	15.646835	-69.696507	2.313659
62794		9.224590	0.927528	3.311610	-0.023893	-0.001213	0.032086	-0.001974	0.010245	-0.008578	-0.826660	-0.242432	-0.755615	0.092248	0.009272	0.033111	0.811316	0.123088	-0.563689	0.094181	15.637561	-69.692804	2.320860
62795		9.203187	0.946423	3.333165	-0.055421	0.010346	0.020989	0.000116	0.009434	-0.010535	-0.832031	-0.246826	-0.760986	0.092034	0.009459	0.033327	0.811337	0.123067	-0.563665	0.094172	15.632439	-69.689162	2.323640
62796		9.201703	0.939682	3.311112	-0.033459	0.011062	0.011597	-0.001039	0.014098	-0.011091	-0.839111	-0.248535	-0.751465	0.092020	0.009392	0.033105	0.811374	0.123035	-0.563622	0.094153	15.625323	-69.682771	2.326723
62797		9.189586	0.912179	3.296618	-0.015705	-0.010381	-0.007184	-0.002345	0.013324	-0.010817	-0.821777	-0.249512	-0.755127	0.091899	0.009117	0.032960	0.811408	0.123003	-0.563582	0.094139	15.617595	-69.676939	2.330779
62798		9.188041	0.905448	3.274773	0.006244	-0.009693	-0.016569	-0.003202	0.014332	-0.012687	-0.830078	-0.247803	-0.753662	0.091883	0.009049	0.032741	0.811446	0.122976	-0.563538	0.094118	15.611875	-69.670270	2.332622
62799		9.166518	0.924489	3.296572	-0.025278	0.001858	-0.027675	-0.000704	0.010730	-0.010632	-0.832764	-0.244629	-0.752441	0.091667	0.009240	0.032961	0.811471	0.122951	-0.563508	0.094107	15.605896	-69.665897	2.335817
62800		9.197732	0.928269	3.269296	0.009257	0.014420	-0.007181	-0.000926	0.004717	-0.013352	-0.829834	-0.246094	-0.754150	0.091979	0.009277	0.032691	0.811481	0.122936	-0.563502	0.094080	15.606310	-69.664479	2.331909
62801		9.219476	0.918927	3.272219	0.017067	0.005131	0.013312	-0.003465	0.003744	-0.009252	-0.824951	-0.240234	-0.747803	0.092196	0.009186	0.032720	0.811488	0.122900	-0.563503	0.094063	15.599601	-69.664174	2.334195
62802		9.209641	0.906874	3.303133	-0.010259	-0.015726	0.013310	-0.000926	0.004717	-0.013353	-0.831787	-0.237549	-0.753906	0.092098	0.009063	0.033029	0.811498	0.122881	-0.563497	0.094033	15.599888	-69.662744	2.329880
62803		9.241984	0.918459	3.298552	0.001740	-0.002862	0.043188	0.001573	0.001116	-0.011296	-0.826904	-0.241211	-0.748535	0.092421	0.009179	0.032985	0.811495	0.122872	-0.563505	0.094020	15.600202	-69.663575	2.327754
62804		9.231223	0.898907	3.306146	-0.003059	-0.023997	0.033811	0.001201	0.004194	-0.013535	-0.833008	-0.244873	-0.752197	0.092314	0.008983	0.033060	0.811504	0.122859	-0.563501	0.093989	15.601966	-69.662459	2.322296
62805		9.207985	0.902685	3.280941	0.010501	-0.013040	0.003938	0.000416	0.005779	-0.011854	-0.825684	-0.237061	-0.751709	0.092081	0.009021	0.032807	0.811515	0.122845	-0.563491	0.093974	15.600508	-69.660631	2.321353
62806		9.240244	0.914078	3.276653	0.022483	-0.000152	0.033815	0.000488	0.006355	-0.008303	-0.831299	-0.239746	-0.751953	0.092404	0.009137	0.032764	0.811527	0.122814	-0.563481	0.093965	15.593266	-69.659104	2.325397
62807		9.186230	0.922685	3.303043	-0.021614	-0.000489	-0.007190	0.002355	0.014061	-0.013331	-0.831299	-0.246094	-0.758301	0.091865	0.009220	0.033024	0.811561	0.122808	-0.563435	0.093955	15.591677	-69.652478	2.325777
62808		9.240247	0.923940	3.301887	-0.001242	0.002141	0.043188	-0.006300	0.010708	-0.011777	-0.827393	-0.243652	-0.754883	0.092405	0.009235	0.033014	0.811591	0.122759	-0.563409	0.093917	15.583979	-69.647975	2.326377
62809		9.208207	0.922164	3.330840	-0.036950	-0.008459	0.022683	-0.002046	0.009666	-0.012139	-0.829346	-0.245361	-0.753418	0.092084	0.009216	0.033304	0.811615	0.122734	-0.563383	0.093896	15.579922	-69.643958	2.326699
62810		9.217335	0.936357	3.301323	-0.010802	0.014384	0.022679	-0.005065	0.010906	-0.015605	-0.825439	-0.242188	-0.756348	0.092176	0.009357	0.033008	0.811647	0.122703	-0.563352	0.093849	15.578675	-69.638716	2.321653
62811		9.228305	0.906519	3.312207	-0.007198	-0.017036	0.033823	-0.004208	0.009898	-0.013736	-0.826660	-0.243408	-0.754395	0.092285	0.009060	0.033117	0.811673	0.122674	-0.563326	0.093816	15.575660	-69.634325	2.319544
62812		9.203984	0.902379	3.264324	0.028930	-0.006397	-0.005418	-0.005478	0.009411	-0.011687	-0.824463	-0.245850	-0.764404	0.092042	0.009019	0.032639	0.811700	0.122628	-0.563304	0.093780	15.568862	-69.630461	2.319657
62813		9.194024	0.890419	3.295526	0.001609	-0.027259	-0.005411	0.000384	0.005491	-0.013634	-0.824463	-0.247070	-0.754150	0.091942	0.008898	0.032953	0.811711	0.122619	-0.563293	0.093757	15.570152	-69.628518	2.315762
62814		9.215666	0.881426	3.298717	0.009432	-0.036518	0.015106	0.000046	0.008857	-0.014099	-0.824219	-0.238037	-0.754395	0.092159	0.008808	0.032983	0.811734	0.122606	-0.563268	0.093729	15.570503	-69.624463	2.312138
62815		9.156115	0.903312	3.191822	0.078089	0.016121	-0.074526	-0.004353	0.004460	-0.012907	-0.818359	-0.246582	-0.755371	0.091562	0.009028	0.031916	0.811745	0.122576	-0.563264	0.093695	15.568424	-69.623201	2.308942
62816		9.109139	0.842321	3.111557	0.150957	-0.018213	-0.151188	-0.002406	-0.001785	-0.014031	-0.823486	-0.236328	-0.750000	0.091092	0.008417	0.031116	0.811739	0.122555	-0.563284	0.093651	15.571511	-69.625094	2.300330
62817		9.094849	0.851773	3.031859	0.213837	0.014216	-0.190420	0.012450	-0.005713	-0.017066	-0.828369	-0.244385	-0.757080	0.090948	0.008508	0.030322	0.811713	0.122610	-0.563311	0.093642	15.589456	-69.628806	2.286042
62818		9.075485	0.887155	3.098662	0.137246	0.026382	-0.182857	0.014079	0.006225	-0.017232	-0.824219	-0.248535	-0.756592	0.090757	0.008862	0.030984	0.811721	0.122659	-0.563290	0.093634	15.603317	-69.625915	2.275739
62819		9.066353	0.884107	3.153007	0.087385	0.005822	-0.173487	0.013297	0.012092	-0.023492	-0.829346	-0.240234	-0.758545	0.090666	0.008828	0.031525	0.811748	0.122727	-0.563241	0.093612	15.623904	-69.618808	2.259150
62820		9.144052	0.892236	3.200841	0.071024	-0.001115	-0.083859	0.012585	0.018535	-0.026201	-0.821289	-0.244873	-0.742432	0.091445	0.008908	0.032001	0.811796	0.122792	-0.563164	0.093574	15.645259	-69.607653	2.240454
62821		9.268126	0.962822	3.329949	-0.018808	0.027328	0.082394	0.005115	0.029611	-0.030616	-0.822510	-0.243408	-0.757813	0.092688	0.009613	0.033286	0.811880	0.122839	-0.563043	0.093511	15.664409	-69.589775	2.220395
62822		9.410062	0.992254	3.370305	-0.010094	0.044292	0.231750	-0.010008	0.041755	-0.032446	-0.815186	-0.245361	-0.751953	0.094109	0.009909	0.033683	0.812009	0.122822	-0.562878	0.093402	15.672480	-69.564915	2.202614
62823		9.517260	1.055260	3.375917	0.008611	0.103589	0.340037	-0.008252	0.044312	-0.034877	-0.812744	-0.235596	-0.754395	0.095182	0.010537	0.033738	0.812145	0.122820	-0.562701	0.093293	15.684105	-69.538265	2.182405
62824		9.541021	1.019237	3.469658	-0.051267	0.040810	0.390457	-0.015423	0.047447	-0.032672	-0.817871	-0.247314	-0.761230	0.095420	0.010179	0.034673	0.812295	0.122773	-0.562516	0.093164	15.686739	-69.510071	2.165882
62825		9.496045	0.931158	3.480780	-0.046080	-0.047154	0.343759	-0.023098	0.052502	-0.039826	-0.811279	-0.242920	-0.758789	0.094971	0.009297	0.034782	0.812465	0.122720	-0.562309	0.092997	15.693689	-69.478135	2.141575
62826		9.322622	0.875713	3.562737	-0.158684	-0.127344	0.203791	-0.022039	0.042692	-0.036660	-0.812256	-0.240723	-0.754150	0.093235	0.008744	0.035607	0.812608	0.122663	-0.562143	0.092833	15.700484	-69.451825	2.117080
62827		9.107511	0.796419	3.678373	-0.310611	-0.241355	0.033974	-0.021726	0.024222	-0.039393	-0.814941	-0.243896	-0.764893	0.091081	0.007950	0.036772	0.812697	0.122628	-0.562050	0.092655	15.719193	-69.435551	2.081045
62828		9.013932	0.686849	3.797388	-0.416508	-0.384307	-0.023831	-0.025122	-0.005380	-0.040001	-0.817383	-0.240479	-0.773193	0.090140	0.006855	0.037975	0.812708	0.122586	-0.562079	0.092436	15.748804	-69.435273	2.029776
62829		9.024225	0.655578	4.038217	-0.620115	-0.489461	0.064028	-0.007197	-0.039853	-0.040595	-0.816162	-0.246582	-0.769043	0.090236	0.006539	0.040400	0.812610	0.122643	-0.562240	0.092255	15.804175	-69.454126	1.963478
62830		9.044292	0.756225	4.259343	-0.842010	-0.462914	0.166783	-0.017574	-0.030690	-0.033444	-0.816650	-0.243652	-0.754639	0.090438	0.007551	0.042607	0.812543	0.122622	-0.562372	0.092064	15.838936	-69.468643	1.910661
62831		9.007604	0.828445	4.158523	-0.787440	-0.365741	0.105112	-0.014017	-0.010176	-0.033313	-0.815674	-0.243164	-0.760986	0.090075	0.008272	0.041589	0.812528	0.122617	-0.562419	0.091911	15.867430	-69.472248	1.868901
62832		9.041258	0.916266	4.206114	-0.843111	-0.297185	0.161084	0.000369	0.009493	-0.023388	-0.815430	-0.250488	-0.751953	0.090416	0.009152	0.042057	0.812557	0.122629	-0.562386	0.091845	15.881100	-69.466416	1.850842
62833		9.084865	1.091499	4.277749	-0.939703	-0.151240	0.243125	0.002625	0.040046	-0.011828	-0.819580	-0.247070	-0.760986	0.090858	0.010909	0.042759	0.812663	0.122608	-0.562235	0.091857	15.866505	-69.445705	1.865276
62834		9.052923	1.159366	4.107485	-0.813239	-0.032922	0.162709	-0.014969	0.081953	0.000373	-0.814209	-0.248779	-0.758057	0.090546	0.011597	0.041037	0.812893	0.122464	-0.561928	0.091896	15.806550	-69.403665	1.917677
62835		8.902098	1.159586	3.992734	-0.755330	0.005471	-0.016599	-0.034404	0.120428	0.009619	-0.808838	-0.248535	-0.761963	0.089044	0.011607	0.039872	0.813238	0.122195	-0.561480	0.091940	15.706269	-69.341955	2.001005
62836		8.719316	1.029428	3.871291	-0.664836	-0.077938	-0.240592	-0.027081	0.103634	0.013076	-0.814453	-0.244385	-0.764404	0.087213	0.010305	0.038666	0.813530	0.121955	-0.561097	0.092009	15.612526	-69.289756	2.081907
62837		8.812668	0.925202	3.807170	-0.537629	-0.151528	-0.184518	-0.009797	0.076192	0.013346	-0.809570	-0.244629	-0.769287	0.088141	0.009260	0.038038	0.813734	0.121796	-0.560820	0.092110	15.539823	-69.252942	2.150879
62838		8.896177	0.800462	3.749038	-0.414577	-0.247266	-0.137722	-0.015891	0.073793	0.010752	-0.813477	-0.239258	-0.758545	0.088975	0.008012	0.037457	0.813937	0.121616	-0.560553	0.092176	15.468397	-69.216765	2.213865
62839		8.979200	0.608891	3.662107	-0.246485	-0.398264	-0.107615	-0.011406	0.083058	0.005154	-0.814209	-0.238281	-0.760986	0.089807	0.006093	0.036583	0.814164	0.121471	-0.560243	0.092244	15.404415	-69.174849	2.272554
62840		9.008602	0.492366	3.629982	-0.166915	-0.495427	-0.101828	0.006276	0.086733	0.004345	-0.809082	-0.243164	-0.762939	0.090102	0.004924	0.036261	0.814393	0.121392	-0.559910	0.092353	15.350161	-69.130679	2.330612
62841		9.037321	0.495606	3.610070	-0.132408	-0.482809	-0.081256	0.024274	0.086757	0.002235	-0.812256	-0.242432	-0.761963	0.090389	0.004953	0.036062	0.814610	0.121398	-0.559567	0.092511	15.309836	-69.086239	2.385897
62842		9.070708	0.553583	3.752205	-0.255806	-0.467740	0.004594	0.052119	0.085787	0.000968	-0.803467	-0.243896	-0.765381	0.090723	0.005526	0.037485	0.814809	0.121519	-0.559213	0.092738	15.287644	-69.041991	2.438409
62843		9.113306	0.684752	3.870121	-0.375014	-0.375928	0.097767	0.061389	0.092664	0.007938	-0.811279	-0.250977	-0.769043	0.091151	0.006839	0.038661	0.815016	0.121658	-0.558832	0.093027	15.258396	-68.995127	2.504638
62844		9.097741	0.776788	3.874575	-0.402247	-0.287637	0.093880	0.063884	0.103873	0.011362	-0.810547	-0.248535	-0.775635	0.090997	0.007761	0.038701	0.815253	0.121792	-0.558405	0.093343	15.221361	-68.942344	2.580695
62845		9.117767	0.917817	3.990229	-0.529805	-0.185606	0.166433	0.076979	0.093421	0.020552	-0.804688	-0.252197	-0.774414	0.091195	0.009172	0.039863	0.815448	0.121958	-0.558020	0.093727	15.183125	-68.896927	2.666173
62846		9.112149	1.014535	3.939662	-0.507719	-0.075825	0.153152	0.082690	0.080088	0.029218	-0.812988	-0.247314	-0.768555	0.091136	0.010142	0.039364	0.815598	0.122129	-0.557691	0.094153	15.141034	-68.859876	2.759180
62847		8.998144	1.109546	3.890668	-0.527382	0.030305	0.039010	0.089766	0.068405	0.042955	-0.808594	-0.244629	-0.764404	0.089992	0.011097	0.038881	0.815704	0.122297	-0.557416	0.094648	15.088245	-68.831597	2.868163
62848		8.929467	1.191628	3.868908	-0.552909	0.116421	-0.024707	0.100464	0.051590	0.044314	-0.805908	-0.241211	-0.777344	0.089302	0.011917	0.038672	0.815756	0.122511	-0.557205	0.095167	15.046054	-68.812667	2.972090
62849		8.840032	1.291715	3.865769	-0.609344	0.213041	-0.099697	0.097559	0.039169	0.046550	-0.805176	-0.250488	-0.768799	0.088405	0.012919	0.038647	0.815773	0.122714	-0.557047	0.095681	15.004118	-68.801039	3.074249
62850		8.795562	1.319278	3.885611	-0.649106	0.234762	-0.131576	0.078870	0.045597	0.045814	-0.808838	-0.236816	-0.767822	0.087961	0.013198	0.038841	0.815821	0.122837	-0.556871	0.096140	14.949880	-68.785469	3.177401
62851		8.739295	1.309974	3.866876	-0.647961	0.233545	-0.191375	0.056021	0.043106	0.039674	-0.803467	-0.252686	-0.768311	0.087399	0.013106	0.038654	0.815877	0.122888	-0.556712	0.096512	14.892649	-68.770580	3.270457
62852		8.792482	1.241683	3.839648	-0.582579	0.181106	-0.157626	0.036392	0.034568	0.028663	-0.812744	-0.241211	-0.764160	0.087930	0.012422	0.038384	0.815928	0.122890	-0.556591	0.096776	14.842934	-68.758583	3.342804
62853		8.846633	1.189220	3.858805	-0.562366	0.129370	-0.105239	0.014142	0.038996	0.017731	-0.807129	-0.251221	-0.774902	0.088473	0.011897	0.038572	0.816009	0.122834	-0.556456	0.096940	14.794703	-68.742694	3.400475
62854		8.942132	1.144787	3.797761	-0.457741	0.110790	-0.041635	-0.003396	0.043869	0.002543	-0.812744	-0.243164	-0.775635	0.089430	0.011450	0.037958	0.816123	0.122743	-0.556300	0.096994	14.756090	-68.721691	3.436643
62855		9.017109	1.075208	3.798079	-0.406654	0.048543	0.022048	-0.017124	0.046222	-0.009038	-0.802246	-0.248779	-0.769287	0.090180	0.010751	0.037959	0.816256	0.122630	-0.556134	0.096966	14.725474	-68.697867	3.456199
62856		9.133073	1.065678	3.700148	-0.271104	0.074007	0.094926	-0.013757	0.045302	-0.016576	-0.812988	-0.244385	-0.777588	0.091340	0.010652	0.036980	0.816390	0.122549	-0.555965	0.096913	14.707680	-68.673226	3.463552
62857		9.218441	1.077561	3.698849	-0.238377	0.088898	0.175183	-0.014262	0.042940	-0.017974	-0.804688	-0.248535	-0.769775	0.092193	0.010770	0.036968	0.816517	0.122474	-0.555806	0.096855	14.692691	-68.649917	3.468098
62858		9.303203	1.081777	3.674828	-0.183051	0.103453	0.246138	-0.023494	0.050855	-0.023669	-0.805908	-0.245850	-0.778809	0.093043	0.010811	0.036723	0.816675	0.122371	-0.555614	0.096749	14.677380	-68.621173	3.466875
62859		9.312531	1.119471	3.719042	-0.224614	0.127396	0.273989	-0.021170	0.056349	-0.021170	-0.815430	-0.248779	-0.783691	0.093137	0.011189	0.037163	0.816845	0.122270	-0.555401	0.096667	14.658034	-68.589966	3.471852
62860		9.287247	1.115099	3.675546	-0.188351	0.137847	0.234778	-0.023122	0.062586	-0.020133	-0.808838	-0.249023	-0.777588	0.092885	0.011146	0.036725	0.817034	0.122152	-0.555163	0.096583	14.633649	-68.555189	3.480442
62861		9.282965	1.152027	3.618502	-0.143766	0.192668	0.214095	-0.025722	0.075835	-0.018322	-0.797852	-0.247314	-0.770020	0.092844	0.011516	0.036148	0.817259	0.122015	-0.554875	0.096512	14.600602	-68.513589	3.497340
62862		9.237014	1.129297	3.660654	-0.183573	0.159812	0.184256	-0.028509	0.083070	-0.019187	-0.809814	-0.244873	-0.779053	0.092386	0.011289	0.036567	0.817507	0.121865	-0.554556	0.096433	14.564539	-68.467612	3.515641
62863		9.210861	1.124307	3.619826	-0.147342	0.170225	0.145047	-0.032892	0.093764	-0.014964	-0.803223	-0.242920	-0.776367	0.092126	0.011242	0.036153	0.817784	0.121681	-0.554200	0.096366	14.516357	-68.416544	3.544406
62864		9.174307	1.114070	3.633793	-0.160393	0.159192	0.115174	-0.036193	0.112851	-0.019508	-0.807861	-0.244141	-0.782471	0.091765	0.011138	0.036284	0.818119	0.121483	-0.553763	0.096279	14.465736	-68.354010	3.573131
62865		9.159160	1.094044	3.652043	-0.165168	0.137988	0.105893	-0.034249	0.120531	-0.024643	-0.807129	-0.245605	-0.774902	0.091615	0.010935	0.036463	0.818475	0.121307	-0.553292	0.096185	14.421046	-68.286689	3.597326
62866		9.122580	1.040565	3.708526	-0.200841	0.072767	0.087401	-0.032596	0.132443	-0.024961	-0.802246	-0.242676	-0.777588	0.091252	0.010400	0.037023	0.818864	0.121131	-0.552769	0.096098	14.373570	-68.212508	3.625129
62867		9.062818	1.041289	3.721668	-0.222228	0.071849	0.036942	-0.039491	0.131040	-0.029521	-0.798584	-0.247803	-0.779785	0.090654	0.010407	0.037155	0.819254	0.120942	-0.552254	0.095976	14.329345	-68.138646	3.645612
62868		9.002987	0.967060	3.682588	-0.175901	0.015244	-0.039293	-0.036035	0.131290	-0.029993	-0.797363	-0.248047	-0.788574	0.090055	0.009664	0.036765	0.819644	0.120767	-0.551734	0.095860	14.287781	-68.064350	3.665090
62869		9.008893	1.004930	3.733961	-0.217458	0.039192	-0.011480	-0.029140	0.131802	-0.030870	-0.799805	-0.242188	-0.781982	0.090115	0.010041	0.037279	0.820029	0.120623	-0.551209	0.095761	14.251480	-67.989865	3.683444
62870		9.025475	0.996290	3.749755	-0.209698	0.030052	0.009103	-0.028454	0.140156	-0.026881	-0.796387	-0.247314	-0.783447	0.090282	0.009956	0.037433	0.820437	0.120465	-0.550651	0.095683	14.207282	-67.911034	3.710308
62871		9.074146	0.990339	3.739719	-0.166930	0.032593	0.050245	-0.013830	0.155852	-0.020080	-0.796631	-0.251221	-0.787354	0.090772	0.009897	0.037326	0.820874	0.120344	-0.550026	0.095685	14.157130	-67.824693	3.753106
62872		9.089868	0.989272	3.781123	-0.181753	0.023836	0.080119	-0.013810	0.170338	-0.020687	-0.798828	-0.251709	-0.786621	0.090932	0.009886	0.037733	0.821351	0.120217	-0.549339	0.095694	14.103237	-67.729948	3.800092
62873		9.170207	0.993770	3.770216	-0.126517	0.038468	0.151112	-0.011318	0.182107	-0.013836	-0.792480	-0.250488	-0.785400	0.091737	0.009933	0.037618	0.821854	0.120076	-0.548608	0.095744	14.037943	-67.629854	3.860872
62874		9.196119	0.945797	3.778245	-0.092077	-0.003387	0.173791	-0.007027	0.195848	-0.012977	-0.804688	-0.245850	-0.800293	0.091999	0.009453	0.037692	0.822392	0.119945	-0.547817	0.095820	13.969976	-67.521983	3.927644
62875		9.177656	0.954540	3.716070	-0.029062	0.028799	0.134573	0.003489	0.188127	-0.011074	-0.796387	-0.248535	-0.791260	0.091812	0.009540	0.037075	0.822900	0.119853	-0.547055	0.095926	13.908593	-67.418870	3.993466
62876		9.137644	0.981348	3.672949	0.003120	0.071498	0.084028	0.010726	0.185569	-0.009667	-0.788818	-0.251953	-0.802246	0.091411	0.009807	0.036645	0.823397	0.119788	-0.546299	0.096054	13.850809	-67.317130	4.059666
62877		9.108911	0.985054	3.663146	0.016812	0.082230	0.054134	0.012066	0.186329	-0.010034	-0.785645	-0.247070	-0.803467	0.091124	0.009844	0.036547	0.823893	0.119730	-0.545540	0.096186	13.794655	-67.215108	4.125245
62878		9.080088	0.996733	3.676280	0.007987	0.093351	0.033516	0.017181	0.183706	-0.012035	-0.791016	-0.244141	-0.804443	0.090835	0.009959	0.036680	0.824381	0.119698	-0.544785	0.096320	13.745425	-67.113903	4.186288
62879		9.084036	0.974911	3.726754	-0.011067	0.062398	0.054167	0.002781	0.189635	-0.009900	-0.787109	-0.260986	-0.800537	0.090876	0.009744	0.037182	0.824890	0.119599	-0.544016	0.096429	13.683768	-67.010011	4.252164
62880		9.088239	0.973709	3.668056	0.060304	0.084430	0.035564	0.003994	0.198592	-0.015271	-0.784180	-0.246582	-0.808350	0.090920	0.009729	0.036590	0.825426	0.119517	-0.543204	0.096526	13.627620	-66.900105	4.313059
62881		9.102208	0.928816	3.753906	0.022781	0.021541	0.076887	-0.002512	0.208886	-0.016499	-0.786865	-0.247314	-0.804688	0.091062	0.009281	0.037444	0.825992	0.119405	-0.542353	0.096605	13.566599	-66.784552	4.375052
62882		9.071861	0.948134	3.792489	-0.008637	0.033054	0.065540	-0.002796	0.212220	-0.017170	-0.781006	-0.248291	-0.812012	0.090760	0.009474	0.037828	0.826569	0.119290	-0.541486	0.096679	13.505763	-66.666760	4.436264
62883		9.075549	0.903248	3.776040	0.040047	0.000928	0.058396	-0.008290	0.211578	-0.022156	-0.776611	-0.254883	-0.807129	0.090796	0.009024	0.037664	0.827147	0.119168	-0.540622	0.096721	13.449085	-66.548900	4.490027
62884		9.023637	0.925419	3.787411	0.022933	0.022143	0.017158	0.003220	0.207710	-0.022705	-0.773926	-0.251953	-0.822021	0.090277	0.009243	0.037781	0.827708	0.119097	-0.539766	0.096788	13.401448	-66.432809	4.541177
62885		8.970310	0.919572	3.885445	-0.062037	-0.010009	0.005906	0.003973	0.214595	-0.027727	-0.785889	-0.256836	-0.816406	0.089746	0.009183	0.038758	0.828288	0.119038	-0.538880	0.096841	13.358988	-66.312493	4.587187
62886		8.929469	0.903750	3.884516	-0.052447	-0.021531	-0.033199	0.006305	0.219771	-0.027146	-0.772217	-0.252197	-0.819336	0.089339	0.009024	0.038747	0.828880	0.118986	-0.537968	0.096906	13.316055	-66.189057	4.635217
62887		8.908879	0.945614	3.916708	-0.079731	0.012178	-0.035348	0.019046	0.224876	-0.032957	-0.775391	-0.249512	-0.820313	0.089134	0.009438	0.039068	0.829479	0.118999	-0.537027	0.096984	13.286622	-66.062293	4.676512
62888		8.910273	0.970074	3.930586	-0.076104	0.035392	-0.026144	0.014856	0.240350	-0.033599	-0.766602	-0.260986	-0.818604	0.089152	0.009683	0.039199	0.830123	0.118987	-0.536021	0.097054	13.251363	-65.926543	4.721293
62889		8.844068	0.988364	3.997421	-0.142593	0.035156	-0.058091	0.005595	0.258126	-0.034240	-0.763428	-0.251221	-0.830322	0.088494	0.009867	0.039860	0.830817	0.118932	-0.534947	0.097110	13.206930	-65.781045	4.770667
62890		8.809652	1.017709	4.062760	-0.196583	0.047042	-0.060210	0.001939	0.268209	-0.046832	-0.770020	-0.247559	-0.833008	0.088153	0.010156	0.040510	0.831547	0.118890	-0.533821	0.097110	13.173590	-65.627980	4.805621
62891		8.828928	1.048319	4.130813	-0.229897	0.060959	-0.011875	-0.015018	0.279566	-0.056738	-0.765625	-0.260010	-0.831543	0.088350	0.010461	0.041184	0.832318	0.118797	-0.532652	0.097029	13.139844	-65.467561	4.830402
62892		8.881036	1.030606	4.192081	-0.228205	0.032076	0.059259	-0.033169	0.289267	-0.071783	-0.765625	-0.260986	-0.830566	0.088875	0.010281	0.041791	0.833134	0.118663	-0.531440	0.096842	13.111568	-65.299522	4.837456
62893		8.825295	1.047764	4.186750	-0.222761	0.052848	0.008719	-0.054575	0.296496	-0.078901	-0.758057	-0.253906	-0.833008	0.088319	0.010454	0.041734	0.833981	0.118457	-0.530204	0.096574	13.077902	-65.126766	4.837251
62894		8.760755	1.028417	4.141778	-0.176262	0.050575	-0.069531	-0.079134	0.293523	-0.091315	-0.754883	-0.254883	-0.831299	0.087673	0.010261	0.041285	0.834841	0.118182	-0.528982	0.096187	13.046086	-64.953827	4.819496
62895		8.690732	1.099507	4.194715	-0.242674	0.104861	-0.103753	-0.098632	0.288535	-0.101995	-0.752441	-0.247070	-0.834229	0.086973	0.010971	0.041816	0.835700	0.117856	-0.527785	0.095700	13.017252	-64.782533	4.786070
62896		8.625268	1.087639	4.172373	-0.218747	0.102974	-0.172751	-0.124758	0.294678	-0.108739	-0.751953	-0.250732	-0.836914	0.086320	0.010855	0.041590	0.836594	0.117434	-0.526567	0.095118	12.979652	-64.606714	4.745431
62897		8.622527	1.112934	4.192960	-0.215158	0.126177	-0.163583	-0.146048	0.295019	-0.124009	-0.748779	-0.255127	-0.850098	0.086294	0.011106	0.041794	0.837504	0.116964	-0.525349	0.094418	12.947644	-64.428986	4.685330
62898		8.620839	1.131300	4.190804	-0.188935	0.148979	-0.163668	-0.163248	0.297130	-0.143614	-0.753174	-0.251465	-0.850342	0.086279	0.011285	0.041771	0.838438	0.116471	-0.524116	0.093590	12.927705	-64.247317	4.600561
62899		8.578425	1.051361	4.167602	-0.134234	0.082023	-0.219002	-0.185590	0.302088	-0.159806	-0.747070	-0.255615	-0.848877	0.085855	0.010484	0.041537	0.839401	0.115926	-0.522862	0.092640	12.911847	-64.061076	4.497157
62900		8.565688	0.998273	4.189349	-0.112235	0.028042	-0.225992	-0.199362	0.305046	-0.176318	-0.743164	-0.255615	-0.855469	0.085729	0.009949	0.041753	0.840386	0.115363	-0.521589	0.091584	12.905490	-63.870834	4.374067
62901		8.535942	0.933323	4.136945	-0.030764	-0.017107	-0.281351	-0.219932	0.307141	-0.194139	-0.741455	-0.250244	-0.863281	0.085432	0.009296	0.041228	0.841391	0.114759	-0.520307	0.090402	12.906105	-63.677387	4.230028
62902		8.585184	0.919765	4.202393	-0.029082	-0.045942	-0.210166	-0.213114	0.300196	-0.215799	-0.734375	-0.250977	-0.863281	0.085925	0.009150	0.041885	0.842382	0.114242	-0.519033	0.089141	12.935551	-63.484759	4.057684
62903		8.677386	0.940018	4.261231	-0.010861	-0.040364	-0.099968	-0.221779	0.307416	-0.226290	-0.739258	-0.253418	-0.856689	0.086850	0.009349	0.042468	0.843396	0.113713	-0.517727	0.087818	12.968376	-63.286979	3.875949
62904		8.739771	0.987617	4.259210	0.040218	0.006785	-0.040375	-0.223354	0.308449	-0.245283	-0.721436	-0.253174	-0.863037	0.087475	0.009816	0.042446	0.844419	0.113225	-0.516402	0.086410	13.019312	-63.085873	3.672461
62905		8.856988	1.095655	4.372516	0.003126	0.080369	0.125070	-0.222747	0.310735	-0.244547	-0.725342	-0.250000	-0.869873	0.088651	0.010897	0.043575	0.845441	0.112737	-0.515066	0.085009	13.067310	-62.883750	3.472430
62906		8.901216	1.087965	4.337238	0.091062	0.082245	0.147823	-0.230365	0.313869	-0.250854	-0.724121	-0.256104	-0.877686	0.089094	0.010818	0.043220	0.846476	0.112230	-0.513713	0.083562	13.115092	-62.678712	3.267191
62907		8.934769	1.116410	4.418773	0.065976	0.086214	0.216776	-0.235336	0.316317	-0.249897	-0.721436	-0.251953	-0.876221	0.089431	0.011104	0.044033	0.847513	0.111698	-0.512350	0.082108	13.156498	-62.472632	3.065723
62908		8.903577	1.068267	4.517618	0.016029	0.011297	0.228391	-0.252617	0.315455	-0.244121	-0.717773	-0.251221	-0.888672	0.089120	0.010631	0.045022	0.848553	0.111079	-0.510998	0.080633	13.180273	-62.267481	2.872521
62909		8.875989	0.955095	4.481594	0.097456	-0.088380	0.175438	-0.253509	0.309229	-0.234509	-0.718262	-0.253906	-0.881592	0.088840	0.009503	0.044667	0.849567	0.110432	-0.509676	0.079193	13.193340	-62.067283	2.690572
62910		8.806546	0.808232	4.450000	0.162362	-0.222492	0.083526	-0.233871	0.311188	-0.221710	-0.717529	-0.252930	-0.891357	0.088143	0.008037	0.044353	0.850567	0.109835	-0.508341	0.077857	13.202317	-61.867404	2.525518
62911		8.785154	0.683808	4.491650	0.180115	-0.353223	0.069830	-0.216337	0.296864	-0.200302	-0.708008	-0.247559	-0.891357	0.087925	0.006799	0.044779	0.851508	0.109264	-0.507071	0.076649	13.201404	-61.678558	2.382941
62912		8.791146	0.587600	4.474265	0.251424	-0.440306	0.056022	-0.187372	0.278939	-0.178551	-0.699951	-0.247803	-0.902344	0.087979	0.005839	0.044614	0.852376	0.108766	-0.505875	0.075596	13.197997	-61.502320	2.261610
62913		8.843184	0.569920	4.411056	0.361928	-0.438836	0.069646	-0.145832	0.256175	-0.147041	-0.695557	-0.257324	-0.897705	0.088492	0.005666	0.043993	0.853149	0.108375	-0.504777	0.074771	13.190928	-61.343146	2.171571
62914		8.818125	0.561082	4.462328	0.334665	-0.459631	0.069782	-0.125560	0.246065	-0.122395	-0.695801	-0.254395	-0.900391	0.088239	0.005585	0.044511	0.853876	0.108011	-0.503725	0.074096	13.172297	-61.192604	2.107712
62915		8.792106	0.607252	4.393898	0.393731	-0.395300	0.019142	-0.101025	0.240714	-0.096810	-0.698486	-0.242432	-0.896484	0.087977	0.006052	0.043830	0.854563	0.107690	-0.502702	0.073590	13.142949	-61.048635	2.072173
62916		8.761120	0.665965	4.371191	0.407640	-0.330117	-0.013052	-0.083854	0.229247	-0.078994	-0.688477	-0.245117	-0.901855	0.087664	0.006643	0.043609	0.855205	0.107400	-0.501728	0.073196	13.108075	-60.913175	2.053966
62917		8.786716	0.768219	4.418146	0.378522	-0.239251	0.042057	-0.066973	0.212607	-0.058333	-0.693115	-0.247559	-0.909912	0.087916	0.007671	0.044085	0.855787	0.107138	-0.500832	0.072924	13.066248	-60.789904	2.054963
62918		8.753840	0.831485	4.416910	0.369832	-0.173642	0.019057	-0.069463	0.217146	-0.044564	-0.695068	-0.254639	-0.910156	0.087588	0.008311	0.044071	0.856376	0.106827	-0.499922	0.072706	13.008306	-60.665667	2.072467
62919		8.789527	0.859489	4.409223	0.408445	-0.138586	0.048838	-0.065599	0.219821	-0.043488	-0.685303	-0.247314	-0.908936	0.087946	0.008590	0.043993	0.856967	0.106530	-0.499000	0.072505	12.951325	-60.540278	2.091763
62920		8.779687	0.860051	4.428674	0.407937	-0.137554	0.048873	-0.054208	0.211309	-0.029550	-0.689209	-0.247314	-0.917480	0.087845	0.008600	0.044192	0.857526	0.106251	-0.498116	0.072388	12.889263	-60.421222	2.124468
62921		8.806439	0.812945	4.440564	0.442331	-0.179281	0.071897	-0.051879	0.216750	-0.017896	-0.688232	-0.241455	-0.917236	0.088113	0.008133	0.044308	0.858091	0.105950	-0.497215	0.072329	12.816359	-60.300789	2.171175
62922		8.819769	0.750186	4.480277	0.450001	-0.242813	0.095012	-0.041595	0.206926	-0.007317	-0.683105	-0.243164	-0.913574	0.088244	0.007508	0.044710	0.858622	0.105671	-0.496356	0.072337	12.741536	-60.186972	2.226960
62923		8.860940	0.716869	4.462998	0.511147	-0.262705	0.117982	-0.023535	0.193689	0.007422	-0.690186	-0.239502	-0.921875	0.088652	0.007177	0.044543	0.859103	0.105437	-0.495556	0.072445	12.666203	-60.082560	2.295299
62924		8.935594	0.736050	4.511233	0.521052	-0.246793	0.207563	-0.021238	0.187993	0.028492	-0.678467	-0.256348	-0.922852	0.089397	0.007378	0.045028	0.859562	0.105163	-0.494789	0.072646	12.573376	-59.983748	2.385450
62925		8.961162	0.732819	4.609215	0.469169	-0.264501	0.276624	-0.020149	0.181235	0.047950	-0.680908	-0.244873	-0.925537	0.089652	0.007354	0.046010	0.859995	0.104847	-0.494062	0.072930	12.464545	-59.891226	2.494874
62926		8.999923	0.795222	4.663723	0.444123	-0.205820	0.343181	-0.017567	0.172186	0.069639	-0.676514	-0.249512	-0.920654	0.090037	0.007988	0.046559	0.860396	0.104493	-0.493383	0.073309	12.338744	-59.806164	2.625761
62927		8.983976	0.905292	4.696271	0.398477	-0.094824	0.356803	-0.030967	0.179245	0.084975	-0.686035	-0.245850	-0.921631	0.089878	0.009098	0.046881	0.860814	0.104040	-0.492686	0.073724	12.189936	-59.719020	2.774476
62928		8.989928	0.962869	4.669356	0.424758	-0.017394	0.354320	-0.042737	0.166492	0.096568	-0.679688	-0.241943	-0.925293	0.089933	0.009682	0.046617	0.861202	0.103512	-0.492054	0.074154	12.026590	-59.640061	2.932375
62929		8.870825	1.046144	4.744341	0.296747	0.057735	0.296877	-0.070038	0.177872	0.103936	-0.666748	-0.240723	-0.924316	0.088745	0.010524	0.047361	0.861629	0.102845	-0.491387	0.074554	11.839263	-59.555501	3.100045
62930		8.780261	1.064198	4.713651	0.285884	0.098406	0.204924	-0.092959	0.170821	0.105427	-0.668945	-0.240479	-0.921387	0.087837	0.010710	0.047057	0.862048	0.102077	-0.490757	0.074901	11.639603	-59.474644	3.266957
62931		8.668567	1.090775	4.676305	0.266774	0.149053	0.092273	-0.118377	0.161919	0.105431	-0.672852	-0.237305	-0.925049	0.086718	0.010981	0.046686	0.862457	0.101204	-0.490177	0.075180	11.428182	-59.398623	3.430722
62932		8.597180	1.104384	4.673548	0.241554	0.180113	0.030198	-0.142262	0.156209	0.097465	-0.672607	-0.239746	-0.929199	0.086003	0.011119	0.046660	0.862867	0.100248	-0.489624	0.075363	11.212476	-59.324472	3.583573
62933		8.493389	1.158190	4.654108	0.204001	0.253423	-0.064154	-0.165091	0.151810	0.092870	-0.668701	-0.235596	-0.933350	0.084964	0.011660	0.046467	0.863277	0.099207	-0.489096	0.075468	10.989857	-59.252121	3.729482
62934		8.487680	1.089915	4.683417	0.203427	0.199906	-0.061706	-0.184200	0.147282	0.084559	-0.668457	-0.230469	-0.932373	0.084907	0.010978	0.046762	0.863688	0.098105	-0.488590	0.075489	10.765675	-59.181004	3.864604
62935		8.438668	1.052446	4.620281	0.250118	0.197328	-0.139827	-0.204920	0.145315	0.075756	-0.677002	-0.236084	-0.944092	0.084416	0.010604	0.046131	0.864105	0.096937	-0.488096	0.075419	10.539179	-59.109917	3.988664
62936		8.403639	1.005957	4.690086	0.196103	0.154685	-0.139654	-0.223640	0.154717	0.072126	-0.666992	-0.227783	-0.947266	0.084069	0.010142	0.046825	0.864555	0.095692	-0.487564	0.075293	10.304429	-59.032781	4.109962
62937		8.386203	0.968269	4.709552	0.191434	0.133417	-0.148768	-0.230589	0.157011	0.058708	-0.661621	-0.235352	-0.942383	0.083896	0.009762	0.047018	0.865016	0.094449	-0.487019	0.075092	10.078844	-58.952861	4.215997
62938		8.386776	0.887219	4.692636	0.236092	0.079008	-0.164683	-0.236237	0.160263	0.056059	-0.661621	-0.226318	-0.950195	0.083903	0.008951	0.046849	0.865488	0.093186	-0.486458	0.074869	9.852685	-58.870514	4.319038
62939		8.444262	0.895589	4.712644	0.260300	0.104567	-0.105066	-0.236716	0.166851	0.043648	-0.665771	-0.223145	-0.949463	0.084480	0.009030	0.047045	0.865978	0.091949	-0.485864	0.074592	9.637695	-58.783154	4.408773
62940		8.465026	0.846329	4.768525	0.249491	0.063777	-0.063564	-0.237323	0.173685	0.033022	-0.670410	-0.213623	-0.960693	0.084690	0.008534	0.047602	0.866487	0.090733	-0.485233	0.074272	9.431886	-58.690647	4.487467
62941		8.488990	0.791636	4.801638	0.261275	0.022541	-0.031248	-0.237406	0.182612	0.022021	-0.660400	-0.217529	-0.952637	0.084933	0.007983	0.047929	0.867020	0.089539	-0.484558	0.073907	9.235751	-58.592035	4.554836
62942		8.441044	0.739211	4.797075	0.266883	-0.011441	-0.079334	-0.240987	0.182650	0.014427	-0.649170	-0.210938	-0.953857	0.084454	0.007456	0.047885	0.867556	0.088348	-0.483879	0.073501	9.045258	-58.492493	4.613276
62943		8.389058	0.693724	4.815567	0.249870	-0.044996	-0.118218	-0.228179	0.185640	0.006358	-0.664551	-0.206543	-0.951660	0.083935	0.006995	0.048070	0.868094	0.087231	-0.483179	0.073092	8.869907	-58.390541	4.662601
62944		8.373162	0.601938	4.826171	0.267797	-0.121233	-0.133966	-0.223427	0.181117	0.005090	-0.659180	-0.216553	-0.962646	0.083775	0.006075	0.048179	0.868618	0.086138	-0.482494	0.072687	8.699659	-58.290870	4.709204
62945		8.353422	0.569420	4.846437	0.263152	-0.142502	-0.143031	-0.210850	0.187309	0.005643	-0.656494	-0.206055	-0.958008	0.083579	0.005748	0.048380	0.869149	0.085097	-0.481777	0.072316	8.535968	-58.187760	4.756601
62946		8.297469	0.584421	4.873971	0.223607	-0.121084	-0.175238	-0.196617	0.182142	0.008246	-0.653320	-0.210205	-0.960938	0.083019	0.005895	0.048658	0.869659	0.084113	-0.481078	0.071990	8.379284	-58.087644	4.805420
62947		8.340009	0.543086	4.855518	0.284768	-0.140923	-0.152162	-0.180148	0.173354	0.013374	-0.651611	-0.201416	-0.961914	0.083442	0.005480	0.048478	0.870137	0.083191	-0.480412	0.071721	8.229225	-57.992950	4.857584
62948		8.310553	0.596300	4.851658	0.276110	-0.075400	-0.175391	-0.161783	0.173110	0.018891	-0.645996	-0.205811	-0.964111	0.083147	0.006010	0.048440	0.870605	0.082336	-0.479743	0.071521	8.085170	-57.898695	4.915153
62949		8.341135	0.572794	4.902542	0.269424	-0.093882	-0.124751	-0.146611	0.166230	0.029217	-0.654297	-0.200439	-0.962158	0.083451	0.005776	0.048952	0.871044	0.081525	-0.479102	0.071398	7.942013	-57.809170	4.981968
62950		8.393856	0.592302	4.946155	0.271009	-0.067778	-0.055945	-0.129702	0.156569	0.038266	-0.643066	-0.198975	-0.970703	0.083976	0.005971	0.049392	0.871449	0.080768	-0.478499	0.071352	7.802032	-57.725680	5.056562
62951		8.446627	0.540389	4.878429	0.377398	-0.088490	-0.051216	-0.106703	0.140030	0.048646	-0.642334	-0.195557	-0.972412	0.084499	0.005450	0.048722	0.871801	0.080093	-0.477965	0.071399	7.668541	-57.652356	5.139115
62952		8.418786	0.540708	4.884302	0.368691	-0.077494	-0.071909	-0.088269	0.136376	0.065849	-0.643311	-0.195801	-0.965820	0.084219	0.005456	0.048783	0.872130	0.079459	-0.477446	0.071563	7.530998	-57.582245	5.239056
62953		8.341509	0.480107	4.869070	0.361995	-0.123863	-0.149732	-0.068863	0.122406	0.083068	-0.640381	-0.195068	-0.974609	0.083443	0.004852	0.048638	0.872411	0.078873	-0.476987	0.071844	7.391415	-57.521285	5.354647
62954		8.320944	0.454057	4.905518	0.334759	-0.144673	-0.149594	-0.053376	0.109190	0.087376	-0.649414	-0.190918	-0.977051	0.083234	0.004590	0.049009	0.872652	0.078348	-0.476582	0.072175	7.258703	-57.467949	5.472701
62955		8.352909	0.450099	4.894375	0.369218	-0.131783	-0.128944	-0.034230	0.101505	0.099897	-0.646729	-0.198242	-0.981689	0.083552	0.004551	0.048901	0.872862	0.077881	-0.476209	0.072603	7.127180	-57.419788	5.602410
62956		8.346123	0.407051	4.859362	0.409838	-0.153953	-0.156334	-0.023458	0.101378	0.112772	-0.645508	-0.191650	-0.976807	0.083484	0.004123	0.048551	0.873063	0.077429	-0.475837	0.073113	6.990649	-57.372398	5.745474
62957		8.406396	0.419690	4.874574	0.434009	-0.128264	-0.096707	-0.000742	0.102596	0.121996	-0.633545	-0.188232	-0.973633	0.084086	0.004248	0.048703	0.873253	0.077055	-0.475454	0.073717	6.859333	-57.324816	5.897864
62958		8.385096	0.413857	4.853264	0.447926	-0.117740	-0.126575	0.010149	0.099538	0.128108	-0.642578	-0.189453	-0.974365	0.083872	0.004190	0.048491	0.873430	0.076714	-0.475083	0.074373	6.729429	-57.279167	6.056085
62959		8.414634	0.468108	4.851555	0.459797	-0.049851	-0.099353	0.030208	0.081501	0.140651	-0.633545	-0.194824	-0.972168	0.084163	0.004733	0.048482	0.873550	0.076438	-0.474788	0.075124	6.602278	-57.244460	6.224753
62960		8.432778	0.447738	4.864404	0.467502	-0.058765	-0.078591	0.040358	0.073846	0.143923	-0.643799	-0.192627	-0.974121	0.084342	0.004528	0.048614	0.873647	0.076201	-0.474523	0.075912	6.478984	-57.214102	6.395825
62961		8.431163	0.491170	4.857432	0.467037	-0.003218	-0.081179	0.054597	0.065660	0.140114	-0.631592	-0.187012	-0.976074	0.084324	0.004958	0.048548	0.873719	0.076039	-0.474287	0.076712	6.368416	-57.187994	6.561504
62962		8.440088	0.503704	4.859239	0.470651	0.020108	-0.072098	0.067012	0.057296	0.141748	-0.641846	-0.187500	-0.980957	0.084411	0.005081	0.048570	0.873766	0.075930	-0.474082	0.077546	6.264399	-57.166574	6.727908
62963		8.420149	0.446682	4.846216	0.484524	-0.023924	-0.099352	0.074204	0.048681	0.139699	-0.640381	-0.197754	-0.983398	0.084210	0.004508	0.048443	0.873790	0.075861	-0.473912	0.078385	6.167439	-57.149786	6.890841
62964		8.430112	0.460296	4.846131	0.488134	-0.000599	-0.090272	0.084951	0.031343	0.137458	-0.639648	-0.182129	-0.974121	0.084306	0.004640	0.048450	0.873768	0.075850	-0.473812	0.079233	6.080218	-57.142598	7.049544
62965		8.428171	0.400261	4.860412	0.487587	-0.054112	-0.087606	0.101235	0.013809	0.135364	-0.636230	-0.194336	-0.977539	0.084282	0.004035	0.048600	0.873699	0.075923	-0.473781	0.080104	6.005982	-57.145152	7.203890
62966		8.388916	0.355642	4.837064	0.493261	-0.088211	-0.135576	0.108491	0.002025	0.135698	-0.642578	-0.191650	-0.978027	0.083887	0.003587	0.048372	0.873599	0.076031	-0.473798	0.080989	5.936516	-57.154348	7.357504
62967		8.403353	0.404801	4.876737	0.455736	-0.041683	-0.099123	0.128128	-0.005996	0.124724	-0.638428	-0.190674	-0.986084	0.084030	0.004069	0.048772	0.873476	0.076254	-0.473838	0.081869	5.888801	-57.167370	7.498593
62968		8.448441	0.341072	4.821979	0.535372	-0.084192	-0.094135	0.142519	-0.011956	0.133184	-0.647949	-0.200928	-0.975830	0.084479	0.003433	0.048227	0.873329	0.076522	-0.473901	0.082818	5.842162	-57.184246	7.648199
62969		8.504138	0.317651	4.886613	0.514199	-0.112027	-0.013540	0.149908	-0.018092	0.134295	-0.635254	-0.194824	-0.974121	0.085035	0.003197	0.048876	0.873163	0.076823	-0.473987	0.083786	5.799368	-57.204596	7.798227
62970		8.554219	0.339979	4.860813	0.552721	-0.076771	0.016166	0.163776	-0.032015	0.140522	-0.641357	-0.189453	-0.974121	0.085532	0.003420	0.048625	0.872955	0.077175	-0.474131	0.084810	5.759955	-57.233221	7.953650
62971		8.600548	0.368088	4.857146	0.568618	-0.041061	0.055026	0.171078	-0.041081	0.145746	-0.639648	-0.202393	-0.978516	0.085993	0.003702	0.048592	0.872720	0.077550	-0.474312	0.085870	5.720876	-57.267219	8.113589
62972		8.650116	0.429577	4.895839	0.543356	0.017902	0.121231	0.179964	-0.046663	0.144922	-0.643066	-0.197266	-0.971924	0.086487	0.004314	0.048982	0.872467	0.077968	-0.474513	0.086946	5.687731	-57.304349	8.272466
62973		8.680720	0.462358	4.860533	0.573671	0.063080	0.130168	0.177745	-0.057706	0.141314	-0.650635	-0.194336	-0.971680	0.086790	0.004642	0.048634	0.872189	0.078390	-0.474761	0.087995	5.657425	-57.347473	8.426386
62974		8.698306	0.533148	4.836870	0.577257	0.140957	0.136533	0.182627	-0.077436	0.135785	-0.640381	-0.198730	-0.970703	0.086961	0.005346	0.048407	0.871864	0.078854	-0.475090	0.089025	5.636137	-57.401561	8.572835
62975		8.738520	0.574939	4.875098	0.547868	0.177622	0.193668	0.183861	-0.082159	0.125654	-0.648682	-0.205566	-0.969482	0.087362	0.005759	0.048792	0.871530	0.079351	-0.475434	0.090011	5.624899	-57.457687	8.708109
62976		8.789034	0.565069	4.799718	0.627488	0.189676	0.196008	0.171204	-0.096804	0.117212	-0.653320	-0.196533	-0.971680	0.087864	0.005661	0.048045	0.871168	0.079818	-0.475844	0.090924	5.614805	-57.521754	8.833332
62977		8.825451	0.633254	4.801872	0.616631	0.258106	0.232247	0.170338	-0.115962	0.104332	-0.647461	-0.196777	-0.972168	0.088223	0.006338	0.048075	0.870767	0.080321	-0.476332	0.091771	5.617337	-57.595940	8.942914
62978		8.826636	0.657334	4.756836	0.634603	0.290903	0.211370	0.157916	-0.122174	0.101607	-0.649902	-0.200439	-0.973145	0.088234	0.006581	0.047627	0.870355	0.080779	-0.476851	0.092575	5.615323	-57.673610	9.049354
62979		8.835499	0.708717	4.730866	0.634070	0.346461	0.208656	0.144548	-0.126738	0.091377	-0.663086	-0.202637	-0.968018	0.088322	0.007093	0.047370	0.869942	0.081206	-0.477391	0.093300	5.615170	-57.753214	9.144446
62980		8.813503	0.690371	4.692623	0.643825	0.334623	0.169730	0.129706	-0.125948	0.085591	-0.655273	-0.196533	-0.962158	0.088102	0.006911	0.046986	0.869538	0.081581	-0.477933	0.093964	5.611280	-57.832152	9.233811
62981		8.779098	0.690953	4.724154	0.585711	0.324170	0.158242	0.116258	-0.127499	0.082083	-0.652344	-0.203125	-0.958984	0.087758	0.006918	0.047302	0.869137	0.081907	-0.478484	0.094580	5.602913	-57.911663	9.319296
62982		8.754578	0.619415	4.700409	0.595446	0.257792	0.122056	0.100062	-0.127484	0.076494	-0.659668	-0.201660	-0.971924	0.087513	0.006204	0.047063	0.868744	0.082175	-0.479042	0.095134	5.589969	-57.990972	9.399145
62983		8.744951	0.602754	4.716284	0.568151	0.236967	0.122193	0.079680	-0.114533	0.066709	-0.659912	-0.202637	-0.959961	0.087420	0.006038	0.047215	0.868395	0.082373	-0.479548	0.095601	5.573039	-58.062211	9.469876
62984		8.757187	0.556667	4.796569	0.507825	0.174994	0.173141	0.064694	-0.107588	0.065311	-0.659424	-0.209229	-0.958008	0.087544	0.005580	0.048015	0.868068	0.082505	-0.480031	0.096029	5.547847	-58.129542	9.540153
62985		8.785815	0.596078	4.779713	0.515464	0.220654	0.191168	0.046817	-0.092836	0.057066	-0.659424	-0.199707	-0.953857	0.087834	0.005975	0.047839	0.867788	0.082572	-0.480453	0.096384	5.518606	-58.187843	9.603108
62986		8.850456	0.639525	4.743556	0.557985	0.278288	0.229826	0.031338	-0.079074	0.045431	-0.663330	-0.204102	-0.966309	0.088484	0.006408	0.047472	0.867553	0.082594	-0.480820	0.096658	5.489696	-58.237796	9.655184
62987		8.845041	0.668678	4.726232	0.553336	0.311521	0.218061	0.020368	-0.072816	0.037021	-0.665527	-0.208740	-0.951904	0.088432	0.006698	0.047295	0.867341	0.082585	-0.481160	0.096870	5.461707	-58.283550	9.698780
62988		8.810675	0.680990	4.683227	0.559014	0.331844	0.167379	0.004217	-0.078932	0.027321	-0.669922	-0.200928	-0.959473	0.088087	0.006821	0.046867	0.867125	0.082532	-0.481532	0.097000	5.433740	-58.332425	9.731426
62989		8.827951	0.640631	4.663026	0.585163	0.300196	0.170017	-0.017697	-0.090460	0.016832	-0.665771	-0.197266	-0.953369	0.088258	0.006418	0.046670	0.866897	0.082415	-0.481958	0.097026	5.403962	-58.387127	9.751459
62990		8.844198	0.618645	4.584894	0.652472	0.299806	0.142623	-0.035456	-0.105894	0.010668	-0.666748	-0.201416	-0.956055	0.088417	0.006199	0.045895	0.866640	0.082244	-0.482459	0.096977	5.370884	-58.450484	9.763380
62991		8.814556	0.624162	4.516699	0.680830	0.319628	0.082809	-0.049249	-0.100943	0.004323	-0.665771	-0.198730	-0.947021	0.088123	0.006255	0.045210	0.866404	0.082025	-0.482941	0.096869	5.335395	-58.510485	9.768880
62992		8.827038	0.648702	4.527519	0.661690	0.343448	0.100941	-0.070004	-0.099392	0.002229	-0.669678	-0.204834	-0.946045	0.088248	0.006504	0.045317	0.866181	0.081721	-0.483427	0.096702	5.289655	-58.569694	9.772421
62993		8.811550	0.596570	4.504436	0.675577	0.299341	0.073831	-0.084661	-0.087000	-0.000067	-0.674561	-0.201904	-0.952148	0.088096	0.005985	0.045080	0.865995	0.081353	-0.483863	0.096495	5.236602	-58.621505	9.774719
62994		8.712639	0.527085	4.447846	0.679366	0.239703	-0.042722	-0.089872	-0.078296	0.005516	-0.673096	-0.198486	-0.947998	0.087109	0.005293	0.044510	0.865828	0.080945	-0.484268	0.096302	5.174418	-58.668862	9.784179
62995		8.684536	0.452398	4.430323	0.689176	0.173251	-0.078798	-0.094081	-0.071228	0.018612	-0.669189	-0.196289	-0.950928	0.086829	0.004553	0.044332	0.865674	0.080483	-0.484648	0.096160	5.096917	-58.712628	9.808774
62996		8.556289	0.404123	4.415429	0.639540	0.124389	-0.197859	-0.101953	-0.061066	0.031155	-0.675049	-0.196045	-0.949219	0.085549	0.004077	0.044178	0.865541	0.079952	-0.484994	0.096056	5.002046	-58.751447	9.848361
62997		8.505208	0.396559	4.401999	0.618572	0.122770	-0.248394	-0.100927	-0.059693	0.045272	-0.669189	-0.195068	-0.948486	0.085038	0.004007	0.044043	0.865405	0.079391	-0.485338	0.096016	4.894281	-58.789905	9.903741
62998		8.434733	0.379700	4.439542	0.548196	0.099767	-0.289666	-0.105064	-0.049752	0.054249	-0.674316	-0.193604	-0.945801	0.084335	0.003843	0.044414	0.865288	0.078785	-0.485646	0.096009	4.774612	-58.823318	9.970201
62999		8.379401	0.376497	4.450734	0.504600	0.098606	-0.331084	-0.102492	-0.041954	0.068999	-0.670654	-0.189941	-0.944336	0.083783	0.003817	0.044523	0.865183	0.078150	-0.485922	0.096076	4.641773	-58.852642	10.053794
63000		8.269499	0.332597	4.387274	0.504382	0.071039	-0.459402	-0.098548	-0.051442	0.083237	-0.670654	-0.185791	-0.946777	0.082682	0.003382	0.043892	0.865045	0.077503	-0.486245	0.096209	4.498155	-58.888198	10.152546
63001		8.178904	0.396248	4.347848	0.467126	0.143591	-0.554370	-0.080080	-0.067204	0.084146	-0.674072	-0.186768	-0.952393	0.081773	0.004014	0.043504	0.864862	0.076941	-0.486625	0.096386	4.365224	-58.932407	10.251179
63002		8.155170	0.349839	4.373102	0.435748	0.100356	-0.563187	-0.079599	-0.079959	0.091750	-0.671387	-0.189697	-0.944336	0.081533	0.003553	0.043762	0.864642	0.076368	-0.487065	0.096591	4.225835	-58.984385	10.357564
63003		8.203988	0.332059	4.784240	0.113740	0.005258	-0.310496	-0.088948	-0.085284	0.103441	-0.672119	-0.182617	-0.949951	0.082018	0.003384	0.047876	0.864408	0.075729	-0.487535	0.096822	4.070008	-59.039473	10.476872
63004		8.369447	0.374286	4.812332	0.151754	0.069173	-0.152541	-0.150969	-0.089639	0.125868	-0.678467	-0.187744	-0.948242	0.083670	0.003832	0.048158	0.864173	0.074769	-0.488063	0.096997	3.856933	-59.098023	10.621379
63005		8.592299	0.431645	4.971745	0.105139	0.128346	0.122331	-0.180481	-0.082156	0.146057	-0.674561	-0.177002	-0.941895	0.085899	0.004424	0.049749	0.863958	0.073629	-0.488578	0.097190	3.606587	-59.152464	10.789567
63006		8.838075	0.453461	5.194958	0.025386	0.146522	0.448044	-0.245885	-0.062615	0.162401	-0.679932	-0.171143	-0.945068	0.088361	0.004670	0.051972	0.863804	0.072157	-0.489048	0.097301	3.301168	-59.196165	10.978117
63007		8.922948	0.459827	5.168917	0.076028	0.194433	0.507414	-0.265870	-0.043850	0.184060	-0.677734	-0.168213	-0.946777	0.089214	0.004749	0.051702	0.863692	0.070536	-0.489451	0.097463	2.961946	-59.228973	11.192657
63008		8.922751	0.400758	5.326525	-0.052322	0.134048	0.585733	-0.300149	-0.028173	0.195467	-0.677002	-0.163086	-0.940918	0.089216	0.004175	0.053272	0.863620	0.068731	-0.489807	0.097595	2.590739	-59.252735	11.421421
63009		8.893551	0.369923	5.243047	-0.001265	0.153327	0.516786	-0.329285	-0.030157	0.211566	-0.682129	-0.150635	-0.937744	0.088924	0.003880	0.052438	0.863544	0.066762	-0.490188	0.097725	2.187067	-59.276935	11.668556
63010		8.791505	0.280891	4.907517	0.235438	0.162376	0.255643	-0.328444	-0.055580	0.227876	-0.681396	-0.164795	-0.939941	0.087898	0.002990	0.049095	0.863392	0.064768	-0.490684	0.097917	1.768335	-59.315408	11.933590
63011		8.649449	0.195695	4.615329	0.414697	0.159839	-0.017030	-0.321555	-0.048819	0.233433	-0.683350	-0.144775	-0.942139	0.086481	0.002132	0.046171	0.863250	0.062787	-0.491145	0.098153	1.347324	-59.348804	12.205860
63012		8.439888	0.067501	4.680791	0.272775	0.032686	-0.165382	-0.304804	-0.037573	0.231141	-0.678711	-0.146484	-0.941650	0.084389	0.000844	0.046823	0.863126	0.060879	-0.491548	0.098424	0.937183	-59.375026	12.476552
63013		8.377023	-0.078875	4.795509	0.165343	-0.108259	-0.161858	-0.248164	-0.085352	0.238466	-0.684814	-0.142822	-0.939697	0.083751	-0.000629	0.047992	0.862862	0.059220	-0.492128	0.098850	0.552383	-59.427415	12.755411
63014		8.375608	-0.097297	4.832796	0.119477	-0.106289	-0.143637	-0.164899	-0.142284	0.236556	-0.685059	-0.138184	-0.943115	0.083723	-0.000834	0.048388	0.862431	0.057953	-0.492913	0.099455	0.216234	-59.511817	13.032936
63015		8.387937	-0.238110	4.673601	0.273429	-0.185569	-0.213340	-0.146458	-0.094244	0.235797	-0.688965	-0.135498	-0.944824	0.083860	-0.002248	0.046777	0.862112	0.056743	-0.493477	0.100117	-0.110071	-59.567582	13.311141
63016		8.029093	-0.474615	4.515915	0.270226	-0.402210	-0.601268	-0.114697	-0.044559	0.241986	-0.696045	-0.135742	-0.937012	0.080287	-0.004623	0.045180	0.861900	0.055630	-0.493815	0.100897	-0.425027	-59.594366	13.597096
63017		7.767422	-0.445584	4.740493	-0.064975	-0.429090	-0.712396	0.029451	-0.096758	0.239216	-0.686523	-0.127197	-0.934326	0.077657	-0.004370	0.047442	0.861521	0.055171	-0.494300	0.102007	-0.655674	-59.650089	13.881013
63018		7.856879	-0.434439	5.217859	-0.438864	-0.487522	-0.393822	0.126578	-0.141648	0.252988	-0.688965	-0.132324	-0.937012	0.078537	-0.004278	0.052231	0.860993	0.055119	-0.494935	0.103403	-0.845904	-59.731245	14.182315
63019		8.063672	-0.660451	5.512881	-0.549559	-0.731235	-0.065169	0.224904	-0.173297	0.267997	-0.688721	-0.125000	-0.928955	0.080598	-0.006559	0.055191	0.860351	0.055470	-0.495655	0.105098	-0.996270	-59.829596	14.502465
63020		8.280567	-0.703285	5.716361	-0.619105	-0.780169	0.224604	0.305907	-0.119113	0.294182	-0.698486	-0.127441	-0.929932	0.082782	-0.006999	0.057202	0.859801	0.056075	-0.496107	0.107122	-1.126589	-59.896511	14.852748
63021		8.166394	-0.815630	6.027736	-0.915904	-0.961863	0.283093	0.369904	-0.044325	0.322191	-0.701660	-0.133789	-0.935059	0.081664	-0.008136	0.060280	0.859401	0.056846	-0.496206	0.109445	-1.247012	-59.919591	15.233898
63022		7.999264	-0.751921	6.141581	-1.109420	-0.943761	0.194866	0.473056	-0.050417	0.337535	-0.691650	-0.132568	-0.934570	0.079990	-0.007529	0.061418	0.858940	0.058024	-0.496278	0.112087	-1.324279	-59.945948	15.633307
63023		7.836993	-0.549605	6.197141	-1.284295	-0.785006	0.079705	0.566460	-0.029900	0.355279	-0.696289	-0.146240	-0.923828	0.078370	-0.005532	0.061967	0.858486	0.059548	-0.496207	0.115042	-1.365219	-59.959793	16.052562
63024		7.409902	-0.319510	6.416751	-1.729971	-0.678074	-0.183002	0.646830	-0.014200	0.378710	-0.693359	-0.142334	-0.932373	0.074101	-0.003262	0.064162	0.858021	0.061349	-0.496024	0.118301	-1.383199	-59.964412	16.498556
63025		7.127080	-0.065241	6.571039	-2.058800	-0.522453	-0.354018	0.730450	-0.032234	0.401847	-0.697021	-0.143066	-0.929932	0.071262	-0.000749	0.065719	0.857460	0.063461	-0.495868	0.121859	-1.376671	-59.978823	16.971432
63026		7.171243	0.187380	6.687824	-2.201685	-0.319593	-0.260765	0.779221	-0.019802	0.418102	-0.704590	-0.144775	-0.916748	0.071702	0.001763	0.066892	0.856888	0.065733	-0.495625	0.125609	-1.358414	-59.986033	17.462959
63027		7.175880	0.202060	6.662007	-2.179583	-0.319157	-0.269944	0.779026	-0.008173	0.435095	-0.702637	-0.156250	-0.914795	0.071752	0.001917	0.066631	0.856318	0.067953	-0.495327	0.129432	-1.356686	-59.986303	17.973451
63028		7.347919	0.086512	6.411845	-1.855441	-0.360573	-0.245114	0.788309	-0.048408	0.448654	-0.717773	-0.154297	-0.922852	0.073462	0.000777	0.064139	0.855617	0.070205	-0.495193	0.133321	-1.364485	-60.009743	18.501063
63029		7.594830	0.005082	6.285547	-1.612007	-0.384136	-0.094487	0.787782	-0.090554	0.452270	-0.709717	-0.166016	-0.910156	0.075920	-0.000025	0.062890	0.854794	0.072472	-0.495227	0.137206	-1.377603	-60.056904	19.034240
63030		7.897823	-0.075021	6.085113	-1.284412	-0.374224	0.067599	0.768853	-0.113410	0.433585	-0.708008	-0.161865	-0.912354	0.078945	-0.000813	0.060893	0.853914	0.074718	-0.495358	0.140954	-1.384752	-60.117631	19.547788
63031		8.134479	0.142837	5.827673	-1.038741	-0.073964	0.140576	0.752643	-0.145809	0.393950	-0.708496	-0.163086	-0.906738	0.081300	0.001369	0.058341	0.852974	0.077015	-0.495612	0.144477	-1.363423	-60.197229	20.017377
63032		8.403606	0.364780	5.668961	-0.867485	0.208762	0.291501	0.724630	-0.168214	0.330203	-0.717529	-0.174316	-0.907715	0.083982	0.003581	0.056773	0.852019	0.079365	-0.495949	0.147650	-1.296405	-60.290729	20.415641
63033		8.628444	0.784833	5.561062	-0.829892	0.654717	0.428113	0.671590	-0.181520	0.257207	-0.710693	-0.175781	-0.904541	0.086224	0.007772	0.055715	0.851093	0.081678	-0.496344	0.150370	-1.187465	-60.393020	20.730108
63034		8.812388	1.080211	5.434182	-0.759202	0.978092	0.522797	0.605426	-0.192414	0.161831	-0.711426	-0.178223	-0.897461	0.088063	0.010709	0.054459	0.850228	0.083956	-0.496791	0.152517	-1.021129	-60.503002	20.935102
63035		9.008293	1.460186	5.509581	-0.880288	1.318578	0.728816	0.548151	-0.201187	0.062595	-0.726563	-0.188721	-0.904785	0.090023	0.014479	0.055226	0.849434	0.086241	-0.497273	0.154092	-0.787055	-60.619235	21.023989
63036		9.066596	1.588826	5.529932	-0.932764	1.410551	0.791457	0.435256	-0.198939	-0.032454	-0.723633	-0.179443	-0.890625	0.090613	0.015753	0.055424	0.848760	0.088282	-0.497787	0.154985	-0.520206	-60.735006	21.001415
63037		8.982988	1.736427	5.372892	-0.910200	1.545553	0.644840	0.385510	-0.219326	-0.129014	-0.719482	-0.197754	-0.896240	0.089782	0.017203	0.053861	0.848129	0.090366	-0.498381	0.155332	-0.181755	-60.862721	20.863769
63038		9.161515	1.725632	5.378723	-0.845945	1.522899	0.808366	0.311317	-0.266005	-0.218886	-0.728271	-0.194580	-0.885254	0.091562	0.017072	0.053936	0.847480	0.092396	-0.499187	0.155093	0.208998	-61.016746	20.618119
63039		9.107888	1.814189	5.272329	-0.829780	1.584337	0.715537	0.250248	-0.257723	-0.290631	-0.729248	-0.204102	-0.891846	0.091037	0.017943	0.052863	0.846931	0.094339	-0.499970	0.154398	0.642498	-61.164850	20.283752
63040		8.976786	1.682759	5.271530	-0.852458	1.393243	0.605344	0.174099	-0.235634	-0.366216	-0.732178	-0.206055	-0.886475	0.089736	0.016617	0.052836	0.846526	0.096132	-0.500679	0.153205	1.114837	-61.298361	19.856201
63041		8.821569	1.499933	5.344081	-0.924479	1.126274	0.507473	0.126117	-0.240822	-0.425281	-0.725586	-0.204590	-0.881104	0.088183	0.014778	0.053556	0.846173	0.097872	-0.501417	0.151636	1.625823	-61.432256	19.353395
63042		8.793190	1.241400	5.250164	-0.774574	0.860940	0.438366	0.066116	-0.233272	-0.475806	-0.734863	-0.214111	-0.879639	0.087900	0.012187	0.052608	0.845901	0.099480	-0.502139	0.149707	2.160244	-61.558640	18.785717
63043		8.676277	0.981942	5.256766	-0.743711	0.550029	0.337178	-0.004121	-0.188200	-0.523026	-0.733154	-0.222900	-0.881836	0.086739	0.009594	0.052649	0.845806	0.100873	-0.502697	0.147422	2.706738	-61.655540	18.158876
63044		8.557151	0.804085	5.236785	-0.716896	0.325707	0.221010	-0.054396	-0.146668	-0.563623	-0.727783	-0.218750	-0.876465	0.085555	0.007814	0.052428	0.845864	0.102127	-0.503090	0.144862	3.269170	-61.724544	17.482322
63045		8.665310	0.642288	5.262129	-0.627564	0.135746	0.325245	-0.107215	-0.118839	-0.594222	-0.729980	-0.228271	-0.880615	0.086640	0.006194	0.052669	0.846033	0.103211	-0.503386	0.142049	3.834477	-61.773415	16.767903
63046		8.758675	0.541011	5.161069	-0.459744	0.040144	0.357394	-0.133518	-0.089500	-0.612474	-0.729492	-0.226074	-0.874268	0.087580	0.005176	0.051646	0.846296	0.104210	-0.503560	0.139109	4.404065	-61.801346	16.032231
63047		8.769839	0.545720	5.042374	-0.347074	0.038587	0.312099	-0.141811	-0.038403	-0.627391	-0.730225	-0.233398	-0.883057	0.087705	0.005218	0.050437	0.846693	0.105172	-0.503513	0.136108	4.980842	-61.795989	15.282638
63048		8.806880	0.645447	4.999902	-0.312909	0.106170	0.329668	-0.123074	-0.003994	-0.617022	-0.726074	-0.223389	-0.877441	0.088087	0.006213	0.049997	0.847151	0.106166	-0.503306	0.133216	5.553631	-61.767921	14.550078
63049		8.880585	0.732037	4.996308	-0.285212	0.154798	0.398006	-0.120559	0.042677	-0.606429	-0.731445	-0.239502	-0.877930	0.088838	0.007081	0.049940	0.847711	0.107109	-0.502902	0.130398	6.109606	-61.710527	13.837509
63050		8.918537	0.746535	4.888475	-0.160356	0.165865	0.382477	-0.116407	0.075254	-0.582116	-0.717773	-0.239014	-0.881348	0.089225	0.007234	0.048847	0.848327	0.107988	-0.502365	0.127710	6.635847	-61.632880	13.161171
63051		8.900703	0.763179	4.879748	-0.142390	0.143969	0.364528	-0.100539	0.085067	-0.553550	-0.716309	-0.244873	-0.875732	0.089048	0.007410	0.048756	0.848934	0.108853	-0.501788	0.125186	7.136363	-61.548806	12.523700
63052		8.793920	0.833972	4.789395	-0.115540	0.192107	0.233030	-0.101984	0.102585	-0.525555	-0.712158	-0.248047	-0.887207	0.087985	0.008133	0.047845	0.849561	0.109634	-0.501148	0.122788	7.601276	-61.454174	11.925696
63053		8.726368	0.709862	4.722096	-0.027087	0.056241	0.134552	-0.114899	0.117446	-0.503568	-0.716064	-0.251465	-0.889404	0.087309	0.006906	0.047166	0.850214	0.110291	-0.500463	0.120457	8.029938	-61.350706	11.359551
63054		8.612063	0.619889	4.688829	-0.000140	-0.059168	0.012453	-0.107438	0.132148	-0.471592	-0.710938	-0.247070	-0.886963	0.086166	0.006021	0.046828	0.850874	0.110894	-0.499723	0.118289	8.424288	-61.239446	10.837237
63055		8.561816	0.441913	4.589368	0.137757	-0.228209	-0.092033	-0.127946	0.138948	-0.440158	-0.718018	-0.252686	-0.884033	0.085660	0.004260	0.045831	0.851540	0.111323	-0.498983	0.116205	8.769710	-61.125542	10.356373
63056		8.488580	0.391333	4.596612	0.135568	-0.307589	-0.157383	-0.114404	0.144520	-0.391765	-0.708496	-0.256104	-0.894775	0.084926	0.003773	0.045903	0.852179	0.111687	-0.498235	0.114364	9.069526	-61.011415	9.936236
63057		8.391613	0.354133	4.620450	0.102602	-0.376722	-0.234554	-0.134207	0.148028	-0.343118	-0.705566	-0.252441	-0.890869	0.083956	0.003428	0.046140	0.852807	0.111842	-0.497509	0.112682	9.304964	-60.898871	9.576019
63058		8.255123	0.330227	4.526443	0.140112	-0.396373	-0.401629	-0.161208	0.111654	-0.307551	-0.704102	-0.258301	-0.898193	0.082581	0.003212	0.045216	0.853336	0.111814	-0.496970	0.111065	9.493151	-60.809458	9.252083
63059		8.341475	0.467292	4.320840	0.322468	-0.210216	-0.414814	-0.143511	0.047086	-0.267863	-0.702148	-0.254639	-0.892090	0.083431	0.004592	0.043185	0.853671	0.111798	-0.496719	0.109623	9.660865	-60.759931	8.962755
63060		8.449298	0.541037	4.136603	0.512962	-0.088291	-0.403973	-0.154433	0.034631	-0.234152	-0.712891	-0.251709	-0.895264	0.084506	0.005343	0.041347	0.853961	0.111659	-0.496544	0.108292	9.790015	-60.720227	8.710629
63061		8.427610	0.665929	4.098836	0.504243	0.031367	-0.431148	-0.153927	0.039359	-0.195305	-0.698242	-0.253906	-0.890137	0.084291	0.006609	0.040967	0.854239	0.111422	-0.496370	0.107130	9.878848	-60.681529	8.504671
63062		8.467877	0.654293	4.115407	0.519863	0.012858	-0.389356	-0.173749	0.029724	-0.156287	-0.698975	-0.251465	-0.903809	0.084690	0.006512	0.041136	0.854483	0.111009	-0.496269	0.106080	9.918648	-60.651956	8.341988
63063		8.462682	0.621407	3.975806	0.647255	0.020412	-0.464383	-0.194958	0.039487	-0.124870	-0.702148	-0.246338	-0.901367	0.084639	0.006200	0.039735	0.854745	0.110421	-0.496155	0.105116	9.912723	-60.619991	8.217653
63064		8.240757	0.625226	3.975668	0.543146	0.009999	-0.657808	-0.193041	0.041856	-0.083655	-0.697998	-0.249268	-0.897949	0.082419	0.006256	0.039733	0.854989	0.109737	-0.496051	0.104332	9.866171	-60.590675	8.140891
63065		8.101890	0.498111	3.872385	0.599410	-0.087191	-0.839549	-0.197832	0.004101	-0.057649	-0.697754	-0.250488	-0.902100	0.081021	0.004996	0.038717	0.855127	0.108988	-0.496125	0.103629	9.797294	-60.585354	8.086872
63066		8.092451	0.421628	3.791066	0.681527	-0.133166	-0.893298	-0.169670	-0.039469	-0.026159	-0.696533	-0.254639	-0.904053	0.080918	0.004238	0.037923	0.855125	0.108305	-0.496387	0.103107	9.720700	-60.607657	8.060308
63067		8.116903	0.399110	3.873965	0.625094	-0.172516	-0.833239	-0.146239	-0.072906	-0.002042	-0.697754	-0.239746	-0.904785	0.081155	0.004019	0.038766	0.855014	0.107679	-0.496793	0.102727	9.638866	-60.651257	8.055101
63068		8.213249	0.390541	3.829141	0.702254	-0.156986	-0.770869	-0.133307	-0.098914	0.009973	-0.693359	-0.237549	-0.902588	0.082113	0.003935	0.038329	0.854825	0.107091	-0.497309	0.102417	9.556821	-60.710620	8.058619
63069		8.408620	0.356075	3.881696	0.751784	-0.188382	-0.576965	-0.089045	-0.120133	0.012627	-0.698486	-0.238770	-0.906982	0.084063	0.003583	0.038866	0.854558	0.106697	-0.497894	0.102217	9.500772	-60.782303	8.061424
63070		8.573584	0.414867	3.898314	0.789140	-0.123449	-0.419216	-0.077131	-0.115575	0.016699	-0.706299	-0.250732	-0.896240	0.085713	0.004171	0.039031	0.854293	0.106339	-0.498456	0.102062	9.446560	-60.851718	8.069387
63071		8.700138	0.486605	3.776531	0.919653	-0.009597	-0.360412	-0.052686	-0.104679	0.022719	-0.700684	-0.239746	-0.899902	0.086981	0.004886	0.037810	0.854038	0.106067	-0.498963	0.102004	9.398246	-60.915611	8.087179
63072		8.808258	0.604306	3.793273	0.914065	0.107403	-0.247518	-0.021577	-0.098617	0.029472	-0.704834	-0.247070	-0.898438	0.088063	0.006060	0.037976	0.853778	0.105909	-0.499430	0.102057	9.359915	-60.976708	8.114250
63073		8.814260	0.807580	3.820444	0.826717	0.296359	-0.212279	-0.009450	-0.099903	0.040184	-0.706055	-0.240967	-0.895020	0.088122	0.008095	0.038248	0.853503	0.105776	-0.499903	0.102184	9.317504	-61.039511	8.153592
63074		8.885594	0.826353	3.708359	0.937032	0.352730	-0.200918	-0.008587	-0.118685	0.043828	-0.707031	-0.240723	-0.895996	0.088832	0.008285	0.037136	0.853178	0.105648	-0.500456	0.102320	9.275000	-61.113288	8.193884
63075		8.905747	0.887085	3.651578	0.963139	0.430075	-0.204323	0.004936	-0.136696	0.057751	-0.713379	-0.239258	-0.898438	0.089030	0.008896	0.036577	0.852793	0.105550	-0.501087	0.102538	9.228565	-61.198486	8.247176
63076		8.973104	0.859226	3.679807	0.964101	0.402498	-0.132588	-0.008478	-0.146741	0.067451	-0.708984	-0.244873	-0.898438	0.089701	0.008624	0.036864	0.852385	0.105377	-0.501773	0.102758	9.165937	-61.290292	8.310121
63077		9.006726	0.826931	3.625480	1.016964	0.392738	-0.129684	-0.020083	-0.171158	0.081708	-0.707764	-0.235352	-0.896240	0.090033	0.008310	0.036331	0.851913	0.105130	-0.502576	0.102998	9.085391	-61.397107	8.385853
63078		9.011873	0.775429	3.442211	1.167098	0.399690	-0.213622	-0.017483	-0.189320	0.092318	-0.711426	-0.230225	-0.894775	0.090083	0.007799	0.034507	0.851388	0.104878	-0.503460	0.103279	8.997875	-61.515140	8.471170
63079		9.079463	0.752553	3.281595	1.318758	0.432620	-0.229080	-0.000097	-0.189734	0.109746	-0.723633	-0.236572	-0.893066	0.090759	0.007575	0.032902	0.850843	0.104655	-0.504345	0.103678	8.901273	-61.634855	8.578014
63080		9.091236	0.837952	3.207397	1.340799	0.542031	-0.244587	0.003381	-0.190992	0.129700	-0.718506	-0.234619	-0.888916	0.090876	0.008438	0.032161	0.850282	0.104396	-0.505244	0.104166	8.785098	-61.757069	8.708872
63081		9.114898	0.831950	3.138366	1.389618	0.564349	-0.253750	0.005893	-0.188880	0.132655	-0.718750	-0.230225	-0.880615	0.091114	0.008379	0.031470	0.849722	0.104140	-0.506133	0.104678	8.665743	-61.878092	8.845179
63082		9.197512	0.921984	3.017716	1.481211	0.698157	-0.227833	0.004138	-0.199513	0.149151	-0.723877	-0.231201	-0.889160	0.091938	0.009288	0.030269	0.849125	0.103840	-0.507077	0.105248	8.528573	-62.006589	9.000267
63083		9.331985	1.019207	2.821102	1.657004	0.865542	-0.190398	-0.010087	-0.207957	0.160300	-0.730225	-0.233398	-0.890381	0.093282	0.010268	0.028308	0.848507	0.103456	-0.508068	0.105827	8.371138	-62.140440	9.168986
63084		9.353085	1.016093	2.773926	1.683102	0.888372	-0.190566	-0.033656	-0.191816	0.178059	-0.731201	-0.232910	-0.880615	0.093495	0.010249	0.027827	0.847931	0.102919	-0.509013	0.106427	8.177169	-62.266554	9.363424
63085		9.507844	1.167750	3.777223	0.845039	0.772795	0.420533	0.023016	-0.143026	0.165902	-0.730469	-0.222412	-0.880615	0.095042	0.011752	0.037842	0.847456	0.102626	-0.509712	0.107147	8.019563	-62.363538	9.553381
63086		9.894164	1.283194	5.107841	-0.145944	0.547182	1.381525	-0.028228	-0.040149	0.108771	-0.722656	-0.218994	-0.884521	0.098924	0.012893	0.051096	0.847298	0.102206	-0.509975	0.107545	7.878239	-62.397666	9.691614
63087		10.177429	0.790064	4.958175	0.245257	0.152916	1.532101	-0.162270	0.010911	0.045617	-0.726807	-0.219727	-0.892090	0.101775	0.007964	0.049570	0.847373	0.101353	-0.510059	0.107361	7.720619	-62.397453	9.761647
63088		10.361242	0.035569	4.371379	1.037908	-0.379979	1.378556	-0.029051	0.016168	0.016460	-0.728760	-0.219727	-0.875732	0.103616	0.000371	0.043705	0.847410	0.101131	-0.510036	0.107389	7.670330	-62.392121	9.795760
63089		10.314806	0.243166	5.883906	-0.306536	-0.612346	2.045041	0.213115	0.152969	-0.033711	-0.720459	-0.227051	-0.885742	0.103193	0.002352	0.058763	0.847699	0.101993	-0.509276	0.107898	7.792981	-62.305100	9.792228
63090		10.025616	0.173279	7.014234	-1.343270	-1.033268	2.306320	0.171598	0.229175	-0.119065	-0.715576	-0.229980	-0.887207	0.100337	0.001613	0.070029	0.848247	0.102855	-0.508172	0.107976	7.972236	-62.168355	9.697618
63091		9.531952	-0.611070	6.033041	-0.494689	-1.559525	1.365515	0.170194	0.112605	-0.163978	-0.729492	-0.221924	-0.886475	0.095348	-0.006240	0.060271	0.848523	0.103889	-0.507538	0.107802	8.215130	-62.093714	9.530243
63092		8.893952	-0.755729	5.512505	-0.295205	-1.619289	0.548390	0.300450	0.035148	-0.104468	-0.718018	-0.235107	-0.881348	0.088945	-0.007687	0.055098	0.848500	0.105363	-0.507194	0.108167	8.480285	-62.067774	9.421522
63093		7.919513	-0.374811	5.734025	-1.027959	-1.411989	-0.185239	0.294332	0.108055	-0.018808	-0.715088	-0.229736	-0.888916	0.079226	-0.003840	0.057292	0.848618	0.106557	-0.506586	0.108922	8.638371	-62.007457	9.430547
63094		7.054709	0.106916	6.136360	-1.893931	-1.149429	-0.728246	0.282374	0.053714	0.019460	-0.718994	-0.235352	-0.885498	0.070563	0.000989	0.061346	0.848581	0.107631	-0.506236	0.109776	8.757470	-61.981382	9.475544
63095		7.068479	0.691700	6.045707	-1.981495	-0.579061	-0.717043	0.263579	-0.058660	0.006117	-0.721436	-0.240723	-0.887695	0.070667	0.006839	0.060487	0.848276	0.108722	-0.506363	0.110469	8.898447	-62.017666	9.483993
63096		7.266436	1.497932	5.970076	-2.068861	0.210642	-0.519565	0.205771	-0.038813	-0.035183	-0.717773	-0.236572	-0.875488	0.072655	0.014905	0.059730	0.848074	0.109659	-0.506416	0.110848	9.047141	-62.039142	9.445849
63097		7.453911	2.043476	5.777869	-1.982626	0.787716	-0.401575	0.123144	0.043152	-0.098554	-0.722900	-0.242920	-0.872070	0.074562	0.020362	0.057775	0.848160	0.110363	-0.506131	0.110797	9.202060	-62.008341	9.347399
63098		7.415143	2.486709	5.914962	-2.237085	1.153617	-0.335376	0.042514	0.108699	-0.176990	-0.717041	-0.238525	-0.879883	0.074206	0.024789	0.059115	0.848498	0.110887	-0.505570	0.110244	9.382387	-61.933239	9.167603
63099		7.137028	2.970915	5.861693	-2.447905	1.599866	-0.562224	-0.065122	0.158722	-0.258461	-0.710938	-0.239258	-0.880859	0.071455	0.029636	0.058551	0.849067	0.111132	-0.504809	0.109102	9.577225	-61.821749	8.901448
63100		6.980234	3.291122	5.883948	-2.610342	1.879301	-0.656800	-0.147594	0.157122	-0.329225	-0.719482	-0.241943	-0.876953	0.069903	0.032840	0.058760	0.849713	0.111203	-0.504060	0.107444	9.797693	-61.703909	8.551528
63101		7.302438	3.421398	5.953693	-2.527694	1.999561	-0.321088	-0.225125	0.158657	-0.372057	-0.705811	-0.245605	-0.884521	0.073135	0.034145	0.059440	0.850426	0.111055	-0.503319	0.105416	10.015808	-61.580326	8.154157
63102		7.875072	3.241817	5.905000	-2.133545	1.877041	0.153242	-0.299160	0.167720	-0.396867	-0.707031	-0.253906	-0.886475	0.078864	0.032350	0.058935	0.851210	0.110649	-0.502562	0.103096	10.213189	-61.448457	7.731349
63103		8.698934	2.503346	5.742999	-1.363758	1.269785	0.744204	-0.376785	0.176298	-0.385238	-0.704590	-0.230957	-0.899902	0.087088	0.024974	0.057306	0.852047	0.109878	-0.501811	0.100639	10.349444	-61.312349	7.327256
63104		9.380288	1.464758	5.531935	-0.540657	0.377958	1.155557	-0.406724	0.171254	-0.352940	-0.694336	-0.239014	-0.893799	0.093876	0.014594	0.055209	0.852866	0.108898	-0.501110	0.098234	10.434177	-61.181920	6.961178
63105		9.754731	0.427886	5.661308	-0.158547	-0.630360	1.455221	-0.399400	0.154264	-0.305035	-0.697266	-0.234131	-0.894287	0.097597	0.004243	0.056529	0.853607	0.107839	-0.500501	0.096047	10.475191	-61.065982	6.650058
63106		9.923647	-0.628249	5.731165	0.165898	-1.651906	1.543518	-0.369764	0.103074	-0.232646	-0.686279	-0.236816	-0.898926	0.099259	-0.006292	0.057272	0.854165	0.106746	-0.500132	0.094209	10.468248	-60.986241	6.412061
63107		9.828478	-1.273435	5.438867	0.540559	-2.193221	1.264292	-0.265429	0.036157	-0.135590	-0.701904	-0.233398	-0.896240	0.098286	-0.012729	0.054388	0.854450	0.105890	-0.500049	0.093017	10.434405	-60.954471	6.273881
63108		9.600139	-1.338424	5.168133	0.670539	-2.191173	0.930347	-0.131935	-0.022292	-0.042632	-0.704346	-0.240723	-0.904785	0.095993	-0.013371	0.051701	0.854475	0.105398	-0.500203	0.092520	10.393813	-60.965203	6.230364
63109		9.190646	-1.066855	5.100068	0.453104	-1.928752	0.564762	-0.055991	-0.022352	0.039120	-0.698730	-0.240479	-0.899414	0.091903	-0.010636	0.051014	0.854421	0.105027	-0.500365	0.092567	10.313482	-60.984514	6.282589
63110		8.734604	-0.615595	4.993814	0.196876	-1.483188	0.155854	-0.007008	-0.053390	0.096641	-0.693848	-0.235107	-0.893311	0.087336	-0.006112	0.049962	0.854237	0.104736	-0.500666	0.092966	10.208512	-61.027080	6.395073
63111		8.621782	-0.148605	4.975461	0.023748	-1.026956	0.089696	0.007224	-0.111313	0.138470	-0.701416	-0.234375	-0.897705	0.086191	-0.001428	0.049803	0.853880	0.104428	-0.501230	0.093549	10.078974	-61.106498	6.544862
63112		8.497598	0.207698	4.831257	-0.025160	-0.641391	-0.056596	-0.030256	-0.131592	0.165482	-0.703613	-0.218994	-0.904053	0.084942	0.002155	0.048368	0.853479	0.103901	-0.501912	0.094141	9.903194	-61.199782	6.722606
63113		8.422453	0.421326	4.789235	-0.099332	-0.414965	-0.124040	-0.081207	-0.117189	0.169773	-0.698242	-0.236084	-0.899658	0.084193	0.004304	0.047940	0.853137	0.103140	-0.502557	0.094632	9.689999	-61.285129	6.909774
63114		8.336506	0.715772	4.722044	-0.177538	-0.102024	-0.207199	-0.136447	-0.096455	0.163878	-0.694336	-0.230713	-0.899902	0.083336	0.007258	0.047256	0.852878	0.102144	-0.503137	0.094965	9.446481	-61.357741	7.094639
63115		8.139263	1.012653	4.668298	-0.318581	0.205000	-0.382814	-0.205916	-0.085832	0.142147	-0.697998	-0.224609	-0.895752	0.081365	0.010232	0.046707	0.852689	0.100905	-0.503693	0.095041	9.182821	-61.422037	7.257635
63116		7.991308	1.121130	4.527167	-0.311245	0.358019	-0.572120	-0.278381	-0.088436	0.108382	-0.715088	-0.221924	-0.900391	0.079887	0.011318	0.045291	0.852545	0.099442	-0.504275	0.094787	8.912352	-61.484286	7.380783
63117		7.985377	1.078137	4.528787	-0.315786	0.336516	-0.580920	-0.356094	-0.088179	0.077788	-0.708252	-0.215088	-0.895264	0.079830	0.010893	0.045304	0.852452	0.097726	-0.504877	0.094209	8.628327	-61.543543	7.468861
63118		8.147138	0.922943	4.431321	-0.127882	0.244452	-0.496673	-0.425328	-0.077641	0.053943	-0.708252	-0.209229	-0.897217	0.081452	0.009346	0.044325	0.852427	0.095767	-0.505453	0.093356	8.327282	-61.594538	7.530792
63119		8.215273	0.768894	4.374042	-0.017488	0.137441	-0.474866	-0.458906	-0.056746	0.034183	-0.705322	-0.209717	-0.903076	0.082139	0.007803	0.043746	0.852475	0.093707	-0.505943	0.092346	8.023917	-61.631977	7.573812
63120		8.232787	0.446605	4.207550	0.205176	-0.107598	-0.559147	-0.490014	-0.024423	0.028617	-0.709473	-0.205322	-0.905518	0.082322	0.004581	0.042074	0.852618	0.091511	-0.506304	0.091245	7.703542	-61.650420	7.615456
63121		8.237520	0.104579	4.045890	0.423840	-0.375090	-0.652091	-0.467408	0.015580	0.031018	-0.711914	-0.197266	-0.905762	0.082378	0.001153	0.040450	0.852844	0.089388	-0.506482	0.090232	7.387737	-61.646312	7.667063
63122		8.066441	-0.165186	4.048259	0.404731	-0.625435	-0.816680	-0.431467	0.057788	0.040131	-0.706787	-0.189697	-0.908203	0.080676	-0.001548	0.040463	0.853154	0.087374	-0.506466	0.089365	7.077430	-61.618641	7.735409
63123		7.991210	-0.452304	4.067962	0.421716	-0.891712	-0.888602	-0.378602	0.084233	0.044489	-0.715576	-0.184082	-0.903809	0.079930	-0.004428	0.040654	0.853501	0.085564	-0.506313	0.088664	6.789737	-61.576156	7.812926
63124		8.051221	-0.751840	3.955014	0.619043	-1.132404	-0.904041	-0.296991	0.099433	0.048493	-0.714600	-0.190430	-0.906494	0.080534	-0.007440	0.039521	0.853849	0.084082	-0.506059	0.088188	6.543164	-61.525054	7.896099
63125		8.173539	-0.866609	3.928308	0.730807	-1.213129	-0.813600	-0.221154	0.120566	0.044623	-0.704590	-0.188721	-0.914063	0.081761	-0.008604	0.039243	0.854216	0.082927	-0.505679	0.087902	6.342209	-61.461577	7.977645
63126		8.342920	-1.116296	3.895992	0.904079	-1.423089	-0.692017	-0.147880	0.139869	0.039506	-0.709961	-0.186523	-0.920166	0.083459	-0.011118	0.038910	0.854604	0.082089	-0.505181	0.087785	6.186960	-61.386597	8.054865
63127		8.534641	-1.268044	3.841858	1.085302	-1.533642	-0.556449	-0.071486	0.131371	0.051892	-0.711426	-0.184082	-0.911377	0.085375	-0.012645	0.038367	0.854932	0.081550	-0.504690	0.087912	6.064032	-61.317195	8.145324
63128		8.528218	-1.307576	3.682559	1.235779	-1.527080	-0.639773	0.005904	0.111953	0.049874	-0.703125	-0.177490	-0.915283	0.085306	-0.013056	0.036777	0.855180	0.081355	-0.504248	0.088217	5.990010	-61.258616	8.230386
63129		8.486785	-1.302718	3.633681	1.264688	-1.508111	-0.699379	0.091661	0.079334	0.057243	-0.699219	-0.173584	-0.923340	0.084886	-0.013020	0.036297	0.855308	0.081523	-0.503910	0.088757	5.961360	-61.219073	8.320028
63130		8.484929	-1.197539	3.612792	1.264137	-1.398200	-0.706240	0.166992	0.057475	0.059358	-0.710693	-0.187744	-0.919434	0.084863	-0.011980	0.036094	0.855349	0.082013	-0.503632	0.089481	5.975846	-61.192043	8.408744
63131		8.471085	-1.033584	3.419504	1.387826	-1.195658	-0.803530	0.260392	0.006408	0.058766	-0.708984	-0.190674	-0.917236	0.084715	-0.010355	0.034179	0.855221	0.082931	-0.503531	0.090423	6.050355	-61.194173	8.491026
63132		8.443531	-0.770546	3.244655	1.462049	-0.905469	-0.898806	0.353584	-0.035428	0.060056	-0.710449	-0.181396	-0.914307	0.084432	-0.007737	0.032448	0.854946	0.084264	-0.503565	0.091590	6.181348	-61.220310	8.570126
63133		8.366330	-0.530530	3.219128	1.388009	-0.679248	-0.966684	0.421905	-0.069303	0.060291	-0.708496	-0.191650	-0.908691	0.083654	-0.005348	0.032209	0.854554	0.085903	-0.503711	0.092913	6.355315	-61.265832	8.644479
63134		8.397059	-0.243149	3.394316	1.180259	-0.451337	-0.840821	0.481332	-0.100684	0.054627	-0.709229	-0.195068	-0.916016	0.083954	-0.002490	0.033979	0.854056	0.087824	-0.503959	0.094348	6.572711	-61.329051	8.708001
63135		8.521248	-0.005900	3.540360	1.049964	-0.262823	-0.648936	0.503721	-0.125227	0.043088	-0.711182	-0.201172	-0.911133	0.085190	-0.000130	0.035457	0.853486	0.089881	-0.504292	0.095778	6.818615	-61.405513	8.753714
63136		8.757554	0.277952	3.760082	0.895473	-0.043386	-0.320246	0.502759	-0.129649	0.032177	-0.708008	-0.200439	-0.904297	0.087551	0.002699	0.037664	0.852904	0.091962	-0.504637	0.097158	7.076099	-61.483892	8.785624
63137		8.916575	0.468741	3.997400	0.712998	0.073352	-0.056128	0.454847	-0.094031	0.011859	-0.712646	-0.205566	-0.901123	0.089147	0.004602	0.040026	0.852439	0.093873	-0.504840	0.098344	7.323583	-61.540568	8.797616
63138		8.996765	0.463694	4.183828	0.589425	0.008184	0.102639	0.371365	-0.071683	-0.010081	-0.712402	-0.216064	-0.909668	0.089953	0.004555	0.041879	0.852077	0.095471	-0.504977	0.099238	7.543239	-61.583051	8.786827
63139		8.933088	0.455128	4.279238	0.478012	-0.046323	0.091272	0.282308	-0.052820	-0.041807	-0.712646	-0.217041	-0.895020	0.089321	0.004472	0.042822	0.851818	0.096761	-0.505061	0.099779	7.743188	-61.612278	8.740464
63140		8.804709	0.325845	4.096040	0.603230	-0.146485	-0.116231	0.209336	-0.071211	-0.063263	-0.712158	-0.222900	-0.895996	0.088034	0.003188	0.040995	0.851557	0.097804	-0.505249	0.100038	7.926500	-61.650301	8.665700
63141		8.789414	0.408246	3.754058	0.855216	0.007606	-0.284731	0.201772	-0.124319	-0.078621	-0.714600	-0.214844	-0.890137	0.087872	0.004010	0.037599	0.851173	0.098880	-0.505658	0.100184	8.130198	-61.716997	8.562700
63142		8.913838	0.563190	3.427028	1.136397	0.236400	-0.316852	0.226409	-0.157878	-0.077054	-0.726074	-0.226074	-0.889648	0.089113	0.005559	0.034347	0.850689	0.100071	-0.506199	0.100382	8.351888	-61.802822	8.455168
63143		9.056920	0.714900	3.125078	1.402884	0.456206	-0.319072	0.281919	-0.178581	-0.061018	-0.714355	-0.222168	-0.895996	0.090543	0.007077	0.031342	0.850115	0.101470	-0.506806	0.100778	8.593028	-61.901374	8.361946
63144		9.182470	0.806895	2.888712	1.619936	0.600259	-0.308533	0.315930	-0.185011	-0.043341	-0.721191	-0.230225	-0.889404	0.091800	0.008003	0.028985	0.849495	0.102970	-0.507431	0.101332	8.836692	-62.005108	8.287834
63145		9.405641	0.664464	2.608523	1.982692	0.539818	-0.247674	0.367693	-0.187604	-0.025473	-0.715332	-0.233643	-0.882568	0.094033	0.006585	0.026186	0.848831	0.104647	-0.508047	0.102091	9.092878	-62.111559	8.233389
63146		9.556412	0.356218	2.530153	2.189213	0.261632	-0.169429	0.382710	-0.169126	-0.006548	-0.723633	-0.231934	-0.881348	0.095543	0.003511	0.025389	0.848192	0.106329	-0.508587	0.102979	9.334980	-62.209404	8.204594
63147		9.666649	-0.104236	2.347007	2.512186	-0.132395	-0.187991	0.411597	-0.136016	-0.003978	-0.715088	-0.235596	-0.872803	0.096650	-0.001093	0.023534	0.847617	0.108110	-0.508969	0.103967	9.586137	-62.288498	8.184353
63148		9.964105	-0.742508	2.093239	3.035409	-0.660647	-0.088173	0.462948	-0.152558	0.008888	-0.725098	-0.236084	-0.881836	0.099625	-0.007469	0.020991	0.846960	0.110082	-0.509400	0.105131	9.856283	-62.378436	8.175642
63149		10.470441	-1.292264	2.144203	3.373839	-1.177763	0.342496	0.570414	-0.207676	0.037157	-0.727051	-0.251709	-0.867676	0.104684	-0.012964	0.021514	0.846083	0.112468	-0.510018	0.106658	10.169248	-62.501967	8.188360
63150		11.077250	-1.067260	3.552095	2.394924	-1.359505	1.539755	0.716091	-0.147219	0.076033	-0.722900	-0.255615	-0.874268	0.110750	-0.010758	0.035564	0.845247	0.115335	-0.510322	0.108754	10.512415	-62.595840	8.260924
63151		11.338755	-0.610320	4.042857	1.964457	-1.073895	2.030969	0.665166	-0.035971	0.105858	-0.722900	-0.254150	-0.869629	0.113384	-0.006178	0.040428	0.844699	0.117851	-0.510191	0.110908	10.772463	-62.630010	8.394360
63152		11.343034	-0.432138	3.380765	2.466162	-0.708338	1.750056	0.690441	-0.049781	0.131347	-0.739014	-0.260010	-0.856689	0.113425	-0.004364	0.033821	0.844075	0.120413	-0.510116	0.113226	11.021759	-62.675338	8.555967
63153		11.485011	0.344325	4.124060	1.662684	-0.212308	2.279553	0.738861	-0.073472	0.162774	-0.740479	-0.273193	-0.864014	0.114832	0.003384	0.041295	0.843334	0.123113	-0.510123	0.115783	11.270184	-62.737431	8.749883
63154		11.117858	1.019285	5.642143	0.017823	-0.107243	2.696016	0.573651	0.102653	0.176357	-0.731689	-0.269043	-0.859131	0.111199	0.010129	0.056393	0.843123	0.124977	-0.509490	0.118086	11.370548	-62.703050	9.004053
63155		10.334641	1.289738	6.388911	-1.033663	-0.162089	2.360712	0.429726	0.141294	0.185701	-0.732178	-0.272949	-0.855713	0.103380	0.012856	0.063844	0.843091	0.126188	-0.508776	0.120083	11.370676	-62.647444	9.278139
63156		9.981773	2.069707	6.809822	-1.801639	0.393205	2.307238	0.510550	-0.070009	0.220408	-0.738525	-0.284912	-0.848877	0.099771	0.020633	0.068186	0.842442	0.127776	-0.508927	0.122299	11.425034	-62.715059	9.543267
63157		10.061577	3.063727	7.722939	-2.875349	1.001428	2.875691	0.482521	-0.127740	0.245195	-0.734131	-0.275879	-0.849609	0.100529	0.030574	0.077367	0.841645	0.129218	-0.509347	0.124508	11.448806	-62.817443	9.824556
63158		9.612963	3.484730	7.753309	-3.267245	1.339683	2.524109	0.293814	0.001579	0.282073	-0.728271	-0.282715	-0.847168	0.096081	0.034869	0.077584	0.841268	0.129693	-0.509363	0.126480	11.294359	-62.851760	10.184988
63159		8.576149	3.535450	6.848070	-3.019632	1.622760	1.196139	0.214965	0.006161	0.315567	-0.739014	-0.274414	-0.847412	0.085708	0.035416	0.068516	0.840932	0.129746	-0.509427	0.128389	11.056604	-62.886106	10.587629
63160		7.522190	3.085289	6.570410	-3.123265	1.219997	0.088294	0.184051	-0.040566	0.322496	-0.740234	-0.283936	-0.849609	0.075159	0.030914	0.065748	0.840488	0.129680	-0.509711	0.130221	10.802074	-62.947060	10.989236
63161		6.822152	2.119510	6.065216	-2.697784	0.445893	-0.849204	0.136462	-0.052750	0.341180	-0.740723	-0.278809	-0.843994	0.068169	0.021270	0.060685	0.840030	0.129375	-0.510086	0.131998	10.500952	-63.015610	11.412114
63162		6.255464	1.242199	5.700700	-2.352850	-0.282430	-1.593430	0.153954	-0.022689	0.354488	-0.740479	-0.278320	-0.843750	0.062526	0.012489	0.057024	0.839624	0.129090	-0.510331	0.133900	10.187129	-63.067832	11.860768
63163		5.943568	0.407053	5.456357	-1.999123	-0.991088	-2.048361	0.183719	0.035705	0.347582	-0.743896	-0.274658	-0.845215	0.059438	0.004124	0.054557	0.839351	0.128907	-0.510304	0.135881	9.885602	-63.085049	12.314111
63164		6.002305	-0.294561	5.277508	-1.574236	-1.564717	-2.128941	0.257215	0.053073	0.324677	-0.736328	-0.274658	-0.844482	0.060042	-0.002916	0.052755	0.839085	0.129079	-0.510137	0.137968	9.647691	-63.089461	12.743622
63165		6.668952	-0.777847	5.361784	-1.168533	-1.971483	-1.531595	0.376629	0.059593	0.293196	-0.734375	-0.278320	-0.847412	0.066717	-0.007782	0.053583	0.838778	0.129826	-0.509837	0.140227	9.512282	-63.086361	13.134579
63166		7.580462	-0.837481	5.292995	-0.679581	-1.905943	-0.752548	0.412740	0.065916	0.242688	-0.739746	-0.277344	-0.831055	0.075832	-0.008392	0.052888	0.838493	0.130848	-0.509449	0.142373	9.452340	-63.074679	13.464372
63167		8.568454	-0.518815	5.388200	-0.431872	-1.544286	0.194756	0.468312	0.025410	0.175991	-0.739258	-0.282471	-0.836670	0.085696	-0.005239	0.053859	0.838111	0.132301	-0.509145	0.144351	9.506417	-63.079526	13.701763
63168		9.622165	0.233218	5.670173	-0.474940	-0.853250	1.315550	0.493766	-0.005186	0.082143	-0.743408	-0.282715	-0.829102	0.096219	0.002232	0.056710	0.837696	0.134123	-0.508885	0.145984	9.684759	-63.093037	13.816670
63169		10.562778	0.917075	5.187563	0.073405	0.037392	1.990587	0.470601	-0.037781	0.003803	-0.740723	-0.290039	-0.833740	0.105618	0.009051	0.051917	0.837268	0.136068	-0.508724	0.147202	9.943777	-63.117371	13.825677
63170		10.874925	1.807755	4.868897	0.125970	0.983167	2.197956	0.483230	-0.044428	-0.047337	-0.741699	-0.289551	-0.833252	0.108743	0.017934	0.048757	0.836845	0.138202	-0.508543	0.148238	10.268022	-63.140421	13.770180
63171		10.448762	2.589008	5.123314	-0.568041	1.528154	1.997052	0.416037	0.040033	-0.073543	-0.736572	-0.290039	-0.836670	0.104507	0.025745	0.051266	0.836701	0.140056	-0.508037	0.149046	10.566378	-63.112934	13.700037
63172		9.490655	2.841028	5.008562	-0.987151	1.675990	1.116458	0.304635	0.058376	-0.097821	-0.743408	-0.308350	-0.828369	0.094935	0.028288	0.050101	0.836695	0.141491	-0.507520	0.149484	10.823158	-63.072445	13.604995
63173		8.723923	2.987911	4.845928	-1.247539	1.767862	0.377294	0.312767	-0.043822	-0.102805	-0.739014	-0.307129	-0.829346	0.087244	0.029758	0.048525	0.836426	0.143050	-0.507419	0.149847	11.112116	-63.088634	13.479004
63174		8.253033	3.061437	4.710012	-1.377772	1.812725	-0.092354	0.280097	-0.090089	-0.106934	-0.743164	-0.312500	-0.824463	0.082525	0.030504	0.047180	0.836063	0.144520	-0.507531	0.150082	11.397182	-63.130142	13.337214
63175		7.941280	2.830174	4.514423	-1.270202	1.622966	-0.474253	0.199639	-0.090633	-0.112504	-0.746582	-0.309814	-0.824463	0.079408	0.028212	0.045208	0.835761	0.145664	-0.507701	0.150083	11.643304	-63.170950	13.186664
63176		7.718534	2.535539	4.304879	-1.085313	1.394030	-0.789636	0.184384	-0.079258	-0.125099	-0.748047	-0.314209	-0.823242	0.077184	0.025267	0.043103	0.835506	0.146771	-0.507825	0.150006	11.892421	-63.203660	13.023703
63177		7.670769	2.294602	4.333424	-1.033483	1.139695	-0.839536	0.142131	-0.045218	-0.142704	-0.739014	-0.315430	-0.828613	0.076714	0.022860	0.043368	0.835382	0.147718	-0.507825	0.149768	12.129418	-63.214832	12.846541
63178		7.613483	2.252083	4.325874	-1.031233	1.081899	-0.895501	0.103753	0.013707	-0.172440	-0.742676	-0.319336	-0.823486	0.076157	0.022433	0.043265	0.835456	0.148538	-0.507585	0.149356	12.363145	-63.189086	12.648936
63179		7.679869	2.139568	4.260669	-0.894291	0.996830	-0.873001	0.080796	0.066816	-0.211376	-0.748291	-0.312500	-0.827148	0.076835	0.021297	0.042590	0.835711	0.149319	-0.507111	0.148757	12.613315	-63.128412	12.417545
63180		7.711007	2.042539	4.324872	-0.878987	0.869802	-0.823422	0.063801	0.073606	-0.252036	-0.744873	-0.325684	-0.827637	0.077152	0.020314	0.043227	0.836025	0.150128	-0.506590	0.147954	12.895632	-63.058322	12.139458
63181		7.728026	1.962590	4.189440	-0.716445	0.834421	-0.873115	0.041252	0.029426	-0.292106	-0.738770	-0.323242	-0.822021	0.077315	0.019504	0.041887	0.836272	0.150975	-0.506240	0.146890	13.218898	-63.007033	11.800374
63182		7.963129	1.946580	4.070872	-0.497305	0.868387	-0.714823	0.009804	0.011368	-0.316077	-0.731445	-0.327881	-0.821777	0.079664	0.019338	0.040705	0.836512	0.151767	-0.505968	0.145636	13.553880	-62.961734	11.428396
63183		8.090487	2.051926	4.022050	-0.427663	0.975232	-0.608926	-0.062168	0.056209	-0.341505	-0.731201	-0.323486	-0.825684	0.080951	0.020394	0.040191	0.836938	0.152287	-0.505542	0.144123	13.862003	-62.887086	11.039443
63184		8.006910	2.182283	3.971879	-0.456177	1.090863	-0.688508	-0.159195	0.099616	-0.347903	-0.728760	-0.327637	-0.827393	0.080127	0.021715	0.039662	0.837548	0.152387	-0.504996	0.142373	14.107809	-62.786536	10.658188
63185		7.929668	2.217570	3.861837	-0.393657	1.149592	-0.799672	-0.263205	0.109965	-0.350971	-0.733643	-0.332520	-0.829102	0.079357	0.022087	0.038546	0.838263	0.152049	-0.504478	0.140352	14.292193	-62.679181	10.278190
63186		7.899092	2.281698	3.826244	-0.379535	1.213716	-0.833559	-0.337125	0.133153	-0.340036	-0.722412	-0.326172	-0.833008	0.079055	0.022747	0.038171	0.839080	0.151359	-0.503918	0.138211	14.414102	-62.560016	9.920986
63187		7.783716	2.319119	3.767363	-0.374368	1.260588	-0.956713	-0.426240	0.122023	-0.324856	-0.723877	-0.324219	-0.829102	0.077898	0.023145	0.037577	0.839920	0.150261	-0.503476	0.135896	14.469768	-62.448969	9.580004
63188		7.857022	2.206149	3.526542	-0.082200	1.257669	-1.012240	-0.486541	0.080161	-0.304662	-0.731201	-0.321289	-0.835693	0.078618	0.022027	0.035180	0.840680	0.148889	-0.503261	0.133484	14.479719	-62.363912	9.251638
63189		7.845750	2.249553	3.336204	0.068415	1.372567	-1.103044	-0.528561	0.045022	-0.280582	-0.721191	-0.323975	-0.838623	0.078497	0.022473	0.033285	0.841359	0.147299	-0.503237	0.131038	14.448645	-62.301859	8.941866
63190		7.849036	2.202268	3.158777	0.245811	1.400419	-1.186355	-0.573496	0.003244	-0.253036	-0.721191	-0.322266	-0.842285	0.078519	0.022014	0.031523	0.841940	0.145479	-0.503432	0.128564	14.373878	-62.267032	8.652610
63191		7.702868	2.177542	3.057471	0.280723	1.410434	-1.365448	-0.599715	-0.035822	-0.224203	-0.728027	-0.314209	-0.841553	0.077048	0.021781	0.030523	0.842415	0.143498	-0.503825	0.126114	14.263782	-62.258214	8.385858
63192		7.616249	2.202716	3.016866	0.271167	1.448369	-1.458683	-0.604293	-0.104687	-0.206566	-0.719727	-0.310547	-0.845459	0.076169	0.022040	0.030142	0.842700	0.141497	-0.504518	0.123679	14.151352	-62.290351	8.119248
63193		7.640621	2.189017	3.107484	0.214253	1.409628	-1.398748	-0.632361	-0.166325	-0.196641	-0.725098	-0.299316	-0.849609	0.076402	0.021913	0.031069	0.842834	0.139387	-0.505490	0.121167	14.028738	-62.358397	7.845661
63194		7.631842	2.011434	3.177511	0.209850	1.224548	-1.395805	-0.685580	-0.220119	-0.187237	-0.728027	-0.302979	-0.845459	0.076302	0.020152	0.031790	0.842853	0.137061	-0.506721	0.118521	13.880745	-62.457930	7.566530
63195		7.777455	1.759854	3.181856	0.347955	1.002925	-1.293113	-0.713194	-0.276234	-0.177791	-0.724854	-0.292236	-0.853027	0.077746	0.017643	0.031863	0.842730	0.134625	-0.508204	0.115805	13.721942	-62.590347	7.282029
63196		8.060454	1.505985	3.379904	0.382264	0.719585	-0.981000	-0.709391	-0.287357	-0.155338	-0.734131	-0.291016	-0.843750	0.080568	0.015117	0.033861	0.842551	0.132153	-0.509739	0.113183	13.545210	-62.732363	7.020626
63197		8.243099	1.281695	3.600808	0.335391	0.452789	-0.744077	-0.707097	-0.286566	-0.124403	-0.735107	-0.284668	-0.854980	0.082387	0.012893	0.036081	0.842341	0.129609	-0.511281	0.110697	13.336104	-62.878471	6.797329
63198		8.333793	1.153401	3.715742	0.298302	0.308881	-0.625483	-0.659146	-0.302306	-0.090980	-0.734863	-0.286377	-0.848877	0.083287	0.011619	0.037245	0.842030	0.127189	-0.512878	0.108462	13.122723	-63.038145	6.610121
63199		8.455346	0.975531	3.638215	0.447183	0.182590	-0.568891	-0.581151	-0.307041	-0.052505	-0.728760	-0.277832	-0.847168	0.084500	0.009839	0.036483	0.841626	0.124999	-0.514471	0.106586	12.912400	-63.205712	6.469719
63200		8.507219	0.634314	3.559575	0.613986	-0.102556	-0.589990	-0.494480	-0.278522	-0.004700	-0.736328	-0.269287	-0.838135	0.085023	0.006429	0.035698	0.841207	0.123037	-0.515922	0.105151	12.691708	-63.363623	6.397117
63201		8.557417	0.320676	3.205139	1.000356	-0.275548	-0.728172	-0.449936	-0.313932	0.042881	-0.729980	-0.262451	-0.839355	0.085523	0.003297	0.032178	0.840638	0.121154	-0.517524	0.104007	12.450717	-63.547428	6.375444
63202		8.584345	0.100796	2.651957	1.511319	-0.302070	-0.960650	-0.402359	-0.369262	0.083159	-0.745361	-0.256836	-0.852539	0.085794	0.001097	0.026676	0.839870	0.119396	-0.519355	0.103121	12.204166	-63.767218	6.390487
63203		8.626345	0.065166	2.341896	1.765002	-0.231067	-1.052905	-0.382060	-0.406495	0.108497	-0.748047	-0.255127	-0.849609	0.086215	0.000743	0.023593	0.838973	0.117674	-0.521342	0.102372	11.946823	-64.010825	6.430417
63204		8.666216	0.307464	2.190367	1.798904	0.054498	-1.051616	-0.380049	-0.445257	0.120434	-0.747559	-0.253418	-0.845947	0.086611	0.003169	0.022091	0.837960	0.115948	-0.523494	0.101650	11.683831	-64.277518	6.477437
63205		8.761603	0.691524	1.940655	1.897992	0.505886	-1.029091	-0.386962	-0.486851	0.109389	-0.752441	-0.238770	-0.832520	0.087565	0.007001	0.019606	0.836840	0.114242	-0.525812	0.100843	11.436473	-64.566167	6.503005
63206		9.052892	1.140629	1.656042	2.090936	1.035246	-0.837475	-0.365960	-0.539458	0.081697	-0.763672	-0.239014	-0.837402	0.090479	0.011474	0.016784	0.835575	0.112722	-0.528319	0.099941	11.244353	-64.881312	6.480414
63207		9.453301	1.830110	1.580833	2.080854	1.732903	-0.438246	-0.354720	-0.543891	0.039968	-0.759766	-0.241943	-0.831787	0.094486	0.018348	0.016033	0.834303	0.111360	-0.530808	0.098894	11.108094	-65.194233	6.403681
63208		10.040259	2.449255	1.751546	1.959856	2.296485	0.225168	-0.373710	-0.496085	-0.032901	-0.759033	-0.234131	-0.831787	0.100363	0.024509	0.017719	0.833196	0.110089	-0.533063	0.097515	11.038948	-65.472482	6.241099
63209		11.014487	2.904787	3.401051	0.772119	2.292986	1.826464	-0.349592	-0.328040	-0.142947	-0.765137	-0.240967	-0.817627	0.110110	0.029029	0.034140	0.832571	0.109128	-0.534539	0.095837	11.080018	-65.643988	5.973129
63210		11.741278	3.030234	4.240599	0.296912	2.203488	2.839549	-0.715433	-0.111495	-0.239479	-0.766846	-0.233398	-0.822998	0.117425	0.030313	0.042363	0.832761	0.106799	-0.535233	0.092894	10.980785	-65.683373	5.629357
63211		11.803314	2.106918	2.827423	1.809558	1.713868	2.251300	-1.002663	-0.125058	-0.279377	-0.767578	-0.217285	-0.830566	0.118045	0.021046	0.028242	0.833070	0.103383	-0.536082	0.089009	10.769561	-65.726275	5.227965
63212		11.705495	1.263471	3.418552	1.473998	0.735745	2.335871	-0.724244	-0.099807	-0.276592	-0.771240	-0.208252	-0.832031	0.117055	0.012597	0.034198	0.833282	0.101105	-0.536695	0.085889	10.709525	-65.755892	4.835542
63213		11.422688	1.649190	7.614708	-2.404571	0.010260	3.803451	-0.622192	0.166703	-0.329064	-0.770508	-0.208496	-0.826172	0.114317	0.016540	0.076000	0.834170	0.099278	-0.536117	0.082962	10.708971	-65.629726	4.442149
63214		11.702377	1.049040	9.234309	-3.534409	-0.943066	4.676513	-0.949570	0.198637	-0.477291	-0.761230	-0.210693	-0.833252	0.117141	0.010649	0.092176	0.835349	0.096465	-0.535459	0.078546	10.695104	-65.470114	3.856037
63215		12.584750	-1.530799	7.400760	-0.948800	-2.953978	4.535283	-0.889082	-0.075090	-0.583179	-0.762939	-0.198242	-0.833984	0.125775	-0.015345	0.074123	0.835785	0.094295	-0.535852	0.073722	10.907495	-65.452486	3.059736
63216		12.753485	-3.265805	6.319374	0.439652	-4.406855	4.102680	-0.503978	-0.063601	-0.554818	-0.752441	-0.196777	-0.843018	0.127424	-0.032852	0.063317	0.836041	0.093652	-0.536058	0.070048	11.302607	-65.429923	2.304502
63217		10.594046	-2.857776	6.328576	-0.562381	-4.077715	2.166774	-0.378849	0.151017	-0.411355	-0.767578	-0.197510	-0.840088	0.105929	-0.028676	0.063260	0.836754	0.093071	-0.535383	0.067413	11.537315	-65.301232	1.804653
63218		7.899294	-2.326003	6.327726	-1.795334	-3.608745	-0.241743	-0.151895	0.064750	-0.276682	-0.758789	-0.193848	-0.832031	0.078981	-0.023321	0.063269	0.837081	0.093105	-0.535054	0.065902	11.756784	-65.235825	1.463466
63219		6.725809	-0.801451	6.333707	-2.615702	-2.155731	-1.181029	0.161905	-0.171803	-0.212134	-0.755127	-0.207520	-0.841797	0.067195	-0.008137	0.063388	0.836606	0.094361	-0.535639	0.065398	12.137447	-65.309808	1.143662
63220		6.952622	0.710544	6.197269	-2.730135	-0.678405	-0.905611	0.218249	-0.206197	-0.210432	-0.759033	-0.211670	-0.845459	0.069470	0.006965	0.062052	0.836010	0.095856	-0.536349	0.065030	12.559964	-65.402404	0.812924
63221		7.255263	1.636158	5.587593	-2.267319	0.338027	-0.797034	0.093771	-0.050040	-0.243959	-0.755371	-0.205322	-0.840088	0.072559	0.016247	0.055902	0.835900	0.096873	-0.536429	0.064267	12.910779	-65.402471	0.483344
63222		7.425870	2.319028	5.143837	-1.942765	1.086679	-0.755908	-0.054003	0.041077	-0.273710	-0.761475	-0.210693	-0.841064	0.074301	0.023102	0.051417	0.836115	0.097319	-0.536161	0.063023	13.187263	-65.347083	0.141665
63223		7.783605	2.840796	5.090944	-1.843095	1.595964	-0.398432	-0.220302	0.056436	-0.280067	-0.759033	-0.210938	-0.843262	0.077890	0.028355	0.050856	0.836452	0.097085	-0.535876	0.061319	13.370222	-65.281722	-0.201459
63224		8.068721	2.947043	5.149466	-1.778734	1.684764	-0.101665	-0.394476	0.096959	-0.254978	-0.757324	-0.206543	-0.848389	0.080750	0.029469	0.051397	0.836971	0.096040	-0.535485	0.059267	13.410350	-65.196803	-0.498061
63225		8.406953	2.602567	5.151549	-1.550936	1.356117	0.174514	-0.499147	0.027647	-0.208471	-0.760742	-0.202148	-0.837646	0.084104	0.026066	0.051439	0.837334	0.094455	-0.535433	0.057102	13.353302	-65.156725	-0.753156
63226		9.271804	2.145766	5.280874	-1.206128	0.890914	0.967377	-0.534363	-0.100159	-0.157425	-0.760254	-0.201904	-0.839600	0.092709	0.021526	0.052798	0.837352	0.092618	-0.535947	0.054987	13.251421	-65.194729	-0.981942
63227		10.109995	1.394069	5.240400	-0.680063	0.175962	1.638240	-0.592647	-0.112908	-0.126047	-0.756104	-0.195068	-0.845947	0.101079	0.014032	0.052420	0.837346	0.090459	-0.536540	0.052849	13.081708	-65.244227	-1.171862
63228		10.591311	0.634679	5.096540	-0.215788	-0.522378	1.944606	-0.572742	-0.028327	-0.108513	-0.755859	-0.194092	-0.844971	0.105909	0.006435	0.050962	0.837547	0.088311	-0.536776	0.050869	12.878821	-65.248924	-1.313428
63229		10.462920	-0.237152	5.013986	-0.040466	-1.337554	1.714596	-0.570453	0.055769	-0.074885	-0.747803	-0.184326	-0.844482	0.104642	-0.002268	0.050117	0.837956	0.086062	-0.536670	0.049079	12.612943	-65.211209	-1.383419
63230		9.850560	-0.925014	4.576007	0.211903	-1.899560	0.919311	-0.441403	0.035292	-0.035955	-0.756104	-0.182861	-0.842285	0.098512	-0.009167	0.045763	0.838239	0.084251	-0.536632	0.047782	12.379961	-65.189790	-1.409046
63231		9.449193	-1.099840	4.555787	0.084523	-2.047855	0.533868	-0.269680	-0.047620	0.013786	-0.759033	-0.181152	-0.849365	0.094482	-0.010930	0.045595	0.838213	0.083049	-0.536918	0.047126	12.206830	-65.221004	-1.391386
63232		9.047817	-1.321880	4.417470	0.067085	-2.222051	0.096014	-0.185731	-0.050356	0.068022	-0.751953	-0.181641	-0.846436	0.090472	-0.013147	0.044210	0.838131	0.082050	-0.537218	0.046916	12.016600	-65.260164	-1.302739
63233		8.551061	-1.327598	4.227577	0.022066	-2.173047	-0.430101	-0.107768	-0.022922	0.114964	-0.764160	-0.180176	-0.854004	0.085513	-0.013204	0.042293	0.838078	0.081249	-0.537404	0.047129	11.806211	-65.289447	-1.141940
63234		8.208692	-1.164275	4.139572	-0.073807	-1.977966	-0.759710	-0.073784	0.003128	0.152780	-0.761719	-0.176514	-0.853027	0.082096	-0.011565	0.041399	0.838072	0.080479	-0.537487	0.047597	11.562280	-65.308134	-0.923479
63235		8.211557	-1.105390	4.123510	-0.070322	-1.900015	-0.755102	-0.057721	0.014056	0.182123	-0.754395	-0.172119	-0.850830	0.082128	-0.010967	0.041233	0.838081	0.079698	-0.537532	0.048242	11.288560	-65.323701	-0.661474
63236		8.250141	-1.049550	4.036828	0.013275	-1.810835	-0.747202	-0.052061	0.038978	0.187829	-0.761230	-0.173584	-0.856445	0.082519	-0.010408	0.040355	0.838153	0.078915	-0.537473	0.048929	11.004776	-65.325259	-0.385672
63237		8.402775	-1.042609	3.943989	0.159032	-1.769051	-0.642417	-0.025110	0.029128	0.186032	-0.760010	-0.162842	-0.858887	0.084043	-0.010343	0.039429	0.838187	0.078257	-0.537448	0.049683	10.740953	-65.331712	-0.114024
63238		8.653364	-0.999934	3.823786	0.362949	-1.688293	-0.457484	0.012232	0.003542	0.180299	-0.767822	-0.168701	-0.850830	0.086543	-0.009924	0.038236	0.838139	0.077771	-0.537517	0.050497	10.511040	-65.351382	0.142820
63239		8.983650	-1.104535	3.666018	0.658829	-1.746385	-0.227192	0.056789	0.024736	0.170146	-0.760010	-0.162598	-0.866943	0.089850	-0.010979	0.036646	0.838132	0.077499	-0.537482	0.051402	10.314245	-65.357753	0.392295
63240		9.295230	-1.118297	3.514569	0.927941	-1.717439	-0.004864	0.152458	0.022975	0.175617	-0.752930	-0.167725	-0.861084	0.092966	-0.011128	0.035127	0.838081	0.077609	-0.537432	0.052581	10.165524	-65.365286	0.648185
63241		9.543685	-1.023875	3.362423	1.154577	-1.582799	0.167183	0.260416	0.036912	0.196859	-0.755127	-0.166992	-0.852783	0.095453	-0.010189	0.033593	0.838017	0.078115	-0.537301	0.054151	10.049677	-65.366921	0.936933
63242		9.456617	-0.885626	3.259303	1.194836	-1.414955	0.056722	0.342479	0.118141	0.230383	-0.759033	-0.170898	-0.864502	0.094596	-0.008803	0.032522	0.838129	0.078848	-0.536820	0.056108	9.921917	-65.325735	1.289714
63243		9.092636	-0.800147	3.257023	1.045696	-1.318335	-0.268426	0.404571	0.191795	0.279984	-0.757324	-0.172119	-0.850586	0.090969	-0.007940	0.032467	0.838394	0.079692	-0.536028	0.058473	9.754699	-65.247506	1.726120
63244		8.714984	-0.642366	3.188749	0.938172	-1.136786	-0.627962	0.455072	0.197117	0.331368	-0.753662	-0.179443	-0.866699	0.087192	-0.006352	0.031787	0.838632	0.080603	-0.535216	0.061186	9.553994	-65.170601	2.230832
63245		8.619708	-0.542917	3.049795	1.020110	-0.992967	-0.764554	0.540973	0.185137	0.381339	-0.760742	-0.173340	-0.857910	0.086236	-0.005347	0.030404	0.838778	0.081748	-0.534443	0.064338	9.346513	-65.104436	2.798274
63246		8.573191	-0.419514	3.008183	1.030602	-0.842584	-0.815321	0.574167	0.218306	0.410333	-0.758301	-0.173828	-0.856445	0.085773	-0.004105	0.029976	0.838981	0.082939	-0.533524	0.067709	9.118045	-65.021259	3.409526
63247		8.569031	-0.513183	2.823505	1.231208	-0.870210	-0.902548	0.592773	0.265281	0.435763	-0.755859	-0.182861	-0.858643	0.085739	-0.005028	0.028106	0.839279	0.084127	-0.532405	0.071259	8.864069	-64.912701	4.061825
63248		8.252732	-0.577274	2.509846	1.408904	-0.846994	-1.325188	0.621328	0.259557	0.446078	-0.748779	-0.186279	-0.858154	0.082572	-0.005666	0.024974	0.839534	0.085403	-0.531297	0.074921	8.618408	-64.807124	4.722945
63249		8.015038	-0.800615	2.139614	1.701369	-0.963399	-1.711028	0.673886	0.209964	0.439730	-0.750488	-0.180664	-0.854736	0.080190	-0.007902	0.021285	0.839622	0.086939	-0.530364	0.078677	8.423337	-64.727986	5.362568
63250		7.762987	-0.875309	1.903442	1.834388	-0.966302	-2.043875	0.749770	0.161277	0.437529	-0.756348	-0.193359	-0.854980	0.077664	-0.008654	0.018939	0.839534	0.088813	-0.529596	0.082600	8.284599	-64.675524	5.987789
63251		7.464047	-0.818449	1.648632	1.928940	-0.841136	-2.418671	0.856075	0.089890	0.424270	-0.759277	-0.191895	-0.854248	0.074665	-0.008096	0.016418	0.839197	0.091199	-0.529066	0.086717	8.236660	-64.661961	6.580642
63252		7.305589	-0.668377	1.574814	1.896262	-0.666968	-2.583737	1.013061	0.007062	0.402260	-0.757813	-0.202148	-0.851563	0.073070	-0.006616	0.015712	0.838556	0.094334	-0.528793	0.091117	8.318676	-64.693781	7.128896
63253		7.241078	-0.323448	1.852439	1.542347	-0.397197	-2.502916	1.180704	-0.027569	0.368612	-0.759766	-0.206787	-0.842529	0.072414	-0.003210	0.018515	0.837733	0.098275	-0.528553	0.095800	8.543134	-64.742869	7.625956
63254		7.197663	-0.026710	2.038710	1.283430	-0.161962	-2.444514	1.279671	-0.030191	0.321249	-0.754639	-0.218994	-0.843506	0.071974	-0.000282	0.020396	0.836841	0.102751	-0.528234	0.100542	8.880657	-64.790605	8.060349
63255		7.394498	-0.035654	2.235241	1.198152	-0.217670	-2.184239	1.261692	-0.033603	0.297504	-0.761475	-0.234131	-0.841553	0.073942	-0.000388	0.022362	0.835926	0.107214	-0.527902	0.105130	9.237439	-64.839016	8.462068
63256		7.733682	-0.183407	2.854705	0.852800	-0.524102	-1.627893	1.110363	0.006736	0.283050	-0.752686	-0.233887	-0.835205	0.077340	-0.001883	0.028534	0.835174	0.111059	-0.527454	0.109279	9.516592	-64.864404	8.853909
63257		8.145812	-0.349213	3.701647	0.356560	-0.916653	-0.912632	0.843300	0.038122	0.265978	-0.756104	-0.233154	-0.832031	0.081470	-0.003540	0.036986	0.834642	0.113812	-0.526997	0.112664	9.657122	-64.870857	9.229530
63258		8.300500	-0.152397	3.752296	0.323695	-0.737839	-0.737883	0.580631	0.034649	0.240975	-0.760986	-0.245361	-0.829346	0.083013	-0.001533	0.037504	0.834252	0.115533	-0.526682	0.115250	9.677199	-64.877274	9.571725
63259		8.074473	0.458188	2.730686	0.908395	0.148046	-1.326428	0.412842	0.014370	0.198658	-0.753174	-0.242188	-0.832275	0.080742	0.004606	0.027311	0.833924	0.116678	-0.526518	0.117203	9.656849	-64.890890	9.852587
63260		7.957174	1.639199	2.118315	0.997283	1.452386	-1.603739	0.438446	-0.043715	0.130802	-0.759766	-0.243164	-0.820313	0.079556	0.016398	0.021236	0.833462	0.118142	-0.526540	0.118910	9.744177	-64.931048	10.030810
63261		8.267075	2.768125	1.906703	0.928120	2.602881	-1.327044	0.500103	-0.069673	0.057142	-0.767578	-0.248047	-0.816162	0.082656	0.027657	0.019165	0.832935	0.120072	-0.526586	0.120453	9.961700	-64.978619	10.104134
63262		8.693766	3.218283	1.403439	1.368735	3.212129	-1.111119	0.576758	-0.023683	0.022081	-0.762207	-0.255615	-0.815918	0.086932	0.032152	0.014137	0.832496	0.122385	-0.526372	0.122082	10.255410	-64.997339	10.141942
63263		8.990720	2.916055	1.287805	1.675220	2.977219	-0.906249	0.653322	0.010744	0.029155	-0.758545	-0.258057	-0.824219	0.089904	0.029131	0.012968	0.832091	0.124976	-0.525965	0.123958	10.577553	-64.996997	10.196669
63264		9.932872	2.050410	3.214538	0.725630	1.569823	0.685335	0.690619	0.075475	0.052907	-0.764404	-0.265381	-0.814453	0.099335	0.020419	0.032179	0.831808	0.127618	-0.525276	0.126073	10.877310	-64.963180	10.299762
63265		11.000393	1.361059	4.369661	0.445215	0.596194	2.078543	0.489169	0.205145	0.072947	-0.752441	-0.261719	-0.817383	0.110044	0.013544	0.043617	0.831974	0.129286	-0.524181	0.127821	11.007817	-64.858455	10.462277
63266		11.729592	0.128694	3.306165	2.088448	-0.127196	2.193678	0.467997	0.128407	0.118283	-0.760010	-0.272217	-0.810059	0.117316	0.001279	0.032989	0.831918	0.130795	-0.523446	0.129653	11.089584	-64.802308	10.665244
63267		12.335867	-0.581482	3.556822	2.398302	-0.824035	2.786194	0.635362	0.121234	0.171407	-0.760986	-0.278076	-0.811768	0.123385	-0.005822	0.035475	0.831692	0.132866	-0.522661	0.132137	11.206159	-64.755908	10.935924
63268		11.899558	-0.814680	6.272212	0.074134	-2.036457	3.508378	0.493637	0.469506	0.236801	-0.757568	-0.284180	-0.816406	0.119152	-0.008160	0.062422	0.832416	0.133945	-0.520561	0.134756	11.083838	-64.521357	11.381785
63269		10.225661	-0.990682	7.426635	-1.466781	-2.730034	2.479406	0.282624	0.509688	0.359142	-0.743652	-0.272949	-0.819092	0.102463	-0.009828	0.073991	0.833295	0.133799	-0.518508	0.137357	10.694701	-64.276193	11.989978
63270		9.251957	-0.210589	7.597867	-2.279198	-2.129712	1.747599	0.493927	0.064066	0.547584	-0.740967	-0.278564	-0.815674	0.092550	-0.002040	0.075944	0.832735	0.134348	-0.518289	0.140994	10.308426	-64.300257	12.730099
63271		10.033230	1.846089	9.237870	-4.101276	-0.756899	3.302887	0.647431	-0.334837	0.726392	-0.756836	-0.270020	-0.798340	0.100110	0.018525	0.092606	0.830898	0.135352	-0.519729	0.145499	9.878888	-64.564744	13.614614
63272		10.687216	4.152499	8.061629	-3.827305	1.880807	3.538825	0.443754	-0.482900	0.850546	-0.755859	-0.276123	-0.804443	0.106500	0.041799	0.080966	0.828698	0.135290	-0.522004	0.149890	9.196468	-64.921175	14.647602
63273		10.491391	5.737060	6.365954	-3.240010	3.985880	2.722156	0.337320	-0.446707	0.884090	-0.769287	-0.273682	-0.790771	0.104517	0.057725	0.063990	0.826618	0.134669	-0.524215	0.154159	8.381306	-65.254058	15.756634
63274		9.278442	6.307927	6.224375	-3.934641	4.463690	1.554614	0.098356	-0.243854	0.791776	-0.766602	-0.264648	-0.795166	0.092458	0.063415	0.062388	0.825281	0.133145	-0.525699	0.157558	7.484899	-65.457632	16.802494
63275		8.079654	5.353548	5.915790	-3.834422	3.615715	0.245204	-0.262356	-0.149930	0.616289	-0.782227	-0.254883	-0.794189	0.080587	0.053862	0.059148	0.824558	0.130516	-0.526953	0.159340	6.572651	-65.588459	17.636817
63276		7.742246	4.022644	5.574254	-3.185307	2.544040	-0.295458	-0.517986	-0.115931	0.426286	-0.772949	-0.253174	-0.795654	0.077304	0.040536	0.055683	0.824233	0.127306	-0.528141	0.159688	5.739920	-65.683017	18.222558
63277		8.231643	2.757848	5.536393	-2.477829	1.522263	0.064563	-0.712734	-0.016841	0.242315	-0.781006	-0.241455	-0.791504	0.082278	0.027875	0.055272	0.824430	0.123697	-0.528952	0.158821	5.012049	-65.707823	18.570298
63278		8.893677	1.631004	5.359919	-1.639462	0.696475	0.546523	-0.791768	0.036616	0.090681	-0.784180	-0.231934	-0.809082	0.088939	0.016562	0.053518	0.824924	0.120121	-0.529503	0.157154	4.424480	-65.693315	18.714786
63279		9.537112	0.830000	5.082682	-0.858490	0.185378	0.990442	-0.715890	-0.080538	-0.051986	-0.781738	-0.235352	-0.805176	0.095353	0.008457	0.050835	0.825163	0.117325	-0.530385	0.155025	4.072177	-65.739203	18.648461
63280		10.342742	0.220425	5.058534	-0.315274	-0.249948	1.695907	-0.588521	-0.250629	-0.206494	-0.784180	-0.227783	-0.805908	0.103366	0.002247	0.050708	0.824986	0.115595	-0.531772	0.152495	4.004677	-65.876137	18.350184
63281		11.459739	-0.080888	4.826174	0.397826	-0.317750	2.611674	-0.482762	-0.284511	-0.342904	-0.789551	-0.222168	-0.810059	0.114527	-0.000889	0.048427	0.824752	0.114688	-0.533134	0.149661	4.177592	-66.026779	17.855111
63282		11.634777	-0.159534	4.717578	0.569582	-0.362234	2.724987	-0.412129	-0.132564	-0.444157	-0.781738	-0.220459	-0.802490	0.116313	-0.001756	0.047256	0.824951	0.114227	-0.533753	0.146684	4.510180	-66.085293	17.230114
63283		10.761285	-0.105945	4.326002	0.544716	-0.317433	1.768901	-0.331566	-0.041801	-0.479158	-0.790039	-0.217041	-0.805420	0.107601	-0.001246	0.043284	0.825364	0.114124	-0.533913	0.143828	4.925975	-66.088705	16.564639
63284		9.957652	0.284688	4.225753	0.182553	-0.049105	1.006601	-0.162605	-0.109667	-0.461020	-0.789551	-0.226807	-0.800537	0.099560	0.002652	0.042310	0.825481	0.114717	-0.534239	0.141456	5.423786	-66.129612	15.915310
63285		9.459734	0.880596	4.206498	-0.206947	0.420352	0.566956	-0.091745	-0.170920	-0.409058	-0.784668	-0.226563	-0.802002	0.094579	0.008632	0.042142	0.825352	0.115507	-0.534794	0.139454	5.905406	-66.206151	15.328505
63286		8.949242	1.361737	4.123387	-0.509089	0.809914	0.088341	-0.082255	-0.185462	-0.347761	-0.774902	-0.228516	-0.802246	0.089478	0.013479	0.041311	0.825132	0.116183	-0.535436	0.137722	6.318593	-66.292846	14.822897
63287		8.307897	1.561403	4.147557	-0.854103	0.896521	-0.478445	-0.131236	-0.165138	-0.298512	-0.791504	-0.226318	-0.800049	0.083068	0.015517	0.041534	0.824958	0.116509	-0.536054	0.136072	6.639749	-66.369862	14.387325
63288		7.636462	1.696793	4.065981	-1.096737	0.966154	-1.118404	-0.203175	-0.153686	-0.277795	-0.782715	-0.238525	-0.793457	0.076357	0.016903	0.040701	0.824840	0.116475	-0.536685	0.134320	6.893291	-66.440838	13.980677
63289		7.379243	1.574061	3.944350	-1.054176	0.855953	-1.407639	-0.301365	-0.153368	-0.259571	-0.780518	-0.241211	-0.801270	0.073783	0.015704	0.039476	0.824765	0.115987	-0.537388	0.132380	7.068512	-66.512337	13.598437
63290		6.983267	1.520992	3.739174	-1.016695	0.831496	-1.854308	-0.395301	-0.119386	-0.266841	-0.785156	-0.235107	-0.801025	0.069831	0.015191	0.037403	0.824835	0.115110	-0.538005	0.130180	7.195605	-66.563540	13.210687
63291		6.723139	1.407841	3.669159	-1.019644	0.722584	-2.126106	-0.492024	-0.101149	-0.289175	-0.786133	-0.224854	-0.800537	0.067233	0.014071	0.036691	0.825019	0.113880	-0.538595	0.127635	7.294269	-66.602516	12.793139
63292		6.652419	1.179217	3.492918	-0.819410	0.558124	-2.271946	-0.570056	-0.104678	-0.313097	-0.788574	-0.222656	-0.802979	0.066524	0.011788	0.034930	0.825246	0.112393	-0.539229	0.124777	7.381348	-66.641400	12.339665
63293		6.578094	1.224900	3.421415	-0.801591	0.616953	-2.365902	-0.602760	-0.115587	-0.349402	-0.797119	-0.226807	-0.810059	0.065783	0.012237	0.034215	0.825474	0.110875	-0.539903	0.121673	7.500125	-66.683543	11.831362
63294		6.874837	1.065761	3.072738	-0.335800	0.595230	-2.238132	-0.603219	-0.174701	-0.379899	-0.783203	-0.216309	-0.808350	0.068742	0.010620	0.030755	0.825551	0.109471	-0.540797	0.118407	7.671060	-66.756351	11.266136
63295		7.237369	1.080774	3.050105	-0.184806	0.633512	-1.912357	-0.545260	-0.202189	-0.396325	-0.782715	-0.220703	-0.803223	0.072364	0.010748	0.030545	0.825521	0.108366	-0.541754	0.115215	7.904290	-66.842792	10.669676
63296		7.501392	1.163118	2.975858	-0.046099	0.739845	-1.692961	-0.552827	-0.146753	-0.405455	-0.786865	-0.210449	-0.814209	0.075016	0.011561	0.029782	0.825641	0.107220	-0.542474	0.111991	8.137853	-66.895951	10.068196
63297		7.738000	0.879859	2.876603	0.217687	0.502132	-1.528600	-0.579695	-0.108778	-0.404122	-0.788574	-0.214844	-0.808105	0.077382	0.008726	0.028783	0.825867	0.105938	-0.543048	0.108720	8.348288	-66.926913	9.475565
63298		7.978965	0.785916	2.918732	0.302939	0.401554	-1.295205	-0.564086	-0.093608	-0.393287	-0.792480	-0.214844	-0.814209	0.079791	0.007785	0.029203	0.826110	0.104679	-0.543549	0.105539	8.551397	-66.949211	8.900210
63299		8.223275	0.580921	2.971257	0.410942	0.191505	-1.061543	-0.605457	-0.092771	-0.384122	-0.791260	-0.211182	-0.800293	0.082230	0.005741	0.029733	0.826362	0.103225	-0.544066	0.102287	8.718969	-66.971236	8.338333
63300		8.420941	0.438255	2.690845	0.773149	0.131969	-0.996239	-0.666897	-0.085506	-0.369099	-0.786621	-0.200195	-0.800293	0.084206	0.004317	0.026930	0.826646	0.101471	-0.544586	0.098930	8.830796	-66.989864	7.798699
63301		8.544161	0.291309	2.356997	1.153689	0.076074	-1.020294	-0.703972	-0.085084	-0.355215	-0.783447	-0.207520	-0.806641	0.085437	0.002844	0.023596	0.826930	0.099524	-0.545120	0.095531	8.902964	-67.009200	7.279310
63302		8.508274	0.221041	2.196666	1.297259	0.035941	-1.118969	-0.714343	-0.100648	-0.341023	-0.791992	-0.203857	-0.810059	0.085075	0.002144	0.022002	0.827157	0.097500	-0.545723	0.092149	8.954369	-67.038344	6.775760
63303		8.475335	0.061187	2.110065	1.395211	-0.111568	-1.191299	-0.671835	-0.169067	-0.318872	-0.784912	-0.195557	-0.818604	0.084736	0.000548	0.021170	0.827154	0.095623	-0.546591	0.088944	9.015899	-67.108042	6.288197
63304		8.657146	0.137809	1.825415	1.685141	0.026091	-1.126096	-0.593970	-0.243191	-0.291180	-0.790039	-0.196289	-0.810303	0.086551	0.001306	0.018355	0.826888	0.094023	-0.547737	0.086025	9.103187	-67.221832	5.821023
63305		8.716583	0.211215	1.612236	1.863801	0.134953	-1.144889	-0.523593	-0.230709	-0.254003	-0.797363	-0.194336	-0.808105	0.087150	0.002044	0.016217	0.826597	0.092606	-0.548813	0.083462	9.180368	-67.331785	5.409303
63306		8.670252	0.255924	1.837449	1.619648	0.107016	-1.096023	-0.439818	-0.202403	-0.194020	-0.791260	-0.193848	-0.807861	0.086686	0.002516	0.018457	0.826314	0.091359	-0.549760	0.081386	9.220435	-67.431092	5.089859
63307		8.737002	0.241322	2.055736	1.437219	0.032405	-0.949685	-0.391124	-0.232349	-0.149995	-0.791016	-0.190918	-0.802979	0.087348	0.002388	0.020654	0.825902	0.090203	-0.550827	0.079614	9.236359	-67.551289	4.827248
63308		8.897235	0.185369	2.080740	1.468395	-0.030362	-0.792295	-0.347980	-0.261969	-0.103703	-0.801025	-0.182373	-0.810303	0.088946	0.001844	0.020921	0.825367	0.089110	-0.552018	0.078136	9.221999	-67.692514	4.624246
63309		9.166744	0.111763	2.237121	1.424403	-0.135423	-0.485357	-0.310956	-0.244522	-0.072779	-0.801025	-0.182129	-0.807129	0.091640	0.001119	0.022482	0.824847	0.088076	-0.553133	0.076898	9.182901	-67.826716	4.471209
63310		9.327317	0.193405	2.704837	1.026003	-0.161723	-0.154865	-0.257564	-0.183494	-0.056323	-0.794434	-0.179688	-0.804932	0.093249	0.001943	0.027131	0.824464	0.087191	-0.553983	0.075897	9.138442	-67.928016	4.356426
63311		9.513910	0.446536	2.928507	0.821797	0.037295	0.117734	-0.200121	-0.164588	-0.058016	-0.795898	-0.180420	-0.802734	0.095116	0.004467	0.029359	0.824106	0.086542	-0.554729	0.075061	9.125352	-68.018413	4.244070
63312		9.728502	0.801601	3.052258	0.697697	0.356401	0.384801	-0.075600	-0.151616	-0.074861	-0.799316	-0.179443	-0.800781	0.097265	0.007991	0.030593	0.823737	0.086447	-0.555369	0.074502	9.205062	-68.099932	4.108107
63313		9.743434	1.003539	2.963543	0.727800	0.565161	0.379225	0.007669	-0.105647	-0.083807	-0.806885	-0.176025	-0.802246	0.097423	0.009993	0.029687	0.823461	0.086704	-0.555782	0.074161	9.335159	-68.154517	3.969868
63314		9.689195	0.839362	2.823355	0.863583	0.425448	0.268462	0.066985	-0.056243	-0.087708	-0.798584	-0.176514	-0.803223	0.096888	0.008342	0.028264	0.823298	0.087194	-0.555971	0.073986	9.493898	-68.180817	3.836754
63315		9.700459	0.443897	3.078272	0.722166	-0.026941	0.348486	0.067253	-0.017147	-0.085701	-0.794678	-0.182129	-0.804443	0.097004	0.004387	0.030793	0.823243	0.087669	-0.555997	0.073842	9.640820	-68.184953	3.717218
63316		10.141062	-0.013376	3.311859	0.777934	-0.523793	0.814173	0.018753	0.040241	-0.106357	-0.802734	-0.181396	-0.799561	0.101417	-0.000191	0.033098	0.823376	0.087977	-0.555796	0.073497	9.775287	-68.154586	3.580375
63317		10.628897	-0.012449	4.015264	0.336209	-0.682195	1.523868	0.004151	0.130505	-0.171019	-0.805420	-0.181885	-0.796143	0.106315	-0.000216	0.040083	0.823790	0.088375	-0.555200	0.072891	9.969470	-68.066758	3.370883
63318		11.149512	-0.194887	4.043984	0.563760	-0.870919	2.003699	-0.107096	0.147019	-0.255329	-0.792480	-0.172363	-0.795654	0.111522	-0.002070	0.040359	0.824327	0.088540	-0.554540	0.071632	10.211973	-67.961101	3.039821
63319		11.663011	-0.455202	3.053719	1.719047	-0.917288	2.093680	-0.001218	-0.002564	-0.309538	-0.791992	-0.179932	-0.794189	0.116622	-0.004732	0.030539	0.824421	0.089347	-0.554432	0.070381	10.626133	-67.933165	2.589427
63320		11.860447	0.399938	3.672560	1.054993	-0.262849	2.562106	0.346706	-0.069518	-0.325132	-0.787842	-0.181396	-0.793945	0.118598	0.003743	0.036773	0.824175	0.091650	-0.554470	0.069993	11.278257	-67.939838	2.096259
63321		11.514264	2.091653	6.231627	-1.738192	0.733876	3.310808	0.488763	0.076944	-0.362849	-0.787842	-0.191895	-0.802002	0.115204	0.020555	0.062322	0.824278	0.094596	-0.553831	0.069917	12.021584	-67.857491	1.593442
63322		11.444143	2.967105	7.231021	-2.830037	1.282949	3.693023	0.251656	0.155108	-0.482636	-0.795654	-0.201904	-0.796631	0.114568	0.029304	0.072258	0.824745	0.096864	-0.552894	0.068720	12.764488	-67.714372	0.942981
63323		11.555292	2.163184	5.683741	-1.191450	0.800947	3.166047	0.066277	0.040530	-0.567885	-0.793701	-0.204102	-0.790771	0.115625	0.021285	0.056821	0.825007	0.098647	-0.552445	0.066610	13.545024	-67.620664	0.137414
63324		10.680192	1.433256	5.122143	-0.837885	0.163131	2.088073	-0.004090	0.054537	-0.565596	-0.788574	-0.218018	-0.795898	0.106856	0.014031	0.051192	0.825335	0.100125	-0.551960	0.064316	14.271079	-67.515611	-0.653955
63325		9.009912	1.314402	6.213453	-2.409954	-0.249831	0.941043	-0.121671	0.073178	-0.552975	-0.785889	-0.208984	-0.800049	0.090158	0.012933	0.062094	0.825764	0.101078	-0.551437	0.061764	14.899075	-67.398340	-1.412182
63326		7.736787	1.143672	6.458886	-3.070141	-0.494969	-0.158040	-0.198889	-0.051874	-0.561798	-0.783691	-0.209961	-0.804932	0.077383	0.011284	0.064598	0.825882	0.101773	-0.551445	0.058895	15.533882	-67.345741	-2.226695
63327		7.443585	1.286267	6.007892	-2.806331	-0.278025	-0.582124	-0.159395	-0.158855	-0.571046	-0.788574	-0.220947	-0.807373	0.074425	0.012698	0.060128	0.825681	0.102689	-0.551874	0.056045	16.240960	-67.346927	-3.094644
63328		7.737629	1.763382	5.765161	-2.572180	0.202924	-0.349067	-0.189611	-0.091581	-0.581675	-0.776855	-0.216309	-0.797119	0.077401	0.017463	0.057670	0.825677	0.103486	-0.552023	0.053096	16.917709	-67.305362	-3.949477
63329		8.247246	2.184308	5.429468	-2.146363	0.643027	0.048697	-0.216779	0.039496	-0.581041	-0.774902	-0.222412	-0.802246	0.082546	0.021662	0.054255	0.826040	0.104138	-0.551632	0.050148	17.520689	-67.188528	-4.740829
63330		8.965882	2.332674	5.287215	-1.746047	0.763667	0.682598	-0.195454	0.118059	-0.542499	-0.774170	-0.224121	-0.798096	0.089753	0.023135	0.052797	0.826593	0.104746	-0.550928	0.047452	18.046106	-67.032485	-5.436372
63331		9.605972	2.213763	5.018796	-1.202152	0.652194	1.164245	-0.159009	0.177634	-0.475665	-0.768555	-0.230225	-0.806396	0.096157	0.021949	0.050085	0.827267	0.105310	-0.549999	0.045170	18.473402	-66.853869	-6.002589
63332		10.008882	1.699241	5.174779	-1.056057	0.071129	1.532930	-0.148252	0.171344	-0.387774	-0.773193	-0.232910	-0.807617	0.100166	0.016837	0.051649	0.827895	0.105675	-0.549136	0.043272	18.791645	-66.693200	-6.444850
63333		10.441904	1.153795	5.485889	-1.039242	-0.568876	1.979509	-0.162681	0.115107	-0.273604	-0.772461	-0.231934	-0.808838	0.104466	0.011440	0.054789	0.828347	0.105681	-0.548568	0.041783	18.977943	-66.583545	-6.752133
63334		10.631725	0.810915	5.090486	-0.533099	-0.832481	1.961309	-0.227633	0.020336	-0.137032	-0.776855	-0.229492	-0.810547	0.106328	0.008094	0.050885	0.828544	0.105060	-0.548476	0.040625	18.995897	-66.550339	-6.917314
63335		10.876106	0.612323	4.519162	0.110516	-0.909704	1.945189	-0.188175	-0.091749	-0.006765	-0.768799	-0.227051	-0.809814	0.108741	0.006162	0.045236	0.828385	0.104271	-0.548909	0.040062	18.921546	-66.602289	-6.956602
