// General information: 
//  MT Manager version: 2019.2.0 
//  XDA version: 2019.2.0 build 3853 rev 94535 built on 2019-09-09
// Device information: 
//  DeviceId: 00B47786
//  ProductCode: MTW2-3A7G6
//  Firmware Version: 4.6.0
//  Hardware Version: 2.0.0
// Device settings: 
//  Filter Profile: human(46.1)
//  Option Flags: Orientation Smoother Disabled, AHS Disabled, ICC Disabled
// Coordinate system: ENU
PacketCounter	SampleTimeFine	Acc_X	Acc_Y	Acc_Z	FreeAcc_E	FreeAcc_N	FreeAcc_U	Gyr_X	Gyr_Y	Gyr_Z	Mag_X	Mag_Y	Mag_Z	VelInc_X	VelInc_Y	VelInc_Z	Quat_q0	Quat_q1	Quat_q2	Quat_q3	Roll	Pitch	Yaw
62782		9.554306	0.151279	-1.933525	0.014408	-0.001475	-0.063536	0.002758	0.007519	-0.015192	-0.820801	0.040771	0.517334	0.095542	0.001506	-0.019339	0.032756	-0.772781	-0.052067	-0.631684	175.662804	-78.440948	11.249534
62783		9.587023	0.155318	-1.943864	0.011387	-0.005067	-0.029356	0.009425	0.008208	-0.015163	-0.815430	0.046875	0.513916	0.095870	0.001547	-0.019443	0.032769	-0.772783	-0.052105	-0.631679	175.655622	-78.440081	11.260934
62784		9.576670	0.176868	-1.968974	-0.012369	-0.029513	-0.034153	0.004411	0.008708	-0.014467	-0.813477	0.043701	0.511230	0.095766	0.001762	-0.019694	0.032772	-0.772784	-0.052130	-0.631675	175.647781	-78.439476	11.271040
62785		9.575269	0.225708	-1.907160	0.053313	-0.070565	-0.047127	0.001528	0.012268	-0.014016	-0.811279	0.050049	0.515137	0.095752	0.002251	-0.019077	0.032763	-0.772774	-0.052142	-0.631687	175.638657	-78.440997	11.280437
62786		9.565995	0.167982	-1.948429	0.004119	-0.018196	-0.048850	-0.007537	0.009616	-0.011881	-0.816406	0.039551	0.517578	0.095659	0.001673	-0.019489	0.032728	-0.772775	-0.052120	-0.631690	175.631000	-78.441023	11.283368
62787		9.555134	0.157802	-1.928905	0.019580	-0.005968	-0.063547	-0.010526	0.011691	-0.011905	-0.818115	0.045410	0.522461	0.095550	0.001571	-0.019295	0.032677	-0.772770	-0.052083	-0.631701	175.620963	-78.442204	11.286348
62788		9.549051	0.119771	-1.956012	-0.012868	0.028648	-0.064676	-0.008980	0.011396	-0.011655	-0.819336	0.045898	0.507324	0.095489	0.001191	-0.019566	0.032638	-0.772765	-0.052055	-0.631711	175.612729	-78.443257	11.289025
62789		9.541894	0.160899	-1.966782	-0.019903	-0.013547	-0.068906	0.000677	0.010013	-0.011600	-0.815918	0.041748	0.517090	0.095418	0.001604	-0.019673	0.032634	-0.772763	-0.052056	-0.631714	175.610388	-78.443596	11.291121
62790		9.585170	0.144455	-1.950914	0.001916	0.006364	-0.029929	0.004249	0.011294	-0.012069	-0.816650	0.050537	0.517578	0.095851	0.001439	-0.019515	0.032644	-0.772756	-0.052071	-0.631720	175.608598	-78.444573	11.294955
62791		9.574304	0.134141	-1.931430	0.017376	0.018586	-0.044624	0.011449	0.009792	-0.015876	-0.816162	0.049805	0.511963	0.095742	0.001335	-0.019319	0.032668	-0.772753	-0.052123	-0.631719	175.600638	-78.444503	11.309104
62792		9.599677	0.178179	-1.953481	0.006333	-0.026338	-0.014683	0.006223	0.007321	-0.016133	-0.813721	0.038330	0.514404	0.095996	0.001775	-0.019538	0.032672	-0.772757	-0.052161	-0.631710	175.589480	-78.443031	11.323656
62793		9.553031	0.145485	-1.937334	0.009047	0.006385	-0.064112	0.003664	0.007939	-0.011574	-0.823975	0.041016	0.521973	0.095530	0.001450	-0.019377	0.032676	-0.772761	-0.052169	-0.631704	175.589204	-78.442174	11.324972
62794		9.575317	0.169593	-1.973312	-0.018734	-0.020779	-0.034720	0.008190	0.012965	-0.013981	-0.809326	0.045410	0.514893	0.095752	0.001690	-0.019739	0.032696	-0.772748	-0.052204	-0.631716	175.583967	-78.444020	11.334630
62795		9.567575	0.178800	-1.939690	0.013459	-0.026303	-0.048877	0.006863	0.008835	-0.010598	-0.819580	0.042725	0.509033	0.095675	0.001784	-0.019401	0.032713	-0.772750	-0.052215	-0.631712	175.587982	-78.443613	11.332978
62796		9.564611	0.160170	-1.952970	-0.002240	-0.009441	-0.049417	0.002488	0.008621	-0.013269	-0.823730	0.044434	0.517334	0.095645	0.001596	-0.019534	0.032712	-0.772752	-0.052230	-0.631709	175.582404	-78.443009	11.339649
62797		9.540101	0.150459	-1.973715	-0.028374	-0.002962	-0.069438	0.005955	0.008420	-0.014212	-0.810547	0.043213	0.510986	0.095400	0.001498	-0.019741	0.032717	-0.772753	-0.052255	-0.631705	175.575844	-78.442403	11.348673
62798		9.569181	0.103052	-1.953659	-0.008846	0.047814	-0.045688	0.009421	0.008219	-0.015154	-0.816895	0.042725	0.514648	0.095691	0.001024	-0.019540	0.032736	-0.772755	-0.052299	-0.631699	175.569061	-78.441486	11.360630
62799		9.565063	0.163934	-1.950442	0.000840	-0.012132	-0.049420	0.025521	0.011964	-0.018693	-0.818359	0.043945	0.517334	0.095650	0.001633	-0.019510	0.032802	-0.772741	-0.052401	-0.631704	175.560445	-78.442601	11.382954
62800		9.565796	0.197010	-1.993880	-0.037343	-0.049690	-0.039512	0.020297	0.009490	-0.018951	-0.819092	0.044922	0.514648	0.095657	0.001963	-0.019943	0.032852	-0.772735	-0.052494	-0.631700	175.549014	-78.442241	11.406014
62801		9.571525	0.205917	-1.920647	0.036382	-0.049469	-0.048385	0.013481	0.003981	-0.013906	-0.814697	0.047363	0.518799	0.095715	0.002054	-0.019208	0.032886	-0.772750	-0.052543	-0.631676	175.548753	-78.438998	11.413100
62802		9.603714	0.178012	-1.886429	0.072665	-0.016476	-0.024119	-0.002590	0.013180	-0.009712	-0.818604	0.052246	0.514648	0.096036	0.001775	-0.018871	0.032878	-0.772739	-0.052527	-0.631691	175.549213	-78.441156	11.410640
62803		9.590373	0.179632	-1.925152	0.032154	-0.023144	-0.029428	-0.005313	0.014154	-0.011658	-0.814941	0.049072	0.519531	0.095902	0.001790	-0.019258	0.032859	-0.772725	-0.052516	-0.631711	175.542927	-78.443780	11.414401
62804		9.546933	0.166478	-1.894467	0.051569	-0.008146	-0.078319	-0.006265	0.010410	-0.009719	-0.816162	0.048340	0.516602	0.095468	0.001660	-0.018950	0.032835	-0.772724	-0.052489	-0.631716	175.541864	-78.444355	11.411345
62805		9.522471	0.156735	-1.915106	0.025457	-0.001660	-0.098317	-0.010743	0.008708	-0.012866	-0.812988	0.052490	0.516846	0.095224	0.001560	-0.019155	0.032787	-0.772727	-0.052463	-0.631716	175.530162	-78.443766	11.417062
62806		9.565687	0.140730	-1.899483	0.047352	0.018183	-0.059348	-0.011323	0.005351	-0.012371	-0.818848	0.047607	0.517334	0.095656	0.001400	-0.018997	0.032734	-0.772742	-0.052431	-0.631703	175.519897	-78.441333	11.420440
62807		9.549144	0.122899	-1.953078	-0.009895	0.029295	-0.065133	-0.004657	0.006051	-0.012335	-0.820068	0.043945	0.509277	0.095491	0.001223	-0.019534	0.032714	-0.772753	-0.052426	-0.631691	175.513914	-78.439282	11.424356
62808		9.606454	0.138064	-1.941991	0.014352	0.018214	-0.010963	-0.000921	0.004755	-0.015194	-0.815430	0.044189	0.515869	0.096064	0.001373	-0.019422	0.032692	-0.772767	-0.052438	-0.631674	175.501863	-78.436382	11.435642
62809		9.581901	0.128518	-1.963161	-0.011794	0.024720	-0.030940	0.009108	0.003773	-0.016573	-0.818848	0.041016	0.516113	0.095819	0.001278	-0.019633	0.032702	-0.772782	-0.052484	-0.631652	175.491657	-78.432976	11.450400
62810		9.552403	0.146739	-1.937724	0.009933	0.008825	-0.064635	0.008735	0.003386	-0.015129	-0.811035	0.042969	0.515625	0.095524	0.001461	-0.019379	0.032717	-0.772799	-0.052527	-0.631627	175.485633	-78.429296	11.461181
62811		9.551124	0.227326	-1.920949	0.036327	-0.068889	-0.067964	0.002275	0.005654	-0.014216	-0.809814	0.041260	0.517090	0.095511	0.002267	-0.019212	0.032704	-0.772811	-0.052537	-0.631612	175.477496	-78.426952	11.469054
62812		9.542059	0.169520	-1.962678	-0.012826	-0.016468	-0.069419	-0.008127	0.006247	-0.011394	-0.809326	0.036621	0.511719	0.095420	0.001689	-0.019630	0.032667	-0.772822	-0.052511	-0.631602	175.471604	-78.425074	11.469838
62813		9.556251	0.202086	-1.966462	-0.009448	-0.048262	-0.054238	-0.012873	0.005640	-0.012624	-0.808838	0.033447	0.521973	0.095562	0.002014	-0.019667	0.032594	-0.772837	-0.052462	-0.631592	175.458913	-78.422757	11.472638
62814		9.346498	0.175867	-2.433135	-0.505603	-0.084148	-0.166684	0.013165	-0.035972	-0.022853	-0.808350	0.042236	0.521729	0.093470	0.001750	-0.024314	0.032592	-0.772975	-0.052555	-0.631415	175.442671	-78.396245	11.496440
62815		9.158808	0.573375	-2.400766	-0.455695	-0.479730	-0.350214	0.081874	-0.086541	-0.060938	-0.800781	0.031738	0.522705	0.091600	0.005716	-0.023966	0.032706	-0.773254	-0.053003	-0.631030	175.370769	-78.338868	11.614512
62816		8.793621	0.871727	-2.701441	-0.772621	-0.820888	-0.641284	0.053693	-0.130858	-0.080579	-0.803711	0.040527	0.531250	0.087957	0.008689	-0.026955	0.032653	-0.773670	-0.053462	-0.630484	175.240644	-78.255454	11.778339
62817		9.153858	0.806668	-2.736642	-0.728286	-0.737882	-0.280734	-0.000172	-0.177204	-0.081763	-0.807129	0.030518	0.525635	0.091566	0.008029	-0.027285	0.032356	-0.774243	-0.053743	-0.629772	175.088525	-78.145036	11.929837
62818		9.493886	0.704727	-2.841831	-0.758898	-0.625187	0.073652	-0.005045	-0.152281	-0.096585	-0.800781	0.025391	0.528320	0.094964	0.007001	-0.028346	0.032020	-0.774730	-0.054082	-0.629161	174.891451	-78.048411	12.127809
62819		9.823460	0.612540	-2.655953	-0.511522	-0.487530	0.357381	-0.026798	-0.082764	-0.088392	-0.802246	0.030273	0.525391	0.098248	0.006078	-0.026520	0.031617	-0.775007	-0.054283	-0.628823	174.688119	-77.991464	12.315003
62820		9.810382	0.451062	-2.419544	-0.299904	-0.292102	0.293052	-0.076247	-0.012867	-0.058138	-0.795654	0.023682	0.539551	0.098107	0.004473	-0.024191	0.031164	-0.775076	-0.054227	-0.628765	174.522926	-77.976163	12.438751
62821		9.827237	0.202532	-2.278096	-0.190157	-0.023674	0.275356	-0.122724	0.024629	-0.009138	-0.796387	0.023682	0.529297	0.098270	0.002007	-0.022794	0.030678	-0.775051	-0.053813	-0.628856	174.451911	-77.984642	12.436202
62822		9.550650	0.098182	-2.150878	-0.137625	0.083290	-0.023666	-0.098045	0.030358	0.009442	-0.791016	0.021484	0.536133	0.095503	0.000976	-0.021524	0.030364	-0.775006	-0.053420	-0.628960	174.444260	-77.997666	12.386112
62823		9.351272	0.108475	-2.034399	-0.065307	0.076911	-0.242595	-0.091631	0.021449	0.019612	-0.789063	0.031982	0.536133	0.093510	0.001085	-0.020355	0.030096	-0.774991	-0.052999	-0.629026	174.469443	-78.006069	12.304577
62824		9.284641	0.004911	-2.043608	-0.098499	0.176300	-0.307945	-0.083812	-0.040932	-0.010916	-0.796631	0.016113	0.529297	0.092851	0.000035	-0.020417	0.029754	-0.775162	-0.052741	-0.628853	174.433942	-77.977310	12.291298
62825		9.341934	0.123022	-2.008336	-0.032163	0.070527	-0.256837	-0.017954	-0.083942	-0.077232	-0.788574	0.022949	0.532715	0.093428	0.001192	-0.020044	0.029441	-0.775442	-0.052945	-0.628506	174.270243	-77.920221	12.446447
62826		9.446568	0.232348	-2.052455	-0.031922	-0.028838	-0.143027	0.006663	-0.099544	-0.117772	-0.789063	0.023682	0.539307	0.094477	0.002269	-0.020477	0.029099	-0.775756	-0.053394	-0.628097	174.019383	-77.851823	12.706444
62827		9.721073	0.255278	-2.054013	0.035502	-0.027831	0.126193	0.020274	-0.106560	-0.116984	-0.787109	0.016846	0.530762	0.097223	0.002498	-0.020488	0.028802	-0.776090	-0.053876	-0.627657	173.782895	-77.779173	12.958540
62828		9.906222	0.291532	-2.097077	0.044311	-0.050390	0.317044	0.039350	-0.055324	-0.088991	-0.788574	0.021240	0.524170	0.099069	0.002875	-0.020943	0.028689	-0.776266	-0.054309	-0.627406	173.618680	-77.737348	13.149165
62829		9.930384	0.193244	-2.215766	-0.073156	0.039437	0.363392	0.011101	-0.024480	-0.021541	-0.788330	0.017090	0.528320	0.099307	0.001923	-0.022145	0.028679	-0.776369	-0.054379	-0.627273	173.606202	-77.717253	13.166673
62830		9.901069	0.064136	-2.284130	-0.157986	0.158401	0.346175	0.040958	-0.017733	-0.003258	-0.787354	0.018311	0.544678	0.099013	0.000644	-0.022832	0.028851	-0.776451	-0.054480	-0.627155	173.657016	-77.702233	13.138203
62831		9.584905	0.122703	-2.174467	-0.107205	0.095914	0.015490	0.090768	-0.013904	-0.011166	-0.788818	0.017822	0.534424	0.095851	0.001232	-0.021737	0.029184	-0.776512	-0.054757	-0.627040	173.714138	-77.688813	13.130999
62832		9.222891	0.195197	-2.245854	-0.237209	-0.002405	-0.321249	0.131088	-0.078176	-0.033669	-0.783691	0.009277	0.546387	0.092238	0.001951	-0.022421	0.029595	-0.776762	-0.055267	-0.626667	173.754450	-77.637456	13.166136
62833		9.124378	0.480912	-2.293819	-0.258355	-0.293865	-0.400247	0.183822	-0.123226	-0.087010	-0.790771	0.015869	0.540283	0.091260	0.004790	-0.022878	0.030019	-0.777130	-0.056143	-0.626111	173.699449	-77.557019	13.327938
62834		9.230175	0.768583	-2.387540	-0.277881	-0.578975	-0.269379	0.152215	-0.127857	-0.111479	-0.779541	0.013916	0.545166	0.092321	0.007653	-0.023811	0.030254	-0.777509	-0.057029	-0.625550	173.566853	-77.472415	13.552589
62835		9.468841	0.912544	-2.560239	-0.363380	-0.721793	0.005330	0.086516	-0.125943	-0.109989	-0.778564	0.011719	0.540771	0.094710	0.009084	-0.025539	0.030228	-0.777892	-0.057691	-0.625014	173.401893	-77.388777	13.770076
62836		9.638451	0.915778	-2.602371	-0.356787	-0.713502	0.181027	0.049695	-0.081439	-0.078054	-0.784180	0.018066	0.543701	0.096399	0.009127	-0.025982	0.030182	-0.778149	-0.058119	-0.624656	173.286304	-77.332566	13.917234
62837		9.418894	0.841239	-2.621039	-0.424318	-0.649479	-0.030498	0.015981	-0.039363	-0.023270	-0.782227	0.015381	0.538330	0.094195	0.008404	-0.026191	0.030177	-0.778297	-0.058211	-0.624463	173.277623	-77.303822	13.933270
62838		9.217078	0.683843	-2.612005	-0.475539	-0.502932	-0.233248	0.022569	-0.005728	-0.001913	-0.783691	0.020264	0.548584	0.092172	0.006840	-0.026117	0.030285	-0.778344	-0.058246	-0.624396	173.317198	-77.295759	13.905476
62839		9.071767	0.602745	-2.680892	-0.581909	-0.439915	-0.362010	0.035172	-0.005003	0.000948	-0.782959	0.021240	0.546143	0.090718	0.006033	-0.026806	0.030442	-0.778389	-0.058300	-0.624328	173.370381	-77.288165	13.869575
62840		9.109959	0.513974	-2.650070	-0.554045	-0.347951	-0.333745	0.035291	0.005345	-0.000823	-0.780273	0.014160	0.546875	0.091099	0.005144	-0.026502	0.030607	-0.778399	-0.058369	-0.624300	173.416670	-77.286466	13.842368
62841		9.325687	0.262954	-2.682678	-0.570949	-0.093142	-0.122502	0.035597	0.000188	-0.005588	-0.784424	0.018555	0.550049	0.093257	0.002632	-0.026826	0.030746	-0.778426	-0.058449	-0.624252	173.451979	-77.281366	13.824948
62842		9.573183	0.162907	-2.635732	-0.485232	0.023815	0.106155	0.059234	0.016669	-0.021881	-0.772705	0.015625	0.547363	0.095730	0.001626	-0.026365	0.030941	-0.778392	-0.058673	-0.624265	173.455577	-77.284730	13.855569
62843		9.649828	0.280369	-2.645866	-0.464259	-0.090607	0.186045	0.104588	0.025926	-0.029238	-0.783203	0.007568	0.543457	0.096495	0.002803	-0.026470	0.031282	-0.778320	-0.059055	-0.624301	173.463280	-77.292719	13.906850
62844		9.603661	0.639965	-2.416266	-0.207002	-0.422121	0.099788	0.083593	0.049099	-0.031593	-0.785645	0.014893	0.541992	0.096032	0.006395	-0.024184	0.031551	-0.778178	-0.059387	-0.624434	173.446847	-77.313909	13.972308
62845		9.529413	0.753490	-2.385226	-0.181266	-0.535319	0.023335	0.010027	0.047473	-0.009863	-0.775391	0.011719	0.542236	0.095289	0.007531	-0.023874	0.031589	-0.778060	-0.059394	-0.624578	173.442889	-77.335413	13.979700
62846		9.632005	0.720822	-2.311072	-0.096504	-0.489443	0.106349	-0.068132	0.061093	0.012178	-0.785889	0.017090	0.547607	0.096313	0.007206	-0.023143	0.031408	-0.777916	-0.059080	-0.624795	173.446780	-77.366291	13.935222
62847		9.579113	0.464341	-2.270447	-0.107468	-0.235133	0.039374	-0.107617	0.062197	0.036961	-0.782959	0.020264	0.548340	0.095783	0.004649	-0.022737	0.031139	-0.777784	-0.058536	-0.625024	173.490165	-77.399222	13.825159
62848		9.492552	0.220006	-2.113016	-0.010913	0.018403	-0.085338	-0.098544	0.076049	0.041414	-0.781006	0.021240	0.540039	0.094917	0.002209	-0.021167	0.030936	-0.777607	-0.058011	-0.625304	173.547301	-77.440493	13.708283
62849		9.448339	0.021305	-2.030361	0.028239	0.219309	-0.151164	-0.068523	0.073349	0.037122	-0.780029	0.011475	0.548096	0.094476	0.000224	-0.020338	0.030825	-0.777433	-0.057589	-0.625564	173.611315	-77.479739	13.600516
62850		9.430478	-0.083269	-2.003146	0.032794	0.321629	-0.176873	-0.004522	0.051131	0.022669	-0.782471	0.022461	0.547119	0.094300	-0.000822	-0.020056	0.030921	-0.777314	-0.057436	-0.625722	173.682427	-77.505575	13.524538
62851		9.419113	0.082530	-1.934669	0.115294	0.162408	-0.198646	0.057035	0.031329	-0.009591	-0.781982	0.010254	0.546387	0.094188	0.000826	-0.019361	0.031139	-0.777239	-0.057592	-0.625790	173.710993	-77.517907	13.526449
62852		9.344961	0.294427	-1.876233	0.182794	-0.045455	-0.278551	0.065301	0.009255	-0.016129	-0.789551	0.021240	0.553467	0.093449	0.002943	-0.018766	0.031373	-0.777228	-0.057814	-0.625772	173.734453	-77.517441	13.540257
62853		9.415352	0.372896	-1.915472	0.170363	-0.124345	-0.199548	0.036417	-0.000542	-0.025210	-0.783447	0.013184	0.541992	0.094154	0.003721	-0.019154	0.031452	-0.777251	-0.057971	-0.625724	173.720055	-77.510649	13.573930
62854		9.486321	0.336668	-2.090533	0.012362	-0.104939	-0.093490	0.002027	-0.011014	-0.024189	-0.793457	0.020752	0.541748	0.094865	0.003355	-0.020900	0.031409	-0.777311	-0.058030	-0.625646	173.692310	-77.498133	13.603054
62855		9.389352	0.376006	-2.251792	-0.157407	-0.166605	-0.152494	-0.010209	-0.011356	-0.028526	-0.776611	0.015625	0.547363	0.093895	0.003746	-0.022513	0.031294	-0.777375	-0.058057	-0.625570	173.645871	-77.484970	13.642407
62856		9.318004	0.495200	-2.317419	-0.218841	-0.293914	-0.205057	-0.022903	-0.013571	-0.031884	-0.789795	0.020020	0.539795	0.093182	0.004934	-0.023168	0.031130	-0.777445	-0.058068	-0.625491	173.584999	-77.470497	13.690835
62857		9.386735	0.508561	-2.432686	-0.312374	-0.314727	-0.112648	-0.054776	-0.018355	-0.023691	-0.782471	0.015869	0.550293	0.093870	0.005068	-0.024320	0.030855	-0.777538	-0.057938	-0.625400	173.527628	-77.453636	13.715269
62858		9.563428	0.412810	-2.585481	-0.434190	-0.226239	0.090574	-0.094063	-0.002871	-0.014227	-0.781982	0.017090	0.539551	0.095635	0.004109	-0.025855	0.030472	-0.777590	-0.057656	-0.625380	173.468263	-77.446379	13.720390
62859		9.682654	0.287172	-2.596272	-0.436476	-0.094312	0.206168	-0.109985	0.027639	-0.005095	-0.792725	0.017090	0.539307	0.096823	0.002855	-0.025978	0.030054	-0.777554	-0.057274	-0.625481	173.413430	-77.456890	13.709766
62860		9.615849	0.263940	-2.583553	-0.444548	-0.071544	0.137499	-0.095991	0.048418	-0.004030	-0.784180	0.018311	0.548340	0.096152	0.002625	-0.025860	0.029710	-0.777449	-0.056939	-0.625659	173.363902	-77.479495	13.703678
62861		9.490376	0.273085	-2.518692	-0.411687	-0.078494	0.001077	-0.089025	0.059181	0.000719	-0.775635	0.014160	0.552246	0.094896	0.002720	-0.025216	0.029401	-0.777311	-0.056596	-0.625875	173.326542	-77.508333	13.687661
62862		9.492717	0.211942	-2.423561	-0.332120	-0.006185	-0.018817	-0.094858	0.066251	0.001637	-0.788818	0.020020	0.544434	0.094919	0.002109	-0.024268	0.029085	-0.777151	-0.056240	-0.626121	173.286738	-77.541466	13.672280
62863		9.474841	0.143267	-2.441177	-0.366765	0.059605	-0.034425	-0.081972	0.056291	-0.003569	-0.783447	0.017334	0.547363	0.094742	0.001421	-0.024439	0.028789	-0.777021	-0.055935	-0.626324	173.243131	-77.568365	13.666701
62864		9.490278	0.276294	-2.409621	-0.321558	-0.066975	-0.022892	-0.043821	0.059252	-0.019149	-0.788574	0.015381	0.543213	0.094896	0.002749	-0.024125	0.028603	-0.776869	-0.055820	-0.626531	173.180837	-77.596114	13.704294
62865		9.424279	0.352178	-2.364847	-0.287845	-0.138817	-0.095103	-0.046780	0.060583	-0.027573	-0.787354	0.009033	0.550049	0.094236	0.003503	-0.023678	0.028370	-0.776713	-0.055719	-0.626744	173.093663	-77.623804	13.764023
62866		9.525291	0.286828	-2.409995	-0.323208	-0.071656	0.011360	-0.045102	0.043316	-0.030846	-0.787354	0.018066	0.549316	0.095248	0.002848	-0.024121	0.028139	-0.776608	-0.055648	-0.626891	173.004817	-77.641654	13.828039
62867		9.568045	0.289704	-2.284902	-0.197306	-0.055734	0.026527	-0.023462	0.064544	-0.034499	-0.783936	0.009277	0.547119	0.095674	0.002878	-0.022880	0.027975	-0.776434	-0.055645	-0.627114	172.911070	-77.671058	13.907948
62868		9.487924	0.266833	-2.309923	-0.247063	-0.038500	-0.047181	-0.012933	0.073270	-0.024648	-0.783447	0.010742	0.542236	0.094871	0.002655	-0.023134	0.027896	-0.776232	-0.055647	-0.627367	172.846518	-77.706338	13.965951
62869		9.395184	0.377783	-2.224355	-0.176288	-0.143018	-0.153059	0.013065	0.080336	-0.026761	-0.787842	0.013672	0.546875	0.093943	0.003767	-0.022281	0.027901	-0.776006	-0.055725	-0.627640	172.787893	-77.745224	14.031163
62870		9.413199	0.431474	-2.207089	-0.156243	-0.192734	-0.137763	-0.008027	0.080232	-0.028030	-0.784424	0.011230	0.547363	0.094124	0.004301	-0.022109	0.027833	-0.775780	-0.055754	-0.627919	172.714241	-77.784189	14.101335
62871		9.528855	0.364814	-2.208921	-0.149896	-0.119992	-0.026237	-0.048886	0.088563	-0.016193	-0.786377	0.008057	0.544434	0.095279	0.003635	-0.022132	0.027634	-0.775539	-0.055597	-0.628239	172.644264	-77.828482	14.141962
62872		9.601188	0.215806	-2.255335	-0.206532	0.026953	0.049996	-0.058659	0.093918	-0.013363	-0.792236	0.008057	0.546875	0.096001	0.002145	-0.022599	0.027419	-0.775281	-0.055408	-0.628583	172.574674	-77.876267	14.178282
62873		9.581558	0.226569	-2.253583	-0.216053	0.015877	0.030549	-0.054294	0.094179	-0.010691	-0.787598	0.005859	0.546875	0.095805	0.002254	-0.022582	0.027217	-0.775025	-0.055210	-0.628926	172.513367	-77.924132	14.206617
62874		9.464331	0.294665	-2.143834	-0.133396	-0.044470	-0.105132	-0.042283	0.090516	-0.030566	-0.799805	0.012695	0.533203	0.094634	0.002928	-0.021482	0.027010	-0.774770	-0.055139	-0.629254	172.407732	-77.968672	14.289376
62875		9.465973	0.362788	-2.224165	-0.210879	-0.118490	-0.085167	-0.067128	0.080587	-0.035713	-0.794189	0.009277	0.542236	0.094651	0.003604	-0.022281	0.026677	-0.774551	-0.055001	-0.629551	172.276196	-78.006883	14.382202
62876		9.508270	0.363487	-2.260147	-0.244579	-0.117712	-0.036497	-0.077277	0.074466	-0.038152	-0.789307	0.003174	0.536133	0.095075	0.003608	-0.022638	0.026306	-0.774349	-0.054852	-0.629827	172.134612	-78.041644	14.481190
62877		9.463722	0.432954	-2.205843	-0.200391	-0.179290	-0.089369	-0.082425	0.091226	-0.042298	-0.786621	0.006104	0.534912	0.094628	0.004300	-0.022103	0.025895	-0.774096	-0.054689	-0.630169	171.971099	-78.085263	14.597566
62878		9.525731	0.275116	-2.233630	-0.242617	-0.019180	-0.027745	-0.101463	0.098570	-0.026076	-0.788818	0.008057	0.536133	0.095247	0.002727	-0.022385	0.025476	-0.773825	-0.054414	-0.630544	171.837368	-78.134563	14.674335
62879		9.558118	0.164865	-2.280298	-0.303671	0.089538	0.009956	-0.063861	0.098980	-0.032533	-0.791992	-0.004150	0.538574	0.095570	0.001626	-0.022851	0.025170	-0.773547	-0.054272	-0.630909	171.705916	-78.183254	14.768942
62880		9.508244	0.292310	-2.221998	-0.251136	-0.031141	-0.047167	0.000519	0.098388	-0.041659	-0.787598	0.007080	0.538330	0.095072	0.002903	-0.022267	0.025096	-0.773258	-0.054379	-0.631257	171.586680	-78.231082	14.890569
62881		9.455550	0.399599	-2.178244	-0.215258	-0.133932	-0.104569	0.009818	0.096719	-0.040134	-0.796143	0.004639	0.540039	0.094546	0.003978	-0.021828	0.025048	-0.772976	-0.054496	-0.631594	171.475821	-78.277758	15.006849
62882		9.544241	0.402433	-2.183715	-0.211007	-0.130611	-0.016693	0.006652	0.084735	-0.047838	-0.792725	0.007568	0.534668	0.095434	0.004002	-0.021877	0.024975	-0.772727	-0.054648	-0.631888	171.346949	-78.317220	15.141865
62883		9.596999	0.449399	-2.117138	-0.138673	-0.164587	0.022977	-0.006455	0.096566	-0.048676	-0.789795	-0.000488	0.541016	0.095961	0.004470	-0.021218	0.024839	-0.772445	-0.054749	-0.632230	171.201557	-78.362953	15.284212
62884		9.626177	0.354367	-2.057909	-0.096112	-0.059673	0.036731	-0.032027	0.112803	-0.042666	-0.790527	0.000000	0.529053	0.096251	0.003520	-0.020634	0.024640	-0.772114	-0.054755	-0.632641	171.050649	-78.418625	15.419054
62885		9.585749	0.276968	-2.093385	-0.158019	0.013808	0.001608	-0.030129	0.112943	-0.043839	-0.803223	-0.003174	0.532959	0.095846	0.002746	-0.020988	0.024431	-0.771784	-0.054758	-0.633052	170.895289	-78.473901	15.557282
62886		9.445591	0.353820	-1.990460	-0.086218	-0.056636	-0.153719	-0.010697	0.111901	-0.043146	-0.792725	0.000732	0.531250	0.094446	0.003517	-0.019958	0.024312	-0.771452	-0.054834	-0.633454	170.752928	-78.528875	15.695819
62887		9.311369	0.435222	-1.979812	-0.101352	-0.141098	-0.284808	-0.017560	0.092247	-0.045857	-0.798096	0.005859	0.531494	0.093106	0.004329	-0.019841	0.024140	-0.771185	-0.054887	-0.633781	170.605943	-78.572114	15.832848
62888		9.409224	0.485568	-1.883668	0.008879	-0.172606	-0.206044	-0.035160	0.083040	-0.046052	-0.794189	-0.006592	0.535400	0.094086	0.004831	-0.018877	0.023910	-0.770946	-0.054900	-0.634079	170.452410	-78.610361	15.968439
62889		9.566380	0.418455	-1.926935	-0.019154	-0.098426	-0.045716	-0.079046	0.087065	-0.046321	-0.789063	0.005371	0.525879	0.095656	0.004155	-0.019313	0.023498	-0.770703	-0.054761	-0.634403	170.269181	-78.650473	16.106515
62890		9.690690	0.316376	-1.914932	-0.004230	0.015267	0.070443	-0.084091	0.090889	-0.051175	-0.800049	0.006348	0.524414	0.096899	0.003131	-0.019195	0.023065	-0.770443	-0.054638	-0.634744	170.067177	-78.692480	16.262910
62891		9.621049	0.375210	-1.881662	0.012543	-0.038643	-0.002267	-0.083125	0.099549	-0.058109	-0.798584	-0.007568	0.527588	0.096202	0.003716	-0.018866	0.022606	-0.770156	-0.054534	-0.635118	169.839649	-78.738265	16.444343
62892		9.472261	0.341029	-1.958376	-0.102677	-0.016047	-0.134647	-0.113442	0.077964	-0.045312	-0.801025	-0.008301	0.531494	0.094716	0.003378	-0.019623	0.022075	-0.769942	-0.054296	-0.635416	169.641336	-78.773353	16.579783
62893		9.351472	0.324834	-1.941982	-0.117959	-0.000164	-0.256908	-0.097284	0.067519	-0.049916	-0.795166	-0.008057	0.530029	0.093509	0.003216	-0.019453	0.021575	-0.769760	-0.054113	-0.635669	169.442774	-78.801678	16.722488
62894		9.283858	0.435203	-1.941553	-0.123924	-0.108473	-0.319431	-0.097775	0.058631	-0.052822	-0.795166	-0.005127	0.539063	0.092834	0.004318	-0.019445	0.021075	-0.769603	-0.053956	-0.635889	169.240483	-78.824899	16.871106
62895		9.414702	0.339628	-2.024002	-0.195823	-0.008833	-0.178887	-0.125607	0.047292	-0.052755	-0.794189	-0.001221	0.532715	0.094143	0.003359	-0.020264	0.020451	-0.769487	-0.053697	-0.636072	169.027080	-78.841333	17.012452
62896		9.622308	0.351122	-2.055269	-0.191730	-0.004560	0.031064	-0.125607	0.050491	-0.073153	-0.800049	-0.006836	0.534912	0.096219	0.003463	-0.020579	0.019778	-0.769353	-0.053531	-0.636270	168.754004	-78.857505	17.216946
62897		9.656062	0.364917	-2.058995	-0.194302	-0.008470	0.065284	-0.148729	0.076551	-0.073337	-0.794922	-0.011230	0.522705	0.096554	0.003598	-0.020630	0.019009	-0.769140	-0.053277	-0.636572	168.450521	-78.887781	17.436901
62898		9.584051	0.353916	-2.176329	-0.331192	-0.005046	0.016147	-0.173643	0.072301	-0.060484	-0.804443	-0.007568	0.526855	0.095834	0.003491	-0.021801	0.018197	-0.768943	-0.052906	-0.636865	168.171447	-78.917260	17.619422
62899		9.441159	0.426409	-2.313474	-0.491734	-0.091083	-0.095725	-0.180548	0.079191	-0.048261	-0.801025	-0.013672	0.530518	0.094403	0.004220	-0.023176	0.017386	-0.768730	-0.052454	-0.637182	167.917248	-78.951568	17.770486
62900		9.336602	0.377836	-2.376070	-0.585731	-0.048013	-0.189008	-0.209640	0.089552	-0.038258	-0.803467	-0.013916	0.523926	0.093356	0.003736	-0.023806	0.016511	-0.768485	-0.051881	-0.637547	167.668167	-78.993081	17.901393
62901		9.320011	0.250335	-2.305496	-0.541755	0.091022	-0.224216	-0.203034	0.093818	-0.043613	-0.800781	-0.014160	0.519043	0.093190	0.002460	-0.023101	0.015631	-0.768227	-0.051337	-0.637925	167.402457	-79.035866	18.050846
62902		9.497829	0.245921	-2.263197	-0.477964	0.116934	-0.058245	-0.139952	0.093709	-0.067346	-0.798096	-0.014893	0.521484	0.094968	0.002411	-0.022678	0.014932	-0.767954	-0.051098	-0.638288	167.103502	-79.075788	18.273183
62903		9.649014	0.413517	-2.118467	-0.302234	-0.020260	0.070156	-0.060886	0.098237	-0.085955	-0.804932	-0.022217	0.529053	0.096481	0.004087	-0.021233	0.014465	-0.767659	-0.051171	-0.638649	166.790260	-79.115251	18.554131
62904		9.680076	0.727392	-1.946449	-0.107391	-0.307702	0.082534	-0.033048	0.095681	-0.093680	-0.794434	-0.020752	0.527832	0.096795	0.007225	-0.019512	0.014093	-0.767365	-0.051374	-0.638994	166.470873	-79.152322	18.859584
62905		9.586761	1.030817	-1.825457	0.015030	-0.596929	-0.017572	-0.056846	0.082143	-0.083651	-0.800049	-0.027588	0.522461	0.095864	0.010263	-0.018297	0.013642	-0.767121	-0.051449	-0.639291	166.173827	-79.182541	19.125837
62906		9.461369	1.165035	-1.640362	0.177976	-0.715261	-0.167880	-0.143718	0.088898	-0.061520	-0.802490	-0.025635	0.517578	0.094610	0.011609	-0.016454	0.012946	-0.766864	-0.051175	-0.639636	165.885759	-79.219684	19.334783
62907		9.565937	0.829511	-1.436303	0.354024	-0.352221	-0.116874	-0.288296	0.095102	-0.026243	-0.803223	-0.029053	0.521484	0.095654	0.008262	-0.014420	0.011794	-0.766606	-0.050288	-0.640036	165.610664	-79.264687	19.443550
62908		9.720597	0.346158	-1.370686	0.389695	0.147480	0.001332	-0.342649	0.109967	-0.005566	-0.803223	-0.027344	0.512207	0.097199	0.003435	-0.013766	0.010519	-0.766305	-0.049163	-0.640506	165.353081	-79.321176	19.505411
62909		9.786891	0.025572	-1.347720	0.384990	0.475320	0.047641	-0.302824	0.101448	-0.004177	-0.808838	-0.029297	0.517822	0.097862	0.000233	-0.013527	0.009384	-0.766030	-0.048145	-0.640931	165.126490	-79.372743	19.556454
62910		9.594992	0.172255	-1.495783	0.211117	0.310065	-0.107524	-0.214042	0.066192	-0.035269	-0.811035	-0.030762	0.516602	0.095945	0.001690	-0.014991	0.008497	-0.765852	-0.047547	-0.641200	164.886443	-79.400504	19.675422
62911		9.381367	0.514604	-1.692404	0.006162	-0.050969	-0.266146	-0.166879	0.004614	-0.086403	-0.802490	-0.030029	0.516113	0.093815	0.005091	-0.016930	0.007596	-0.765859	-0.047285	-0.641223	164.570454	-79.386066	19.896746
62912		9.357429	0.597495	-1.859208	-0.154763	-0.135936	-0.255874	-0.195438	-0.026497	-0.101675	-0.799316	-0.031006	0.512695	0.093580	0.005909	-0.018585	0.006545	-0.765960	-0.047004	-0.641134	164.220568	-79.352208	20.138323
62913		9.593609	0.466390	-1.984469	-0.245371	0.013311	-0.007965	-0.169116	-0.032148	-0.104157	-0.795898	-0.045410	0.514648	0.095942	0.004597	-0.019833	0.005571	-0.766079	-0.046805	-0.641016	163.884303	-79.314237	20.379174
62914		9.823987	0.345785	-2.004080	-0.232434	0.158628	0.215644	-0.073512	-0.010405	-0.104834	-0.799072	-0.041504	0.517578	0.098243	0.003399	-0.020037	0.004981	-0.766123	-0.046927	-0.640959	163.585037	-79.288211	20.640383
62915		9.810353	0.610903	-1.929157	-0.139981	-0.090916	0.202801	0.026062	0.004725	-0.111834	-0.801514	-0.034424	0.521729	0.098106	0.006057	-0.019293	0.004735	-0.766116	-0.047377	-0.640936	163.309816	-79.268755	20.932259
62916		9.557247	1.032828	-1.788004	-0.012032	-0.509265	-0.048203	0.067342	0.007353	-0.109822	-0.792969	-0.037354	0.521240	0.095577	0.010282	-0.017880	0.004672	-0.766098	-0.047969	-0.640914	163.063646	-79.251180	21.221604
62917		9.464949	1.205384	-1.590145	0.180374	-0.666336	-0.164359	0.005837	0.000225	-0.076497	-0.799805	-0.042480	0.515381	0.094654	0.012018	-0.015901	0.004463	-0.766115	-0.048222	-0.640877	162.884624	-79.234736	21.404340
62918		9.673379	1.020088	-1.529466	0.261291	-0.458146	0.019705	-0.090522	0.005664	-0.043547	-0.805176	-0.048584	0.516602	0.096736	0.010173	-0.015302	0.004008	-0.766121	-0.048055	-0.640885	162.741633	-79.227105	21.496613
62919		9.772881	0.671144	-1.485944	0.292491	-0.096915	0.090480	-0.116542	0.018154	-0.031979	-0.797363	-0.041016	0.514893	0.097729	0.006687	-0.014872	0.003475	-0.766093	-0.047742	-0.640945	162.604901	-79.227879	21.564479
62920		9.596112	0.620754	-1.432737	0.308978	-0.051290	-0.095418	-0.052612	0.006501	-0.049559	-0.801270	-0.042236	0.512207	0.095962	0.006180	-0.014332	0.003145	-0.766094	-0.047719	-0.640947	162.465869	-79.219589	21.674834
62921		9.327145	0.851881	-1.370677	0.342918	-0.290017	-0.357615	-0.005820	-0.039296	-0.082613	-0.802002	-0.040039	0.514893	0.093278	0.008480	-0.013689	0.002863	-0.766236	-0.047959	-0.640761	162.300063	-79.180156	21.837269
62922		9.371779	0.965355	-1.474543	0.264025	-0.398213	-0.288605	-0.020632	-0.093191	-0.104228	-0.799072	-0.041504	0.520508	0.093730	0.009603	-0.014703	0.002457	-0.766543	-0.048249	-0.640374	162.115908	-79.107789	22.012256
62923		9.589099	0.846099	-1.542556	0.235569	-0.258490	-0.069800	-0.047194	-0.102446	-0.101761	-0.807373	-0.039551	0.513672	0.095903	0.008409	-0.015378	0.001940	-0.766882	-0.048431	-0.639955	161.933401	-79.030370	22.167741
62924		9.786212	0.685553	-1.517647	0.291664	-0.073760	0.109644	-0.028158	-0.085004	-0.081593	-0.795166	-0.059326	0.518066	0.097871	0.006813	-0.015136	0.001579	-0.767167	-0.048611	-0.639601	161.805355	-78.966303	22.281261
62925		9.831073	0.647327	-1.394211	0.426068	-0.017199	0.128692	0.007367	-0.072861	-0.071127	-0.798584	-0.048828	0.513184	0.098318	0.006439	-0.013906	0.001374	-0.767418	-0.048847	-0.639282	161.715817	-78.910343	22.373544
62926		9.678383	0.796518	-1.289004	0.521896	-0.164218	-0.031700	0.039446	-0.080938	-0.063344	-0.793701	-0.052490	0.525146	0.096792	0.007937	-0.012849	0.001333	-0.767694	-0.049172	-0.638926	161.675485	-78.851707	22.437193
62927		9.558339	1.017379	-1.281157	0.535525	-0.387362	-0.137905	0.047671	-0.110667	-0.056661	-0.802002	-0.052246	0.524170	0.095593	0.010150	-0.012756	0.001319	-0.768069	-0.049482	-0.638451	161.684677	-78.777776	22.452341
62928		9.483386	1.105829	-1.311148	0.512474	-0.477651	-0.200936	-0.027569	-0.144786	-0.056848	-0.801758	-0.047607	0.522949	0.094846	0.011030	-0.013044	0.001025	-0.768550	-0.049569	-0.637866	161.682295	-78.685578	22.438176
62929		9.493931	0.941002	-1.544167	0.287692	-0.321578	-0.157716	-0.106448	-0.159947	-0.053013	-0.786377	-0.049072	0.528076	0.094954	0.009377	-0.015371	0.000419	-0.769082	-0.049373	-0.637240	161.657505	-78.585514	22.398025
62930		9.540181	0.752787	-1.673101	0.171276	-0.131377	-0.100099	-0.107461	-0.178514	-0.066135	-0.784668	-0.052246	0.534912	0.095419	0.007487	-0.016650	-0.000220	-0.769667	-0.049241	-0.636543	161.614588	-78.473301	22.378503
62931		9.540103	0.698045	-1.768485	0.091495	-0.073985	-0.085689	-0.076992	-0.194554	-0.078089	-0.787354	-0.050537	0.533936	0.095421	0.006936	-0.017595	-0.000801	-0.770302	-0.049235	-0.635775	161.570614	-78.349903	22.375009
62932		9.655145	0.646871	-1.961465	-0.060699	-0.016742	0.060691	-0.053777	-0.199469	-0.081266	-0.786621	-0.056396	0.535400	0.096574	0.006424	-0.019520	-0.001287	-0.770948	-0.049331	-0.634983	161.537483	-78.223563	22.376889
62933		9.648946	0.636043	-1.995369	-0.076297	0.000238	0.060627	-0.042750	-0.194952	-0.069019	-0.781494	-0.059326	0.534180	0.096511	0.006323	-0.019861	-0.001708	-0.771584	-0.049398	-0.634204	161.537528	-78.101595	22.348427
62934		9.510324	0.618567	-2.044879	-0.133795	0.011112	-0.066284	-0.015877	-0.180223	-0.063119	-0.784668	-0.057373	0.535645	0.095124	0.006154	-0.020364	-0.001985	-0.772173	-0.049545	-0.633475	161.556320	-77.989006	22.319430
62935		9.356132	0.630710	-2.012435	-0.112864	-0.005125	-0.222479	-0.012055	-0.181417	-0.051095	-0.791260	-0.060059	0.531250	0.093581	0.006282	-0.020040	-0.002229	-0.772769	-0.049639	-0.632739	161.607111	-77.877633	22.256832
62936		9.361559	0.595882	-2.019865	-0.103474	0.035118	-0.217806	-0.034703	-0.188930	-0.050220	-0.782471	-0.058838	0.530029	0.093636	0.005932	-0.020111	-0.002540	-0.773386	-0.049677	-0.631981	161.653597	-77.762631	22.188444
62937		9.430823	0.606710	-2.091821	-0.140394	0.032599	-0.134701	-0.033118	-0.199926	-0.071796	-0.776367	-0.064941	0.537354	0.094331	0.006030	-0.020825	-0.002934	-0.774034	-0.049785	-0.631176	161.654231	-77.637442	22.164924
62938		9.526110	0.702655	-2.155215	-0.156037	-0.050100	-0.021950	-0.010793	-0.213946	-0.091643	-0.776123	-0.062744	0.534180	0.095287	0.006982	-0.021451	-0.003289	-0.774719	-0.050057	-0.630313	161.631200	-77.501358	22.181684
62939		9.585664	0.857923	-2.130168	-0.087395	-0.187914	0.042037	-0.024055	-0.206637	-0.103499	-0.777100	-0.062500	0.532959	0.095883	0.008527	-0.021204	-0.003752	-0.775378	-0.050314	-0.629478	161.565225	-77.366786	22.231399
62940		9.674396	0.758741	-2.141720	-0.068096	-0.071688	0.124454	-0.082600	-0.198305	-0.088124	-0.779541	-0.056885	0.531982	0.096768	0.007536	-0.021324	-0.004371	-0.776011	-0.050347	-0.628692	161.498460	-77.239834	22.250833
62941		9.650249	0.577992	-2.311470	-0.233208	0.106305	0.124040	-0.099250	-0.181779	-0.062798	-0.773438	-0.066650	0.540039	0.096525	0.005738	-0.023030	-0.004987	-0.776598	-0.050213	-0.627972	161.469006	-77.126152	22.219498
62942		9.535951	0.542933	-2.456976	-0.383464	0.131302	0.041325	-0.036589	-0.176957	-0.059689	-0.762207	-0.062500	0.545654	0.095383	0.005396	-0.024486	-0.005333	-0.777170	-0.050281	-0.627256	161.479875	-77.015970	22.186343
62943		9.277816	0.704532	-2.438179	-0.389468	-0.043136	-0.201996	-0.007861	-0.180661	-0.073174	-0.776367	-0.062012	0.549805	0.092803	0.007010	-0.024298	-0.005629	-0.777753	-0.050472	-0.626515	161.477106	-76.900999	22.180947
62944		9.276383	0.696546	-2.397677	-0.332564	-0.025449	-0.211957	-0.025652	-0.192976	-0.074399	-0.770508	-0.075439	0.541992	0.092789	0.006928	-0.023888	-0.005982	-0.778370	-0.050630	-0.625732	161.471946	-76.779436	22.170658
62945		9.466167	0.596008	-2.384378	-0.267673	0.099908	-0.036843	-0.016067	-0.190550	-0.079846	-0.772217	-0.067383	0.546875	0.094687	0.005920	-0.023754	-0.006334	-0.778980	-0.050820	-0.624954	161.456813	-76.657866	22.172989
62946		9.517591	0.756128	-2.324755	-0.168194	-0.042706	0.012312	0.026916	-0.187623	-0.103118	-0.768311	-0.072510	0.550537	0.095202	0.007515	-0.023157	-0.006571	-0.779573	-0.051254	-0.624176	161.412387	-76.533974	22.234019
62947		9.428036	0.970068	-2.272237	-0.102585	-0.250187	-0.070059	-0.012172	-0.180562	-0.110233	-0.762939	-0.067139	0.550781	0.094306	0.009647	-0.022638	-0.007000	-0.780142	-0.051575	-0.623433	161.324277	-76.412258	22.313709
62948		9.457410	0.845432	-2.202970	-0.020282	-0.109043	-0.065991	-0.064508	-0.177909	-0.095057	-0.760498	-0.072021	0.554443	0.094598	0.008402	-0.021948	-0.007566	-0.780702	-0.051693	-0.622716	161.240577	-76.295082	22.361311
62949		9.555822	0.633919	-2.192490	0.013789	0.120624	0.011153	-0.065284	-0.179366	-0.075878	-0.762207	-0.071045	0.558350	0.095580	0.006296	-0.021841	-0.008094	-0.781273	-0.051714	-0.621991	161.199942	-76.180302	22.360940
62950		9.448327	0.621903	-2.249076	-0.047380	0.128562	-0.081440	0.002516	-0.193877	-0.085487	-0.753662	-0.076904	0.552002	0.094508	0.006179	-0.022399	-0.008372	-0.781886	-0.052003	-0.621193	161.189123	-76.056215	22.373073
62951		9.222889	0.861150	-2.252732	-0.063299	-0.121190	-0.280672	0.079030	-0.223953	-0.115251	-0.749512	-0.077148	0.556152	0.092259	0.008567	-0.022421	-0.008472	-0.782589	-0.052623	-0.620253	161.178975	-75.909978	22.426309
62952		9.277724	1.007605	-2.140225	0.092067	-0.245267	-0.241725	0.072372	-0.239969	-0.133515	-0.752441	-0.073242	0.564697	0.092810	0.010022	-0.021287	-0.008638	-0.783333	-0.053314	-0.619252	161.139355	-75.752009	22.509442
62953		9.598332	0.765598	-2.205610	0.108149	0.034236	0.064858	0.041604	-0.243809	-0.130876	-0.747070	-0.076416	0.557373	0.096015	0.007598	-0.021937	-0.008938	-0.784089	-0.053878	-0.618241	161.090921	-75.592093	22.580047
62954		9.725095	0.514569	-2.350252	0.002253	0.300381	0.201085	0.061451	-0.223796	-0.128435	-0.755615	-0.073242	0.561523	0.097280	0.005090	-0.023392	-0.009127	-0.784780	-0.054515	-0.617305	161.046844	-75.443802	22.661437
62955		9.412703	0.697165	-2.310223	0.005072	0.101468	-0.096115	0.151326	-0.218486	-0.130757	-0.748535	-0.080078	0.559082	0.094157	0.006928	-0.022994	-0.008988	-0.785460	-0.055420	-0.616361	161.045791	-75.297614	22.748369
62956		9.241522	0.952600	-2.305237	0.012895	-0.159341	-0.241810	0.152167	-0.238284	-0.130660	-0.747070	-0.076904	0.564453	0.092449	0.009483	-0.022935	-0.008832	-0.786196	-0.056345	-0.615340	161.061149	-75.141052	22.822155
62957		9.428000	0.880147	-2.451945	-0.064680	-0.066711	-0.031830	0.084333	-0.270804	-0.123146	-0.730469	-0.078125	0.570801	0.094318	0.008754	-0.024388	-0.008948	-0.787032	-0.057010	-0.614207	161.075290	-74.967933	22.853555
62958		9.532485	0.779248	-2.631822	-0.193626	0.044841	0.105095	0.133815	-0.276580	-0.137135	-0.739746	-0.077881	0.577637	0.095366	0.007745	-0.026181	-0.008895	-0.787880	-0.057902	-0.613037	161.094831	-74.789422	22.912234
62959		9.521372	0.968348	-2.529599	-0.054103	-0.127229	0.085489	0.177406	-0.257744	-0.148937	-0.730713	-0.081055	0.578369	0.095253	0.009635	-0.025165	-0.008721	-0.788669	-0.058952	-0.611924	161.102800	-74.618597	23.005208
62960		9.693142	0.785655	-2.374177	0.149282	0.092451	0.196312	0.121770	-0.239583	-0.139907	-0.739746	-0.085205	0.580322	0.096965	0.007803	-0.023621	-0.008712	-0.789397	-0.059820	-0.610899	161.086372	-74.459628	23.094140
62961		9.850053	0.458510	-2.428417	0.133255	0.441562	0.332174	0.130831	-0.237011	-0.125847	-0.725586	-0.078613	0.581299	0.098532	0.004539	-0.024164	-0.008647	-0.790123	-0.060636	-0.609880	161.100689	-74.304325	23.152647
62962		9.670701	0.518426	-2.534306	0.016746	0.365257	0.191321	0.245386	-0.235565	-0.124210	-0.732422	-0.077637	0.579590	0.096740	0.005155	-0.025223	-0.008101	-0.790846	-0.061818	-0.608832	161.183896	-74.150462	23.211778
62963		9.467578	0.782128	-2.504576	0.044438	0.089903	0.011239	0.282265	-0.258396	-0.116864	-0.728516	-0.088867	0.578857	0.094713	0.007801	-0.024912	-0.007415	-0.791641	-0.063061	-0.607678	161.315704	-73.985267	23.238791
62964		9.570479	0.667406	-2.594962	0.002446	0.215310	0.123453	0.236414	-0.287162	-0.118076	-0.724854	-0.070801	0.591064	0.095746	0.006648	-0.025804	-0.006901	-0.792516	-0.064190	-0.606424	161.437065	-73.804578	23.252958
62965		9.609650	0.462042	-2.557089	0.060393	0.433395	0.132463	0.259669	-0.291178	-0.133203	-0.717773	-0.086182	0.588867	0.096137	0.004589	-0.025425	-0.006365	-0.793399	-0.065424	-0.605142	161.544248	-73.618639	23.291984
62966		9.586056	0.453937	-2.444024	0.193320	0.454868	0.078087	0.317942	-0.302476	-0.147847	-0.722656	-0.081787	0.593262	0.095901	0.004507	-0.024288	-0.005624	-0.794306	-0.066917	-0.603795	161.664856	-73.424258	23.355675
62967		9.710715	0.608075	-2.405877	0.311079	0.328796	0.199855	0.301662	-0.324582	-0.164280	-0.713135	-0.077881	0.584229	0.097151	0.006037	-0.023892	-0.005028	-0.795273	-0.068398	-0.602360	161.758350	-73.214613	23.433767
62968		9.640012	0.873376	-2.609461	0.159837	0.053925	0.210951	0.255998	-0.339644	-0.157273	-0.720215	-0.088135	0.599854	0.096451	0.008691	-0.025920	-0.004574	-0.796279	-0.069740	-0.600879	161.847841	-72.998379	23.493025
62969		9.478503	0.950299	-2.793590	-0.016157	-0.043916	0.114394	0.154403	-0.332964	-0.133102	-0.705566	-0.082031	0.601807	0.094838	0.009461	-0.027771	-0.004473	-0.797270	-0.070653	-0.599456	161.917043	-72.789806	23.508511
62970		9.530751	0.637803	-2.732793	0.056595	0.287546	0.118283	0.055280	-0.332116	-0.106984	-0.706543	-0.073975	0.605957	0.095356	0.006335	-0.027168	-0.004665	-0.798260	-0.071191	-0.598072	161.974856	-72.586646	23.480623
62971		9.763439	0.348991	-2.732680	0.123321	0.612750	0.312692	0.054476	-0.338311	-0.107402	-0.698242	-0.088135	0.599365	0.097682	0.003445	-0.027161	-0.004886	-0.799269	-0.071703	-0.596660	162.033285	-72.379726	23.447543
62972		9.850147	0.245585	-2.547664	0.347652	0.751677	0.330798	0.124689	-0.345333	-0.124127	-0.699463	-0.086426	0.607910	0.098547	0.002411	-0.025305	-0.004856	-0.800289	-0.072516	-0.595194	162.106884	-72.166319	23.444768
62973		9.665550	0.479457	-2.445433	0.456061	0.518167	0.145036	0.198353	-0.378941	-0.150492	-0.702148	-0.081787	0.613281	0.096705	0.004746	-0.024266	-0.004622	-0.801398	-0.073655	-0.593561	162.195380	-71.929708	23.470793
62974		9.632996	0.745381	-2.289538	0.665047	0.277467	0.090482	0.221441	-0.402577	-0.170461	-0.693359	-0.083740	0.617432	0.096382	0.007397	-0.022693	-0.004364	-0.802565	-0.074939	-0.591823	162.275998	-71.676965	23.518976
62975		9.702144	0.861158	-2.321072	0.711363	0.185051	0.173308	0.209901	-0.435811	-0.184276	-0.691406	-0.089600	0.616699	0.097080	0.008546	-0.022990	-0.004229	-0.803823	-0.076215	-0.589951	162.343845	-71.403432	23.569386
62976		9.745365	1.057582	-2.376211	0.740511	0.010353	0.246553	0.237755	-0.447565	-0.217629	-0.691162	-0.080322	0.616211	0.097518	0.010498	-0.023531	-0.004061	-0.805094	-0.077735	-0.588017	162.380688	-71.117970	23.673817
62977		9.882549	0.994249	-2.381164	0.815395	0.110360	0.367980	0.188263	-0.445020	-0.203123	-0.680420	-0.081299	0.619385	0.098888	0.009864	-0.023582	-0.004048	-0.806358	-0.079052	-0.586107	162.411798	-70.836233	23.754573
62978		9.848387	0.577714	-2.536943	0.652981	0.523581	0.339152	0.162843	-0.455851	-0.195569	-0.675537	-0.083008	0.622314	0.098547	0.005701	-0.025140	-0.004120	-0.807649	-0.080261	-0.584161	162.446384	-70.550100	23.816274
62979		9.584624	0.544417	-2.684234	0.476706	0.525972	0.130271	0.261490	-0.474712	-0.188344	-0.687500	-0.082764	0.628906	0.095915	0.005389	-0.026608	-0.003804	-0.808997	-0.081701	-0.582094	162.557032	-70.254716	23.853091
62980		9.404478	0.747349	-2.548971	0.624204	0.328966	-0.065795	0.297906	-0.508960	-0.188609	-0.670898	-0.077148	0.638916	0.094116	0.007422	-0.025239	-0.003331	-0.810436	-0.083274	-0.579869	162.703715	-69.940806	23.878104
62981		9.383688	0.901927	-2.632221	0.612705	0.183475	-0.046095	0.225593	-0.548614	-0.202768	-0.665771	-0.083252	0.642334	0.093918	0.008954	-0.026055	-0.003231	-0.811977	-0.084666	-0.577507	162.804248	-69.602618	23.904034
62982		9.372195	0.956500	-2.658757	0.646835	0.146717	-0.046332	0.143437	-0.574302	-0.216983	-0.666016	-0.081055	0.635742	0.093808	0.009482	-0.026311	-0.003495	-0.813574	-0.085905	-0.575070	162.848473	-69.248169	23.944059
62983		9.333954	1.000297	-2.705028	0.653531	0.117944	-0.065937	0.092443	-0.590001	-0.226863	-0.658691	-0.082275	0.644287	0.093430	0.009909	-0.026770	-0.004024	-0.815206	-0.087007	-0.572585	162.856003	-68.883289	23.987823
62984		9.440388	0.957290	-2.696290	0.748427	0.203221	0.021209	0.019883	-0.611863	-0.225133	-0.651367	-0.092529	0.652100	0.094496	0.009469	-0.026673	-0.004830	-0.816887	-0.087921	-0.570036	162.835368	-68.506904	24.021677
62985		9.590372	0.883362	-2.697025	0.848606	0.326324	0.147357	-0.012720	-0.656893	-0.213710	-0.644775	-0.087891	0.657715	0.096001	0.008729	-0.026656	-0.005757	-0.818693	-0.088696	-0.567312	162.831587	-68.107690	24.017423
62986		9.385484	1.063800	-2.781712	0.789236	0.137703	0.001315	-0.026124	-0.683840	-0.199103	-0.644531	-0.087646	0.652588	0.093960	0.010541	-0.027497	-0.006709	-0.820570	-0.089369	-0.564476	162.850973	-67.696301	23.979821
62987		9.176567	1.121871	-2.732434	0.834837	0.079622	-0.209017	-0.100092	-0.692898	-0.175090	-0.639648	-0.094727	0.668945	0.091869	0.011125	-0.027012	-0.007900	-0.822470	-0.089735	-0.561630	162.862268	-67.283922	23.905024
62988		9.178443	0.943009	-2.946437	0.677856	0.264853	-0.154297	-0.157515	-0.729298	-0.178082	-0.638672	-0.090576	0.665283	0.091899	0.009325	-0.029137	-0.009353	-0.824457	-0.089948	-0.558652	162.850063	-66.851190	23.819754
62989		9.200328	0.909885	-3.245177	0.474155	0.306901	-0.030786	-0.132123	-0.759437	-0.224315	-0.627441	-0.090332	0.673340	0.092136	0.008974	-0.032108	-0.010843	-0.826496	-0.090420	-0.555527	162.804332	-66.394100	23.786600
62990		9.179824	0.978616	-3.464557	0.345653	0.252577	0.038516	-0.102564	-0.771946	-0.250319	-0.616211	-0.098389	0.675049	0.091943	0.009654	-0.034296	-0.012289	-0.828546	-0.091079	-0.552327	162.748542	-65.925820	23.782815
62991		9.280050	0.687586	-3.581510	0.308977	0.581581	0.136436	-0.128277	-0.779369	-0.237214	-0.612305	-0.098145	0.684570	0.092947	0.006743	-0.035457	-0.013831	-0.830610	-0.091580	-0.549098	162.697072	-65.455626	23.753592
62992		9.290897	0.576432	-3.639599	0.319328	0.722034	0.151040	-0.053490	-0.779777	-0.223022	-0.607910	-0.104736	0.689941	0.093056	0.005651	-0.036035	-0.015000	-0.832669	-0.092257	-0.545826	162.705819	-64.987715	23.709666
62993		9.053729	0.867925	-3.533986	0.438208	0.433004	-0.074497	0.034388	-0.769731	-0.215990	-0.607422	-0.103271	0.689941	0.090682	0.008587	-0.034990	-0.015780	-0.834697	-0.093144	-0.542547	162.767901	-64.526462	23.662286
62994		8.756112	1.173587	-3.520456	0.448401	0.110411	-0.313916	-0.005978	-0.780331	-0.219376	-0.598389	-0.098389	0.700195	0.087710	0.011639	-0.034863	-0.016742	-0.836735	-0.093932	-0.539232	162.805127	-64.058839	23.616629
62995		8.482714	1.366232	-3.779010	0.204251	-0.115343	-0.429277	-0.065918	-0.816629	-0.232068	-0.589355	-0.105469	0.697021	0.084996	0.013551	-0.037448	-0.018027	-0.838848	-0.094576	-0.535784	162.804771	-63.569142	23.569893
62996		8.343928	1.534094	-3.988142	0.056409	-0.286254	-0.442833	-0.110830	-0.843999	-0.242106	-0.584229	-0.107910	0.700439	0.083625	0.015218	-0.039537	-0.019519	-0.841007	-0.095169	-0.532230	162.776839	-63.062819	23.529539
62997		8.439876	1.382590	-4.051066	0.093885	-0.088101	-0.350287	-0.184554	-0.859412	-0.239311	-0.570313	-0.114014	0.707520	0.084588	0.013688	-0.040160	-0.021320	-0.843183	-0.095551	-0.528637	162.714622	-62.548546	23.480061
62998		8.719659	1.078286	-4.026917	0.267972	0.301355	-0.156188	-0.218321	-0.849975	-0.220849	-0.569580	-0.115723	0.713135	0.087379	0.010643	-0.039910	-0.023209	-0.845323	-0.095764	-0.525090	162.649469	-62.042615	23.411813
62999		8.787331	0.947165	-3.940954	0.431992	0.483906	-0.157426	-0.159722	-0.823736	-0.210010	-0.558350	-0.115479	0.718506	0.088045	0.009348	-0.039055	-0.024810	-0.847388	-0.096087	-0.521618	162.620000	-61.552913	23.340857
63000		8.535477	1.177652	-3.773593	0.576695	0.252654	-0.427364	-0.085467	-0.814320	-0.218014	-0.550293	-0.110840	0.722412	0.085520	0.011667	-0.037393	-0.026111	-0.849419	-0.096637	-0.518138	162.621196	-61.066998	23.283115
63001		8.142474	1.535779	-3.664715	0.620781	-0.136814	-0.774766	-0.067958	-0.842758	-0.230050	-0.548340	-0.117188	0.720215	0.081596	0.015252	-0.036309	-0.027405	-0.851507	-0.097244	-0.514517	162.627856	-60.563447	23.225670
63002		7.868646	1.591524	-3.844046	0.419861	-0.222423	-0.924552	-0.148485	-0.877307	-0.225369	-0.533936	-0.126953	0.730225	0.078872	0.015798	-0.038107	-0.029023	-0.853655	-0.097651	-0.510779	162.602829	-60.041835	23.155980
63003		7.840556	1.315580	-3.958878	0.342931	0.070369	-0.938305	-0.180460	-0.910187	-0.226927	-0.530273	-0.125977	0.726074	0.078600	0.013031	-0.039243	-0.030798	-0.855862	-0.097976	-0.506906	162.566784	-59.502031	23.077452
63004		8.183664	1.151885	-4.001455	0.523107	0.331532	-0.651540	-0.092882	-0.944067	-0.250414	-0.527832	-0.131104	0.732666	0.082039	0.011398	-0.039633	-0.032273	-0.858136	-0.098615	-0.502828	162.568030	-58.939655	23.013491
63005		8.740979	1.407171	-4.071400	0.849366	0.226962	-0.107668	-0.017282	-0.973557	-0.289510	-0.512939	-0.123291	0.741943	0.087627	0.013941	-0.040289	-0.033536	-0.860456	-0.099605	-0.498568	162.584342	-58.354493	22.982204
63006		9.053077	1.703788	-3.869852	1.307754	0.047902	0.093042	-0.033861	-0.970376	-0.309437	-0.508057	-0.126221	0.746582	0.090743	0.016891	-0.038261	-0.034917	-0.862733	-0.100638	-0.494313	162.572266	-57.767604	22.972997
63007		8.979222	1.800684	-3.473116	1.715239	-0.007868	-0.169628	-0.129018	-0.932577	-0.263384	-0.496582	-0.130371	0.749512	0.089976	0.017866	-0.034323	-0.036596	-0.864904	-0.101207	-0.490264	162.534778	-57.209323	22.924512
63008		8.586581	1.761925	-3.168602	1.856675	-0.007245	-0.678911	-0.216980	-0.931030	-0.195650	-0.486816	-0.128418	0.758545	0.086029	0.017501	-0.031305	-0.038466	-0.867066	-0.101299	-0.486267	162.503504	-56.663524	22.812905
63009		8.269600	1.746431	-3.273476	1.685061	-0.031681	-0.907023	-0.255916	-0.991451	-0.167817	-0.482910	-0.128418	0.762939	0.082872	0.017353	-0.032346	-0.040468	-0.869358	-0.101161	-0.482022	162.486673	-56.089664	22.656386
63010		8.105413	1.650618	-3.444174	1.526391	0.053814	-0.983695	-0.288999	-1.045613	-0.173035	-0.471436	-0.146240	0.767090	0.081247	0.016387	-0.034041	-0.042652	-0.871747	-0.100952	-0.477542	162.458062	-55.485215	22.490161
63011		8.231562	1.152252	-3.568116	1.509486	0.599715	-0.914446	-0.332620	-1.106356	-0.189774	-0.465332	-0.134521	0.765869	0.082522	0.011385	-0.035244	-0.045095	-0.874234	-0.100696	-0.472802	162.403705	-54.844936	22.323530
63012		8.702965	0.249219	-3.628200	1.687268	1.620964	-0.675287	-0.270411	-1.150593	-0.234574	-0.448975	-0.144043	0.774414	0.087239	0.002341	-0.035784	-0.047393	-0.876787	-0.100769	-0.467808	162.359104	-54.172636	22.187420
63013		9.149423	-0.530657	-3.390494	2.128102	2.520500	-0.614530	-0.066028	-1.168425	-0.284957	-0.441162	-0.145508	0.777588	0.091683	-0.005448	-0.033368	-0.048941	-0.879375	-0.101498	-0.462604	162.395086	-53.482055	22.090462
63014		9.174743	-0.737546	-3.092937	2.465744	2.764797	-0.837109	0.162722	-1.194248	-0.339296	-0.429932	-0.141357	0.780762	0.091917	-0.007506	-0.030387	-0.049599	-0.882015	-0.103020	-0.457140	162.525721	-52.767715	22.043098
63015		9.013278	-0.520525	-2.814691	2.738455	2.552106	-1.128275	0.323724	-1.258904	-0.405761	-0.418945	-0.146484	0.782959	0.090297	-0.005343	-0.027587	-0.049750	-0.884773	-0.105144	-0.451272	162.711865	-52.006855	22.036480
63016		8.893487	-0.380242	-2.299034	3.213841	2.427870	-1.548328	0.344523	-1.324331	-0.457176	-0.416992	-0.144043	0.801025	0.089076	-0.003967	-0.022408	-0.049937	-0.887610	-0.107559	-0.445068	162.885715	-51.201188	22.065904
63017		9.120314	-0.468100	-1.974812	3.702080	2.610083	-1.640807	0.315870	-1.429315	-0.493211	-0.395752	-0.136230	0.803467	0.091329	-0.004876	-0.019103	-0.050384	-0.890603	-0.110036	-0.438382	163.038426	-50.332464	22.101623
63018		9.730110	-0.736884	-1.801217	4.278194	3.067867	-1.401649	0.270504	-1.549972	-0.567873	-0.380615	-0.142334	0.806152	0.097415	-0.007622	-0.017268	-0.051261	-0.893752	-0.112711	-0.431134	163.139059	-49.384758	22.172088
63019		10.418241	-1.232253	-1.585726	4.913629	3.778296	-1.201610	0.181929	-1.660273	-0.641369	-0.361328	-0.132813	0.818115	0.104269	-0.012643	-0.015003	-0.052770	-0.897010	-0.115442	-0.423393	163.164134	-48.364949	22.270778
63020		11.428476	-1.926805	-0.864698	6.116356	4.779194	-1.163063	0.151606	-1.766031	-0.720289	-0.350098	-0.133789	0.817627	0.114285	-0.019674	-0.007653	-0.054619	-0.900358	-0.118469	-0.415136	163.146509	-47.273509	22.411120
63021		12.565958	-2.244849	0.116188	7.664903	5.466987	-1.192243	0.217701	-1.869124	-0.850370	-0.338623	-0.139160	0.820557	0.125545	-0.022985	0.002311	-0.056515	-0.903774	-0.122133	-0.406302	163.113631	-46.104612	22.621131
63022		12.699321	-1.728971	-0.108678	7.821631	5.109606	-1.038781	0.162497	-1.992948	-0.961433	-0.308838	-0.134766	0.825928	0.126911	-0.017900	0.000164	-0.058935	-0.907252	-0.126183	-0.396862	163.016289	-44.848400	22.887551
63023		12.290886	-0.991486	-1.031928	7.177331	4.412802	-0.750703	0.021126	-2.156781	-1.089711	-0.293213	-0.145508	0.841064	0.122954	-0.010584	-0.008995	-0.062369	-0.910814	-0.130412	-0.386679	162.808055	-43.481378	23.195909
63024		12.522071	-1.694148	-2.308492	6.468369	5.308896	-0.067533	-0.296944	-2.305978	-1.195481	-0.268555	-0.138428	0.835938	0.125371	-0.017723	-0.021614	-0.067519	-0.914347	-0.134498	-0.375927	162.405299	-42.012472	23.537855
63025		13.048281	-2.253446	-4.311363	5.523268	6.209643	1.360773	-0.155829	-2.359005	-1.301726	-0.245605	-0.142090	0.836426	0.130829	-0.023418	-0.041554	-0.072275	-0.917801	-0.139221	-0.364739	162.060705	-40.495681	23.915356
63026		12.930013	-1.823126	-6.026054	4.594145	6.005605	2.419924	0.109997	-2.443610	-1.436202	-0.226807	-0.140869	0.856201	0.129888	-0.019130	-0.058686	-0.076074	-0.921230	-0.145061	-0.352854	161.840126	-38.906280	24.358525
63027		12.780271	-1.004710	-7.372463	4.024712	5.436214	3.337793	0.279843	-2.336851	-1.586863	-0.200439	-0.146729	0.862061	0.128568	-0.010963	-0.072240	-0.079288	-0.924248	-0.151828	-0.341214	161.657200	-37.348171	24.904346
63028		11.791312	-0.004786	-8.575443	3.020869	4.411278	3.751171	0.578505	-2.181783	-1.594303	-0.193604	-0.130371	0.858154	0.118835	-0.000747	-0.084463	-0.080976	-0.926925	-0.159248	-0.329990	161.642084	-35.870868	25.484657
63029		10.827453	0.960189	-9.098205	2.480885	3.352360	3.734724	0.831859	-1.940843	-1.456649	-0.168701	-0.135498	0.869385	0.109218	0.009184	-0.089886	-0.081080	-0.929262	-0.166437	-0.319682	161.810270	-34.551582	26.009057
63030		10.089024	1.989263	-9.186807	2.389233	2.243213	3.581236	0.910639	-1.622635	-1.210909	-0.145996	-0.117432	0.870361	0.101750	0.019694	-0.090955	-0.080125	-0.931184	-0.172795	-0.310836	162.086055	-33.449406	26.448053
63031		9.045216	2.254428	-9.859729	1.485038	1.712751	3.565293	0.724115	-1.314344	-0.913285	-0.135010	-0.110107	0.876465	0.091200	0.022484	-0.097918	-0.079325	-0.932727	-0.177498	-0.303680	162.331049	-32.570844	26.748727
63032		7.564071	1.873519	-11.295612	-0.410289	1.597400	3.810590	0.669103	-1.105138	-0.508520	-0.132813	-0.109375	0.876953	0.076311	0.018919	-0.112473	-0.077951	-0.934221	-0.180387	-0.297684	162.663590	-31.876021	26.843128
63033		6.207361	2.006299	-12.589976	-1.988594	0.977048	4.192749	0.968254	-0.889987	-0.079657	-0.118896	-0.095703	0.877686	0.062641	0.020646	-0.125523	-0.074363	-0.935865	-0.181718	-0.292585	163.287542	-31.373401	26.701301
63034		5.042342	3.082875	-12.772463	-2.485121	-0.565591	4.027997	1.522002	-0.828952	0.127686	-0.111084	-0.076416	0.889160	0.050931	0.031831	-0.127275	-0.067802	-0.937747	-0.182977	-0.287320	164.286263	-30.934281	26.455493
63035		5.626825	5.016780	-10.956822	-0.229365	-2.299167	3.284564	1.608976	-0.822300	-0.269825	-0.117188	-0.070313	0.878906	0.056785	0.050969	-0.108928	-0.061406	-0.939220	-0.186148	-0.281858	165.197229	-30.437117	26.468622
63036		5.496373	4.894455	-10.094164	0.275824	-2.324211	2.458346	1.107137	-0.531954	-0.528038	-0.109131	-0.044434	0.891357	0.055361	0.049356	-0.100522	-0.057442	-0.939821	-0.189965	-0.278121	165.709257	-30.062411	26.710444
63037		4.729338	3.147985	-9.394894	-0.416891	-1.055218	1.107614	0.745028	0.006318	-0.565859	-0.108643	-0.056152	0.891113	0.047380	0.031696	-0.093833	-0.054728	-0.939507	-0.193559	-0.277247	165.957830	-29.984485	27.060728
63038		4.380227	2.165334	-9.003810	-0.784422	-0.324432	0.396276	0.587959	0.351039	-0.438312	-0.115723	-0.034912	0.897217	0.043692	0.021822	-0.090051	-0.052231	-0.938773	-0.196473	-0.278164	166.129408	-30.115332	27.389838
63039		4.509115	1.828282	-8.515536	-0.549191	-0.006175	-0.020490	0.659207	0.533833	-0.298601	-0.123291	-0.035400	0.891602	0.044891	0.018497	-0.085215	-0.049035	-0.937930	-0.198828	-0.279912	166.371692	-30.369592	27.652567
63040		4.619333	1.751407	-8.128092	-0.310630	0.048950	-0.306267	0.822309	0.802101	-0.194116	-0.130127	-0.023438	0.895020	0.045884	0.017804	-0.081393	-0.044650	-0.936824	-0.201028	-0.282762	166.719577	-30.786830	27.893901
63041		4.152252	1.725063	-7.943293	-0.623705	-0.198208	-0.708650	0.910103	1.166774	-0.116528	-0.136230	-0.011719	0.896729	0.041069	0.017589	-0.079594	-0.039381	-0.935263	-0.203027	-0.287250	167.114546	-31.420632	28.134061
63042		3.383396	1.862148	-7.805126	-1.148610	-0.735605	-1.211944	0.959497	1.543039	-0.026582	-0.157471	-0.009033	0.898193	0.033233	0.018992	-0.078219	-0.033363	-0.933195	-0.204771	-0.293433	167.538607	-32.275904	28.371335
63043		2.671307	2.190997	-7.438389	-1.440854	-1.421802	-1.864967	0.951842	1.870335	0.042854	-0.175049	-0.003662	0.891602	0.026012	0.022270	-0.074524	-0.026944	-0.930630	-0.206184	-0.301147	167.957215	-33.325956	28.601225
63044		2.475366	2.324967	-7.110198	-1.448925	-1.721063	-2.261267	0.849827	2.163611	0.077226	-0.191650	0.011719	0.893799	0.023974	0.023562	-0.071264	-0.020638	-0.927530	-0.207329	-0.310286	168.306090	-34.544170	28.847627
63045		2.679267	2.104127	-6.928762	-1.400171	-1.543348	-2.378429	0.690600	2.462876	0.142621	-0.216797	0.012207	0.885742	0.025922	0.021300	-0.069537	-0.014661	-0.923881	-0.207895	-0.320951	168.563173	-35.940502	29.083873
63046		3.023202	1.906255	-6.977553	-1.409541	-1.356662	-2.221335	0.570602	2.762716	0.208885	-0.244385	0.025391	0.886719	0.029245	0.019293	-0.070129	-0.008814	-0.919641	-0.207975	-0.333061	168.750236	-37.511934	29.316952
63047		3.440479	1.809667	-7.297490	-1.534966	-1.279312	-1.789770	0.471785	3.022173	0.292521	-0.277344	0.024658	0.873779	0.033271	0.018319	-0.073440	-0.003013	-0.914853	-0.207449	-0.346409	168.890200	-39.240530	29.523599
63048		3.812361	1.998218	-7.615545	-1.625885	-1.500869	-1.349783	0.399378	3.226770	0.397144	-0.302490	0.040527	0.875732	0.036849	0.020209	-0.076717	0.002854	-0.909588	-0.206294	-0.360672	169.014043	-41.094530	29.685599
63049		4.056718	2.334622	-7.604604	-1.565915	-1.877559	-1.224775	0.403961	3.441416	0.512778	-0.337158	0.029785	0.863525	0.039191	0.023602	-0.076681	0.009169	-0.903794	-0.204542	-0.375812	169.175285	-43.083597	29.788025
63050		4.291964	2.507805	-7.555468	-1.572469	-2.116012	-1.161921	0.327667	3.676124	0.605291	-0.362793	0.038330	0.854004	0.041445	0.025330	-0.076284	0.015552	-0.897362	-0.202168	-0.391953	169.318740	-45.213400	29.850911
63051		4.518283	2.450256	-7.547530	-1.729116	-2.160581	-1.111237	0.114490	3.878166	0.728627	-0.395752	0.041016	0.841553	0.043619	0.024707	-0.076317	0.021412	-0.890346	-0.198710	-0.409072	169.391174	-47.471462	29.838144
63052		4.807836	2.391101	-7.342786	-1.741622	-2.139258	-1.145073	-0.312214	4.060936	0.880715	-0.433838	0.042236	0.821289	0.046468	0.024002	-0.074420	0.025862	-0.882787	-0.193624	-0.427234	169.294464	-49.847199	29.728020
63053		5.129015	2.017364	-7.684266	-2.297160	-1.923209	-0.844172	-0.767916	4.234015	1.084801	-0.473877	0.037109	0.803223	0.049538	0.020148	-0.077981	0.028886	-0.874706	-0.186532	-0.446387	169.054685	-52.343777	29.467631
63054		5.243829	1.441496	-8.174965	-3.191867	-1.617603	-0.670237	-0.901600	4.360153	1.354597	-0.510498	0.042725	0.785645	0.050541	0.014389	-0.082930	0.032036	-0.866164	-0.177868	-0.465937	168.934385	-54.940044	28.974959
63055		5.231136	1.367105	-8.615557	-3.957493	-1.819031	-0.621787	-0.707259	4.416227	1.559506	-0.552246	0.037598	0.764404	0.050284	0.013761	-0.087329	0.036532	-0.857164	-0.168645	-0.485277	169.132267	-57.591198	28.247291
63056		5.410079	2.042673	-8.580038	-4.008296	-2.590970	-0.633414	-0.546129	4.453802	1.679392	-0.581299	0.042725	0.736572	0.051999	0.020633	-0.087030	0.042026	-0.847662	-0.159214	-0.504336	169.619623	-60.272575	27.312621
63057		5.608125	2.966038	-8.188730	-3.696133	-3.525385	-0.801991	-0.702711	4.529381	1.761333	-0.618408	0.048584	0.714844	0.053944	0.029851	-0.083230	0.047091	-0.837567	-0.148915	-0.523534	170.229379	-63.001125	26.159787
63058		6.012825	3.295832	-8.153264	-3.817474	-3.934901	-0.679659	-1.031865	4.567293	1.799464	-0.652588	0.050537	0.680908	0.057946	0.033060	-0.083043	0.050883	-0.826965	-0.137512	-0.542798	170.877351	-65.747554	24.785139
63059		6.848434	3.380249	-8.103637	-3.884436	-4.037182	-0.190721	-1.183701	4.588185	1.812078	-0.682617	0.053711	0.656738	0.066292	0.033923	-0.082775	0.054057	-0.815827	-0.125537	-0.561911	171.704457	-68.499965	23.149309
63060		7.654500	3.528480	-7.743723	-3.722086	-4.160874	0.177910	-1.294528	4.597464	1.801159	-0.723145	0.061523	0.629883	0.074416	0.035452	-0.079393	0.056726	-0.804161	-0.113227	-0.580765	172.802744	-71.244997	21.189528
63061		8.316069	3.813763	-7.536587	-3.757755	-4.495931	0.489639	-1.453673	4.521828	1.883229	-0.742676	0.056152	0.601318	0.081064	0.038349	-0.077493	0.058906	-0.792280	-0.100059	-0.599009	174.497842	-73.935903	18.538569
63062		8.540380	4.127671	-7.267994	-3.882301	-4.904759	0.367671	-1.676629	4.433056	2.085087	-0.772949	0.069824	0.559082	0.083328	0.041531	-0.074890	0.060732	-0.780310	-0.085397	-0.616552	177.406499	-76.550396	14.537728
63063		8.507179	4.077152	-6.954890	-4.104565	-4.968952	-0.025056	-1.907540	4.324271	2.369062	-0.803711	0.072510	0.528809	0.083051	0.041086	-0.071750	0.062434	-0.768331	-0.068878	-0.633265	-177.379441	-79.026609	8.083944
63064		8.827434	3.604498	-6.506311	-4.185498	-4.581674	-0.080790	-2.250335	4.126805	2.623543	-0.822510	0.078125	0.504150	0.086425	0.036438	-0.067268	0.063522	-0.756628	-0.050321	-0.648804	-168.389230	-81.189337	-2.348812
63065		9.192581	2.132734	-6.243836	-4.563279	-3.246809	0.018355	-2.610763	3.916329	2.821724	-0.841553	0.083984	0.470459	0.090371	0.021777	-0.064501	0.063778	-0.745211	-0.029864	-0.663100	-153.754354	-82.796743	-18.637351
63066		9.487072	-0.621915	-6.256719	-5.282257	-0.675452	0.245414	-2.644962	3.685491	2.873176	-0.861328	0.088623	0.438721	0.093782	-0.005709	-0.064224	0.064007	-0.734030	-0.009165	-0.676031	-133.632076	-83.528724	-40.426714
63067		9.759029	-3.264353	-5.976097	-5.544071	1.814371	0.558962	-2.107377	3.442420	2.652625	-0.875977	0.113770	0.407227	0.096974	-0.031994	-0.061094	0.065394	-0.723009	0.008850	-0.687680	-113.152253	-83.333952	-62.257069
63068		9.037653	-3.769571	-5.321458	-5.216434	2.287775	-0.233841	-1.024601	3.096940	2.321606	-0.883789	0.129883	0.388184	0.089972	-0.036926	-0.054419	0.069557	-0.712481	0.021815	-0.697894	-97.131436	-82.497153	-78.991042
63069		7.469170	-3.043026	-4.484093	-4.579888	1.674922	-1.978796	-0.031780	2.601941	1.866909	-0.896240	0.143799	0.357178	0.074380	-0.029742	-0.045805	0.075687	-0.703150	0.029529	-0.706385	-86.363130	-81.462575	-89.885615
63070		6.634162	-2.319815	-3.461126	-3.675029	1.028422	-2.971149	0.604479	2.058692	1.220082	-0.913818	0.142090	0.356201	0.066120	-0.022688	-0.035362	0.081849	-0.695449	0.032498	-0.713159	-79.189288	-80.613720	-96.797589
63071		6.454197	-1.618616	-2.702670	-2.990849	0.335067	-3.291796	1.080964	1.529423	0.481925	-0.914307	0.159424	0.333008	0.064371	-0.015883	-0.027606	0.087090	-0.689475	0.030997	-0.718387	-73.960937	-80.136753	-101.475826
63072		6.524300	-0.315741	-2.349705	-2.622069	-0.976071	-3.459828	1.504453	1.003434	-0.141438	-0.914795	0.160400	0.327393	0.065122	-0.003025	-0.023847	0.091647	-0.685242	0.025578	-0.722074	-69.869502	-80.031041	-104.754719
63073		6.685842	1.509615	-1.875697	-2.017198	-2.765627	-3.585339	1.700799	0.504124	-0.548694	-0.916260	0.164307	0.320801	0.066852	0.015072	-0.018797	0.095441	-0.682717	0.017841	-0.724203	-66.729458	-80.212896	-106.956545
63074		7.084302	3.003514	-1.429032	-1.411948	-4.231863	-3.382441	1.420111	0.099457	-0.745504	-0.917236	0.162109	0.321533	0.070948	0.029871	-0.014113	0.097614	-0.681758	0.010237	-0.724964	-64.614184	-80.575218	-108.277159
63075		7.402618	3.230869	-1.394736	-1.331570	-4.462514	-3.067684	0.860752	-0.215082	-0.751876	-0.924072	0.159912	0.319824	0.074162	0.032089	-0.013729	0.097847	-0.682180	0.004500	-0.724593	-63.694599	-81.013848	-108.712782
63076		7.606982	2.422116	-1.524591	-1.542156	-3.672994	-2.728359	0.427322	-0.459274	-0.630065	-0.918213	0.151611	0.322510	0.076180	0.024014	-0.015020	0.097068	-0.683677	0.000614	-0.723300	-63.999525	-81.450685	-108.157026
63077		7.588188	1.080789	-1.685224	-1.842200	-2.335400	-2.550422	0.291318	-0.709794	-0.503485	-0.912598	0.154297	0.327393	0.075968	0.010641	-0.016567	0.096257	-0.686134	-0.002453	-0.721074	-65.558123	-81.882293	-106.416857
63078		7.611691	0.140914	-1.851305	-2.079434	-1.402034	-2.390107	0.442326	-0.995186	-0.492740	-0.909912	0.156494	0.335938	0.076211	0.001262	-0.018131	0.096020	-0.689526	-0.006182	-0.717841	-68.352702	-82.361854	-103.340345
63079		7.661228	0.134030	-2.155039	-2.299001	-1.405774	-2.323097	0.681989	-1.305470	-0.603421	-0.913330	0.149414	0.345947	0.076754	0.001181	-0.021045	0.096178	-0.693881	-0.011287	-0.713548	-72.589661	-82.934757	-98.677561
63080		7.715800	0.651787	-2.430431	-2.385175	-1.913934	-2.295273	0.787250	-1.593483	-0.780427	-0.900391	0.145020	0.364502	0.077373	0.006310	-0.023663	0.096066	-0.699146	-0.017533	-0.708279	-78.751750	-83.590369	-92.019127
63081		7.793649	1.075326	-3.344801	-3.089520	-2.422441	-2.218670	0.705150	-1.829412	-0.974717	-0.893311	0.140381	0.380859	0.078289	0.010488	-0.032696	0.094925	-0.705197	-0.024264	-0.702209	-87.580479	-84.266902	-82.738206
63082		7.842507	1.249615	-3.788382	-3.351309	-2.597339	-2.103105	0.647284	-1.956547	-1.147214	-0.884521	0.135742	0.391846	0.078861	0.012165	-0.037074	0.092970	-0.711606	-0.031471	-0.695689	-99.457335	-84.850962	-70.436117
63083		7.686560	1.442840	-3.905479	-3.287869	-2.704210	-2.177799	0.641499	-1.969824	-1.328782	-0.882568	0.118164	0.404541	0.077339	0.014039	-0.038249	0.090325	-0.717936	-0.039292	-0.689104	-114.201998	-85.249259	-55.271486
63084		7.889558	1.670104	-2.747664	-1.951351	-2.620644	-1.944712	0.633071	-1.935425	-1.420310	-0.869629	0.115479	0.424072	0.079273	0.016224	-0.026659	0.087349	-0.724020	-0.047405	-0.682582	-130.579286	-85.335136	-38.476102
63085		11.430320	2.513358	4.625620	5.781046	-2.045846	1.176153	0.522373	-1.078958	-1.548070	-0.861328	0.112793	0.433838	0.114241	0.024127	0.046937	0.083704	-0.727114	-0.055207	-0.679155	-143.640178	-85.478565	-25.077076
63086		21.375986	0.023620	12.033963	13.253495	1.678929	10.760929	-1.097529	0.398416	-1.171360	-0.857910	0.097656	0.425781	0.213998	-0.000358	0.119914	0.075874	-0.725908	-0.055532	-0.681335	-150.133677	-86.029169	-19.196878
63087		24.007756	-10.804238	-0.712337	-1.078076	9.898103	14.569183	-0.957477	0.182223	0.379028	-0.861084	0.090576	0.416748	0.240275	-0.107620	-0.006826	0.073757	-0.725784	-0.050779	-0.682069	-147.216526	-85.997500	-22.673229
63088		15.481737	4.240152	-0.142295	1.628834	-4.551796	5.494489	2.551630	0.151850	-0.740920	-0.865723	0.102539	0.433105	0.154972	0.041842	-0.001004	0.080554	-0.724109	-0.062070	-0.682147	-150.435638	-86.284039	-17.982023
63089		9.677462	8.940482	2.027727	4.359377	-8.506234	-0.520962	-0.271299	-0.230080	-0.806047	-0.857666	0.085938	0.424072	0.097111	0.089041	0.020268	0.076767	-0.724785	-0.064109	-0.681677	-157.915638	-86.358950	-10.644633
63090		8.051489	5.611201	-1.690288	-0.085653	-5.915904	-1.802496	-2.604108	-0.809601	0.013109	-0.852295	0.072754	0.429688	0.080581	0.055894	-0.017306	0.067139	-0.728517	-0.055452	-0.679471	-161.620488	-85.913778	-8.427314
63091		6.798655	2.257415	-1.176360	-0.312129	-2.506629	-3.006762	-3.552742	-0.457433	0.762466	-0.864502	0.072998	0.433105	0.067928	0.022621	-0.012010	0.056664	-0.731390	-0.040702	-0.678381	-159.291381	-85.513105	-12.806845
63092		8.779343	-3.782522	-2.464139	-2.182902	3.256499	-0.752712	-3.815259	-0.518264	1.252477	-0.852051	0.059326	0.441650	0.088092	-0.037732	-0.023693	0.046876	-0.734368	-0.023281	-0.676730	-154.891342	-84.951909	-19.416140
63093		9.774159	-9.801501	-4.905469	-4.842341	8.980714	0.749257	-2.569985	-0.742846	1.317278	-0.847412	0.065674	0.438232	0.098565	-0.097984	-0.047430	0.041822	-0.737591	-0.009873	-0.673879	-151.270936	-84.222400	-24.534016
63094		8.970426	-8.899828	-5.922924	-5.624980	8.055098	0.098397	-0.386862	-1.063331	0.162154	-0.842285	0.059570	0.446777	0.090089	-0.089039	-0.058579	0.040921	-0.741283	-0.008153	-0.669894	-153.352711	-83.631962	-22.663933
63095		7.572176	-2.551353	-4.123270	-3.469544	1.945888	-1.748934	1.293546	-0.954371	-1.253337	-0.838867	0.053711	0.453857	0.075757	-0.025722	-0.041037	0.041496	-0.744161	-0.017277	-0.666486	-160.296338	-83.403652	-14.932055
63096		6.840357	2.078641	-1.793634	-0.807828	-2.371385	-2.880833	0.959469	-0.960231	-1.727537	-0.833496	0.051514	0.473389	0.068665	0.020279	-0.017509	0.039256	-0.747000	-0.027059	-0.663112	-169.034558	-83.127018	-5.580365
63097		8.357976	4.526913	-1.808760	-0.339058	-4.683528	-1.353027	-0.665156	-1.235776	-1.967208	-0.828613	0.030029	0.484619	0.084129	0.044384	-0.017717	0.030098	-0.750945	-0.032391	-0.658883	-178.889337	-82.532817	3.965131
63098		11.640420	4.176171	-3.441519	-1.488730	-4.227907	2.215842	-1.718898	-1.231341	-1.664704	-0.817627	0.010254	0.491211	0.116955	0.040496	-0.034048	0.017989	-0.754955	-0.033119	-0.654692	173.494732	-81.776795	10.658028
63099		13.610243	1.774091	-4.634547	-2.497391	-1.637327	4.362770	-1.787635	-0.793055	-0.792367	-0.811035	-0.005371	0.492188	0.136353	0.016789	-0.045958	0.008532	-0.757576	-0.030278	-0.651989	169.939330	-81.256431	13.214947
63100		12.106055	0.279929	-4.524840	-2.652190	-0.064922	2.839208	-1.481701	-0.182707	0.051830	-0.821533	-0.012207	0.493896	0.121101	0.002496	-0.045157	0.003091	-0.758254	-0.025215	-0.651465	169.445705	-81.154515	12.854885
63101		9.625532	-1.601788	-3.459747	-2.042352	1.798634	0.176314	-1.221795	0.210470	0.453135	-0.811768	-0.020752	0.487061	0.096255	-0.016011	-0.034601	-0.000021	-0.757664	-0.019464	-0.652355	170.307501	-81.313814	11.272565
63102		8.288844	-3.377044	-2.960135	-1.797209	3.534140	-1.259816	-0.372145	0.152767	0.376218	-0.815674	-0.023682	0.487305	0.082929	-0.033670	-0.029602	-0.000157	-0.757231	-0.016781	-0.652931	171.451224	-81.430031	9.899581
63103		8.177918	-3.452843	-2.611597	-1.474152	3.597813	-1.416051	0.609794	-0.117397	-0.047065	-0.817871	-0.005127	0.477783	0.081786	-0.034468	-0.026173	0.002003	-0.757644	-0.018896	-0.652392	171.730877	-81.354232	9.967358
63104		9.116568	-1.675098	-2.185308	-0.852160	1.865205	-0.512791	1.315987	-0.487402	-0.628517	-0.809326	-0.008545	0.493896	0.091166	-0.016894	-0.021742	0.004923	-0.759171	-0.025530	-0.650372	170.512685	-81.018279	11.962605
63105		9.543367	0.722692	-2.490186	-0.921458	-0.483297	0.021714	1.684382	-0.846627	-1.030321	-0.804199	-0.004150	0.507324	0.095574	0.006942	-0.024438	0.007878	-0.761744	-0.034888	-0.646890	168.505644	-80.428538	14.972295
63106		9.601966	2.609748	-2.982215	-1.161109	-2.319829	0.245649	1.574642	-0.970689	-1.231626	-0.789551	-0.011230	0.509766	0.096321	0.025736	-0.029152	0.009753	-0.764593	-0.044664	-0.642890	166.208092	-79.727189	18.220060
63107		9.817980	4.073460	-3.253797	-1.139564	-3.693411	0.609917	1.115291	-0.803884	-1.265503	-0.797607	-0.014160	0.521240	0.098565	0.040291	-0.031917	0.009786	-0.766845	-0.053074	-0.639560	163.777003	-79.089716	21.341315
63108		10.269645	4.899372	-3.278331	-0.900200	-4.381188	1.151344	0.514301	-0.544425	-1.104636	-0.794434	-0.025879	0.522705	0.103054	0.048509	-0.032378	0.008110	-0.768284	-0.058935	-0.637339	161.517610	-78.599756	23.944018
63109		10.424017	4.517139	-3.369026	-0.943834	-3.900596	1.336697	-0.032890	-0.278555	-0.766838	-0.790771	-0.035400	0.526367	0.104459	0.044766	-0.033552	0.005472	-0.768980	-0.061735	-0.636262	159.764598	-78.299331	25.711688
63110		10.420508	3.030122	-3.336917	-1.052844	-2.353408	1.244273	-0.382777	-0.086551	-0.386073	-0.781494	-0.032471	0.536865	0.104278	0.030036	-0.033382	0.002774	-0.769177	-0.061960	-0.636019	158.673456	-78.171606	26.601707
63111		10.227933	1.456116	-3.196975	-1.115372	-0.758130	0.917301	-0.468101	0.049446	-0.126573	-0.787354	-0.035156	0.529053	0.102281	0.014422	-0.032029	0.000597	-0.769024	-0.060903	-0.636311	158.068113	-78.167224	26.943444
63112		9.888134	0.494724	-2.959932	-1.050306	0.198777	0.465370	-0.256723	0.136148	-0.004339	-0.790527	-0.021729	0.523193	0.098861	0.004907	-0.029673	-0.000334	-0.768623	-0.060058	-0.636876	157.806634	-78.235884	27.059786
63113		9.476864	0.340385	-2.839165	-1.034166	0.321656	0.026758	0.090318	0.141830	0.039283	-0.785889	-0.041016	0.524658	0.094748	0.003435	-0.028457	0.000199	-0.768223	-0.060149	-0.637351	157.846860	-78.315750	27.070083
63114		9.360747	0.821127	-2.376436	-0.565444	-0.140899	-0.137684	0.337666	0.090275	0.025250	-0.779297	-0.034424	0.525391	0.093596	0.008263	-0.023793	0.001632	-0.767975	-0.061083	-0.637559	158.048575	-78.366419	27.061149
63115		9.522438	1.405424	-2.151166	-0.260775	-0.694299	0.022428	0.327769	0.040022	-0.069351	-0.780273	-0.034180	0.529541	0.095225	0.014056	-0.021508	0.002693	-0.767862	-0.062342	-0.637569	158.051184	-78.368829	27.247643
63116		9.590636	1.469380	-2.066613	-0.160607	-0.738788	0.078655	0.102166	0.057969	-0.165590	-0.798828	-0.035889	0.527344	0.095912	0.014625	-0.020686	0.002604	-0.767658	-0.063258	-0.637725	157.659613	-78.361140	27.706680
63117		9.552397	0.870974	-1.758011	0.067264	-0.103510	-0.061678	-0.122159	0.085871	-0.263234	-0.790771	-0.036865	0.529785	0.095528	0.008573	-0.017626	0.001335	-0.767342	-0.063826	-0.638053	156.858205	-78.344290	28.450970
63118		9.556895	-0.122345	-1.316238	0.392028	0.948571	-0.219558	-0.152577	0.062887	-0.350140	-0.787109	-0.036377	0.527588	0.095562	-0.001401	-0.013191	-0.000319	-0.767063	-0.064637	-0.638308	155.849613	-78.294346	29.391107
63119		9.524638	-0.778324	-0.997414	0.626975	1.656148	-0.368995	0.057573	0.021412	-0.385492	-0.787354	-0.049072	0.525635	0.095230	-0.007964	-0.009987	-0.001308	-0.766909	-0.066249	-0.638326	154.928602	-78.209873	30.363314
63120		9.264475	-0.792962	-0.553810	1.011252	1.714486	-0.713028	0.366239	-0.064568	-0.400187	-0.790771	-0.049561	0.528076	0.092630	-0.008105	-0.005523	-0.001174	-0.767016	-0.068907	-0.637916	154.264924	-78.075848	31.255362
63121		9.069943	-0.324774	-0.197437	1.380655	1.295569	-0.934428	0.650288	-0.193076	-0.411316	-0.789795	-0.047852	0.535156	0.090694	-0.003428	-0.001898	-0.000049	-0.767528	-0.072503	-0.636902	153.905013	-77.869900	32.001462
63122		9.027177	0.421890	-0.200273	1.473730	0.587913	-0.913793	0.811700	-0.318406	-0.397630	-0.778076	-0.043457	0.535645	0.090283	0.004047	-0.001842	0.001712	-0.768424	-0.076568	-0.635342	153.834958	-77.603633	32.548568
63123		9.231879	1.201234	-0.153235	1.686075	-0.117485	-0.656426	0.806536	-0.395092	-0.363858	-0.791016	-0.039307	0.546631	0.092343	0.011850	-0.001302	0.003515	-0.769564	-0.080477	-0.633468	153.938001	-77.305247	32.913846
63124		9.447802	1.897400	-0.303463	1.715753	-0.758663	-0.355760	0.645047	-0.441869	-0.344661	-0.783447	-0.043945	0.549805	0.094517	0.018820	-0.002765	0.004755	-0.770841	-0.083809	-0.631472	154.050726	-76.988965	33.176790
63125		9.627663	2.231924	-0.499020	1.655005	-1.052332	-0.113427	0.376792	-0.456288	-0.331344	-0.772705	-0.048096	0.545654	0.096324	0.022169	-0.004729	0.004982	-0.772170	-0.086234	-0.629517	154.058440	-76.667500	33.388156
63126		9.537123	1.819687	-1.024245	1.117803	-0.682952	-0.137934	0.084412	-0.495024	-0.325138	-0.777832	-0.044922	0.549316	0.095426	0.018046	-0.009999	0.004098	-0.773617	-0.087722	-0.627538	153.959819	-76.328760	33.538801
63127		9.481570	1.135490	-1.325773	0.764736	-0.014849	-0.202180	-0.059188	-0.534406	-0.326380	-0.775879	-0.048096	0.558105	0.094869	0.011196	-0.013008	0.002620	-0.775189	-0.088756	-0.625458	153.821822	-75.968248	33.643329
63128		9.393952	0.556108	-1.994337	0.066322	0.504586	-0.206771	0.014564	-0.563989	-0.341451	-0.764404	-0.046875	0.562988	0.094005	0.005402	-0.019678	0.001384	-0.776831	-0.090087	-0.623231	153.732104	-75.589790	33.743971
63129		9.668283	0.059864	-2.195829	-0.089224	1.045598	0.046285	0.132690	-0.594242	-0.343092	-0.753662	-0.047119	0.559326	0.096748	0.000447	-0.021671	0.000574	-0.778562	-0.091784	-0.620819	153.738905	-75.194244	33.813144
63130		10.001507	-0.026897	-2.351717	-0.124561	1.199036	0.390636	0.311755	-0.616091	-0.395563	-0.762695	-0.058350	0.567627	0.100086	-0.000431	-0.023210	0.000303	-0.780321	-0.094248	-0.618237	153.770938	-74.775292	33.964394
63131		10.110087	0.082823	-2.490570	-0.158212	1.129595	0.537299	0.478460	-0.625512	-0.399936	-0.758057	-0.057861	0.572266	0.101180	0.000685	-0.024588	0.000650	-0.782097	-0.097234	-0.615523	153.900006	-74.349375	34.112440
63132		10.023323	0.350746	-2.648406	-0.226190	0.869663	0.521537	0.588696	-0.619131	-0.394554	-0.751709	-0.047607	0.583252	0.100321	0.003387	-0.026164	0.001462	-0.783835	-0.100544	-0.612774	154.097127	-73.929282	34.257642
63133		9.823569	0.863666	-2.696064	-0.170832	0.362412	0.402802	0.661376	-0.624876	-0.393745	-0.742920	-0.055420	0.590088	0.098336	0.008532	-0.026625	0.002544	-0.785577	-0.104063	-0.609945	154.339807	-73.505505	34.397201
63134		9.555383	1.419151	-2.592831	0.025625	-0.179086	0.187758	0.665881	-0.625065	-0.391044	-0.738770	-0.053223	0.589600	0.095662	0.014090	-0.025582	0.003667	-0.787297	-0.107592	-0.607103	154.588164	-73.083548	34.535708
63135		9.546462	1.545322	-2.372727	0.323414	-0.239769	0.136697	0.515119	-0.625732	-0.387287	-0.729980	-0.053955	0.595459	0.095568	0.015329	-0.023389	0.004190	-0.789011	-0.110634	-0.604321	154.754702	-72.661162	34.667457
63136		9.647401	1.488206	-1.948630	0.806576	-0.068512	0.108428	0.416934	-0.622527	-0.403362	-0.725098	-0.051270	0.601074	0.096564	0.014728	-0.019155	0.004296	-0.790688	-0.113452	-0.601600	154.837319	-72.237752	34.830826
63137		9.847580	1.245352	-1.177981	1.606693	0.356207	0.046549	0.362141	-0.635126	-0.385574	-0.723633	-0.055420	0.609131	0.098536	0.012285	-0.011445	0.004215	-0.792406	-0.116022	-0.598843	154.927651	-71.811084	34.951234
63138		9.783599	1.442040	-0.679900	2.162683	0.269245	-0.142612	0.347704	-0.672602	-0.356681	-0.717285	-0.054932	0.606445	0.097884	0.014257	-0.006445	0.004158	-0.794234	-0.118444	-0.595941	155.082961	-71.373154	34.996981
63139		9.420200	1.872670	-0.227893	2.646216	-0.105375	-0.577709	0.320164	-0.774637	-0.357882	-0.709229	-0.058350	0.625488	0.094243	0.018561	-0.001884	0.003911	-0.796356	-0.120777	-0.592634	155.288647	-70.880885	34.970610
63140		9.185813	2.054630	-0.032651	2.875246	-0.253853	-0.853355	0.083013	-0.856365	-0.327033	-0.701904	-0.059814	0.627686	0.091892	0.020396	0.000075	0.002778	-0.798720	-0.122295	-0.589137	155.455289	-70.354424	34.843844
63141		9.142253	1.961603	0.035934	2.984780	-0.121158	-0.952343	-0.072418	-0.961784	-0.301930	-0.694824	-0.056396	0.636230	0.091449	0.019478	0.000792	0.001015	-0.801401	-0.123240	-0.585293	155.629001	-69.777728	34.611662
63142		9.260869	1.661213	-0.181050	2.839312	0.202694	-0.843159	-0.104450	-1.083724	-0.303957	-0.699463	-0.064941	0.642334	0.092642	0.016471	-0.001317	-0.000938	-0.804407	-0.124110	-0.580970	155.846958	-69.137679	34.314460
63143		9.473527	1.429472	-0.338257	2.804606	0.492298	-0.658659	-0.100805	-1.194301	-0.329509	-0.675781	-0.063965	0.640137	0.094777	0.014137	-0.002824	-0.003036	-0.807694	-0.125076	-0.576174	156.081780	-68.432563	33.997739
63144		9.651024	1.081925	-0.686118	2.574092	0.868190	-0.463762	-0.050043	-1.315998	-0.380561	-0.672852	-0.068604	0.657227	0.096573	0.010634	-0.006229	-0.005135	-0.811262	-0.126399	-0.570834	156.331841	-67.652202	33.696666
63145		9.836234	0.817634	-1.177051	2.247318	1.155166	-0.199218	0.037775	-1.430134	-0.424916	-0.656738	-0.072021	0.667480	0.098460	0.007969	-0.011065	-0.007093	-0.815091	-0.128132	-0.564941	156.617916	-66.800521	33.406983
63146		9.943922	0.726179	-1.718039	1.900054	1.260161	0.044303	0.126847	-1.500068	-0.466750	-0.644287	-0.069336	0.674561	0.099581	0.007040	-0.016429	-0.008834	-0.819042	-0.130288	-0.558674	156.921037	-65.902701	33.154872
63147		10.304098	0.421002	-2.266635	1.603196	1.633576	0.494985	0.099622	-1.544644	-0.462520	-0.625732	-0.072266	0.690186	0.103221	0.003982	-0.021868	-0.010719	-0.823071	-0.132328	-0.552204	157.214265	-64.981148	32.892228
63148		10.759117	0.356627	-2.806946	1.416339	1.806098	1.072802	0.155291	-1.593767	-0.492044	-0.618164	-0.067139	0.690674	0.107819	0.003323	-0.027208	-0.012473	-0.827158	-0.134644	-0.545459	157.510590	-64.027202	32.661958
63149		10.928648	0.617778	-3.064093	1.467353	1.644206	1.338369	0.243235	-1.602441	-0.558518	-0.609375	-0.079102	0.710693	0.109544	0.005909	-0.029757	-0.014062	-0.831173	-0.137453	-0.538572	157.771397	-63.053200	32.523533
63150		10.821879	0.555982	-2.570474	2.023176	1.824822	0.985614	0.107444	-1.608247	-0.547348	-0.589111	-0.081543	0.708496	0.108435	0.005277	-0.024830	-0.016175	-0.835138	-0.139850	-0.531718	157.956783	-62.078799	32.383455
63151		10.805090	0.390183	-1.954474	2.693251	2.141190	0.621908	0.016797	-1.666440	-0.557035	-0.573730	-0.077881	0.716797	0.108219	0.003602	-0.018643	-0.018748	-0.839184	-0.142017	-0.524642	158.092695	-61.070798	32.236583
63152		11.056926	0.234695	-1.296543	3.509364	2.516752	0.450778	-0.100558	-1.719199	-0.501071	-0.575195	-0.082520	0.735107	0.110681	0.002064	-0.012015	-0.021686	-0.843327	-0.143640	-0.517394	158.225538	-60.046934	32.017307
63153		11.392572	-0.348098	-0.152994	4.697238	3.366054	0.012647	-0.271564	-1.795736	-0.412509	-0.558350	-0.093018	0.732178	0.113926	-0.003717	-0.000502	-0.025182	-0.847645	-0.144414	-0.509910	158.355537	-59.000618	31.683125
63154		12.140678	-1.098972	1.171743	6.194467	4.487179	-0.248920	-0.402133	-1.926216	-0.389135	-0.531250	-0.091064	0.743652	0.121265	-0.011201	0.012908	-0.029250	-0.852213	-0.144738	-0.501924	158.461063	-57.889603	31.288321
63155		12.998511	-1.909399	2.330359	7.606974	5.659914	-0.424927	-0.471359	-2.090376	-0.376121	-0.519775	-0.096436	0.757324	0.129696	-0.019281	0.024705	-0.033710	-0.857101	-0.144778	-0.493236	158.572673	-56.693439	30.831600
63156		13.768163	-2.822988	3.001996	8.569200	6.852744	-0.531396	-0.458586	-2.312858	-0.443022	-0.501465	-0.113525	0.769287	0.137259	-0.028463	0.031674	-0.038423	-0.862376	-0.145095	-0.483508	158.686826	-55.364082	30.376533
63157		14.249456	-3.493070	3.666312	9.463407	7.730010	-0.903800	-0.314846	-2.540053	-0.536304	-0.477295	-0.104004	0.773438	0.141919	-0.035252	0.038523	-0.042914	-0.868024	-0.146074	-0.472604	158.855090	-53.893840	29.945233
63158		15.378084	-3.830250	4.590335	10.990316	8.507072	-0.921617	-0.206357	-2.803446	-0.732222	-0.447998	-0.112793	0.786621	0.152975	-0.038815	0.048091	-0.047568	-0.874008	-0.148096	-0.460343	158.994308	-52.241325	29.622544
63159		16.371347	-3.922865	2.925785	10.427184	8.904967	0.381435	-0.317326	-3.082745	-0.937569	-0.429443	-0.112305	0.802734	0.163050	-0.039945	0.031838	-0.053386	-0.880249	-0.150632	-0.446791	158.985838	-50.397989	29.396490
63160		16.139807	-2.916601	0.350116	8.789504	7.918013	1.551563	-0.239452	-3.231538	-1.094978	-0.397949	-0.124023	0.806885	0.161150	-0.030042	0.006142	-0.059299	-0.886479	-0.153980	-0.432353	158.949354	-48.441802	29.263222
63161		14.985910	-1.546108	-2.342624	6.682117	6.359071	2.325823	-0.141680	-3.316092	-1.223611	-0.371094	-0.127197	0.816895	0.150122	-0.016394	-0.020927	-0.065115	-0.892553	-0.158004	-0.417305	158.907244	-46.415423	29.205452
63162		13.444150	-0.398986	-4.740227	4.562722	4.933507	2.764905	0.270618	-3.268118	-1.378270	-0.337646	-0.124756	0.833252	0.135161	-0.004858	-0.045204	-0.069343	-0.898258	-0.163577	-0.401955	159.004144	-44.381409	29.286424
63163		11.457996	0.557573	-7.397019	1.967907	3.540827	3.221253	0.554970	-3.276921	-1.542796	-0.308350	-0.126465	0.835938	0.115811	0.004887	-0.072065	-0.072622	-0.903652	-0.170365	-0.386154	159.181648	-42.310924	29.485712
63164		9.972107	1.258856	-9.060104	0.388777	2.541699	3.472106	0.967157	-3.042080	-1.589751	-0.272217	-0.117432	0.847656	0.101181	0.012221	-0.089010	-0.073892	-0.908406	-0.178229	-0.370909	159.532877	-40.355839	29.792218
63165		10.438695	4.614479	-11.244714	0.538038	-0.240915	6.197651	1.516768	-2.969293	-1.231157	-0.243896	-0.110840	0.850830	0.106322	0.046337	-0.110527	-0.071924	-0.913261	-0.185414	-0.355532	160.342666	-38.514691	29.880064
63166		10.123846	5.879116	-11.703279	0.878371	-1.396534	6.657932	0.751609	-2.693873	-0.953164	-0.223389	-0.094971	0.873535	0.103081	0.058739	-0.115432	-0.072669	-0.917363	-0.190059	-0.342114	160.777766	-36.874396	29.871989
63167		8.976748	5.353326	-8.764217	2.186598	-1.234194	3.594099	0.243858	-1.507750	-1.049323	-0.207520	-0.099609	0.865479	0.090704	0.053165	-0.086896	-0.074778	-0.919023	-0.194642	-0.334544	160.714258	-35.859376	30.209586
63168		8.136371	3.005473	-5.677670	3.005690	0.669141	0.086093	0.221086	-0.806791	-1.177605	-0.202393	-0.098389	0.876221	0.081767	0.029637	-0.056414	-0.076510	-0.919311	-0.200061	-0.330134	160.501064	-35.196245	30.793573
63169		7.541525	0.252476	-7.800565	0.424664	3.026444	0.601093	0.268314	-0.616076	-0.966307	-0.194824	-0.098389	0.870117	0.075666	0.002264	-0.077770	-0.077490	-0.919477	-0.204617	-0.326633	160.377512	-34.677202	31.272758
63170		7.060207	-0.391025	-7.370337	0.185702	3.429168	-0.193563	0.744192	-0.221892	-0.572936	-0.192139	-0.084717	0.872070	0.070673	-0.003839	-0.073639	-0.075226	-0.919557	-0.208323	-0.324588	160.624766	-34.444738	31.587644
63171		7.182790	0.354254	-5.235428	1.865562	2.783439	-1.572560	0.922234	0.367375	-0.305324	-0.193359	-0.075195	0.863770	0.071737	0.003675	-0.052469	-0.071098	-0.919005	-0.211274	-0.325173	160.996674	-34.585049	31.859570
63172		6.699709	0.260517	-4.813457	1.727358	2.614599	-2.177057	0.888923	0.885463	0.033460	-0.210205	-0.082275	0.876953	0.066783	0.002831	-0.048418	-0.066019	-0.917926	-0.212821	-0.328269	161.409706	-35.068359	32.027278
63173		5.728914	0.038997	-5.607852	0.420957	2.296453	-2.143411	1.012790	1.185534	0.395538	-0.215088	-0.068604	0.872559	0.056954	0.000788	-0.056413	-0.059459	-0.916734	-0.212966	-0.332729	161.996237	-35.783435	32.012119
63174		4.790863	0.361264	-5.908561	-0.366857	1.468205	-2.349341	1.373439	1.568113	0.670450	-0.236816	-0.055176	0.878906	0.047430	0.004180	-0.059431	-0.050371	-0.915220	-0.212577	-0.338594	162.857901	-36.752637	31.884951
63175		4.212695	0.967482	-5.922888	-0.631999	0.516698	-2.526124	1.457826	1.997982	0.872235	-0.257080	-0.037354	0.872070	0.041489	0.010290	-0.059572	-0.040098	-0.913083	-0.211449	-0.346354	163.813354	-37.991418	31.682106
63176		3.999555	1.055909	-6.596211	-1.279970	0.119891	-2.133844	1.338022	2.304725	0.980000	-0.281006	-0.024414	0.866699	0.039179	0.011195	-0.066343	-0.029847	-0.910332	-0.209680	-0.355583	164.731756	-39.411137	31.438642
63177		4.123339	0.690054	-7.509027	-2.062794	0.215210	-1.472635	1.309152	2.598161	0.880459	-0.298828	-0.011719	0.857422	0.040221	0.007573	-0.075569	-0.019592	-0.906754	-0.208284	-0.366103	165.577620	-40.977948	31.286880
63178		3.987086	0.917761	-7.603952	-2.291462	-0.283366	-1.492795	1.462851	3.050596	0.855250	-0.329346	0.006104	0.857178	0.038664	0.009903	-0.076565	-0.008209	-0.902095	-0.207299	-0.378396	166.469796	-42.788628	31.205312
63179		3.408387	1.867567	-7.193257	-2.199231	-1.554276	-2.093422	1.478859	3.504286	0.968411	-0.368896	0.026611	0.841797	0.032726	0.019370	-0.072372	0.003930	-0.896385	-0.205755	-0.392611	167.407279	-44.868175	31.071821
63180		3.321556	2.866256	-7.256892	-2.114482	-2.756015	-2.077454	1.318702	3.865725	1.057435	-0.400391	0.028320	0.830322	0.031653	0.029313	-0.072999	0.015899	-0.889690	-0.203432	-0.408429	168.300772	-47.156947	30.879584
63181		3.835266	3.807443	-7.541681	-1.887000	-3.751089	-1.539945	1.097690	4.113121	1.229447	-0.429688	0.046143	0.821045	0.036557	0.038719	-0.075970	0.027480	-0.882264	-0.199758	-0.425384	169.197955	-49.603744	30.518431
63182		4.470350	4.082449	-7.627958	-1.759760	-4.078029	-1.147055	0.693963	4.382685	1.309053	-0.461426	0.060059	0.803955	0.042750	0.041375	-0.077088	0.037704	-0.873951	-0.194756	-0.443687	169.952577	-52.204893	30.057974
63183		5.084952	3.973891	-7.743204	-1.891952	-4.078454	-0.792005	0.167897	4.709076	1.385691	-0.504150	0.065918	0.780029	0.048731	0.040147	-0.078563	0.046090	-0.864590	-0.188055	-0.463676	170.498081	-54.996250	29.496590
63184		5.377657	3.767708	-7.569538	-2.076319	-4.011728	-0.869273	-0.354056	5.035708	1.520588	-0.543701	0.072266	0.757568	0.051559	0.037939	-0.077079	0.052816	-0.854160	-0.179389	-0.485222	170.899597	-57.980068	28.771302
63185		5.446176	3.213940	-7.424384	-2.555529	-3.676485	-1.150157	-0.733993	5.300730	1.717286	-0.591064	0.069824	0.727051	0.052190	0.032318	-0.075766	0.058588	-0.842728	-0.168738	-0.507842	171.347392	-61.130071	27.761418
63186		5.509221	2.200499	-7.546678	-3.422510	-2.970280	-1.351953	-0.911116	5.450404	1.965536	-0.623535	0.078613	0.696045	0.052790	0.022183	-0.077027	0.064328	-0.830487	-0.156430	-0.530737	172.131566	-64.378075	26.292072
63187		5.908551	1.089844	-7.915546	-4.391619	-2.172848	-1.168628	-0.838740	5.504275	2.200235	-0.664551	0.083496	0.669434	0.056755	0.011195	-0.080786	0.070969	-0.817532	-0.143166	-0.553271	173.598086	-67.661427	24.158916
63188		6.567316	0.720109	-8.305128	-5.068243	-2.073557	-0.723911	-0.593047	5.511359	2.288259	-0.712646	0.093018	0.631348	0.063265	0.007684	-0.084839	0.078807	-0.803803	-0.130110	-0.575119	175.970887	-70.921455	21.259558
63189		7.622609	1.451934	-8.067837	-4.784717	-2.858876	-0.107069	-0.452358	5.599520	2.193352	-0.737305	0.101563	0.591553	0.073764	0.015152	-0.082801	0.086913	-0.788974	-0.117668	-0.596758	179.307723	-74.176620	17.488582
63190		9.368227	2.382430	-6.947312	-3.562900	-3.611350	0.954108	-0.515532	5.786488	2.107069	-0.775635	0.111328	0.548828	0.091363	0.024611	-0.072202	0.094552	-0.772834	-0.105208	-0.618643	-175.783920	-77.451234	12.122969
63191		11.499347	2.191197	-6.334211	-3.210278	-3.525395	2.611796	-0.754130	5.795234	2.147946	-0.814209	0.127930	0.508789	0.112850	0.022884	-0.066718	0.101294	-0.756055	-0.091727	-0.640083	-167.412452	-80.560342	3.155322
63192		13.462819	0.815053	-6.597601	-4.197560	-2.674335	4.350714	-0.880135	5.610332	2.352635	-0.832520	0.135986	0.463623	0.132601	0.009417	-0.069755	0.108048	-0.739306	-0.077095	-0.660158	-151.104618	-83.109554	-13.822996
63193		14.114048	0.079346	-6.399046	-4.827554	-2.400820	4.713904	-0.473297	5.515249	2.455372	-0.863525	0.162354	0.417480	0.139282	0.002354	-0.067853	0.116491	-0.722001	-0.063387	-0.679063	-121.641382	-84.464358	-43.726582
63194		12.917878	1.108289	-5.489233	-4.426652	-3.552462	3.069862	-0.053146	5.325425	2.455243	-0.887451	0.176025	0.378906	0.127508	0.012640	-0.058306	0.126303	-0.704457	-0.051179	-0.696541	-88.795604	-83.876257	-76.764540
63195		10.260754	1.749030	-4.735212	-4.122671	-4.081786	0.039991	-0.146258	4.938081	2.193458	-0.902100	0.196777	0.333252	0.101197	0.018570	-0.049876	0.134659	-0.687691	-0.039757	-0.712297	-68.363051	-82.049629	-97.433879
63196		8.243274	1.368949	-3.695494	-3.552843	-3.427078	-2.125087	-0.327005	4.439424	1.590051	-0.918457	0.207520	0.306885	0.081473	0.014277	-0.038794	0.140076	-0.672263	-0.030092	-0.726317	-56.890077	-80.057583	-109.235591
63197		7.388539	0.388097	-2.512386	-2.884153	-2.214804	-2.897371	-0.482609	3.819177	1.050406	-0.933105	0.210693	0.262939	0.073366	0.004204	-0.026538	0.142828	-0.658791	-0.022079	-0.738313	-49.900508	-78.264219	-116.635952
63198		5.237097	-1.312412	-0.654097	-1.497528	0.129593	-4.586231	-0.266954	3.120038	0.635171	-0.939453	0.211182	0.244873	0.052302	-0.012967	-0.007340	0.144656	-0.647488	-0.016738	-0.748033	-45.235075	-76.787177	-121.570821
63199		2.305267	-2.291570	1.452702	0.550205	2.043290	-6.949514	0.215752	2.178935	0.240980	-0.937012	0.213379	0.224854	0.023237	-0.022903	0.014250	0.146438	-0.639200	-0.015139	-0.754818	-42.022281	-75.787704	-124.754699
63200		0.378907	-1.528398	2.049918	1.539306	1.819698	-8.812229	0.645486	0.888453	-0.085959	-0.945801	0.220459	0.226074	0.003873	-0.015352	0.020433	0.148280	-0.635395	-0.017168	-0.757622	-40.235325	-75.436638	-126.218218
63201		0.495549	0.497142	0.499372	0.530537	-0.463170	-9.316621	1.316247	-0.567853	-0.453949	-0.930420	0.219727	0.228027	0.004952	0.004927	0.005040	0.150695	-0.636550	-0.023965	-0.755990	-39.547106	-75.853360	-126.154868
63202		1.860170	2.358485	-1.791858	-1.333817	-3.029308	-8.682695	1.894311	-1.851897	-0.789205	-0.938232	0.221680	0.230713	0.018858	0.023678	-0.017521	0.153542	-0.642005	-0.034999	-0.750353	-39.860919	-76.958825	-124.715928
63203		3.098582	3.343402	-3.709241	-2.942321	-4.689676	-7.841896	1.880960	-2.876857	-0.995719	-0.929688	0.214844	0.252930	0.031679	0.033621	-0.036324	0.155323	-0.651114	-0.047404	-0.741403	-41.799863	-78.579796	-121.633854
63204		4.624105	3.798359	-5.424833	-4.439320	-5.848959	-6.449319	1.166038	-3.582989	-1.253572	-0.915283	0.203857	0.287109	0.047438	0.038001	-0.053184	0.153628	-0.663102	-0.058549	-0.730250	-46.110592	-80.557660	-116.572665
63205		7.738185	4.968365	-7.020956	-5.635211	-7.788779	-3.376869	0.066593	-3.634617	-1.660203	-0.904541	0.196777	0.328125	0.079049	0.049055	-0.068767	0.146696	-0.675743	-0.067025	-0.719277	-52.636882	-82.638471	-109.942814
63206		11.048421	6.110925	-7.331810	-5.523068	-9.141157	0.141176	-0.742037	-3.121130	-1.756648	-0.901123	0.179199	0.344971	0.112142	0.059861	-0.071800	0.136834	-0.686848	-0.072536	-0.710109	-61.587921	-84.457464	-101.364427
63207		11.600438	5.119355	-7.407614	-5.716782	-7.981075	1.107704	-1.458749	-2.754792	-1.288377	-0.878418	0.155273	0.370117	0.117338	0.049906	-0.072833	0.126235	-0.697104	-0.073607	-0.701921	-76.640640	-85.716794	-87.100658
63208		11.765580	2.705400	-3.377492	-2.358267	-4.303142	1.722901	-2.084802	-2.341671	-0.843445	-0.866943	0.145508	0.388672	0.118154	0.026212	-0.032670	0.115162	-0.706273	-0.070663	-0.694927	-96.749989	-86.278328	-68.141205
63209		17.453831	2.595994	7.613414	8.419541	-1.591241	7.389588	-2.838612	-0.057016	-1.048177	-0.869629	0.118896	0.397949	0.174653	0.026122	0.075814	0.101465	-0.707696	-0.064478	-0.696214	-100.506088	-86.861507	-66.011685
63210		23.006046	-8.802083	2.764580	1.375897	7.865808	13.652310	-4.669758	0.236685	1.328999	-0.871094	0.108398	0.394043	0.230670	-0.085817	0.029394	0.089646	-0.709497	-0.043346	-0.697637	-98.968351	-86.126458	-70.233357
63211		14.253521	-8.356813	-6.453946	-7.489370	6.123192	5.055574	-1.070791	-0.636614	0.005077	-0.870117	0.112549	0.395020	0.142741	-0.083907	-0.063637	0.085731	-0.712223	-0.039827	-0.695559	-104.855451	-86.042150	-64.951252
63212		9.654472	6.493879	0.679123	2.101045	-6.818591	-0.596831	0.011216	-0.295843	-0.872194	-0.872803	0.116211	0.393311	0.096816	0.064517	0.006938	0.082711	-0.713102	-0.043061	-0.694831	-109.634875	-86.461966	-60.155702
63213		8.128781	3.426486	-0.890443	-0.063291	-3.951518	-1.875957	-3.409360	-0.475398	-0.009162	-0.870850	0.092285	0.405762	0.081311	0.034105	-0.009293	0.070423	-0.716093	-0.031395	-0.693733	-115.678354	-86.354733	-56.060118
63214		8.538430	-0.085366	-8.234179	-7.797980	-1.485610	-0.998247	-2.447313	-1.445087	0.837431	-0.859863	0.083252	0.417236	0.085982	-0.001497	-0.081706	0.064364	-0.722055	-0.020375	-0.688534	-123.869773	-85.517541	-49.254562
63215		15.760317	0.854541	-5.040476	-3.962664	-2.397887	6.095347	-1.419443	-1.695093	0.723205	-0.855957	0.091064	0.430420	0.157992	0.008765	-0.049128	0.061562	-0.728408	-0.013373	-0.682241	-130.731925	-84.590537	-43.186633
63216		16.677352	-4.684411	-5.196233	-4.321650	3.136590	7.465864	-2.819488	-1.397400	-0.446787	-0.838379	0.077393	0.437012	0.167022	-0.047932	-0.050125	0.049701	-0.733954	-0.005771	-0.677354	-139.932411	-84.191964	-35.565804
63217		9.678356	-7.264105	-7.517899	-7.087264	6.185366	0.885734	-2.005274	-1.490780	-1.023136	-0.846680	0.052490	0.444580	0.096961	-0.073881	-0.073720	0.038844	-0.739441	-0.003058	-0.672093	-150.314718	-83.817303	-26.284577
63218		5.368191	-3.694573	-6.577475	-6.187425	3.059906	-3.641617	0.259495	-1.662953	-1.661738	-0.832764	0.052979	0.472656	0.053918	-0.037308	-0.065375	0.034225	-0.744934	-0.010355	-0.666179	-161.328721	-83.328194	-15.052352
63219		5.374325	0.532336	-4.679585	-3.944625	-0.980630	-3.935477	1.785562	-1.927189	-2.024620	-0.820068	0.029541	0.476807	0.054244	0.005190	-0.046228	0.034042	-0.750878	-0.024120	-0.659122	-171.466784	-82.516442	-3.809023
63220		6.794612	3.802145	-3.537712	-2.196653	-4.092241	-2.632103	1.746462	-2.040660	-2.085094	-0.803711	0.024902	0.489014	0.068694	0.037611	-0.034349	0.033507	-0.756979	-0.038005	-0.651472	-179.534628	-81.435227	5.347902
63221		9.102963	6.712416	-4.696768	-2.499027	-6.925501	-0.026802	0.298524	-1.677409	-2.044554	-0.795166	0.016357	0.506836	0.092099	0.066256	-0.046099	0.027663	-0.761977	-0.046940	-0.645308	173.652605	-80.407051	12.416454
63222		11.247686	7.940440	-5.599811	-2.792598	-7.948692	2.431977	-0.902717	-0.912784	-1.549489	-0.795898	0.000000	0.513672	0.113341	0.078276	-0.055837	0.019038	-0.764679	-0.050011	-0.642186	168.619658	-79.748580	17.000066
63223		11.532736	6.903175	-3.879212	-1.162068	-6.569668	2.483400	-1.224089	-0.407963	-0.562098	-0.792969	-0.012207	0.512695	0.115600	0.068469	-0.038977	0.012459	-0.765986	-0.048219	-0.640925	166.512510	-79.445416	18.426588
63224		10.015697	4.702652	-3.678293	-1.463242	-4.384307	0.892244	-1.782954	-0.473679	0.373034	-0.791992	-0.009766	0.512451	0.100157	0.046884	-0.036964	0.006741	-0.767704	-0.041060	-0.639452	166.964704	-79.226404	16.926416
63225		9.900127	2.405152	-5.174377	-3.138281	-2.152202	0.961836	-2.166179	-0.466262	0.513473	-0.793701	-0.019043	0.522217	0.099061	0.023745	-0.051771	-0.000020	-0.769364	-0.032130	-0.638003	167.554526	-79.025095	15.059557
63226		10.619874	0.700548	-5.690616	-3.600825	-0.376145	1.700255	-2.028362	-0.128177	0.507705	-0.792236	-0.026611	0.521729	0.106218	0.006698	-0.056907	-0.006194	-0.769843	-0.023660	-0.637764	167.974388	-79.010978	13.447495
63227		11.371552	-1.468344	-4.794932	-2.640568	1.890358	2.183705	-1.907144	0.189841	0.483638	-0.789795	-0.034668	0.512939	0.113706	-0.014865	-0.047916	-0.011960	-0.769238	-0.015676	-0.638658	168.201298	-79.168795	12.101158
63228		11.504910	-5.451482	-4.105133	-1.936084	5.917780	2.026426	-1.802169	0.266497	0.223908	-0.791260	-0.040527	0.512939	0.115056	-0.054754	-0.040712	-0.018125	-0.768296	-0.009030	-0.639775	167.699482	-79.340886	11.560412
63229		9.694912	-7.757973	-3.837951	-1.931301	8.195208	0.087600	-0.511852	0.091627	-0.253084	-0.788330	-0.044678	0.512939	0.096833	-0.077800	-0.038225	-0.020886	-0.767981	-0.008325	-0.640078	166.623965	-79.354094	12.353837
63230		7.887581	-5.248973	-2.569039	-1.053854	5.629419	-1.839968	1.241641	-0.298341	-0.897913	-0.794434	-0.046143	0.522705	0.078678	-0.052683	-0.025900	-0.018973	-0.769035	-0.015670	-0.638733	164.977245	-79.058377	14.753898
63231		7.206598	-1.684428	-1.776184	-0.411941	2.079448	-2.502901	1.849318	-0.767685	-1.360325	-0.787598	-0.049805	0.523682	0.072018	-0.017171	-0.017643	-0.016252	-0.771540	-0.026682	-0.635413	162.919704	-78.414529	17.929744
63232		7.482391	0.054904	-2.295135	-0.777626	0.425902	-2.036467	1.889823	-1.139043	-1.566058	-0.770752	-0.046143	0.542725	0.074955	0.000177	-0.022522	-0.014058	-0.775064	-0.038586	-0.630546	160.984414	-77.512477	21.015048
63233		8.719964	0.658866	-2.890123	-0.979036	-0.013324	-0.654954	1.937681	-1.220317	-1.580318	-0.775146	-0.049561	0.543213	0.087423	0.006175	-0.028307	-0.011754	-0.778710	-0.050678	-0.625224	159.453853	-76.542878	23.722375
63234		10.650641	1.284586	-3.347030	-0.846703	-0.383087	1.386557	2.048680	-0.955301	-1.445657	-0.765869	-0.048828	0.558105	0.106755	0.012413	-0.032832	-0.008509	-0.781413	-0.062604	-0.620808	158.326238	-75.730958	26.092268
63235		12.078926	2.663347	-3.168891	-0.104593	-1.493103	2.867743	2.182919	-0.620223	-1.172245	-0.752686	-0.041992	0.565918	0.121041	0.026266	-0.031026	-0.003801	-0.783043	-0.073877	-0.617552	157.719853	-75.145257	28.008737
63236		11.981790	4.392815	-2.993936	0.375428	-3.128799	2.910967	2.064958	-0.445592	-0.838088	-0.757080	-0.036133	0.566162	0.120067	0.043730	-0.029220	0.001558	-0.784132	-0.083476	-0.614953	157.641469	-74.724034	29.314620
63237		10.686502	5.077367	-2.828140	0.463301	-3.911022	1.696758	1.516306	-0.385385	-0.500503	-0.749756	-0.022949	0.570068	0.107046	0.050717	-0.027691	0.005815	-0.785114	-0.090052	-0.612743	157.878790	-74.406356	29.967776
63238		9.699316	4.030991	-2.628783	0.362536	-2.971384	0.592851	0.690065	-0.350753	-0.202777	-0.757813	-0.023682	0.582520	0.097080	0.040302	-0.025979	0.007770	-0.786105	-0.092926	-0.611019	158.185649	-74.173806	30.059196
63239		9.315311	2.349449	-2.376830	0.302868	-1.332749	-0.010841	0.185735	-0.332759	-0.031129	-0.744385	-0.022949	0.570313	0.093196	0.023502	-0.023591	0.008266	-0.787142	-0.093586	-0.609575	158.506740	-73.985201	29.834782
63240		9.194081	1.476133	-2.463013	0.091226	-0.501430	-0.194129	0.245068	-0.343124	0.001436	-0.739014	-0.023926	0.578857	0.091983	0.014792	-0.024454	0.009099	-0.788210	-0.094296	-0.608071	158.923370	-73.799509	29.546745
63241		9.227719	1.395436	-2.028415	0.540828	-0.361520	-0.284351	0.446577	-0.331590	-0.051130	-0.740479	-0.019531	0.587891	0.092314	0.013976	-0.020100	0.010560	-0.789215	-0.095826	-0.606503	159.341971	-73.606571	29.375704
63242		9.458538	1.347252	-1.365534	1.259719	-0.184865	-0.245947	0.293663	-0.337611	-0.181652	-0.740234	-0.015137	0.582031	0.094620	0.013406	-0.013476	0.011031	-0.790168	-0.097405	-0.605000	159.436888	-73.385981	29.451657
63243		9.658829	0.588194	-1.056108	1.512978	0.656744	-0.219269	0.002531	-0.408735	-0.323877	-0.735840	-0.025146	0.596436	0.096619	0.005726	-0.010364	0.009877	-0.791287	-0.098672	-0.603350	159.161022	-73.096370	29.740044
63244		9.609630	-0.673001	-1.070451	1.313617	1.923332	-0.404251	0.080321	-0.517511	-0.394632	-0.731445	-0.028564	0.586670	0.096110	-0.006915	-0.010459	0.008773	-0.792679	-0.100455	-0.601242	158.890184	-72.735720	30.070989
63245		9.172800	-1.500567	-0.841811	1.323289	2.741421	-0.990342	0.531063	-0.680118	-0.424217	-0.732910	-0.024902	0.598633	0.091724	-0.015178	-0.008146	0.009271	-0.794522	-0.103715	-0.598241	158.942545	-72.279825	30.333227
63246		8.440316	-1.163524	-0.753014	1.325315	2.351057	-1.696321	1.035613	-0.886653	-0.464532	-0.724365	-0.018311	0.613037	0.084408	-0.011793	-0.007217	0.011560	-0.796898	-0.108651	-0.594150	159.350440	-71.707480	30.527707
63247		7.864165	0.071217	-1.030834	1.205589	1.052464	-2.044098	1.383836	-1.077268	-0.513235	-0.714111	-0.017578	0.620850	0.078697	0.000580	-0.009880	0.014977	-0.799749	-0.114819	-0.589061	159.983574	-71.021756	30.694930
63248		7.929547	1.282277	-1.596852	1.031438	-0.164792	-1.689898	1.467981	-1.196482	-0.542381	-0.699707	-0.012451	0.628418	0.079423	0.012722	-0.015400	0.018585	-0.802847	-0.121350	-0.583408	160.670052	-70.268601	30.858268
63249		8.446229	2.034188	-2.189491	0.912664	-0.862622	-0.941841	1.362062	-1.237580	-0.546404	-0.695068	-0.002930	0.639893	0.084650	0.020257	-0.021233	0.021716	-0.806006	-0.127578	-0.577588	161.293015	-69.491235	31.024105
63250		9.133788	2.272488	-2.205103	1.289662	-0.921713	-0.276527	1.109473	-1.171390	-0.535785	-0.692383	-0.002686	0.646973	0.091525	0.022600	-0.021390	0.023914	-0.808931	-0.133018	-0.572158	161.742690	-68.754198	31.222635
63251		9.476995	1.878316	-2.196079	1.430546	-0.419765	-0.017779	0.773138	-1.114722	-0.487671	-0.687988	0.003174	0.656006	0.094936	0.018635	-0.021360	0.024914	-0.811725	-0.137286	-0.567128	162.034435	-68.055288	31.383750
63252		9.054944	1.499521	-2.563331	0.976185	-0.155636	-0.334665	0.634650	-1.121099	-0.447311	-0.676270	0.001465	0.663574	0.090724	0.014873	-0.025078	0.025472	-0.814534	-0.140992	-0.562145	162.300780	-67.362052	31.488337
63253		8.564785	1.272030	-2.740685	0.700769	-0.021389	-0.757724	0.597312	-1.137308	-0.439830	-0.663086	0.004883	0.672852	0.085830	0.012612	-0.026881	0.025877	-0.817367	-0.144558	-0.557085	162.557133	-66.659745	31.580239
63254		8.210028	1.170938	-2.744963	0.652429	0.049126	-1.101696	0.543024	-1.181092	-0.432941	-0.652832	0.005127	0.677246	0.082286	0.011605	-0.026932	0.026056	-0.820289	-0.147943	-0.551869	162.804458	-65.936528	31.649363
63255		8.247534	1.245805	-2.691022	0.837444	0.047562	-1.088542	0.478096	-1.238245	-0.447420	-0.649414	-0.002686	0.681152	0.082667	0.012337	-0.026369	0.025874	-0.823334	-0.151208	-0.546431	163.013465	-65.177971	31.719131
63256		8.392541	1.067731	-2.463097	1.147875	0.353105	-1.083534	0.334873	-1.283808	-0.462514	-0.627197	0.003662	0.696777	0.084106	0.010524	-0.024074	0.025037	-0.826463	-0.154143	-0.540900	163.137193	-64.393726	31.793879
63257		8.308008	0.850840	-2.346051	1.263392	0.625321	-1.253337	0.172707	-1.319773	-0.441576	-0.619629	0.008301	0.702637	0.083251	0.008345	-0.022904	0.023543	-0.829691	-0.156547	-0.535305	163.202529	-63.591590	31.829207
63258		8.186599	0.848005	-2.108695	1.531188	0.709225	-1.485787	0.146739	-1.414503	-0.404224	-0.611816	-0.001953	0.711426	0.082029	0.008330	-0.020501	0.021980	-0.833155	-0.158732	-0.529315	163.323915	-62.745361	31.786820
63259		8.692408	0.812203	-1.381024	2.468222	1.075182	-1.393954	0.091376	-1.541597	-0.370384	-0.593750	-0.000732	0.716797	0.087042	0.007967	-0.013136	0.020163	-0.836945	-0.160632	-0.522794	163.482546	-61.833265	31.665080
63260		10.160979	0.561666	-0.282202	4.068185	1.963704	-0.689535	-0.092998	-1.643123	-0.360936	-0.584473	-0.001709	0.731934	0.101638	0.005432	-0.001990	0.017527	-0.840963	-0.162013	-0.515970	163.568209	-60.868378	31.506165
63261		11.898257	0.295267	0.896373	5.873918	2.961585	0.146319	-0.246226	-1.683391	-0.377484	-0.572998	-0.006104	0.743652	0.118907	0.002740	0.009961	0.014159	-0.845029	-0.163055	-0.509056	163.554262	-59.877260	31.358022
63262		12.845102	0.274906	2.249289	7.588353	3.560103	0.180796	-0.239792	-1.724108	-0.415666	-0.558838	-0.010742	0.747070	0.128256	0.002510	0.023596	0.010698	-0.849095	-0.164269	-0.501936	163.516170	-58.858975	31.242022
63263		12.837421	0.136352	3.015407	8.355403	3.905692	-0.387280	-0.340371	-1.845116	-0.500275	-0.536377	-0.014160	0.748047	0.128092	0.001096	0.031335	0.006488	-0.853329	-0.165577	-0.494340	163.374927	-57.759588	31.176910
63264		11.903356	-0.717076	1.664601	6.715124	4.300264	-0.791375	-0.399794	-2.102136	-0.554206	-0.526611	-0.020508	0.764160	0.118829	-0.007465	0.017910	0.001686	-0.858059	-0.166963	-0.485649	163.222005	-56.511287	31.085639
63265		11.581133	-2.162788	0.533143	5.394561	5.482686	-0.873103	-0.130983	-2.430326	-0.626161	-0.496094	-0.021240	0.773438	0.115667	-0.021986	0.006752	-0.002418	-0.863405	-0.169285	-0.475257	163.242476	-55.070701	30.968277
63266		13.577371	-4.737494	0.541724	5.863103	8.614867	0.110931	-0.102244	-2.683475	-0.666470	-0.477051	-0.031250	0.792725	0.135526	-0.047823	0.007261	-0.006700	-0.869165	-0.171821	-0.463665	163.300724	-53.484921	30.823747
63267		16.896921	-8.765981	2.807263	8.486117	13.876575	0.465119	-0.323360	-2.721765	-0.662515	-0.457764	-0.033936	0.793701	0.168274	-0.088170	0.030508	-0.011973	-0.874840	-0.173782	-0.452007	163.236487	-51.878849	30.669338
63268		17.533356	-10.816179	4.338993	9.719525	16.328845	-0.751316	0.000018	-2.925061	-0.666135	-0.432861	-0.042969	0.806885	0.174312	-0.108744	0.045944	-0.016006	-0.880804	-0.176451	-0.439082	163.388227	-50.160475	30.473510
63269		17.848057	-7.937707	3.750691	10.551915	13.800712	-0.127954	0.796528	-3.446380	-0.856278	-0.388916	-0.030273	0.817627	0.177460	-0.080295	0.040252	-0.017408	-0.887563	-0.181597	-0.423027	163.950736	-48.125041	30.330792
63270		18.977911	-3.190091	1.070299	10.962153	9.642450	2.768776	1.103685	-3.814609	-1.153448	-0.353027	-0.029297	0.834961	0.189343	-0.033065	0.014137	-0.018399	-0.894519	-0.188628	-0.404866	164.544898	-45.838566	30.382442
63271		18.457602	-0.025179	-2.042262	9.846289	6.442713	4.552081	1.062226	-3.998752	-1.321699	-0.323975	-0.017578	0.853760	0.184929	-0.001378	-0.016733	-0.020085	-0.901283	-0.196197	-0.385735	165.032936	-43.427180	30.550695
63272		18.363304	1.296034	-4.107056	9.316632	5.259672	5.719390	1.053377	-3.910493	-1.119344	-0.287354	-0.016602	0.858643	0.184458	0.012133	-0.037404	-0.021320	-0.907662	-0.202784	-0.366842	165.595193	-41.093567	30.611427
63273		17.520178	2.586510	-6.472946	8.204557	3.765498	6.740483	1.386044	-3.658775	-0.995562	-0.254883	-0.007080	0.872070	0.176472	0.025422	-0.061331	-0.020558	-0.913355	-0.209328	-0.348629	166.357364	-38.920142	30.657368
63274		14.779038	4.920830	-8.045108	6.810234	0.600068	6.329815	1.935136	-3.403671	-1.006746	-0.219482	0.009033	0.875732	0.149373	0.049218	-0.077442	-0.017029	-0.918274	-0.216854	-0.330844	167.378997	-36.886078	30.798505
63275		12.172109	7.159580	-8.601303	6.112771	-2.409402	5.359739	2.002428	-2.883680	-0.748715	-0.206787	0.028564	0.882080	0.123206	0.071981	-0.083524	-0.012201	-0.922284	-0.223229	-0.315296	168.477286	-35.179400	30.876347
63276		11.319268	8.593735	-9.018120	6.304600	-3.964248	5.281229	0.393774	-2.541607	-0.550551	-0.172852	0.029785	0.887451	0.114561	0.085799	-0.088562	-0.014086	-0.925647	-0.226162	-0.303034	168.692929	-33.685444	30.893091
63277		10.549241	7.746435	-12.728843	3.556639	-3.649322	7.718245	-2.001542	-2.154110	-0.488380	-0.161865	0.012451	0.893555	0.107047	0.075933	-0.126906	-0.026527	-0.928142	-0.225124	-0.295241	167.537174	-32.419059	30.904176
63278		6.830695	5.354581	-16.186470	-1.955536	-2.931547	8.212000	-2.728915	-1.733146	-0.182358	-0.148438	-0.003662	0.880859	0.069758	0.051273	-0.161974	-0.041405	-0.930038	-0.221630	-0.290165	166.055550	-31.424583	30.748184
63279		3.125504	4.364087	-14.026568	-3.850893	-3.128346	4.362453	-1.950058	-1.158178	0.204576	-0.132080	-0.035645	0.883789	0.032024	0.042304	-0.140499	-0.051456	-0.931504	-0.217516	-0.286947	165.110238	-30.810487	30.411579
63280		2.010957	2.909455	-8.738301	-2.285398	-1.962417	-0.880038	-0.769412	-0.526678	0.321853	-0.130615	-0.037109	0.885010	0.020293	0.028791	-0.087441	-0.055149	-0.932426	-0.214721	-0.285370	164.825427	-30.563240	30.104831
63281		3.777780	1.767104	-5.036072	0.681642	-0.069498	-3.309862	0.517095	-0.267415	-0.015313	-0.132568	-0.031982	0.880127	0.037846	0.017798	-0.050264	-0.053052	-0.932955	-0.215367	-0.283543	165.143414	-30.412079	30.056568
63282		5.807168	1.996791	-4.104669	2.823173	0.593842	-3.013014	1.088010	0.083356	-0.047314	-0.125488	-0.015381	0.888916	0.058059	0.020177	-0.040962	-0.047952	-0.933086	-0.217095	-0.282704	165.748164	-30.447795	30.092336
63283		7.288569	2.202576	-5.604919	3.189919	0.936698	-0.961919	0.738434	0.489147	0.459151	-0.137207	-0.009277	0.886475	0.072697	0.022400	-0.056145	-0.043326	-0.933082	-0.216032	-0.284273	166.285799	-30.782526	29.863464
63284		7.413772	2.410293	-7.847103	2.093294	0.613732	1.031238	0.337480	0.870751	0.631279	-0.146729	-0.010986	0.889648	0.073718	0.024469	-0.078752	-0.039912	-0.932609	-0.213697	-0.288063	166.624505	-31.348438	29.580801
63285		6.208211	3.146776	-7.778727	1.424506	-0.662966	0.506324	0.255660	1.333665	0.556293	-0.154297	-0.006104	0.887451	0.061474	0.031739	-0.078158	-0.036492	-0.931332	-0.211654	-0.294095	166.858281	-32.164606	29.411192
63286		3.841971	3.274197	-6.654002	0.235417	-1.788728	-1.657949	-0.143414	1.819633	0.609198	-0.159180	-0.007080	0.888672	0.037712	0.032810	-0.066909	-0.034335	-0.929257	-0.208875	-0.302777	166.846275	-33.255367	29.280396
63287		1.987449	2.850179	-6.067780	-1.087128	-2.182401	-3.259505	-0.729574	2.274187	0.685771	-0.197266	-0.015625	0.881836	0.019085	0.028346	-0.061001	-0.034313	-0.926358	-0.204874	-0.314183	166.487085	-34.613074	29.169869
63288		0.814301	2.121971	-5.875329	-2.243211	-2.005399	-4.278361	-1.080448	2.639314	0.892219	-0.214844	-0.031738	0.884766	0.007272	0.020935	-0.058967	-0.035205	-0.922863	-0.199421	-0.327591	165.969750	-36.199705	28.993360
63289		-0.110191	0.852843	-5.904355	-3.514231	-1.221138	-5.148281	-1.032787	2.979107	1.167719	-0.238281	-0.043213	0.870850	-0.002030	0.008213	-0.059061	-0.035087	-0.918860	-0.192752	-0.342508	165.555274	-38.017869	28.694261
63290		-0.163726	-0.624988	-5.727498	-4.066563	0.113307	-5.729908	-0.644923	3.268545	1.398136	-0.272705	-0.041504	0.862549	-0.002528	-0.006450	-0.057218	-0.032494	-0.914374	-0.185714	-0.358294	165.439683	-40.027845	28.290149
63291		0.417025	-1.522760	-5.298612	-3.793725	1.145378	-5.957611	-0.062216	3.446757	1.515412	-0.310547	-0.034668	0.854736	0.003372	-0.015217	-0.053044	-0.026865	-0.909460	-0.179112	-0.374271	165.713459	-42.155612	27.813645
63292		1.432207	-1.630709	-5.207153	-3.218899	1.523966	-5.437926	0.479103	3.516585	1.530706	-0.343018	-0.022461	0.843994	0.013527	-0.016076	-0.052353	-0.018660	-0.904173	-0.173435	-0.389927	166.337178	-44.318872	27.303244
63293		2.358735	-0.733532	-5.527400	-2.731264	0.826988	-4.473587	0.931161	3.544202	1.439378	-0.381836	-0.018799	0.828857	0.022653	-0.006911	-0.055714	-0.008563	-0.898447	-0.168964	-0.405180	167.220720	-46.483104	26.808325
63294		3.180246	0.919747	-5.543440	-1.912545	-0.643269	-3.679801	1.165079	3.642027	1.344785	-0.404541	0.005615	0.818359	0.030723	0.009731	-0.055945	0.002483	-0.892100	-0.165354	-0.420488	168.234364	-48.681939	26.339007
63295		3.513132	2.269752	-5.787682	-1.689178	-2.034517	-3.180083	0.766453	3.840806	1.300317	-0.435791	0.009521	0.807617	0.033863	0.023144	-0.058447	0.011816	-0.884925	-0.161008	-0.436857	169.033146	-50.984635	25.865269
63296		3.734569	2.914556	-6.479727	-2.150318	-2.859068	-2.627969	-0.131587	4.136844	1.392422	-0.473389	0.022461	0.783203	0.035791	0.029355	-0.065568	0.017615	-0.876838	-0.154228	-0.455038	169.405645	-53.458116	25.298053
63297		4.005322	2.864318	-7.147540	-2.868930	-2.993119	-2.188392	-0.940746	4.498316	1.613160	-0.508057	0.012451	0.766113	0.038200	0.028617	-0.072483	0.020631	-0.867695	-0.144503	-0.475182	169.495577	-56.159288	24.525395
63298		4.270153	2.130729	-7.559096	-3.648250	-2.418839	-2.019399	-1.270923	4.843503	1.856915	-0.553223	0.009033	0.735840	0.040655	0.021206	-0.076727	0.023036	-0.857383	-0.132829	-0.496709	169.635518	-59.077075	23.496949
63299		4.622273	1.308791	-7.785144	-4.279486	-1.711155	-1.911739	-1.227960	5.032333	2.074169	-0.591797	0.011963	0.719482	0.044108	0.013070	-0.079059	0.026263	-0.846098	-0.120186	-0.518637	170.120799	-62.122314	22.129078
63300		5.549584	0.687201	-8.434005	-5.005606	-1.190616	-1.100336	-1.133402	5.121257	2.232253	-0.625977	0.023682	0.692627	0.053234	0.006991	-0.085762	0.030341	-0.833997	-0.107037	-0.540436	171.066171	-65.222145	20.349659
63301		6.836063	0.670282	-9.360114	-5.804879	-1.310444	0.154542	-1.017093	5.274742	2.344669	-0.661377	0.020020	0.654297	0.065779	0.007002	-0.095394	0.035255	-0.820823	-0.093599	-0.562357	172.601962	-68.402352	18.042447
63302		8.120404	0.890305	-8.821170	-5.356896	-1.509601	0.842399	-0.842392	5.552271	2.424580	-0.706787	0.032471	0.613525	0.078601	0.009489	-0.090457	0.041219	-0.806145	-0.080214	-0.584805	174.997793	-71.711387	14.980982
63303		9.282212	1.171343	-7.824549	-4.614641	-1.797281	1.331086	-0.656844	5.776199	2.387562	-0.737793	0.042480	0.565918	0.090364	0.012539	-0.080920	0.047858	-0.789981	-0.067375	-0.607537	178.607643	-75.090486	10.819749
63304		9.986806	1.806768	-7.986672	-5.111406	-2.710489	1.731273	-0.514860	5.664031	2.415324	-0.775635	0.055664	0.536133	0.097326	0.019043	-0.082695	0.055072	-0.773371	-0.054842	-0.629172	-175.427709	-78.295433	4.389642
63305		11.245977	3.330241	-7.445373	-4.745826	-4.445588	2.461267	-0.431098	5.492763	2.680656	-0.811768	0.068359	0.495117	0.109900	0.034622	-0.077569	0.063329	-0.756614	-0.041522	-0.649462	-164.231653	-81.130866	-7.239059
63306		12.691501	4.749933	-7.241338	-4.817820	-6.217912	3.382971	-0.765300	5.415164	2.771450	-0.828857	0.088623	0.451904	0.124218	0.048947	-0.075987	0.070557	-0.739527	-0.026779	-0.668883	-144.260416	-83.261875	-27.832668
63307		13.753167	4.852061	-6.902141	-5.125578	-6.714140	3.931226	-1.539321	5.314851	3.130242	-0.854980	0.102783	0.415283	0.134851	0.050094	-0.073011	0.076019	-0.722374	-0.008113	-0.687264	-113.925308	-83.802666	-59.243552
63308		12.501311	1.401474	-7.482022	-6.896176	-3.579957	2.588800	-2.506226	5.088961	3.367303	-0.884033	0.127197	0.360596	0.122804	0.015129	-0.078149	0.078737	-0.705619	0.014635	-0.704051	-88.358903	-82.427676	-86.433876
63309		12.547350	-1.894859	-7.382351	-7.691690	-0.549038	2.678291	-2.407122	4.857476	3.042013	-0.900879	0.137451	0.325684	0.123913	-0.017967	-0.076626	0.080570	-0.688938	0.035795	-0.719439	-73.491474	-80.240761	-102.866687
63310		9.879734	-3.387025	-4.789156	-5.566755	1.320162	0.150599	-1.208877	4.532408	2.585019	-0.905029	0.161133	0.288574	0.098111	-0.032897	-0.049919	0.084902	-0.672446	0.050897	-0.733497	-64.407127	-77.913190	-112.821820
63311		5.686169	-4.080196	-3.103343	-3.880519	2.725436	-3.802709	0.132422	3.681262	1.893256	-0.921143	0.173096	0.257324	0.056660	-0.040244	-0.032104	0.091346	-0.658296	0.058379	-0.744912	-58.604733	-75.948996	-118.703523
63312		2.680235	-4.410230	-0.439013	-1.072300	3.702299	-6.353175	1.495282	2.259533	0.810370	-0.926270	0.187256	0.240967	0.026926	-0.043957	-0.005023	0.098658	-0.648928	0.056538	-0.752305	-54.610497	-74.846183	-121.946046
63313		1.329474	-2.243255	1.164400	0.765924	1.955133	-7.877248	2.415156	0.588726	-0.380109	-0.933838	0.190186	0.231201	0.013286	-0.022596	0.011333	0.104898	-0.645613	0.046559	-0.754992	-51.778827	-74.817566	-123.450865
63314		0.761244	1.642333	-0.024321	0.052287	-1.763085	-9.405428	2.785686	-1.069549	-1.155889	-0.924072	0.191162	0.237061	0.007708	0.016380	0.000026	0.109803	-0.648409	0.031779	-0.752661	-50.447065	-75.716317	-123.178073
63315		1.241793	4.694480	-2.580330	-2.049696	-5.102228	-9.834436	2.708944	-2.495781	-1.522193	-0.911133	0.180176	0.256104	0.013092	0.047189	-0.025005	0.113239	-0.656463	0.015327	-0.745653	-51.255501	-77.295187	-120.755361
63316		2.726260	5.786099	-1.820623	-1.139289	-6.374880	-8.301721	2.012751	-3.527104	-1.723495	-0.908691	0.170898	0.291260	0.028069	0.057797	-0.017134	0.113701	-0.668480	0.000200	-0.734987	-55.095555	-79.297084	-115.657364
63317		7.852266	6.165209	1.738381	2.231329	-6.959762	-2.793912	0.591753	-3.218395	-1.944741	-0.905273	0.158936	0.320801	0.078822	0.060832	0.018831	0.108515	-0.679890	-0.010250	-0.725168	-60.429722	-81.224603	-109.907157
63318		22.819240	3.238411	1.854249	1.354143	-5.825132	12.521935	-0.963091	-1.997902	-2.565647	-0.887451	0.145752	0.337158	0.228384	0.029551	0.020677	0.095857	-0.687463	-0.016527	-0.719675	-63.333767	-83.058058	-107.533508
63319		31.522726	0.365238	-2.384319	-3.194682	-4.152880	21.364429	-0.762120	-1.770558	-1.029737	-0.881836	0.125488	0.353027	0.315435	0.001945	-0.021061	0.089387	-0.694112	-0.018124	-0.714066	-69.991580	-84.000892	-101.276569
63320		14.657428	5.260242	0.505067	1.076604	-6.504895	4.304233	-0.021423	-1.205899	-1.164603	-0.872559	0.122559	0.354248	0.146843	0.051748	0.005930	0.085077	-0.698332	-0.022591	-0.710340	-74.751223	-84.842501	-96.507290
