// General information: 
//  MT Manager version: 2021.4.0 
//  XDA version: 2021.4.0 build 6323 rev 112641 built on 2021-09-28
// Device information: 
//  DeviceId: 00B4778F
//  ProductCode: MTW2-3A7G6
//  Firmware Version: 4.6.0
//  Hardware Version: 2.0.0
// Device settings: 
//  Filter Profile: human(46.1)
//  Option Flags: Orientation Smoother Disabled, Position/Velocity Smoother Disabled, Continuous Zero Rotation Update Disabled, AHS Disabled, ICC Disabled
// Coordinate system: ENU
PacketCounter	SampleTimeFine	Acc_X	Acc_Y	Acc_Z	FreeAcc_E	FreeAcc_N	FreeAcc_U	Gyr_X	Gyr_Y	Gyr_Z	Mag_X	Mag_Y	Mag_Z	VelInc_X	VelInc_Y	VelInc_Z	Quat_q0	Quat_q1	Quat_q2	Quat_q3	Roll	Pitch	Yaw
26587		9.543869	-0.320442	2.524551	0.057534	0.077972	0.064159	0.014573	0.039409	0.015223	-0.870117	-0.223389	-0.638184	0.095444	-0.003199	0.025226	-0.441280	-0.496768	0.350411	-0.660079	-5.293528	-74.812229	116.521747
26588		9.524855	-0.281674	2.550326	0.030457	0.039428	0.051586	0.016556	0.042432	0.015288	-0.859131	-0.218018	-0.640869	0.095254	-0.002812	0.025483	-0.441267	-0.496651	0.350300	-0.660235	-5.302734	-74.788782	116.541170
26589		9.498113	-0.222295	2.532937	-0.029931	0.030926	0.019783	0.020261	0.050435	0.014480	-0.860352	-0.218506	-0.647461	0.094988	-0.002219	0.025305	-0.441263	-0.496517	0.350158	-0.660414	-5.306666	-74.760984	116.557063
26590		9.437847	-0.212851	2.580089	-0.017486	-0.024868	-0.026258	0.020407	0.051525	0.011994	-0.863037	-0.225342	-0.645508	0.094385	-0.002125	0.025776	-0.441267	-0.496384	0.350005	-0.660593	-5.304925	-74.732523	116.567432
26591		9.398470	-0.241841	2.495932	-0.016860	0.056297	-0.085615	0.025005	0.043183	0.009562	-0.867432	-0.224121	-0.645020	0.093990	-0.002417	0.024939	-0.441263	-0.496288	0.349857	-0.660746	-5.297019	-74.708943	116.572448
26592		9.392198	-0.232211	2.532603	-0.013582	0.021922	-0.082286	0.032572	0.039364	0.007222	-0.850586	-0.217773	-0.642578	0.093927	-0.002323	0.025307	-0.441231	-0.496230	0.349679	-0.660905	-5.280704	-74.687673	116.574935
26593		9.396542	-0.241762	2.503185	-0.016208	0.056021	-0.085612	0.027030	0.029434	0.005483	-0.860840	-0.216553	-0.644775	0.093969	-0.002418	0.025018	-0.441209	-0.496192	0.349543	-0.661020	-5.265873	-74.672192	116.574276
26594		9.408515	-0.271983	2.516983	0.014482	0.060048	-0.069714	0.027740	0.028790	0.010513	-0.867676	-0.222656	-0.647949	0.094089	-0.002718	0.025156	-0.441160	-0.496153	0.349413	-0.661151	-5.261228	-74.656783	116.585993
26595		9.447989	-0.183408	2.554460	-0.060608	0.005615	-0.023933	0.019984	0.029348	0.009708	-0.856934	-0.222412	-0.637207	0.094484	-0.001832	0.025531	-0.441145	-0.496090	0.349314	-0.661260	-5.259553	-74.641172	116.594123
26596		9.495808	-0.174902	2.580266	-0.066481	-0.007345	0.028769	0.011602	0.023393	0.013237	-0.855713	-0.227539	-0.638428	0.094961	-0.001744	0.025791	-0.441118	-0.496028	0.349256	-0.661356	-5.270819	-74.628698	116.612754
26597		9.451028	-0.135683	2.581869	-0.098770	-0.031969	-0.014952	0.001152	0.029011	0.015206	-0.863281	-0.213135	-0.645996	0.094514	-0.001350	0.025805	-0.441111	-0.495928	0.349217	-0.661456	-5.290645	-74.613073	116.635645
26598		9.418871	-0.126837	2.594758	-0.100724	-0.052412	-0.042780	-0.003971	0.029743	0.013835	-0.849365	-0.219727	-0.647217	0.094193	-0.001261	0.025934	-0.441131	-0.495810	0.349198	-0.661542	-5.310785	-74.596942	116.654229
26599		9.430868	-0.158367	2.608222	-0.070053	-0.048384	-0.026885	-0.002413	0.022094	0.013523	-0.859131	-0.218750	-0.639404	0.094312	-0.001577	0.026072	-0.441155	-0.495709	0.349205	-0.661597	-5.331226	-74.585151	116.670438
26600		9.413205	-0.178753	2.576711	-0.061251	-0.015387	-0.051754	0.001813	0.018737	0.006721	-0.854980	-0.221680	-0.640625	0.094135	-0.001785	0.025758	-0.441165	-0.495653	0.349173	-0.661649	-5.335402	-74.575675	116.675901
26601		9.453147	-0.209524	2.557284	-0.044922	0.023959	-0.017637	0.011721	0.012922	0.008818	-0.862061	-0.215576	-0.644531	0.094533	-0.002093	0.025567	-0.441134	-0.495634	0.349128	-0.661708	-5.339391	-74.569546	116.686884
26602		9.484101	-0.220053	2.548761	-0.042310	0.044128	0.010196	0.014988	0.019612	0.003924	-0.858398	-0.224121	-0.638916	0.094844	-0.002201	0.025478	-0.441123	-0.495608	0.349043	-0.661779	-5.330064	-74.559719	116.686170
26603		9.448443	-0.199463	2.539165	-0.060923	0.038700	-0.027238	0.021593	0.025830	0.003499	-0.856201	-0.224854	-0.649170	0.094488	-0.001996	0.025379	-0.441109	-0.495577	0.348925	-0.661875	-5.315048	-74.546530	116.683026
26604		9.473838	-0.199842	2.564341	-0.055359	0.024629	0.003917	0.016073	0.027447	0.003685	-0.856934	-0.220215	-0.642334	0.094742	-0.001999	0.025630	-0.441109	-0.495528	0.348819	-0.661967	-5.303121	-74.532246	116.680259
26605		9.530594	-0.210662	2.579511	-0.047495	0.030860	0.062903	0.014685	0.026824	0.005216	-0.854248	-0.220703	-0.639893	0.095309	-0.002106	0.025782	-0.441112	-0.495473	0.348726	-0.662055	-5.295090	-74.518265	116.679821
26606		9.534282	-0.161430	2.604552	-0.086011	-0.006567	0.071888	0.007375	0.028698	0.008487	-0.855957	-0.218262	-0.640625	0.095347	-0.001611	0.026032	-0.441120	-0.495393	0.348658	-0.662146	-5.297809	-74.503013	116.687081
26607		9.528117	-0.152446	2.640223	-0.082726	-0.040966	0.075210	0.004686	0.033770	0.011267	-0.858643	-0.219727	-0.643555	0.095286	-0.001520	0.026386	-0.441136	-0.495284	0.348598	-0.662248	-5.306903	-74.484857	116.698888
26608		9.527783	-0.093792	2.644612	-0.137903	-0.063350	0.074597	0.001441	0.048014	0.014399	-0.863525	-0.226563	-0.645508	0.095284	-0.000931	0.026423	-0.441173	-0.495116	0.348521	-0.662389	-5.321437	-74.458272	116.714882
26609		9.474373	-0.094061	2.604029	-0.148041	-0.035634	0.012300	-0.001691	0.051774	0.013093	-0.863037	-0.217529	-0.643066	0.094751	-0.000934	0.026016	-0.441226	-0.494934	0.348442	-0.662532	-5.334209	-74.429772	116.727550
26610		9.441482	-0.085089	2.619379	-0.150008	-0.056072	-0.015528	0.005121	0.061286	0.015846	-0.851807	-0.217529	-0.642578	0.094423	-0.000844	0.026165	-0.441271	-0.494728	0.348328	-0.662715	-5.346952	-74.395536	116.743878
26611		9.421005	-0.106292	2.646456	-0.121604	-0.072384	-0.027477	-0.003128	0.065784	0.013158	-0.859131	-0.221924	-0.646729	0.094219	-0.001056	0.026434	-0.441360	-0.494490	0.348230	-0.662885	-5.358331	-74.359037	116.752793
26612		9.410330	-0.087553	2.663110	-0.134993	-0.091716	-0.033756	-0.004060	0.059037	0.010911	-0.854492	-0.224854	-0.644775	0.094111	-0.000870	0.026603	-0.441441	-0.494280	0.348139	-0.663036	-5.366599	-74.326346	116.759017
26613		9.403402	-0.078917	2.701012	-0.131698	-0.126107	-0.030438	-0.011509	0.052393	0.008795	-0.854980	-0.218262	-0.651367	0.094041	-0.000783	0.026986	-0.441532	-0.494081	0.348080	-0.663154	-5.375801	-74.297688	116.762309
26614		9.391316	-0.049310	2.640131	-0.181360	-0.081109	-0.059223	-0.016818	0.049849	0.004253	-0.855957	-0.217773	-0.646729	0.093920	-0.000489	0.026378	-0.441651	-0.493884	0.348035	-0.663246	-5.379581	-74.270596	116.756279
26615		9.428563	-0.080837	2.678579	-0.145416	-0.091041	-0.012194	-0.021285	0.047739	0.002243	-0.851074	-0.227539	-0.647949	0.094292	-0.000804	0.026763	-0.441794	-0.493682	0.348013	-0.663312	-5.382433	-74.244871	116.744665
26616		9.440658	-0.052075	2.694720	-0.170220	-0.109269	0.003082	-0.016561	0.047901	0.005206	-0.851318	-0.213867	-0.653809	0.094413	-0.000516	0.026925	-0.441905	-0.493491	0.347973	-0.663401	-5.388369	-74.218839	116.741027
26617		9.407281	-0.102362	2.708002	-0.116683	-0.107450	-0.024146	-0.020082	0.035719	0.001264	-0.854980	-0.217529	-0.649902	0.094078	-0.001020	0.027063	-0.442026	-0.493335	0.347969	-0.663439	-5.390466	-74.199948	116.729827
26618		9.367092	-0.132289	2.676578	-0.096478	-0.075552	-0.070565	-0.020737	0.029198	0.005589	-0.857422	-0.219482	-0.650146	0.093675	-0.001318	0.026752	-0.442114	-0.493195	0.347986	-0.663476	-5.403117	-74.184564	116.730679
26619		9.335291	-0.241846	2.633253	-0.007045	-0.002235	-0.110104	-0.008895	0.024186	0.002129	-0.855713	-0.214844	-0.650635	0.093356	-0.002416	0.026321	-0.442182	-0.493102	0.347971	-0.663507	-5.403064	-74.172327	116.724146
26620		9.337909	-0.301039	2.525580	0.009575	0.118444	-0.135312	-0.000248	0.018805	0.003275	-0.847412	-0.210205	-0.647949	0.093382	-0.003009	0.025247	-0.442208	-0.493046	0.347937	-0.663549	-5.401293	-74.162996	116.722210
26621		9.278575	-0.279571	2.437928	-0.033941	0.176277	-0.216783	0.005428	0.018265	0.000614	-0.854004	-0.215576	-0.655029	0.092788	-0.002796	0.024371	-0.442247	-0.493000	0.347894	-0.663580	-5.391554	-74.154164	116.712086
26622		9.259336	-0.299120	2.460244	-0.005549	0.159991	-0.228745	0.000171	0.010462	-0.006180	-0.847656	-0.224365	-0.658691	0.092595	-0.002994	0.024598	-0.442289	-0.492989	0.347854	-0.663581	-5.372136	-74.150100	116.692055
26623		9.241945	-0.198730	2.482873	-0.088176	0.099262	-0.241895	-0.004001	0.001124	-0.009509	-0.849854	-0.220947	-0.655273	0.092419	-0.001991	0.024828	-0.442354	-0.492997	0.347851	-0.663533	-5.349991	-74.151432	116.663918
26624		9.214132	-0.197502	2.514246	-0.073508	0.063783	-0.260138	-0.007213	-0.008906	-0.018456	-0.849609	-0.218262	-0.650146	0.092140	-0.001983	0.025147	-0.442422	-0.493056	0.347848	-0.663446	-5.313770	-74.159066	116.622024
26625		9.325263	-0.088168	2.572808	-0.166134	-0.002344	-0.140044	-0.014108	-0.015367	-0.024657	-0.854492	-0.219971	-0.651611	0.093251	-0.000891	0.025735	-0.442527	-0.493126	0.347875	-0.663310	-5.270017	-74.170678	116.566329
26626		9.426464	-0.018244	2.641810	-0.216967	-0.065446	-0.025637	-0.006987	-0.003690	-0.026864	-0.847900	-0.224121	-0.650146	0.094264	-0.000194	0.026420	-0.442631	-0.493183	0.347838	-0.663217	-5.215691	-74.175758	116.505754
26627		9.578759	0.002193	2.626484	-0.257615	-0.020578	0.116273	0.003495	0.019096	-0.022618	-0.857666	-0.215576	-0.653564	0.095790	0.000011	0.026256	-0.442738	-0.493179	0.347729	-0.663206	-5.159390	-74.167639	116.448844
26628		9.666674	-0.016526	2.632935	-0.247391	0.005923	0.203098	0.007877	0.050492	-0.023484	-0.847168	-0.220459	-0.651855	0.096673	-0.000178	0.026305	-0.442889	-0.493083	0.347532	-0.663280	-5.093605	-74.141593	116.385204
26629		9.711130	-0.054066	2.585794	-0.233953	0.079514	0.233916	0.010364	0.075825	-0.020995	-0.845947	-0.215820	-0.655762	0.097121	-0.000552	0.025821	-0.443082	-0.492897	0.347287	-0.663418	-5.027236	-74.100971	116.320112
26630		9.707868	-0.160058	2.463407	-0.178447	0.237466	0.199727	0.026540	0.124355	-0.018820	-0.845215	-0.223633	-0.663330	0.097094	-0.001613	0.024573	-0.443299	-0.492589	0.346876	-0.663716	-4.947773	-74.032490	116.253341
26631		9.617800	-0.179995	2.836128	-0.023384	-0.095961	0.215688	0.026688	0.200122	-0.013674	-0.833252	-0.223389	-0.657715	0.096206	-0.001810	0.028265	-0.443654	-0.492007	0.346325	-0.664198	-4.866077	-73.920300	116.180298
26632		9.302044	-0.162836	3.621576	0.263358	-0.863123	0.129946	-0.004570	0.270019	0.010620	-0.843750	-0.223389	-0.656738	0.093069	-0.001623	0.036090	-0.444101	-0.491095	0.345766	-0.664866	-4.839574	-73.767189	116.150031
26633		8.937275	-0.000517	4.538210	0.461832	-1.812863	0.034669	-0.038711	0.250510	0.039930	-0.839600	-0.224365	-0.660889	0.089430	0.000021	0.045270	-0.444570	-0.490084	0.345483	-0.665445	-4.892668	-73.623664	116.170624
26634		8.810498	0.133030	5.646431	0.721506	-2.868970	0.225897	-0.068286	0.183483	0.055910	-0.839600	-0.219971	-0.662354	0.088156	0.001374	0.056383	-0.444872	-0.489238	0.345438	-0.665888	-5.004491	-73.517726	116.246469
26635		9.002589	0.329190	6.680654	0.853848	-3.804006	0.703327	-0.076281	0.186437	0.071485	-0.834473	-0.220947	-0.668213	0.090087	0.003350	0.066721	-0.445214	-0.488303	0.345498	-0.666315	-5.148566	-73.409160	116.339870
26636		9.240554	0.134506	7.368754	1.218545	-4.270456	1.140974	-0.146603	0.271491	0.071318	-0.827393	-0.223145	-0.672119	0.092505	0.001432	0.073561	-0.445807	-0.486961	0.345555	-0.666871	-5.316402	-73.252096	116.427439
26637		9.197014	-0.795134	7.573023	2.126293	-4.101039	1.197676	-0.245495	0.398963	0.056066	-0.841553	-0.211670	-0.666504	0.092123	-0.007833	0.075556	-0.446985	-0.484959	0.345669	-0.667482	-5.486121	-73.022695	116.445389
26638		8.889022	-1.366428	7.279658	2.562779	-3.679546	0.853526	-0.252118	0.467396	0.021763	-0.828613	-0.216553	-0.676514	0.089062	-0.013563	0.072606	-0.448335	-0.482810	0.345516	-0.668214	-5.582464	-72.756518	116.395104
26639		8.671782	-1.233486	6.708114	2.239083	-3.237517	0.493856	-0.297979	0.502168	-0.000870	-0.821045	-0.206299	-0.670898	0.086886	-0.012235	0.066881	-0.449992	-0.480442	0.345427	-0.668852	-5.656978	-72.471631	116.283267
26640		8.129086	-1.072572	6.185913	1.956615	-2.942578	-0.168480	-0.292678	0.386566	-0.033136	-0.821777	-0.208496	-0.679688	0.081408	-0.010649	0.061717	-0.451477	-0.478560	0.345454	-0.669186	-5.691989	-72.254686	116.144094
26641		7.767758	-1.069433	5.815865	1.863227	-2.698313	-0.617388	-0.199930	0.065210	-0.066373	-0.823242	-0.206543	-0.688232	0.077693	-0.010662	0.058144	-0.452360	-0.477983	0.345861	-0.668792	-5.672437	-72.222589	115.992217
26642		7.654751	-1.052737	5.179594	1.656057	-2.170824	-0.920183	-0.055340	-0.143485	-0.093625	-0.827637	-0.208496	-0.684570	0.076505	-0.010549	0.051854	-0.452561	-0.478512	0.346146	-0.668130	-5.557999	-72.311231	115.838833
26643		7.351917	-1.123647	4.487527	1.548430	-1.619097	-1.420308	0.042719	-0.159156	-0.106333	-0.821289	-0.208008	-0.682861	0.073477	-0.011285	0.044931	-0.452557	-0.479329	0.346115	-0.667563	-5.365635	-72.408980	115.660524
26644		7.218106	-0.939569	3.976938	1.241752	-1.272878	-1.710978	0.083191	-0.203387	-0.097915	-0.827393	-0.209473	-0.694580	0.072136	-0.009448	0.039839	-0.452336	-0.480378	0.346062	-0.666986	-5.170546	-72.531739	115.505972
26645		7.355164	-0.914749	3.265207	0.983960	-0.624556	-1.797798	0.053975	-0.361158	-0.078869	-0.826172	-0.212402	-0.674316	0.073489	-0.009185	0.032782	-0.451928	-0.481809	0.346562	-0.665970	-5.050090	-72.742871	115.398756
26646		8.210758	-0.877971	2.474610	0.600667	0.269052	-1.217473	0.090239	-0.528979	-0.049803	-0.828125	-0.215088	-0.675781	0.082040	-0.008811	0.024959	-0.450962	-0.483872	0.347335	-0.664725	-4.987601	-73.048850	115.387522
26647		9.368263	-0.888472	1.741766	0.244352	1.195384	-0.320656	0.150170	-0.487012	0.000100	-0.838135	-0.222168	-0.663574	0.093640	-0.008898	0.017639	-0.449820	-0.485806	0.347976	-0.663753	-4.977036	-73.327975	115.455544
26648		10.269005	-1.262746	1.066161	0.271734	2.133578	0.363640	0.184936	-0.304319	0.055477	-0.847168	-0.218506	-0.663574	0.102677	-0.012609	0.010806	-0.448661	-0.487147	0.348180	-0.663447	-5.023688	-73.500465	115.614834
26649		11.329676	-1.452016	0.693470	0.195006	2.789779	1.283705	0.262694	-0.078006	0.086299	-0.843750	-0.226074	-0.664795	0.113300	-0.014480	0.006960	-0.447653	-0.487831	0.347728	-0.663862	-5.047848	-73.542048	115.788467
26650		11.894435	-1.738514	0.818284	0.421714	2.934227	1.865582	0.296334	0.241081	0.104679	-0.840576	-0.231201	-0.677979	0.118963	-0.017335	0.008014	-0.447006	-0.487524	0.346458	-0.665186	-5.033747	-73.400745	115.950915
26651		11.843294	-1.822264	1.299948	0.645640	2.560361	1.947479	0.351994	0.465235	0.093853	-0.843262	-0.226318	-0.668701	0.118471	-0.018190	0.012692	-0.446701	-0.486582	0.344512	-0.667089	-4.927907	-73.131771	116.041577
26652		11.303566	-1.841292	1.436325	0.749856	2.365342	1.459686	0.381445	0.591410	0.085059	-0.839111	-0.227051	-0.677490	0.113085	-0.018392	0.013994	-0.446509	-0.485325	0.342122	-0.669359	-4.769739	-72.791569	116.104785
26653		10.801424	-1.470382	1.668477	0.520599	1.956248	1.027894	0.446932	0.627925	0.098321	-0.833252	-0.229492	-0.683105	0.108073	-0.014687	0.016313	-0.446227	-0.484034	0.339499	-0.671813	-4.594605	-72.429817	116.180128
26654		10.490096	-1.022869	2.090540	0.263609	1.394250	0.838366	0.415364	0.575411	0.139355	-0.830322	-0.237549	-0.693359	0.104968	-0.010199	0.020582	-0.445732	-0.482801	0.337154	-0.674206	-4.519124	-72.096379	116.350796
26655		10.193983	-0.517715	2.281442	-0.126804	1.007593	0.596861	0.364036	0.520909	0.180866	-0.825684	-0.244141	-0.688965	0.102003	-0.005126	0.022539	-0.445185	-0.481531	0.335241	-0.676426	-4.550485	-71.791947	116.593001
26656		9.756824	-0.055079	2.109738	-0.585167	0.905096	0.111415	0.295746	0.482496	0.217494	-0.823242	-0.233398	-0.695068	0.097619	-0.000476	0.020861	-0.444549	-0.480203	0.333688	-0.678552	-4.684139	-71.507914	116.912394
26657		9.241749	0.374922	1.788966	-1.053503	0.912120	-0.495559	0.222042	0.442725	0.230719	-0.818115	-0.233154	-0.697510	0.092452	0.003836	0.017689	-0.444031	-0.478793	0.332540	-0.680449	-4.880492	-71.245495	117.244573
26658		8.834024	0.501720	1.448171	-1.262134	1.072255	-1.000987	0.150762	0.375276	0.240711	-0.816895	-0.236572	-0.697510	0.088361	0.005113	0.014320	-0.443479	-0.477463	0.331768	-0.682118	-5.137094	-71.020818	117.607081
26659		8.575368	0.617698	1.318921	-1.402982	1.084384	-1.297189	0.139538	0.277670	0.225912	-0.815186	-0.239502	-0.704346	0.085765	0.006265	0.013074	-0.442900	-0.476433	0.331254	-0.683463	-5.383744	-70.851941	117.942788
26660		8.516227	0.483165	1.343383	-1.282562	1.107022	-1.345471	0.134535	0.141154	0.204025	-0.819092	-0.233154	-0.713867	0.085167	0.004910	0.013377	-0.442120	-0.475924	0.330967	-0.684462	-5.614651	-70.761808	118.268957
26661		8.640622	0.323180	1.222293	-1.214006	1.311968	-1.264956	0.143891	0.037864	0.185349	-0.821777	-0.231689	-0.702393	0.086405	0.003303	0.012209	-0.441272	-0.475788	0.330872	-0.685149	-5.824355	-70.731034	118.568262
26662		8.751034	0.116136	1.182378	-1.067746	1.455107	-1.167766	0.177725	-0.012600	0.169114	-0.818115	-0.233398	-0.695313	0.087509	0.001225	0.011830	-0.440254	-0.475956	0.330692	-0.685774	-5.996376	-70.729821	118.858417
26663		8.868190	-0.215898	1.350241	-0.729783	1.465326	-0.990285	0.184667	-0.068151	0.154208	-0.820557	-0.232422	-0.700195	0.088679	-0.002103	0.013531	-0.439234	-0.476327	0.330614	-0.686207	-6.150022	-70.760933	119.123696
26664		9.170946	-0.404619	1.450840	-0.574733	1.526818	-0.663185	0.172383	-0.143155	0.140672	-0.819580	-0.239258	-0.696533	0.091702	-0.003994	0.014571	-0.438109	-0.476977	0.330671	-0.686448	-6.302901	-70.835321	119.390221
26665		9.441011	-0.363647	1.460639	-0.655070	1.562412	-0.403750	0.138761	-0.175691	0.117387	-0.824463	-0.240967	-0.693359	0.094399	-0.003591	0.014687	-0.437147	-0.477675	0.330898	-0.686466	-6.444456	-70.929517	119.614598
26666		9.596100	-0.306516	1.511346	-0.714915	1.520845	-0.239853	0.086808	-0.180695	0.096926	-0.831055	-0.243164	-0.697021	0.095949	-0.003025	0.015199	-0.436312	-0.478337	0.331225	-0.686378	-6.584868	-71.027677	119.815782
26667		9.518965	-0.138234	1.602700	-0.821891	1.333463	-0.286681	0.040413	-0.186772	0.067334	-0.825195	-0.237305	-0.697266	0.095175	-0.001354	0.016116	-0.435736	-0.478941	0.331693	-0.686097	-6.705527	-71.131196	119.958496
26668		9.474101	0.020778	1.686233	-0.926708	1.166248	-0.305666	-0.008426	-0.181196	0.040211	-0.827393	-0.233643	-0.690918	0.094726	0.000228	0.016948	-0.435322	-0.479491	0.332211	-0.685725	-6.809343	-71.233185	120.063127
26669		9.420659	0.202375	1.779636	-1.045156	0.980068	-0.330917	-0.024171	-0.185566	0.013322	-0.830811	-0.237061	-0.696289	0.094190	0.002032	0.017884	-0.435091	-0.480037	0.332771	-0.685218	-6.879046	-71.339504	120.112108
26670		9.476066	0.330028	1.784721	-1.162150	0.923059	-0.279204	-0.034228	-0.193553	-0.012564	-0.835449	-0.246094	-0.691406	0.094744	0.003297	0.017938	-0.434898	-0.480659	0.333278	-0.684658	-6.912948	-71.452070	120.127240
26671		9.384890	0.538535	1.918050	-1.280299	0.682412	-0.329006	-0.031293	-0.186000	-0.038144	-0.827148	-0.239258	-0.685791	0.093832	0.005370	0.019267	-0.434857	-0.481276	0.333738	-0.684026	-6.900261	-71.562202	120.085154
26672		9.413526	0.714681	2.051610	-1.386061	0.488404	-0.264147	-0.040949	-0.189508	-0.063303	-0.835449	-0.244141	-0.693359	0.094118	0.007121	0.020604	-0.434861	-0.481954	0.334136	-0.683352	-6.850384	-71.675950	120.007925
26673		9.525804	0.818816	2.171913	-1.442638	0.358314	-0.121506	-0.083599	-0.185676	-0.078399	-0.830811	-0.239746	-0.682617	0.095241	0.008160	0.021804	-0.435083	-0.482522	0.334678	-0.682544	-6.797338	-71.788642	119.891705
26674		9.581976	0.796474	2.324850	-1.362551	0.235467	-0.017712	-0.126806	-0.170529	-0.094028	-0.830811	-0.233643	-0.683105	0.095804	0.007934	0.023325	-0.435429	-0.482998	0.335253	-0.681703	-6.737835	-71.893620	119.752673
26675		9.592589	0.704787	2.400967	-1.240106	0.197046	0.021052	-0.151155	-0.150833	-0.109710	-0.835693	-0.231934	-0.691406	0.095912	0.007013	0.024077	-0.435979	-0.483352	0.335873	-0.680796	-6.659691	-71.988528	119.569385
26676		9.500988	0.555573	2.384258	-1.083091	0.236351	-0.064193	-0.176168	-0.144959	-0.122279	-0.836182	-0.234131	-0.684814	0.094996	0.005519	0.023907	-0.436582	-0.483679	0.336492	-0.679871	-6.571295	-72.080702	119.370401
26677		9.445758	0.446061	2.380085	-0.962567	0.258954	-0.112558	-0.203626	-0.154229	-0.143508	-0.836670	-0.233643	-0.678955	0.094442	0.004417	0.023869	-0.437367	-0.483984	0.337215	-0.678790	-6.461379	-72.179577	119.122267
26678		9.360925	0.182646	2.605394	-0.611471	0.130644	-0.114370	-0.252076	-0.159933	-0.175825	-0.836670	-0.237061	-0.681396	0.093590	0.001777	0.026127	-0.438308	-0.484285	0.337993	-0.677581	-6.320949	-72.283452	118.823192
26679		9.253174	-0.092950	2.475592	-0.370601	0.311557	-0.245872	-0.268516	-0.204640	-0.216902	-0.840332	-0.239014	-0.673340	0.092505	-0.000997	0.024852	-0.439409	-0.484740	0.338867	-0.676104	-6.122004	-72.415242	118.443011
26680		9.243635	-0.088129	2.344325	-0.397704	0.409074	-0.293085	-0.268898	-0.242775	-0.258522	-0.843018	-0.236084	-0.681641	0.092407	-0.000969	0.023557	-0.440527	-0.485420	0.339680	-0.674478	-5.850657	-72.570618	117.996988
26681		9.254901	-0.259366	2.236263	-0.252589	0.558526	-0.307663	-0.332015	-0.235233	-0.300770	-0.838867	-0.234131	-0.675537	0.092519	-0.002696	0.022476	-0.442009	-0.485976	0.340629	-0.672627	-5.530265	-72.723583	117.452089
26682		9.250241	-0.317413	2.070969	-0.226836	0.712265	-0.357649	-0.327213	-0.238590	-0.330517	-0.838379	-0.239502	-0.673340	0.092472	-0.003293	0.020825	-0.443513	-0.486629	0.341451	-0.670746	-5.145146	-72.878881	116.852741
26683		9.342887	-0.423278	1.977093	-0.140913	0.847119	-0.292182	-0.331480	-0.227133	-0.361067	-0.839844	-0.239746	-0.668213	0.093399	-0.004369	0.019884	-0.445204	-0.487255	0.342228	-0.668772	-4.694474	-73.028028	116.172732
26684		9.452299	-0.705846	2.016290	0.155748	0.934999	-0.168465	-0.326893	-0.183714	-0.378582	-0.843262	-0.250488	-0.675293	0.094491	-0.007204	0.020261	-0.446954	-0.487801	0.342806	-0.666908	-4.192572	-73.151328	115.452441
26685		9.558590	-0.920808	2.550753	0.559950	0.557336	0.091686	-0.360831	-0.111727	-0.384381	-0.845459	-0.237793	-0.668701	0.095554	-0.009346	0.025578	-0.448985	-0.488009	0.343361	-0.665104	-3.681507	-73.232056	114.692749
26686		9.707949	-1.169437	3.067349	0.980291	0.219088	0.385912	-0.405908	-0.092301	-0.387640	-0.844482	-0.246826	-0.676514	0.097042	-0.011820	0.030742	-0.451108	-0.488081	0.343970	-0.663297	-3.182394	-73.299666	113.928765
26687		10.149991	-1.102993	3.525211	1.050143	-0.105760	0.936823	-0.426171	-0.106331	-0.383445	-0.837158	-0.243408	-0.663574	0.101460	-0.011149	0.035330	-0.453297	-0.488114	0.344728	-0.661384	-2.698983	-73.373499	113.159311
26688		10.872163	-0.700331	3.500499	0.612109	-0.041722	1.614097	-0.434387	-0.097547	-0.360637	-0.841553	-0.241699	-0.673096	0.108692	-0.007123	0.035073	-0.455384	-0.488085	0.345503	-0.659565	-2.258253	-73.439774	112.439780
26689		11.533077	-0.022845	3.267500	-0.147392	0.106849	2.172961	-0.408097	-0.021439	-0.297829	-0.832520	-0.243652	-0.677979	0.115327	-0.000333	0.032688	-0.457385	-0.487723	0.346212	-0.658075	-1.914625	-73.459948	111.827422
26690		11.530058	0.893487	3.191122	-1.020286	-0.123255	2.140036	-0.382973	0.159693	-0.214574	-0.837646	-0.233887	-0.670410	0.115336	0.008872	0.031802	-0.459304	-0.486705	0.346581	-0.657297	-1.706691	-73.373863	111.381565
26691		10.780007	1.329260	3.325892	-1.313313	-0.560021	1.456673	-0.443788	0.303043	-0.137458	-0.837646	-0.249512	-0.678467	0.107859	0.013292	0.033066	-0.461421	-0.484910	0.347050	-0.656893	-1.676592	-73.204285	111.074587
26692		9.700145	1.338194	3.533573	-1.160991	-1.006270	0.483385	-0.547951	0.303015	-0.101815	-0.835449	-0.237061	-0.676758	0.097062	0.013429	0.035152	-0.463612	-0.482838	0.347901	-0.656427	-1.776230	-73.033986	110.850674
26693		8.692869	0.929998	3.489537	-0.705628	-1.079982	-0.488343	-0.629942	0.224675	-0.105290	-0.838623	-0.232910	-0.684814	0.086973	0.009364	0.034768	-0.465927	-0.480805	0.349233	-0.655572	-1.921539	-72.908959	110.615330
26694		7.928264	0.460501	3.474706	-0.205362	-1.109750	-1.217964	-0.670054	0.149471	-0.130551	-0.833740	-0.232178	-0.685303	0.079312	0.004669	0.034672	-0.468228	-0.478992	0.350764	-0.654441	-2.048478	-72.827447	110.346479
26695		7.324430	-0.015370	3.225469	0.218774	-0.893972	-1.862586	-0.717431	0.082683	-0.159198	-0.834961	-0.229492	-0.687500	0.073258	-0.000096	0.032225	-0.470670	-0.477302	0.352576	-0.652949	-2.154287	-72.785132	110.016982
26696		6.952428	-0.394147	2.950730	0.526816	-0.632400	-2.294646	-0.717443	-0.003981	-0.178823	-0.838135	-0.216553	-0.685059	0.069520	-0.003898	0.029523	-0.472960	-0.475951	0.354498	-0.651238	-2.230323	-72.792823	109.666300
26697		6.855833	-0.837101	2.697988	0.882155	-0.306671	-2.456733	-0.681672	-0.121927	-0.163360	-0.833008	-0.222168	-0.686768	0.068535	-0.008335	0.027050	-0.474956	-0.475006	0.356656	-0.649294	-2.322198	-72.868043	109.343684
26698		7.066631	-1.169842	2.413940	1.101194	0.087542	-2.335218	-0.579241	-0.273717	-0.127399	-0.833008	-0.217285	-0.687988	0.070626	-0.011673	0.024270	-0.476258	-0.474757	0.358882	-0.647293	-2.432682	-73.029261	109.112160
26699		7.595904	-1.439514	2.184186	1.250324	0.489214	-1.891964	-0.472786	-0.383309	-0.052821	-0.830566	-0.211914	-0.676514	0.075913	-0.014363	0.022021	-0.476922	-0.474947	0.361238	-0.645351	-2.630660	-73.251657	109.026060
26700		8.341255	-1.542792	2.256008	1.301674	0.615666	-1.154006	-0.364762	-0.412143	0.031176	-0.835938	-0.212891	-0.677734	0.083368	-0.015374	0.022760	-0.476945	-0.475362	0.363470	-0.643773	-2.932841	-73.488159	109.123367
26701		9.146021	-1.627503	2.720884	1.429079	0.381313	-0.246402	-0.309507	-0.426119	0.123921	-0.840088	-0.213135	-0.667480	0.091412	-0.016176	0.027429	-0.476565	-0.475751	0.365817	-0.642437	-3.391857	-73.729709	109.407064
26702		10.286327	-1.754737	3.242702	1.572543	0.180659	0.999199	-0.283911	-0.482338	0.201740	-0.849121	-0.195557	-0.668213	0.102802	-0.017397	0.032700	-0.475712	-0.476266	0.368356	-0.641236	-4.009906	-73.999563	109.881168
26703		11.743193	-1.829836	3.846599	1.648825	-0.046934	2.569797	-0.262788	-0.480464	0.246919	-0.852051	-0.199951	-0.669434	0.117361	-0.018103	0.038772	-0.474718	-0.476706	0.370969	-0.640138	-4.725555	-74.265051	110.458711
26704		12.876464	-1.678706	4.132668	1.445539	-0.126059	3.737021	-0.233261	-0.270884	0.246667	-0.850342	-0.187500	-0.667725	0.128729	-0.016580	0.041520	-0.473984	-0.476574	0.372945	-0.639631	-5.405138	-74.408738	111.025751
26705		12.789589	-1.447309	4.030012	1.174379	-0.141507	3.622714	-0.177801	0.066638	0.195360	-0.855957	-0.190186	-0.654053	0.127923	-0.014312	0.040270	-0.473966	-0.475555	0.373864	-0.639866	-5.887441	-74.361430	111.410642
26706		11.764273	-1.108328	3.642592	0.821194	-0.117632	2.524519	-0.093751	0.287019	0.123885	-0.855713	-0.191650	-0.668457	0.117702	-0.010993	0.036262	-0.474333	-0.474196	0.373777	-0.640654	-6.125873	-74.192041	111.602591
26707		10.620901	-0.939398	3.407990	0.693809	-0.204350	1.357682	0.012989	0.322931	0.047015	-0.847900	-0.191895	-0.670166	0.106266	-0.009371	0.033908	-0.474812	-0.473086	0.373122	-0.641501	-6.138476	-74.007011	111.613573
26708		9.865672	-0.732380	3.229592	0.518098	-0.257816	0.577845	0.138267	0.254601	-0.005266	-0.843506	-0.190918	-0.675781	0.098698	-0.007349	0.032165	-0.474980	-0.472620	0.372060	-0.642336	-5.990529	-73.863858	111.542107
26709		9.375260	-0.511976	3.085954	0.320269	-0.288016	0.061277	0.217210	0.171086	-0.018796	-0.846680	-0.188965	-0.666016	0.093778	-0.005162	0.030774	-0.474904	-0.472602	0.370953	-0.643045	-5.789869	-73.769123	111.452795
26710		9.173669	-0.428734	2.835076	0.201040	-0.114089	-0.204138	0.272235	0.120225	-0.008618	-0.857422	-0.196289	-0.676270	0.091754	-0.004330	0.028290	-0.474515	-0.472891	0.369771	-0.643801	-5.588878	-73.702647	111.405959
26711		9.215617	-0.259791	2.732951	0.012188	-0.041496	-0.196960	0.314562	0.119008	0.022161	-0.844727	-0.191895	-0.677979	0.092173	-0.002631	0.027271	-0.473978	-0.473194	0.368569	-0.644662	-5.424990	-73.635306	111.413059
26712		9.347909	-0.087431	2.789000	-0.150321	-0.093471	-0.058806	0.335921	0.125054	0.057041	-0.851807	-0.200684	-0.679443	0.093497	-0.000894	0.027830	-0.473233	-0.473494	0.367324	-0.645699	-5.315536	-73.562483	111.499647
26713		9.597925	0.109224	2.896749	-0.336389	-0.169971	0.206354	0.352048	0.123851	0.078477	-0.844971	-0.206543	-0.676758	0.095997	0.001079	0.028910	-0.472433	-0.473764	0.366121	-0.646769	-5.238668	-73.489340	111.619786
26714		9.880024	0.236080	2.989095	-0.464173	-0.204453	0.499831	0.361761	0.132517	0.096987	-0.845215	-0.202148	-0.677979	0.098819	0.002355	0.029830	-0.471508	-0.474025	0.364866	-0.647961	-5.189678	-73.410245	111.784963
26715		10.041975	0.212372	3.074116	-0.437816	-0.220200	0.679994	0.369682	0.132311	0.098228	-0.834717	-0.209961	-0.681396	0.100439	0.002116	0.030679	-0.470613	-0.474270	0.363629	-0.649126	-5.138021	-73.331340	111.942264
26716		10.231851	0.208183	3.053256	-0.461234	-0.135918	0.856205	0.373515	0.136904	0.080318	-0.840576	-0.210938	-0.681885	0.102339	0.002066	0.030466	-0.469719	-0.474570	0.362284	-0.650306	-5.048826	-73.250689	112.072631
26717		10.262481	0.088220	2.995860	-0.366184	-0.022765	0.872201	0.355921	0.179291	0.048821	-0.838867	-0.207764	-0.676758	0.102651	0.000854	0.029868	-0.469100	-0.474716	0.360861	-0.651436	-4.902902	-73.147516	112.123365
26718		10.028017	-0.024950	2.874177	-0.265762	0.082225	0.615409	0.352872	0.232709	0.009614	-0.843262	-0.213135	-0.677979	0.100314	-0.000295	0.028625	-0.468654	-0.474781	0.359187	-0.652634	-4.677511	-73.015746	112.099157
26719		9.642932	-0.063733	2.872308	-0.184187	0.018677	0.247432	0.352201	0.259608	-0.021059	-0.832031	-0.222900	-0.679688	0.096466	-0.000698	0.028597	-0.468412	-0.474778	0.357420	-0.653779	-4.393637	-72.870099	112.003394
26720		9.285941	-0.112907	2.915002	-0.080854	-0.074120	-0.079930	0.370775	0.259349	-0.036519	-0.829834	-0.218018	-0.687744	0.092897	-0.001200	0.029027	-0.468117	-0.474876	0.355512	-0.654958	-4.073748	-72.724996	111.890964
26721		8.942110	-0.116216	2.893411	-0.038579	-0.120125	-0.414247	0.401135	0.247703	-0.055480	-0.831055	-0.229248	-0.687012	0.089457	-0.001245	0.028821	-0.467846	-0.475084	0.353526	-0.656075	-3.706809	-72.587146	111.737497
26722		8.713866	-0.125130	2.821802	-0.016478	-0.089047	-0.652915	0.434772	0.231208	-0.057543	-0.834473	-0.224365	-0.691895	0.087171	-0.001338	0.028114	-0.467413	-0.475456	0.351421	-0.657244	-3.322791	-72.458469	111.596108
26723		8.536123	-0.016461	2.800793	-0.095348	-0.129526	-0.830250	0.446633	0.207691	-0.066669	-0.830078	-0.234619	-0.694336	0.085390	-0.000255	0.027919	-0.466995	-0.475916	0.349349	-0.658312	-2.921575	-72.343313	111.433768
26724		8.559505	0.063329	2.788858	-0.164743	-0.115963	-0.812341	0.456508	0.168358	-0.069239	-0.829346	-0.234619	-0.691650	0.085619	0.000540	0.027818	-0.466434	-0.476561	0.347286	-0.659334	-2.516929	-72.250347	111.283621
26725		8.627386	0.222659	2.780855	-0.312514	-0.121748	-0.751673	0.448531	0.159855	-0.061911	-0.827637	-0.234863	-0.684570	0.086297	0.002138	0.027744	-0.465907	-0.477169	0.345327	-0.660295	-2.133282	-72.161826	111.140675
26726		8.838545	0.362566	2.770443	-0.458589	-0.079724	-0.554718	0.446994	0.154382	-0.057997	-0.824463	-0.238525	-0.684326	0.088408	0.003538	0.027644	-0.465302	-0.477813	0.343352	-0.661286	-1.760300	-72.076037	111.017922
26727		9.042963	0.450938	2.790681	-0.546300	-0.050171	-0.354071	0.439347	0.168371	-0.047771	-0.820313	-0.242676	-0.688721	0.090454	0.004427	0.027840	-0.464759	-0.478343	0.341434	-0.662276	-1.411454	-71.981965	110.905847
26728		9.138432	0.537405	2.825755	-0.616530	-0.063491	-0.252329	0.435072	0.189265	-0.042209	-0.827148	-0.255127	-0.694336	0.091412	0.005293	0.028183	-0.464185	-0.478811	0.339451	-0.663360	-1.076236	-71.875543	110.815501
26729		9.171726	0.631437	2.901710	-0.675404	-0.132383	-0.196792	0.412932	0.214469	-0.028350	-0.819336	-0.261230	-0.689697	0.091749	0.006242	0.028932	-0.463715	-0.479089	0.337556	-0.664454	-0.779431	-71.754478	110.742231
26730		9.152639	0.675243	2.907326	-0.705568	-0.136353	-0.212539	0.384981	0.213336	-0.019714	-0.822510	-0.259521	-0.695313	0.091558	0.006688	0.028989	-0.463222	-0.479318	0.335733	-0.665555	-0.515927	-71.633833	110.697071
26731		9.168460	0.658677	2.826954	-0.713135	-0.033558	-0.222252	0.337201	0.207967	-0.005497	-0.821045	-0.258301	-0.689209	0.091714	0.006537	0.028185	-0.462841	-0.479400	0.334155	-0.666553	-0.305874	-71.516238	110.669581
26732		9.089741	0.776914	2.795313	-0.823415	-0.050174	-0.306889	0.275177	0.212553	0.003978	-0.813477	-0.268311	-0.695557	0.090927	0.007733	0.027867	-0.462527	-0.479334	0.332755	-0.667519	-0.148985	-71.395887	110.670452
26733		9.047266	0.752969	2.775832	-0.803078	-0.018262	-0.353304	0.210197	0.203877	0.013960	-0.816406	-0.265137	-0.695313	0.090500	0.007507	0.027674	-0.462378	-0.479101	0.331655	-0.668336	-0.046917	-71.280604	110.679985
26734		8.970742	0.746170	2.741189	-0.801911	0.008524	-0.437083	0.166349	0.178719	0.024500	-0.817627	-0.263672	-0.708496	0.089731	0.007450	0.027338	-0.462198	-0.478861	0.330744	-0.669084	0.011715	-71.179637	110.718777
26735		9.068009	0.719319	2.676648	-0.812899	0.118706	-0.366221	0.134491	0.154978	0.031590	-0.813232	-0.269775	-0.703857	0.090700	0.007190	0.026701	-0.462090	-0.478585	0.330053	-0.669697	0.040325	-71.092375	110.759949
26736		9.102674	0.590579	2.626647	-0.717662	0.231660	-0.350234	0.095546	0.146801	0.032344	-0.820313	-0.263916	-0.703369	0.091045	0.005908	0.026202	-0.462000	-0.478274	0.329470	-0.670269	0.045404	-71.009712	110.812514
26737		9.052602	0.499830	2.710978	-0.603231	0.186199	-0.370745	0.071461	0.138091	0.023619	-0.808105	-0.272705	-0.703125	0.090544	0.004999	0.027049	-0.462040	-0.477922	0.329009	-0.670718	0.051566	-70.932153	110.839335
26738		8.971349	0.379032	2.703728	-0.487984	0.222046	-0.450451	0.062721	0.130843	0.029216	-0.812012	-0.279541	-0.701904	0.089731	0.003795	0.026980	-0.462012	-0.477593	0.328565	-0.671189	0.043450	-70.858634	110.886008
26739		8.888224	0.208184	2.674139	-0.333528	0.294780	-0.539245	0.064331	0.138053	0.027699	-0.809326	-0.268066	-0.703369	0.088900	0.002086	0.026681	-0.461997	-0.477247	0.328096	-0.671676	0.039197	-70.781105	110.929656
26740		8.799395	0.176992	2.600709	-0.323662	0.354668	-0.647874	0.063380	0.136576	0.027679	-0.816406	-0.269287	-0.700439	0.088011	0.001774	0.025948	-0.461981	-0.476902	0.327632	-0.672157	0.034389	-70.704297	110.973268
26741		8.779258	0.225791	2.554798	-0.386917	0.381187	-0.682609	0.045684	0.106569	0.026798	-0.811279	-0.271484	-0.704102	0.087806	0.002264	0.025502	-0.461961	-0.476619	0.327296	-0.672535	0.021286	-70.644818	111.014904
26742		8.839460	0.354567	2.426165	-0.561621	0.473392	-0.668917	0.012709	0.063618	0.022386	-0.804443	-0.275146	-0.709229	0.088402	0.003554	0.024234	-0.461965	-0.476411	0.327159	-0.672747	-0.003539	-70.609804	111.048990
26743		8.846427	0.482504	2.299871	-0.727620	0.544180	-0.704673	-0.015173	0.034914	0.018314	-0.810547	-0.268066	-0.700684	0.088468	0.004835	0.022983	-0.462001	-0.476242	0.327172	-0.672835	-0.037407	-70.591375	111.075713
26744		8.945412	0.670316	2.323857	-0.909291	0.487594	-0.603699	-0.032715	0.014660	0.020411	-0.808105	-0.270264	-0.716553	0.089455	0.006716	0.023231	-0.462039	-0.476097	0.327296	-0.672851	-0.084941	-70.584399	111.106291
26745		8.968868	0.787151	2.349536	-1.015206	0.430071	-0.573374	-0.053994	0.001127	0.021818	-0.814453	-0.269775	-0.710938	0.089688	0.007888	0.023493	-0.462101	-0.475947	0.327527	-0.672803	-0.146729	-70.585326	111.139008
26746		9.007225	0.863158	2.409126	-1.074109	0.361134	-0.517802	-0.074768	-0.001220	0.030418	-0.804932	-0.266113	-0.701660	0.090071	0.008654	0.024089	-0.462179	-0.475741	0.327853	-0.672736	-0.234664	-70.587407	111.186876
26747		9.025849	0.917930	2.488700	-1.105129	0.275759	-0.474336	-0.098435	-0.001974	0.032032	-0.815674	-0.263672	-0.710693	0.090257	0.009206	0.024883	-0.462307	-0.475482	0.328264	-0.672630	-0.338510	-70.590064	111.237204
26748		8.994179	0.921723	2.496563	-1.107457	0.255415	-0.502158	-0.121854	-0.016327	0.038932	-0.804443	-0.266357	-0.706299	0.089938	0.009250	0.024967	-0.462444	-0.475204	0.328803	-0.672469	-0.467488	-70.600708	111.299981
26749		9.025607	0.855472	2.464893	-1.065292	0.312387	-0.483342	-0.139038	-0.043858	0.039646	-0.810059	-0.258057	-0.695313	0.090249	0.008590	0.024663	-0.462573	-0.474979	0.329466	-0.672215	-0.607681	-70.627257	111.364154
26750		9.104823	0.679200	2.456449	-0.917741	0.399819	-0.411030	-0.159200	-0.076017	0.040067	-0.806641	-0.257813	-0.705566	0.091038	0.006830	0.024594	-0.462696	-0.474813	0.330271	-0.671852	-0.761400	-70.671988	111.430454
26751		9.233113	0.562413	2.494055	-0.815408	0.437446	-0.276927	-0.168217	-0.105064	0.033804	-0.809082	-0.262207	-0.702881	0.092317	0.005661	0.024984	-0.462813	-0.474736	0.331159	-0.671389	-0.910871	-70.733557	111.486704
26752		9.355153	0.475867	2.462527	-0.762740	0.520804	-0.171300	-0.190064	-0.127272	0.033858	-0.816650	-0.256836	-0.704834	0.093535	0.004798	0.024680	-0.462944	-0.474680	0.332171	-0.670839	-1.074648	-70.807592	111.544878
26753		9.351101	0.418046	2.482524	-0.703953	0.508151	-0.167637	-0.210311	-0.139347	0.022502	-0.806396	-0.250244	-0.695557	0.093493	0.004217	0.024886	-0.463200	-0.474608	0.333293	-0.670156	-1.232099	-70.888836	111.574027
26754		9.293305	0.441372	2.409940	-0.744611	0.532344	-0.245541	-0.210945	-0.139556	0.020170	-0.813965	-0.247070	-0.708252	0.092916	0.004449	0.024160	-0.463404	-0.474566	0.334370	-0.669508	-1.387304	-70.969980	111.610416
26755		9.329092	0.424740	2.389083	-0.741515	0.552530	-0.217640	-0.222530	-0.156786	0.016710	-0.809814	-0.250000	-0.708496	0.093272	0.004282	0.023959	-0.463678	-0.474532	0.335559	-0.668747	-1.544498	-71.061235	111.631732
26756		9.356787	0.597034	2.403066	-0.903204	0.473418	-0.187682	-0.220500	-0.156761	0.013940	-0.815186	-0.249512	-0.705811	0.093549	0.006003	0.024097	-0.463895	-0.474534	0.336691	-0.668025	-1.697201	-71.152269	111.659652
26757		9.405016	0.610410	2.393969	-0.925365	0.475784	-0.144423	-0.236444	-0.164291	0.010600	-0.814697	-0.239990	-0.699707	0.094030	0.006137	0.024010	-0.464208	-0.474501	0.337928	-0.667206	-1.854178	-71.247876	111.672316
26758		9.383975	0.723925	2.358498	-1.041793	0.446457	-0.176252	-0.250144	-0.167553	0.005068	-0.821045	-0.246338	-0.700928	0.093820	0.007271	0.023654	-0.464505	-0.474484	0.339162	-0.666385	-2.011227	-71.345210	111.686861
26759		9.372999	0.758366	2.311367	-1.088391	0.457952	-0.201428	-0.284828	-0.171297	-0.005530	-0.815918	-0.238037	-0.695068	0.093710	0.007614	0.023183	-0.464971	-0.474387	0.340537	-0.665427	-2.170714	-71.445157	111.672899
26760		9.389063	0.841738	2.311694	-1.169091	0.418357	-0.186414	-0.309473	-0.182888	-0.012979	-0.816650	-0.235840	-0.697998	0.093870	0.008447	0.023190	-0.465441	-0.474310	0.341960	-0.664423	-2.333694	-71.551649	111.657835
26761		9.429967	0.887836	2.235105	-1.240857	0.466535	-0.171587	-0.345181	-0.209255	-0.022280	-0.815918	-0.240967	-0.696289	0.094277	0.008907	0.022434	-0.466038	-0.474224	0.343581	-0.663229	-2.503304	-71.673746	111.618055
26762		9.458554	0.904580	2.144569	-1.287479	0.532374	-0.172115	-0.369385	-0.210742	-0.019731	-0.821533	-0.231934	-0.686279	0.094564	0.009076	0.021529	-0.466621	-0.474108	0.345249	-0.662035	-2.692843	-71.796384	111.594832
26763		9.468789	1.066322	2.925239	-1.204295	-0.237597	0.078987	-0.363573	-0.196931	-0.020270	-0.823730	-0.224365	-0.689697	0.094660	0.010707	0.029326	-0.467271	-0.473931	0.346904	-0.660837	-2.877318	-71.911456	111.559807
26764		9.413229	1.168420	3.575026	-1.100301	-0.894423	0.224453	-0.321843	-0.277698	-0.015535	-0.820557	-0.231201	-0.684326	0.094083	0.011735	0.035862	-0.467607	-0.474135	0.348578	-0.659571	-3.055198	-72.072326	111.553001
26765		9.892693	0.774179	3.287558	-0.863707	-0.407064	0.596967	-0.335877	-0.457001	-0.042284	-0.827148	-0.224365	-0.692139	0.098853	0.007776	0.033088	-0.467807	-0.474913	0.350694	-0.657745	-3.211609	-72.336926	111.505104
26766		10.887756	0.207686	3.213245	-0.447790	0.076839	1.532123	-0.353263	-0.395596	-0.106850	-0.836914	-0.218750	-0.681641	0.108815	0.002076	0.032344	-0.468306	-0.475587	0.352525	-0.655922	-3.256545	-72.568199	111.340002
26767		10.914568	-0.254108	3.520494	0.093291	-0.079889	1.657758	-0.288907	-0.176985	-0.178974	-0.827148	-0.218262	-0.685059	0.109112	-0.002588	0.035305	-0.469330	-0.475789	0.353503	-0.654515	-3.107560	-72.676962	111.000233
26768		10.391829	-0.493317	3.474906	0.381173	-0.123912	1.148506	-0.231754	-0.136861	-0.225108	-0.834717	-0.225830	-0.682129	0.103889	-0.005010	0.034826	-0.470379	-0.476103	0.354046	-0.653239	-2.834648	-72.763471	110.575412
26769		10.378223	-0.798154	3.516057	0.707339	-0.082391	1.150890	-0.150584	-0.140590	-0.251308	-0.833252	-0.215332	-0.680908	0.103747	-0.008085	0.035240	-0.471372	-0.476637	0.354311	-0.651989	-2.462560	-72.852380	110.085469
26770		10.208550	-0.915302	3.482463	0.853783	-0.070545	0.978320	-0.085314	-0.108191	-0.285247	-0.834473	-0.218750	-0.679199	0.102053	-0.009284	0.034884	-0.472317	-0.477306	0.354163	-0.650895	-1.983999	-72.922157	109.533645
26771		9.709765	-0.877289	3.331071	0.852537	-0.085478	0.454299	-0.033486	-0.089692	-0.292785	-0.830078	-0.225098	-0.675537	0.097070	-0.008909	0.033356	-0.473253	-0.478020	0.353828	-0.649872	-1.456031	-72.980339	108.950928
26772		9.274109	-0.551497	3.378815	0.626149	-0.349303	0.047104	0.016889	-0.092151	-0.283262	-0.826416	-0.217529	-0.680420	0.092718	-0.005649	0.033830	-0.473974	-0.478873	0.353313	-0.648999	-0.913944	-73.037950	108.394270
26773		8.967407	-0.078962	3.291707	0.204998	-0.497915	-0.275080	0.014959	-0.078446	-0.241827	-0.826904	-0.222412	-0.676270	0.089660	-0.000901	0.032952	-0.474647	-0.479572	0.352915	-0.648206	-0.446649	-73.086247	107.904315
26774		8.654961	0.384416	3.259690	-0.197096	-0.695923	-0.584550	0.018263	-0.084797	-0.186005	-0.828369	-0.218506	-0.676758	0.086539	0.003761	0.032634	-0.475061	-0.480231	0.352610	-0.647581	-0.080845	-73.136765	107.533012
26775		8.587928	0.668752	3.207410	-0.461049	-0.757740	-0.663892	0.004046	-0.142193	-0.125941	-0.838135	-0.223389	-0.675781	0.085861	0.006633	0.032135	-0.475272	-0.480905	0.352677	-0.646889	0.165879	-73.219853	107.266992
26776		8.747913	0.827144	3.079359	-0.650151	-0.656631	-0.547769	-0.025624	-0.199624	-0.064977	-0.835205	-0.228271	-0.670410	0.087451	0.008247	0.030880	-0.475196	-0.481617	0.353077	-0.646197	0.281745	-73.335513	107.130733
26777		8.744058	0.970886	3.025418	-0.794563	-0.669164	-0.567409	-0.069534	-0.227641	-0.014532	-0.835938	-0.220215	-0.672852	0.087407	0.009713	0.030350	-0.475071	-0.482196	0.353851	-0.645434	0.277747	-73.467609	107.082992
26778		8.851433	1.039110	3.025637	-0.864681	-0.682319	-0.465559	-0.115952	-0.259794	0.018786	-0.832031	-0.218994	-0.680176	0.088474	0.010417	0.030365	-0.474833	-0.482738	0.354886	-0.644634	0.182130	-73.617932	107.113471
26779		8.920777	0.981975	2.882079	-0.855299	-0.540272	-0.441059	-0.150852	-0.287128	0.032226	-0.842529	-0.218750	-0.671875	0.089165	0.009856	0.028941	-0.474649	-0.483228	0.356177	-0.643690	0.039460	-73.784090	107.161205
26780		8.883967	0.782372	2.874669	-0.662529	-0.512581	-0.480006	-0.193212	-0.322902	0.024929	-0.839355	-0.224121	-0.670166	0.088792	0.007863	0.028882	-0.474464	-0.483776	0.357624	-0.642612	-0.115757	-73.970526	107.207594
26781		8.900289	0.502901	3.035298	-0.348991	-0.605955	-0.421627	-0.241395	-0.374678	-0.003598	-0.845947	-0.213623	-0.670654	0.088946	0.005064	0.030514	-0.474451	-0.484395	0.359322	-0.641206	-0.243010	-74.186852	107.185688
26782		8.873412	0.218410	3.111781	-0.048372	-0.636969	-0.428652	-0.291462	-0.415257	-0.041004	-0.851563	-0.217773	-0.666016	0.088670	0.002211	0.031299	-0.474545	-0.485120	0.361140	-0.639565	-0.325133	-74.426334	107.097582
26783		8.979571	-0.089956	3.032997	0.225075	-0.488118	-0.349560	-0.332854	-0.448988	-0.091976	-0.860352	-0.204346	-0.658936	0.089727	-0.000890	0.030533	-0.474896	-0.485911	0.363089	-0.637597	-0.324065	-74.685517	106.888120
26784		9.188991	-0.338648	3.045027	0.463727	-0.417118	-0.146497	-0.345182	-0.444335	-0.142244	-0.855225	-0.205811	-0.661621	0.091820	-0.003399	0.030660	-0.475384	-0.486778	0.364897	-0.635538	-0.220401	-74.941930	106.575826
26785		9.386710	-0.611482	3.041719	0.727655	-0.328502	0.041181	-0.331328	-0.411197	-0.194670	-0.850586	-0.209717	-0.654541	0.093798	-0.006156	0.030620	-0.476119	-0.487631	0.366496	-0.633409	0.012568	-75.179386	106.127690
26786		9.529493	-0.821489	3.052841	0.944362	-0.282653	0.179012	-0.324112	-0.376007	-0.241183	-0.852539	-0.221680	-0.647949	0.095227	-0.008280	0.030721	-0.476986	-0.488503	0.367828	-0.631310	0.361697	-75.395803	105.574781
26787		9.673200	-0.987806	3.200612	1.159767	-0.372972	0.351277	-0.283954	-0.328513	-0.280571	-0.855469	-0.206543	-0.649170	0.096665	-0.009968	0.032179	-0.478019	-0.489360	0.368862	-0.629258	0.834934	-75.583914	104.907960
26788		9.761722	-1.093054	3.367951	1.327886	-0.505982	0.473696	-0.252622	-0.254972	-0.308823	-0.854248	-0.208252	-0.646973	0.097557	-0.011039	0.033818	-0.479141	-0.490140	0.369509	-0.627416	1.399275	-75.727934	104.176113
26789		9.752949	-1.107377	3.527294	1.412887	-0.671710	0.499469	-0.213990	-0.172066	-0.325470	-0.859131	-0.213379	-0.646729	0.097481	-0.011195	0.035369	-0.480427	-0.490748	0.369837	-0.625761	2.030722	-75.822423	103.388015
26790		9.702222	-1.158854	3.768226	1.555965	-0.904500	0.504113	-0.203334	-0.077420	-0.335281	-0.853516	-0.208984	-0.645996	0.096988	-0.011713	0.037732	-0.481834	-0.491134	0.369834	-0.624376	2.688634	-75.860208	102.589391
26791		9.632125	-1.116001	3.961718	1.593556	-1.113122	0.480028	-0.198288	0.023700	-0.335794	-0.863037	-0.214355	-0.647217	0.096307	-0.011282	0.039617	-0.483472	-0.491184	0.369613	-0.623201	3.341529	-75.837995	101.788830
26792		9.548839	-0.933026	4.046727	1.465160	-1.249838	0.420495	-0.204155	0.115397	-0.335244	-0.857666	-0.211670	-0.650146	0.095496	-0.009449	0.040422	-0.485234	-0.490962	0.369146	-0.622283	3.971851	-75.761096	101.018032
26793		9.379550	-0.833054	3.910950	1.361593	-1.171798	0.224163	-0.221733	0.179322	-0.334385	-0.851318	-0.208252	-0.656982	0.093816	-0.008444	0.039035	-0.487207	-0.490464	0.368621	-0.621444	4.571754	-75.645777	100.257817
26794		9.054947	-0.859820	3.741801	1.376409	-1.065201	-0.132645	-0.250700	0.197117	-0.325233	-0.850098	-0.218262	-0.653076	0.090572	-0.008699	0.037340	-0.489198	-0.489852	0.368120	-0.620659	5.119688	-75.518800	99.543806
26795		8.981430	-0.743414	3.653523	1.260773	-1.012890	-0.223556	-0.265000	0.123442	-0.320036	-0.849121	-0.223145	-0.657227	0.089825	-0.007529	0.036490	-0.491125	-0.489390	0.367898	-0.619633	5.654050	-75.432495	98.824915
26796		9.068368	-0.550339	3.480864	1.045000	-0.867961	-0.178935	-0.264043	0.026435	-0.298901	-0.843506	-0.220703	-0.656250	0.090680	-0.005593	0.034804	-0.492748	-0.489222	0.367918	-0.618464	6.157994	-75.401078	98.147926
26797		9.367879	-0.488618	3.233959	0.932138	-0.577014	0.048982	-0.245864	-0.074253	-0.254513	-0.845703	-0.214111	-0.654053	0.093660	-0.004966	0.032380	-0.494057	-0.489294	0.368280	-0.617145	6.599493	-75.428436	97.536219
26798		9.771423	-0.371120	3.073551	0.784491	-0.363732	0.400901	-0.188176	-0.167702	-0.206237	-0.854736	-0.213867	-0.648193	0.097685	-0.003783	0.030821	-0.494848	-0.489739	0.368769	-0.615866	6.994820	-75.511107	97.016502
26799		10.117986	-0.455063	2.861052	0.821693	-0.074693	0.679478	-0.161261	-0.195024	-0.146898	-0.852783	-0.217285	-0.656006	0.101149	-0.004602	0.028713	-0.495393	-0.490192	0.369430	-0.614670	7.287955	-75.612782	96.608392
26800		10.264732	-0.597874	2.748796	0.942369	0.082929	0.788402	-0.116519	-0.169143	-0.085511	-0.854980	-0.218750	-0.651367	0.102621	-0.006007	0.027578	-0.495632	-0.490594	0.369997	-0.613815	7.466597	-75.703829	96.355147
26801		10.257184	-0.642646	2.879450	1.024845	-0.048534	0.810935	-0.093330	-0.159388	-0.040022	-0.853760	-0.222412	-0.645996	0.102548	-0.006434	0.028879	-0.495746	-0.490906	0.370622	-0.613095	7.556952	-75.792603	96.196772
26802		10.447790	-0.670061	2.773532	1.025394	0.087672	0.968716	-0.080656	-0.138565	0.000069	-0.854980	-0.211182	-0.646484	0.104459	-0.006689	0.027810	-0.495691	-0.491144	0.371212	-0.612593	7.558739	-75.872533	96.147318
26803		10.697721	-0.595595	2.575114	0.898537	0.305204	1.165776	-0.080621	-0.063927	0.049320	-0.858154	-0.218994	-0.645752	0.106970	-0.005919	0.025788	-0.495676	-0.491029	0.371780	-0.612352	7.427384	-75.913770	96.225160
26804		10.635016	-0.566114	2.379467	0.817607	0.463130	1.059430	-0.082056	0.033850	0.090661	-0.853271	-0.211670	-0.646973	0.106357	-0.005603	0.023779	-0.495666	-0.490566	0.372170	-0.612495	7.172111	-75.902363	96.439933
26805		10.395186	-0.491226	2.351596	0.730045	0.417294	0.823292	-0.091106	0.100997	0.137044	-0.858398	-0.208496	-0.648682	0.103967	-0.004830	0.023466	-0.495661	-0.489789	0.372533	-0.612899	6.789338	-75.855722	96.780836
26806		10.064319	-0.406241	2.328302	0.631635	0.345230	0.500331	-0.099004	0.106322	0.178337	-0.859131	-0.204590	-0.653564	0.100659	-0.003961	0.023231	-0.495558	-0.488898	0.373009	-0.613404	6.309674	-75.808109	97.217094
26807		9.714841	-0.408188	2.404297	0.638207	0.193982	0.181331	-0.115574	0.106494	0.218372	-0.857666	-0.213379	-0.643799	0.097166	-0.003962	0.023994	-0.495427	-0.487858	0.373675	-0.613933	5.733966	-75.761844	97.732690
26808		9.413741	-0.395676	2.449113	0.619737	0.079584	-0.097608	-0.102204	0.106733	0.252991	-0.852051	-0.214111	-0.637695	0.094155	-0.003825	0.024443	-0.495102	-0.486817	0.374341	-0.614616	5.091522	-75.715922	98.335193
26809		9.118748	-0.382906	2.404749	0.579927	0.049012	-0.392379	-0.099897	0.088766	0.272434	-0.859619	-0.201172	-0.647217	0.091203	-0.003693	0.024009	-0.494730	-0.485767	0.375132	-0.615262	4.414421	-75.679506	98.964964
26810		8.965136	-0.474536	2.291501	0.621199	0.139572	-0.569074	-0.080876	0.064051	0.291182	-0.855957	-0.203125	-0.657959	0.089665	-0.004606	0.022888	-0.494154	-0.484836	0.375929	-0.615973	3.712960	-75.656047	99.641181
26811		8.823330	-0.537134	2.190816	0.637193	0.212285	-0.730387	-0.058164	0.043562	0.304592	-0.854492	-0.205811	-0.650391	0.088246	-0.005231	0.021890	-0.493496	-0.483966	0.376780	-0.616665	2.999514	-75.642712	100.333225
26812		8.826310	-0.603909	2.022310	0.636644	0.382364	-0.767987	-0.041704	-0.004821	0.308487	-0.855957	-0.193115	-0.656494	0.088272	-0.005899	0.020226	-0.492639	-0.483309	0.377666	-0.617323	2.292276	-75.654995	101.038631
26813		8.983496	-0.813906	1.844550	0.766820	0.627274	-0.659193	-0.026583	-0.050935	0.317161	-0.864014	-0.199463	-0.658691	0.089843	-0.007994	0.018469	-0.491685	-0.482781	0.378681	-0.617875	1.576195	-75.691705	101.752021
26814		9.099989	-1.065361	1.735653	0.954804	0.804867	-0.571597	0.026731	-0.061234	0.313990	-0.856689	-0.189453	-0.655518	0.091011	-0.010513	0.017383	-0.490537	-0.482454	0.379506	-0.618536	0.894403	-75.732063	102.471432
26815		9.254882	-1.169089	1.590368	0.989850	0.991685	-0.453970	0.099521	-0.075795	0.304635	-0.860596	-0.188477	-0.652100	0.092560	-0.011558	0.015933	-0.489268	-0.482334	0.380160	-0.619233	0.271901	-75.778721	103.162550
26816		9.474799	-1.240086	1.451137	0.991005	1.182336	-0.271442	0.171780	-0.052625	0.295676	-0.860107	-0.183105	-0.641357	0.094762	-0.012273	0.014526	-0.487840	-0.482368	0.380469	-0.620143	-0.292858	-75.810278	103.846701
26817		9.543918	-1.304586	1.468933	1.030114	1.191606	-0.196817	0.235655	-0.005888	0.284876	-0.861084	-0.178711	-0.658203	0.095457	-0.012927	0.014677	-0.486434	-0.482398	0.380481	-0.621215	-0.797539	-75.813618	104.496566
26818		9.519319	-1.403596	1.518585	1.116416	1.161871	-0.205542	0.292125	0.019576	0.270277	-0.859131	-0.181885	-0.652100	0.095214	-0.013929	0.015156	-0.484930	-0.482546	0.380176	-0.622462	-1.235622	-75.801119	105.121138
26819		9.536832	-1.340989	1.426996	1.012070	1.240703	-0.209456	0.319348	0.065565	0.246857	-0.862549	-0.186768	-0.646240	0.095389	-0.013315	0.014217	-0.483572	-0.482626	0.379660	-0.623770	-1.601213	-75.761597	105.677037
26820		9.423943	-1.399218	1.323048	1.030890	1.333703	-0.342871	0.345359	0.094337	0.238636	-0.850830	-0.189697	-0.653076	0.094262	-0.013902	0.013162	-0.482176	-0.482725	0.378929	-0.625216	-1.928372	-75.704842	106.218831
26821		9.325856	-1.314753	1.214798	0.910470	1.400504	-0.464666	0.387592	0.091929	0.224894	-0.863770	-0.187744	-0.650635	0.093279	-0.013066	0.012080	-0.480767	-0.482926	0.378080	-0.626659	-2.197548	-75.649147	106.715940
26822		9.168167	-1.195325	0.966608	0.727575	1.576141	-0.680064	0.453117	0.105666	0.211250	-0.860352	-0.188232	-0.651855	0.091699	-0.011878	0.009591	-0.479213	-0.483296	0.376914	-0.628264	-2.394322	-75.585300	107.187149
26823		8.961921	-0.928591	0.842003	0.437497	1.586048	-0.914356	0.522268	0.105522	0.194065	-0.857178	-0.192139	-0.655273	0.089633	-0.009221	0.008349	-0.477596	-0.483829	0.375531	-0.629911	-2.510829	-75.521756	107.606535
26824		8.695196	-0.702943	0.730173	0.197338	1.577075	-1.204111	0.563527	0.080047	0.171257	-0.852783	-0.201172	-0.653320	0.086961	-0.006975	0.007247	-0.475845	-0.484612	0.373976	-0.631557	-2.553394	-75.473104	107.984057
26825		8.569560	-0.571520	0.814702	0.091190	1.438309	-1.306767	0.577191	0.025775	0.152521	-0.863525	-0.196533	-0.648682	0.085701	-0.005673	0.008120	-0.474068	-0.485598	0.372503	-0.633005	-2.551460	-75.456081	108.313798
26826		8.532477	-0.400137	0.950882	-0.041369	1.254855	-1.310272	0.606342	-0.070348	0.121659	-0.860840	-0.205322	-0.646729	0.085324	-0.003978	0.009527	-0.472081	-0.487042	0.371043	-0.634237	-2.473978	-75.494794	108.592687
26827		8.671898	-0.186048	1.006391	-0.243087	1.167539	-1.162427	0.608112	-0.168437	0.081897	-0.861328	-0.205322	-0.646484	0.086711	-0.001856	0.010131	-0.470083	-0.488839	0.369752	-0.635092	-2.317693	-75.590939	108.781225
26828		9.025623	-0.130329	0.977552	-0.327347	1.244962	-0.825066	0.556943	-0.247284	0.046304	-0.869141	-0.198486	-0.648193	0.090244	-0.001310	0.009883	-0.468119	-0.490858	0.368676	-0.635610	-2.117959	-75.732984	108.904485
26829		9.323535	-0.055114	0.821598	-0.457082	1.415734	-0.571850	0.543176	-0.273033	0.010345	-0.862061	-0.213867	-0.639160	0.093224	-0.000569	0.008342	-0.466306	-0.492957	0.367656	-0.635909	-1.846226	-75.890790	108.935183
26830		9.599548	0.108782	0.853096	-0.614635	1.378359	-0.293590	0.499744	-0.273312	-0.008111	-0.869873	-0.217529	-0.641846	0.095984	0.001062	0.008665	-0.464600	-0.495017	0.366682	-0.636121	-1.553913	-76.048936	108.929070
26831		9.810717	0.124070	0.873218	-0.626418	1.379864	-0.079672	0.438047	-0.259437	-0.019571	-0.859131	-0.218018	-0.631592	0.098096	0.001212	0.008862	-0.463158	-0.496877	0.365885	-0.636181	-1.266583	-76.199485	108.881752
26832		9.796999	-0.008023	0.807979	-0.505410	1.455264	-0.103887	0.395208	-0.243310	-0.024993	-0.873291	-0.227783	-0.629639	0.097960	-0.000109	0.008199	-0.461813	-0.498623	0.365127	-0.636228	-0.986588	-76.340612	108.826670
26833		9.693358	-0.124096	0.800287	-0.376285	1.454845	-0.202336	0.358450	-0.231777	-0.031599	-0.868896	-0.224854	-0.621338	0.096924	-0.001271	0.008113	-0.460653	-0.500228	0.364485	-0.636177	-0.708453	-76.475361	108.741989
26834		9.509812	-0.234710	0.674083	-0.281882	1.546495	-0.406580	0.326015	-0.235842	-0.055333	-0.870850	-0.232910	-0.626953	0.095089	-0.002385	0.006849	-0.459587	-0.501842	0.363851	-0.636040	-0.388203	-76.612237	108.604815
26835		9.427451	-0.268958	0.453561	-0.295089	1.724756	-0.534057	0.298465	-0.243936	-0.081011	-0.878662	-0.230225	-0.616455	0.094268	-0.002735	0.004647	-0.458708	-0.503433	0.363302	-0.635731	-0.016999	-76.753884	108.389282
26836		9.443091	-0.295900	0.604686	-0.207821	1.579105	-0.480573	0.258298	-0.243607	-0.094186	-0.877441	-0.239258	-0.621338	0.094422	-0.003011	0.006158	-0.457917	-0.504983	0.362801	-0.635358	0.369934	-76.894726	108.143933
26837		9.414101	-0.646221	1.411984	0.393087	0.921865	-0.324157	0.158322	-0.213488	-0.084798	-0.873047	-0.231201	-0.612793	0.094123	-0.006513	0.014215	-0.457456	-0.506160	0.362616	-0.634859	0.681557	-77.018352	107.907394
26838		9.414015	-0.816765	2.245704	0.831202	0.186850	-0.137561	0.160398	-0.299391	-0.063717	-0.871338	-0.239014	-0.607910	0.094104	-0.008216	0.022591	-0.456712	-0.507605	0.362629	-0.634233	0.950371	-77.190768	107.725956
26839		9.847768	-0.103111	2.243496	0.145449	0.022711	0.286848	0.263964	-0.403831	-0.037943	-0.875488	-0.244141	-0.604248	0.098432	-0.001080	0.022632	-0.455486	-0.509539	0.362661	-0.633545	1.224081	-77.423416	107.590541
26840		10.498203	0.314322	1.820261	-0.409126	0.382769	0.832050	0.255039	-0.268619	0.030415	-0.880859	-0.237549	-0.602295	0.104957	0.003136	0.018348	-0.454256	-0.510927	0.362540	-0.633379	1.314065	-77.579075	107.648098
26841		10.623857	0.742804	1.788910	-0.828060	0.278285	0.950916	0.284794	-0.084036	0.110890	-0.879150	-0.241455	-0.593750	0.106227	0.007461	0.017944	-0.453081	-0.511622	0.362156	-0.633880	1.199769	-77.630340	107.922409
26842		10.416208	1.243797	1.938749	-1.245967	-0.078628	0.781865	0.254509	-0.038468	0.178939	-0.874023	-0.246582	-0.595215	0.104147	0.012506	0.019423	-0.451796	-0.512009	0.361893	-0.634634	0.886650	-77.655652	108.392287
26843		10.212361	1.795980	2.198357	-1.682343	-0.555891	0.637733	0.140573	-0.075128	0.228707	-0.879883	-0.243652	-0.597656	0.102095	0.018061	0.022035	-0.450630	-0.512135	0.362245	-0.635161	0.376371	-77.701921	108.987417
26844		9.815035	2.076309	2.704257	-1.772525	-1.213991	0.353103	-0.033531	-0.119023	0.247630	-0.881836	-0.245850	-0.598389	0.098108	0.020889	0.027097	-0.449717	-0.512001	0.363252	-0.635340	-0.288271	-77.771662	109.647969
26845		9.321343	1.450681	2.960804	-1.084794	-1.363903	-0.080208	-0.212435	-0.185480	0.243255	-0.882080	-0.239014	-0.596924	0.093168	0.014652	0.029679	-0.449207	-0.511654	0.365009	-0.634974	-1.054638	-77.878063	110.297821
26846		9.095590	0.413061	3.337453	0.011549	-1.442325	-0.223193	-0.289171	-0.260494	0.221075	-0.880127	-0.238037	-0.588867	0.090908	0.004279	0.033487	-0.448772	-0.511440	0.367075	-0.634262	-1.824143	-78.025564	110.915293
26847		9.225176	-0.164107	3.707360	0.648375	-1.606918	-0.021232	-0.292712	-0.341139	0.168714	-0.880859	-0.233398	-0.591797	0.092190	-0.001509	0.037233	-0.448414	-0.511537	0.369242	-0.633178	-2.478836	-78.219047	111.403329
26848		9.601861	-0.519618	3.728368	0.951733	-1.483007	0.349063	-0.321107	-0.390678	0.127835	-0.890869	-0.232422	-0.584473	0.095949	-0.005075	0.037479	-0.448112	-0.511830	0.371459	-0.631858	-3.062309	-78.440597	111.811304
26849		10.200103	-0.954279	3.534635	1.251954	-1.100041	0.895660	-0.259966	-0.404737	0.087658	-0.889404	-0.225586	-0.584717	0.101933	-0.009452	0.035565	-0.447803	-0.512345	0.373452	-0.630483	-3.517354	-78.671017	112.114035
26850		10.993829	-1.521810	3.354981	1.677473	-0.655401	1.641239	-0.153957	-0.394745	0.032354	-0.900146	-0.223877	-0.577881	0.109874	-0.015174	0.033778	-0.447361	-0.513196	0.374902	-0.629243	-3.764019	-78.897087	112.275625
26851		11.993728	-2.009982	3.159400	2.016157	-0.181106	2.587859	-0.010989	-0.290550	-0.005009	-0.891113	-0.224609	-0.580566	0.119891	-0.020101	0.031769	-0.446915	-0.514077	0.375617	-0.628413	-3.804982	-79.065198	112.301189
26852		12.405530	-1.891879	3.233782	1.907977	-0.237187	3.002814	0.146941	-0.102862	-0.001662	-0.898193	-0.225586	-0.577393	0.124038	-0.018944	0.032388	-0.446353	-0.514744	0.375379	-0.628409	-3.728496	-79.125603	112.309086
26853		12.200084	-1.589742	3.550919	1.739020	-0.662144	2.856792	0.279710	0.080548	0.051601	-0.898926	-0.235107	-0.579102	0.122019	-0.015916	0.035438	-0.445678	-0.515000	0.374497	-0.629204	-3.698903	-79.079359	112.432324
26854		11.603925	-1.089307	3.888999	1.408739	-1.219280	2.331887	0.374359	0.240036	0.130305	-0.889648	-0.229004	-0.575928	0.116093	-0.010890	0.038730	-0.444756	-0.514846	0.373117	-0.630800	-3.814201	-78.938766	112.768327
26855		11.139248	-0.861971	3.872786	1.206547	-1.327416	1.875185	0.415003	0.317920	0.227099	-0.889404	-0.236328	-0.582031	0.111464	-0.008573	0.038533	-0.443619	-0.514324	0.371727	-0.632845	-4.163331	-78.749727	113.357006
26856		10.724663	-0.521205	3.794458	0.865620	-1.406399	1.454989	0.456154	0.360376	0.324000	-0.886475	-0.227783	-0.578125	0.107323	-0.005124	0.037739	-0.442091	-0.513603	0.370314	-0.635322	-4.736412	-78.531012	114.208166
26857		10.294409	-0.027973	3.742988	0.384211	-1.565483	1.021840	0.452902	0.456583	0.397430	-0.890381	-0.230469	-0.584229	0.103030	-0.000159	0.037194	-0.440565	-0.512397	0.368926	-0.638158	-5.461294	-78.251895	115.203465
26858		9.845094	0.495310	3.410226	-0.221117	-1.479229	0.510273	0.424021	0.555092	0.448885	-0.882080	-0.235596	-0.588379	0.098534	0.005102	0.033840	-0.439070	-0.510741	0.367496	-0.641333	-6.269953	-77.910803	116.278286
26859		9.344392	0.836669	2.973341	-0.687966	-1.251458	-0.075198	0.371889	0.536739	0.482754	-0.889160	-0.224609	-0.594482	0.093503	0.008537	0.029498	-0.437612	-0.508928	0.366396	-0.644393	-7.149781	-77.574773	117.387138
26860		8.959463	0.991773	2.717002	-0.928493	-1.116512	-0.510603	0.317075	0.432326	0.500712	-0.883789	-0.232422	-0.598877	0.089628	0.010099	0.026992	-0.435985	-0.507321	0.365699	-0.647153	-8.090455	-77.292827	118.537074
26861		8.836154	1.238211	2.630104	-1.220067	-1.132220	-0.660771	0.283079	0.313418	0.502678	-0.880615	-0.226318	-0.591064	0.088371	0.012567	0.026180	-0.434270	-0.505985	0.365415	-0.649508	-9.056931	-77.074054	119.684873
26862		8.903938	1.029179	2.474416	-1.127451	-0.897239	-0.626517	0.209201	0.208321	0.495965	-0.883057	-0.217041	-0.598633	0.089039	0.010487	0.024662	-0.432512	-0.504867	0.365535	-0.651480	-10.058812	-76.910830	120.836207
26863		9.118526	0.983472	2.552419	-1.122976	-0.911122	-0.403211	0.217433	0.151254	0.463270	-0.886719	-0.205078	-0.601807	0.091181	0.010018	0.025466	-0.430788	-0.503979	0.365710	-0.653210	-10.978075	-76.778995	121.898457
26864		9.493911	0.803521	2.777480	-0.958715	-0.983489	0.016245	0.171443	0.075429	0.402792	-0.879395	-0.213623	-0.604004	0.094933	0.008203	0.027746	-0.429182	-0.503378	0.366000	-0.654567	-11.798209	-76.692766	122.842042
26865		10.047929	0.568800	2.801462	-0.830673	-0.820043	0.568548	0.140817	0.037680	0.309395	-0.879150	-0.208496	-0.595215	0.100476	0.005824	0.028000	-0.427944	-0.502970	0.366281	-0.655533	-12.425140	-76.636206	123.559074
26866		10.508029	0.503512	2.512150	-0.951680	-0.445445	0.952021	0.124972	0.118198	0.191908	-0.888184	-0.211426	-0.597656	0.105090	0.005120	0.025063	-0.427221	-0.502511	0.366099	-0.656457	-12.736858	-76.547893	123.953186
26867		10.530207	0.490023	2.279893	-1.039524	-0.210920	0.920352	0.113496	0.252968	0.071090	-0.874756	-0.214600	-0.599854	0.105329	0.004925	0.022669	-0.427225	-0.501775	0.365406	-0.657403	-12.699670	-76.399401	123.971988
26868		10.252844	0.513513	2.286765	-1.033021	-0.252817	0.650709	0.113585	0.309944	-0.020314	-0.880371	-0.211670	-0.609619	0.102564	0.005112	0.022712	-0.427577	-0.501049	0.364318	-0.658332	-12.424434	-76.230334	123.755743
26869		9.834318	0.702969	2.392608	-1.120529	-0.468158	0.259934	0.119488	0.334761	-0.096529	-0.878174	-0.219482	-0.609619	0.098386	0.006968	0.023766	-0.428265	-0.500360	0.363008	-0.659131	-11.967616	-76.056317	123.345872
26870		9.434219	0.847384	2.442838	-1.181921	-0.611607	-0.121511	0.111994	0.341510	-0.160302	-0.875000	-0.210693	-0.618652	0.094390	0.008385	0.024272	-0.429136	-0.499777	0.361505	-0.659833	-11.380160	-75.884992	122.806547
26871		9.127336	0.890516	2.372900	-1.199461	-0.589345	-0.434746	0.083881	0.350600	-0.216200	-0.866699	-0.220459	-0.622314	0.091324	0.008797	0.023573	-0.430335	-0.499172	0.359977	-0.660345	-10.694745	-75.713285	122.139114
26872		8.781935	0.968276	2.268065	-1.252724	-0.556524	-0.794657	0.114191	0.362296	-0.264678	-0.868164	-0.226074	-0.613770	0.087873	0.009554	0.022527	-0.431579	-0.498710	0.358157	-0.660872	-9.897437	-75.537835	121.383632
26873		8.496468	1.095230	2.171904	-1.353884	-0.538554	-1.095837	0.129106	0.351195	-0.289091	-0.870117	-0.229004	-0.629639	0.085018	0.010815	0.021577	-0.432901	-0.498327	0.356292	-0.661303	-9.060928	-75.368356	120.585961
26874		8.344879	1.285641	1.997279	-1.557257	-0.448038	-1.289009	0.105598	0.317720	-0.304534	-0.863037	-0.229248	-0.619629	0.083500	0.012719	0.019847	-0.434214	-0.498060	0.354494	-0.661610	-8.233995	-75.216266	119.793621
26875		8.321541	1.221957	1.900706	-1.512934	-0.309742	-1.329238	0.076359	0.253911	-0.302375	-0.868652	-0.224365	-0.638184	0.083258	0.012086	0.018906	-0.435536	-0.497904	0.352978	-0.661670	-7.462388	-75.097512	119.030717
26876		8.534062	1.290275	1.901828	-1.585093	-0.260776	-1.121809	0.080508	0.195196	-0.285558	-0.857422	-0.238281	-0.627686	0.085377	0.012773	0.018940	-0.436628	-0.497950	0.351574	-0.661663	-6.751203	-75.008387	118.342421
26877		8.704023	1.269058	1.922351	-1.562465	-0.208486	-0.948087	0.025607	0.168036	-0.252395	-0.859131	-0.246094	-0.641113	0.087072	0.012578	0.019152	-0.437757	-0.497875	0.350536	-0.661523	-6.155768	-74.930626	117.730956
26878		8.743159	1.178888	1.961293	-1.456182	-0.179505	-0.894922	-0.045686	0.152894	-0.221917	-0.858398	-0.239990	-0.631592	0.087460	0.011696	0.019543	-0.438877	-0.497671	0.349799	-0.661326	-5.674829	-74.858181	117.205743
26879		8.734450	1.075916	1.977770	-1.343903	-0.137364	-0.894459	-0.115700	0.166352	-0.193865	-0.851807	-0.242188	-0.634277	0.087371	0.010686	0.019699	-0.440159	-0.497189	0.349375	-0.661060	-5.294386	-74.775565	116.732946
26880		8.559727	0.923755	2.002039	-1.167427	-0.123186	-1.051848	-0.155622	0.188404	-0.169561	-0.857422	-0.248779	-0.634277	0.085624	0.009180	0.019933	-0.441439	-0.496533	0.349051	-0.660871	-4.988629	-74.678326	116.323618
26881		8.437087	0.836714	1.995219	-1.071546	-0.092984	-1.169278	-0.200858	0.197289	-0.154160	-0.847900	-0.241211	-0.643555	0.084397	0.008322	0.019861	-0.442853	-0.495690	0.348937	-0.660618	-4.742961	-74.574864	115.939651
26882		8.365430	0.644794	1.772649	-0.960523	0.180606	-1.293110	-0.243551	0.200042	-0.138933	-0.860596	-0.244629	-0.643799	0.083676	0.006411	0.017635	-0.444268	-0.494745	0.348952	-0.660368	-4.557314	-74.468635	115.602274
26883		8.396869	0.570566	1.748818	-0.903372	0.256070	-1.268120	-0.261986	0.191085	-0.122849	-0.854980	-0.246338	-0.641357	0.083989	0.005677	0.017400	-0.445717	-0.493729	0.349130	-0.660058	-4.419393	-74.366647	115.293239
26884		8.397530	0.385719	1.679078	-0.755885	0.402977	-1.283161	-0.275428	0.175043	-0.105065	-0.842529	-0.235352	-0.644287	0.083992	0.003836	0.016712	-0.447053	-0.492733	0.349388	-0.659762	-4.331048	-74.272789	115.037623
26885		8.453871	0.307888	1.729558	-0.674875	0.414415	-1.214613	-0.301259	0.158561	-0.082098	-0.858154	-0.241455	-0.653076	0.084554	0.003070	0.017224	-0.448405	-0.491663	0.349866	-0.659389	-4.307667	-74.187423	114.824003
26886		8.510423	0.227788	1.779071	-0.593963	0.425723	-1.146072	-0.292635	0.158131	-0.058502	-0.846680	-0.240967	-0.646240	0.085119	0.002279	0.017720	-0.449597	-0.490601	0.350331	-0.659122	-4.328609	-74.101150	114.671527
26887		8.557490	0.284647	1.893701	-0.620578	0.326563	-1.071636	-0.283049	0.146702	-0.027789	-0.850830	-0.238770	-0.650635	0.085589	0.002861	0.018870	-0.450701	-0.489513	0.350906	-0.658870	-4.407126	-74.020257	114.574626
26888		8.810701	0.365959	1.907643	-0.729180	0.359253	-0.827104	-0.267384	0.115993	0.003487	-0.855957	-0.229736	-0.658691	0.088118	0.003687	0.019020	-0.451552	-0.488535	0.351533	-0.658680	-4.544235	-73.955397	114.557938
26889		9.036495	0.515077	1.876732	-0.915275	0.400790	-0.623167	-0.255469	0.110941	0.043950	-0.846924	-0.234863	-0.655029	0.090374	0.005195	0.018711	-0.452288	-0.487499	0.352272	-0.658548	-4.754323	-73.891722	114.614199
26890		9.281495	0.610042	1.901388	-1.038054	0.414642	-0.384853	-0.279612	0.101465	0.071539	-0.838867	-0.233398	-0.667725	0.092822	0.006160	0.018958	-0.452917	-0.486419	0.353136	-0.658451	-5.033647	-73.831864	114.738256
26891		9.419404	0.595486	1.808947	-1.085875	0.542838	-0.279680	-0.297791	0.073926	0.107881	-0.848145	-0.226318	-0.663330	0.094197	0.006033	0.018046	-0.453479	-0.485293	0.354252	-0.658296	-5.397386	-73.785756	114.929328
26892		9.415875	0.482786	1.661838	-1.043446	0.715099	-0.323045	-0.299377	0.058954	0.121744	-0.846191	-0.218994	-0.661133	0.094161	0.004910	0.016583	-0.453912	-0.484217	0.355398	-0.658172	-5.791253	-73.746918	115.160949
26893		9.288374	0.459472	1.626658	-1.034032	0.720879	-0.456293	-0.307933	0.002875	0.129576	-0.853760	-0.218750	-0.663086	0.092881	0.004680	0.016258	-0.454299	-0.483261	0.356760	-0.657871	-6.214909	-73.739281	115.408294
26894		9.085445	0.321492	1.457621	-0.946927	0.860741	-0.694806	-0.321338	-0.084866	0.131227	-0.842773	-0.220947	-0.659180	0.090846	0.003298	0.014610	-0.454496	-0.482588	0.358325	-0.657377	-6.669547	-73.780762	115.690113
26895		9.048132	0.289396	1.335582	-0.961157	0.957797	-0.763103	-0.330204	-0.163165	0.125644	-0.842773	-0.210693	-0.660400	0.090469	0.002973	0.013425	-0.454649	-0.482132	0.360124	-0.656623	-7.138404	-73.866746	115.971324
26896		8.984844	0.187832	1.257447	-0.889829	1.024549	-0.840379	-0.339241	-0.244576	0.116870	-0.845459	-0.204346	-0.659912	0.089832	0.001952	0.012681	-0.454646	-0.481965	0.362074	-0.655674	-7.621173	-73.998738	116.271497
26897		9.265165	0.264567	1.291776	-0.990728	1.008920	-0.561611	-0.297056	-0.326691	0.101859	-0.855957	-0.197998	-0.655762	0.092629	0.002712	0.013065	-0.454499	-0.482158	0.364077	-0.654525	-8.078486	-74.178033	116.559755
26898		9.591907	0.405599	1.455645	-1.116761	0.859701	-0.205307	-0.241804	-0.344192	0.092011	-0.851318	-0.205811	-0.656982	0.095892	0.004118	0.014717	-0.454157	-0.482579	0.365871	-0.653450	-8.498562	-74.367224	116.852288
26899		9.883050	0.463904	1.470571	-1.203414	0.862932	0.079709	-0.208472	-0.335059	0.084038	-0.857178	-0.195313	-0.643311	0.098804	0.004696	0.014866	-0.453835	-0.483028	0.367557	-0.652395	-8.888110	-74.551626	117.122391
26900		10.139796	0.617269	1.400603	-1.400640	0.905753	0.305411	-0.174315	-0.311013	0.077215	-0.857422	-0.194092	-0.649170	0.101374	0.006224	0.014158	-0.453435	-0.483517	0.369016	-0.651486	-9.244486	-74.722286	117.388448
26901		10.403081	0.691272	1.317349	-1.527349	0.988533	0.537544	-0.186247	-0.296241	0.081915	-0.861816	-0.186523	-0.643799	0.104008	0.006968	0.013321	-0.453134	-0.483891	0.370535	-0.650556	-9.618643	-74.884019	117.655305
26902		10.497515	0.862967	1.147313	-1.753608	1.082325	0.580206	-0.218342	-0.268615	0.095176	-0.865723	-0.188721	-0.644287	0.104955	0.008692	0.011605	-0.452858	-0.484106	0.372082	-0.649704	-10.036666	-75.028035	117.958674
26903		10.303922	1.097120	1.481154	-1.861181	0.631317	0.468640	-0.248791	-0.200710	0.126504	-0.865723	-0.185059	-0.637451	0.103017	0.011055	0.014901	-0.452739	-0.483940	0.373694	-0.648985	-10.518502	-75.130284	118.299334
26904		9.851397	1.331931	2.285660	-1.807891	-0.308621	0.221481	-0.214239	-0.173722	0.157206	-0.860840	-0.179932	-0.644287	0.098484	0.013421	0.022928	-0.452426	-0.483738	0.375162	-0.648508	-11.041099	-75.212914	118.713008
26905		9.498094	0.924109	2.650231	-1.284065	-0.627296	-0.012226	-0.274718	-0.344729	0.140649	-0.862549	-0.171143	-0.634521	0.094929	0.009344	0.026653	-0.452050	-0.483950	0.377215	-0.647419	-11.642358	-75.392780	119.161395
26906		10.022762	0.437326	2.440041	-0.949183	-0.215700	0.466079	-0.308947	-0.562496	0.081082	-0.868408	-0.176514	-0.637695	0.100157	0.004452	0.024675	-0.451476	-0.484930	0.379679	-0.645643	-12.249836	-75.700195	119.605978
26907		10.902262	-0.619027	2.453452	-0.039053	0.218901	1.377134	-0.422997	-0.584724	-0.035573	-0.875000	-0.170898	-0.629883	0.108949	-0.006157	0.024866	-0.451568	-0.485907	0.382321	-0.643282	-12.694993	-76.033766	119.804417
26908		11.882167	-1.769201	2.347896	0.932155	0.803112	2.365748	-0.444929	-0.487918	-0.180170	-0.871094	-0.170898	-0.623535	0.118748	-0.017746	0.023808	-0.452297	-0.486827	0.384412	-0.640823	-12.786396	-76.330944	119.636072
26909		12.717032	-2.398151	2.174050	1.426260	1.271153	3.169999	-0.318641	-0.338476	-0.316636	-0.886230	-0.155518	-0.624268	0.127095	-0.024148	0.021994	-0.453497	-0.487778	0.385470	-0.638612	-12.404234	-76.561848	119.044631
26910		12.620346	-2.172586	2.405537	1.334407	0.947530	3.114076	-0.138803	-0.095825	-0.401347	-0.875000	-0.174316	-0.624756	0.126148	-0.021962	0.024131	-0.454935	-0.488555	0.385150	-0.637187	-11.581455	-76.665063	118.117176
26911		11.410410	-1.562424	2.723418	1.018558	0.233339	1.975591	-0.003000	0.021131	-0.434944	-0.870361	-0.171387	-0.625244	0.114073	-0.015872	0.027222	-0.456431	-0.489296	0.384094	-0.636185	-10.534506	-76.703020	117.028679
26912		10.039998	-0.711331	2.987349	0.465454	-0.528311	0.662802	0.060970	-0.046839	-0.422626	-0.876709	-0.182861	-0.631104	0.100378	-0.007335	0.029895	-0.457539	-0.490408	0.382971	-0.635209	-9.502260	-76.773256	116.004094
26913		8.887339	0.106125	3.188425	-0.105970	-1.185568	-0.445447	0.000907	-0.122805	-0.388841	-0.877686	-0.175537	-0.622559	0.088856	0.000888	0.031939	-0.458598	-0.491524	0.382339	-0.633963	-8.602609	-76.879717	115.070179
26914		8.075927	0.485099	3.226012	-0.348817	-1.498707	-1.239753	-0.133428	-0.137787	-0.353323	-0.873047	-0.182861	-0.619629	0.080745	0.004730	0.032313	-0.459785	-0.492342	0.382208	-0.632546	-7.858779	-76.988475	114.228152
26915		7.504749	0.589020	3.412522	-0.323064	-1.822214	-1.757338	-0.291295	-0.091934	-0.355858	-0.879150	-0.183105	-0.622559	0.075042	0.005806	0.034151	-0.461512	-0.492623	0.382507	-0.630887	-7.171250	-77.069297	113.341019
26916		7.116925	0.266558	3.558528	0.076335	-1.950159	-2.094150	-0.440742	-0.117849	-0.407041	-0.880371	-0.179688	-0.627686	0.071154	0.002599	0.035621	-0.463657	-0.492767	0.383164	-0.628799	-6.440298	-77.165593	112.332198
26917		7.295383	-0.360945	3.691273	0.717228	-1.874273	-1.878519	-0.548557	-0.225282	-0.498689	-0.876709	-0.188232	-0.612549	0.072903	-0.003690	0.037005	-0.466202	-0.493136	0.384222	-0.625976	-5.551478	-77.325658	111.088396
26918		8.109827	-1.006133	3.854051	1.344632	-1.708088	-1.042880	-0.599469	-0.333639	-0.608839	-0.871338	-0.189697	-0.614014	0.081003	-0.010192	0.038706	-0.468943	-0.493961	0.385370	-0.622564	-4.403582	-77.547949	109.560502
26919		8.935974	-1.456927	4.013689	1.803665	-1.604664	-0.207717	-0.605999	-0.388510	-0.719873	-0.877686	-0.182861	-0.606934	0.089229	-0.014769	0.040355	-0.471984	-0.495112	0.386426	-0.618685	-2.924053	-77.798248	107.680720
26920		10.141077	-1.704959	4.292686	2.095840	-1.597548	1.014604	-0.535676	-0.357503	-0.801866	-0.883545	-0.188232	-0.606934	0.101265	-0.017340	0.043154	-0.475097	-0.496509	0.386935	-0.614852	-1.114128	-78.020672	105.515919
26921		11.366771	-1.841118	4.413992	2.265316	-1.460870	2.221019	-0.470150	-0.229699	-0.846628	-0.877686	-0.188477	-0.606445	0.113538	-0.018788	0.044314	-0.478474	-0.497711	0.386863	-0.611297	0.923502	-78.154744	103.148050
26922		12.042931	-2.026625	3.950004	2.388000	-0.848102	2.769819	-0.423893	-0.036738	-0.843082	-0.880127	-0.190674	-0.610107	0.120335	-0.020690	0.039566	-0.482033	-0.498447	0.386143	-0.608349	2.994177	-78.160657	100.784254
26923		11.949962	-1.916378	3.381776	2.232292	-0.339907	2.549001	-0.367732	0.119661	-0.759995	-0.875732	-0.195557	-0.608887	0.119446	-0.019556	0.033782	-0.485545	-0.498640	0.385118	-0.606043	4.833969	-78.063928	98.678764
26924		11.388746	-1.495284	2.821482	1.776702	0.005803	1.881035	-0.295020	0.175102	-0.604543	-0.866211	-0.201416	-0.611816	0.113866	-0.015255	0.028137	-0.488450	-0.498567	0.384076	-0.604428	6.248941	-77.931894	97.059413
26925		10.484943	-1.310490	2.489545	1.589752	0.115610	0.925489	-0.213783	0.149507	-0.413198	-0.879883	-0.199463	-0.616699	0.104841	-0.013295	0.024831	-0.490574	-0.498366	0.383368	-0.603322	7.183342	-77.820433	95.968409
26926		9.835583	-0.817319	2.510224	1.154983	-0.140834	0.304332	-0.101773	-0.023963	-0.212185	-0.873047	-0.203857	-0.613525	0.098344	-0.008265	0.025118	-0.491424	-0.498608	0.383204	-0.602534	7.699703	-77.819530	95.380554
26927		9.598378	-0.676325	1.970907	0.914493	0.282152	-0.037473	-0.051921	-0.190047	-0.038336	-0.879883	-0.201904	-0.605957	0.095964	-0.006777	0.019802	-0.491361	-0.499106	0.383775	-0.601809	7.848750	-77.925716	95.187682
26928		9.341432	-0.413055	1.538071	0.567978	0.560900	-0.370158	0.005464	-0.244405	0.096267	-0.874268	-0.208252	-0.614014	0.093397	-0.004086	0.015495	-0.490592	-0.499683	0.384598	-0.601433	7.691930	-78.073140	95.351257
26929		8.833043	-0.392539	1.502469	0.542458	0.461401	-0.872501	-0.009508	-0.227460	0.191034	-0.875244	-0.200195	-0.612305	0.088317	-0.003840	0.015125	-0.489659	-0.499956	0.385704	-0.601257	7.259323	-78.217884	95.777736
26930		8.611879	-0.516802	1.599761	0.676796	0.329737	-1.070608	0.020288	-0.183459	0.220234	-0.884521	-0.200684	-0.613770	0.086110	-0.005075	0.016076	-0.488595	-0.500145	0.386641	-0.601364	6.737233	-78.338832	96.322867
26931		8.614657	-0.548499	1.783347	0.734390	0.145519	-1.030150	0.009418	-0.114717	0.202852	-0.885986	-0.198486	-0.614502	0.086142	-0.005398	0.017883	-0.487796	-0.500100	0.387443	-0.601534	6.226261	-78.418583	96.840049
26932		8.785505	-0.690374	1.886894	0.878021	0.101342	-0.843804	-0.027579	-0.061202	0.163653	-0.880127	-0.202393	-0.608643	0.087855	-0.006829	0.018897	-0.487257	-0.499913	0.388083	-0.601714	5.780632	-78.464534	97.278824
26933		9.047859	-0.843832	1.898938	1.012764	0.167085	-0.586196	-0.033075	-0.071815	0.113089	-0.876709	-0.194336	-0.608643	0.090477	-0.008384	0.019023	-0.486916	-0.499808	0.388683	-0.601689	5.473863	-78.513187	97.562567
26934		9.400018	-0.948230	1.821832	1.082447	0.322379	-0.257432	-0.019050	-0.125245	0.056232	-0.881836	-0.192383	-0.603271	0.093991	-0.009454	0.018278	-0.486554	-0.500042	0.389185	-0.601463	5.346204	-78.588953	97.681733
26935		9.821312	-1.081775	1.877303	1.213642	0.368194	0.164495	-0.022155	-0.138139	0.009744	-0.895996	-0.196533	-0.604004	0.098201	-0.010811	0.018842	-0.486315	-0.500398	0.389611	-0.601085	5.351514	-78.669639	97.663383
26936		9.988238	-1.090153	1.992169	1.245127	0.282526	0.350575	-0.004701	-0.063807	-0.004546	-0.878174	-0.187988	-0.606201	0.099876	-0.010903	0.019954	-0.486219	-0.500601	0.389768	-0.600892	5.387210	-78.707082	97.624285
26937		9.626784	-1.287515	1.826665	1.410487	0.413074	-0.039803	0.004622	0.040451	0.007906	-0.882568	-0.188232	-0.605225	0.096272	-0.012872	0.018247	-0.486265	-0.500488	0.389675	-0.601008	5.365318	-78.685796	97.649334
26938		9.334905	-1.086132	1.714803	1.194605	0.424575	-0.344143	0.105571	0.092556	0.035922	-0.886230	-0.196533	-0.608643	0.093359	-0.010854	0.017099	-0.486076	-0.500410	0.389222	-0.601520	5.307314	-78.636200	97.770235
26939		9.003259	-0.967288	1.509608	1.036686	0.538389	-0.707269	0.135137	0.104978	0.074663	-0.885254	-0.199951	-0.611816	0.090044	-0.009649	0.015042	-0.485721	-0.500291	0.388746	-0.602214	5.154745	-78.581575	98.004885
26940		8.765456	-0.873425	1.264680	0.888202	0.712463	-0.986647	0.202087	0.082714	0.128745	-0.885010	-0.192871	-0.604736	0.087665	-0.008691	0.012602	-0.484991	-0.500295	0.388257	-0.603113	4.895025	-78.542125	98.388052
26941		8.586921	-0.632398	1.119568	0.614636	0.764703	-1.185637	0.225178	0.030281	0.168778	-0.881348	-0.194092	-0.609375	0.085876	-0.006264	0.011176	-0.484033	-0.500401	0.387970	-0.603979	4.550126	-78.534194	98.861651
26942		8.534324	-0.429737	1.059655	0.392367	0.763343	-1.244982	0.191697	-0.018396	0.193089	-0.883545	-0.191162	-0.603516	0.085346	-0.004225	0.010600	-0.482937	-0.500558	0.387917	-0.604759	4.127625	-78.554393	99.404857
26943		8.595680	-0.127482	1.023677	0.074747	0.732206	-1.186672	0.164064	-0.077923	0.201702	-0.889648	-0.195801	-0.612549	0.085954	-0.001197	0.010269	-0.481820	-0.500778	0.388157	-0.605313	3.674109	-78.608234	99.953467
26944		8.690848	0.001211	0.928159	-0.087858	0.798854	-1.109446	0.142211	-0.139012	0.179260	-0.886963	-0.204102	-0.608887	0.086902	0.000083	0.009342	-0.480655	-0.501206	0.388509	-0.605660	3.276902	-78.695306	100.441751
26945		8.955307	0.063944	0.859037	-0.183394	0.884893	-0.861550	0.149924	-0.157177	0.144600	-0.880859	-0.191650	-0.604248	0.089546	0.000698	0.008661	-0.479591	-0.501741	0.388838	-0.605849	2.980187	-78.791221	100.821917
26946		9.178593	-0.175773	0.823919	0.027831	1.003066	-0.650298	0.181646	-0.132100	0.082070	-0.891602	-0.205811	-0.601074	0.091781	-0.001728	0.008298	-0.478632	-0.502430	0.388809	-0.606055	2.874136	-78.870570	101.036150
26947		9.233769	-0.175858	0.714464	-0.000024	1.108466	-0.616211	0.249298	-0.066778	0.011387	-0.883545	-0.188965	-0.602295	0.092335	-0.001762	0.007173	-0.477897	-0.503186	0.388285	-0.606344	3.002173	-78.910612	101.041275
26948		9.162233	-0.079794	0.669252	-0.096894	1.112939	-0.693874	0.309931	0.002000	-0.049965	-0.886963	-0.199219	-0.596436	0.091622	-0.000831	0.006690	-0.477275	-0.504030	0.387214	-0.606818	3.333489	-78.909238	100.884662
26949		8.979186	-0.030881	0.715884	-0.117509	1.026680	-0.864429	0.333922	0.052295	-0.106738	-0.893799	-0.204834	-0.597656	0.089794	-0.000369	0.007135	-0.476914	-0.504854	0.385850	-0.607285	3.834618	-78.877011	100.558968
26950		8.937854	0.338947	0.965547	-0.400078	0.698489	-0.852529	0.347220	0.071880	-0.152830	-0.885742	-0.208252	-0.593506	0.089385	0.003304	0.009629	-0.476642	-0.505771	0.384237	-0.607758	4.470000	-78.830918	100.114188
26951		9.138451	0.554792	0.970735	-0.597818	0.687595	-0.651290	0.300947	0.076976	-0.181806	-0.890137	-0.203125	-0.594727	0.091393	0.005450	0.009680	-0.476636	-0.506583	0.382722	-0.608042	5.156791	-78.779715	99.579913
26952		9.232195	0.712249	0.943036	-0.741997	0.704452	-0.561570	0.261103	0.121260	-0.204230	-0.885986	-0.217529	-0.595459	0.092335	0.007016	0.009384	-0.476830	-0.507240	0.381121	-0.608349	5.866283	-78.700605	99.009083
26953		9.366067	0.787394	0.976197	-0.792050	0.696669	-0.422085	0.210861	0.162847	-0.211093	-0.882080	-0.210693	-0.598877	0.093677	0.007765	0.009694	-0.477303	-0.507630	0.379599	-0.608604	6.544447	-78.596231	98.430649
26954		9.533285	0.630694	1.046251	-0.610527	0.722743	-0.248129	0.121343	0.168025	-0.203008	-0.880127	-0.223389	-0.599609	0.095348	0.006204	0.010386	-0.477934	-0.507806	0.378312	-0.608763	7.135561	-78.488037	97.898505
26955		9.636071	0.383202	1.201216	-0.318997	0.681321	-0.123642	0.084654	0.188799	-0.191347	-0.867676	-0.223389	-0.592773	0.096376	0.003735	0.011923	-0.478714	-0.507776	0.377161	-0.608889	7.655734	-78.368082	97.407079
26956		9.736059	0.083602	1.473300	0.050835	0.541881	0.019515	0.049727	0.160909	-0.156093	-0.876953	-0.224121	-0.608398	0.097373	0.000756	0.014655	-0.479369	-0.507712	0.376227	-0.609005	8.060031	-78.265743	97.023374
26957		9.927101	-0.341752	1.706905	0.528312	0.484996	0.240337	0.022775	0.098338	-0.129401	-0.874268	-0.223145	-0.607178	0.099277	-0.003484	0.017020	-0.479946	-0.507692	0.375637	-0.608931	8.395305	-78.200787	96.684275
26958		10.240514	-0.734955	1.835975	0.944070	0.537682	0.560292	0.035886	0.042363	-0.100946	-0.880859	-0.227051	-0.606201	0.102405	-0.007405	0.018337	-0.480245	-0.507851	0.375169	-0.608851	8.680358	-78.169393	96.414110
26959		10.321471	-0.936200	1.789938	1.133579	0.658186	0.622584	0.090639	0.074343	-0.082831	-0.872314	-0.226563	-0.605225	0.103217	-0.009413	0.017857	-0.480409	-0.508012	0.374504	-0.608997	8.933220	-78.121445	96.208831
26960		10.071475	-1.132534	1.585055	1.281035	0.865718	0.328274	0.108118	0.161441	-0.055014	-0.866455	-0.225098	-0.608887	0.100724	-0.011362	0.015763	-0.480607	-0.507896	0.373646	-0.609465	9.082253	-78.026333	96.119874
26961		9.678083	-1.154327	1.208256	1.213800	1.166958	-0.136815	0.139792	0.226552	-0.036266	-0.871826	-0.231689	-0.609863	0.096792	-0.011569	0.011965	-0.480788	-0.507622	0.372583	-0.610200	9.170354	-77.896286	96.111717
26962		9.240447	-0.929426	0.810502	0.900462	1.415639	-0.642535	0.158199	0.237735	-0.012868	-0.869629	-0.229736	-0.614014	0.092413	-0.009307	0.007988	-0.480872	-0.507314	0.371495	-0.611054	9.202020	-77.761820	96.172099
26963		8.853442	-0.697120	0.429253	0.581457	1.651237	-1.095522	0.174145	0.166577	0.012315	-0.867676	-0.230469	-0.616943	0.088538	-0.006969	0.004213	-0.480757	-0.507182	0.370638	-0.611773	9.207778	-77.670170	96.258380
26964		8.856213	-0.598235	0.437186	0.483809	1.628620	-1.089440	0.109211	0.069503	0.039061	-0.871582	-0.235596	-0.611328	0.088565	-0.005967	0.004338	-0.480492	-0.507172	0.370235	-0.612233	9.148383	-77.635604	96.383286
26965		8.957057	-0.822482	1.034753	0.851352	1.148135	-0.872159	0.005488	-0.018351	0.071276	-0.865967	-0.229736	-0.621094	0.089573	-0.008193	0.010356	-0.480282	-0.507092	0.370488	-0.612312	8.982932	-77.653891	96.545942
26966		9.240978	-0.716703	1.842103	0.950768	0.413096	-0.419708	-0.012992	-0.108623	0.099673	-0.869141	-0.234863	-0.602783	0.092403	-0.007120	0.018472	-0.479812	-0.507221	0.371040	-0.612239	8.768911	-77.725380	96.757433
26967		9.754395	-0.293245	2.245107	0.629354	0.014371	0.181230	0.003377	-0.163320	0.138116	-0.859131	-0.233154	-0.600586	0.097528	-0.002865	0.022531	-0.479079	-0.507487	0.371772	-0.612149	8.482320	-77.831261	97.052719
26968		10.869564	-0.016326	2.131466	0.292096	0.265073	1.256875	0.026471	-0.078623	0.167904	-0.867920	-0.222656	-0.597900	0.108687	-0.000075	0.021357	-0.478355	-0.507491	0.372304	-0.612388	8.093124	-77.890909	97.466380
26969		11.807877	0.272983	2.060225	-0.051986	0.448432	2.168179	0.116443	0.139267	0.225365	-0.872559	-0.225098	-0.606689	0.118090	0.002851	0.020522	-0.477683	-0.506905	0.372231	-0.613441	7.522491	-77.830922	98.108391
26970		12.216860	0.730735	2.152125	-0.511036	0.339037	2.598640	0.178773	0.231435	0.256632	-0.865967	-0.228516	-0.603760	0.122184	0.007445	0.021386	-0.476876	-0.506157	0.371778	-0.614960	6.882760	-77.719035	98.867821
26971		12.331434	1.070946	2.147947	-0.876344	0.293777	2.716098	0.144506	0.225252	0.241553	-0.871338	-0.230713	-0.610596	0.123325	0.010843	0.021348	-0.476241	-0.505341	0.371452	-0.616319	6.276802	-77.608248	99.562918
26972		11.711056	0.740934	2.447693	-0.487505	-0.011547	2.164421	0.052320	0.229075	0.222585	-0.867432	-0.225342	-0.605469	0.117130	0.007533	0.024345	-0.475851	-0.504358	0.371306	-0.617511	5.677957	-77.492262	100.206933
26973		10.342114	0.064898	2.505389	0.206257	-0.161858	0.825533	0.074236	0.103658	0.181504	-0.860107	-0.212402	-0.604004	0.103433	0.000734	0.025001	-0.475351	-0.503860	0.371332	-0.618287	5.236681	-77.444632	100.692641
26974		9.314792	-0.292555	2.429090	0.556848	-0.216803	-0.200492	0.034838	-0.118928	0.151080	-0.866211	-0.221191	-0.602051	0.093136	-0.002859	0.024346	-0.474579	-0.504042	0.371887	-0.618398	4.902850	-77.521454	101.055098
26975		8.653717	-0.717687	2.238085	0.933865	-0.084236	-0.894636	-0.094259	-0.300975	0.140069	-0.859375	-0.221436	-0.604492	0.086508	-0.007106	0.022514	-0.473825	-0.504502	0.373246	-0.617783	4.556725	-77.701548	101.354212
26976		8.364920	-0.797150	2.273362	1.026443	-0.190689	-1.170614	-0.211709	-0.398310	0.129705	-0.863770	-0.221924	-0.600098	0.083609	-0.007893	0.022909	-0.473217	-0.505000	0.375168	-0.616676	4.180293	-77.936079	101.615271
26977		8.736213	-1.057404	2.156098	1.223658	0.023773	-0.835482	-0.287596	-0.428522	0.153569	-0.874756	-0.222900	-0.605225	0.087324	-0.010476	0.021763	-0.472720	-0.505333	0.377500	-0.615361	3.687386	-78.188687	101.940723
26978		9.449883	-1.191360	2.045981	1.284858	0.261289	-0.159379	-0.173644	-0.404634	0.188167	-0.883301	-0.223145	-0.600586	0.094468	-0.011807	0.020661	-0.471818	-0.505824	0.379464	-0.614441	3.142398	-78.427883	102.395709
26979		10.114159	-0.955807	2.379219	1.104996	-0.031838	0.562680	-0.078041	-0.387621	0.247420	-0.873291	-0.211914	-0.590576	0.101107	-0.009424	0.023992	-0.470573	-0.506341	0.381287	-0.613841	2.460057	-78.658294	103.036395
26980		10.693376	-0.546687	2.890818	0.799708	-0.561962	1.234864	-0.034046	-0.387192	0.343216	-0.886963	-0.207764	-0.584473	0.106887	-0.005278	0.029116	-0.468869	-0.506806	0.383169	-0.613588	1.496983	-78.888189	103.998419
26981		11.068624	0.064229	3.775711	0.394181	-1.543876	1.773306	-0.009776	-0.354150	0.459932	-0.875732	-0.194824	-0.579834	0.110617	0.000899	0.037953	-0.466857	-0.506967	0.385238	-0.613694	0.159120	-79.096609	105.345706
26982		11.729176	0.240718	4.674928	0.379172	-2.374957	2.584963	-0.042414	-0.288457	0.583076	-0.884033	-0.192871	-0.583252	0.117216	0.002759	0.046918	-0.464621	-0.506640	0.387517	-0.614227	-1.615792	-79.259100	107.128059
26983		12.236747	0.554054	5.341513	0.156236	-3.044663	3.198144	0.022057	-0.099778	0.699803	-0.890137	-0.193848	-0.578369	0.122320	0.005963	0.053477	-0.462275	-0.505618	0.389496	-0.615585	-3.725916	-79.299264	109.278543
26984		11.954913	0.860378	5.409597	-0.188130	-3.262327	2.924857	0.100544	0.165118	0.803026	-0.891846	-0.192383	-0.583008	0.119558	0.009057	0.054002	-0.459870	-0.503787	0.390830	-0.618037	-6.029595	-79.167414	111.682180
26985		11.398494	1.039952	4.958392	-0.537020	-2.974436	2.289226	0.212076	0.415925	0.882440	-0.886230	-0.182373	-0.581299	0.114041	0.010850	0.049358	-0.457472	-0.501239	0.391480	-0.621468	-8.333562	-78.869486	114.142990
26986		10.640142	0.699868	4.250889	-0.436320	-2.317550	1.421642	0.308570	0.586322	0.917097	-0.882080	-0.168457	-0.591553	0.106492	0.007422	0.042208	-0.454992	-0.498333	0.391471	-0.625617	-10.462340	-78.453838	116.494483
26987		9.921498	-0.110335	3.558153	0.123836	-1.525174	0.616423	0.411002	0.672676	0.920035	-0.888184	-0.175293	-0.593994	0.099338	-0.000719	0.035246	-0.452456	-0.495333	0.390983	-0.630128	-12.333149	-77.973577	118.636162
26988		9.059765	-1.030718	3.111104	0.881993	-0.954389	-0.266423	0.524174	0.632860	0.909663	-0.880859	-0.166016	-0.602539	0.090741	-0.009976	0.030798	-0.449524	-0.492751	0.390144	-0.634754	-13.982968	-77.503529	120.631862
26989		8.570612	-1.778988	3.084351	1.566209	-0.764163	-0.696991	0.529896	0.431828	0.862754	-0.876953	-0.166260	-0.607422	0.085848	-0.017501	0.030612	-0.446374	-0.490861	0.389654	-0.638730	-15.519730	-77.140211	122.508322
26990		8.449480	-2.178602	2.783605	1.813250	-0.364306	-0.842315	0.544819	0.160406	0.777563	-0.875000	-0.161133	-0.600830	0.084601	-0.021533	0.027709	-0.442864	-0.490058	0.389458	-0.641901	-16.949280	-76.929203	124.295638
26991		8.823182	-2.423176	2.728143	1.932466	-0.168118	-0.463878	0.512019	-0.144045	0.645126	-0.880371	-0.158691	-0.598145	0.088290	-0.024017	0.027283	-0.439313	-0.490373	0.389753	-0.643918	-18.274903	-76.897870	125.947897
26992		9.983404	-2.232844	2.728379	1.565644	-0.036291	0.658478	0.473515	-0.346185	0.440694	-0.887939	-0.155029	-0.601318	0.099836	-0.022173	0.027404	-0.436059	-0.491679	0.390066	-0.644944	-19.306491	-77.006176	127.285367
26993		11.359179	-1.747428	2.210809	0.750323	0.511077	1.855555	0.322192	-0.214343	0.221414	-0.888672	-0.157227	-0.592285	0.113587	-0.017384	0.022202	-0.434193	-0.492619	0.390080	-0.645477	-19.816754	-77.081302	127.988465
26994		11.382029	-0.687807	1.674020	-0.422346	0.673731	1.684864	0.274046	0.137425	0.053494	-0.890137	-0.159912	-0.594727	0.113834	-0.006870	0.016653	-0.433616	-0.492679	0.389027	-0.646454	-19.665346	-76.998709	127.994272
26995		10.687428	0.203462	1.981224	-1.079179	0.003798	1.005031	0.247288	0.307519	-0.047102	-0.882324	-0.165527	-0.597900	0.106905	0.001985	0.019650	-0.433815	-0.492291	0.387486	-0.647540	-19.158620	-76.843401	127.609625
26996		10.084312	1.269534	2.272610	-1.909242	-0.686147	0.402680	0.349968	0.325610	-0.114018	-0.878174	-0.166016	-0.607422	0.100887	0.012598	0.022584	-0.433956	-0.492229	0.385364	-0.648758	-18.435279	-76.689692	127.072590
26997		9.586620	2.259075	2.460850	-2.702782	-1.243758	-0.106482	0.432788	0.297587	-0.153785	-0.874756	-0.160156	-0.606445	0.095920	0.022464	0.024515	-0.434020	-0.492478	0.382976	-0.649939	-17.609320	-76.556654	126.468583
26998		9.206196	2.860090	2.471192	-3.193302	-1.497559	-0.506721	0.489408	0.282206	-0.181594	-0.876709	-0.182861	-0.611572	0.092123	0.028457	0.024652	-0.433948	-0.492982	0.380323	-0.651163	-16.711952	-76.434683	125.834134
26999		8.808111	3.159439	2.216533	-3.477733	-1.414259	-0.959267	0.482885	0.314805	-0.210881	-0.878662	-0.179932	-0.610107	0.088149	0.031448	0.022103	-0.434101	-0.493383	0.377589	-0.652347	-15.744999	-76.297077	125.113865
27000		8.524120	3.290275	1.914911	-3.636294	-1.210488	-1.300026	0.399780	0.337873	-0.239634	-0.873047	-0.184326	-0.607666	0.085313	0.032762	0.019071	-0.434536	-0.493613	0.374957	-0.653400	-14.763493	-76.148221	124.339179
27001		8.217961	3.267712	1.710869	-3.620805	-1.047776	-1.631505	0.239325	0.315628	-0.265020	-0.869385	-0.189697	-0.614258	0.082250	0.032548	0.017018	-0.435462	-0.493579	0.372876	-0.654000	-13.847801	-76.012354	123.527138
27002		8.029023	2.737306	1.436818	-3.169636	-0.625143	-1.838666	0.079621	0.245663	-0.292649	-0.867188	-0.197021	-0.614258	0.080348	0.027250	0.014280	-0.436684	-0.493507	0.371357	-0.654105	-13.014361	-75.916148	122.715125
27003		7.930871	2.108556	1.400231	-2.561561	-0.371442	-1.900309	-0.025888	0.151579	-0.318600	-0.872803	-0.197754	-0.617920	0.079353	0.020961	0.013939	-0.438131	-0.493527	0.370365	-0.653683	-12.239610	-75.873125	121.891109
27004		8.005846	1.437977	1.664777	-1.837100	-0.351061	-1.723522	-0.076560	0.052681	-0.332735	-0.865234	-0.200195	-0.626709	0.080087	0.014253	0.016621	-0.439509	-0.493816	0.369676	-0.652930	-11.512391	-75.884543	121.096050
27005		8.180399	1.005069	1.717677	-1.412676	-0.205152	-1.515596	-0.083798	-0.046375	-0.322158	-0.860596	-0.203857	-0.617676	0.081816	0.009926	0.017192	-0.440742	-0.494360	0.369297	-0.651900	-10.853713	-75.948198	120.357508
27006		8.283238	0.836182	1.602450	-1.279320	-0.016996	-1.431632	-0.096265	-0.094752	-0.292327	-0.863281	-0.197998	-0.623291	0.082837	0.008248	0.016060	-0.441761	-0.495009	0.369096	-0.650831	-10.283834	-76.033982	119.713365
27007		8.319156	0.765752	1.573507	-1.205056	0.042227	-1.397422	-0.119347	-0.078303	-0.243636	-0.874512	-0.204102	-0.618164	0.083195	0.007566	0.015763	-0.442766	-0.495431	0.369095	-0.649827	-9.823953	-76.104288	119.159076
27008		8.337052	0.671601	1.514623	-1.121578	0.134229	-1.387985	-0.179700	-0.016319	-0.182484	-0.877197	-0.209961	-0.611572	0.083375	0.006654	0.015147	-0.443778	-0.495436	0.369262	-0.649038	-9.511039	-76.132739	118.730741
27009		8.384353	0.761090	1.410691	-1.235903	0.216556	-1.369209	-0.240456	0.060944	-0.121236	-0.874512	-0.209961	-0.623535	0.083852	0.007577	0.014072	-0.444939	-0.494911	0.369647	-0.648424	-9.342453	-76.111513	118.405328
27010		8.442600	0.813341	1.378339	-1.301449	0.251742	-1.322594	-0.316598	0.116792	-0.058505	-0.867920	-0.206787	-0.621094	0.084436	0.008130	0.013721	-0.446131	-0.493948	0.370267	-0.647985	-9.341356	-76.052593	118.217366
27011		8.437619	0.766778	1.151582	-1.333629	0.487865	-1.381145	-0.411994	0.159941	0.004244	-0.864502	-0.194580	-0.613281	0.084385	0.007693	0.011433	-0.447491	-0.492484	0.371296	-0.647573	-9.520801	-75.963600	118.149128
27012		8.355109	0.649462	0.935178	-1.290831	0.721453	-1.511035	-0.484203	0.171961	0.044362	-0.866455	-0.190918	-0.633301	0.083558	0.006536	0.009264	-0.448861	-0.490773	0.372586	-0.647182	-9.827020	-75.863879	118.178863
27013		8.087783	0.466326	0.746010	-1.157302	0.910215	-1.811541	-0.544529	0.179062	0.081098	-0.863525	-0.193115	-0.626709	0.080883	0.004716	0.007375	-0.450329	-0.488800	0.374185	-0.646733	-10.243633	-75.756594	118.276611
27014		7.809203	0.424953	0.766027	-1.094656	0.854996	-2.078237	-0.550468	0.142916	0.097070	-0.866699	-0.184570	-0.635986	0.078095	0.004308	0.007593	-0.451629	-0.486928	0.375878	-0.646257	-10.710392	-75.667654	118.432857
27015		7.765860	0.454459	0.776475	-1.128273	0.832027	-2.121606	-0.569004	0.038834	0.099235	-0.864746	-0.181641	-0.633057	0.077658	0.004605	0.007737	-0.452827	-0.485311	0.377910	-0.645450	-11.232447	-75.636864	118.625142
27016		7.916705	0.397931	0.757016	-1.109423	0.897658	-1.978849	-0.590643	-0.062367	0.091734	-0.860596	-0.173096	-0.635742	0.079163	0.004038	0.007583	-0.453848	-0.484012	0.380177	-0.644375	-11.795283	-75.663103	118.856845
27017		8.438925	0.339419	0.692701	-1.142617	1.078629	-1.485535	-0.598016	-0.144692	0.085570	-0.860107	-0.161133	-0.630127	0.084383	0.003451	0.006978	-0.454804	-0.482937	0.382679	-0.643025	-12.388628	-75.735805	119.105407
27018		8.972129	0.221712	0.925002	-1.038513	0.996693	-0.905839	-0.598989	-0.162875	0.078172	-0.867432	-0.165039	-0.638428	0.089713	0.002280	0.009316	-0.455688	-0.481960	0.385161	-0.641649	-12.980391	-75.818753	119.361885
27019		9.570079	0.188549	1.303101	-0.985657	0.764209	-0.233310	-0.522530	-0.153577	0.070074	-0.871338	-0.157227	-0.628174	0.095690	0.001953	0.013099	-0.456488	-0.481105	0.387398	-0.640375	-13.509659	-75.897155	119.588606
27020		10.117408	0.288730	1.623738	-1.072088	0.535176	0.367981	-0.426615	-0.136158	0.063574	-0.873535	-0.147217	-0.624756	0.101162	0.002954	0.016300	-0.457049	-0.480457	0.389225	-0.639352	-13.964610	-75.966048	119.805685
27021		10.479995	0.035552	1.555284	-0.898820	0.731623	0.718566	-0.325421	-0.101233	0.057459	-0.865234	-0.144043	-0.626709	0.104792	0.000411	0.015605	-0.457510	-0.479904	0.390677	-0.638551	-14.330862	-76.016333	119.980697
27022		10.773121	-0.368953	1.440234	-0.581763	0.998872	1.000930	-0.245724	-0.101695	0.049297	-0.868896	-0.159180	-0.635254	0.107725	-0.003645	0.014462	-0.457747	-0.479584	0.391811	-0.637927	-14.635761	-76.067460	120.149850
27023		11.003521	-0.998636	1.200180	-0.067855	1.426081	1.208965	-0.203015	-0.185296	0.030715	-0.871094	-0.144775	-0.624512	0.110026	-0.009957	0.012114	-0.457833	-0.479630	0.392998	-0.637100	-14.925148	-76.167659	120.317900
27024		11.514169	-1.338657	0.974391	0.144163	1.808374	1.677589	-0.159357	-0.268252	0.003852	-0.870605	-0.145752	-0.620605	0.115129	-0.013377	0.009909	-0.457679	-0.480125	0.394128	-0.636140	-15.183661	-76.317295	120.490099
27025		11.495489	-1.325736	0.672037	0.065690	2.056879	1.594344	-0.153572	-0.207426	-0.006431	-0.872559	-0.148926	-0.619629	0.114947	-0.013256	0.006850	-0.457720	-0.480426	0.395117	-0.635269	-15.381082	-76.435040	120.592460
27026		10.884020	-1.062472	0.232973	-0.218296	2.256768	0.887983	-0.204854	-0.112510	-0.002771	-0.872559	-0.137451	-0.625000	0.108839	-0.010624	0.002402	-0.458001	-0.480333	0.396018	-0.634575	-15.558971	-76.499386	120.654756
27027		10.304316	-0.553355	-0.178806	-0.737917	2.376900	0.203445	-0.298792	-0.154789	0.046127	-0.879639	-0.136719	-0.620117	0.103046	-0.005512	-0.001700	-0.458326	-0.480028	0.397473	-0.633661	-15.931847	-76.579719	120.851867
27028		10.218555	0.180757	0.595250	-1.249523	1.416835	0.248977	-0.368454	-0.168442	0.113781	-0.874512	-0.129150	-0.619141	0.102179	0.001877	0.006035	-0.458517	-0.479503	0.399298	-0.632772	-16.514883	-76.655982	121.234227
27029		9.712441	0.262421	1.881241	-0.971187	0.058767	0.035801	-0.447207	-0.194327	0.153332	-0.875488	-0.128418	-0.624756	0.097104	0.002741	0.018901	-0.458776	-0.478764	0.401568	-0.631706	-17.258676	-76.739224	121.724787
27030		9.948665	0.163618	2.108151	-0.864396	-0.118862	0.320700	-0.435047	-0.405287	0.121223	-0.878906	-0.122559	-0.623291	0.099443	0.001743	0.021279	-0.458621	-0.478815	0.404159	-0.630126	-18.088104	-76.941229	122.320648
27031		11.200733	-0.366101	2.148514	-0.500837	0.168219	1.585874	-0.566276	-0.403741	0.022211	-0.883789	-0.122803	-0.615723	0.111964	-0.003587	0.021721	-0.459150	-0.478719	0.406963	-0.628006	-18.778212	-77.158842	122.685363
27032		11.823156	-1.587218	2.467243	0.679980	0.244721	2.347545	-0.619749	-0.146335	-0.135433	-0.881592	-0.125244	-0.618408	0.118203	-0.015875	0.024808	-0.460761	-0.478042	0.408918	-0.626068	-18.924754	-77.265117	122.471562
27033		12.256305	-2.552228	2.657813	1.625207	0.357452	2.876902	-0.446444	-0.034210	-0.327450	-0.877930	-0.125488	-0.615479	0.122517	-0.025663	0.026656	-0.462841	-0.477768	0.409651	-0.624261	-18.414075	-77.345986	121.675758
27034		12.575145	-2.869052	3.202082	2.062797	-0.032483	3.316003	-0.128228	-0.064301	-0.529802	-0.875488	-0.124512	-0.611084	0.125665	-0.029003	0.032080	-0.464670	-0.478769	0.408933	-0.622604	-17.239459	-77.475835	120.396981
27035		12.395735	-2.383326	4.107531	1.883339	-1.034195	3.286515	0.066634	0.004623	-0.691275	-0.875000	-0.122314	-0.609619	0.123875	-0.024275	0.041064	-0.466727	-0.480300	0.407099	-0.621086	-15.473443	-77.587022	118.617339
27036		11.220623	-2.108350	4.258100	1.856682	-1.431873	2.144763	0.134411	0.201113	-0.777117	-0.877686	-0.135010	-0.612549	0.112166	-0.021548	0.042454	-0.469226	-0.481580	0.404342	-0.620012	-13.301498	-77.587817	116.472328
27037		9.284620	-1.781207	4.628228	1.882291	-2.183418	0.310867	0.155224	0.391354	-0.786946	-0.873779	-0.145508	-0.619873	0.092865	-0.018213	0.046087	-0.472137	-0.482297	0.401087	-0.619359	-11.000562	-77.465560	114.196612
27038		7.575774	-1.347192	4.824200	1.715990	-2.753788	-1.330250	0.104271	0.496500	-0.764902	-0.864746	-0.152832	-0.622314	0.075825	-0.013787	0.048047	-0.475248	-0.482548	0.397742	-0.618941	-8.791170	-77.262281	111.993672
27039		6.013919	-1.028111	4.690462	1.548627	-2.969611	-2.883941	0.009531	0.567237	-0.751406	-0.859863	-0.157959	-0.631104	0.060233	-0.010510	0.046733	-0.478731	-0.482284	0.394589	-0.618480	-6.719715	-77.000169	109.864428
27040		4.824268	-0.632411	4.693964	1.287567	-3.276262	-4.040780	-0.025780	0.452389	-0.759438	-0.864502	-0.168701	-0.631592	0.048324	-0.006501	0.046831	-0.482033	-0.482330	0.391750	-0.617684	-4.757547	-76.787329	107.834680
27041		4.318092	0.095966	4.567390	0.614398	-3.409529	-4.567335	-0.048026	0.140585	-0.766919	-0.850830	-0.166748	-0.633789	0.043216	0.000805	0.045643	-0.484847	-0.483260	0.389748	-0.616020	-2.891356	-76.737957	105.879291
27042		4.811227	1.098886	4.548457	-0.367467	-3.505314	-4.101158	-0.165411	-0.289357	-0.768108	-0.859619	-0.171143	-0.634033	0.048088	0.010842	0.045545	-0.487047	-0.485255	0.389099	-0.613118	-1.124995	-76.920584	103.967940
27043		5.943570	1.138595	4.217922	-0.506099	-2.971001	-3.079924	-0.399094	-0.688278	-0.747535	-0.872314	-0.177734	-0.616699	0.059332	0.011248	0.042361	-0.489019	-0.487820	0.390222	-0.608785	0.517758	-77.318770	102.038117
27044		7.634998	0.385307	3.900008	0.126812	-2.193554	-1.516706	-0.634392	-0.996505	-0.752884	-0.874512	-0.180664	-0.606445	0.076169	0.003691	0.039368	-0.490904	-0.490772	0.392742	-0.603249	2.184190	-77.880890	99.959801
27045		10.305044	-0.490892	4.383919	1.049279	-2.014427	1.164245	-0.745148	-1.142907	-0.815963	-0.875732	-0.181885	-0.611572	0.102777	-0.005164	0.044446	-0.492989	-0.493957	0.395823	-0.596902	4.173593	-78.510458	97.481363
27046		13.379290	-1.548098	4.222190	2.071024	-1.165782	4.100542	-0.725036	-1.014088	-0.906941	-0.878662	-0.193115	-0.596436	0.133505	-0.015932	0.042957	-0.495468	-0.496990	0.398234	-0.590696	6.649974	-79.041352	94.533279
27047		15.293216	-1.917467	2.895241	2.279091	0.442571	5.696967	-0.439662	-0.539339	-0.897342	-0.887451	-0.191650	-0.592041	0.152765	-0.019796	0.029408	-0.498184	-0.499251	0.398674	-0.586191	9.291252	-79.277290	91.577562
27048		15.253811	-1.690209	1.104547	1.847897	2.087686	5.319440	-0.128422	-0.080252	-0.768677	-0.877441	-0.198975	-0.587402	0.152467	-0.017481	0.011118	-0.500597	-0.500707	0.397328	-0.583803	11.554838	-79.243967	89.198792
27049		14.035843	-1.320187	0.334662	1.430078	2.572388	3.978494	0.134647	0.401967	-0.561962	-0.880859	-0.198975	-0.593994	0.140327	-0.013598	0.003055	-0.502749	-0.500964	0.394562	-0.583609	13.021115	-78.951494	87.774159
27050		11.945924	-0.729694	0.580992	0.927674	1.902185	1.981192	0.295974	0.629863	-0.329661	-0.875732	-0.208740	-0.609375	0.119464	-0.007502	0.005423	-0.504212	-0.500529	0.391286	-0.584925	13.704659	-78.557770	87.250191
27051		10.264369	-0.185235	0.944504	0.463648	1.185402	0.417820	0.308915	0.486813	-0.137987	-0.873779	-0.208252	-0.607910	0.102665	-0.001938	0.009192	-0.504847	-0.500131	0.388851	-0.586339	13.940547	-78.269078	87.180050
27052		9.620872	-0.132801	1.111474	0.440853	0.923034	-0.181084	0.201562	0.255772	-0.003552	-0.880127	-0.208984	-0.608643	0.096223	-0.001341	0.010990	-0.504852	-0.499909	0.387605	-0.587348	13.905528	-78.127378	87.333856
27053		9.311642	-0.150323	1.362052	0.498939	0.642896	-0.436005	0.188554	0.192040	0.087333	-0.866455	-0.205811	-0.608154	0.093130	-0.001475	0.013530	-0.504551	-0.499631	0.386827	-0.588355	13.668358	-78.033533	87.676674
27054		9.016641	-0.266275	1.786183	0.683183	0.217053	-0.644958	0.167554	0.270978	0.125449	-0.870605	-0.218262	-0.614502	0.090192	-0.002621	0.017737	-0.504289	-0.499026	0.385963	-0.589659	13.275344	-77.900334	88.176727
27055		8.828256	-0.258389	1.967376	0.696899	0.031025	-0.791119	0.166183	0.400363	0.120929	-0.861816	-0.217285	-0.618408	0.088323	-0.002547	0.019495	-0.504344	-0.498010	0.384807	-0.591225	12.827897	-77.693616	88.721971
27056		8.674579	-0.274130	2.220271	0.748170	-0.200698	-0.887843	0.142788	0.530214	0.098415	-0.867188	-0.220215	-0.624268	0.086806	-0.002714	0.021971	-0.504719	-0.496624	0.383291	-0.593053	12.368462	-77.410507	89.276296
27057		8.535584	-0.500405	2.196973	0.951207	-0.117317	-1.036896	0.129216	0.561503	0.070376	-0.863525	-0.214600	-0.624756	0.085419	-0.004988	0.021727	-0.505318	-0.495128	0.381706	-0.594812	11.976725	-77.105643	89.743904
27058		8.534575	-0.711710	2.084217	1.124639	0.078964	-1.070935	0.184884	0.516554	0.038450	-0.856445	-0.212891	-0.633301	0.085401	-0.007120	0.020615	-0.505733	-0.493997	0.379945	-0.596526	11.734706	-76.821613	90.101109
27059		8.763966	-1.035474	1.984681	1.414598	0.334825	-0.884927	0.243300	0.452336	0.009721	-0.853027	-0.218506	-0.642090	0.087685	-0.010374	0.019636	-0.506016	-0.493223	0.378141	-0.598070	11.636930	-76.570100	90.334842
27060		8.850372	-1.449670	1.897253	1.798101	0.565586	-0.841791	0.366253	0.436430	0.003107	-0.862793	-0.221924	-0.635498	0.088545	-0.014530	0.018753	-0.505930	-0.492849	0.375947	-0.599832	11.637738	-76.326646	90.549920
27061		8.899512	-1.583287	1.811544	1.909526	0.728351	-0.823089	0.519079	0.349302	0.010915	-0.855713	-0.222412	-0.638184	0.089027	-0.015875	0.017919	-0.505328	-0.493073	0.373574	-0.601636	11.752157	-76.133095	90.728387
27062		9.049005	-1.425532	2.042400	1.804321	0.550094	-0.618682	0.606920	0.284629	0.067760	-0.855225	-0.229248	-0.639893	0.090524	-0.014286	0.020252	-0.504159	-0.493633	0.371194	-0.603626	11.819890	-75.982481	91.016945
27063		8.963244	-1.368116	1.982380	1.731190	0.606953	-0.714566	0.635974	0.261247	0.146510	-0.850098	-0.226563	-0.643555	0.089668	-0.013678	0.019663	-0.502685	-0.494154	0.369018	-0.605760	11.742043	-75.854288	91.462966
27064		8.557226	-1.028639	1.901457	1.374857	0.537112	-1.110907	0.677054	0.229294	0.227165	-0.851318	-0.231445	-0.632568	0.085606	-0.010253	0.018882	-0.500747	-0.494751	0.366949	-0.608130	11.528402	-75.752963	92.083531
27065		8.121453	-0.507265	1.608958	0.789082	0.605846	-1.577742	0.657509	0.183540	0.287432	-0.854736	-0.241211	-0.635742	0.081236	-0.005009	0.015998	-0.498635	-0.495290	0.365242	-0.610449	11.196333	-75.683530	92.804985
27066		7.980449	0.004348	1.119598	0.158726	0.918999	-1.808233	0.591586	0.088846	0.311148	-0.850098	-0.241455	-0.640869	0.079809	0.000135	0.011161	-0.496383	-0.495936	0.363983	-0.612509	10.818876	-75.668724	93.544432
27067		7.933996	0.446764	0.590236	-0.419146	1.293641	-1.961124	0.521132	-0.014877	0.318505	-0.847168	-0.233154	-0.637695	0.079332	0.004579	0.005920	-0.494142	-0.496675	0.363255	-0.614153	10.427459	-75.711995	94.246745
27068		7.980444	0.909549	0.183164	-0.989371	1.557862	-1.993323	0.479035	-0.109590	0.294254	-0.855225	-0.246094	-0.645264	0.079790	0.009208	0.001897	-0.491851	-0.497671	0.362783	-0.615463	10.099357	-75.804967	94.868471
27069		8.146761	1.205415	0.214836	-1.286286	1.472815	-1.809868	0.414397	-0.176527	0.249603	-0.851074	-0.240479	-0.639404	0.081451	0.012151	0.002245	-0.489787	-0.498760	0.362605	-0.616331	9.853853	-75.930602	95.356520
27070		8.238479	1.125720	0.170509	-1.233725	1.534074	-1.732258	0.380682	-0.175203	0.175683	-0.848633	-0.242920	-0.634766	0.082373	0.011326	0.001799	-0.487981	-0.499926	0.362298	-0.617001	9.750010	-76.047816	95.688400
27071		8.518230	1.156813	0.223784	-1.260700	1.523414	-1.443796	0.431377	-0.145479	0.084198	-0.851074	-0.239990	-0.633545	0.085176	0.011599	0.002325	-0.486435	-0.501255	0.361575	-0.617567	9.869642	-76.139440	95.809819
27072		8.632949	1.279567	0.555757	-1.290342	1.192180	-1.246027	0.478639	-0.098920	0.005711	-0.850830	-0.251221	-0.627441	0.086326	0.012785	0.005631	-0.485041	-0.502725	0.360350	-0.618183	10.178038	-76.196974	95.774694
27073		8.580794	1.046457	0.823275	-0.982234	0.981940	-1.240998	0.482595	-0.085801	-0.066517	-0.850098	-0.253662	-0.625488	0.085808	0.010416	0.008295	-0.483934	-0.504262	0.358942	-0.618619	10.650917	-76.239737	95.562560
27074		8.478228	0.755664	1.155693	-0.592624	0.720090	-1.273528	0.493125	-0.082621	-0.125126	-0.855713	-0.251221	-0.620605	0.084782	0.007475	0.011610	-0.482931	-0.505946	0.357299	-0.618978	11.265336	-76.273708	95.220951
27075		8.261112	0.694939	1.488874	-0.414916	0.369738	-1.408120	0.469147	-0.107986	-0.159138	-0.855957	-0.264648	-0.625488	0.082609	0.006849	0.014949	-0.482099	-0.507679	0.355748	-0.619101	11.958999	-76.317281	94.773745
27076		8.461587	0.432422	1.592375	-0.112963	0.384857	-1.201058	0.417717	-0.221929	-0.172479	-0.854736	-0.267334	-0.625732	0.084602	0.004218	0.016027	-0.481180	-0.509691	0.354550	-0.618850	12.715971	-76.421467	94.241156
27077		9.063929	-0.051291	1.321259	0.287268	0.898646	-0.701541	0.343956	-0.296043	-0.152674	-0.848877	-0.262207	-0.617920	0.090619	-0.000605	0.013346	-0.480306	-0.511686	0.353852	-0.618281	13.435517	-76.568124	93.693958
27078		9.566421	-0.299953	1.189817	0.501733	1.190735	-0.254842	0.298334	-0.223153	-0.109578	-0.855225	-0.274170	-0.606445	0.095649	-0.003070	0.012000	-0.479490	-0.513298	0.353183	-0.617961	13.998153	-76.678485	93.291384
27079		9.860016	-0.374142	1.257316	0.603720	1.203976	0.042600	0.168929	-0.131949	-0.040654	-0.847656	-0.270996	-0.613281	0.098591	-0.003772	0.012635	-0.479005	-0.514166	0.352918	-0.617768	14.276779	-76.747354	93.094632
27080		10.094899	-0.184779	1.142303	0.390692	1.299206	0.257337	0.090691	-0.091652	0.043635	-0.844971	-0.277344	-0.603027	0.100944	-0.001831	0.011468	-0.478479	-0.514602	0.352968	-0.617784	14.288630	-76.805431	93.135887
27081		10.463766	-0.097203	0.728667	0.175210	1.729141	0.531883	0.015347	-0.116433	0.119572	-0.852051	-0.272217	-0.598145	0.104634	-0.000910	0.007348	-0.477867	-0.514801	0.353506	-0.617784	14.091375	-76.888120	93.347657
27082		10.806024	-0.178861	0.296586	0.109063	2.214975	0.768998	-0.004200	-0.128405	0.174659	-0.859375	-0.274658	-0.604248	0.108060	-0.001694	0.003035	-0.477114	-0.514891	0.354274	-0.617850	13.754588	-76.984639	93.690973
27083		10.701851	-0.105785	0.245990	0.008828	2.200736	0.663855	0.065533	-0.066856	0.232088	-0.852783	-0.270264	-0.604736	0.107019	-0.000934	0.002495	-0.476164	-0.514827	0.354872	-0.618293	13.278312	-77.054346	94.208630
27084		10.679689	-0.800331	1.537825	1.033557	1.193370	0.890993	0.004157	0.076512	0.247898	-0.853516	-0.272217	-0.608398	0.106813	-0.007871	0.015337	-0.475526	-0.514173	0.355314	-0.619074	12.643944	-77.044543	94.862050
27085		10.038573	-1.159391	2.845367	1.750689	-0.053115	0.538420	0.067555	0.172482	0.268270	-0.851807	-0.266602	-0.604980	0.100426	-0.011469	0.028363	-0.474884	-0.513306	0.355428	-0.620220	11.948203	-76.982080	95.605967
27086		9.523062	-0.087956	3.502006	0.913054	-1.090970	0.234033	0.226664	0.038909	0.266746	-0.854004	-0.272461	-0.607422	0.095239	-0.000792	0.035001	-0.473547	-0.513261	0.355316	-0.621343	11.418697	-76.992300	96.282772
27087		10.519676	0.419270	3.211122	0.300815	-0.761319	1.163674	0.146884	-0.134292	0.246567	-0.854248	-0.263672	-0.603760	0.105170	0.004299	0.032185	-0.472220	-0.513572	0.355854	-0.621788	10.973262	-77.096609	96.816509
27088		12.161471	0.621424	2.818203	-0.075674	-0.108417	2.685803	0.124109	0.015584	0.268083	-0.846436	-0.261719	-0.602539	0.121608	0.006360	0.028176	-0.471099	-0.513351	0.356118	-0.622669	10.385501	-77.117431	97.492470
27089		12.380574	1.082989	2.248457	-0.730509	0.338243	2.791231	0.174274	0.336335	0.306293	-0.852783	-0.260010	-0.607910	0.123827	0.011000	0.022286	-0.470352	-0.512151	0.355613	-0.624508	9.596694	-76.959506	98.394438
27090		11.805818	2.026468	2.712072	-1.508457	-0.481487	2.366468	0.235085	0.327051	0.290721	-0.857178	-0.264160	-0.603027	0.118073	0.020405	0.026952	-0.469426	-0.511177	0.354852	-0.626432	8.904213	-76.802505	99.243829
27091		11.583551	2.748508	4.100306	-1.795169	-2.028574	2.483964	-0.097253	0.021572	0.250476	-0.854004	-0.268066	-0.611084	0.115805	0.027650	0.040977	-0.468984	-0.510420	0.355790	-0.626848	8.242633	-76.813194	99.856378
27092		11.324431	1.589895	4.205305	-0.686812	-1.844700	2.211467	-0.459955	-0.155118	0.232471	-0.853027	-0.253662	-0.609131	0.113193	0.016127	0.042104	-0.469155	-0.509425	0.358186	-0.626165	7.473032	-76.920666	100.376087
27093		10.387945	0.651362	3.918332	0.120057	-1.531081	1.202219	-0.504546	-0.187904	0.241727	-0.853027	-0.249512	-0.603027	0.103835	0.006738	0.039264	-0.469401	-0.508379	0.360863	-0.625293	6.654346	-77.046010	100.910009
27094		9.323891	0.375273	3.602420	0.304178	-1.429587	0.082600	-0.461671	-0.419299	0.226172	-0.853271	-0.239990	-0.601807	0.093159	0.003942	0.036211	-0.469112	-0.508208	0.363862	-0.623909	5.947329	-77.300287	101.363882
27095		9.718931	0.350770	3.470490	0.252114	-1.280477	0.430417	-0.498600	-0.738969	0.219071	-0.866455	-0.239746	-0.593506	0.097056	0.003701	0.035055	-0.468403	-0.508922	0.367748	-0.621578	5.292245	-77.735465	101.732356
27096		11.043783	-0.306895	2.943688	0.656727	-0.414458	1.594357	-0.509086	-0.810152	0.273428	-0.878662	-0.236816	-0.587402	0.110321	-0.002842	0.029891	-0.467356	-0.509751	0.371917	-0.619200	4.460813	-78.212596	102.284258
27097		11.126275	-0.545406	2.921442	0.852687	-0.399628	1.665070	-0.302589	-0.566250	0.375552	-0.878906	-0.232666	-0.576904	0.111189	-0.005201	0.029537	-0.465962	-0.510079	0.375175	-0.618015	3.358914	-78.552654	103.222682
27098		10.685226	-0.546302	3.965155	1.127009	-1.534569	1.437618	-0.246211	-0.389005	0.523873	-0.874023	-0.226318	-0.583496	0.106789	-0.005134	0.039866	-0.464242	-0.509735	0.378174	-0.617765	1.778913	-78.790157	104.690250
27099		10.857673	-0.960187	4.524543	1.610836	-1.974670	1.710664	-0.249676	-0.355309	0.688661	-0.883789	-0.220703	-0.578369	0.108528	-0.009171	0.045450	-0.462130	-0.508929	0.381565	-0.617928	-0.353343	-79.000369	106.707900
27100		11.507943	-0.635741	4.920587	1.290293	-2.378518	2.423566	-0.158249	-0.183121	0.858698	-0.882324	-0.200928	-0.578857	0.115060	-0.005824	0.049316	-0.459529	-0.507499	0.384657	-0.619126	-2.993358	-79.092386	109.304586
27101		11.738534	-0.189093	5.154941	0.800024	-2.725103	2.690701	-0.104569	0.057587	1.065635	-0.882324	-0.192627	-0.575439	0.117408	-0.001238	0.051516	-0.456656	-0.505004	0.387590	-0.621458	-6.179516	-79.012368	112.478865
27102		12.038603	-0.565244	4.830509	0.908849	-2.282608	2.936545	-0.049853	0.226196	1.255767	-0.888428	-0.181396	-0.580811	0.120473	-0.004884	0.048170	-0.453312	-0.501757	0.390390	-0.624775	-9.742163	-78.785895	116.080331
27103		11.588242	-0.787359	4.029938	0.782994	-1.541077	2.359308	0.203143	0.511534	1.349624	-0.883057	-0.178467	-0.586670	0.116035	-0.007132	0.039995	-0.449630	-0.497950	0.392016	-0.629446	-13.082313	-78.347201	119.596727
27104		10.111865	-1.404591	3.703179	1.280346	-1.281814	0.894881	0.313339	0.723614	1.299599	-0.879639	-0.159180	-0.600342	0.101340	-0.013445	0.036644	-0.446168	-0.493829	0.392626	-0.634753	-15.817027	-77.761494	122.575464
27105		9.015316	-1.558828	3.680024	1.424096	-1.366683	-0.150830	0.472208	0.634815	1.134915	-0.881348	-0.155518	-0.600098	0.090356	-0.015162	0.036478	-0.442696	-0.490606	0.392546	-0.639714	-17.872679	-77.226493	124.948102
27106		8.888213	-1.861505	3.152416	1.489532	-0.773894	-0.347748	0.394351	0.337003	0.901709	-0.872070	-0.153320	-0.601074	0.089018	-0.018276	0.031338	-0.439503	-0.488638	0.392744	-0.643290	-19.502232	-76.879857	126.852036
27107		9.377912	-2.668312	2.556103	1.952668	0.133419	0.075072	0.419792	0.136274	0.637892	-0.890625	-0.159668	-0.598145	0.093881	-0.026437	0.025441	-0.436750	-0.487844	0.392691	-0.645795	-20.605462	-76.682907	128.222381
27108		9.551254	-2.499319	2.341520	1.665075	0.321144	0.191316	0.450928	0.015097	0.351843	-0.877197	-0.147705	-0.600830	0.095558	-0.024878	0.023352	-0.434546	-0.488101	0.392057	-0.647471	-21.123629	-76.604914	129.020548
27109		9.377381	-1.732811	1.918873	0.828029	0.445693	-0.130967	0.406281	-0.054726	0.111351	-0.886230	-0.147461	-0.599365	0.093778	-0.017315	0.019179	-0.433143	-0.488922	0.391172	-0.648326	-21.184620	-76.613106	129.312903
27110		8.883737	-0.840419	1.657450	-0.016462	0.319586	-0.742306	0.325120	0.006501	-0.047417	-0.882324	-0.152344	-0.600098	0.088836	-0.008452	0.016558	-0.432518	-0.489711	0.389986	-0.648862	-20.882271	-76.621273	129.193646
27111		8.485890	0.074771	1.637814	-0.818022	-0.017326	-1.208684	0.287412	0.129441	-0.114895	-0.879639	-0.165527	-0.606201	0.084870	0.000675	0.016324	-0.432498	-0.490115	0.388535	-0.649441	-20.346367	-76.576868	128.802016
27112		8.168337	0.754487	1.682368	-1.389549	-0.316614	-1.561009	0.325327	0.272444	-0.132176	-0.879150	-0.171143	-0.604736	0.081711	0.007464	0.016725	-0.432662	-0.490203	0.386563	-0.650442	-19.636564	-76.457941	128.263830
27113		7.862641	1.747610	2.019512	-2.169370	-0.984301	-1.857901	0.445511	0.352660	-0.109713	-0.871582	-0.161377	-0.605225	0.078671	0.017388	0.020095	-0.432666	-0.490210	0.384120	-0.651879	-18.857162	-76.289695	127.714920
27114		7.847778	2.502938	2.179806	-2.817854	-1.362958	-1.887672	0.513204	0.312741	-0.082993	-0.879883	-0.172607	-0.612793	0.078522	0.024941	0.021739	-0.432281	-0.490472	0.381564	-0.653437	-18.143541	-76.136707	127.282948
27115		8.033322	3.065462	2.173656	-3.362314	-1.495739	-1.743382	0.525024	0.239753	-0.067486	-0.870605	-0.177490	-0.617676	0.080370	0.030570	0.021721	-0.431730	-0.490930	0.379205	-0.654829	-17.520622	-76.019545	126.941115
27116		8.291186	3.362208	1.940946	-3.739220	-1.323422	-1.561491	0.450177	0.220124	-0.049566	-0.872314	-0.179443	-0.611572	0.082942	0.033558	0.019394	-0.431207	-0.491287	0.377132	-0.656102	-17.000333	-75.909359	126.670736
27117		8.366293	3.657846	1.795138	-4.065513	-1.265969	-1.538261	0.317909	0.227708	-0.046669	-0.874756	-0.187256	-0.609375	0.083692	0.036530	0.017914	-0.431069	-0.491293	0.375523	-0.657110	-16.562570	-75.793919	126.397238
27118		8.267001	3.423402	1.760463	-3.838893	-1.159267	-1.622377	0.124551	0.209321	-0.060508	-0.866943	-0.185547	-0.608154	0.082699	0.034198	0.017539	-0.431358	-0.491000	0.374512	-0.657715	-16.222913	-75.690460	126.120468
27119		8.079402	2.864052	1.617021	-3.332684	-0.856620	-1.796847	-0.031230	0.112842	-0.085877	-0.877197	-0.186035	-0.606201	0.080815	0.028608	0.016120	-0.431989	-0.490705	0.374200	-0.657699	-15.980707	-75.643925	125.842340
27120		8.062509	1.982999	1.482044	-2.544996	-0.421754	-1.782874	-0.174317	-0.004658	-0.134051	-0.874756	-0.189209	-0.617432	0.080638	0.019789	0.014805	-0.432853	-0.490608	0.374453	-0.657060	-15.790289	-75.669319	125.542756
27121		8.030940	1.285006	1.588109	-1.843314	-0.282939	-1.738565	-0.228264	-0.122752	-0.180869	-0.870605	-0.184814	-0.615723	0.080311	0.012796	0.015916	-0.433780	-0.490871	0.375022	-0.655927	-15.598912	-75.767017	125.210557
27122		8.211399	0.664439	1.575331	-1.275977	-0.031121	-1.522869	-0.262860	-0.260362	-0.196049	-0.871826	-0.177979	-0.608398	0.082100	0.006585	0.015852	-0.434583	-0.491534	0.375965	-0.654356	-15.474289	-75.942628	124.926772
27123		8.449075	0.194534	1.204565	-0.965545	0.501029	-1.345556	-0.300903	-0.277823	-0.213855	-0.867920	-0.191162	-0.610107	0.084476	0.001873	0.012160	-0.435561	-0.492171	0.377068	-0.652590	-15.336669	-76.130498	124.597238
27124		8.307732	0.109450	1.050740	-0.894358	0.628549	-1.509709	-0.357653	-0.224585	-0.209538	-0.879150	-0.183838	-0.616699	0.083067	0.001026	0.010599	-0.436704	-0.492532	0.378206	-0.650893	-15.203298	-76.288045	124.248956
27125		8.291636	-0.033720	0.879152	-0.792272	0.820105	-1.552846	-0.436030	-0.178649	-0.206484	-0.889893	-0.182861	-0.604736	0.082908	-0.000404	0.008866	-0.438172	-0.492531	0.379546	-0.649125	-15.087310	-76.419601	123.862587
27126		8.463917	0.077288	0.914331	-0.893071	0.778318	-1.382000	-0.472488	-0.088585	-0.189261	-0.872803	-0.179688	-0.614502	0.084636	0.000714	0.009179	-0.439784	-0.492154	0.380805	-0.647581	-14.973197	-76.498529	123.466807
27127		8.482520	0.246220	0.903960	-1.047267	0.737477	-1.375254	-0.523183	-0.001399	-0.155306	-0.881348	-0.187988	-0.604248	0.084827	0.002420	0.009034	-0.441631	-0.491283	0.382160	-0.646186	-14.910088	-76.524169	123.083611
27128		8.554760	0.272762	0.768152	-1.116760	0.876345	-1.337238	-0.553088	0.093829	-0.113778	-0.876709	-0.178955	-0.614502	0.085553	0.002700	0.007634	-0.443539	-0.489988	0.383457	-0.645094	-14.902145	-76.490773	122.749603
