// General information: 
//  MT Manager version: 2021.4.0 
//  XDA version: 2021.4.0 build 6323 rev 112641 built on 2021-09-28
// Device information: 
//  DeviceId: 00B47792
//  ProductCode: MTW2-3A7G6
//  Firmware Version: 4.6.0
//  Hardware Version: 2.0.0
// Device settings: 
//  Filter Profile: human(46.1)
//  Option Flags: Orientation Smoother Disabled, Position/Velocity Smoother Disabled, Continuous Zero Rotation Update Disabled, AHS Disabled, ICC Disabled
// Coordinate system: ENU
PacketCounter	SampleTimeFine	Acc_X	Acc_Y	Acc_Z	FreeAcc_E	FreeAcc_N	FreeAcc_U	Gyr_X	Gyr_Y	Gyr_Z	Mag_X	Mag_Y	Mag_Z	VelInc_X	VelInc_Y	VelInc_Z	Quat_q0	Quat_q1	Quat_q2	Quat_q3	Roll	Pitch	Yaw
26587		9.505045	0.048803	-2.076596	0.004532	-0.049204	-0.083449	0.011676	0.027264	-0.010684	-0.823242	0.341309	0.282959	0.095048	0.000484	-0.020779	0.071551	0.774324	-0.088809	0.622427	179.932503	-77.588554	-13.031295
26588		9.517876	0.061077	-2.056006	0.021948	-0.064945	-0.075328	0.023435	0.033647	-0.011984	-0.811279	0.348877	0.278320	0.095175	0.000607	-0.020576	0.071512	0.774254	-0.088668	0.622539	179.909916	-77.604199	-12.993773
26589		9.536239	0.090966	-2.050686	0.021624	-0.095052	-0.058511	0.027180	0.033056	-0.005520	-0.816406	0.351563	0.277832	0.095359	0.000910	-0.020523	0.071437	0.774184	-0.088541	0.622653	179.906325	-77.619654	-12.973470
26590		9.521934	0.020071	-2.058464	0.024979	-0.022876	-0.070832	0.012580	0.028826	-0.003102	-0.819092	0.342285	0.278320	0.095216	0.000201	-0.020598	0.071410	0.774121	-0.088471	0.622744	179.900626	-77.632543	-12.959608
26591		9.520980	-0.063871	-1.999906	0.097279	0.046506	-0.084319	0.020410	0.028976	-0.000204	-0.819580	0.342529	0.278076	0.095207	-0.000637	-0.020013	0.071339	0.774058	-0.088381	0.622843	179.907297	-77.645728	-12.952966
26592		9.536446	-0.094125	-1.988172	0.116471	0.072777	-0.071710	0.032485	0.024372	-0.000247	-0.808105	0.351074	0.281006	0.095362	-0.000938	-0.019893	0.071224	0.774015	-0.088262	0.622927	179.920473	-77.656068	-12.946753
26593		9.547978	-0.058579	-2.016731	0.081662	0.044047	-0.054311	0.032502	0.028487	-0.004011	-0.819336	0.353271	0.275879	0.095477	-0.000584	-0.020181	0.071124	0.773960	-0.088128	0.623026	179.924330	-77.668868	-12.931194
26594		9.508797	0.041081	-1.951178	0.111556	-0.065075	-0.106539	0.031010	0.024969	-0.007233	-0.825439	0.343506	0.275391	0.095086	0.000410	-0.019524	0.071036	0.773917	-0.087985	0.623109	179.918336	-77.679545	-12.906224
26595		9.514706	0.159683	-1.963276	0.073177	-0.177805	-0.098130	0.021118	0.018287	-0.002704	-0.814941	0.350342	0.286377	0.095145	0.001598	-0.019641	0.070961	0.773890	-0.087882	0.623166	179.918834	-77.686692	-12.891951
26596		9.546493	0.082992	-2.000673	0.060499	-0.096259	-0.059115	0.004672	0.013297	0.002759	-0.813232	0.342285	0.285156	0.095464	0.000832	-0.020013	0.070939	0.773870	-0.087864	0.623196	179.923991	-77.690689	-12.893843
26597		9.552255	0.100240	-2.015079	0.043440	-0.110624	-0.050411	0.003678	0.011043	0.010876	-0.820313	0.353516	0.275146	0.095521	0.001008	-0.020156	0.070909	0.773851	-0.087900	0.623217	179.950313	-77.693289	-12.920670
26598		9.532078	0.010151	-2.008963	0.064490	-0.024073	-0.071444	-0.006746	0.013677	0.014758	-0.808838	0.350098	0.275391	0.095319	0.000108	-0.020096	0.070895	0.773821	-0.087964	0.623248	179.980465	-77.697507	-12.954838
26599		9.535125	-0.032428	-2.016065	0.066856	0.017933	-0.066951	-0.006526	0.015356	0.014142	-0.817139	0.348633	0.283203	0.095350	-0.000318	-0.020168	0.070874	0.773785	-0.088018	0.623287	-179.989627	-77.702899	-12.987327
26600		9.528699	-0.127786	-2.049621	0.054254	0.117746	-0.066069	-0.001690	0.008455	0.010606	-0.813965	0.348145	0.281494	0.095286	-0.001273	-0.020500	0.070850	0.773774	-0.088052	0.623298	-179.967456	-77.704119	-13.010362
26601		9.511196	-0.158615	-2.050827	0.055808	0.147893	-0.082892	0.020533	0.011168	0.011718	-0.821533	0.352783	0.280273	0.095111	-0.001578	-0.020514	0.070745	0.773762	-0.088030	0.623329	-179.929035	-77.706899	-13.038302
26602		9.545710	-0.076072	-2.094255	0.002407	0.074662	-0.039935	0.029279	0.011548	-0.002297	-0.816895	0.345215	0.284912	0.095456	-0.000759	-0.020948	0.070643	0.773758	-0.087917	0.623361	-179.923027	-77.709897	-13.026635
26603		9.524401	-0.040286	-2.135788	-0.050016	0.049824	-0.051927	0.019397	0.008974	-0.001537	-0.816650	0.347900	0.276367	0.095243	-0.000402	-0.021362	0.070582	0.773757	-0.087846	0.623379	-179.920268	-77.711454	-13.018527
26604		9.548930	-0.017414	-2.099380	-0.015799	0.018324	-0.035716	0.027026	0.011560	-0.001782	-0.815674	0.354004	0.280762	0.095488	-0.000172	-0.020999	0.070487	0.773753	-0.087742	0.623410	-179.914198	-77.714458	-13.008243
26605		9.566906	0.011717	-2.095934	-0.016100	-0.011813	-0.018895	0.023591	0.015856	-0.000068	-0.813721	0.349121	0.285400	0.095667	0.000120	-0.020967	0.070401	0.773732	-0.087654	0.623458	-179.904656	-77.720041	-13.003453
26606		9.556142	-0.024731	-2.063340	0.019948	0.016966	-0.036331	0.007575	0.014224	0.004155	-0.816406	0.352051	0.284424	0.095560	-0.000245	-0.020640	0.070364	0.773709	-0.087632	0.623493	-179.894091	-77.724566	-13.009177
26607		9.565819	-0.072878	-2.036983	0.056864	0.057581	-0.032455	0.004309	0.017128	0.002735	-0.819092	0.348389	0.280518	0.095656	-0.000727	-0.020378	0.070357	0.773676	-0.087631	0.623535	-179.888253	-77.730666	-13.014242
26608		9.529733	-0.107841	-2.088485	0.007131	0.104903	-0.056758	0.005510	0.016948	-0.002232	-0.822021	0.343262	0.277588	0.095296	-0.001079	-0.020893	0.070350	0.773647	-0.087590	0.623578	-179.895680	-77.736759	-13.002763
26609		9.570321	-0.037777	-1.992152	0.090844	0.014254	-0.037582	0.007720	0.013872	-0.005263	-0.823975	0.349854	0.284668	0.095702	-0.000380	-0.019928	0.070343	0.773629	-0.087533	0.623609	-179.909989	-77.741228	-12.983156
26610		9.536318	-0.020205	-1.944871	0.124248	-0.010845	-0.080846	0.003425	0.015564	-0.004852	-0.812500	0.353760	0.283691	0.095362	-0.000204	-0.019456	0.070351	0.773605	-0.087489	0.623644	-179.925548	-77.746529	-12.964579
26611		9.519914	0.026709	-1.895820	0.156740	-0.066119	-0.107293	0.005002	0.006415	0.000254	-0.819092	0.345947	0.280518	0.095199	0.000268	-0.018961	0.070342	0.773606	-0.087476	0.623646	-179.925892	-77.746540	-12.962436
26612		9.505076	0.056433	-1.904834	0.138810	-0.092333	-0.119893	0.003067	-0.000472	-0.001730	-0.813965	0.345947	0.279053	0.095051	0.000564	-0.019048	0.070334	0.773630	-0.087451	0.623620	-179.933481	-77.742650	-12.952225
26613		9.522686	0.085838	-1.903082	0.138527	-0.122444	-0.103081	0.006311	-0.007483	0.003460	-0.815430	0.350098	0.276367	0.095228	0.000861	-0.019027	0.070299	0.773674	-0.087444	0.623570	-179.925398	-77.734813	-12.956960
26614		9.505908	0.131907	-1.855960	0.171016	-0.177680	-0.129534	0.013700	-0.010682	0.007603	-0.814941	0.352539	0.280762	0.095060	0.001324	-0.018554	0.070217	0.773730	-0.087425	0.623513	-179.902339	-77.725066	-12.971878
26615		9.520636	-0.061262	-2.112177	-0.024724	0.064436	-0.060621	-0.009478	-0.027296	0.010204	-0.811035	0.343750	0.279053	0.095209	-0.000609	-0.021109	0.070209	0.773828	-0.087497	0.623383	-179.884839	-77.705901	-12.994818
26616		9.617834	-0.163815	-2.081384	0.050162	0.151187	0.027859	0.026815	-0.019217	0.015800	-0.814697	0.357910	0.280273	0.096180	-0.001628	-0.020805	0.070047	0.773911	-0.087472	0.623301	-179.832865	-77.691249	-13.031641
26617		9.518131	-0.047316	-2.058521	0.026951	0.035442	-0.074485	0.026858	-0.011001	0.008261	-0.815674	0.357666	0.284180	0.095182	-0.000466	-0.020580	0.069914	0.773971	-0.087420	0.623249	-179.799659	-77.681377	-13.049793
26618		9.486925	-0.065011	-2.128513	-0.040500	0.068384	-0.090022	-0.015351	-0.016453	0.005517	-0.816895	0.355713	0.282471	0.094871	-0.000649	-0.021277	0.069948	0.774035	-0.087486	0.623155	-179.798925	-77.668321	-13.058899
26619		9.317137	-0.641412	-2.549998	-0.343105	0.727663	-0.165111	-0.128397	-0.090671	0.058921	-0.814697	0.359131	0.288330	0.093185	-0.006403	-0.025454	0.070225	0.774267	-0.088146	0.622744	-179.722620	-77.612612	-13.212752
26620		8.880116	-1.200609	-2.738781	-0.481109	1.328015	-0.549656	0.040209	-0.083959	0.088023	-0.806396	0.365723	0.290039	0.088818	-0.011961	-0.027353	0.069758	0.774524	-0.088382	0.622442	-179.476789	-77.560541	-13.440231
26621		9.112256	-0.948909	-2.477490	-0.231152	1.001106	-0.377863	0.129932	-0.163132	0.102438	-0.809326	0.364258	0.285889	0.091148	-0.009426	-0.024707	0.068874	0.775051	-0.088443	0.621876	-179.144676	-77.462580	-13.706059
26622		9.460754	-0.663081	-2.289911	-0.031684	0.648499	-0.077819	0.114939	-0.139087	0.107334	-0.804932	0.359375	0.282715	0.094627	-0.006567	-0.022837	0.068032	0.775496	-0.088540	0.621400	-178.814540	-77.378205	-13.976192
26623		9.651959	-0.332682	-2.222922	0.009532	0.287901	0.093340	0.054196	-0.121683	0.090593	-0.808105	0.364258	0.286377	0.096535	-0.003277	-0.022171	0.067487	0.775872	-0.088764	0.620958	-178.562165	-77.303701	-14.203115
26624		9.586578	-0.178002	-1.991819	0.189704	0.079855	-0.021920	0.052660	-0.084516	0.074773	-0.803955	0.368408	0.294678	0.095875	-0.001739	-0.019878	0.067012	0.776140	-0.088910	0.620654	-178.353067	-77.250551	-14.385896
26625		9.569958	0.063215	-1.950788	0.179698	-0.172273	-0.048893	0.037479	-0.100600	0.055234	-0.807861	0.366211	0.294922	0.095709	0.000662	-0.019460	0.066658	0.776460	-0.089050	0.620272	-178.202301	-77.188260	-14.519824
26626		9.513562	0.204541	-1.849812	0.241343	-0.336654	-0.127652	0.049226	-0.101358	0.055138	-0.801025	0.366943	0.293457	0.095144	0.002076	-0.018449	0.066250	0.776787	-0.089136	0.619894	-178.048951	-77.125602	-14.647532
26627		9.475282	0.374373	-1.748193	0.302079	-0.531266	-0.189601	0.065268	-0.124198	0.073471	-0.809570	0.374756	0.294189	0.094762	0.003784	-0.017422	0.065723	0.777180	-0.089270	0.619438	-177.842188	-77.049243	-14.823068
26628		9.486104	0.250689	-1.696362	0.392942	-0.435610	-0.190709	0.081356	-0.163884	0.122589	-0.799561	0.373779	0.297119	0.094873	0.002572	-0.016885	0.064953	0.777680	-0.089539	0.618852	-177.513157	-76.949003	-15.112266
26629		9.635184	0.085670	-1.790823	0.385651	-0.282918	-0.023799	0.186791	-0.186030	0.164888	-0.799316	0.380859	0.294678	0.096368	0.000953	-0.017818	0.063637	0.778261	-0.089666	0.618240	-177.025846	-76.834422	-15.503469
26630		10.101766	0.197405	-1.793988	0.474830	-0.448477	0.428227	0.440727	-0.193973	0.230289	-0.797852	0.376953	0.292480	0.101033	0.002130	-0.017837	0.061122	0.778915	-0.089252	0.617729	-176.245906	-76.712184	-16.044614
26631		10.341393	1.603917	-0.730940	1.255323	-2.094761	0.389625	0.573979	-0.216542	0.326106	-0.786377	0.380859	0.299072	0.103395	0.016228	-0.007151	0.057781	0.779629	-0.088806	0.617214	-175.176316	-76.571089	-16.805323
26632		10.548733	3.467824	0.312489	1.930578	-4.184572	0.294791	0.179181	-0.365584	0.392156	-0.794678	0.383545	0.302490	0.105413	0.034882	0.003349	0.055709	0.780653	-0.089878	0.615955	-174.230829	-76.338272	-17.671608
26633		10.894452	4.150383	0.363345	1.941053	-4.938431	0.574354	-0.308264	-0.474395	0.455804	-0.786377	0.381836	0.306641	0.108841	0.041758	0.003827	0.055294	0.781837	-0.092729	0.614064	-173.475000	-76.036749	-18.631186
26634		10.954389	4.107953	0.835403	2.436153	-5.062996	0.483056	-0.440013	-0.620797	0.624133	-0.786133	0.395996	0.317627	0.109388	0.041440	0.008603	0.054809	0.783343	-0.096680	0.611573	-172.498459	-75.636581	-19.897694
26635		11.089184	4.208921	1.758856	3.351256	-5.453688	0.326519	-0.394650	-0.804314	0.828899	-0.772949	0.395508	0.320068	0.110644	0.042583	0.017950	0.053429	0.785299	-0.101342	0.608425	-171.179554	-75.109771	-21.493770
26636		12.012755	4.002724	2.728250	4.581721	-5.665734	0.895996	-0.254912	-1.007977	1.028594	-0.759766	0.400879	0.325928	0.119780	0.040679	0.027835	0.050787	0.787775	-0.106413	0.604572	-169.551740	-74.438297	-23.331475
26637		13.573164	3.035864	3.338047	5.836596	-5.187967	2.170791	-0.134377	-1.205650	1.263896	-0.764160	0.415283	0.348877	0.135332	0.031238	0.034176	0.046852	0.790702	-0.112089	0.600026	-167.632050	-73.614838	-25.407556
26638		15.467514	2.324732	1.255271	4.648777	-4.518738	4.476656	0.103500	-1.437728	1.456662	-0.743652	0.424316	0.354980	0.154405	0.024366	0.013676	0.041262	0.794202	-0.117858	0.594685	-165.533542	-72.616483	-27.537863
26639		15.412093	2.404953	-0.266583	3.340948	-4.533657	4.735952	0.228649	-1.442269	1.453141	-0.728760	0.442627	0.372559	0.153955	0.025171	-0.001527	0.035180	0.797657	-0.123228	0.589339	-163.603697	-71.595570	-29.427275
26640		14.264831	1.893173	-1.870228	1.803342	-3.788331	4.078190	0.229772	-1.449127	1.421540	-0.717285	0.453369	0.375000	0.142639	0.019966	-0.017646	0.029178	0.801070	-0.128458	0.583896	-161.926195	-70.558024	-31.060696
26641		13.905214	0.733107	-3.557412	0.563494	-2.527777	4.323523	0.255489	-1.489860	1.546079	-0.702148	0.464111	0.380127	0.139249	0.008452	-0.034527	0.022682	0.804434	-0.134102	0.578263	-160.242569	-69.460718	-32.695697
26642		13.608037	-1.781087	-4.858391	0.031330	-0.081654	4.745407	0.192293	-1.431007	1.772997	-0.690674	0.476074	0.393555	0.136574	-0.016555	-0.047624	0.015818	0.807372	-0.140820	0.572774	-158.424768	-68.331937	-34.525294
26643		12.939937	-5.040385	-6.718283	-0.949469	3.212156	5.245583	0.599952	-1.364617	1.936123	-0.671631	0.491211	0.398926	0.130333	-0.048945	-0.066444	0.006888	0.809921	-0.147001	0.567777	-156.318332	-67.181026	-36.428716
26644		11.642207	-5.443588	-5.234622	0.180788	3.305298	3.663545	1.355534	-1.059146	1.752198	-0.659668	0.509033	0.388672	0.117167	-0.053058	-0.052090	-0.004358	0.811645	-0.150263	0.564477	-154.023458	-66.205823	-38.081023
26645		9.526869	-4.239752	-3.384055	0.942531	2.135801	0.898783	1.175668	-0.867651	1.309585	-0.645020	0.521240	0.405762	0.095689	-0.041574	-0.033672	-0.013479	0.813062	-0.152219	0.561763	-152.363113	-65.421573	-39.161813
26646		7.499161	-5.126051	-3.969836	-0.018497	3.448556	-0.518653	0.628861	-0.797241	0.988836	-0.634766	0.528564	0.401367	0.075401	-0.050764	-0.039558	-0.019423	0.814505	-0.154403	0.558895	-151.395804	-64.749018	-39.830382
26647		5.595102	-5.136142	-4.867868	-1.440365	4.006289	-1.859348	0.467180	-0.587751	0.685487	-0.635986	0.531250	0.411621	0.056269	-0.051055	-0.048633	-0.023697	0.815580	-0.155816	0.556767	-150.753756	-64.262241	-40.244281
26648		4.805221	-2.855712	-4.591818	-1.962096	1.965107	-3.132984	0.504629	-0.276506	0.265553	-0.635498	0.536865	0.410156	0.048153	-0.028377	-0.045923	-0.026714	0.816098	-0.155448	0.555974	-150.357018	-64.046905	-40.363145
26649		4.546801	-0.088523	-4.049545	-2.174713	-0.682286	-4.165993	0.287707	0.061761	-0.177008	-0.635498	0.533691	0.407471	0.045455	-0.000867	-0.040511	-0.027351	0.816041	-0.153920	0.556451	-150.342402	-64.125734	-40.195284
26650		4.009133	1.443684	-4.224845	-2.862217	-1.949980	-4.912497	-0.231597	0.414048	-0.516765	-0.634277	0.530273	0.397949	0.040041	0.014284	-0.042348	-0.024653	0.815332	-0.152499	0.558005	-150.773761	-64.475289	-39.863136
26651		3.717786	1.339121	-4.637632	-3.336175	-1.666035	-4.994323	-0.640341	0.766173	-0.734083	-0.644775	0.528809	0.406494	0.037048	0.013106	-0.046561	-0.019413	0.813835	-0.151371	0.560698	-151.477478	-65.060648	-39.489961
26652		3.986381	0.165058	-4.584932	-2.971182	-0.552364	-4.539514	-0.710929	1.053766	-0.827536	-0.654053	0.521484	0.401367	0.039627	0.001323	-0.046064	-0.013405	0.811572	-0.150082	0.564487	-152.181057	-65.814096	-39.163558
26653		4.160434	-1.487706	-4.519064	-2.518049	1.057266	-4.113119	-0.753903	1.220801	-0.913691	-0.659424	0.513184	0.398193	0.041259	-0.015237	-0.045386	-0.006853	0.808851	-0.148565	0.568894	-152.941846	-66.673848	-38.803494
26654		4.524023	-3.219520	-4.920822	-2.416466	2.790394	-3.376906	-0.843159	1.418151	-1.066926	-0.670410	0.493896	0.386719	0.044717	-0.032643	-0.049390	0.000642	0.805620	-0.146678	0.573988	-153.865042	-67.671381	-38.325339
26655		4.981509	-4.861247	-5.325014	-2.317527	4.451405	-2.628396	-0.773340	1.674918	-1.250142	-0.683105	0.479004	0.387939	0.049062	-0.049127	-0.053474	0.008570	0.801696	-0.143835	0.580105	-154.893046	-68.844012	-37.694903
26656		5.120096	-5.786612	-5.281322	-2.084875	5.448915	-2.494829	-0.666144	1.893098	-1.481678	-0.696289	0.478760	0.377197	0.050268	-0.058417	-0.053098	0.016896	0.797200	-0.139724	0.587081	-156.145889	-70.180183	-36.764317
26657		5.280200	-5.599616	-4.970249	-1.883984	5.339322	-2.610125	-0.528881	2.015413	-1.745444	-0.707764	0.464600	0.364502	0.051806	-0.056583	-0.050079	0.025531	0.792404	-0.134125	0.594521	-157.809772	-71.631555	-35.323647
26658		6.041943	-5.147693	-4.757208	-1.701224	4.899370	-2.149057	-0.409028	2.021057	-1.943261	-0.722168	0.446045	0.358643	0.059431	-0.052156	-0.048070	0.034278	0.787588	-0.127360	0.601921	-160.009003	-73.109891	-33.261491
26659		6.709346	-5.215745	-4.840720	-1.717639	5.071507	-1.628879	-0.363501	2.054689	-2.044010	-0.739258	0.425781	0.339600	0.066054	-0.052925	-0.048994	0.043164	0.782579	-0.120029	0.609343	-162.760010	-74.596885	-30.613937
26660		6.748264	-4.906810	-4.955790	-2.016349	4.996736	-1.742015	-0.267668	2.060016	-2.129036	-0.760010	0.417236	0.314941	0.066440	-0.049846	-0.050179	0.051927	0.777458	-0.112046	0.616692	-166.204478	-76.057970	-27.211586
26661		6.928575	-4.122398	-4.929528	-2.264163	4.414185	-1.770196	-0.229308	1.989742	-2.157266	-0.775635	0.400391	0.310547	0.068341	-0.042022	-0.049930	0.060577	0.772408	-0.103830	0.623647	-170.504304	-77.421761	-22.928767
26662		7.543668	-3.266947	-4.864423	-2.402990	3.722558	-1.350747	-0.209335	1.920227	-2.133790	-0.787354	0.383057	0.303223	0.074611	-0.033520	-0.049328	0.069028	0.767406	-0.095641	0.630219	-175.741313	-78.658261	-17.697977
26663		8.237814	-2.486588	-4.798575	-2.518535	3.116544	-0.812181	-0.133344	1.880146	-2.018221	-0.800781	0.364502	0.282227	0.081666	-0.025725	-0.048739	0.076790	0.762348	-0.087652	0.636589	178.232035	-79.758359	-11.640511
26664		8.733132	-1.561769	-4.533072	-2.523743	2.341860	-0.464078	-0.009261	1.828810	-1.862455	-0.812744	0.346436	0.268311	0.086761	-0.016430	-0.046125	0.083548	0.757297	-0.079864	0.642762	171.500338	-80.704449	-4.814983
26665		9.195429	-1.013125	-3.513030	-1.728871	1.758757	-0.229531	0.036841	1.763874	-1.651967	-0.824707	0.328857	0.256104	0.091552	-0.010882	-0.035941	0.089415	0.752269	-0.072742	0.648694	164.252691	-81.491617	2.542517
26666		9.174602	-1.694042	-3.168364	-1.373622	2.512572	-0.385162	-0.133103	1.599634	-1.341871	-0.839355	0.316162	0.236328	0.091372	-0.017576	-0.032404	0.094845	0.747490	-0.067399	0.654003	157.035228	-82.098905	9.757908
26667		9.157715	-2.409354	-3.218788	-1.376546	3.361433	-0.494285	-0.087894	1.378561	-1.104084	-0.838867	0.312012	0.226074	0.091218	-0.024612	-0.032807	0.099244	0.743306	-0.062898	0.658552	150.190350	-82.522390	16.614393
26668		9.483003	-2.271526	-2.411733	-0.688137	3.170854	-0.306170	0.078553	1.192341	-0.917496	-0.845459	0.308594	0.217773	0.094578	-0.023140	-0.024691	0.102346	0.739708	-0.058628	0.662510	143.927596	-82.806623	22.974719
26669		9.759405	-1.758252	-1.822457	-0.288576	2.648605	-0.088536	0.015951	0.980062	-0.733213	-0.849854	0.301514	0.204590	0.097438	-0.017938	-0.018704	0.105001	0.736693	-0.055356	0.665728	138.501589	-82.977970	28.452363
26670		9.981322	-1.279763	-1.535061	-0.162354	2.209422	0.122723	-0.104340	0.748786	-0.518180	-0.859375	0.289307	0.200684	0.099721	-0.013064	-0.015717	0.107317	0.734304	-0.053393	0.668154	134.276552	-83.080453	32.649243
26671		10.024141	-0.458040	-1.115420	0.014222	1.372000	0.190036	-0.223129	0.533951	-0.272958	-0.850342	0.291260	0.200928	0.100205	-0.004730	-0.011417	0.109190	0.732492	-0.052845	0.669880	131.424672	-83.170776	35.393447
26672		9.865659	0.234143	-0.597254	0.309580	0.594276	0.051068	-0.448221	0.307231	0.013205	-0.857666	0.289307	0.191895	0.098647	0.002334	-0.006129	0.110870	0.731235	-0.054219	0.670868	130.103734	-83.288199	36.465681
26673		9.448321	0.478576	-0.708576	0.084667	0.346642	-0.332471	-0.687952	0.061032	0.336669	-0.851807	0.290771	0.200684	0.094473	0.004920	-0.007131	0.112271	0.730575	-0.057720	0.671062	130.575531	-83.454873	35.594327
26674		9.388045	0.831047	-1.013709	-0.307175	0.037376	-0.338636	-0.737798	-0.174149	0.616385	-0.849609	0.302734	0.204834	0.093863	0.008562	-0.010087	0.112847	0.730581	-0.062536	0.670527	132.909892	-83.648722	32.820331
26675		9.337457	1.281038	-1.130238	-0.532619	-0.434917	-0.345201	-0.744950	-0.340263	0.854434	-0.847656	0.306885	0.197021	0.093338	0.013167	-0.011192	0.112595	0.731044	-0.068342	0.669497	136.922071	-83.854719	28.355268
26676		9.031806	1.128123	-1.489501	-0.861113	-0.290978	-0.634562	-0.867768	-0.481152	1.020888	-0.847900	0.316162	0.209473	0.090295	0.011678	-0.014728	0.112183	0.731821	-0.075240	0.667976	142.318860	-84.020361	22.428832
26677		8.894851	0.398407	-1.793642	-0.957915	0.396393	-0.789456	-0.869256	-0.590130	1.145919	-0.844727	0.321045	0.222900	0.088976	0.004417	-0.017692	0.111310	0.732874	-0.082661	0.666087	148.888541	-84.108894	15.323547
26678		9.682336	-0.399971	-0.561935	0.539182	0.733856	-0.148704	-0.566074	-0.570868	1.303060	-0.838867	0.325928	0.223389	0.096862	-0.003384	-0.005333	0.108806	0.733923	-0.089629	0.664443	156.493535	-84.157158	7.353228
26679		9.621138	1.118034	-0.721886	-0.021421	-0.805086	-0.133449	-0.186088	-0.485680	1.134731	-0.833496	0.332764	0.232666	0.096163	0.011719	-0.006996	0.105498	0.734935	-0.094670	0.663158	163.273766	-84.115587	0.430680
26680		10.435935	3.434918	0.065223	0.174035	-3.337463	0.653562	-0.032309	-0.200809	0.549684	-0.834717	0.340820	0.223877	0.104264	0.034636	0.000751	0.103698	0.735343	-0.096895	0.662668	166.486680	-84.082850	-2.817314
26681		11.321465	2.514712	1.427274	1.815690	-2.885811	1.363704	-0.164255	0.031112	0.257126	-0.832031	0.344971	0.227539	0.113184	0.025304	0.014234	0.103463	0.735052	-0.098364	0.662811	167.746316	-84.129239	-4.177794
26682		9.516318	0.004100	-0.438109	0.546171	0.054749	-0.302117	-0.221611	0.145202	-0.074603	-0.829590	0.340088	0.225830	0.095160	0.000001	-0.004450	0.104596	0.734515	-0.098741	0.663172	167.030789	-84.197305	-3.585539
26683		8.681876	0.110392	0.191587	1.017901	-0.196483	-1.190101	0.217233	0.338302	-0.348086	-0.833984	0.337891	0.228027	0.086824	0.000951	0.001770	0.105118	0.733699	-0.096560	0.664314	164.760331	-84.332910	-1.178101
26684		8.895330	-0.937313	0.836968	1.936261	0.659955	-1.065046	0.396966	0.153096	-0.265705	-0.839600	0.328857	0.216797	0.088947	-0.009508	0.008283	0.104617	0.733547	-0.094178	0.664901	163.262875	-84.371502	0.555848
26685		11.026201	-1.160942	2.775887	4.043865	0.379743	0.870621	1.153766	0.242499	-0.135441	-0.843994	0.341797	0.216064	0.110288	-0.011843	0.027557	0.100947	0.733418	-0.089713	0.666227	162.751292	-84.477934	1.734530
26686		13.835148	2.963580	2.207100	2.686291	-3.384858	3.839843	1.525937	0.027728	-0.151976	-0.843750	0.336914	0.203613	0.138377	0.029361	0.022277	0.095867	0.734165	-0.084048	0.666894	162.718116	-84.463456	2.646880
26687		15.610988	2.952645	0.536049	1.298504	-2.907909	5.761848	0.712131	-0.058923	-0.221764	-0.833008	0.338135	0.214111	0.156141	0.029334	0.005511	0.093966	0.734813	-0.080882	0.666842	161.993905	-84.389084	3.784967
26688		12.106769	0.523990	-1.270054	-0.172717	-0.115253	2.370020	0.445240	0.036296	-0.078170	-0.838623	0.341797	0.205566	0.121067	0.005221	-0.012711	0.092605	0.734953	-0.079085	0.667093	161.750581	-84.391106	4.286428
26689		8.419937	3.667186	-1.555055	-1.547121	-3.127179	-1.176202	0.961694	0.070750	-0.116332	-0.832764	0.340332	0.194580	0.084215	0.036697	-0.015404	0.089485	0.735222	-0.075411	0.667649	161.530273	-84.404913	5.061932
26690		8.388637	7.153473	-0.174378	-0.967649	-6.848895	-1.226203	0.803178	-0.132421	-0.110377	-0.838135	0.352295	0.204346	0.083927	0.071495	-0.001401	0.086851	0.736081	-0.072374	0.667386	161.626854	-84.309139	5.427944
26691		8.964643	6.596163	-0.067851	-0.640693	-6.338402	-0.686193	-0.043531	-0.262163	0.178350	-0.836426	0.333984	0.198730	0.089588	0.066041	-0.000575	0.086321	0.736893	-0.073283	0.666458	163.024314	-84.193334	3.998898
26692		9.013505	3.858177	-1.480996	-1.386131	-3.380236	-0.594516	-0.471154	-0.319474	0.451672	-0.837158	0.348633	0.212402	0.090071	0.038750	-0.014757	0.086435	0.737606	-0.076646	0.665275	165.662184	-84.083082	1.076434
26693		9.723442	0.941769	-2.220582	-1.356961	-0.419800	0.104234	-0.284007	-0.289320	0.670593	-0.839844	0.349365	0.210449	0.097234	0.009712	-0.022079	0.085140	0.738205	-0.080181	0.664361	169.435409	-84.000278	-2.880285
26694		10.556226	-1.350530	-2.206749	-0.718113	1.725232	0.894075	0.078309	-0.225155	0.815447	-0.833496	0.357422	0.210205	0.105641	-0.013066	-0.021954	0.082051	0.738675	-0.083017	0.663879	174.027336	-83.936004	-7.451995
26695		10.765369	-2.977374	-2.230678	-0.342907	3.219144	1.107597	0.184099	-0.173474	0.804318	-0.831299	0.362061	0.209717	0.107792	-0.029320	-0.022240	0.078629	0.739008	-0.085439	0.663615	178.490127	-83.863178	-11.833502
26696		9.657853	-3.730487	-2.508660	-0.562486	3.964454	0.059009	0.180403	-0.054336	0.583671	-0.834229	0.376953	0.210449	0.096694	-0.037000	-0.025094	0.076002	0.739029	-0.087010	0.663694	-178.315498	-83.827903	-14.941787
26697		8.644557	-3.059812	-2.404534	-0.733759	3.269981	-0.944694	0.318908	-0.029173	0.314941	-0.826172	0.368164	0.210938	0.086497	-0.030424	-0.024081	0.073765	0.739130	-0.087119	0.663819	-176.486725	-83.799444	-16.596917
26698		8.444592	-1.438877	-2.068336	-0.804307	1.595919	-1.183341	0.324526	-0.066914	0.152251	-0.823730	0.375244	0.209961	0.084464	-0.014291	-0.020678	0.072031	0.739427	-0.086620	0.663745	-175.539714	-83.751599	-17.361866
26699		9.094667	0.041098	-1.950510	-0.951519	0.088496	-0.560342	0.187406	-0.104929	0.117716	-0.822021	0.378906	0.211914	0.090957	0.000483	-0.019457	0.070901	0.739813	-0.086464	0.663456	-174.878251	-83.682491	-17.918775
26700		9.949207	0.939347	-1.877268	-0.984993	-0.850064	0.271973	0.160072	-0.062180	0.152311	-0.820313	0.378174	0.212402	0.099491	0.009484	-0.018734	0.069777	0.740032	-0.086509	0.663325	-174.048825	-83.635118	-18.660391
26701		10.643581	1.544609	-1.347270	-0.532195	-1.602032	0.894179	0.147883	0.022625	0.209547	-0.821533	0.374268	0.217285	0.106418	0.015568	-0.013473	0.068543	0.739940	-0.086779	0.663521	-172.893543	-83.630803	-19.737054
26702		10.692610	1.243644	-0.729642	0.129865	-1.471392	0.875109	-0.015073	0.039862	0.311390	-0.826416	0.388184	0.209473	0.106905	0.012602	-0.007319	0.067583	0.739688	-0.087959	0.663745	-171.305706	-83.625475	-21.342814
26703		10.397282	0.348934	-0.861583	0.158442	-0.592802	0.608009	-0.151690	-0.006679	0.388162	-0.825195	0.386475	0.206543	0.103966	0.003685	-0.008615	0.066852	0.739509	-0.089892	0.663759	-169.455966	-83.581081	-23.291047
26704		10.092564	-0.507616	-0.990344	0.185212	0.243807	0.336421	-0.097744	-0.020175	0.430414	-0.824707	0.399658	0.207031	0.100937	-0.004864	-0.009891	0.065776	0.739371	-0.091806	0.663759	-167.411506	-83.516986	-25.404255
26705		9.868306	-0.962914	-0.717769	0.522154	0.595891	0.096801	0.019916	-0.030501	0.441507	-0.823486	0.397949	0.216064	0.098705	-0.009411	-0.007164	0.064222	0.739296	-0.093374	0.663776	-165.301484	-83.437001	-27.515957
26706		9.777430	-1.413494	-0.492008	0.827928	0.948459	-0.001826	0.056960	-0.056746	0.405844	-0.825928	0.397705	0.209961	0.097804	-0.013935	-0.004896	0.062638	0.739334	-0.094694	0.663698	-163.429933	-83.339839	-29.366545
26707		9.870830	-1.977232	-0.869453	0.596116	1.537152	0.156284	0.041422	-0.081603	0.338875	-0.817139	0.403076	0.208984	0.098745	-0.019603	-0.008658	0.061320	0.739479	-0.095827	0.663497	-161.965926	-83.234247	-30.816217
26708		9.868185	-2.643773	-1.383940	0.247024	2.266193	0.241623	0.064600	-0.086752	0.283352	-0.813965	0.403809	0.206787	0.098725	-0.026293	-0.013805	0.060099	0.739672	-0.096678	0.663270	-160.792943	-83.132242	-31.959637
26709		9.613148	-2.888272	-1.814167	-0.141976	2.586210	0.053276	0.150528	-0.061903	0.232778	-0.822021	0.408447	0.216553	0.096171	-0.028757	-0.018134	0.058740	0.739831	-0.097051	0.663160	-159.785961	-83.050746	-32.886565
26710		9.514934	-2.578421	-1.992751	-0.396227	2.307949	-0.031602	0.170937	-0.051847	0.147871	-0.826660	0.411865	0.207031	0.095174	-0.025697	-0.019925	0.057591	0.740003	-0.097037	0.663070	-159.143736	-82.990226	-33.434276
26711		9.617745	-2.150888	-2.255280	-0.735947	1.926611	0.084796	0.126650	-0.036615	0.077656	-0.817383	0.415283	0.205566	0.096190	-0.021457	-0.022549	0.056846	0.740146	-0.096908	0.662995	-158.812149	-82.951575	-33.694753
26712		9.822734	-1.211919	-2.274053	-0.940302	0.995409	0.249676	0.120776	0.012826	-0.004770	-0.824463	0.411865	0.208496	0.098226	-0.012108	-0.022754	0.056421	0.740162	-0.096477	0.663076	-158.760841	-82.956462	-33.676089
26713		9.975565	-0.537501	-2.000023	-0.810059	0.271054	0.339713	0.037804	0.077758	-0.038064	-0.816162	0.408447	0.207031	0.099747	-0.005390	-0.020040	0.056443	0.739955	-0.096182	0.663347	-158.790033	-83.002757	-33.624352
26714		9.957688	-0.332747	-1.687198	-0.561800	0.012157	0.276769	0.020944	0.132651	-0.038657	-0.818604	0.417725	0.206299	0.099565	-0.003345	-0.016938	0.056557	0.739562	-0.095923	0.663813	-158.740691	-83.078670	-33.661335
26715		10.066859	-0.436819	-1.226502	-0.092927	0.014614	0.337579	0.001668	0.134313	-0.016766	-0.814697	0.409424	0.200928	0.100660	-0.004377	-0.012333	0.056670	0.739147	-0.095811	0.664282	-158.599219	-83.150706	-33.802382
26716		9.858110	-0.961288	-1.063561	0.146537	0.508708	0.135041	-0.046383	0.127310	0.015451	-0.819824	0.412598	0.200928	0.098575	-0.009608	-0.010696	0.056851	0.738726	-0.095977	0.664711	-158.352674	-83.212374	-34.076812
26717		9.583055	-1.216556	-1.059553	0.168326	0.776970	-0.127359	-0.035790	0.116387	0.004111	-0.819580	0.412598	0.202393	0.095825	-0.012165	-0.010649	0.057024	0.738349	-0.096071	0.665101	-158.163971	-83.270317	-34.286989
26718		9.523119	-1.178871	-0.879309	0.319799	0.708427	-0.208075	0.008478	0.105150	-0.003664	-0.826416	0.413574	0.203613	0.095226	-0.011790	-0.008844	0.057055	0.738026	-0.095990	0.665469	-158.004446	-83.324070	-34.442085
26719		9.475225	-0.873988	-0.740036	0.375213	0.387907	-0.283777	0.032643	0.100286	-0.020559	-0.820557	0.405518	0.201416	0.094748	-0.008748	-0.007449	0.057050	0.737733	-0.095771	0.665825	-157.912422	-83.378629	-34.515425
26720		9.570445	-0.508636	-0.495385	0.534103	-0.021487	-0.230840	0.058397	0.100817	-0.043015	-0.821289	0.418213	0.194580	0.095701	-0.005105	-0.005004	0.057025	0.737457	-0.095380	0.666189	-157.909140	-83.438504	-34.484411
26721		9.703597	-0.308963	-0.267363	0.717850	-0.266744	-0.130731	0.026471	0.079959	-0.053075	-0.821045	0.406738	0.197998	0.097034	-0.003115	-0.002713	0.057141	0.737246	-0.095067	0.666457	-158.008174	-83.489267	-34.368978
26722		9.727344	-0.470210	-0.362118	0.657469	-0.084084	-0.089822	-0.007426	0.071310	-0.058490	-0.827637	0.418945	0.192383	0.097271	-0.004731	-0.003656	0.057397	0.737056	-0.094846	0.666677	-158.172581	-83.536755	-34.207158
26723		9.633450	-0.566947	-0.526197	0.506231	0.057545	-0.161672	-0.021055	0.052305	-0.054657	-0.825439	0.408203	0.189941	0.096332	-0.005696	-0.005287	0.057680	0.736924	-0.094693	0.666820	-158.362244	-83.573078	-34.027944
26724		9.567880	-0.695305	-0.752096	0.305619	0.240051	-0.197990	0.004902	0.041391	-0.039102	-0.825439	0.416748	0.192871	0.095676	-0.006972	-0.007541	0.057812	0.736828	-0.094512	0.666940	-158.488095	-83.600432	-33.897838
26725		9.587937	-0.443066	-0.845085	0.159846	0.017061	-0.178729	0.058374	0.042895	-0.046560	-0.826660	0.417969	0.199219	0.095877	-0.004451	-0.008473	0.057771	0.736746	-0.094127	0.667089	-158.614520	-83.629946	-33.736485
26726		9.674616	-0.205816	-0.839790	0.118826	-0.216262	-0.102645	0.048740	0.046157	-0.038837	-0.825439	0.418701	0.198730	0.096744	-0.002075	-0.008421	0.057743	0.736647	-0.093799	0.667247	-158.707262	-83.659728	-33.614436
26727		9.704970	-0.126679	-0.929166	0.014522	-0.272538	-0.066337	0.032168	0.046325	-0.032455	-0.825195	0.416992	0.196289	0.097047	-0.001281	-0.009314	0.057753	0.736539	-0.093552	0.667400	-158.776729	-83.688086	-33.525525
26728		9.605383	-0.216674	-0.847130	0.101938	-0.194095	-0.170080	0.028615	0.024770	0.005902	-0.835693	0.408691	0.188477	0.096053	-0.002163	-0.008484	0.057639	0.736485	-0.093462	0.667483	-158.706368	-83.697135	-33.579184
26729		9.527980	-0.179699	-0.763202	0.167514	-0.244270	-0.257090	0.033686	0.002142	0.020652	-0.828857	0.405029	0.193115	0.095280	-0.001786	-0.007633	0.057446	0.736500	-0.093419	0.667489	-158.601824	-83.690860	-33.664461
26730		9.637827	-0.044814	-0.624787	0.284842	-0.414633	-0.167636	0.028646	-0.035931	0.033905	-0.832764	0.411133	0.191406	0.096379	-0.000431	-0.006231	0.057210	0.736634	-0.093449	0.667356	-158.511298	-83.661652	-33.738392
26731		9.761184	0.348964	-0.338463	0.494489	-0.871257	-0.090886	0.035241	-0.055605	0.046259	-0.829346	0.416504	0.200439	0.097612	0.003513	-0.003357	0.056899	0.736830	-0.093511	0.667157	-158.393403	-83.619190	-33.836213
26732		9.726476	0.498621	-0.104027	0.693098	-1.070993	-0.156790	-0.038895	-0.080139	0.070710	-0.822510	0.407959	0.195557	0.097263	0.005020	-0.001002	0.056769	0.737076	-0.093915	0.666841	-158.252510	-83.558622	-33.999782
26733		9.543876	0.378273	-0.102813	0.710918	-0.953405	-0.335091	-0.112703	-0.123981	0.125105	-0.827637	0.414063	0.196777	0.095437	0.003842	-0.000971	0.056707	0.737420	-0.094780	0.666343	-157.983419	-83.462927	-34.335106
26734		9.431961	0.155591	-0.181377	0.683142	-0.729182	-0.430760	-0.146650	-0.177968	0.178262	-0.830811	0.424072	0.189453	0.094320	0.001639	-0.001731	0.056569	0.737909	-0.095967	0.665643	-157.604154	-83.327008	-34.800855
26735		9.507639	-0.085155	-0.298988	0.643390	-0.496548	-0.334752	-0.153355	-0.222822	0.217787	-0.827148	0.417480	0.197510	0.095080	-0.000750	-0.002883	0.056302	0.738523	-0.097337	0.664785	-157.152346	-83.158155	-35.343790
26736		9.676789	-0.113749	-0.476654	0.511731	-0.468306	-0.148366	-0.139178	-0.248608	0.240334	-0.832520	0.425293	0.197510	0.096775	-0.001024	-0.004646	0.055896	0.739215	-0.098748	0.663842	-156.669867	-82.970246	-35.909519
26737		9.644419	-0.062671	-0.749166	0.252310	-0.485275	-0.154492	-0.144126	-0.255539	0.254307	-0.818848	0.416016	0.200195	0.096454	-0.000509	-0.007368	0.055457	0.739917	-0.100230	0.662873	-156.170305	-82.774812	-36.495677
26738		9.464978	-0.137540	-0.768317	0.250724	-0.424066	-0.328372	-0.090456	-0.241312	0.280370	-0.821777	0.412109	0.208740	0.094661	-0.001246	-0.007568	0.054741	0.740572	-0.101625	0.661988	-155.540696	-82.580107	-37.182078
26739		9.517070	-0.221755	-0.631319	0.425820	-0.406948	-0.290328	-0.004258	-0.262454	0.288071	-0.820801	0.425293	0.209229	0.095182	-0.002081	-0.006188	0.053668	0.741314	-0.102770	0.661068	-154.902685	-82.371500	-37.827571
26740		9.611018	-0.456971	-0.686617	0.454359	-0.207067	-0.179283	0.004840	-0.280090	0.302945	-0.824463	0.429688	0.215088	0.096126	-0.004424	-0.006732	0.052504	0.742106	-0.103943	0.660089	-154.271637	-82.149287	-38.460984
26741		9.763040	-0.696423	-0.873895	0.364890	0.017979	0.007293	0.006039	-0.311300	0.307107	-0.819824	0.430664	0.214355	0.097654	-0.006814	-0.008587	0.051305	0.742995	-0.105136	0.658993	-153.713720	-81.908992	-39.020323
26742		9.713340	-0.931728	-1.046267	0.270421	0.250334	-0.005763	-0.014092	-0.345233	0.339999	-0.811523	0.429443	0.213135	0.097167	-0.009153	-0.010294	0.050054	0.743971	-0.106525	0.657765	-153.146285	-81.642223	-39.601172
26743		9.446742	-0.877182	-1.039527	0.261188	0.179959	-0.273809	0.027813	-0.357234	0.362260	-0.815186	0.438965	0.224609	0.094501	-0.008599	-0.010228	0.048567	0.744979	-0.107863	0.656516	-152.535300	-81.362580	-40.202294
26744		9.484811	-0.257665	-0.812793	0.372334	-0.515773	-0.310908	0.105005	-0.367762	0.355699	-0.813232	0.439453	0.213623	0.094867	-0.002404	-0.007955	0.046809	0.746039	-0.108922	0.655264	-151.959626	-81.078542	-40.723275
26745		9.602207	0.321422	-0.673976	0.418610	-1.161385	-0.260950	0.026317	-0.384037	0.356699	-0.818115	0.441162	0.217529	0.096029	0.003386	-0.006555	0.045331	0.747128	-0.110249	0.653904	-151.484931	-80.785213	-41.188173
26746		9.567570	0.117646	-0.880323	0.288930	-0.957849	-0.256221	-0.063143	-0.378035	0.375443	-0.806152	0.447266	0.231445	0.095690	0.001353	-0.008623	0.044130	0.748162	-0.111933	0.652516	-151.025126	-80.489240	-41.690210
26747		9.389914	-0.231454	-1.011048	0.247256	-0.615672	-0.389002	-0.006585	-0.392046	0.411841	-0.808594	0.451904	0.228271	0.093923	-0.002121	-0.009926	0.042590	0.749228	-0.113574	0.651111	-150.478882	-80.175292	-42.247600
26748		9.444479	-0.733654	-1.108272	0.302776	-0.161181	-0.281329	0.041033	-0.418967	0.426787	-0.796631	0.449219	0.237061	0.094483	-0.007133	-0.010886	0.040807	0.750376	-0.115118	0.649629	-149.943016	-79.842911	-42.767202
26749		9.647245	-1.054768	-1.349762	0.200585	0.127095	-0.017432	0.029104	-0.450060	0.430403	-0.799316	0.464844	0.249268	0.096525	-0.010338	-0.013282	0.039039	0.751614	-0.116721	0.648019	-149.485207	-79.493264	-43.215050
26750		9.720925	-1.455120	-1.630919	0.064675	0.513517	0.137460	0.000708	-0.460597	0.436839	-0.793945	0.462646	0.244629	0.097278	-0.014339	-0.016085	0.037351	0.752870	-0.118440	0.646347	-149.073451	-79.136015	-43.633013
26751		9.676032	-1.482876	-1.597710	0.132194	0.487120	0.092973	0.041751	-0.453927	0.432346	-0.791992	0.458252	0.248291	0.096828	-0.014616	-0.015760	0.035525	0.754106	-0.120009	0.644717	-148.664736	-78.782747	-44.024506
26752		9.529544	-1.231040	-1.426578	0.253845	0.176786	-0.103578	0.003607	-0.445102	0.419143	-0.795166	0.466064	0.247559	0.095352	-0.012110	-0.014054	0.033892	0.755308	-0.121646	0.643089	-148.321595	-78.437336	-44.371786
26753		9.420311	-1.038358	-1.306721	0.344775	-0.066495	-0.252122	-0.075551	-0.455079	0.391312	-0.782715	0.477539	0.261963	0.094253	-0.010204	-0.012849	0.032640	0.756538	-0.123435	0.641365	-148.120497	-78.095067	-44.620824
26754		9.422851	-0.931888	-1.343980	0.322609	-0.206903	-0.256661	-0.126487	-0.485861	0.382233	-0.782959	0.480957	0.253174	0.094278	-0.009147	-0.013205	0.031591	0.757857	-0.125355	0.639484	-148.025330	-77.740527	-44.791613
26755		9.450562	-0.893005	-1.560796	0.150416	-0.248705	-0.196978	-0.151477	-0.518494	0.394485	-0.776855	0.476807	0.257568	0.094563	-0.008755	-0.015356	0.030576	0.759261	-0.127408	0.637460	-147.968404	-77.366290	-44.938222
26756		9.320065	-0.928227	-1.594429	0.148254	-0.235911	-0.315876	-0.107176	-0.529323	0.444983	-0.778809	0.479736	0.263428	0.093263	-0.009083	-0.015693	0.029225	0.760665	-0.129508	0.635423	-147.801754	-76.971430	-45.171470
26757		9.294606	-0.675714	-1.371914	0.340560	-0.573550	-0.416777	-0.109666	-0.552213	0.458655	-0.771973	0.487793	0.272461	0.092999	-0.006551	-0.013459	0.027825	0.762122	-0.131673	0.633292	-147.648903	-76.561089	-45.392462
26758		9.577384	-0.779346	-1.340681	0.486795	-0.580541	-0.140219	-0.210656	-0.597050	0.469537	-0.770996	0.484375	0.275879	0.095831	-0.007582	-0.013113	0.026745	0.763690	-0.134201	0.630914	-147.599790	-76.125692	-45.566561
26759		9.683724	-1.164952	-1.597110	0.402626	-0.229484	0.059856	-0.278218	-0.619907	0.482435	-0.762207	0.488770	0.285156	0.096914	-0.011438	-0.015655	0.025867	0.765298	-0.136994	0.628397	-147.597776	-75.675204	-45.732410
26760		9.557166	-1.310269	-1.754492	0.320102	-0.090552	-0.013540	-0.294334	-0.634927	0.483947	-0.758301	0.498535	0.286621	0.095658	-0.012897	-0.017222	0.025035	0.766938	-0.139841	0.625799	-147.625747	-75.217049	-45.877091
26761		9.512226	-1.471147	-2.002925	0.172058	0.068341	0.017043	-0.290786	-0.670185	0.486007	-0.757080	0.489990	0.296143	0.095224	-0.014509	-0.019689	0.024158	0.768672	-0.142689	0.623057	-147.690450	-74.741178	-45.982005
26762		9.572725	-1.398552	-2.097479	0.135473	-0.050869	0.085337	-0.264828	-0.704973	0.499098	-0.753418	0.500732	0.310059	0.095835	-0.013774	-0.020619	0.023115	0.770493	-0.145505	0.620189	-147.758063	-74.244527	-46.068649
26763		9.468159	-1.119671	-1.940059	0.256358	-0.391370	-0.094456	-0.331124	-0.721535	0.518368	-0.746338	0.504883	0.317139	0.094779	-0.010983	-0.019040	0.022255	0.772327	-0.148602	0.617198	-147.848207	-73.733952	-46.171644
26764		9.463685	-1.345924	-1.211857	1.064948	-0.394344	-0.244450	-0.379599	-0.727002	0.523604	-0.738770	0.497559	0.326660	0.094715	-0.013234	-0.011749	0.021562	0.774151	-0.151864	0.614136	-147.964175	-73.219225	-46.276884
26765		9.646913	-2.020943	-1.222057	1.335699	0.147286	0.027736	-0.386790	-0.802631	0.546742	-0.736572	0.504883	0.324707	0.096572	-0.019969	-0.011794	0.020766	0.776168	-0.155244	0.610763	-148.120857	-72.660756	-46.344194
26766		9.769897	-2.429292	-1.859092	0.947472	0.581424	0.364339	-0.416377	-0.852982	0.531613	-0.739014	0.512939	0.336914	0.097841	-0.024071	-0.018124	0.020093	0.778327	-0.158654	0.607151	-148.362399	-72.082425	-46.340411
26767		9.352197	-2.107247	-2.017814	0.702535	0.337282	-0.047059	-0.374640	-0.854840	0.519585	-0.726318	0.512451	0.343018	0.093661	-0.020867	-0.019739	0.019292	0.780480	-0.161888	0.603548	-148.591338	-71.506778	-46.324735
26768		9.298589	-1.149489	-1.870732	0.641031	-0.654452	-0.302446	-0.238387	-0.909788	0.480847	-0.724609	0.511230	0.349609	0.093097	-0.011293	-0.018270	0.018031	0.782824	-0.164559	0.599819	-148.839353	-70.915745	-46.206369
26769		9.767640	-0.893778	-2.272016	0.384193	-0.981127	0.200126	-0.375240	-0.999504	0.491221	-0.715820	0.520020	0.357666	0.097810	-0.008740	-0.022215	0.017199	0.785389	-0.167685	0.595609	-149.212637	-70.277380	-46.037910
26770		9.677215	-1.016840	-2.874236	-0.071053	-0.774871	0.303493	-0.425611	-1.011120	0.546760	-0.709229	0.524414	0.373047	0.096943	-0.009964	-0.028231	0.016391	0.787911	-0.171173	0.591293	-149.533712	-69.616750	-45.955040
26771		9.509403	-0.333311	-2.934885	-0.275756	-1.433370	0.037274	-0.317292	-1.032606	0.561330	-0.699219	0.521973	0.387207	0.095253	-0.003112	-0.028852	0.015092	0.790462	-0.174395	0.586966	-149.777986	-68.941156	-45.887578
26772		9.711545	0.012113	-2.916423	-0.220003	-1.887174	0.147673	-0.346580	-1.075795	0.564699	-0.688965	0.531250	0.388184	0.097270	0.000346	-0.028642	0.013863	0.793105	-0.177711	0.582418	-150.057090	-68.243069	-45.800407
26773		10.051322	-0.214392	-3.079521	-0.118562	-1.805920	0.544999	-0.383983	-1.131564	0.603453	-0.680908	0.531982	0.397705	0.100691	-0.001899	-0.030222	0.012617	0.795839	-0.181287	0.577595	-150.337372	-67.506103	-45.734664
26774		10.454653	-0.670482	-2.743837	0.536737	-1.655072	0.876043	-0.364737	-1.147082	0.662773	-0.674072	0.540527	0.412354	0.104723	-0.006407	-0.026826	0.011110	0.798529	-0.185035	0.572704	-150.538027	-66.744505	-45.743015
26775		10.634963	-0.753637	-2.637827	0.813850	-1.750442	0.999356	-0.353849	-1.178890	0.710515	-0.674561	0.536133	0.417725	0.106529	-0.007204	-0.025738	0.009392	0.801227	-0.188936	0.567672	-150.692767	-65.953687	-45.794702
26776		10.350062	-1.037388	-2.703323	0.870374	-1.489870	0.795271	-0.462195	-1.204541	0.736441	-0.661377	0.537354	0.434326	0.103698	-0.010054	-0.026386	0.008011	0.803926	-0.193238	0.562404	-150.893729	-65.142792	-45.864159
26777		9.859784	-0.609272	-2.770843	0.635873	-1.821069	0.264106	-0.436200	-1.234563	0.735102	-0.649902	0.548096	0.438232	0.098788	-0.005789	-0.027086	0.006499	0.806665	-0.197453	0.557011	-151.094716	-64.317446	-45.917541
26778		9.894559	0.407296	-2.334276	0.807244	-2.965363	-0.113700	-0.375749	-1.253581	0.729816	-0.636230	0.550537	0.440674	0.099074	0.004391	-0.022730	0.004739	0.809421	-0.201467	0.551567	-151.273825	-63.483977	-45.957127
26779		10.058307	0.471983	-2.196048	1.059134	-3.206654	-0.075712	-0.546559	-1.317892	0.791083	-0.633301	0.545898	0.459473	0.100705	0.005059	-0.021311	0.003436	0.812237	-0.206190	0.545661	-151.519696	-62.601578	-46.031832
26780		10.139451	-0.066107	-2.600128	1.016607	-2.755580	0.234427	-0.575038	-1.403333	0.898781	-0.618652	0.546387	0.468506	0.101575	-0.000278	-0.025288	0.001867	0.815117	-0.211413	0.539338	-151.719716	-61.646761	-46.177566
26781		10.527073	-0.011827	-2.523810	1.306173	-3.077565	0.483371	-0.442615	-1.451297	0.954125	-0.610596	0.556885	0.473389	0.105449	0.000330	-0.024474	-0.000442	0.818003	-0.216489	0.532920	-151.817101	-60.653140	-46.355120
26782		10.997834	0.441533	-2.052479	1.830301	-3.897481	0.522522	-0.445050	-1.479570	1.007176	-0.601074	0.556152	0.488281	0.110102	0.004925	-0.019721	-0.002913	0.820840	-0.221770	0.526337	-151.886532	-59.630792	-46.568356
26783		11.274815	1.054404	-1.759021	2.071715	-4.760002	0.403687	-0.522974	-1.551573	1.063233	-0.588135	0.568604	0.504639	0.112822	0.011099	-0.016744	-0.005291	0.823730	-0.227465	0.519327	-151.990428	-58.557410	-46.795616
26784		11.682500	1.499162	-1.595954	2.305891	-5.499929	0.468606	-0.580043	-1.631058	1.124380	-0.568359	0.569580	0.512207	0.116864	0.015604	-0.015051	-0.007683	0.826677	-0.233535	0.511867	-152.116709	-57.427297	-47.037872
26785		12.155831	2.197882	-1.322433	2.561147	-6.528812	0.441786	-0.625907	-1.718169	1.174140	-0.543701	0.564209	0.527832	0.121535	0.022653	-0.012250	-0.010113	0.829695	-0.239897	0.503938	-152.270866	-56.240469	-47.281208
26786		12.365449	2.537924	-1.216966	2.710143	-7.105230	0.335806	-0.741835	-1.824726	1.245634	-0.526611	0.558105	0.547119	0.123598	0.026107	-0.011138	-0.012369	0.832798	-0.246813	0.495356	-152.483587	-54.980572	-47.537736
26787		12.224463	2.235123	-1.511994	2.648938	-6.886138	0.300569	-0.851888	-1.937661	1.282776	-0.512695	0.567383	0.556396	0.122238	0.023074	-0.014033	-0.014395	0.836020	-0.254111	0.486098	-152.776696	-53.654623	-47.776900
26788		12.413043	1.577861	-1.770919	2.914613	-6.518834	0.613852	-0.878238	-2.045996	1.279733	-0.490967	0.570557	0.569824	0.124199	0.016499	-0.016510	-0.016440	0.839379	-0.261415	0.476273	-153.123899	-52.274446	-47.971536
26789		12.642515	0.721827	-2.289459	3.107774	-5.960472	1.160132	-0.877908	-2.139231	1.267112	-0.474121	0.563477	0.586670	0.126612	0.007923	-0.021575	-0.018574	0.842832	-0.268608	0.465982	-153.505820	-50.851333	-48.124993
26790		12.613716	-0.669961	-3.184808	3.174589	-4.763939	1.888421	-0.828996	-2.205985	1.234245	-0.446045	0.571777	0.600830	0.126517	-0.006048	-0.030428	-0.020926	0.846333	-0.275500	0.455392	-153.894820	-49.402180	-48.236224
26791		12.157246	-2.365992	-4.791426	2.699757	-2.973868	2.844798	-0.739408	-2.285640	1.170275	-0.433350	0.565430	0.613281	0.122245	-0.023119	-0.046434	-0.023614	0.849943	-0.281856	0.444518	-154.285881	-47.929341	-48.278629
26792		12.341106	-4.388387	-6.135211	2.925626	-1.321037	4.290001	-0.424447	-2.256404	1.138595	-0.410400	0.570801	0.623779	0.124340	-0.043306	-0.059860	-0.027527	0.853350	-0.287336	0.434135	-154.499386	-46.478788	-48.318237
26793		12.653181	-5.896876	-7.498377	2.975341	-0.229878	5.749589	0.190841	-2.039554	1.254574	-0.385742	0.581055	0.622314	0.127654	-0.058100	-0.073741	-0.033999	0.855902	-0.291955	0.425486	-154.245502	-45.112686	-48.518637
26794		11.460519	-6.740275	-8.198290	2.460631	0.914727	5.584887	0.635593	-1.727104	1.344802	-0.366211	0.578369	0.632568	0.115757	-0.066368	-0.081199	-0.042108	0.857466	-0.296033	0.418741	-153.630336	-43.882484	-48.875811
26795		9.385763	-7.051535	-8.239338	1.685309	2.005994	4.288112	0.862393	-1.346522	1.237876	-0.347656	0.583984	0.631348	0.094843	-0.069576	-0.082058	-0.050398	0.858242	-0.299218	0.413945	-152.867331	-42.872453	-49.265582
26796		7.228876	-7.371842	-7.742578	1.212256	3.135861	2.646868	0.963655	-1.203531	1.092109	-0.329590	0.597900	0.632324	0.073154	-0.072948	-0.077340	-0.058602	0.858833	-0.301581	0.409903	-152.101028	-41.969128	-49.582107
26797		5.411887	-7.640808	-7.642222	0.543052	4.162099	1.521012	1.165971	-1.124640	0.794358	-0.317871	0.609131	0.627441	0.054851	-0.075745	-0.076558	-0.066936	0.859579	-0.302246	0.406560	-151.350410	-41.183942	-49.706060
26798		5.131862	-6.955652	-8.343758	-0.439369	3.680542	1.615051	1.224472	-1.262679	0.397186	-0.316650	0.618408	0.633301	0.051983	-0.068942	-0.083534	-0.074921	0.861116	-0.301016	0.402809	-150.780856	-40.438087	-49.503087
26799		6.102111	-6.925150	-8.478454	-0.063363	2.946719	2.368789	0.943225	-1.241023	0.285860	-0.301270	0.620117	0.620361	0.061645	-0.068764	-0.084728	-0.081430	0.862819	-0.299857	0.398745	-150.416006	-39.736357	-49.229546
26800		6.045997	-6.483318	-7.115663	0.712755	2.364360	1.283306	0.988606	-0.636535	0.169525	-0.294189	0.626221	0.618896	0.060741	-0.064430	-0.071283	-0.086996	0.863432	-0.298339	0.397381	-149.931485	-39.369090	-49.099923
26801		5.894168	-4.110967	-5.542164	0.697699	0.328081	-0.770458	1.317413	-0.205013	-0.132924	-0.292725	0.626709	0.617920	0.058971	-0.040783	-0.055631	-0.092731	0.863459	-0.295035	0.398490	-149.280854	-39.304550	-48.934430
26802		5.823648	-1.113131	-4.572721	0.031697	-2.169367	-2.646351	1.352069	0.025477	-0.340495	-0.291016	0.645996	0.609619	0.058212	-0.010921	-0.045809	-0.097860	0.863277	-0.290862	0.400718	-148.638827	-39.415152	-48.724267
26803		5.292773	0.989301	-4.134366	-0.825469	-3.609359	-4.122674	0.662246	0.345258	-0.431133	-0.298828	0.637695	0.605469	0.052878	0.009916	-0.041402	-0.099357	0.862895	-0.287826	0.403356	-148.350094	-39.710853	-48.581414
26804		4.504740	0.382699	-4.081990	-0.953537	-2.637893	-4.405859	-0.347012	0.721837	-0.540994	-0.301514	0.640625	0.608398	0.044910	0.003634	-0.040989	-0.095738	0.862396	-0.286533	0.406211	-148.590879	-40.222996	-48.515108
26805		3.821733	-0.700533	-4.896743	-1.490879	-1.240835	-3.870345	-0.621988	1.062840	-0.711115	-0.312256	0.631348	0.605469	0.037931	-0.007293	-0.049147	-0.090093	0.861546	-0.285214	0.410213	-148.977352	-40.953199	-48.467928
26806		3.135578	-0.689945	-5.012416	-1.968681	-0.770301	-4.248308	-0.287990	1.414952	-0.913689	-0.329834	0.633301	0.598633	0.030968	-0.007114	-0.050334	-0.084967	0.860061	-0.282482	0.416269	-149.172901	-41.915189	-48.420826
26807		2.604030	-0.379820	-4.479952	-2.007862	-0.695302	-5.071444	-0.262887	1.736877	-1.115017	-0.344482	0.610107	0.607178	0.025628	-0.004001	-0.045018	-0.079067	0.858100	-0.278938	0.423800	-149.362495	-43.095420	-48.361732
26808		2.404643	-0.417199	-4.062926	-1.822511	-0.504588	-5.466833	-0.683350	2.031105	-1.345113	-0.358398	0.602295	0.610352	0.023603	-0.004471	-0.040856	-0.070455	0.855890	-0.275382	0.432034	-149.828745	-44.486629	-48.252885
26809		2.630035	-0.998371	-4.241600	-1.668702	0.007395	-5.004531	-1.206048	2.298422	-1.626914	-0.387939	0.593262	0.602295	0.025727	-0.010451	-0.042652	-0.058613	0.853505	-0.271785	0.440712	-150.679605	-46.090793	-48.026963
26810		3.108242	-1.815673	-4.791793	-1.597920	0.700242	-4.079304	-1.472903	2.581919	-1.913156	-0.408691	0.575195	0.592773	0.030284	-0.018803	-0.048175	-0.044603	0.850730	-0.267568	0.450196	-151.793037	-47.912441	-47.657731
26811		3.516471	-2.766964	-5.360064	-1.537393	1.625312	-3.199016	-1.468257	2.879767	-2.133097	-0.436768	0.546875	0.595459	0.034090	-0.028432	-0.053890	-0.029703	0.847285	-0.262374	0.460853	-153.002414	-49.939100	-47.168466
26812		3.784329	-3.642935	-5.783466	-1.483587	2.594186	-2.594561	-1.284469	3.145785	-2.277839	-0.463379	0.540039	0.582764	0.036509	-0.037223	-0.058179	-0.014888	0.843056	-0.256085	0.472711	-154.195615	-52.131122	-46.579796
26813		3.973942	-4.110796	-6.083607	-1.570950	3.260176	-2.289768	-0.918286	3.331588	-2.388545	-0.504395	0.513184	0.568115	0.038224	-0.041851	-0.061290	-0.001110	0.838139	-0.248363	0.485631	-155.292358	-54.439472	-45.867189
26814		4.336877	-4.003690	-5.913120	-1.483642	3.253692	-2.262550	-0.496023	3.458557	-2.506852	-0.527100	0.504883	0.554932	0.041831	-0.040715	-0.059763	0.011342	0.832682	-0.239013	0.499385	-156.307809	-56.832954	-44.980814
26815		5.106508	-3.370902	-5.575114	-1.345894	2.588946	-2.066972	-0.267602	3.542524	-2.626391	-0.560547	0.483154	0.541504	0.049618	-0.034442	-0.056593	0.023239	0.826774	-0.228474	0.513522	-157.404645	-59.288729	-43.868315
26816		6.246815	-2.679726	-5.495436	-1.333782	1.847761	-1.374837	-0.338228	3.597278	-2.720041	-0.587646	0.472168	0.532227	0.061094	-0.027729	-0.056015	0.035717	0.820414	-0.217612	0.527533	-158.801288	-61.779579	-42.486411
26817		7.313280	-2.752468	-6.052189	-1.619935	2.083562	-0.288700	-0.582190	3.668150	-2.761737	-0.620850	0.453125	0.494629	0.071617	-0.028699	-0.061762	0.049366	0.813438	-0.207093	0.541290	-160.624468	-64.297455	-40.814755
26818		7.994885	-3.586709	-7.337501	-2.417940	3.444367	0.812154	-0.552245	3.770058	-2.790900	-0.644531	0.433350	0.478271	0.078036	-0.037170	-0.074757	0.063048	0.805781	-0.196240	0.555186	-162.795963	-66.847547	-38.777202
26819		7.843020	-4.140707	-7.776682	-2.917970	4.542716	0.673374	0.014561	3.930495	-2.829107	-0.680420	0.404541	0.458740	0.076286	-0.042491	-0.079283	0.074676	0.797434	-0.183494	0.569959	-165.126775	-69.457768	-36.256925
26820		7.121927	-3.411573	-6.167979	-2.280582	3.857453	-0.851473	0.483853	3.985291	-2.964881	-0.700195	0.388184	0.421631	0.069456	-0.035003	-0.063160	0.084824	0.788751	-0.168741	0.584982	-168.075002	-72.070539	-32.841014
26821		7.559648	-2.519855	-4.829501	-1.563146	2.846393	-1.079965	0.313608	3.672924	-3.090080	-0.733398	0.367432	0.398682	0.074292	-0.026276	-0.049708	0.095696	0.780540	-0.154021	0.598229	-172.525237	-74.442329	-28.006589
26822		9.085050	-3.057935	-5.080380	-1.475016	3.602167	0.312951	-0.011081	3.299858	-3.041622	-0.759033	0.346680	0.371826	0.089517	-0.031950	-0.052286	0.107350	0.772832	-0.140559	0.609467	-178.677074	-76.460617	-21.658261
26823		9.855383	-4.020131	-5.385635	-1.493662	4.925414	0.947572	0.177147	3.120118	-2.872945	-0.773682	0.323486	0.344482	0.097107	-0.041555	-0.055415	0.117587	0.765284	-0.127203	0.619946	173.764115	-78.176790	-13.807163
26824		9.912428	-4.467494	-4.769363	-1.014932	5.490056	0.664589	0.612363	2.795546	-2.630082	-0.786377	0.297119	0.322998	0.097846	-0.045818	-0.049206	0.125149	0.758529	-0.113567	0.629344	165.117258	-79.475578	-4.636222
26825		9.627087	-4.611746	-4.568578	-1.068900	5.858704	0.154331	0.883800	2.305045	-2.360403	-0.811523	0.289795	0.306641	0.095183	-0.047039	-0.046994	0.130514	0.753079	-0.100368	0.636997	156.011700	-80.270351	5.127568
26826		9.091744	-3.983342	-4.816260	-1.789161	5.569324	-0.458726	1.033569	1.855254	-2.184355	-0.820557	0.273926	0.292480	0.090024	-0.040567	-0.049209	0.134495	0.748875	-0.087622	0.642977	147.058068	-80.605756	14.807890
26827		8.822966	-2.586119	-4.486828	-2.102972	4.310359	-0.776200	1.112351	1.502373	-1.949061	-0.828125	0.261230	0.270996	0.087633	-0.026465	-0.045674	0.137241	0.745600	-0.075724	0.647697	139.166597	-80.620631	23.452628
26828		8.677825	-1.051498	-4.118477	-2.330310	2.869704	-0.884948	0.966839	1.113684	-1.582771	-0.841797	0.258545	0.256592	0.086461	-0.010999	-0.041719	0.139176	0.743234	-0.065917	0.651067	133.152999	-80.449028	30.111278
26829		8.519327	-0.630447	-4.012547	-2.433807	2.522504	-1.049713	0.629752	0.680983	-1.054620	-0.835693	0.243164	0.255127	0.085022	-0.006626	-0.040436	0.140490	0.741806	-0.059468	0.653032	129.455980	-80.249506	34.227874
26830		8.257022	-0.971088	-4.103793	-2.498886	2.899532	-1.368121	0.300651	0.300969	-0.398338	-0.847656	0.240479	0.246094	0.082489	-0.009813	-0.041177	0.140765	0.741172	-0.056790	0.653930	128.033198	-80.176238	35.847111
26831		8.192308	-0.784021	-4.018197	-2.490168	2.692007	-1.420630	0.124658	-0.019906	0.229171	-0.830322	0.245361	0.249268	0.081936	-0.007721	-0.040179	0.139548	0.741280	-0.057241	0.654029	128.642630	-80.269239	35.301714
26832		8.333592	-0.405826	-3.587343	-2.157365	2.179973	-1.264261	-0.034286	-0.321356	0.744485	-0.841064	0.246582	0.252930	0.083408	-0.003754	-0.035739	0.137148	0.742110	-0.060330	0.653317	131.080631	-80.475483	32.809615
26833		8.125211	-0.675460	-3.368464	-1.884237	2.279704	-1.501634	-0.390279	-0.586342	1.170818	-0.831055	0.257813	0.262695	0.081388	-0.006344	-0.033434	0.134591	0.743409	-0.066345	0.651787	135.123448	-80.732800	28.485760
26834		7.719979	-1.641721	-3.790114	-2.036996	3.195725	-1.919974	-0.656271	-0.790718	1.483903	-0.827637	0.263916	0.258545	0.077468	-0.015967	-0.037542	0.131927	0.745044	-0.074522	0.649578	140.560318	-80.964438	22.598706
26835		7.188566	-2.227435	-3.794082	-1.899774	3.614664	-2.440081	-0.542766	-0.884260	1.692856	-0.823242	0.282227	0.274658	0.072238	-0.021766	-0.037562	0.128114	0.746912	-0.083167	0.647142	147.130185	-81.124423	15.633662
26836		8.249042	-2.638032	-0.958972	1.093703	3.066876	-1.730529	0.074521	-0.714071	1.777139	-0.816406	0.289063	0.271240	0.082754	-0.025642	-0.009304	0.121782	0.748519	-0.090009	0.645590	154.206690	-81.263069	8.516809
26837		13.640102	4.652242	4.859281	5.315991	-5.620504	3.281484	2.614424	0.176468	1.285260	-0.808838	0.315186	0.271484	0.136144	0.046758	0.049083	0.107914	0.748905	-0.086260	0.648116	159.961664	-81.639477	4.212542
26838		21.109102	16.097991	9.507996	7.804183	-17.923427	10.509320	0.257189	-0.256802	0.626930	-0.803467	0.320068	0.273438	0.210463	0.161518	0.095558	0.104807	0.749623	-0.087904	0.647576	162.741701	-81.611113	1.552137
26839		17.889725	-2.960359	-4.291069	-0.620033	4.028238	8.369875	-1.561596	-0.589942	0.768449	-0.799316	0.317383	0.277344	0.179135	-0.029247	-0.042153	0.107908	0.750366	-0.096139	0.645030	165.305977	-81.403642	-1.944612
26840		6.321335	-5.671741	-4.150046	-1.400214	6.565699	-3.158265	0.846751	-0.249776	0.377195	-0.802246	0.329102	0.273438	0.063372	-0.056422	-0.041661	0.103392	0.751460	-0.094949	0.644672	167.393909	-81.311773	-3.565156
26841		5.974264	-4.444905	-3.876465	-1.559995	5.255944	-3.455266	1.138626	-0.782564	0.472733	-0.795898	0.332031	0.283691	0.059999	-0.044087	-0.038782	0.097214	0.754348	-0.093452	0.642476	170.301042	-80.920551	-5.846715
26842		8.377830	-1.461564	-3.906024	-1.983593	2.252995	-0.948779	1.649886	-1.223923	0.514574	-0.788086	0.341309	0.285156	0.084052	-0.014080	-0.038664	0.088761	0.758820	-0.090674	0.638820	173.597833	-80.263616	-8.229547
26843		8.732584	1.636673	-3.712130	-2.447006	-0.935260	-0.547058	1.750379	-0.952818	0.576973	-0.786865	0.350586	0.285645	0.087453	0.016941	-0.036558	0.079838	0.762359	-0.087686	0.636196	176.728839	-79.743782	-10.389898
26844		9.028959	1.816446	-4.288825	-2.906383	-1.116476	-0.142103	1.051456	-0.928724	0.626895	-0.781494	0.350830	0.285156	0.090429	0.018671	-0.042371	0.073426	0.765457	-0.087090	0.633324	179.357761	-79.220499	-12.450332
26845		9.883680	-0.158548	-5.146815	-3.044837	0.837411	0.875048	0.587708	-0.982426	0.794556	-0.776123	0.364258	0.290771	0.099093	-0.001042	-0.050985	0.068229	0.768440	-0.088622	0.630072	-178.015105	-78.648565	-14.783531
26846		10.228304	-2.103907	-5.621395	-2.945651	2.668517	1.360678	1.002280	-0.764128	1.021922	-0.770264	0.374268	0.297852	0.102602	-0.020235	-0.055925	0.060817	0.770732	-0.089640	0.627884	-174.732567	-78.170924	-17.547479
26847		10.894906	-2.692452	-4.075717	-1.202597	2.699934	1.755396	1.364498	-0.447143	1.252663	-0.760498	0.386230	0.287354	0.109205	-0.025963	-0.040693	0.051421	0.771976	-0.090309	0.627099	-170.759053	-77.822421	-20.809932
26848		9.327462	-1.488804	-2.976542	-0.723350	1.267312	-0.017426	1.118823	-0.158911	1.026581	-0.766357	0.397705	0.291504	0.093372	-0.014242	-0.029772	0.043810	0.772297	-0.090792	0.627212	-167.550173	-77.618939	-23.437218
26849		9.100237	-0.359706	-2.945963	-0.964425	0.071598	-0.289734	0.750396	-0.301430	0.582912	-0.759521	0.408936	0.282471	0.091056	-0.003222	-0.029335	0.038944	0.773153	-0.090749	0.626484	-165.840422	-77.370511	-24.747588
26850		9.554929	-0.778806	-3.897132	-1.685538	0.538800	0.383348	0.397318	-0.469013	0.339419	-0.762451	0.415527	0.287109	0.095653	-0.007549	-0.038762	0.036131	0.774562	-0.090897	0.624889	-165.088784	-77.058366	-25.284252
26851		9.424328	-1.395831	-5.011355	-2.637777	1.296719	0.543008	0.224497	-0.333453	0.254225	-0.755859	0.413818	0.283936	0.094344	-0.013782	-0.049972	0.034313	0.775548	-0.091234	0.623718	-164.576081	-76.832393	-25.677986
26852		9.191509	-0.625394	-5.046856	-2.846003	0.523788	0.285401	0.361922	-0.161628	0.330598	-0.760986	0.417725	0.282471	0.091966	-0.006011	-0.050405	0.031804	0.775981	-0.091404	0.623287	-163.710155	-76.688390	-26.353878
26853		10.074414	1.200681	-4.236562	-2.209213	-1.547026	0.846097	0.407262	-0.136395	0.422237	-0.759521	0.414063	0.284668	0.100747	0.012306	-0.042272	0.028843	0.776296	-0.091788	0.622982	-162.605867	-76.540010	-27.248619
26854		11.119485	0.375187	-3.742278	-1.361817	-0.987213	1.804495	-0.251042	-0.170118	0.594953	-0.748291	0.427490	0.290039	0.111215	0.004036	-0.037333	0.027885	0.776533	-0.094893	0.622265	-161.537977	-76.339245	-28.494439
26855		10.742833	-2.407523	-4.654825	-1.793292	1.875671	1.855119	-0.709109	-0.114760	0.722330	-0.748779	0.421875	0.292480	0.107541	-0.023852	-0.046402	0.028333	0.776461	-0.099912	0.621549	-160.441395	-76.138805	-30.041188
26856		9.620823	-4.504590	-5.013868	-1.949317	4.069042	1.033196	-0.458652	-0.005400	0.748542	-0.746338	0.439209	0.296387	0.096378	-0.044800	-0.050033	0.027783	0.776052	-0.104233	0.621375	-159.095800	-75.984581	-31.697707
26857		8.735301	-5.283860	-4.414466	-1.400247	4.782111	0.131283	-0.066598	0.116802	0.686989	-0.746338	0.438232	0.292725	0.087508	-0.052553	-0.044178	0.025965	0.775339	-0.107082	0.621859	-157.582178	-75.898041	-33.296894
26858		8.472284	-5.321250	-3.680577	-0.759937	4.671250	-0.260539	0.129400	0.147372	0.570940	-0.741211	0.438477	0.288086	0.084847	-0.052947	-0.036903	0.023765	0.774610	-0.108863	0.622547	-156.190349	-75.844411	-34.655030
26859		8.473698	-4.561273	-3.154384	-0.433229	3.797457	-0.434502	0.271764	0.187108	0.324016	-0.748047	0.448975	0.284424	0.084781	-0.045432	-0.031685	0.021802	0.773903	-0.109244	0.623429	-155.196256	-75.862259	-35.519169
26860		9.016376	-3.015060	-2.415910	0.048778	2.068103	-0.224010	0.328604	0.217665	0.048837	-0.750244	0.444580	0.279541	0.090145	-0.030089	-0.024307	0.020496	0.773253	-0.108375	0.624431	-154.706270	-75.960611	-35.829584
26861		9.464360	-1.408746	-1.801374	0.390094	0.338072	-0.089668	0.136014	0.249413	-0.118078	-0.750000	0.447754	0.289795	0.094613	-0.014131	-0.018141	0.020469	0.772574	-0.107463	0.625429	-154.636450	-76.115269	-35.820785
26862		9.589352	-0.752789	-1.803065	0.266193	-0.301261	-0.034563	-0.155178	0.244014	-0.164778	-0.753662	0.453369	0.276855	0.095865	-0.007621	-0.018142	0.021714	0.771904	-0.107276	0.626247	-154.839996	-76.279223	-35.702091
26863		9.728205	-1.171785	-1.946592	0.220118	0.132199	0.174019	-0.283186	0.196735	-0.084552	-0.758545	0.459961	0.278809	0.097258	-0.011787	-0.019545	0.023173	0.771323	-0.107811	0.626817	-154.994336	-76.398394	-35.709798
26864		10.209211	-1.148673	-1.919234	0.319807	0.051005	0.633652	-0.175623	0.180993	-0.006462	-0.754395	0.450439	0.276611	0.102074	-0.011507	-0.019275	0.023966	0.770760	-0.108304	0.627396	-154.936973	-76.491135	-35.871662
26865		10.534912	-1.249497	-1.598302	0.692281	0.051296	0.893304	-0.174607	0.212393	0.093560	-0.757324	0.458008	0.284912	0.105338	-0.012460	-0.016084	0.024456	0.770044	-0.109183	0.628103	-154.626282	-76.574940	-36.293564
26866		10.080963	-1.694153	-1.645544	0.628354	0.548964	0.507561	-0.166947	0.244124	0.170178	-0.765381	0.453613	0.278564	0.100804	-0.016870	-0.016564	0.024697	0.769184	-0.110322	0.628948	-154.108564	-76.656110	-36.923411
26867		9.502384	-2.188474	-1.576254	0.664778	1.085794	-0.017364	-0.014783	0.212877	0.205801	-0.757813	0.454590	0.279785	0.095029	-0.021788	-0.015862	0.024219	0.768420	-0.111129	0.629757	-153.451078	-76.710025	-37.607346
26868		9.214866	-2.462564	-1.252373	0.956813	1.320822	-0.331850	0.189659	0.175366	0.173420	-0.764893	0.457764	0.271484	0.092159	-0.024534	-0.012628	0.023041	0.767815	-0.111166	0.630532	-152.784661	-76.752017	-38.179746
26869		9.429597	-2.323416	-1.081630	1.111225	1.112910	-0.168411	0.295774	0.118769	0.099619	-0.761230	0.457031	0.266113	0.094301	-0.023171	-0.010907	0.021653	0.767441	-0.110599	0.631137	-152.275140	-76.782710	-38.528643
26870		9.431665	-2.533611	-0.971534	1.239300	1.291863	-0.163100	0.291302	0.137587	0.051895	-0.762451	0.467529	0.260254	0.094316	-0.025297	-0.009817	0.020446	0.767029	-0.109853	0.631807	-151.849582	-76.835773	-38.793657
26871		9.235876	-2.461757	-0.854723	1.282054	1.228364	-0.381907	0.347244	0.151414	-0.000881	-0.759766	0.465576	0.255615	0.092352	-0.024603	-0.008660	0.019195	0.766608	-0.108733	0.632551	-151.484772	-76.909070	-38.963474
26872		9.139543	-1.847053	-0.919069	1.067354	0.656509	-0.527362	0.344413	0.101674	-0.063512	-0.767578	0.465332	0.264160	0.091385	-0.018484	-0.009269	0.018130	0.766374	-0.107379	0.633097	-151.316217	-76.975017	-38.933282
26873		9.199073	-1.250602	-1.160709	0.721828	0.112155	-0.485277	0.234330	0.060932	-0.103430	-0.770264	0.461426	0.251709	0.091981	-0.012540	-0.011650	0.017587	0.766279	-0.106232	0.633421	-151.343429	-77.030792	-38.767114
26874		9.412187	-0.545258	-1.593492	0.206065	-0.529248	-0.267887	0.231276	0.017918	-0.106656	-0.766113	0.471680	0.260986	0.094118	-0.005484	-0.015950	0.017047	0.766320	-0.105078	0.633579	-151.434178	-77.066448	-38.537377
26875		9.691098	0.229141	-1.855097	-0.139795	-1.279195	-0.027219	0.235812	0.006072	-0.062184	-0.779541	0.476563	0.245850	0.096911	0.002283	-0.018551	0.016339	0.766375	-0.104089	0.633694	-151.436953	-77.083264	-38.395458
26876		9.900472	0.396858	-1.878710	-0.156526	-1.469024	0.163477	0.126414	0.021550	0.006983	-0.765381	0.464600	0.257080	0.099003	0.003984	-0.018795	0.015842	0.766334	-0.103702	0.633819	-151.334812	-77.089568	-38.425292
26877		9.742417	0.100299	-1.911908	-0.166235	-1.158362	0.046861	0.016014	0.032602	0.109424	-0.769775	0.460938	0.243408	0.097420	0.001058	-0.019135	0.015446	0.766197	-0.104064	0.633936	-151.055881	-77.072477	-38.701606
26878		9.221709	-0.622562	-1.915138	-0.136199	-0.390157	-0.382711	-0.025481	0.048694	0.167676	-0.773926	0.469238	0.253418	0.092218	-0.006151	-0.019173	0.015037	0.765974	-0.104773	0.634098	-150.657629	-77.047465	-39.124567
26879		9.005868	-1.307711	-1.551252	0.294208	0.239249	-0.588896	0.050937	0.069125	0.163513	-0.768799	0.470703	0.253174	0.090064	-0.013000	-0.015547	0.014355	0.765695	-0.105228	0.634376	-150.198715	-77.032464	-39.565088
26880		9.077767	-1.688328	-1.293180	0.618880	0.546277	-0.525752	0.056787	0.006766	0.160418	-0.773682	0.469727	0.252686	0.090791	-0.016807	-0.012940	0.013631	0.765614	-0.105651	0.634419	-149.824279	-76.987329	-39.915318
26881		8.937374	-2.052623	-1.304167	0.646313	0.909634	-0.617819	0.073137	-0.002640	0.147978	-0.768311	0.476807	0.247314	0.089389	-0.020455	-0.013048	0.012876	0.765571	-0.105981	0.634432	-149.478976	-76.940000	-40.226322
26882		8.851229	-1.920986	-1.199791	0.706784	0.763907	-0.735748	0.207117	-0.038483	0.120578	-0.780762	0.477783	0.248047	0.088526	-0.019144	-0.012001	0.011679	0.765663	-0.105777	0.634378	-149.164757	-76.883269	-40.426438
26883		9.049308	-1.439378	-1.126634	0.727863	0.239210	-0.612467	0.285017	-0.106110	0.110302	-0.778564	0.477295	0.250000	0.090507	-0.014328	-0.011239	0.010177	0.765979	-0.105297	0.634102	-148.912633	-76.795466	-40.517219
26884		9.428820	-1.008056	-1.059211	0.790644	-0.263761	-0.307634	0.284909	-0.147091	0.118088	-0.764404	0.487305	0.248047	0.094302	-0.010010	-0.010537	0.008633	0.766417	-0.104843	0.633670	-148.700572	-76.685838	-40.566727
26885		9.739698	-0.586645	-1.254451	0.595566	-0.712596	-0.018966	0.219324	-0.193147	0.164779	-0.782227	0.481934	0.244141	0.097414	-0.005773	-0.012457	0.007165	0.766973	-0.104783	0.633026	-148.487676	-76.539066	-40.655960
26886		9.922458	-0.056211	-1.192406	0.613958	-1.291035	0.078540	0.133085	-0.205558	0.206497	-0.768799	0.484619	0.250488	0.099237	-0.000452	-0.011822	0.005892	0.767540	-0.105150	0.632290	-148.260949	-76.374270	-40.810089
26887		10.037468	0.830708	-1.252440	0.445085	-2.193313	0.086839	-0.003578	-0.239268	0.236275	-0.774414	0.485840	0.254639	0.100380	0.008425	-0.012404	0.005028	0.768192	-0.106071	0.631351	-148.096854	-76.183335	-40.980663
26888		9.967703	1.448506	-1.374756	0.230050	-2.795379	-0.041502	-0.114103	-0.270203	0.249422	-0.776123	0.497559	0.250488	0.099677	0.014602	-0.013621	0.004535	0.768930	-0.107385	0.630234	-148.014547	-75.973897	-41.132165
26889		10.022649	1.683146	-1.236065	0.358450	-3.082501	-0.056465	-0.263272	-0.368880	0.316492	-0.768066	0.487305	0.257324	0.100222	0.016974	-0.012198	0.004347	0.769935	-0.109434	0.628654	-148.008471	-75.695565	-41.293531
26890		9.884881	1.361686	-1.076422	0.571314	-2.806455	-0.193908	-0.401368	-0.425137	0.426955	-0.754150	0.493408	0.254395	0.098842	0.013807	-0.010582	0.004316	0.771044	-0.112336	0.626779	-147.945965	-75.356877	-41.594937
26891		9.861579	0.704308	-1.184182	0.613373	-2.191911	-0.118975	-0.529190	-0.499243	0.508040	-0.762451	0.498535	0.265625	0.098627	0.007263	-0.011615	0.004479	0.772326	-0.115957	0.624537	-147.900316	-74.956974	-41.955327
26892		9.663086	-0.597640	-1.356244	0.693466	-0.919710	-0.104726	-0.607365	-0.576402	0.612913	-0.759521	0.506348	0.275879	0.096687	-0.005721	-0.013266	0.004575	0.773767	-0.120221	0.621941	-147.813026	-74.488056	-42.405900
26893		9.604968	-1.539816	-1.660030	0.627094	-0.010040	0.035568	-0.583238	-0.644597	0.645239	-0.761230	0.505127	0.282471	0.096152	-0.015136	-0.016246	0.004433	0.775380	-0.124538	0.619077	-147.745138	-73.975593	-42.823153
26894		9.808971	-1.800409	-1.612897	0.830506	0.129064	0.254669	-0.520455	-0.685969	0.639437	-0.745361	0.501953	0.291260	0.098201	-0.017732	-0.015746	0.004042	0.777103	-0.128630	0.616075	-147.710766	-73.445216	-43.168973
26895		10.058016	-1.452339	-1.566316	0.924797	-0.332255	0.422540	-0.552903	-0.720207	0.603182	-0.734375	0.509766	0.299316	0.100679	-0.014262	-0.015261	0.003864	0.778932	-0.132683	0.612899	-147.796585	-72.908932	-43.409730
26896		10.256383	-0.812397	-1.440394	1.022156	-1.078571	0.469297	-0.570669	-0.741464	0.594029	-0.733398	0.518066	0.308105	0.102640	-0.007860	-0.014001	0.003772	0.780808	-0.136747	0.609611	-147.933190	-72.365704	-43.608521
26897		10.156773	-0.013580	-0.896751	1.409609	-1.989148	0.087813	-0.569924	-0.765948	0.606762	-0.737061	0.523193	0.313965	0.101601	0.000148	-0.008579	0.003619	0.782725	-0.140858	0.606208	-148.073987	-71.806446	-43.803168
26898		9.884645	0.257242	-0.300619	1.915396	-2.367893	-0.400662	-0.590358	-0.825720	0.659975	-0.728027	0.519043	0.322510	0.098849	0.002891	-0.002606	0.003345	0.784758	-0.145232	0.602537	-148.206695	-71.202563	-44.019239
26899		9.513903	-0.337127	-0.251663	2.080531	-1.803700	-0.696311	-0.530090	-0.940344	0.733886	-0.722656	0.525635	0.347656	0.095161	-0.003028	-0.002061	0.002526	0.787052	-0.149714	0.598438	-148.303332	-70.520356	-44.237839
26900		9.724883	-0.972626	-0.191726	2.417422	-1.347683	-0.437485	-0.350877	-1.074478	0.832168	-0.711182	0.530762	0.345947	0.097297	-0.009324	-0.001378	0.000609	0.789641	-0.154037	0.593918	-148.284593	-69.743550	-44.470852
26901		10.030755	-0.527297	-0.427650	2.251644	-1.905507	-0.201532	-0.169450	-1.167448	0.875248	-0.705811	0.542236	0.357666	0.100352	-0.004837	-0.003687	-0.002226	0.792431	-0.157988	0.589141	-148.190705	-68.908131	-44.674330
26902		9.988899	-0.378828	-0.945465	1.816919	-2.049915	-0.152969	-0.161714	-1.265005	0.893973	-0.702881	0.542480	0.361572	0.099962	-0.003349	-0.008820	-0.005221	0.795449	-0.161976	0.583949	-148.155840	-68.019735	-44.810739
26903		9.909144	-0.110849	-1.473738	1.342089	-2.301006	-0.154675	-0.106668	-1.375126	0.943299	-0.687988	0.551514	0.381348	0.099193	-0.000648	-0.014055	-0.008670	0.798694	-0.165990	0.578325	-148.117950	-67.062636	-44.917183
26904		10.255963	0.214995	-1.253087	1.673568	-2.866472	-0.025915	-0.021093	-1.479265	1.008207	-0.669678	0.555664	0.380859	0.102636	0.002666	-0.011772	-0.012733	0.802123	-0.169994	0.572309	-148.038930	-66.035354	-45.015799
26905		11.111455	0.030954	-1.350344	2.007285	-3.062835	0.764394	0.016052	-1.628521	1.104570	-0.656494	0.571289	0.396240	0.111216	0.000925	-0.012598	-0.017347	0.805823	-0.174257	0.565670	-147.942323	-64.906155	-45.111141
26906		11.935504	-0.130722	-1.839894	1.999448	-3.241757	1.647958	0.054555	-1.740381	1.189830	-0.647217	0.567383	0.401123	0.119514	-0.000592	-0.017360	-0.022452	0.809678	-0.178724	0.558547	-147.818408	-63.696706	-45.213261
26907		12.547105	0.631842	-1.274049	2.670355	-4.423043	1.709113	0.067387	-1.779593	1.252087	-0.631836	0.577393	0.416016	0.125535	0.007108	-0.011621	-0.027816	0.813491	-0.183384	0.551206	-147.661209	-62.449148	-45.345467
26908		12.913553	1.886335	-0.345217	3.461861	-6.047449	1.226960	0.020727	-1.853052	1.344994	-0.608154	0.587402	0.429443	0.129029	0.019732	-0.002254	-0.033309	0.817328	-0.188516	0.543440	-147.502480	-61.137328	-45.511381
26909		13.309943	3.517749	0.525872	4.098199	-8.020545	0.611914	-0.166675	-1.983070	1.449431	-0.604492	0.604248	0.439209	0.132779	0.036146	0.006546	-0.038439	0.821333	-0.194535	0.534875	-147.444484	-59.730598	-45.686976
26910		13.628824	4.458168	1.058652	4.575310	-9.282370	0.168992	-0.424161	-2.119616	1.623102	-0.579346	0.598389	0.451904	0.135799	0.045709	0.011931	-0.043101	0.825447	-0.201897	0.525373	-147.474466	-58.204150	-45.934863
26911		13.925262	5.390349	0.990759	4.491527	-10.456570	-0.095518	-0.641199	-2.277497	1.799641	-0.550537	0.609131	0.470459	0.138636	0.055188	0.011313	-0.047482	0.829676	-0.210482	0.514860	-147.580853	-56.547744	-46.243782
26912		14.296185	5.127364	0.328340	4.262441	-10.516774	0.286422	-0.887610	-2.425837	2.011379	-0.533691	0.613037	0.483887	0.142385	0.052727	0.004781	-0.051530	0.833922	-0.220493	0.503291	-147.755903	-54.754539	-46.646973
26913		15.268952	5.674038	0.697636	4.915915	-11.742337	0.373198	-0.730757	-2.460965	2.265622	-0.509033	0.623047	0.510254	0.151934	0.058494	0.008637	-0.056894	0.837698	-0.231095	0.491549	-147.706424	-52.867629	-47.225972
26914		15.382170	5.657755	1.170987	5.470155	-12.143060	-0.190244	-0.855425	-2.526582	2.465691	-0.475098	0.626953	0.525146	0.152946	0.058522	0.013398	-0.062288	0.841181	-0.242754	0.479171	-147.664317	-50.886540	-47.901673
26915		14.866343	2.448704	-1.224173	4.491100	-9.122684	1.371505	-1.189340	-2.703816	2.622313	-0.446533	0.629639	0.543945	0.148475	0.026369	-0.010387	-0.066841	0.844697	-0.255723	0.465430	-147.822883	-48.773357	-48.584774
26916		14.786011	-1.485590	-3.605276	4.173224	-5.798821	3.706213	-0.966514	-2.794800	2.737757	-0.413330	0.637451	0.556396	0.148530	-0.012993	-0.033914	-0.072698	0.847868	-0.268535	0.451357	-147.856989	-46.580326	-49.286742
26917		15.275580	-3.390046	-3.591865	5.408483	-4.906944	4.483356	-0.461561	-2.607151	2.737369	-0.375000	0.636230	0.581787	0.153652	-0.031881	-0.033844	-0.080410	0.850105	-0.280162	0.438594	-147.585624	-44.478860	-50.036215
26918		13.989129	-4.966192	-5.064531	4.564410	-3.211090	4.844566	-0.523876	-2.595514	2.648965	-0.338379	0.642334	0.589111	0.141174	-0.047927	-0.048692	-0.087622	0.852164	-0.291464	0.425662	-147.432040	-42.406773	-50.695098
26919		12.433070	-6.578198	-5.840833	4.192408	-1.372335	4.764292	-0.467933	-2.335830	2.334204	-0.311279	0.650391	0.605469	0.125758	-0.064454	-0.056793	-0.093992	0.853834	-0.301319	0.413932	-147.343784	-40.557888	-51.231702
26920		11.113454	-6.832377	-6.571430	3.371957	-0.704753	4.382087	-0.243179	-2.154084	2.010692	-0.287354	0.651611	0.603516	0.112513	-0.067276	-0.064425	-0.100360	0.855299	-0.309346	0.403356	-147.233656	-38.894435	-51.621006
26921		9.264866	-7.175183	-7.328210	2.300603	0.432756	3.808325	-0.366133	-2.084340	1.681976	-0.258545	0.657227	0.615967	0.094004	-0.071098	-0.072177	-0.105407	0.857020	-0.316180	0.392984	-147.315244	-37.368199	-51.826841
26922		7.993120	-8.113149	-8.396871	1.563689	1.772940	4.138025	-0.579350	-1.953570	1.310787	-0.235840	0.653076	0.621826	0.081275	-0.080843	-0.082945	-0.108591	0.859044	-0.321868	0.382953	-147.625425	-36.018215	-51.862226
26923		6.739682	-9.765808	-9.781004	0.955645	3.709920	5.079500	-0.459615	-1.727210	1.048719	-0.216064	0.653809	0.633789	0.068748	-0.097523	-0.096996	-0.111407	0.860879	-0.326274	0.374193	-147.903745	-34.859848	-51.834384
26924		5.810130	-10.519179	-10.276319	0.668339	4.707667	5.267097	0.313015	-1.458324	0.686133	-0.197266	0.652588	0.634033	0.059209	-0.104829	-0.102498	-0.116425	0.862299	-0.327804	0.368007	-147.802273	-33.940770	-51.695429
26925		7.325799	-9.483226	-8.759430	2.063330	2.679232	4.640257	1.516356	-1.173968	0.197639	-0.196533	0.663086	0.619141	0.073866	-0.094094	-0.087877	-0.125252	0.863225	-0.325149	0.365283	-147.111749	-33.311646	-51.372006
26926		7.429449	-5.892774	-7.279571	1.417783	-0.297621	2.053777	2.037336	-0.743477	-0.193663	-0.186279	0.668945	0.611816	0.074509	-0.058256	-0.073115	-0.134904	0.863585	-0.320092	0.365462	-146.159386	-33.014518	-50.977909
26927		6.316001	-3.488749	-5.867654	0.689279	-1.484608	-0.657736	1.269414	-0.306670	-0.325142	-0.189941	0.677246	0.609863	0.063194	-0.034617	-0.058800	-0.140285	0.863802	-0.316132	0.366369	-145.597213	-32.972978	-50.672856
26928		4.598228	-3.349028	-5.178286	0.183988	-0.485161	-2.137724	0.233173	0.119571	-0.323471	-0.181396	0.673828	0.600830	0.045897	-0.033504	-0.051849	-0.140522	0.863943	-0.314376	0.367456	-145.539204	-33.131952	-50.533105
26929		3.126336	-3.406373	-5.617141	-0.905836	0.528484	-2.613404	-0.155901	0.336545	-0.331377	-0.184570	0.673096	0.605225	0.031112	-0.034159	-0.056197	-0.138714	0.863965	-0.313449	0.368880	-145.661437	-33.397208	-50.472514
26930		1.966331	-2.718472	-6.035211	-2.150123	0.775484	-3.296881	0.169777	0.534042	-0.404468	-0.196289	0.670654	0.599609	0.019447	-0.027173	-0.060427	-0.137874	0.863505	-0.311742	0.371707	-145.577796	-33.778272	-50.446727
26931		1.273973	-1.963730	-5.507576	-2.506812	0.667366	-4.419843	0.489694	0.904698	-0.523789	-0.203125	0.668945	0.595947	0.012439	-0.019535	-0.055180	-0.137609	0.862301	-0.309167	0.376719	-145.266532	-34.374564	-50.499891
26932		0.751267	-1.292040	-4.596472	-2.455250	0.516164	-5.681565	0.370518	1.391384	-0.706615	-0.204834	0.665771	0.595459	0.007147	-0.012861	-0.046039	-0.135731	0.860504	-0.306355	0.383740	-144.969619	-35.257770	-50.646986
26933		0.455677	-1.011712	-4.037730	-2.360442	0.531913	-6.395191	-0.096810	1.783984	-0.947551	-0.218018	0.666504	0.591797	0.004148	-0.010157	-0.040411	-0.130764	0.858567	-0.303636	0.391879	-144.923330	-36.405712	-50.819027
26934		0.531167	-1.331620	-4.076140	-2.258116	0.806964	-6.218374	-0.612056	2.037607	-1.198300	-0.243164	0.665039	0.596680	0.004816	-0.013471	-0.040771	-0.122696	0.856745	-0.300986	0.400427	-145.195713	-37.753656	-50.947863
26935		0.844717	-1.996533	-4.469773	-2.165205	1.253857	-5.521225	-0.870548	2.288636	-1.423224	-0.271973	0.645996	0.591064	0.007792	-0.020217	-0.044702	-0.112667	0.854766	-0.297984	0.409741	-145.637890	-39.295416	-51.037077
26936		1.055939	-2.317792	-4.875274	-2.293789	1.534980	-5.055030	-0.770053	2.598852	-1.655814	-0.280029	0.645752	0.592285	0.009732	-0.023449	-0.048793	-0.102108	0.852250	-0.293897	0.420557	-146.037853	-41.057912	-51.100075
26937		1.266917	-2.089423	-4.863350	-2.352724	1.371714	-5.100679	-0.561217	2.908936	-1.897816	-0.311768	0.634766	0.589355	0.011761	-0.021145	-0.048750	-0.091442	0.849090	-0.288408	0.433019	-146.339537	-43.047012	-51.128221
26938		1.525491	-1.787377	-4.592654	-2.230420	1.103965	-5.294106	-0.583772	3.169414	-2.125061	-0.344482	0.614258	0.578857	0.014333	-0.018164	-0.046106	-0.079785	0.845418	-0.282032	0.446498	-146.689487	-45.230942	-51.105157
26939		1.734294	-1.695020	-4.385948	-2.097192	1.051849	-5.384457	-0.855989	3.382935	-2.304716	-0.375732	0.596924	0.570068	0.016400	-0.017331	-0.044069	-0.066240	0.841286	-0.275469	0.460398	-147.234961	-47.574836	-51.027878
26940		2.001982	-1.799596	-4.661766	-2.252701	1.223513	-5.079594	-1.063052	3.548199	-2.483349	-0.408936	0.587646	0.572510	0.018962	-0.018484	-0.046863	-0.051158	0.836700	-0.268564	0.474542	-147.975156	-50.051282	-50.852985
26941		2.361323	-1.676885	-5.166730	-2.668866	1.237904	-4.672504	-0.997969	3.701962	-2.668711	-0.442627	0.567383	0.559814	0.022424	-0.017332	-0.052004	-0.035673	0.831542	-0.260622	0.489226	-148.787537	-52.658065	-50.543888
26942		3.021121	-1.679174	-5.571341	-2.869480	1.249872	-4.052268	-0.813202	3.860244	-2.867190	-0.478271	0.554932	0.548340	0.028882	-0.017440	-0.056209	-0.020246	0.825752	-0.251290	0.504557	-149.641694	-55.396480	-50.063648
26943		3.975520	-1.855175	-6.262520	-3.187229	1.419734	-3.009776	-0.639858	4.025082	-3.039211	-0.520508	0.526855	0.522949	0.038195	-0.019342	-0.063343	-0.004879	0.819230	-0.240665	0.520499	-150.562855	-58.262553	-49.400314
26944		5.117050	-2.326692	-7.035213	-3.467989	1.902604	-1.723967	-0.511776	4.149801	-3.144227	-0.552002	0.496582	0.503662	0.049321	-0.024234	-0.071327	0.010387	0.811966	-0.229127	0.536753	-151.592112	-61.212386	-48.547787
26945		6.725172	-3.183139	-7.278562	-3.077665	2.548549	-0.202982	-0.433152	4.147879	-3.138188	-0.580078	0.488281	0.484863	0.065212	-0.033025	-0.074082	0.025311	0.804147	-0.217240	0.552733	-152.777041	-64.152033	-47.492858
26946		7.526194	-4.137514	-7.203408	-2.689947	3.569175	0.465888	-0.347524	4.143243	-3.045200	-0.621094	0.456787	0.465576	0.073107	-0.042626	-0.073490	0.039609	0.795715	-0.205351	0.568419	-154.081053	-67.053092	-46.279374
26947		6.506028	-4.695371	-6.890439	-2.750826	4.693556	-0.744538	-0.319887	4.155067	-3.110897	-0.643066	0.449951	0.439697	0.062870	-0.048055	-0.070150	0.053973	0.786785	-0.192977	0.583794	-155.811323	-69.963145	-44.616461
26948		6.139443	-5.223843	-6.805419	-2.812009	5.624945	-1.343735	-0.282798	3.963961	-3.254139	-0.678955	0.418213	0.415771	0.059169	-0.053311	-0.069167	0.068385	0.778041	-0.179859	0.598019	-158.459297	-72.778159	-41.993275
26949		7.245523	-5.959482	-7.160908	-2.867257	6.580802	-0.445983	0.009144	3.717719	-3.258850	-0.712158	0.393066	0.384766	0.070124	-0.060747	-0.072930	0.081413	0.769639	-0.165817	0.611173	-162.110006	-75.412546	-38.192076
26950		8.244414	-6.093195	-6.900848	-2.663479	6.853448	0.118312	0.507242	3.595773	-3.305917	-0.731689	0.372314	0.366211	0.080164	-0.062092	-0.070620	0.092516	0.761389	-0.150024	0.623875	-167.236235	-77.899869	-32.625756
26951		8.690318	-5.222406	-6.088631	-2.432009	6.103703	0.019392	0.874345	3.354531	-3.461197	-0.757324	0.356934	0.336914	0.084945	-0.053434	-0.062554	0.102470	0.753717	-0.132514	0.635492	-175.341921	-80.103642	-23.859465
26952		9.783677	-3.696055	-5.308854	-2.313129	4.724943	0.668994	1.048940	3.004031	-3.616580	-0.777100	0.322998	0.310547	0.096337	-0.038428	-0.054742	0.111966	0.746910	-0.113968	0.645446	171.913455	-81.769886	-10.347331
26953		11.308657	-1.959884	-4.716758	-2.328771	3.272015	1.927116	1.004052	2.688726	-3.555576	-0.791504	0.307373	0.285156	0.112069	-0.021355	-0.048783	0.121193	0.740646	-0.095908	0.653879	154.904395	-82.671945	7.397967
26954		11.551356	-1.137675	-4.361564	-2.408562	2.811025	2.020734	0.617681	2.356834	-3.281570	-0.807617	0.271484	0.264404	0.114783	-0.013127	-0.045010	0.130738	0.734757	-0.080282	0.660753	137.114589	-82.737616	25.687940
26955		10.968619	-0.801513	-4.843677	-3.187542	2.978456	1.384195	0.559500	1.962214	-2.936976	-0.810059	0.251709	0.254883	0.109072	-0.009482	-0.049534	0.139152	0.729722	-0.066341	0.666139	122.754685	-82.161258	40.495866
26956		11.050802	-0.206901	-3.932049	-2.599582	2.463242	1.358276	0.687896	1.605535	-2.503979	-0.830322	0.236572	0.226807	0.110151	-0.003312	-0.040216	0.145499	0.725621	-0.053783	0.670381	112.936051	-81.316257	50.815536
26957		10.880232	0.054487	-3.446508	-2.319265	2.308095	1.121183	0.378488	1.300231	-1.921352	-0.834717	0.218750	0.210938	0.108574	-0.000433	-0.035172	0.150907	0.722026	-0.044588	0.673734	106.455526	-80.527372	57.598121
26958		9.973655	-0.779123	-3.227577	-2.041661	3.096063	0.023049	-0.076862	1.021176	-1.271661	-0.847412	0.209961	0.209717	0.099518	-0.008437	-0.032781	0.155692	0.718810	-0.039478	0.676397	102.086672	-79.963046	61.986907
26959		9.349583	-1.322970	-2.890598	-1.676367	3.533484	-0.744940	-0.307147	0.673558	-0.646960	-0.841064	0.202881	0.205811	0.093354	-0.013577	-0.029200	0.159116	0.716434	-0.037662	0.678223	99.433388	-79.669239	64.504417
26960		9.183838	-1.313816	-2.336281	-1.186857	3.395370	-0.947591	-0.551578	0.319661	-0.109753	-0.839844	0.202881	0.198242	0.091794	-0.013253	-0.023473	0.161525	0.714951	-0.038879	0.679149	98.092852	-79.633286	65.546505
26961		9.169337	-1.283470	-2.109803	-0.982461	3.304580	-0.964535	-0.909849	-0.007471	0.378778	-0.845215	0.197266	0.205078	0.091718	-0.012757	-0.021036	0.163488	0.714182	-0.043325	0.679220	97.780092	-79.846275	65.335124
26962		8.483431	-1.871997	-2.467284	-1.184611	3.817606	-1.714379	-1.201159	-0.334576	0.904888	-0.841553	0.205322	0.204834	0.084959	-0.018483	-0.024419	0.164629	0.714142	-0.050901	0.678460	98.621160	-80.330463	63.783323
26963		7.523521	-2.499162	-3.062048	-1.584814	4.377495	-2.702832	-1.316414	-0.686130	1.366220	-0.836670	0.211914	0.215088	0.075509	-0.024676	-0.030199	0.164511	0.715024	-0.060805	0.676741	101.065495	-81.033416	60.542564
26964		8.871655	-2.989655	-2.017502	-0.282497	4.574092	-1.403778	-0.542563	-0.847626	1.710404	-0.831543	0.221680	0.223877	0.089052	-0.029190	-0.019718	0.160399	0.716914	-0.069444	0.674896	105.418113	-81.874846	55.827537
26965		12.475004	1.943129	0.116229	0.512039	-0.527239	2.791656	1.510548	-0.797039	1.740622	-0.821533	0.245361	0.217285	0.124568	0.020504	0.001811	0.148820	0.720180	-0.071219	0.673885	111.849894	-82.673121	50.210980
26966		16.195958	9.588716	4.412346	2.673219	-8.954328	7.110329	1.036211	-0.637332	1.165438	-0.822510	0.252686	0.235352	0.161255	0.096596	0.045137	0.140931	0.722681	-0.072389	0.672778	117.365799	-83.126019	45.251472
26967		19.190676	3.777391	0.896855	1.395802	-2.347682	9.575190	-0.985822	-0.950695	1.018824	-0.805176	0.258301	0.243896	0.191666	0.038797	0.009690	0.140715	0.724812	-0.080051	0.669656	123.280857	-83.352759	38.726842
26968		12.874300	-2.585997	-0.979087	1.047123	3.607556	2.807938	0.142060	-0.767751	1.075979	-0.809326	0.274170	0.249756	0.128916	-0.025160	-0.009314	0.136288	0.727058	-0.084006	0.667649	129.676054	-83.584209	32.372526
26969		7.693896	-3.639263	-0.783296	1.100452	4.104365	-2.396770	0.627817	-0.905644	1.191648	-0.808594	0.281738	0.250488	0.077189	-0.035909	-0.007597	0.129641	0.730007	-0.086853	0.665387	137.671175	-83.717005	24.690678
26970		5.464186	-4.024404	-3.275694	-1.349714	5.028577	-4.365353	0.860260	-1.394568	1.169810	-0.797852	0.290527	0.266602	0.055103	-0.039782	-0.032546	0.121997	0.734682	-0.089154	0.661371	147.267243	-83.487355	15.531364
26971		5.720654	-3.198504	-4.440504	-2.643018	4.481526	-3.845923	1.347951	-1.725270	1.057514	-0.795898	0.298096	0.266846	0.057755	-0.031383	-0.044121	0.112767	0.740705	-0.089624	0.656206	156.439352	-82.896494	7.072790
26972		7.840141	-2.621730	-5.695340	-3.681755	4.150028	-1.446426	1.549629	-2.047409	1.200824	-0.785156	0.314941	0.284668	0.079134	-0.025305	-0.056344	0.102159	0.747706	-0.090125	0.649905	165.151405	-82.009134	-0.818633
26973		10.283177	-2.305981	-6.142637	-3.763770	3.716689	1.178435	1.939469	-1.847571	1.289945	-0.766846	0.342773	0.291748	0.103538	-0.021803	-0.060688	0.089869	0.754058	-0.089577	0.644434	172.535267	-81.108402	-7.159064
26974		12.079409	-0.713862	-4.645781	-2.368918	1.487707	2.843261	2.334022	-1.256081	1.139184	-0.767334	0.351318	0.294922	0.121119	-0.005912	-0.045772	0.076827	0.758587	-0.086898	0.641165	178.230838	-80.439418	-11.573655
26975		12.200613	-0.313793	-2.782031	-0.576345	0.431648	2.684144	1.580473	-0.949901	1.125848	-0.753174	0.359375	0.290771	0.122151	-0.002234	-0.027260	0.066801	0.761728	-0.086459	0.638618	-177.173555	-79.885037	-15.318176
26976		10.021930	-1.958409	-2.766527	-0.524025	1.960487	0.570380	0.556564	-0.613217	1.213538	-0.748291	0.373291	0.296387	0.100420	-0.018899	-0.027411	0.060539	0.763348	-0.089497	0.636887	-173.218340	-79.472975	-19.013596
26977		8.271156	-3.976487	-3.870839	-1.443900	4.133438	-0.866380	0.555913	-0.413481	1.068956	-0.751709	0.373535	0.285400	0.083002	-0.039214	-0.038646	0.054822	0.764362	-0.091928	0.635842	-169.878789	-79.144656	-22.087445
26978		8.049837	-4.056174	-3.910829	-1.519173	4.124803	-1.024973	1.294708	-0.455200	0.721645	-0.754150	0.381348	0.282959	0.080733	-0.040017	-0.039185	0.047368	0.765830	-0.090682	0.634852	-167.330065	-78.803937	-23.927673
26979		8.375932	-3.112259	-3.310771	-1.098601	2.967227	-0.824275	1.624429	-0.411625	0.380076	-0.740234	0.396484	0.286377	0.083886	-0.030694	-0.033186	0.039747	0.767343	-0.087074	0.634052	-165.622946	-78.519836	-24.719016
26980		9.237272	-2.535818	-3.824906	-1.564663	2.345712	0.108835	1.256600	-0.304815	0.144714	-0.751709	0.404541	0.284424	0.092449	-0.025051	-0.038266	0.034333	0.768501	-0.083694	0.633421	-164.739114	-78.326594	-24.885625
26981		9.992430	-2.689408	-5.557019	-3.083230	2.638318	1.209766	0.819138	-0.266179	0.300499	-0.736084	0.413818	0.284668	0.100038	-0.026516	-0.055546	0.030116	0.769374	-0.082298	0.632759	-163.678530	-78.129085	-25.489091
26982		10.396164	-1.805806	-6.709665	-4.278402	1.810980	1.796589	1.070729	-0.196786	0.393376	-0.743652	0.419678	0.272461	0.104062	-0.017494	-0.067089	0.024671	0.770004	-0.080442	0.632467	-162.213511	-77.952072	-26.358873
26983		10.735858	-1.591488	-6.122567	-3.695556	1.369639	2.008608	1.098835	-0.097583	0.498404	-0.745850	0.417969	0.273926	0.107427	-0.015311	-0.061258	0.018817	0.770256	-0.078896	0.632556	-160.413043	-77.803609	-27.555985
26984		9.418479	-1.924805	-5.804641	-3.617468	1.678397	0.685048	1.000495	0.124539	0.460826	-0.749023	0.425049	0.263916	0.094192	-0.018740	-0.058200	0.013555	0.769784	-0.077482	0.633440	-158.591734	-77.775009	-28.832292
26985		8.989720	-2.542045	-4.862914	-2.743015	2.131037	0.130089	1.117619	0.138687	0.350570	-0.746826	0.433838	0.261963	0.089907	-0.024990	-0.048832	0.008190	0.769295	-0.075281	0.634391	-156.960973	-77.768536	-29.845251
26986		8.255320	-2.511775	-4.232369	-2.312895	2.034712	-0.708723	1.193502	0.058129	0.294487	-0.742920	0.449219	0.250732	0.082577	-0.024743	-0.042496	0.002687	0.769055	-0.072613	0.635039	-155.515201	-77.728190	-30.624307
26987		8.579309	-1.802170	-3.472351	-1.627168	1.160724	-0.597791	1.163942	0.010357	0.204604	-0.755859	0.438477	0.246582	0.085810	-0.017731	-0.034832	-0.002442	0.768974	-0.069702	0.635464	-154.356458	-77.679802	-31.127287
26988		9.651304	-0.273137	-3.024417	-1.164647	-0.560740	0.222170	0.883683	-0.087401	0.200114	-0.747314	0.447510	0.241211	0.096529	-0.002501	-0.030213	-0.006506	0.769184	-0.067651	0.635403	-153.492301	-77.581687	-31.492987
26989		10.896388	1.105945	-2.710851	-0.757986	-2.131415	1.241069	0.338605	-0.035628	0.231372	-0.746094	0.448975	0.237305	0.108956	0.011231	-0.027070	-0.008562	0.769230	-0.067463	0.635343	-152.812039	-77.499510	-31.990558
26990		11.486198	2.474480	-1.978279	-0.067624	-3.634685	1.534287	-0.047633	0.144086	0.194287	-0.746094	0.451660	0.239502	0.114824	0.024852	-0.019871	-0.008948	0.768729	-0.068356	0.635848	-152.233138	-77.518719	-32.610799
26991		10.854976	1.621209	-1.247944	0.589595	-2.792294	0.858374	-0.465726	0.141163	0.323236	-0.750244	0.446533	0.243164	0.108515	0.016358	-0.012594	-0.008143	0.768212	-0.071084	0.636185	-151.598752	-77.498880	-33.533456
26992		9.941982	-0.744203	-1.093463	0.795353	-0.386476	0.177829	-0.863784	0.070106	0.487307	-0.752197	0.455811	0.240967	0.099434	-0.007247	-0.010938	-0.006351	0.767862	-0.075694	0.636096	-150.919126	-77.397225	-34.736103
26993		9.710344	-2.857046	-1.607080	0.487883	1.727585	0.277571	-0.843055	0.031608	0.680963	-0.752197	0.458740	0.248779	0.097198	-0.028307	-0.015966	-0.005274	0.767544	-0.080988	0.635838	-149.865141	-77.216281	-36.311201
26994		9.670370	-3.472299	-1.367991	0.799133	2.255891	0.272761	-0.530582	0.094120	0.731517	-0.750244	0.466553	0.246582	0.096824	-0.034405	-0.013634	-0.005526	0.766976	-0.085472	0.635934	-148.484607	-77.045292	-38.038485
26995		9.578372	-3.284648	-1.115282	1.010132	1.994217	0.126144	-0.398766	0.091427	0.660565	-0.742920	0.466309	0.250488	0.095886	-0.032552	-0.011132	-0.006065	0.766432	-0.089274	0.636062	-147.217508	-76.884380	-39.573206
26996		9.617164	-3.119919	-1.180577	0.936331	1.780027	0.165895	-0.467777	0.042300	0.503566	-0.741943	0.473389	0.240723	0.096247	-0.030984	-0.011753	-0.005855	0.766103	-0.092681	0.635973	-146.410225	-76.744342	-40.676972
26997		9.365104	-2.909754	-1.289921	0.765063	1.585384	-0.079399	-0.409137	0.034665	0.350871	-0.739990	0.486816	0.248535	0.093700	-0.028960	-0.012856	-0.005396	0.765864	-0.095326	0.635874	-145.900752	-76.645053	-41.440983
26998		9.237977	-2.647053	-0.988793	1.006591	1.287262	-0.291421	-0.309641	0.008609	0.254493	-0.743896	0.468506	0.244873	0.092413	-0.026368	-0.009851	-0.005016	0.765743	-0.097274	0.635728	-145.572433	-76.564702	-41.960206
26999		9.235492	-2.888151	-1.060374	0.981718	1.510172	-0.246305	-0.325330	-0.081160	0.248343	-0.750488	0.478516	0.248779	0.092395	-0.028784	-0.010519	-0.004607	0.765911	-0.099257	0.635222	-145.388862	-76.441938	-42.340289
27000		9.141779	-3.142690	-1.619690	0.475819	1.820977	-0.193457	-0.257116	-0.138939	0.203639	-0.742920	0.481201	0.254150	0.091461	-0.031355	-0.016093	-0.004339	0.766277	-0.100838	0.634533	-145.338601	-76.307810	-42.542938
27001		9.374207	-2.511325	-1.530323	0.529018	1.138853	-0.068586	-0.110610	-0.179188	0.120811	-0.741455	0.483154	0.251465	0.093771	-0.025065	-0.015205	-0.004398	0.766810	-0.101649	0.633759	-145.415838	-76.180153	-42.528271
27002		9.603747	-1.349188	-1.064341	0.869018	-0.104610	-0.095748	-0.122070	-0.224332	0.086719	-0.746582	0.481934	0.253418	0.096055	-0.013457	-0.010527	-0.004320	0.767500	-0.102352	0.632811	-145.625951	-76.043748	-42.383227
27003		9.863507	-0.225557	-1.154788	0.682478	-1.245005	0.018757	-0.307571	-0.279739	0.074648	-0.750244	0.480225	0.254883	0.098652	-0.002236	-0.011406	-0.003528	0.768375	-0.103606	0.631548	-146.028513	-75.883257	-42.149511
27004		10.151988	0.506132	-1.561274	0.256049	-1.966303	0.278131	-0.533727	-0.333305	0.141592	-0.744141	0.484619	0.255371	0.101542	0.005092	-0.015457	-0.002098	0.769381	-0.105817	0.629962	-146.497749	-75.677030	-41.980261
27005		9.752089	1.114063	-1.945495	-0.259510	-2.458777	-0.116486	-0.606577	-0.343722	0.262314	-0.737793	0.481934	0.269775	0.097539	0.011210	-0.019321	-0.000782	0.770349	-0.108733	0.628283	-146.785887	-75.426059	-42.041168
27006		9.528993	1.816717	-1.822554	-0.277908	-3.144674	-0.460811	-0.610335	-0.339334	0.344320	-0.737061	0.489258	0.269043	0.095289	0.018276	-0.018120	0.000302	0.771245	-0.111963	0.626614	-146.921961	-75.153011	-42.261376
27007		9.433263	1.621347	-1.587734	-0.018470	-2.999106	-0.585498	-0.730657	-0.355761	0.442753	-0.748779	0.484619	0.275391	0.094325	0.016365	-0.015769	0.001524	0.772126	-0.115958	0.624798	-146.969664	-74.839995	-42.644959
27008		9.641023	0.728722	-1.294721	0.483442	-2.249865	-0.333193	-0.665882	-0.340159	0.542211	-0.744141	0.483887	0.288086	0.096412	0.007506	-0.012808	0.002202	0.772882	-0.120122	0.623073	-146.800454	-74.504634	-43.215347
27009		9.494102	-1.283652	-0.706630	1.424816	-0.413078	-0.321431	-0.624244	-0.327079	0.628633	-0.742920	0.489014	0.281250	0.094992	-0.012560	-0.006871	0.002451	0.773531	-0.124497	0.621405	-146.461127	-74.146305	-43.938797
27010		9.078392	-3.105423	-0.973649	1.480560	1.407713	-0.387478	-0.603961	-0.385083	0.704227	-0.732178	0.496582	0.295166	0.090911	-0.030763	-0.009468	0.002358	0.774293	-0.129089	0.619517	-146.076756	-73.736384	-44.698209
27011		8.726449	-3.635425	-0.924357	1.607226	1.913167	-0.648748	-0.321596	-0.384815	0.664789	-0.725830	0.505615	0.302979	0.087402	-0.036079	-0.009017	0.001286	0.775068	-0.132661	0.617793	-145.620422	-73.336431	-45.365710
27012		8.778547	-3.270349	-0.480926	2.002145	1.414157	-0.758376	-0.167453	-0.398069	0.577642	-0.725342	0.511963	0.293945	0.087889	-0.032454	-0.004607	-0.000116	0.775930	-0.135407	0.616115	-145.253079	-72.958527	-45.849123
27013		9.029718	-2.481183	-0.548515	1.859687	0.554926	-0.635206	-0.172931	-0.486182	0.517695	-0.717773	0.509766	0.309570	0.090374	-0.024583	-0.005244	-0.001378	0.777094	-0.137947	0.614079	-145.086888	-72.556824	-46.126378
27014		9.306125	-1.875246	-1.088716	1.317270	-0.051683	-0.348676	-0.269772	-0.562875	0.484312	-0.718506	0.519043	0.305176	0.093136	-0.018541	-0.010600	-0.002208	0.778505	-0.140640	0.611674	-145.115008	-72.131256	-46.258414
27015		9.651190	-1.120879	-1.710006	0.686410	-0.803416	-0.004078	-0.218205	-0.611026	0.504070	-0.715332	0.520020	0.313965	0.096591	-0.010984	-0.016793	-0.003340	0.780037	-0.143261	0.609104	-145.133608	-71.675304	-46.369844
27016		9.874983	-0.250838	-1.841255	0.471018	-1.726011	0.075028	-0.199132	-0.620079	0.552216	-0.707520	0.528320	0.321289	0.098813	-0.002254	-0.018104	-0.004692	0.781547	-0.145998	0.606504	-145.088384	-71.200605	-46.537237
27017		9.937630	0.506828	-1.906041	0.304877	-2.520228	-0.004464	-0.282350	-0.644854	0.633565	-0.701660	0.538086	0.325928	0.099420	0.005357	-0.018747	-0.005991	0.783059	-0.149312	0.603729	-145.007364	-70.686267	-46.793551
27018		10.074847	0.965530	-2.006142	0.187250	-3.045888	0.043588	-0.310762	-0.695623	0.705311	-0.700928	0.530762	0.324463	0.100783	0.009980	-0.019726	-0.007425	0.784652	-0.152978	0.600720	-144.906741	-70.125622	-47.088684
27019		10.108534	0.972610	-1.799658	0.440817	-3.177102	-0.010750	-0.288302	-0.751188	0.793977	-0.697754	0.538086	0.342773	0.101112	0.010102	-0.017631	-0.009263	0.786320	-0.156926	0.597486	-144.740552	-69.508307	-47.441153
27020		9.930820	0.650744	-1.656109	0.666282	-2.939669	-0.184569	-0.262929	-0.830119	0.865449	-0.690918	0.552979	0.352539	0.099346	0.006916	-0.016158	-0.011469	0.788139	-0.161061	0.593941	-144.558825	-68.831199	-47.796090
27021		9.921897	0.066037	-1.615639	0.908969	-2.487907	-0.115194	-0.253040	-0.966657	0.904902	-0.676270	0.555664	0.356934	0.099291	0.001089	-0.015678	-0.013947	0.790298	-0.165316	0.589835	-144.454604	-68.075923	-48.063402
27022		9.904880	-0.790505	-1.486036	1.315753	-1.803786	-0.017115	-0.153598	-1.095371	0.962536	-0.667236	0.548828	0.357666	0.099165	-0.007439	-0.014312	-0.017087	0.792743	-0.169479	0.585273	-144.347219	-67.242319	-48.273962
27023		10.196114	-1.193155	-1.274001	1.781428	-1.663851	0.240340	0.013901	-1.223807	0.988195	-0.659424	0.566650	0.371826	0.102094	-0.011426	-0.012116	-0.021080	0.795481	-0.173241	0.580304	-144.226748	-66.339292	-48.395720
27024		10.590683	-1.494220	-1.101701	2.228852	-1.658871	0.574158	0.049475	-1.358484	1.041624	-0.650391	0.572266	0.379883	0.106054	-0.014387	-0.010301	-0.025479	0.798506	-0.177079	0.574789	-144.141106	-65.356630	-48.457815
27025		10.990550	-1.154084	-1.114882	2.359576	-2.241767	0.806664	0.124536	-1.440457	1.081500	-0.637939	0.575928	0.391357	0.110042	-0.010939	-0.010364	-0.030368	0.801659	-0.180843	0.568960	-144.036399	-64.321670	-48.493948
27026		11.442905	-0.555694	-1.263061	2.327300	-3.074931	1.048654	0.185763	-1.499385	1.124602	-0.626221	0.592285	0.391602	0.114548	-0.004902	-0.011777	-0.035671	0.804864	-0.184574	0.562898	-143.903538	-63.245667	-48.522695
27027		11.759591	0.366372	-1.054305	2.511160	-4.231680	0.925845	0.158593	-1.574980	1.223815	-0.618896	0.596436	0.405518	0.117649	0.004391	-0.009613	-0.041215	0.808117	-0.188756	0.556435	-143.752037	-62.100471	-48.590152
27028		11.721034	1.814875	-0.486765	2.775247	-5.804946	0.162730	-0.084310	-1.620818	1.324454	-0.594727	0.610352	0.416748	0.117121	0.018923	-0.003926	-0.046091	0.811368	-0.193985	0.549479	-143.690726	-60.900579	-48.714159
27029		12.390871	1.859965	0.238248	3.767218	-6.366276	0.302743	-0.233124	-1.732280	1.479637	-0.581299	0.612061	0.419922	0.123740	0.019519	0.003432	-0.050897	0.814711	-0.200208	0.541824	-143.661619	-59.596128	-48.900670
27030		13.757873	2.290021	0.393300	4.389235	-7.508919	1.096864	-0.216558	-1.930261	1.689834	-0.563721	0.624756	0.431396	0.137332	0.024066	0.005234	-0.056526	0.818255	-0.207157	0.533245	-143.585560	-58.129224	-49.133744
27031		14.711012	3.763025	1.016884	5.010880	-9.541921	0.931542	-0.692659	-1.999409	1.781048	-0.546631	0.624512	0.450684	0.146656	0.038976	0.011503	-0.060514	0.821875	-0.215694	0.523771	-143.761684	-56.599537	-49.394915
27032		15.772554	4.771467	1.834834	5.939040	-11.251020	0.819011	-1.139226	-2.081610	1.912059	-0.522949	0.626221	0.464111	0.157059	0.049328	0.019707	-0.063084	0.825531	-0.225866	0.513325	-144.147651	-54.988323	-49.716729
27033		17.341590	6.953824	2.410865	6.430259	-14.236214	0.716193	-1.406107	-2.249391	2.076156	-0.495850	0.626465	0.491455	0.172398	0.071508	0.025553	-0.065146	0.829302	-0.237288	0.501706	-144.656352	-53.246217	-50.082191
27034		19.127682	10.499740	4.225727	7.502390	-18.715574	-0.465197	-1.766287	-2.259438	2.245108	-0.464600	0.633545	0.517578	0.189593	0.107512	0.043463	-0.066131	0.832762	-0.250239	0.489403	-145.269916	-51.445466	-50.584706
27035		19.052891	12.379648	5.271093	7.548874	-20.759186	-2.324116	-2.007892	-2.334950	2.414056	-0.437256	0.640137	0.540283	0.188389	0.126615	0.053657	-0.066590	0.835974	-0.264363	0.476262	-145.955195	-49.559306	-51.186426
27036		16.761387	9.494623	2.599458	5.320143	-17.063993	-2.175137	-1.904251	-2.500707	2.639547	-0.409668	0.634277	0.562744	0.166004	0.097399	0.027157	-0.068215	0.838915	-0.279028	0.462290	-146.527062	-47.525327	-51.878393
27037		15.474636	4.712532	-0.205425	4.394242	-12.298268	-0.266469	-1.509053	-2.673432	2.877428	-0.377441	0.630859	0.580811	0.154059	0.049338	-0.000358	-0.072250	0.841423	-0.293586	0.447878	-146.830815	-45.339620	-52.651311
27038		15.955206	-0.681710	-3.061623	4.770315	-8.179324	3.405157	-1.158709	-2.950520	3.142131	-0.329590	0.633057	0.598145	0.160063	-0.004473	-0.028227	-0.078734	0.843643	-0.308246	0.432494	-146.930124	-42.937655	-53.461085
27039		15.780696	-3.652017	-5.192739	4.634319	-5.964379	5.426671	-0.744705	-2.970392	3.098800	-0.291992	0.638916	0.606934	0.159096	-0.034249	-0.049440	-0.086851	0.845398	-0.321657	0.417488	-146.861483	-40.542719	-54.203746
27040		13.603316	-3.303403	-3.047692	5.402668	-5.632591	2.200340	-1.121729	-2.735052	2.414412	-0.267578	0.635010	0.626465	0.136818	-0.031549	-0.028430	-0.091542	0.847573	-0.332943	0.402975	-147.251458	-38.472935	-54.600056
27041		12.602085	-5.077269	-5.364700	4.382671	-3.732370	3.611584	-1.739819	-2.610116	2.050338	-0.227295	0.630859	0.641602	0.127218	-0.049927	-0.051555	-0.092628	0.850080	-0.343854	0.388006	-148.101890	-36.581870	-54.839031
27042		10.843720	-6.705692	-9.029890	2.092958	-1.255912	5.618381	-1.322045	-2.138034	1.485634	-0.208984	0.625488	0.650146	0.109888	-0.066834	-0.088687	-0.093568	0.852210	-0.351693	0.375892	-148.799882	-35.090093	-54.939617
27043		9.964153	-7.324615	-9.914511	1.668893	-0.339168	5.945625	-0.557058	-1.594978	0.780174	-0.201416	0.618652	0.665527	0.100712	-0.073129	-0.098141	-0.095460	0.854073	-0.355273	0.367733	-149.180965	-34.077487	-54.828874
27044		6.932921	-8.161013	-10.422101	0.511372	2.218664	4.955535	-0.248284	-1.288184	0.412279	-0.184570	0.614746	0.673340	0.070166	-0.081595	-0.103670	-0.097456	0.855822	-0.356853	0.361562	-149.440240	-33.319702	-54.616830
27045		2.290143	-10.529598	-12.593248	-1.788985	7.202517	5.007143	-0.567286	-0.951730	0.364380	-0.168945	0.608643	0.663574	0.023692	-0.105610	-0.125522	-0.097383	0.857167	-0.358938	0.356292	-149.828707	-32.744610	-54.498783
27046		5.100082	-14.626380	-12.404309	2.078979	8.146895	8.162664	-0.054743	-0.822804	0.119450	-0.156738	0.601563	0.669434	0.051598	-0.146267	-0.123792	-0.098849	0.858452	-0.359130	0.352582	-149.974230	-32.299876	-54.285273
27047		6.756401	-13.370576	-9.101198	4.320700	5.741869	6.174938	2.334593	0.018245	-0.307206	-0.165771	0.618896	0.654053	0.067351	-0.132735	-0.092571	-0.108291	0.857770	-0.353653	0.356977	-148.730092	-32.399125	-54.108506
27048		4.852372	-4.328271	-5.820051	0.562997	0.184122	-1.106572	3.632729	0.402525	-1.073604	-0.164063	0.638184	0.637207	0.048176	-0.042474	-0.059074	-0.121235	0.856842	-0.342705	0.365619	-146.904865	-32.919482	-53.632590
27049		4.466670	1.335614	-3.340334	-0.815197	-3.862935	-5.652638	2.538581	0.674602	-1.619886	-0.182617	0.654053	0.621338	0.044663	0.013418	-0.033384	-0.127981	0.856755	-0.331465	0.373794	-145.818864	-33.756066	-52.960082
27050		4.557171	-1.117362	-1.795013	1.493381	-2.088478	-5.494670	0.382053	1.320237	-2.078748	-0.200684	0.648193	0.605225	0.045333	-0.011611	-0.018272	-0.123546	0.857437	-0.322650	0.381360	-145.986377	-35.047834	-52.275069
27051		3.597340	-3.725013	-3.561640	0.882675	0.712562	-3.631058	-1.110521	1.727499	-1.894715	-0.220947	0.635986	0.614502	0.035309	-0.037785	-0.035714	-0.112374	0.857813	-0.317652	0.388105	-146.881357	-36.473575	-51.830634
27052		0.981361	-6.147479	-6.392510	-1.413020	4.577860	-2.285371	-1.415089	1.909229	-1.366409	-0.247314	0.623535	0.624756	0.008783	-0.061988	-0.063575	-0.100622	0.857008	-0.315566	0.394754	-147.745401	-37.814620	-51.741454
27053		-1.358032	-8.989269	-7.743735	-2.274171	8.539813	-1.780850	-0.561939	2.012568	-1.094183	-0.249512	0.620361	0.623047	-0.014849	-0.090031	-0.077039	-0.092872	0.854997	-0.312949	0.403011	-148.003527	-39.125212	-51.842430
27054		-1.826141	-8.267040	-6.841155	-2.290538	8.304614	-3.159914	1.102847	2.293441	-1.478258	-0.276855	0.607910	0.607422	-0.019656	-0.082150	-0.068645	-0.091020	0.852100	-0.305425	0.415159	-147.384784	-40.686069	-51.820902
27055		-1.174523	-4.335270	-5.027986	-2.563689	4.668590	-5.679854	2.094447	2.722991	-2.176715	-0.301514	0.615723	0.584961	-0.012899	-0.042688	-0.050559	-0.091250	0.848654	-0.292955	0.430857	-146.356863	-42.674503	-51.560117
27056		0.109983	-0.980069	-3.444487	-2.292815	1.085770	-7.282990	1.682352	3.186891	-2.817036	-0.341309	0.613525	0.565918	0.000415	-0.009519	-0.034536	-0.087638	0.844942	-0.278742	0.447991	-145.701160	-45.088326	-51.114451
27057		1.446331	0.673891	-2.823914	-1.929781	-1.026097	-7.416295	0.290892	3.609677	-3.247709	-0.380127	0.606689	0.556396	0.014058	0.006550	-0.028486	-0.076539	0.841017	-0.265845	0.464929	-145.933766	-47.844943	-50.562202
27058		2.698489	1.315633	-3.345835	-2.140325	-2.032890	-6.422915	-1.038219	3.913730	-3.442165	-0.414063	0.592285	0.545654	0.026542	0.012521	-0.034047	-0.058952	0.836612	-0.255176	0.481134	-147.003290	-50.801266	-49.935874
27059		3.939608	0.418283	-4.174424	-2.098670	-1.512244	-4.672448	-1.822505	3.984846	-3.451277	-0.453613	0.559082	0.535400	0.038614	0.003127	-0.042551	-0.037922	0.831654	-0.246175	0.496298	-148.643041	-53.786929	-49.182345
27060		4.111642	-0.778753	-5.667237	-2.964067	0.057726	-3.423034	-2.283358	3.917531	-3.417890	-0.504150	0.532715	0.541016	0.039849	-0.009128	-0.057362	-0.015119	0.826256	-0.238261	0.510200	-150.760145	-56.710392	-48.197838
27061		3.906920	-1.768504	-6.941499	-3.856663	1.698599	-2.827099	-2.488493	4.070069	-3.348191	-0.536621	0.500000	0.526367	0.037336	-0.019188	-0.069954	0.008556	0.819712	-0.230961	0.524076	-153.152485	-59.670407	-47.060093
27062		3.852666	-2.744508	-7.943828	-4.464948	3.292704	-2.418303	-2.287353	4.431041	-3.285626	-0.573975	0.466309	0.515381	0.036292	-0.028966	-0.079933	0.031644	0.811453	-0.223186	0.539194	-155.557000	-62.771211	-45.812095
27063		4.380415	-3.508119	-8.381267	-4.514406	4.391756	-1.935939	-1.655470	4.680322	-3.305008	-0.609131	0.438721	0.492432	0.041237	-0.036474	-0.084500	0.052478	0.801915	-0.213381	0.555560	-157.931094	-65.982286	-44.230952
27064		5.769741	-3.756579	-8.421207	-4.254617	4.690835	-0.970792	-0.815852	4.729675	-3.383240	-0.640869	0.414063	0.475098	0.055037	-0.038859	-0.085378	0.070163	0.791849	-0.200741	0.572500	-160.465206	-69.201567	-41.995876
27065		8.765200	-3.557264	-7.809803	-3.307880	4.078271	1.271590	-0.197248	4.633961	-3.322294	-0.679932	0.381348	0.443115	0.085204	-0.037080	-0.080055	0.085076	0.781543	-0.186428	0.589235	-163.412755	-72.315819	-38.993957
27066		12.052269	-3.820988	-6.910335	-2.018001	3.952163	3.893661	-0.591090	4.706916	-2.965828	-0.703857	0.357910	0.410400	0.118268	-0.040185	-0.071788	0.100472	0.769906	-0.174498	0.605559	-167.056952	-75.354838	-35.553090
27067		10.496798	-7.483174	-7.957678	-2.220911	8.548486	2.493369	-1.572503	4.980793	-2.686548	-0.726563	0.341553	0.379883	0.101930	-0.076851	-0.081542	0.118961	0.756064	-0.166325	0.621732	-172.276189	-78.438944	-31.120524
27068		6.546066	-11.678246	-9.868127	-3.223116	14.046405	-1.514957	-0.702271	4.965322	-3.020721	-0.763184	0.307617	0.336182	0.061215	-0.118078	-0.099823	0.135080	0.742423	-0.154059	0.637830	178.453557	-81.378412	-22.116291
27069		4.560229	-10.216690	-7.518661	-2.272764	12.195637	-4.544323	1.435384	4.535482	-3.557699	-0.777588	0.288330	0.302979	0.042051	-0.102388	-0.076902	0.144530	0.731360	-0.133136	0.653069	160.378680	-83.585985	-3.060646
27070		5.108678	-5.905558	-3.687737	-0.690235	6.957290	-4.745993	2.064665	3.913365	-3.967657	-0.797119	0.260742	0.268311	0.049165	-0.059652	-0.038466	0.152474	0.722416	-0.108996	0.665572	131.919969	-84.198681	26.743274
27071		7.662062	-3.230593	-2.072360	-0.161586	4.291138	-2.397768	1.294998	3.283849	-4.140797	-0.816650	0.237305	0.238037	0.075576	-0.033737	-0.022186	0.163308	0.714483	-0.087182	0.674717	107.359973	-83.036414	52.197441
27072		11.304674	-2.178603	-3.176400	-1.464528	4.480610	1.159223	0.403049	2.825971	-4.032780	-0.830078	0.197266	0.216797	0.112114	-0.023987	-0.033400	0.176654	0.706843	-0.069077	0.681465	93.236021	-81.034799	66.689152
27073		11.880742	0.932795	-6.534707	-5.798945	3.302761	2.026522	1.375949	2.630065	-4.040963	-0.841553	0.166260	0.194092	0.118097	0.007393	-0.066848	0.186412	0.700289	-0.047761	0.687433	85.719433	-78.698803	75.124144
27074		11.974839	4.632709	-4.515410	-5.198269	-0.342286	2.760864	1.968285	2.427899	-3.730902	-0.857422	0.141846	0.170410	0.120034	0.044541	-0.046166	0.192870	0.694486	-0.025652	0.692699	81.660253	-76.418073	80.435416
27075		11.593631	5.594627	-2.523904	-3.697254	-1.519993	2.680824	0.769984	2.253609	-3.047760	-0.865967	0.111572	0.147217	0.116479	0.054274	-0.026338	0.201006	0.687706	-0.010222	0.697534	78.381120	-74.473119	84.278978
27076		10.526044	4.849884	-1.761726	-2.904659	-0.995506	1.500388	-0.559239	1.903089	-2.051556	-0.867920	0.095947	0.129150	0.105575	0.047366	-0.018754	0.210163	0.680565	-0.003200	0.701892	75.342804	-73.079862	87.109975
27077		8.812189	1.953561	-1.104670	-1.567658	1.161589	-0.931128	-1.693589	1.316374	-0.741748	-0.861816	0.091309	0.120605	0.088117	0.019111	-0.011790	0.218540	0.674155	-0.005233	0.705498	72.427956	-72.462110	89.146305
27078		7.340477	-1.533917	-1.363151	-0.781694	4.005623	-3.375482	-2.248586	0.546906	0.607132	-0.867676	0.089355	0.126953	0.073414	-0.015270	-0.013660	0.223980	0.669729	-0.014610	0.707872	69.849167	-72.690067	90.499455
27079		6.638844	-3.680479	-2.358338	-0.972719	6.012385	-4.705245	-1.732894	-0.182139	1.448593	-0.854492	0.101807	0.124512	0.066675	-0.036525	-0.023205	0.224630	0.668306	-0.025795	0.708691	68.211776	-73.502856	91.173580
27080		6.588956	-4.403101	-2.395317	-0.702445	6.585410	-4.845199	-0.944544	-0.695337	1.809752	-0.851563	0.112061	0.138916	0.066367	-0.043544	-0.023517	0.221273	0.669461	-0.035965	0.708214	67.611811	-74.613751	91.235348
27081		6.687348	-4.947027	-2.608544	-0.649018	7.070301	-4.754648	-0.686366	-1.273329	2.128342	-0.850830	0.130615	0.158203	0.067559	-0.048842	-0.025488	0.215786	0.672796	-0.046926	0.706102	68.055440	-76.019239	90.370732
27082		6.904034	-5.992440	-3.664714	-1.160773	8.311680	-4.658504	-0.726491	-1.861151	2.481314	-0.853516	0.149170	0.166016	0.070113	-0.059190	-0.035782	0.209008	0.677939	-0.059836	0.702235	69.726887	-77.730074	88.227899
27083		8.162744	-7.756148	-3.174221	0.080720	9.812791	-3.444697	-0.662876	-2.105529	2.913652	-0.833252	0.172363	0.178955	0.083073	-0.076461	-0.030618	0.200357	0.683679	-0.074233	0.697804	72.368007	-79.702593	85.148295
27084		14.049023	-6.330126	4.427733	6.635523	6.472007	3.268743	2.477587	-0.682094	2.883462	-0.831055	0.198486	0.174072	0.141238	-0.061815	0.043986	0.181539	0.687366	-0.076110	0.699127	73.107957	-81.396197	85.837919
27085		21.851684	25.620846	11.376316	2.116720	-24.465302	15.882542	2.801300	-0.626837	0.279954	-0.825195	0.208496	0.182373	0.217794	0.254880	0.118023	0.170669	0.691946	-0.067848	0.698198	76.784786	-81.645751	83.743545
27086		27.866881	-3.655058	-6.908686	-4.684278	9.641673	17.071038	-1.637701	-1.172125	0.559988	-0.824951	0.208008	0.188721	0.279168	-0.036325	-0.067154	0.173974	0.694436	-0.076493	0.694003	80.028452	-82.094900	79.519788
27087		3.014690	-6.743607	-1.642852	0.775450	7.243628	-7.766148	2.947025	0.126455	0.367827	-0.826172	0.222412	0.184326	0.030260	-0.067128	-0.017438	0.162490	0.696367	-0.067429	0.695790	80.969557	-82.291352	80.274610
27088		0.723684	-1.406190	-1.338827	-0.821098	1.831422	-9.297894	2.491522	-0.828224	0.631040	-0.819336	0.231934	0.181396	0.007337	-0.013871	-0.013532	0.151327	0.701019	-0.061619	0.694172	85.686619	-82.705020	76.957374
27089		8.114010	3.524169	-3.770383	-4.296798	-1.314126	-1.311235	2.220294	-2.492607	0.717247	-0.818115	0.242676	0.197998	0.081470	0.035942	-0.036293	0.140260	0.711050	-0.058308	0.686538	98.565272	-83.064630	65.261926
27090		11.259887	6.466730	-7.510610	-8.273231	-2.957842	2.344755	1.309484	-2.370656	0.657930	-0.816895	0.247070	0.220703	0.113261	0.065523	-0.073339	0.132643	0.719868	-0.057802	0.678863	110.964499	-83.081021	53.528589
27091		13.538011	5.820142	-7.252996	-7.424802	-2.437763	4.632970	1.462067	-1.490902	0.634498	-0.807373	0.247314	0.218506	0.135727	0.059155	-0.071089	0.124783	0.725696	-0.056110	0.674275	119.463127	-83.044219	45.811848
27092		12.317102	3.330752	-3.799748	-3.384712	-1.267857	3.000339	1.435111	-1.181091	0.958811	-0.802002	0.270508	0.225342	0.123229	0.034166	-0.037027	0.116006	0.730287	-0.055478	0.670929	127.463388	-83.126570	38.582048
27093		11.375555	-0.528546	-4.614657	-3.210841	2.356747	1.810843	0.228689	-1.561888	1.902520	-0.790283	0.284912	0.240479	0.114154	-0.004149	-0.045261	0.108342	0.735101	-0.062559	0.666314	139.400352	-83.300777	26.693976
27094		12.281074	-5.774719	-6.782834	-3.841439	7.704074	2.679372	-0.228187	-1.445855	2.842547	-0.778320	0.310059	0.252441	0.124101	-0.056066	-0.066870	0.099246	0.738834	-0.074534	0.662359	155.022525	-83.484412	10.837709
27095		11.519082	-9.627291	-6.582830	-2.788746	11.016739	2.000151	0.918359	-0.336790	2.742331	-0.781494	0.329102	0.250000	0.116605	-0.094377	-0.066069	0.086629	0.739331	-0.081784	0.662719	169.531987	-83.776753	-3.230969
27096		8.961480	-9.892169	-4.828648	-1.446776	10.597671	-0.481778	1.462417	-0.048678	1.873631	-0.780273	0.346191	0.241943	0.090546	-0.097720	-0.048982	0.074989	0.739330	-0.083871	0.663878	-179.744960	-83.841058	-13.173158
27097		6.727692	-6.966370	-3.881645	-1.537728	7.444273	-2.665944	1.306844	-0.456948	0.747905	-0.774170	0.357178	0.247803	0.067625	-0.069156	-0.039115	0.067471	0.741028	-0.082472	0.662966	-175.217769	-83.555661	-16.974101
27098		5.673253	-5.095153	-4.620637	-2.806947	5.743914	-3.597785	0.972173	-0.739797	-0.167271	-0.766602	0.358643	0.237061	0.056861	-0.050774	-0.046243	0.064117	0.743885	-0.078869	0.660533	-175.776840	-83.137089	-15.849817
27099		6.672761	-3.630893	-5.838500	-4.172774	4.490675	-2.449338	0.924733	-0.684376	-0.477181	-0.772217	0.354736	0.244629	0.066841	-0.036199	-0.058324	0.061970	0.746643	-0.074266	0.658155	-177.628102	-82.756209	-13.450171
27100		9.558927	0.356607	-6.487825	-5.186969	0.564576	0.500794	1.540035	-0.586231	-0.332139	-0.773193	0.366699	0.235840	0.095785	0.003905	-0.064568	0.057094	0.749168	-0.068128	0.656388	-178.308933	-82.423680	-11.873168
27101		14.988168	6.639471	-3.866790	-2.940447	-6.333900	5.514147	1.934010	-0.282960	0.237294	-0.772217	0.371094	0.239502	0.149856	0.066941	-0.037810	0.048958	0.750561	-0.062756	0.655990	-176.240467	-82.249969	-12.841756
27102		14.849325	6.340947	-2.350856	-1.368085	-6.390364	5.138134	-0.068256	0.023737	0.725500	-0.775391	0.380127	0.232666	0.148259	0.063940	-0.023548	0.046842	0.750256	-0.065686	0.656207	-173.244436	-82.221918	-15.904325
27103		10.791273	0.120376	-4.182635	-2.715812	0.108799	1.437769	-1.055332	0.063091	0.917084	-0.772461	0.376709	0.234619	0.107893	0.001478	-0.041868	0.047801	0.749512	-0.072578	0.656261	-170.014155	-82.175780	-19.774645
27104		7.503974	-4.533542	-4.490287	-2.635203	4.848486	-1.653464	-0.487286	-0.052184	0.761914	-0.769043	0.391357	0.228760	0.075224	-0.045158	-0.044773	0.047108	0.749304	-0.077035	0.656041	-167.257454	-82.057090	-22.838854
27105		6.534744	-4.475829	-2.413534	-0.732747	4.444209	-2.864816	0.128689	-0.051602	0.623718	-0.775146	0.391846	0.233643	0.065493	-0.044539	-0.024147	0.044547	0.749291	-0.078968	0.656005	-164.769993	-81.936398	-25.275936
27106		8.479688	-2.428918	0.771979	2.264128	1.718680	-1.426971	0.104125	-0.268391	0.698447	-0.762939	0.397461	0.236816	0.084871	-0.023997	0.007821	0.041760	0.749935	-0.081292	0.655168	-162.361396	-81.672491	-27.648459
27107		10.300714	-1.379393	1.004605	2.568773	0.445054	0.297656	-0.544898	-0.532726	0.797400	-0.777588	0.391113	0.241455	0.103034	-0.013355	0.010357	0.040961	0.751262	-0.086185	0.653070	-160.443671	-81.231793	-29.903055
27108		11.266033	-1.392126	-0.820204	0.972204	0.611491	1.510488	-0.680444	-0.526851	0.688502	-0.764893	0.412598	0.245361	0.112728	-0.013560	-0.007859	0.041040	0.752556	-0.091090	0.650905	-159.164204	-80.809263	-31.592448
27109		11.324745	-0.213099	-0.431177	1.173542	-0.693305	1.439998	-0.442034	-0.293087	0.532152	-0.772217	0.418457	0.251953	0.113259	-0.001839	-0.004142	0.040824	0.753202	-0.094599	0.649671	-158.066125	-80.536175	-32.961523
27110		10.317128	1.015947	0.208265	1.426131	-1.980283	0.265163	-0.744418	-0.161987	0.458733	-0.766357	0.419434	0.252686	0.103146	0.010404	0.002128	0.042060	0.753373	-0.098767	0.648772	-157.272130	-80.347545	-34.198577
27111		9.034853	1.500449	-0.231688	0.718944	-2.291760	-0.971623	-1.063316	-0.175647	0.451589	-0.767334	0.412842	0.254395	0.090316	0.015196	-0.002318	0.044499	0.753513	-0.103960	0.647635	-156.729808	-80.148385	-35.366637
27112		8.660764	0.776167	-0.433023	0.623476	-1.547417	-1.267782	-1.139514	-0.215514	0.529212	-0.763916	0.412109	0.261719	0.086591	0.007966	-0.004282	0.046965	0.753689	-0.109680	0.646311	-156.096666	-79.911031	-36.671748
27113		8.974537	-0.635915	-1.076277	0.379325	-0.118535	-0.760237	-1.003103	-0.310969	0.618947	-0.758789	0.426025	0.271973	0.089781	-0.006135	-0.010592	0.048560	0.754134	-0.115332	0.644688	-155.295570	-79.597356	-38.069482
27114		9.941068	-1.904341	-1.490449	0.450146	1.036034	0.355711	-0.723046	-0.368721	0.648243	-0.765137	0.424805	0.269775	0.099499	-0.018774	-0.014653	0.048982	0.754785	-0.120185	0.643006	-154.403606	-79.245471	-39.397656
27115		10.215186	-3.140730	-1.245710	1.068120	2.070536	0.691471	-0.611801	-0.375567	0.692824	-0.757080	0.427734	0.272461	0.102283	-0.031091	-0.012170	0.048823	0.755446	-0.124864	0.641348	-153.406497	-78.872288	-40.769859
27116		9.560024	-4.048399	-1.215867	1.275058	2.945851	0.135049	-0.529057	-0.403676	0.663833	-0.758057	0.433105	0.283447	0.095758	-0.040198	-0.011859	0.048439	0.756210	-0.129156	0.639624	-152.554464	-78.490741	-41.947280
27117		8.873640	-4.314799	-1.216940	1.288093	3.225623	-0.497347	-0.310370	-0.477806	0.570159	-0.760010	0.432373	0.295410	0.088888	-0.042913	-0.011890	0.047464	0.757317	-0.132427	0.637715	-151.958592	-78.091046	-42.737024
27118		8.942410	-3.697145	-1.074857	1.319811	2.530273	-0.504289	-0.144090	-0.576372	0.450151	-0.751221	0.439453	0.296143	0.089537	-0.036778	-0.010464	0.046191	0.758839	-0.134717	0.635516	-151.720048	-77.675536	-43.064793
27119		9.519017	-2.502917	-0.856338	1.352988	1.194413	-0.099193	-0.079582	-0.610529	0.388466	-0.759766	0.443359	0.305176	0.095264	-0.024848	-0.008263	0.044830	0.760522	-0.136593	0.633197	-151.636126	-77.256616	-43.197056
27120		9.876031	-1.122999	-0.837089	1.113770	-0.236829	0.096948	-0.135021	-0.587445	0.354203	-0.754395	0.444824	0.301025	0.098804	-0.011061	-0.008073	0.043818	0.762127	-0.138489	0.630923	-151.643387	-76.861401	-43.268334
27121		9.677642	-0.143946	-1.089861	0.626514	-1.129249	-0.158816	-0.113863	-0.538901	0.342338	-0.747803	0.447754	0.305664	0.096808	-0.001280	-0.010637	0.042781	0.763588	-0.140279	0.628828	-151.604148	-76.491152	-43.375244
27122		9.299704	0.809468	-1.066792	0.369523	-2.032507	-0.647000	0.053960	-0.535810	0.388632	-0.745117	0.463623	0.311768	0.093009	0.008278	-0.010417	0.040975	0.765029	-0.141697	0.626876	-151.382207	-76.112480	-43.571208
27123		8.972596	1.724004	-0.536003	0.608212	-3.031598	-1.198393	0.180484	-0.538275	0.477211	-0.740479	0.452393	0.308594	0.089698	0.017459	-0.005103	0.038390	0.766437	-0.143075	0.625005	-150.922172	-75.705160	-43.938410
27124		8.763456	1.670131	-0.073729	1.057709	-3.111909	-1.518729	0.002148	-0.578666	0.621215	-0.744873	0.468018	0.310059	0.087584	0.016973	-0.000484	0.036024	0.767815	-0.145549	0.622878	-150.361212	-75.239100	-44.515969
27125		8.498063	0.332840	-0.289878	1.197098	-1.805095	-1.583478	-0.129683	-0.639360	0.770882	-0.749512	0.468994	0.322266	0.084976	0.003654	-0.002629	0.033638	0.769239	-0.149032	0.620427	-149.697279	-74.696047	-45.279845
27126		8.661971	-1.153075	-0.739141	1.243172	-0.393189	-1.140616	0.063115	-0.704801	0.827149	-0.730713	0.479004	0.319092	0.086692	-0.011170	-0.007090	0.030301	0.770829	-0.152124	0.617869	-148.948710	-74.104414	-46.018830
27127		8.928859	-2.772202	-1.260908	1.283279	1.128663	-0.534865	0.248675	-0.734038	0.810851	-0.730469	0.477539	0.330811	0.089446	-0.027344	-0.012315	0.026263	0.772531	-0.154596	0.615309	-148.201403	-73.498389	-46.648108
