// General information: 
//  MT Manager version: 2019.2.0 
//  XDA version: 2019.2.0 build 3853 rev 94535 built on 2019-09-09
// Device information: 
//  DeviceId: 00B47796
//  ProductCode: MTW2-3A7G6
//  Firmware Version: 4.6.0
//  Hardware Version: 2.0.0
// Device settings: 
//  Filter Profile: human(46.1)
//  Option Flags: Orientation Smoother Disabled, AHS Disabled, ICC Disabled
// Coordinate system: ENU
PacketCounter	SampleTimeFine	Acc_X	Acc_Y	Acc_Z	FreeAcc_E	FreeAcc_N	FreeAcc_U	Gyr_X	Gyr_Y	Gyr_Z	Mag_X	Mag_Y	Mag_Z	VelInc_X	VelInc_Y	VelInc_Z	Quat_q0	Quat_q1	Quat_q2	Quat_q3	Roll	Pitch	Yaw
10176		10.343184	2.655386	2.850003	-4.958072	-4.088198	-0.820684	-0.314107	1.699173	0.246675	-0.754150	0.100586	-0.453857	0.103636	0.026725	0.027578	0.099377	-0.360765	-0.014568	-0.927233	-3.459271	-42.215489	-166.429525
10177		10.068643	2.086263	3.053646	-4.878647	-3.506551	-0.927004	-0.334475	1.530680	-0.058260	-0.756104	0.109131	-0.455078	0.100922	0.020883	0.029730	0.098602	-0.353855	-0.012348	-0.930006	-3.575217	-41.346434	-166.546510
10178		9.807290	1.947381	3.222440	-4.740977	-3.321610	-1.046420	-0.295779	1.383910	-0.353555	-0.747070	0.096436	-0.475342	0.098327	0.019347	0.031516	0.096505	-0.347560	-0.010900	-0.932614	-3.528668	-40.570528	-166.879706
10179		9.373577	1.867921	3.265894	-4.535793	-3.152064	-1.356412	-0.292853	1.243251	-0.558423	-0.736328	0.097656	-0.476074	0.093988	0.018464	0.032048	0.093448	-0.341902	-0.009891	-0.935026	-3.392096	-39.883064	-167.354472
10180		8.768150	1.580599	3.273727	-4.245218	-2.740901	-1.777740	-0.330972	1.101975	-0.656484	-0.724609	0.086182	-0.487793	0.087911	0.015571	0.032227	0.089854	-0.336893	-0.008936	-0.937203	-3.243088	-39.277694	-167.889483
10181		8.345620	1.017377	3.314711	-4.095682	-2.084059	-2.031108	-0.372036	0.949869	-0.685696	-0.717041	0.084961	-0.489502	0.083647	0.009948	0.032732	0.086045	-0.332608	-0.007907	-0.939098	-3.116053	-38.760343	-168.433407
10182		8.020920	0.381503	3.206180	-4.099961	-1.382347	-2.326757	-0.386164	0.797029	-0.682231	-0.713135	0.086426	-0.488037	0.080349	0.003603	0.031735	0.082219	-0.329029	-0.006872	-0.940709	-3.008806	-38.328623	-168.964037
10183		7.919610	-0.246007	3.116409	-4.237108	-0.720465	-2.462843	-0.363649	0.645311	-0.661242	-0.716309	0.086914	-0.494629	0.079288	-0.002666	0.030913	0.078522	-0.326153	-0.005970	-0.942031	-2.907030	-37.983186	-169.469667
10184		7.944478	-0.632691	2.950154	-4.461242	-0.318184	-2.586744	-0.333500	0.506717	-0.608187	-0.710938	0.075928	-0.493408	0.079500	-0.006520	0.029311	0.075118	-0.323907	-0.005178	-0.943088	-2.818316	-37.714239	-169.929120
10185		7.946997	-0.882479	2.742602	-4.657424	-0.051465	-2.758540	-0.309278	0.382855	-0.522350	-0.708252	0.070313	-0.490967	0.079499	-0.008990	0.027288	0.072154	-0.322239	-0.004407	-0.943894	-2.759092	-37.513958	-170.320176
10186		8.082516	-0.964137	2.481478	-4.954532	0.023446	-2.894137	-0.299334	0.269721	-0.392349	-0.705078	0.070068	-0.493896	0.080839	-0.009763	0.024720	0.069816	-0.321097	-0.003515	-0.944463	-2.754903	-37.374244	-170.612655
10187		8.498704	-1.298853	2.151803	-5.538055	0.301405	-2.900067	-0.283139	0.173547	-0.224137	-0.701416	0.072266	-0.489014	0.084991	-0.013053	0.021463	0.068296	-0.320408	-0.002462	-0.944811	-2.817745	-37.285427	-170.780259
10188		8.903118	-1.874396	1.695873	-6.212181	0.805073	-2.999793	-0.191236	0.084376	-0.061799	-0.696289	0.065186	-0.494873	0.089033	-0.018755	0.016939	0.067690	-0.320108	-0.001615	-0.944958	-2.900589	-37.242994	-170.827969
10189		9.288929	-2.244651	1.044395	-6.957725	1.090513	-3.269426	-0.017653	-0.010858	0.068377	-0.702393	0.076416	-0.497559	0.092896	-0.022414	0.010451	0.067975	-0.320202	-0.001411	-0.944906	-2.942822	-37.251468	-170.778619
10190		9.734400	-2.360348	0.273630	-7.786033	1.099970	-3.602022	0.191455	-0.133356	0.200922	-0.697754	0.070801	-0.500000	0.097366	-0.023508	0.002779	0.069220	-0.320806	-0.002024	-0.944610	-2.925789	-37.326277	-170.629371
10191		10.105693	-2.225238	-0.615863	-8.590893	0.847081	-4.073798	0.370293	-0.279166	0.348395	-0.708496	0.078613	-0.500488	0.101104	-0.022065	-0.006058	0.071447	-0.322035	-0.003296	-0.944022	-2.874381	-37.480182	-170.368424
10192		10.258612	-2.148814	-1.404193	-9.165048	0.662313	-4.579039	0.521720	-0.469162	0.498606	-0.711426	0.074951	-0.494385	0.102672	-0.021196	-0.013857	0.074623	-0.324109	-0.005108	-0.943058	-2.807803	-37.739283	-169.991531
10193		10.505280	-1.891283	-1.951979	-9.630559	0.274489	-4.820275	0.623264	-0.705853	0.629367	-0.719482	0.075195	-0.493164	0.105180	-0.018522	-0.019207	0.078572	-0.327252	-0.007275	-0.941637	-2.748836	-38.130013	-169.510228
10194		10.588591	-1.725842	-2.169991	-9.765994	0.000949	-4.870067	0.686509	-0.971157	0.745140	-0.720703	0.091064	-0.482910	0.106053	-0.016790	-0.021243	0.083157	-0.331618	-0.009654	-0.939692	-2.716932	-38.670687	-168.932236
10195		11.282830	-1.505623	-1.978467	-10.084758	-0.401800	-4.189766	0.717518	-1.247347	0.816282	-0.728027	0.092041	-0.481201	0.113009	-0.014526	-0.019133	0.088109	-0.337245	-0.012176	-0.937206	-2.713929	-39.366669	-168.287591
10196		12.623572	-1.585423	-1.486729	-10.716022	-0.593833	-2.820610	0.754798	-1.455490	0.802603	-0.741211	0.099121	-0.478760	0.126402	-0.015293	-0.014006	0.093041	-0.343816	-0.014985	-0.934296	-2.699160	-40.183667	-167.638577
10197		12.980695	-1.315979	-1.159097	-10.608155	-0.978856	-2.191764	0.833200	-1.609512	0.694814	-0.748047	0.100098	-0.470703	0.129939	-0.012663	-0.010599	0.097583	-0.351019	-0.018417	-0.931088	-2.601759	-41.090719	-167.058575
10198		13.041884	-0.681256	-0.850469	-10.190019	-1.649671	-1.768096	0.847115	-1.774198	0.557521	-0.768555	0.107422	-0.458740	0.130506	-0.006416	-0.007375	0.101488	-0.358951	-0.022232	-0.927556	-2.442052	-42.098435	-166.571796
10199		12.919764	-0.167608	-0.614618	-9.678311	-2.148179	-1.503898	0.755606	-1.988393	0.435005	-0.781250	0.109131	-0.449707	0.129253	-0.001375	-0.004867	0.104623	-0.367852	-0.025950	-0.923615	-2.283984	-43.230716	-166.169537
10200		12.949243	-0.073510	-0.199186	-9.210216	-2.211030	-0.980690	0.606856	-2.225857	0.316211	-0.792236	0.115967	-0.433105	0.129505	-0.000527	-0.000552	0.106894	-0.377886	-0.029319	-0.919193	-2.160562	-44.504758	-165.849451
10201		7.561032	-5.498811	2.278586	-4.791297	4.369118	-2.702828	0.487839	-2.436543	0.102049	-0.817383	0.122559	-0.417725	0.075354	-0.055006	0.023571	0.107908	-0.388845	-0.032656	-0.914379	-1.992867	-45.902014	-165.695041
10202		20.245075	-5.927105	28.520172	5.389513	6.888473	24.564357	2.396992	-2.453104	-0.748861	-0.831299	0.111328	-0.406006	0.198706	-0.063452	0.286911	0.108718	-0.398642	-0.046374	-0.909458	-0.196826	-47.322482	-166.279993
10203		2.804610	14.459312	63.924801	46.862444	-3.144044	35.982168	1.571562	1.485532	-0.465038	-0.828125	0.111084	-0.423340	0.033127	0.139492	0.640124	0.110061	-0.390937	-0.053624	-0.912239	0.980304	-46.473781	-166.661995
10204		-26.553613	17.050763	59.872284	63.757098	-1.108274	12.863502	0.806399	1.474319	-0.071289	-0.825684	0.108643	-0.439209	-0.261049	0.168180	0.601339	0.111692	-0.383784	-0.056614	-0.914893	1.463684	-45.634100	-166.695087
10205		-36.103061	9.735811	-11.145730	19.414617	-5.626915	-43.187010	-0.142335	0.811019	0.343574	-0.813477	0.099365	-0.437988	-0.361645	0.096659	-0.110061	0.113207	-0.380283	-0.054838	-0.916276	1.169917	-45.178302	-166.400238
10206		13.063556	-1.182745	2.152285	-7.625715	-0.585605	1.058470	-0.155484	-2.753497	0.068855	-0.830322	0.109863	-0.420654	0.130327	-0.011765	0.023328	0.112448	-0.392999	-0.055537	-0.910946	1.070482	-46.760143	-166.388725
10207		34.811799	-0.717041	10.864837	-15.735518	-2.879925	22.967173	0.139738	0.162857	0.131465	-0.826172	0.117432	-0.427979	0.348211	-0.007017	0.108360	0.113354	-0.392251	-0.055811	-0.911140	1.066968	-46.672492	-166.277005
10208		6.065180	-3.163434	3.846141	-2.128288	2.812300	-2.802134	-0.201535	-0.066280	-0.203512	-0.828369	0.113037	-0.419434	0.060607	-0.031657	0.038513	0.112000	-0.392646	-0.055319	-0.911167	1.074432	-46.712606	-166.448741
10209		-3.599323	-2.986841	5.324426	5.401853	4.478874	-8.819947	0.069811	0.049179	0.024347	-0.822754	0.106445	-0.428223	-0.035976	-0.029891	0.053243	0.112249	-0.392425	-0.055549	-0.911217	1.097297	-46.688936	-166.428290
10210		9.477944	4.616039	12.454299	3.599065	-3.627306	5.683698	0.183817	-0.246947	0.119618	-0.825684	0.104492	-0.416748	0.094598	0.046102	0.124702	0.113073	-0.393516	-0.056278	-0.910600	1.130935	-46.835934	-166.332962
10211		5.812240	6.849344	4.769262	1.206622	-6.665338	-2.225935	-0.156545	0.062503	0.136401	-0.829346	0.101563	-0.429688	0.058091	0.068570	0.047621	0.113391	-0.393393	-0.055249	-0.910676	0.955509	-46.805790	-166.218480
10212		7.906803	-3.460583	6.888720	-1.273686	3.351134	0.632175	-0.234184	0.125064	0.224401	-0.825439	0.115234	-0.421143	0.079150	-0.034436	0.068878	0.113974	-0.393053	-0.053661	-0.910846	0.682127	-46.740124	-166.030079
10213		7.222794	-3.770677	6.661887	-1.062139	3.704211	-0.018905	0.037346	0.095066	-0.004127	-0.830811	0.104736	-0.420166	0.072259	-0.037721	0.066577	0.114041	-0.392633	-0.053773	-0.911012	0.703539	-46.689872	-166.033190
10214		7.121470	-0.902464	7.412735	0.234972	1.095711	0.445117	0.197532	0.150283	-0.166402	-0.831543	0.114990	-0.429932	0.071263	-0.009157	0.074065	0.113699	-0.391826	-0.054902	-0.911335	0.914788	-46.606591	-166.170995
10215		7.692795	-0.188065	6.841726	-0.390606	0.227933	0.474150	0.231204	0.162738	-0.249992	-0.826660	0.112793	-0.420654	0.076981	-0.002056	0.068352	0.113044	-0.390919	-0.056340	-0.911717	1.194908	-46.514966	-166.377440
10216		7.260579	1.649067	6.285563	-0.053283	-1.558965	-0.194453	0.205186	0.137323	-0.239106	-0.822266	0.105713	-0.430420	0.072669	0.016339	0.062823	0.112381	-0.390145	-0.057654	-0.912049	1.453128	-46.437295	-166.574423
10217		7.230602	1.530841	6.509742	0.076616	-1.377835	-0.060893	0.076673	0.117505	-0.135398	-0.821533	0.115479	-0.426270	0.072355	0.015234	0.065061	0.111934	-0.389562	-0.058189	-0.912319	1.574902	-46.372178	-166.685014
10218		6.726319	0.706264	6.674126	0.313370	-0.461572	-0.327178	0.002825	0.073488	-0.035103	-0.824219	0.106934	-0.425049	0.067289	0.007050	0.066717	0.111788	-0.389250	-0.058218	-0.912468	1.594866	-46.333700	-166.713255
10219		6.846753	0.500139	6.920862	0.350004	-0.236514	-0.073691	-0.056848	0.017671	0.038345	-0.827637	0.102783	-0.423828	0.068473	0.005034	0.069201	0.111845	-0.389248	-0.057862	-0.912485	1.537262	-46.328414	-166.681760
10220		7.098085	0.710082	6.815405	0.163117	-0.508131	0.038808	-0.073332	-0.027516	0.071514	-0.827637	0.113037	-0.427734	0.070969	0.007151	0.068161	0.112027	-0.389469	-0.057397	-0.912398	1.450703	-46.349256	-166.621264
10221		6.816480	0.838441	7.050522	0.556497	-0.554681	-0.001477	-0.124209	-0.057901	0.128512	-0.822998	0.121338	-0.425781	0.068139	0.008472	0.070520	0.112342	-0.389875	-0.056600	-0.912235	1.301409	-46.388425	-166.516431
10222		7.101618	0.124166	6.762197	-0.002240	0.018755	-0.005786	-0.145031	-0.075222	0.163248	-0.829102	0.112061	-0.425537	0.070990	0.001349	0.067648	0.112793	-0.390378	-0.055657	-0.912023	1.118842	-46.437443	-166.379608
10223		7.060219	-0.019063	6.643165	-0.079838	0.122287	-0.119529	-0.148400	-0.081929	0.177208	-0.829346	0.114258	-0.429932	0.070575	-0.000079	0.066461	0.113276	-0.390920	-0.054668	-0.911790	0.926081	-46.490428	-166.234100
10224		7.120378	-0.418939	6.634451	-0.212507	0.478777	-0.085570	-0.136803	-0.071975	0.170347	-0.820557	0.109375	-0.427002	0.071183	-0.004083	0.066373	0.113753	-0.391407	-0.053741	-0.911577	0.743948	-46.537238	-166.093913
10225		6.977090	-0.718080	6.638372	-0.177839	0.777107	-0.188350	-0.088529	-0.051038	0.121257	-0.828369	0.115723	-0.424805	0.069758	-0.007109	0.066405	0.114106	-0.391758	-0.053117	-0.911419	0.618446	-46.571546	-165.994015
10226		6.919741	-0.526497	6.875319	0.081559	0.636398	-0.064951	-0.027517	-0.030730	0.058780	-0.825684	0.116699	-0.423584	0.069188	-0.005235	0.068765	0.114299	-0.391964	-0.052883	-0.911319	0.565719	-46.593657	-165.945991
10227		7.291921	-0.185163	6.547134	-0.308541	0.179677	-0.017593	0.007439	-0.003931	0.022452	-0.825684	0.117188	-0.421631	0.072918	-0.001846	0.065473	0.114402	-0.392020	-0.052863	-0.911284	0.554594	-46.600277	-165.927909
10228		6.935063	-0.081409	6.863074	0.177211	0.196170	-0.059040	-0.000947	0.024140	0.017984	-0.830566	0.119385	-0.427246	0.069359	-0.000808	0.068622	0.114476	-0.391950	-0.052799	-0.911308	0.541421	-46.590704	-165.913416
10229		7.116461	0.027914	6.776305	0.019870	0.041445	0.013858	-0.011502	0.058681	0.009769	-0.824219	0.109131	-0.420166	0.071184	0.000287	0.067742	0.114501	-0.391728	-0.052681	-0.911407	0.526774	-46.561378	-165.905421
10230		7.058180	0.130613	6.641379	-0.016397	-0.076605	-0.120590	-0.015421	0.093895	0.006798	-0.821045	0.118164	-0.420898	0.070613	0.001314	0.066381	0.114514	-0.391345	-0.052533	-0.911579	0.511706	-46.511771	-165.899739
10231		6.927400	0.190955	6.843471	0.219332	-0.079975	-0.075958	-0.020578	0.110354	0.012440	-0.823730	0.113525	-0.429932	0.069312	0.001921	0.068396	0.114547	-0.390893	-0.052339	-0.911780	0.490012	-46.452850	-165.889185
10232		7.031127	0.156316	6.896354	0.168726	-0.059681	0.035604	-0.028817	0.124225	0.019291	-0.823242	0.113525	-0.425537	0.070354	0.001580	0.068920	0.114598	-0.390383	-0.052088	-0.912006	0.459661	-46.385918	-165.872982
10233		7.055534	-0.066848	6.653520	-0.083652	0.100825	-0.115411	-0.035449	0.129079	0.023104	-0.824707	0.123047	-0.426025	0.070598	-0.000649	0.066490	0.114656	-0.389857	-0.051795	-0.912241	0.423054	-46.316308	-165.853570
10234		6.851043	0.092966	6.815095	0.196324	0.002934	-0.150783	-0.039201	0.120984	0.033617	-0.813965	0.118408	-0.426758	0.068551	0.000955	0.068109	0.114751	-0.389371	-0.051470	-0.912454	0.378327	-46.251274	-165.825675
10235		6.769746	0.236100	7.071293	0.457280	-0.083459	-0.031465	-0.046722	0.102476	0.053654	-0.821533	0.110840	-0.423584	0.067733	0.002396	0.070678	0.114919	-0.388980	-0.051081	-0.912622	0.317271	-46.196991	-165.781306
10236		6.957718	0.737270	6.868203	0.308444	-0.648951	-0.034685	-0.067118	0.087714	0.095082	-0.820801	0.121826	-0.422363	0.069604	0.007429	0.068649	0.115232	-0.388677	-0.050528	-0.912742	0.220193	-46.151124	-165.702961
10237		6.738874	0.523356	7.009350	0.496913	-0.395787	-0.096016	-0.125757	0.087036	0.160457	-0.830078	0.120117	-0.426758	0.067415	0.005332	0.070061	0.115729	-0.388429	-0.049580	-0.912837	0.050539	-46.105718	-165.570694
10238		6.628300	0.180887	7.282825	0.675080	-0.020724	0.013319	-0.173939	0.082314	0.225751	-0.815674	0.116699	-0.426270	0.066311	0.001947	0.072799	0.116448	-0.388242	-0.048293	-0.912894	-0.185550	-46.062378	-165.382375
10239		6.705175	0.811578	7.068950	0.633225	-0.716268	-0.082633	-0.220268	0.084141	0.317677	-0.821533	0.128662	-0.425293	0.067068	0.008300	0.070652	0.117479	-0.388098	-0.046610	-0.912911	-0.502083	-46.017325	-165.121091
10240		6.861192	0.639706	6.802699	0.303864	-0.668647	-0.157520	-0.310351	0.083449	0.420353	-0.820801	0.123535	-0.427002	0.068626	0.006647	0.067988	0.118819	-0.388029	-0.044322	-0.912880	-0.930738	-45.970464	-164.773532
10241		6.779342	-0.002686	6.848796	0.236098	-0.077010	-0.179227	-0.354362	0.078809	0.462034	-0.817383	0.139648	-0.435303	0.067820	0.000251	0.068461	0.120245	-0.388017	-0.041749	-0.912820	-1.408343	-45.924168	-164.394626
10242		6.756285	-0.459018	6.970133	0.228361	0.333794	-0.103052	-0.353479	0.081424	0.452510	-0.818359	0.145264	-0.431396	0.067601	-0.004314	0.069682	0.121629	-0.387985	-0.039198	-0.912764	-1.878567	-45.874198	-164.024660
10243		6.890044	-0.648537	6.507604	-0.225994	0.363715	-0.322763	-0.296372	0.070305	0.389193	-0.813477	0.136963	-0.426758	0.068936	-0.006255	0.065061	0.122832	-0.387956	-0.037035	-0.912705	-2.278467	-45.830112	-163.707132
10244		6.912546	-0.939661	6.742073	-0.145519	0.637777	-0.133134	-0.229403	0.048475	0.295942	-0.817383	0.145508	-0.430176	0.069156	-0.009217	0.067415	0.123734	-0.387964	-0.035374	-0.912646	-2.584723	-45.799269	-163.466182
10245		6.878073	-1.246763	6.750510	-0.190179	0.912300	-0.139881	-0.168791	0.037800	0.194687	-0.822510	0.151855	-0.428711	0.068806	-0.012344	0.067503	0.124290	-0.387966	-0.034191	-0.912614	-2.796989	-45.776657	-163.308102
10246		6.864997	-1.193560	6.673350	-0.219297	0.831924	-0.202996	-0.096030	0.022734	0.099822	-0.811279	0.153076	-0.432861	0.068663	-0.011869	0.066731	0.124568	-0.387973	-0.033538	-0.912598	-2.912348	-45.764751	-163.225171
10247		6.913589	-0.742303	6.805496	-0.043058	0.396914	-0.091365	-0.050481	0.007452	0.040725	-0.813721	0.159912	-0.433594	0.069140	-0.007392	0.068054	0.124645	-0.388013	-0.033212	-0.912582	-2.967068	-45.763549	-163.192306
10248		6.821824	-0.647875	6.923795	0.126738	0.338363	-0.077935	-0.030433	-0.004026	0.009304	-0.817627	0.149902	-0.429443	0.068217	-0.006465	0.069240	0.124616	-0.388086	-0.033047	-0.912561	-2.991979	-45.769675	-163.184831
10249		6.699749	-0.714233	6.852522	0.143908	0.415890	-0.212680	-0.003598	-0.024641	-0.031715	-0.814453	0.156738	-0.431152	0.066988	-0.007152	0.068534	0.124448	-0.388232	-0.033095	-0.912520	-2.978241	-45.788979	-163.210017
10250		6.832646	-0.672601	6.799897	0.031468	0.346445	-0.155823	0.035377	-0.039495	-0.088960	-0.814453	0.146484	-0.429932	0.068310	-0.006768	0.068011	0.124093	-0.388410	-0.033443	-0.912480	-2.908720	-45.818282	-163.281694
10251		6.812620	-0.530608	6.961288	0.195951	0.249844	-0.063224	0.063130	-0.043597	-0.120903	-0.808594	0.149902	-0.430908	0.068108	-0.005369	0.069626	0.123645	-0.388586	-0.033981	-0.912446	-2.804681	-45.850942	-163.379443
10252		6.814671	-0.088259	7.005432	0.339613	-0.158155	-0.046253	0.069608	-0.059673	-0.105440	-0.819824	0.154053	-0.432373	0.068125	-0.000943	0.070074	0.123277	-0.388831	-0.034529	-0.912371	-2.706197	-45.892072	-163.464089
10253		6.852032	-0.006618	6.925867	0.284059	-0.246419	-0.077360	0.042373	-0.071877	-0.057455	-0.822021	0.149170	-0.420410	0.068495	-0.000101	0.069283	0.123073	-0.389159	-0.034866	-0.912246	-2.652023	-45.939007	-163.508841
10254		6.913886	0.084486	6.917495	0.266505	-0.342001	-0.041674	0.013341	-0.077208	-0.016891	-0.812500	0.150879	-0.420410	0.069112	0.000834	0.069202	0.123015	-0.389533	-0.035000	-0.912089	-2.638917	-45.987543	-163.517612
10255		6.870355	0.224944	7.265293	0.582595	-0.412979	0.163629	-0.016215	-0.060647	0.041061	-0.815186	0.146973	-0.425293	0.068681	0.002269	0.072674	0.123148	-0.389863	-0.034871	-0.911935	-2.676283	-46.025422	-163.481714
10256		6.944699	0.209873	7.015701	0.361729	-0.459127	0.043848	-0.070601	-0.044245	0.093032	-0.812744	0.145996	-0.422363	0.069430	0.002156	0.070172	0.123432	-0.390157	-0.034388	-0.911789	-2.775569	-46.052099	-163.401187
10257		7.156566	0.141252	7.053284	0.237618	-0.442841	0.223876	-0.129845	-0.018903	0.140777	-0.807861	0.152344	-0.425781	0.071558	0.001509	0.070539	0.123806	-0.390383	-0.033521	-0.911674	-2.936194	-46.063157	-163.284554
10258		7.028807	-0.226064	7.032351	0.220729	-0.087692	0.129784	-0.192020	0.040044	0.181369	-0.822510	0.150146	-0.419434	0.070304	-0.002129	0.070312	0.124252	-0.390384	-0.032256	-0.911659	-3.154429	-46.038766	-163.137145
10259		7.014648	-0.319622	6.952350	0.152840	-0.035463	0.067491	-0.217593	0.071297	0.211553	-0.816162	0.155762	-0.427979	0.070175	-0.003046	0.069502	0.124791	-0.390264	-0.030795	-0.911687	-3.404179	-45.995309	-162.966442
10260		7.080582	0.146885	6.995215	0.257264	-0.527176	0.124367	-0.245486	0.101293	0.256013	-0.818115	0.160889	-0.419922	0.070839	0.001645	0.069914	0.125499	-0.390027	-0.029107	-0.911747	-3.694867	-45.932194	-162.759065
10261		7.295816	-0.285974	7.217433	0.161592	-0.161782	0.451307	-0.315469	0.128105	0.318274	-0.819580	0.158936	-0.427979	0.073009	-0.002630	0.072132	0.126342	-0.389722	-0.026955	-0.911827	-4.060349	-45.850892	-162.504921
10262		7.851495	-0.027694	7.700603	0.194519	-0.516754	1.170969	-0.437838	0.221975	0.446201	-0.812744	0.167480	-0.432373	0.078600	0.000067	0.076919	0.127557	-0.389078	-0.023943	-0.912017	-4.565711	-45.708730	-162.151095
10263		7.854599	-0.267507	7.264875	-0.184802	-0.428193	0.879671	-0.523688	0.353111	0.546333	-0.805176	0.175049	-0.430664	0.078681	-0.002270	0.072516	0.129059	-0.387900	-0.020254	-0.912396	-5.168934	-45.484843	-161.729893
10264		7.303291	-0.843862	6.857045	-0.268437	0.108829	0.236428	-0.493337	0.436351	0.539169	-0.804688	0.185791	-0.433594	0.073204	-0.008073	0.068431	0.130593	-0.386313	-0.016666	-0.912924	-5.740756	-45.210642	-161.326270
10265		6.935888	-1.209135	7.032764	-0.018258	0.488140	0.126585	-0.444603	0.488452	0.497825	-0.793213	0.184570	-0.429199	0.069560	-0.011762	0.070184	0.132035	-0.384448	-0.013344	-0.913558	-6.252773	-44.906772	-160.965978
10266		6.852077	-1.022951	6.996561	0.027354	0.250067	0.030354	-0.386076	0.522625	0.461208	-0.799072	0.189209	-0.435303	0.068726	-0.009936	0.069806	0.133423	-0.382378	-0.010339	-0.914264	-6.702775	-44.583478	-160.643867
10267		6.633501	-0.887122	6.867431	0.083494	0.088006	-0.224321	-0.343208	0.532635	0.434671	-0.797607	0.195068	-0.435547	0.066537	-0.008609	0.068512	0.134769	-0.380228	-0.007572	-0.914990	-7.108129	-44.254830	-160.348886
10268		6.462717	-1.163509	6.980267	0.171610	0.347368	-0.236984	-0.295363	0.513427	0.405022	-0.789551	0.198975	-0.440186	0.064829	-0.011401	0.069653	0.136084	-0.378125	-0.005098	-0.915684	-7.466777	-43.937491	-160.078138
10269		6.445512	-0.923950	6.914183	0.162623	0.057239	-0.316680	-0.258302	0.510327	0.385856	-0.794434	0.209961	-0.445557	0.064649	-0.009026	0.068989	0.137364	-0.376008	-0.002827	-0.916374	-7.789996	-43.622592	-159.828139
10270		6.208873	-1.039527	6.907073	0.255030	0.174906	-0.472320	-0.231691	0.469466	0.369553	-0.778320	0.203369	-0.443115	0.062270	-0.010200	0.068937	0.138634	-0.374054	-0.000741	-0.916986	-8.088985	-43.330801	-159.587885
10271		6.576829	-0.875842	6.983412	0.065122	-0.116560	-0.180880	-0.212267	0.467700	0.341876	-0.780762	0.207275	-0.447998	0.065946	-0.008572	0.069689	0.139795	-0.372092	0.001207	-0.917607	-8.359064	-43.041820	-159.374248
10272		5.233933	-1.636684	6.218568	0.237882	0.842124	-1.567842	-0.174615	0.378325	0.262816	-0.776123	0.209229	-0.447021	0.052478	-0.016244	0.062101	0.140663	-0.370511	0.002772	-0.918111	-8.570154	-42.809274	-159.214219
10273		5.755529	-2.209503	6.649829	0.006847	1.273110	-0.834529	-0.087312	0.239312	0.142864	-0.775146	0.221191	-0.445068	0.057651	-0.022025	0.066439	0.141144	-0.369508	0.003617	-0.918438	-8.678455	-42.665688	-159.131664
10274		5.801996	-2.073837	6.560350	-0.067405	1.107586	-0.881236	-0.020034	0.201730	0.050769	-0.771973	0.217773	-0.451172	0.058091	-0.020717	0.065547	0.141343	-0.368628	0.003953	-0.918760	-8.703026	-42.550870	-159.113878
10275		5.373516	-1.961973	6.560219	0.243172	1.110143	-1.183149	0.050752	0.116303	-0.059228	-0.775391	0.217041	-0.452148	0.053767	-0.019652	0.065566	0.141152	-0.368096	0.003704	-0.919004	-8.636467	-42.494364	-159.172660
10276		5.478282	-2.299601	6.549294	0.067874	1.417711	-1.084661	0.159025	0.041935	-0.195956	-0.784180	0.215088	-0.445801	0.054774	-0.023102	0.065463	0.140550	-0.367828	0.002650	-0.919207	-8.443166	-42.491074	-159.325517
10277		5.153055	-2.392212	6.161394	0.001573	1.581320	-1.582333	0.271443	-0.072937	-0.347043	-0.773193	0.204834	-0.445068	0.051466	-0.024095	0.061600	0.139445	-0.368013	0.000725	-0.919305	-8.115146	-42.565316	-159.584031
10278		5.087880	-2.866880	6.402863	0.090324	2.127375	-1.412213	0.436352	-0.204715	-0.554600	-0.782959	0.198486	-0.447510	0.050733	-0.028949	0.064018	0.137703	-0.368683	-0.002435	-0.919296	-7.592763	-42.728733	-159.987948
10279		5.367260	-2.443371	6.391081	0.001105	1.722554	-1.288862	0.618786	-0.239535	-0.788214	-0.792969	0.193115	-0.438232	0.053499	-0.024842	0.063899	0.135206	-0.369380	-0.006886	-0.919364	-6.841318	-42.925885	-160.575116
10280		4.800638	-2.150912	6.046644	0.238692	1.634461	-1.970168	0.764230	-0.378488	-1.005595	-0.788818	0.178467	-0.443359	0.047782	-0.021981	0.060474	0.131982	-0.370594	-0.012501	-0.919285	-5.893505	-43.209097	-161.324014
10281		6.247159	-1.385520	6.823486	-0.028695	0.772614	-0.490283	0.862080	-0.493278	-1.136551	-0.802002	0.177979	-0.439453	0.062222	-0.014504	0.068327	0.128310	-0.372247	-0.018883	-0.919028	-4.814008	-43.555520	-162.179782
10282		7.185924	-0.374086	7.251717	-0.117299	-0.212951	0.400239	0.874492	-0.502633	-1.085112	-0.808350	0.155518	-0.433838	0.071654	-0.004448	0.072679	0.124906	-0.373916	-0.025232	-0.918667	-3.743370	-43.892848	-163.005788
10283		9.671149	1.387592	8.822062	-0.307159	-2.068490	3.183859	0.716301	-0.429896	-0.877226	-0.810547	0.152344	-0.430420	0.096580	0.013136	0.088476	0.122148	-0.375362	-0.030418	-0.918291	-2.863688	-44.171977	-163.684161
10284		7.900143	2.479471	7.231400	0.104802	-2.885130	0.794745	0.449744	-0.190394	-0.602185	-0.820313	0.150879	-0.435547	0.079006	0.024394	0.072444	0.120201	-0.375900	-0.033719	-0.918212	-2.277777	-44.300235	-164.156601
10285		7.024892	2.123488	7.422799	0.755796	-2.278564	0.345709	0.204134	-0.232747	-0.322500	-0.818848	0.143311	-0.426025	0.070197	0.021046	0.074331	0.119053	-0.376827	-0.035390	-0.917919	-1.987059	-44.444628	-164.408284
10286		7.112931	2.029857	7.356295	0.642371	-2.186271	0.367525	0.027720	-0.218398	-0.127888	-0.820068	0.136963	-0.431396	0.071062	0.020243	0.073643	0.118486	-0.377822	-0.035880	-0.917564	-1.905813	-44.575975	-164.502929
10287		6.823646	0.666918	7.253299	0.455730	-0.818554	0.124089	-0.077203	-0.179937	-0.005980	-0.814697	0.140869	-0.421875	0.068171	0.006695	0.072592	0.118268	-0.378728	-0.035631	-0.917228	-1.952113	-44.683383	-164.503190
10288		6.576916	-0.486450	7.275096	0.376856	0.346010	-0.006684	-0.100518	-0.153163	0.053454	-0.814453	0.145020	-0.420166	0.065715	-0.004810	0.072804	0.118300	-0.379532	-0.035151	-0.916911	-2.045322	-44.773828	-164.454094
10289		6.792730	-0.522320	7.511809	0.399669	0.368084	0.313814	-0.083525	-0.110327	0.091692	-0.822021	0.141846	-0.419678	0.067888	-0.005161	0.075158	0.118530	-0.380139	-0.034647	-0.916649	-2.149655	-44.839332	-164.377145
10290		6.741486	-0.149264	7.296750	0.390577	-0.029103	0.115004	-0.102768	-0.070823	0.142833	-0.821045	0.149414	-0.426758	0.067390	-0.001407	0.072992	0.118983	-0.380581	-0.033939	-0.916433	-2.293805	-44.880484	-164.257657
10291		7.109318	0.084208	7.483662	0.335988	-0.317840	0.499476	-0.147481	-0.018204	0.221702	-0.827148	0.153076	-0.416504	0.071085	0.000976	0.074842	0.119703	-0.380826	-0.032839	-0.916278	-2.507200	-44.889842	-164.078193
10292		6.740666	0.315758	6.946346	0.280525	-0.581428	-0.149812	-0.191993	0.034600	0.300697	-0.820068	0.153809	-0.411865	0.067414	0.003326	0.069449	0.120728	-0.380863	-0.031359	-0.916180	-2.790046	-44.865823	-163.834407
10293		6.497445	-0.628423	6.484015	-0.095485	0.283095	-0.616773	-0.194718	-0.053743	0.220487	-0.819092	0.159668	-0.426270	0.064964	-0.006149	0.064864	0.121347	-0.381297	-0.030068	-0.915961	-3.030899	-44.894420	-163.654370
10294		6.680899	-1.582332	6.528024	-0.411863	1.160174	-0.419198	-0.091288	-0.091182	0.076386	-0.818115	0.154297	-0.416260	0.066785	-0.015768	0.065318	0.121516	-0.381813	-0.029552	-0.915740	-3.131983	-44.947978	-163.586436
10295		6.345493	-1.734917	6.376337	-0.315246	1.352439	-0.757059	0.008841	-0.119463	-0.075039	-0.818115	0.152588	-0.406738	0.063410	-0.017376	0.063800	0.121160	-0.382379	-0.029796	-0.915543	-3.089827	-45.022917	-163.642085
10296		6.635057	-1.325429	6.789162	-0.114948	0.975479	-0.278085	0.110402	-0.153537	-0.221499	-0.824951	0.152344	-0.413086	0.066284	-0.013365	0.067935	0.120339	-0.383014	-0.030810	-0.915352	-2.906545	-45.121176	-163.813147
10297		7.313286	-0.599311	6.724692	-0.435229	0.159424	0.129640	0.180711	-0.108792	-0.300952	-0.824707	0.147217	-0.416016	0.073087	-0.006164	0.067281	0.119279	-0.383392	-0.032266	-0.915282	-2.634926	-45.196030	-164.053362
10298		7.203232	-0.411805	6.767475	-0.284378	0.041671	0.075292	0.193089	-0.066649	-0.321402	-0.825439	0.144287	-0.417969	0.072003	-0.004299	0.067695	0.118171	-0.383562	-0.033797	-0.915300	-2.343005	-45.245955	-164.310327
10299		7.271686	0.056875	7.168892	0.057438	-0.328800	0.393299	0.184447	-0.012596	-0.309313	-0.826660	0.138184	-0.418945	0.072713	0.000390	0.071694	0.117095	-0.383494	-0.035229	-0.915413	-2.060964	-45.264232	-164.561803
10300		7.175141	0.072859	6.741938	-0.178450	-0.359224	0.025031	0.175108	0.042043	-0.295989	-0.835938	0.143311	-0.414307	0.071766	0.000563	0.067405	0.116087	-0.383178	-0.036565	-0.915621	-1.791180	-45.249647	-164.802012
10301		7.033140	-0.095537	6.937385	0.001069	-0.109608	0.066047	0.160796	0.063376	-0.274508	-0.831055	0.142090	-0.419434	0.070352	-0.001108	0.069351	0.115138	-0.382780	-0.037778	-0.915858	-1.541467	-45.222178	-165.027124
10302		7.011035	-0.242119	7.034175	0.035055	0.079403	0.121357	0.170792	0.072091	-0.251487	-0.830811	0.129883	-0.421875	0.070133	-0.002569	0.070314	0.114334	-0.382335	-0.038991	-0.916093	-1.299905	-45.188234	-165.230907
10303		6.814784	-0.110820	6.928906	0.114791	-0.003885	-0.094146	0.164290	0.069431	-0.223938	-0.834717	0.137695	-0.425049	0.068171	-0.001241	0.069264	0.113624	-0.381916	-0.040120	-0.916308	-1.077853	-45.155376	-165.414445
10304		6.791735	-0.018946	6.974312	0.172733	-0.059342	-0.079464	0.149769	0.056116	-0.179893	-0.834961	0.123047	-0.422119	0.067937	-0.000303	0.069724	0.113102	-0.381569	-0.041109	-0.916473	-0.890273	-45.128778	-165.559448
10305		6.841632	0.384750	6.894671	0.171871	-0.455302	-0.104155	0.113471	0.034766	-0.120597	-0.832031	0.125732	-0.416748	0.068431	0.003767	0.068937	0.112761	-0.381356	-0.041827	-0.916571	-0.757522	-45.114104	-165.658213
10306		6.698457	0.334443	7.093498	0.390015	-0.338339	-0.064236	0.056353	0.022715	-0.054100	-0.836670	0.124756	-0.416504	0.066994	0.003306	0.070928	0.112627	-0.381241	-0.042166	-0.916620	-0.696178	-45.105286	-165.700950
10307		6.938113	0.498241	7.208780	0.341998	-0.516378	0.185740	0.023941	0.025736	-0.002082	-0.830811	0.130127	-0.418945	0.069390	0.004973	0.072079	0.112657	-0.381145	-0.042253	-0.916652	-0.683011	-45.094805	-165.703349
10308		6.973784	0.264409	6.986047	0.105945	-0.332761	0.055771	-0.004124	0.037864	0.022534	-0.836670	0.126465	-0.412354	0.069751	0.002653	0.069847	0.112765	-0.381011	-0.042161	-0.916699	-0.700292	-45.076730	-165.683746
10309		6.717774	-0.070924	6.907908	0.145035	0.021840	-0.177792	-0.012645	0.034291	0.022869	-0.827148	0.129639	-0.422607	0.067190	-0.000697	0.069068	0.112841	-0.380902	-0.042028	-0.916741	-0.722353	-45.061171	-165.665995
10310		6.841625	-0.394749	6.858703	-0.052676	0.305135	-0.121992	0.004084	0.019979	-0.009181	-0.829590	0.125977	-0.419678	0.068423	-0.003952	0.068580	0.112815	-0.380837	-0.042045	-0.916770	-0.716823	-45.053559	-165.671929
10311		6.939249	-0.231356	6.803450	-0.120818	0.122938	-0.093432	0.034542	0.028849	-0.046201	-0.834229	0.127441	-0.420898	0.069402	-0.002341	0.068024	0.112663	-0.380712	-0.042262	-0.916831	-0.672244	-45.041601	-165.710133
10312		6.700060	-0.236306	6.946908	0.136754	0.198259	-0.161358	0.039773	0.034958	-0.066298	-0.834229	0.124756	-0.411621	0.067012	-0.002399	0.069457	0.112446	-0.380547	-0.042542	-0.916913	-0.613432	-45.025772	-165.762543
10313		6.709048	-0.193800	6.971552	0.152989	0.166573	-0.137965	0.054141	0.040384	-0.082840	-0.832520	0.118896	-0.418701	0.067104	-0.001985	0.069701	0.112166	-0.380350	-0.042913	-0.917012	-0.536608	-45.007359	-165.830480
10314		6.560259	-0.133341	6.834633	0.169785	0.118821	-0.340410	0.046377	0.045639	-0.083609	-0.832031	0.128662	-0.427734	0.065618	-0.001377	0.068331	0.111882	-0.380128	-0.043250	-0.917123	-0.464075	-44.985413	-165.897222
10315		6.263973	-0.546660	6.780400	0.232800	0.570433	-0.586072	0.059343	0.023895	-0.088544	-0.833496	0.122803	-0.412598	0.062645	-0.005514	0.067795	0.111582	-0.380003	-0.043664	-0.917192	-0.381183	-44.976344	-165.969570
10316		6.205401	-0.194245	6.847424	0.400095	0.259225	-0.582050	0.081574	-0.001685	-0.098030	-0.824463	0.122803	-0.419922	0.062052	-0.002001	0.068474	0.111292	-0.379975	-0.044217	-0.917212	-0.280593	-44.981376	-166.047185
10317		6.222029	-0.325812	7.063736	0.505093	0.432101	-0.417246	0.094539	-0.024771	-0.096781	-0.831299	0.121338	-0.430420	0.062210	-0.003322	0.070644	0.111011	-0.380050	-0.044836	-0.917185	-0.172941	-45.000034	-166.126017
10318		6.603430	0.131782	7.094811	0.373898	-0.058305	-0.126833	0.101735	-0.039631	-0.101982	-0.834473	0.130127	-0.428223	0.066021	0.001248	0.070962	0.110732	-0.380184	-0.045509	-0.917130	-0.058522	-45.026566	-166.206837
10319		6.676829	0.221639	6.879816	0.198465	-0.180829	-0.226816	0.089510	-0.037583	-0.079574	-0.832764	0.124268	-0.420410	0.066756	0.002159	0.068812	0.110517	-0.380324	-0.046079	-0.917069	0.036539	-45.052352	-166.271881
10320		6.646867	0.029065	6.668233	0.030331	-0.012982	-0.397491	0.081518	-0.058531	-0.070325	-0.835205	0.118408	-0.411865	0.066449	0.000240	0.066702	0.110345	-0.380562	-0.046611	-0.916965	0.121344	-45.089504	-166.326771
10321		7.167517	0.396564	6.953341	-0.038876	-0.397650	0.173296	0.066534	-0.070024	-0.064943	-0.840576	0.120117	-0.411621	0.071652	0.003919	0.069560	0.110145	-0.380867	-0.047066	-0.916839	0.195070	-45.133765	-166.380199
10322		7.075971	0.366750	6.920553	-0.001126	-0.350287	0.085556	0.041393	-0.049475	-0.045766	-0.833984	0.107178	-0.416260	0.070743	0.003637	0.069224	0.110007	-0.381092	-0.047361	-0.916747	0.243069	-45.165726	-166.415931
10323		7.041100	0.022840	7.025168	0.016877	0.013932	0.133675	0.036353	-0.043380	-0.037812	-0.839355	0.117676	-0.421143	0.070396	0.000202	0.070267	0.109880	-0.381297	-0.047611	-0.916663	0.283961	-45.194723	-166.447386
10324		7.144831	0.237360	7.075789	0.034641	-0.197872	0.243722	0.024760	-0.025309	-0.026937	-0.838623	0.119873	-0.421143	0.071440	0.002355	0.070767	0.109799	-0.381425	-0.047781	-0.916611	0.311649	-45.212871	-166.468115
10325		6.861576	-0.060480	6.875005	0.021920	0.106647	-0.099875	0.003110	-0.020331	-0.016682	-0.840576	0.122314	-0.415283	0.068609	-0.000612	0.068757	0.109712	-0.381548	-0.047825	-0.916568	0.321280	-45.228709	-166.482340
10326		6.544922	-0.091205	6.978885	0.305233	0.208098	-0.251689	-0.000021	-0.019330	-0.020726	-0.838135	0.115479	-0.417236	0.065442	-0.000919	0.069795	0.109619	-0.381663	-0.047867	-0.916529	0.331076	-45.243413	-166.497373
10327		6.566420	-0.004180	7.050644	0.363691	0.134400	-0.185687	0.001512	-0.037846	-0.023955	-0.831055	0.114258	-0.424072	0.065651	-0.000050	0.070519	0.109491	-0.381866	-0.047928	-0.916457	0.344073	-45.269258	-166.517618
10328		6.578031	-0.104282	6.985833	0.291600	0.221306	-0.223672	0.001780	-0.049185	-0.028804	-0.842529	0.127441	-0.410156	0.065763	-0.001053	0.069874	0.109354	-0.382114	-0.048009	-0.916365	0.359758	-45.301026	-166.539743
10329		6.699725	-0.147733	6.940066	0.171353	0.239509	-0.169766	0.017068	-0.052602	-0.033863	-0.840088	0.118164	-0.417725	0.066979	-0.001495	0.069418	0.109207	-0.382373	-0.048168	-0.916267	0.387512	-45.335279	-166.568185
10330		6.972437	0.059764	6.831175	-0.036065	-0.019986	-0.051453	0.028788	-0.061186	-0.044578	-0.839111	0.109375	-0.417480	0.069704	0.000572	0.068333	0.109050	-0.382658	-0.048411	-0.916154	0.427851	-45.373811	-166.602817
10331		6.868541	-0.025742	6.806677	0.003266	0.081873	-0.143062	0.021421	-0.063811	-0.045839	-0.845459	0.114990	-0.420898	0.068664	-0.000280	0.068089	0.108854	-0.382963	-0.048619	-0.916038	0.465203	-45.414407	-166.641201
10332		6.882499	-0.108557	6.910887	0.051349	0.184789	-0.060552	0.039191	-0.060299	-0.055945	-0.844238	0.111084	-0.419189	0.068804	-0.001118	0.069129	0.108661	-0.383235	-0.048929	-0.915931	0.518350	-45.452365	-166.685888
10333		6.849743	-0.035957	6.986043	0.147316	0.140288	-0.030884	0.035918	-0.051116	-0.063228	-0.839355	0.111572	-0.412842	0.068479	-0.000394	0.069878	0.108415	-0.383470	-0.049230	-0.915846	0.574209	-45.485546	-166.738531
10334		6.871257	-0.009149	6.914683	0.092956	0.106471	-0.065528	0.045778	-0.041539	-0.067004	-0.841309	0.111328	-0.420166	0.068698	-0.000130	0.069161	0.108189	-0.383650	-0.049581	-0.915778	0.637602	-45.512622	-166.792243
10335		6.868330	0.136524	6.914525	0.132314	-0.026177	-0.066660	0.050709	-0.045767	-0.060690	-0.837158	0.106201	-0.415527	0.068668	0.001327	0.069161	0.107984	-0.383853	-0.049942	-0.915698	0.700567	-45.542676	-166.842915
10336		6.880231	-0.014223	7.078327	0.204941	0.155454	0.055155	0.060593	-0.041177	-0.053124	-0.844727	0.119141	-0.413818	0.068788	-0.000182	0.070797	0.107850	-0.384026	-0.050334	-0.915619	0.764479	-45.569546	-166.885431
10337		7.035962	0.074103	6.867932	-0.023121	0.017173	0.019805	0.078148	-0.045251	-0.049134	-0.840332	0.111816	-0.413818	0.070344	0.000697	0.068696	0.107751	-0.384215	-0.050798	-0.915526	0.836546	-45.599315	-166.926787
10338		6.798543	0.224486	6.980922	0.255850	-0.062999	-0.069258	0.073478	-0.048787	-0.022207	-0.834961	0.104492	-0.420166	0.067969	0.002212	0.069827	0.107785	-0.384423	-0.051195	-0.915413	0.889838	-45.630726	-166.943688
10339		6.887127	0.459384	6.837655	0.157285	-0.325407	-0.103597	0.042646	-0.066768	0.025629	-0.847412	0.117676	-0.412109	0.068848	0.004588	0.068401	0.107954	-0.384748	-0.051364	-0.915247	0.898064	-45.673443	-166.924166
10340		6.939043	0.664401	6.859205	0.195464	-0.530829	-0.049469	-0.023731	-0.103905	0.105977	-0.839600	0.112549	-0.414795	0.069351	0.006689	0.068627	0.108372	-0.385294	-0.051100	-0.914982	0.820980	-45.737522	-166.836836
10341		6.915522	0.007259	7.104655	0.241184	0.146199	0.097965	-0.062758	-0.144819	0.143166	-0.848145	0.108643	-0.410156	0.069104	0.000144	0.071097	0.108856	-0.386063	-0.050602	-0.914629	0.700057	-45.825817	-166.721420
10342		6.846916	-0.339992	7.230402	0.312245	0.507894	0.133119	-0.042632	-0.190453	0.123501	-0.850098	0.112549	-0.407471	0.068402	-0.003342	0.072370	0.109294	-0.387018	-0.050264	-0.914191	0.601812	-45.939389	-166.620083
10343		6.907069	0.152314	7.099000	0.322952	-0.010297	0.087925	-0.064237	-0.258096	0.139716	-0.842041	0.119141	-0.406006	0.068978	0.001594	0.071079	0.109731	-0.388304	-0.049828	-0.913617	0.481698	-46.092257	-166.507426
10344		7.057018	0.105369	7.084730	0.235302	-0.000991	0.184837	-0.107647	-0.358631	0.179192	-0.849609	0.114746	-0.401855	0.070442	0.001155	0.070973	0.110255	-0.390075	-0.049177	-0.912834	0.312275	-46.302075	-166.359504
10345		6.444233	0.201669	7.630266	1.101041	0.089402	0.115516	-0.152606	-0.517323	0.216354	-0.851807	0.121338	-0.396973	0.064242	0.002145	0.076467	0.110805	-0.392608	-0.048331	-0.911727	0.093691	-46.603159	-166.181665
10346		3.515012	-0.840072	8.930304	3.797961	1.783787	-1.140664	-0.564633	-0.929634	0.259100	-0.856201	0.124756	-0.388428	0.034745	-0.008103	0.089488	0.110654	-0.397245	-0.045754	-0.909867	-0.391953	-47.139015	-165.960945
10347		5.614954	2.733992	8.814292	3.299823	-2.077670	0.261371	-0.323456	-1.396679	0.263524	-0.857910	0.134033	-0.374268	0.055496	0.027556	0.088488	0.110876	-0.403863	-0.044518	-0.906984	-0.752910	-47.941953	-165.725942
10348		5.205370	-0.601657	9.084816	3.137980	1.256432	0.115198	-0.649577	-1.755365	0.316420	-0.862549	0.134033	-0.358887	0.051263	-0.005639	0.091319	0.110609	-0.412264	-0.041898	-0.903354	-1.352645	-48.947596	-165.422915
10349		7.076711	1.188095	9.027524	2.537113	-0.835995	1.405463	-0.714566	-1.966672	0.366099	-0.866943	0.141113	-0.343994	0.069853	0.012333	0.090922	0.110359	-0.421631	-0.038989	-0.899182	-2.048787	-50.071950	-165.048894
10350		7.844957	0.069986	8.727388	1.825927	0.032279	1.779307	-0.869551	-2.121031	0.434222	-0.874023	0.139160	-0.318359	0.077516	0.001251	0.088095	0.110062	-0.431729	-0.035325	-0.894566	-2.916956	-51.278516	-164.571619
10351		9.258275	0.960878	9.575919	2.116563	-0.994177	3.334933	-0.988841	-2.260627	0.476454	-0.877197	0.158203	-0.295898	0.091469	0.010304	0.096747	0.109638	-0.442469	-0.031103	-0.889513	-3.932173	-52.559407	-164.004566
10352		11.068981	0.334291	9.942201	1.542751	-0.708595	4.972028	-1.107841	-2.239409	0.498481	-0.887451	0.156738	-0.266602	0.109558	0.004172	0.100631	0.109050	-0.453104	-0.026292	-0.884372	-5.084452	-53.819246	-163.359103
10353		13.275335	0.219499	11.134161	1.585373	-0.898366	7.418646	-1.227260	-1.980497	0.446398	-0.885742	0.158203	-0.256104	0.131636	0.003178	0.112631	0.107963	-0.462591	-0.020920	-0.879725	-6.302200	-54.927284	-162.728858
10354		13.542197	-3.040180	10.622287	0.693065	2.059041	7.529087	-1.332530	-1.559714	0.160835	-0.889404	0.164063	-0.229004	0.134611	-0.029580	0.107474	0.105419	-0.470189	-0.015522	-0.876110	-7.354232	-55.806747	-162.379288
10355		8.579046	-4.216485	15.851197	7.679001	4.621591	6.383243	-0.999838	-0.943320	-0.331791	-0.889648	0.163086	-0.228516	0.084972	-0.041512	0.159123	0.101527	-0.474845	-0.012407	-0.874106	-7.754999	-56.371785	-162.589370
10356		2.370965	2.175411	19.005462	14.885315	-0.313498	2.430276	-0.485426	-0.021212	-0.987360	-0.888672	0.161133	-0.217773	0.023798	0.022098	0.190004	0.096057	-0.475139	-0.012633	-0.874561	-7.193317	-56.460235	-163.598686
10357		-0.435571	5.167550	16.493182	14.787802	-3.202003	-1.447068	-0.660115	0.319269	-1.673273	-0.886230	0.140137	-0.213135	-0.003657	0.052252	0.164766	0.087175	-0.473969	-0.013555	-0.876111	-6.107243	-56.393817	-165.358821
10358		-0.869659	1.372010	17.912610	15.481123	0.588210	-0.675757	-0.744784	1.017825	-2.122172	-0.886719	0.127441	-0.220215	-0.007634	0.014472	0.179114	0.076182	-0.469671	-0.014872	-0.879423	-4.648732	-55.929061	-167.628931
10359		-3.587031	-0.691565	15.105663	14.289419	2.484844	-4.230764	-0.750299	1.328704	-2.313339	-0.883789	0.098389	-0.227783	-0.034938	-0.005941	0.151314	0.064327	-0.463931	-0.016485	-0.883379	-3.074607	-55.262890	-170.060421
10360		-2.991936	-2.292152	14.709236	13.391260	3.783400	-3.736379	-0.676156	1.660398	-2.320298	-0.876709	0.075928	-0.253174	-0.028956	-0.022084	0.147411	0.052650	-0.456583	-0.018338	-0.887932	-1.525757	-54.366582	-172.429688
10361		-2.235438	-3.600102	14.209320	12.358968	4.826058	-3.192856	-0.567702	2.057435	-2.168621	-0.864258	0.051025	-0.263184	-0.021276	-0.035362	0.142417	0.041896	-0.447381	-0.020210	-0.893133	-0.132592	-53.209935	-174.562143
10362		-2.963338	-4.567287	12.464650	11.258239	5.579573	-4.604587	-0.378990	2.359688	-1.892388	-0.854004	0.034668	-0.290771	-0.028588	-0.045162	0.125074	0.032834	-0.436684	-0.022241	-0.898741	1.048327	-51.849510	-176.325115
10363		-3.759285	-4.263064	10.229736	9.982474	5.062923	-6.397070	-0.189257	2.399883	-1.514309	-0.844971	0.010254	-0.307373	-0.036682	-0.042253	0.102781	0.025867	-0.425752	-0.024285	-0.904144	1.970281	-50.456253	-177.650900
10364		-3.655347	-3.723404	8.657491	8.713490	4.358664	-7.119731	-0.065574	2.179263	-1.077449	-0.820557	0.007324	-0.330811	-0.035807	-0.037011	0.086980	0.021103	-0.415746	-0.025976	-0.908865	2.601703	-49.183726	-178.530623
10365		-2.823326	-3.336480	8.010997	7.667852	3.889206	-6.753937	0.067974	1.837339	-0.663058	-0.802734	-0.004639	-0.336670	-0.027606	-0.033300	0.080354	0.018457	-0.407317	-0.027452	-0.912687	3.011669	-48.117878	-179.027828
10366		-0.485167	-2.594202	8.370472	6.353664	3.145626	-4.639210	0.183515	1.502122	-0.261106	-0.789551	-0.020508	-0.350098	-0.004257	-0.026013	0.083714	0.017829	-0.400393	-0.028656	-0.915722	3.226498	-47.249654	-179.180780
10367		3.122728	-1.987291	9.144597	4.409645	2.567877	-1.369697	0.202061	1.266214	0.141285	-0.771729	-0.014404	-0.360352	0.031819	-0.019943	0.091226	0.019050	-0.394623	-0.029169	-0.918182	3.210814	-46.534069	-179.003798
10368		8.100400	-1.462941	10.495445	1.851977	2.068974	3.233311	0.206243	1.245371	0.482017	-0.751465	-0.027344	-0.365234	0.081690	-0.014541	0.104432	0.021835	-0.388940	-0.029018	-0.920547	2.998134	-45.835506	-178.550272
10369		13.028570	-0.379617	11.683301	-0.883182	0.926966	7.644148	0.217344	1.574580	0.739780	-0.729248	-0.021240	-0.365234	0.131213	-0.003438	0.115799	0.025878	-0.381796	-0.028391	-0.923448	2.646686	-44.959509	-177.884938
10370		15.230663	0.150693	11.372905	-2.955784	0.204364	8.963508	0.245984	2.153634	0.879444	-0.711914	-0.027100	-0.372070	0.153511	0.002042	0.112083	0.030696	-0.371912	-0.027540	-0.927352	2.240833	-43.747101	-177.107970
10371		13.957008	1.261628	9.100587	-3.912832	-1.164113	6.390050	0.265790	2.634833	0.929214	-0.700195	-0.031494	-0.388428	0.140693	0.013149	0.089174	0.035848	-0.359781	-0.026622	-0.931968	1.844910	-42.261586	-176.307564
10372		11.454493	1.662874	6.609847	-4.060899	-1.765979	2.758696	0.217816	2.785474	0.928704	-0.672607	-0.027832	-0.397217	0.115372	0.017092	0.064514	0.040918	-0.346841	-0.025437	-0.936686	1.455993	-40.680737	-175.537133
10373		9.497473	1.617471	4.848073	-4.006523	-1.850186	0.028048	0.178296	2.618197	0.842805	-0.663330	-0.036133	-0.402832	0.095529	0.016534	0.047247	0.045493	-0.334652	-0.024257	-0.940930	1.123789	-39.196081	-174.864075
10374		9.113612	1.753973	3.947226	-4.470480	-2.118608	-1.024236	0.083260	2.281538	0.727413	-0.651123	-0.035645	-0.402588	0.091514	0.017856	0.038437	0.049313	-0.323960	-0.022886	-0.944507	0.819073	-37.895497	-174.303766
10375		9.564787	2.157818	3.105619	-5.453769	-2.704808	-1.522744	-0.166119	1.903684	0.690780	-0.636963	-0.041016	-0.408691	0.095862	0.021934	0.030126	0.052511	-0.315110	-0.020496	-0.947380	0.410929	-36.813305	-173.791689
10376		9.990360	1.842845	1.972890	-6.619738	-2.604088	-2.296661	-0.530980	1.508892	0.773074	-0.634521	-0.045166	-0.400391	0.099976	0.018866	0.018925	0.055475	-0.308167	-0.016343	-0.949573	-0.223226	-35.949209	-173.240590
10377		10.356259	0.866856	0.696326	-7.848193	-1.854929	-3.220911	-0.816705	1.088379	0.893986	-0.625000	-0.032471	-0.406494	0.103558	0.009158	0.006363	0.058539	-0.303326	-0.010770	-0.951026	-1.055388	-35.324175	-172.619351
10378		10.847969	0.099157	-0.292084	-8.947938	-1.305132	-3.812416	-0.930822	0.663819	0.983130	-0.627686	-0.035645	-0.405518	0.108463	0.001510	-0.003287	0.061824	-0.300488	-0.004636	-0.951768	-1.980173	-34.929218	-171.943914
10379		11.528422	-0.313310	-1.010569	-9.975840	-1.115536	-4.045451	-0.919160	0.292508	1.037356	-0.622559	-0.033203	-0.400391	0.115284	-0.002582	-0.010262	0.065375	-0.299433	0.001402	-0.951874	-2.917205	-34.740631	-171.229410
10380		12.096307	-0.712828	-1.284712	-10.638867	-0.913171	-3.942527	-0.828956	-0.004004	1.039696	-0.620605	-0.022949	-0.400635	0.120998	-0.006552	-0.012817	0.069070	-0.299717	0.006924	-0.951499	-3.806804	-34.708741	-170.506256
10381		13.421001	-1.313056	-0.720180	-11.447583	-0.602906	-2.674485	-0.663793	-0.205580	0.979504	-0.626221	-0.027100	-0.381592	0.134280	-0.012497	-0.007022	0.072732	-0.300922	0.011493	-0.950802	-4.583590	-34.789414	-169.814646
10382		17.503336	-2.542578	1.016218	-13.891417	-0.073275	1.182117	-0.358145	-0.078240	0.759016	-0.622559	-0.019287	-0.391113	0.175124	-0.024743	0.010275	0.075795	-0.301391	0.014330	-0.950375	-5.094983	-34.798815	-169.282726
10383		19.705214	-3.719596	2.419885	-15.047470	0.681401	3.644459	0.218542	0.500773	0.300978	-0.625000	-0.021240	-0.385010	0.197168	-0.036925	0.023665	0.077510	-0.298942	0.013949	-0.951016	-5.073164	-34.501994	-169.104826
10384		17.045179	-2.412257	2.170864	-12.964990	-0.205798	1.716932	0.844886	1.168032	-0.224283	-0.614258	-0.027588	-0.398926	0.170547	-0.024402	0.020610	0.077613	-0.293089	0.010069	-0.952877	-4.466977	-33.848041	-169.327108
10385		12.183500	-0.249578	0.692976	-9.649471	-1.575370	-2.506323	1.103574	1.446142	-0.554277	-0.612061	-0.041992	-0.410156	0.121873	-0.002868	0.006033	0.076505	-0.285822	0.004575	-0.955213	-3.589142	-33.048071	-169.776619
10386		8.073229	1.445401	-0.500583	-6.754296	-2.625126	-5.939166	0.945808	1.244326	-0.653643	-0.605469	-0.047607	-0.409912	0.080746	0.014215	-0.005441	0.074693	-0.279549	-0.000380	-0.957222	-2.784335	-32.360004	-170.268353
10387		6.841309	2.346012	-0.314926	-5.546529	-3.293768	-6.527372	0.491009	0.788786	-0.552827	-0.602295	-0.055420	-0.413574	0.068465	0.023279	-0.003362	0.072725	-0.275622	-0.003193	-0.958506	-2.293722	-31.926787	-170.665935
10388		7.627117	1.997555	1.138281	-5.519276	-2.961031	-4.890435	-0.036373	0.366664	-0.380085	-0.603760	-0.063721	-0.425537	0.076330	0.019833	0.011239	0.070850	-0.273901	-0.003390	-0.959139	-2.176896	-31.728717	-170.932006
10389		8.720200	0.799492	2.971761	-5.661892	-1.820258	-2.731583	-0.330432	0.151332	-0.257830	-0.598633	-0.052979	-0.418945	0.087235	0.007931	0.029638	0.069154	-0.273324	-0.002090	-0.959431	-2.275126	-31.652063	-171.109688
10390		9.785315	-0.618138	4.537481	-5.941965	-0.483474	-0.802555	-0.311913	0.192290	-0.201383	-0.598389	-0.060303	-0.421875	0.097890	-0.006209	0.045290	0.067755	-0.272539	-0.000784	-0.959756	-2.382544	-31.550387	-171.250573
10391		8.580832	-2.376961	5.171542	-4.846511	1.451560	-0.844430	0.045906	0.329260	-0.237263	-0.605225	-0.062012	-0.424805	0.085865	-0.023883	0.051569	0.066671	-0.270979	-0.001201	-0.960273	-2.270572	-31.371658	-171.419024
10392		6.370435	-3.129725	5.238679	-3.072835	2.515346	-1.935395	0.604004	0.337674	-0.295887	-0.601807	-0.071533	-0.427002	0.063746	-0.031549	0.052184	0.066061	-0.269188	-0.004371	-0.960809	-1.819844	-31.188397	-171.625585
10393		5.275934	-2.485700	5.459673	-1.981612	2.080535	-2.358409	1.050618	0.198177	-0.254265	-0.595947	-0.065430	-0.435547	0.052781	-0.025210	0.054413	0.066249	-0.267916	-0.009679	-0.961113	-1.130231	-31.082884	-171.799452
10394		6.052857	-1.186005	6.177053	-2.126465	0.805899	-1.384885	1.166426	0.080604	-0.030833	-0.599365	-0.084961	-0.436768	0.060552	-0.012229	0.061676	0.067656	-0.267173	-0.015279	-0.961149	-0.453492	-31.041116	-171.821135
10395		6.890286	-0.226061	6.784824	-2.411197	-0.149397	-0.446545	0.967963	0.063300	0.291841	-0.603516	-0.081055	-0.430420	0.068928	-0.002488	0.067815	0.070347	-0.266597	-0.019504	-0.961040	-0.001406	-31.008423	-171.626593
10396		-5.325090	3.368467	16.964369	13.673614	-1.342994	1.965275	0.286320	-0.221416	0.930119	-0.606689	-0.075684	-0.431396	-0.053594	0.033193	0.169632	0.075166	-0.267685	-0.019697	-0.960368	-0.161218	-31.138822	-171.004538
10397		-2.194918	3.135144	25.432010	15.338193	-0.776239	10.816676	0.239361	0.124526	1.034254	-0.609131	-0.076172	-0.428223	-0.021951	0.030934	0.254371	0.080454	-0.267132	-0.019400	-0.960100	-0.383427	-31.068896	-170.313270
10398		-9.139228	-0.061408	-0.098353	7.628621	1.414246	-14.644017	0.149529	-0.812838	1.056402	-0.606201	-0.072021	-0.419678	-0.091382	-0.001096	-0.001356	0.085634	-0.271101	-0.019015	-0.958546	-0.670751	-31.532464	-169.600366
10399		6.139780	1.454325	4.863198	-2.297116	-2.001399	-2.452148	-0.098632	-1.918770	1.298382	-0.622559	-0.057373	-0.406738	0.060831	0.014964	0.049210	0.091526	-0.280481	-0.017588	-0.955324	-1.206837	-32.623771	-168.701634
10400		13.539195	4.837746	10.891153	-4.312444	-6.150289	6.585323	-0.376204	-1.583614	1.448686	-0.621094	-0.057373	-0.401855	0.134168	0.049558	0.109885	0.097763	-0.288357	-0.014465	-0.952409	-1.981397	-33.510970	-167.681846
10401		10.840187	1.869967	8.982763	-3.464120	-3.087621	3.609602	-0.482403	-1.006519	1.382590	-0.634766	-0.048096	-0.400635	0.107814	0.019664	0.090325	0.103565	-0.293512	-0.010652	-0.950269	-2.805585	-34.058342	-166.700821
10402		4.127515	0.966817	6.647502	0.613010	-1.218522	-2.047462	-0.473087	-1.086349	0.933497	-0.629395	-0.035400	-0.392334	0.040867	0.010017	0.066674	0.107236	-0.298991	-0.007582	-0.948181	-3.467113	-34.654155	-166.012949
10403		6.129855	1.719631	8.831618	0.529307	-2.208789	0.834805	-0.288343	-1.291294	0.186923	-0.640869	-0.037598	-0.383545	0.060711	0.017381	0.088684	0.107630	-0.305305	-0.006614	-0.946129	-3.742001	-35.390068	-165.825760
10404		7.632196	2.704257	8.416971	-0.560757	-3.500074	1.315774	-0.292372	-1.130716	-0.169881	-0.637207	-0.034668	-0.370117	0.075868	0.027101	0.084560	0.106332	-0.310832	-0.006085	-0.944479	-3.872606	-36.046517	-165.892659
10405		6.438178	-0.019641	7.695783	-0.490622	-0.646301	0.188123	-0.355560	-1.066705	-0.279571	-0.646973	-0.045166	-0.362305	0.063970	-0.000149	0.077300	0.104415	-0.316081	-0.005394	-0.942953	-3.991728	-36.671493	-166.039153
10406		5.979338	-1.448952	7.644284	-0.340785	0.854969	-0.043407	-0.265674	-1.106076	-0.376457	-0.651367	-0.047852	-0.353027	0.059342	-0.014500	0.076791	0.102179	-0.321450	-0.005302	-0.941383	-4.017024	-37.322370	-166.253424
10407		5.900042	-1.709810	7.388100	-0.374106	1.135126	-0.279147	-0.184551	-1.124593	-0.433875	-0.651611	-0.047852	-0.349854	0.058547	-0.017157	0.074227	0.099799	-0.326857	-0.005691	-0.939772	-3.968217	-37.986714	-166.510084
10408		7.585753	-0.898795	5.493889	-2.567491	-0.069033	-0.760815	-0.081447	-1.146133	-0.545832	-0.653809	-0.045166	-0.336670	0.075516	-0.009172	0.055376	0.097056	-0.332293	-0.006760	-0.938145	-3.805342	-38.666723	-166.851346
10409		8.368754	0.262666	-2.456920	-7.826920	-1.904112	-6.458012	-0.086939	-1.287712	-0.665317	-0.656982	-0.055420	-0.337646	0.083852	0.002337	-0.024031	0.093735	-0.338380	-0.008068	-0.936295	-3.587315	-39.431825	-167.280055
10410		9.692342	1.135521	-5.217952	-10.385421	-3.133741	-7.627219	-0.457154	-1.934912	-0.631716	-0.668457	-0.064697	-0.314453	0.097457	0.010930	-0.051264	0.089911	-0.347642	-0.007891	-0.933273	-3.606430	-40.564931	-167.661057
10411		10.350960	1.133610	-3.905483	-9.978843	-3.052389	-5.968304	-1.034450	-2.485999	-0.468288	-0.670654	-0.065186	-0.295654	0.104011	0.010895	-0.037821	0.085811	-0.359693	-0.004981	-0.929103	-4.049746	-42.008287	-167.890888
10412		10.578028	-0.006282	-3.064568	-9.666049	-1.824041	-4.861128	-1.568826	-2.875510	-0.172869	-0.671875	-0.054199	-0.284668	0.106206	-0.000387	-0.029119	0.082094	-0.373709	0.000774	-0.923906	-4.979255	-43.663107	-167.848810
10413		9.838026	-4.796426	-1.245701	-8.424274	3.173676	-3.465152	-1.753210	-3.044690	0.075900	-0.681885	-0.042969	-0.264893	0.098569	-0.048025	-0.010537	0.079157	-0.388471	0.007778	-0.918022	-6.195827	-45.399298	-167.549786
10414		14.564672	-14.711064	6.851975	-6.878114	12.691333	6.530227	-0.203061	-3.125613	-0.322645	-0.693359	-0.048828	-0.238770	0.144313	-0.147273	0.070932	0.077384	-0.402904	0.006857	-0.911939	-6.326501	-47.204761	-167.532852
10415		29.181206	-18.756452	29.704220	-0.135017	16.265919	32.860228	2.882234	-0.668775	-0.685996	-0.693359	-0.062988	-0.233154	0.290167	-0.192825	0.295261	0.080066	-0.404850	-0.007912	-0.910836	-4.290105	-47.626903	-168.058775
10416		2.379013	4.742307	29.984436	21.107524	-2.325700	12.010101	2.229063	1.012390	0.076257	-0.697998	-0.063721	-0.244629	0.025292	0.044088	0.300223	0.084948	-0.399364	-0.017483	-0.912681	-3.023474	-47.050419	-168.048517
10417		-13.976508	-4.539905	21.094034	23.776188	8.721840	-5.395030	1.365332	1.088085	0.669810	-0.688721	-0.053223	-0.251221	-0.138460	-0.047306	0.211377	0.090811	-0.393895	-0.021899	-0.914396	-2.617880	-46.413112	-167.534286
10418		-14.179513	14.012101	-1.359218	11.163385	-11.774406	-21.474018	0.952159	-0.783237	0.503789	-0.697510	-0.053467	-0.246338	-0.142095	0.139828	-0.013482	0.094890	-0.397122	-0.025594	-0.912488	-2.401563	-46.852561	-167.085603
10419		21.175498	13.005514	16.358086	0.292977	-13.961374	16.457474	0.189251	-0.814024	0.052750	-0.694580	-0.055176	-0.242432	0.211052	0.129955	0.164564	0.095390	-0.400785	-0.026726	-0.910801	-2.348438	-47.321558	-167.013155
10420		17.050735	1.684948	6.359268	-6.342673	-3.478288	6.970595	-0.431525	0.251079	0.084835	-0.689941	-0.052246	-0.236328	0.170580	0.017059	0.063342	0.094932	-0.399888	-0.024458	-0.911306	-2.643308	-47.179305	-166.951296
10421		3.656851	-7.575926	2.198426	-2.288425	7.123332	-5.383083	-0.387943	0.238693	0.308729	-0.705322	-0.047607	-0.244141	0.036712	-0.075660	0.022087	0.095580	-0.399056	-0.021947	-0.911667	-3.050524	-47.038178	-166.701937
10422		10.175498	-4.085082	6.968068	-2.488872	3.201031	2.529978	-0.019513	-0.061554	0.391933	-0.690430	-0.052246	-0.249268	0.101813	-0.040645	0.069716	0.097309	-0.399420	-0.021091	-0.911345	-3.306849	-47.064763	-166.370223
10423		11.674845	2.477910	6.369977	-2.639236	-3.586032	2.962024	0.019099	0.173575	0.395800	-0.693848	-0.042725	-0.242676	0.116754	0.025004	0.063601	0.099157	-0.398697	-0.020290	-0.911481	-3.534506	-46.956210	-166.047109
10424		12.982520	-2.852454	5.301357	-5.349682	1.214759	3.404375	-0.168719	0.386670	0.744532	-0.687744	-0.039551	-0.250000	0.130032	-0.027996	0.052786	0.102241	-0.397123	-0.017831	-0.911878	-4.071560	-46.710838	-165.446540
10425		12.761250	-11.083186	4.686726	-7.394461	9.053481	3.264027	0.126814	0.543197	1.676248	-0.693359	-0.021973	-0.256836	0.128662	-0.109786	0.046449	0.110168	-0.394752	-0.014790	-0.912039	-4.984849	-46.328987	-164.090895
10426		9.963429	-11.577044	2.627488	-7.319314	9.544400	-0.039329	0.705138	0.452147	2.677863	-0.692139	0.001953	-0.259521	0.101232	-0.114513	0.025642	0.123782	-0.392497	-0.012452	-0.911301	-6.146191	-45.926552	-161.923342
10427		10.001328	-5.787600	-2.583340	-9.860334	2.945216	-3.957563	1.196120	0.075055	3.199674	-0.695313	0.018555	-0.263916	0.100911	-0.056110	-0.026210	0.140684	-0.391593	-0.011563	-0.909247	-7.330391	-45.672937	-159.318857
10428		9.234876	8.250076	-10.023234	-10.803389	-11.656029	-10.917652	0.864961	-0.738972	2.946689	-0.686279	0.049805	-0.256104	0.091484	0.084284	-0.099531	0.155702	-0.394506	-0.010224	-0.905548	-8.616677	-45.862657	-156.836645
10429		11.217994	4.963901	-6.450931	-10.240774	-8.793944	-6.668621	-0.154296	-1.641176	1.930352	-0.694580	0.065674	-0.244141	0.112219	0.050673	-0.063627	0.164030	-0.402160	-0.006984	-0.900729	-10.006344	-46.615956	-155.038159
10430		13.759766	0.352457	-1.068497	-9.147112	-4.489920	-0.498002	0.622192	-1.643262	0.381452	-0.687988	0.072021	-0.231201	0.137672	0.003818	-0.009542	0.166924	-0.409094	-0.010353	-0.897035	-10.061187	-47.510371	-154.480103
10431		11.382362	4.301115	1.744881	-4.271477	-7.052532	-0.695964	1.321145	-1.329681	-0.391927	-0.698242	0.077881	-0.243896	0.113787	0.042668	0.018488	0.167781	-0.413953	-0.018179	-0.894518	-9.202874	-48.303290	-154.619698
10432		6.592922	3.914616	3.801254	0.102217	-4.868712	-2.775372	1.192810	-1.114330	-0.510589	-0.697754	0.063232	-0.237793	0.065814	0.038749	0.038611	0.167848	-0.417925	-0.025494	-0.892478	-8.304796	-48.984741	-154.908996
10433		6.792174	-3.387245	11.468691	3.328972	3.539126	3.053020	1.393890	-0.665870	-0.567286	-0.694824	0.074219	-0.244873	0.067442	-0.034863	0.114671	0.168127	-0.419676	-0.033448	-0.891340	-7.195148	-49.410850	-155.322815
10434		2.516523	-1.661349	15.648186	9.426651	4.154923	2.345677	1.873585	0.227319	-0.301600	-0.689697	0.066406	-0.246338	0.025316	-0.018116	0.156288	0.170733	-0.417067	-0.042228	-0.891696	-5.907465	-49.307006	-155.608303
10435		-1.531782	1.356447	20.392913	16.145707	3.720511	2.250421	1.675599	0.876024	0.070964	-0.695068	0.077393	-0.268555	-0.014428	0.011850	0.204098	0.174708	-0.411764	-0.048791	-0.893055	-4.941658	-48.807746	-155.618897
10436		-9.079436	6.906073	27.031012	27.186265	2.389256	0.956359	1.225098	1.709600	0.162923	-0.687744	0.070557	-0.286377	-0.088532	0.067327	0.271489	0.178353	-0.403120	-0.052418	-0.896067	-4.258760	-47.828891	-155.596718
10437		-7.049610	-2.553715	22.565544	19.189302	9.721630	0.320210	0.772327	1.263217	-0.877927	-0.684326	0.071777	-0.287598	-0.069183	-0.026104	0.225995	0.176288	-0.396563	-0.056510	-0.899148	-3.219376	-47.143704	-156.409478
10438		7.128854	2.143768	7.849864	1.721830	-2.018093	0.675311	0.812291	0.831320	-0.274002	-0.680664	0.061279	-0.296387	0.071643	0.021021	0.078287	0.176886	-0.392057	-0.059958	-0.900782	-2.562950	-46.679430	-156.674463
10439		10.336555	7.854006	4.592375	-0.503693	-8.982973	0.611906	0.109385	0.252577	0.014427	-0.673828	0.058350	-0.298828	0.103418	0.078522	0.045836	0.177228	-0.390863	-0.060189	-0.901218	-2.504299	-46.538740	-156.672023
10440		6.673135	1.752168	7.537516	1.589462	-1.601226	0.153481	-0.298845	-0.130024	0.258512	-0.682373	0.058105	-0.296875	0.066660	0.017721	0.075392	0.177756	-0.391822	-0.058443	-0.900812	-2.837296	-46.609871	-156.452256
10441		6.398318	-2.039964	5.412765	-1.059176	1.462837	-1.378461	-0.054280	-0.177850	0.111964	-0.687012	0.070313	-0.306396	0.063946	-0.020349	0.054190	0.178089	-0.392740	-0.058127	-0.900367	-2.943819	-46.712658	-156.351647
10442		8.370746	-0.730331	4.796988	-2.225764	-0.447876	-0.407410	0.124842	-0.150510	0.076584	-0.681641	0.071533	-0.293457	0.083674	-0.007301	0.048028	0.178621	-0.393360	-0.058664	-0.899956	-2.925364	-46.800140	-156.281743
10443		7.594143	-0.331419	6.465295	-0.435984	-0.190813	0.154980	0.048150	-0.071284	0.046874	-0.679443	0.062988	-0.293701	0.075919	-0.003312	0.064679	0.178893	-0.393688	-0.058842	-0.899747	-2.930667	-46.843809	-156.239723
10444		7.259416	-1.272148	7.083083	-0.146930	0.931795	0.365609	0.084232	0.022439	-0.016262	-0.682617	0.066895	-0.307129	0.072601	-0.012757	0.070817	0.178979	-0.393539	-0.059223	-0.899770	-2.873592	-46.835133	-156.254758
10445		6.849258	-1.976506	7.057988	-0.171327	1.700652	0.072277	0.082905	0.007238	-0.073408	-0.679443	0.068359	-0.309082	0.068488	-0.019819	0.070569	0.178801	-0.393447	-0.059725	-0.899813	-2.783156	-46.837318	-156.316704
10446		6.329350	-2.359214	7.219524	0.117912	2.253970	-0.187005	0.153027	0.012461	-0.166371	-0.682373	0.067627	-0.302490	0.063278	-0.023700	0.072173	0.178344	-0.393236	-0.060719	-0.899929	-2.595497	-46.838328	-156.456840
10447		6.978298	0.143622	6.911339	0.411900	-0.304700	-0.003441	0.173677	0.047624	-0.187037	-0.681641	0.066650	-0.308105	0.069801	0.001311	0.069098	0.177845	-0.392846	-0.061816	-0.900123	-2.382645	-46.819971	-156.615331
10448		7.251809	0.019908	6.308621	-0.230932	-0.397529	-0.211831	0.113307	0.067812	-0.145109	-0.684814	0.067383	-0.313721	0.072540	0.000111	0.063062	0.177422	-0.392427	-0.062540	-0.900340	-2.229539	-46.788124	-156.739444
10449		7.333179	0.614786	6.569450	0.105995	-0.896240	0.010584	0.055222	0.052296	-0.075332	-0.674072	0.061035	-0.307861	0.073351	0.006102	0.065677	0.177195	-0.392155	-0.062880	-0.900479	-2.152814	-46.764081	-156.804401
10450		7.591790	0.664862	6.522322	-0.074540	-1.022056	0.165682	-0.009682	0.015222	0.010539	-0.678711	0.062256	-0.316162	0.075923	0.006656	0.065217	0.177215	-0.392131	-0.062792	-0.900492	-2.166323	-46.758789	-156.796570
10451		7.794053	0.905244	6.277272	-0.278106	-1.367864	0.138316	-0.074335	-0.008433	0.088226	-0.676758	0.062744	-0.305664	0.077934	0.009110	0.062773	0.177451	-0.392299	-0.062282	-0.900408	-2.264858	-46.765911	-156.722864
10452		7.414081	0.308578	6.494705	-0.102639	-0.669419	0.025317	-0.120795	-0.016526	0.147403	-0.676758	0.062988	-0.310303	0.074133	0.003180	0.064951	0.177859	-0.392558	-0.061453	-0.900271	-2.426060	-46.775609	-156.599607
10453		7.588537	-0.094857	6.417039	-0.404438	-0.380136	0.110274	-0.148060	-0.011906	0.174539	-0.682129	0.077148	-0.307129	0.075882	-0.000835	0.064176	0.178337	-0.392833	-0.060445	-0.900125	-2.619575	-46.782272	-156.453551
10454		7.403464	-0.620502	6.478337	-0.430756	0.152031	0.033959	-0.168396	0.016568	0.186480	-0.669678	0.078369	-0.311768	0.074046	-0.006081	0.064782	0.178837	-0.392997	-0.059297	-0.900030	-2.830938	-46.771434	-156.298856
10455		6.967558	-0.909181	6.983537	0.088838	0.642142	0.072806	-0.153091	0.058754	0.161465	-0.675781	0.067139	-0.303467	0.069703	-0.008982	0.069822	0.179267	-0.392954	-0.058228	-0.900033	-3.017140	-46.737347	-156.166737
10456		7.406268	-0.858929	6.736580	-0.335885	0.392322	0.222517	-0.128334	0.086541	0.119560	-0.676270	0.082764	-0.312744	0.074097	-0.008502	0.067339	0.179565	-0.392746	-0.057329	-0.900122	-3.162321	-46.687870	-156.071299
10457		6.879856	-0.984103	6.750724	-0.043882	0.642263	-0.145283	-0.109706	0.088227	0.051898	-0.673340	0.077637	-0.318115	0.068831	-0.009786	0.067482	0.179596	-0.392499	-0.056644	-0.900267	-3.255750	-46.639986	-156.032358
10458		7.211111	-1.114023	6.630796	-0.385486	0.631748	0.018941	-0.072169	0.080661	-0.012518	-0.679199	0.066162	-0.317139	0.072137	-0.011121	0.066283	0.179407	-0.392229	-0.056261	-0.900446	-3.288666	-46.597984	-156.047007
10459		7.248948	-0.847512	6.523778	-0.390701	0.343377	-0.037482	-0.045685	0.091950	-0.051443	-0.677002	0.081543	-0.320313	0.072517	-0.008479	0.065206	0.179099	-0.391879	-0.056064	-0.900673	-3.282674	-46.551328	-156.094395
10460		7.073402	-0.660718	6.780613	-0.044309	0.280604	0.003910	-0.002773	0.095522	-0.085319	-0.677490	0.079590	-0.323730	0.070764	-0.006636	0.067772	0.178723	-0.391459	-0.056123	-0.900926	-3.231496	-46.503204	-156.170205
10461		7.171761	-0.339305	6.665606	-0.077284	-0.070076	-0.016326	0.009705	0.089012	-0.100394	-0.679443	0.070801	-0.321533	0.071746	-0.003432	0.066624	0.178302	-0.391058	-0.056274	-0.901174	-3.164564	-46.459744	-156.257939
10462		6.906237	-0.267232	6.833426	0.221442	-0.019353	-0.096010	0.005359	0.090382	-0.091847	-0.682129	0.075439	-0.324951	0.069092	-0.002706	0.068303	0.177911	-0.390653	-0.056387	-0.901420	-3.105262	-46.414656	-156.338655
10463		7.056151	-0.230979	6.656895	0.009932	-0.133987	-0.110172	0.012141	0.082348	-0.076537	-0.676270	0.083008	-0.326172	0.070588	-0.002341	0.066540	0.177601	-0.390286	-0.056508	-0.901633	-3.051769	-46.374148	-156.406029
10464		7.011011	-0.087617	6.572461	0.024454	-0.272490	-0.206214	0.016593	0.075883	-0.063264	-0.685547	0.076416	-0.327148	0.070135	-0.000904	0.065698	0.177356	-0.389944	-0.056628	-0.901822	-3.003883	-46.336384	-156.462176
10465		6.830916	-0.062068	6.685785	0.217533	-0.216539	-0.259114	0.019117	0.066607	-0.065195	-0.678467	0.082764	-0.324219	0.068331	-0.000649	0.066835	0.177106	-0.389644	-0.056773	-0.901991	-2.953879	-46.304464	-156.519281
10466		6.880777	-0.311957	6.857869	0.205246	0.047199	-0.095259	0.029436	0.062074	-0.065012	-0.684082	0.082031	-0.331055	0.068828	-0.003152	0.068557	0.176874	-0.389352	-0.056967	-0.902150	-2.898150	-46.274585	-156.576138
10467		6.894405	-0.365042	6.736848	0.087284	0.067937	-0.167017	0.043669	0.066108	-0.060881	-0.676514	0.080566	-0.331299	0.068965	-0.003686	0.067345	0.176691	-0.389035	-0.057214	-0.902308	-2.836827	-46.242750	-156.629498
10468		6.892169	-0.241612	6.625617	0.048915	-0.067947	-0.249626	0.061610	0.079261	-0.076359	-0.673828	0.081055	-0.336426	0.068947	-0.002463	0.066228	0.176476	-0.388633	-0.057560	-0.902501	-2.755552	-46.203255	-156.696269
10469		6.678941	-0.642004	6.732144	0.100811	0.396669	-0.316654	0.085061	0.088339	-0.113873	-0.680908	0.077881	-0.329590	0.066815	-0.006487	0.067289	0.176140	-0.388163	-0.058077	-0.902735	-2.638485	-46.160017	-156.794087
10470		6.892665	-0.907314	6.950481	0.002056	0.651685	-0.003687	0.148978	0.113749	-0.184689	-0.676514	0.084961	-0.335693	0.068958	-0.009189	0.069459	0.175615	-0.387497	-0.058997	-0.903064	-2.442083	-46.103319	-156.951231
10471		6.998144	-0.818314	6.634381	-0.268475	0.485895	-0.150887	0.219595	0.139298	-0.280699	-0.683594	0.075928	-0.341553	0.070016	-0.008354	0.066286	0.174801	-0.386629	-0.060400	-0.903501	-2.148175	-46.034260	-157.187754
10472		6.855668	-1.157742	6.791690	-0.220897	0.912351	-0.138690	0.298822	0.157437	-0.404930	-0.684814	0.065674	-0.338867	0.068586	-0.011818	0.067845	0.173583	-0.385565	-0.062385	-0.904056	-1.735680	-45.955683	-157.526383
10473		6.996058	-1.404196	6.867026	-0.382817	1.169183	0.013744	0.380116	0.176603	-0.510771	-0.676270	0.064209	-0.344727	0.069985	-0.014351	0.068581	0.172049	-0.384312	-0.064924	-0.904704	-1.215168	-45.866310	-157.950977
10474		6.984846	-0.957488	6.878521	-0.245321	0.813476	0.000393	0.442838	0.189061	-0.552015	-0.679688	0.059570	-0.346191	0.069886	-0.009920	0.068697	0.170449	-0.382927	-0.067813	-0.905381	-0.636242	-45.766813	-158.407749
10475		7.235146	-0.278440	6.890238	-0.196927	0.178386	0.178767	0.478031	0.190817	-0.549435	-0.689209	0.062500	-0.356201	0.072409	-0.003148	0.068826	0.168928	-0.381503	-0.070856	-0.906034	-0.040821	-45.663583	-158.860026
10476		7.119095	0.377311	6.771388	-0.006852	-0.375872	0.012476	0.471610	0.194448	-0.507586	-0.685059	0.059082	-0.346191	0.071266	0.003433	0.067653	0.167582	-0.380074	-0.073783	-0.906651	0.524021	-45.554648	-159.275690
10477		7.049495	0.388929	6.733050	-0.022628	-0.325745	-0.062116	0.442877	0.188120	-0.448728	-0.675049	0.055908	-0.349854	0.070567	0.003582	0.067272	0.166445	-0.378719	-0.076475	-0.907204	1.036082	-45.447605	-159.640995
10478		6.774849	0.720602	6.768960	0.265417	-0.510688	-0.225970	0.404734	0.158409	-0.394035	-0.680908	0.051514	-0.356689	0.067816	0.006936	0.067650	0.165470	-0.377544	-0.078913	-0.907663	1.492974	-45.355587	-159.960324
10479		6.749253	0.822743	6.780536	0.296433	-0.555780	-0.231036	0.331143	0.139883	-0.324706	-0.686279	0.053223	-0.363037	0.067553	0.008006	0.067772	0.164663	-0.376543	-0.080903	-0.908051	1.866602	-45.274245	-160.222138
10480		6.571237	0.935761	6.936696	0.531860	-0.542215	-0.242027	0.298499	0.119974	-0.269780	-0.678955	0.036865	-0.369873	0.065766	0.009165	0.069341	0.164035	-0.375675	-0.082655	-0.908366	2.189180	-45.203774	-160.438878
10481		6.576881	0.843707	6.884655	0.439009	-0.442878	-0.274516	0.251106	0.106316	-0.220785	-0.685059	0.048584	-0.373047	0.065815	0.008278	0.068822	0.163534	-0.374931	-0.084112	-0.908630	2.456030	-45.142001	-160.615441
10482		6.601294	0.851423	6.672979	0.268738	-0.490222	-0.404284	0.217320	0.091695	-0.178965	-0.685547	0.047119	-0.377197	0.066051	0.008383	0.066709	0.163153	-0.374293	-0.085349	-0.908846	2.679356	-45.088596	-160.758161
10483		6.839322	0.629636	6.722974	0.047178	-0.304930	-0.206653	0.185545	0.080384	-0.149312	-0.682861	0.043213	-0.365967	0.068425	0.006183	0.067208	0.162842	-0.373749	-0.086395	-0.909027	2.867406	-45.042667	-160.876804
10484		6.597017	0.418369	6.940420	0.261125	0.025907	-0.231654	0.152419	0.062797	-0.133103	-0.683838	0.034180	-0.365723	0.065995	0.004087	0.069387	0.162535	-0.373314	-0.087274	-0.909177	3.027498	-45.006483	-160.982890
10485		6.494244	0.436569	7.085970	0.419639	0.088708	-0.200571	0.142150	0.059820	-0.120140	-0.688965	0.044922	-0.374756	0.064966	0.004276	0.070843	0.162267	-0.372910	-0.088085	-0.909312	3.174153	-44.972746	-161.078306
10486		6.957086	0.636888	6.971232	0.097319	-0.222511	0.053707	0.127883	0.049413	-0.100110	-0.682617	0.038818	-0.372314	0.069591	0.006289	0.069699	0.162058	-0.372570	-0.088802	-0.909419	3.301421	-44.944886	-161.157957
10487		6.721977	0.576531	6.859768	0.152273	-0.131984	-0.193272	0.103027	0.039265	-0.088506	-0.686768	0.041016	-0.384277	0.067236	0.005700	0.068587	0.161851	-0.372305	-0.089393	-0.909507	3.408015	-44.923667	-161.228483
10488		6.642397	0.386187	6.895506	0.153872	0.084301	-0.232093	0.095563	0.014351	-0.078918	-0.694092	0.044678	-0.379150	0.066430	0.003803	0.068952	0.161662	-0.372159	-0.089951	-0.909545	3.505723	-44.916375	-161.292533
10489		6.709232	0.420025	6.627796	-0.056303	-0.028135	-0.372670	0.090393	0.003756	-0.070986	-0.683838	0.036133	-0.386963	0.067095	0.004146	0.066279	0.161496	-0.372073	-0.090481	-0.909557	3.596241	-44.915914	-161.350565
10490		6.593830	0.487620	6.660571	0.064629	-0.046845	-0.427955	0.063836	-0.015350	-0.050212	-0.682617	0.035889	-0.382324	0.065934	0.004838	0.066612	0.161365	-0.372101	-0.090866	-0.909531	3.660455	-44.926508	-161.392926
10491		6.578233	0.548345	7.003529	0.319733	0.005073	-0.193905	0.047873	-0.035366	-0.034393	-0.690674	0.043945	-0.381836	0.065771	0.005455	0.070048	0.161268	-0.372244	-0.091165	-0.909459	3.707200	-44.949667	-161.423455
10492		6.679498	0.534038	7.001764	0.247735	0.001367	-0.124332	0.040704	-0.042114	-0.031493	-0.697266	0.037354	-0.374512	0.066781	0.005316	0.070033	0.161167	-0.372420	-0.091432	-0.909378	3.748536	-44.976199	-161.452160
10493		7.052019	0.668178	6.998163	0.046986	-0.203315	0.142622	0.024831	-0.036925	-0.016116	-0.690430	0.040039	-0.384766	0.070508	0.006667	0.069995	0.161109	-0.372597	-0.091594	-0.909300	3.771761	-45.000908	-161.468068
10494		7.101260	0.540478	6.923870	-0.077960	-0.113225	0.119135	0.017434	-0.020027	-0.017014	-0.693848	0.029053	-0.378662	0.071006	0.005393	0.069246	0.161041	-0.372698	-0.091710	-0.909259	3.790719	-45.015336	-161.483949
10495		6.807495	0.669527	6.912585	0.159637	-0.168443	-0.090535	0.010511	-0.007948	-0.007456	-0.693359	0.045166	-0.384033	0.068072	0.006689	0.069129	0.161009	-0.372759	-0.091767	-0.909234	3.799713	-45.023800	-161.491328
10496		6.690121	0.556173	6.792905	0.120970	-0.069712	-0.263284	-0.001318	-0.011793	-0.008761	-0.700439	0.044922	-0.387207	0.066897	0.005559	0.067933	0.160947	-0.372841	-0.091776	-0.909210	3.802918	-45.033833	-161.500110
10497		6.457033	0.481717	7.020475	0.400003	0.117762	-0.271276	-0.011774	-0.021128	-0.004616	-0.688721	0.043213	-0.387695	0.064563	0.004820	0.070211	0.160881	-0.372981	-0.091737	-0.909168	3.798023	-45.049939	-161.505904
10498		6.433511	0.426915	6.669921	0.172030	0.073781	-0.537714	-0.017327	-0.038027	-0.001687	-0.694824	0.045654	-0.390869	0.064322	0.004274	0.066711	0.160809	-0.373199	-0.091681	-0.909097	3.789010	-45.075224	-161.510374
10499		6.768545	0.550033	6.773379	0.065075	-0.086716	-0.221929	-0.041843	-0.061675	0.010783	-0.702148	0.042969	-0.391602	0.067664	0.005518	0.067754	0.160738	-0.373554	-0.091510	-0.908981	3.759588	-45.115094	-161.505858
10500		6.905679	0.518262	6.864413	0.028904	-0.063356	-0.062184	-0.049030	-0.069277	0.019965	-0.699951	0.047852	-0.392822	0.069032	0.005206	0.068667	0.160692	-0.373949	-0.091294	-0.908848	3.721133	-45.159052	-161.494410
10501		6.770065	0.075066	6.783826	-0.083814	0.355391	-0.235299	-0.040252	-0.074985	0.016254	-0.701416	0.048096	-0.398193	0.067675	0.000770	0.067863	0.160642	-0.374366	-0.091130	-0.908702	3.689913	-45.206731	-161.486080
10502		6.921747	0.080722	6.720453	-0.216496	0.298542	-0.171858	-0.010385	-0.069041	-0.002034	-0.693115	0.045898	-0.392334	0.069194	0.000810	0.067228	0.160568	-0.374719	-0.091131	-0.908570	3.686189	-45.249737	-161.492397
10503		6.520260	0.382753	6.870072	0.264429	0.150660	-0.338219	-0.024891	-0.054200	0.001669	-0.698242	0.046875	-0.395020	0.065184	0.003837	0.068718	0.160490	-0.375022	-0.091048	-0.908466	3.671376	-45.284993	-161.494786
10504		6.439205	0.239806	7.327374	0.571192	0.432319	-0.081392	-0.023030	-0.046373	0.014623	-0.698730	0.052734	-0.392578	0.064375	0.002411	0.073288	0.160478	-0.375290	-0.090942	-0.908369	3.649915	-45.315645	-161.486353
10505		6.760829	1.103537	7.057996	0.498060	-0.523445	-0.003515	-0.039524	-0.046024	0.035900	-0.698242	0.054932	-0.393799	0.067590	0.011061	0.070593	0.160532	-0.375583	-0.090721	-0.908260	3.606589	-45.347468	-161.460436
10506		6.999143	1.115111	6.801786	0.183925	-0.667071	-0.013864	-0.094567	-0.045832	0.079257	-0.709229	0.049561	-0.395752	0.069971	0.011211	0.068029	0.160680	-0.375935	-0.090168	-0.908144	3.506636	-45.380068	-161.399294
10507		7.285269	0.970686	6.787063	-0.058145	-0.613101	0.172416	-0.134185	-0.041476	0.118081	-0.705322	0.056641	-0.389648	0.072833	0.009795	0.067879	0.160931	-0.376320	-0.089360	-0.908019	3.361108	-45.412047	-161.306037
10508		7.339212	0.480919	6.597724	-0.383968	-0.237966	0.057530	-0.143268	-0.024629	0.120197	-0.702881	0.059082	-0.399170	0.073381	0.004901	0.065983	0.161182	-0.376632	-0.088492	-0.907930	3.208591	-45.433670	-161.210275
10509		7.319621	0.207307	6.460594	-0.550533	-0.032737	-0.063076	-0.138879	-0.011506	0.104780	-0.706055	0.053711	-0.394287	0.073191	0.002156	0.064609	0.161377	-0.376879	-0.087663	-0.907874	3.066876	-45.447748	-161.126215
10510		7.190328	0.091558	6.630941	-0.388386	0.138795	-0.039844	-0.115054	0.006057	0.071406	-0.704590	0.064453	-0.402100	0.071905	0.000979	0.066307	0.161473	-0.377007	-0.086991	-0.907868	2.957775	-45.450057	-161.068730
10511		7.288750	0.238434	6.503505	-0.480728	-0.067077	-0.053451	-0.099074	0.012036	0.046778	-0.703125	0.068115	-0.399658	0.072891	0.002434	0.065029	0.161490	-0.377089	-0.086432	-0.907884	2.871811	-45.448745	-161.030913
10512		6.991358	0.110583	6.803118	-0.129634	0.194649	-0.059789	-0.091746	0.010340	0.030483	-0.707520	0.061523	-0.402344	0.069917	0.001148	0.068027	0.161446	-0.377162	-0.085939	-0.907909	2.799705	-45.447348	-161.006613
10513		6.683288	0.228270	7.288278	0.438363	0.283111	0.064819	-0.066037	0.001723	0.016684	-0.704590	0.071777	-0.402832	0.066833	0.002312	0.072881	0.161384	-0.377251	-0.085596	-0.907915	2.750458	-45.451037	-160.993757
10514		6.893679	0.363023	7.181506	0.279539	0.074996	0.144464	-0.048284	-0.008261	0.012486	-0.702637	0.060303	-0.416260	0.068934	0.003652	0.071817	0.161332	-0.377364	-0.085349	-0.907901	2.714216	-45.459751	-160.984857
10515		6.754608	0.237117	7.131000	0.296472	0.207139	0.005729	-0.036872	-0.010736	0.008723	-0.715332	0.064941	-0.406006	0.067542	0.002387	0.071313	0.161284	-0.377483	-0.085163	-0.907877	2.686642	-45.470345	-160.978967
10516		7.092626	0.374423	6.692813	-0.164641	-0.121229	-0.055768	-0.022145	-0.007433	-0.001711	-0.710205	0.067383	-0.415039	0.070924	0.003751	0.066930	0.161217	-0.377566	-0.085061	-0.907864	2.673597	-45.478179	-160.981609
10517		7.344555	0.302079	6.378728	-0.562769	-0.198459	-0.098480	-0.018858	-0.003113	-0.015494	-0.717041	0.061768	-0.420410	0.073445	0.003021	0.063788	0.161097	-0.377625	-0.084997	-0.907867	2.670225	-45.483761	-160.995188
10518		7.221815	0.208133	6.629324	-0.350037	-0.013382	-0.013546	-0.016229	0.014491	-0.026297	-0.719238	0.072510	-0.403320	0.072223	0.002077	0.066288	0.160939	-0.377593	-0.084950	-0.907913	2.674286	-45.478419	-161.017058
10519		7.219838	0.263579	6.655169	-0.312909	-0.057054	0.004931	-0.007730	0.013346	-0.024624	-0.707031	0.066895	-0.414307	0.072203	0.002629	0.066547	0.160805	-0.377565	-0.084940	-0.907949	2.682154	-45.474335	-161.037460
10520		6.963914	0.378440	6.684407	-0.084248	-0.097646	-0.153289	-0.009090	0.019437	-0.016653	-0.718994	0.075928	-0.410156	0.069646	0.003782	0.066837	0.160706	-0.377509	-0.084904	-0.907993	2.684545	-45.466442	-161.051258
10521		6.606793	0.120122	7.143177	0.361232	0.351535	-0.094917	-0.004377	0.020597	-0.024172	-0.718506	0.071289	-0.413574	0.066075	0.001195	0.071425	0.160583	-0.377445	-0.084902	-0.908042	2.693865	-45.458217	-161.071006
10522		6.522528	0.103073	7.280110	0.499091	0.426082	-0.059567	0.018207	0.019697	-0.039630	-0.725586	0.064209	-0.405518	0.065233	0.001011	0.072795	0.160432	-0.377356	-0.085033	-0.908093	2.725231	-45.449539	-161.103528
10523		6.728772	0.590338	6.950730	0.316396	-0.163829	-0.127102	0.022889	0.018198	-0.028340	-0.721191	0.079590	-0.423096	0.067295	0.005886	0.069502	0.160341	-0.377279	-0.085165	-0.908129	2.752648	-45.442561	-161.126754
10524		6.778774	0.456609	6.818560	0.147103	-0.085753	-0.188549	-0.003237	0.017923	-0.000768	-0.719727	0.063965	-0.410889	0.067794	0.004567	0.068179	0.160325	-0.377232	-0.085126	-0.908155	2.749175	-45.435924	-161.127636
10525		6.832189	0.368138	6.822872	0.082305	-0.015130	-0.150446	-0.005869	0.018441	0.007177	-0.721924	0.069824	-0.419434	0.068328	0.003686	0.068222	0.160341	-0.377193	-0.085061	-0.908175	2.739464	-45.429781	-161.121881
10526		6.695890	0.326520	6.906788	0.212927	0.076295	-0.190103	-0.008040	0.011181	0.011326	-0.727539	0.073486	-0.421143	0.066963	0.003272	0.069064	0.160368	-0.377185	-0.084983	-0.908180	2.726409	-45.427329	-161.113170
10527		7.104601	0.283688	6.584351	-0.285422	-0.066650	-0.126429	-0.003133	0.005947	0.010893	-0.724121	0.083008	-0.419922	0.071048	0.002842	0.065841	0.160400	-0.377201	-0.084933	-0.908172	2.716455	-45.428435	-161.104873
10528		6.821134	0.498839	6.961892	0.228398	-0.100931	-0.056546	-0.014019	0.004450	0.018819	-0.735107	0.072754	-0.424805	0.068212	0.005000	0.069617	0.160447	-0.377232	-0.084819	-0.908162	2.695806	-45.430039	-161.090310
10529		6.983396	0.254341	6.828507	-0.052907	0.051979	-0.042554	-0.006697	0.003317	0.015896	-0.731201	0.071777	-0.422607	0.069835	0.002551	0.068284	0.160495	-0.377266	-0.084745	-0.908147	2.680974	-45.432782	-161.078032
10530		6.964349	0.366763	6.745893	-0.053739	-0.073165	-0.110342	-0.012253	0.004595	0.015895	-0.739746	0.070557	-0.427246	0.069645	0.003677	0.067457	0.160531	-0.377293	-0.084645	-0.908138	2.663033	-45.434216	-161.065847
10531		6.869917	0.200629	6.814373	-0.004151	0.120620	-0.135027	-0.012238	0.005484	0.009627	-0.742432	0.081299	-0.433838	0.068701	0.002014	0.068142	0.160541	-0.377319	-0.084556	-0.908134	2.648608	-45.435547	-161.058598
10532		6.971403	0.282803	6.805079	-0.047597	0.017428	-0.066561	0.000241	-0.003160	0.001659	-0.730957	0.079102	-0.427490	0.069713	0.002829	0.068052	0.160534	-0.377366	-0.084546	-0.908117	2.646303	-45.441043	-161.058313
10533		6.787249	0.357682	6.992751	0.226145	0.041268	-0.063820	-0.002238	-0.011067	-0.003815	-0.736572	0.081787	-0.429688	0.067869	0.003576	0.069931	0.160494	-0.377452	-0.084541	-0.908088	2.645863	-45.451490	-161.062652
10534		7.081521	0.428851	6.728285	-0.115815	-0.164250	-0.037142	-0.004770	-0.022209	-0.003866	-0.733643	0.082520	-0.427002	0.070808	0.004289	0.067291	0.160444	-0.377587	-0.084533	-0.908042	2.644411	-45.467738	-161.067594
10535		6.705664	0.358878	6.982917	0.279224	0.056899	-0.128956	-0.017963	-0.021328	-0.004294	-0.744385	0.090332	-0.429932	0.067049	0.003594	0.069836	0.160368	-0.377733	-0.084466	-0.908001	2.635518	-45.484046	-161.072710
10536		6.820279	0.230960	6.952963	0.140883	0.142267	-0.072402	-0.013580	-0.022591	-0.008894	-0.753418	0.082764	-0.428711	0.068195	0.002311	0.069537	0.160278	-0.377875	-0.084429	-0.907961	2.631964	-45.500379	-161.081773
10537		7.026431	0.343833	6.736879	-0.095448	-0.068704	-0.073043	-0.012672	-0.020899	-0.013067	-0.742432	0.084717	-0.434814	0.070257	0.003438	0.067376	0.160173	-0.378011	-0.084402	-0.907926	2.631203	-45.516211	-161.094037
10538		6.945031	0.235477	6.849468	-0.003345	0.082743	-0.055779	-0.013808	-0.018536	-0.016819	-0.742920	0.082764	-0.429199	0.069444	0.002354	0.068501	0.160048	-0.378130	-0.084375	-0.907900	2.632032	-45.530016	-161.109424
10539		7.096489	0.260207	6.587142	-0.265873	-0.044904	-0.130456	-0.001241	-0.021586	-0.029370	-0.750977	0.081055	-0.431641	0.070958	0.002592	0.065879	0.159890	-0.378253	-0.084431	-0.907872	2.647359	-45.545809	-161.135046
10540		6.921497	0.344793	6.683335	-0.054154	-0.055920	-0.185283	-0.017172	-0.027231	-0.024383	-0.751465	0.084961	-0.432617	0.069206	0.003445	0.066842	0.159722	-0.378412	-0.084410	-0.907837	2.650919	-45.564397	-161.156954
10541		7.065283	0.448761	6.532723	-0.208968	-0.225737	-0.184527	-0.021302	-0.029126	-0.018119	-0.759766	0.085205	-0.435547	0.070644	0.004488	0.065337	0.159573	-0.378590	-0.084361	-0.907794	2.648412	-45.584801	-161.173683
10542		7.112582	0.849533	6.586922	-0.058971	-0.597219	-0.099916	-0.057680	-0.029861	0.003618	-0.753662	0.088135	-0.429932	0.071116	0.008516	0.065877	0.159454	-0.378805	-0.084105	-0.907749	2.612493	-45.605649	-161.172793
10543		6.792898	0.808247	6.864049	0.325872	-0.415736	-0.136280	-0.083500	-0.013724	0.037157	-0.752197	0.083740	-0.427490	0.067923	0.008124	0.068642	0.159445	-0.378986	-0.083656	-0.907716	2.541611	-45.618675	-161.143699
10544		6.826614	0.543154	6.920591	0.252133	-0.168371	-0.081278	-0.095708	-0.009120	0.053086	-0.759277	0.095947	-0.437988	0.068262	0.005483	0.069206	0.159487	-0.379158	-0.083117	-0.907686	2.454434	-45.628890	-161.101532
10545		6.973556	0.062184	6.925126	-0.006215	0.241381	0.012454	-0.074232	-0.024306	0.043801	-0.757813	0.096436	-0.431396	0.069727	0.000663	0.069259	0.159521	-0.379382	-0.082706	-0.907624	2.385179	-45.648079	-161.067300
10546		7.315722	0.121339	6.602729	-0.418497	0.016141	0.033893	-0.044516	-0.054732	0.031057	-0.766113	0.091309	-0.435059	0.073139	0.001239	0.066047	0.159541	-0.379711	-0.082478	-0.907504	2.341274	-45.683808	-161.044655
10547		6.893996	0.393842	6.859413	0.134948	-0.076537	-0.080793	-0.050978	-0.075585	0.037213	-0.771729	0.100342	-0.436279	0.068913	0.003969	0.068619	0.159569	-0.380146	-0.082226	-0.907340	2.290330	-45.732158	-161.017430
10548		7.476269	0.255607	6.520375	-0.512573	-0.173243	0.096020	-0.038700	-0.096809	0.031216	-0.771240	0.089600	-0.433594	0.074731	0.002580	0.065239	0.159583	-0.380661	-0.082058	-0.907137	2.250528	-45.791966	-160.995898
10549		7.188172	-0.012965	6.764113	-0.243227	0.208779	0.052425	-0.027765	-0.111959	0.033202	-0.776123	0.093994	-0.435547	0.071844	-0.000108	0.067681	0.159621	-0.381241	-0.081947	-0.906897	2.215932	-45.861024	-160.972978
10550		6.899952	-0.666572	6.921693	-0.166588	0.931894	-0.062441	0.023963	-0.131914	-0.016394	-0.771484	0.098389	-0.431396	0.068953	-0.006680	0.069262	0.159524	-0.381845	-0.082182	-0.906638	2.240835	-45.939885	-160.991610
10551		6.358550	-1.035270	7.184071	0.246906	1.482813	-0.280947	0.076832	-0.184060	-0.100499	-0.774170	0.101563	-0.432861	0.063514	-0.010412	0.071895	0.159126	-0.382613	-0.082858	-0.906323	2.347105	-46.047171	-161.081282
10552		6.294677	-1.818007	7.479586	0.225071	2.336074	-0.150168	0.167900	-0.263536	-0.240458	-0.775635	0.091553	-0.430908	0.062826	-0.018318	0.074863	0.158234	-0.383605	-0.084277	-0.905928	2.591575	-46.195763	-161.290151
10553		6.280305	-0.892493	7.506086	0.596982	1.525764	-0.122721	0.278556	-0.411208	-0.373089	-0.787354	0.095215	-0.424072	0.062632	-0.009147	0.075177	0.156891	-0.385125	-0.086568	-0.905301	2.985039	-46.424902	-161.616680
10554		6.262707	0.899755	7.395720	1.191881	-0.117823	-0.153867	0.311852	-0.570715	-0.422511	-0.784912	0.087158	-0.426025	0.062434	0.008750	0.074149	0.155317	-0.387309	-0.089228	-0.904382	3.436771	-46.741428	-161.995904
10555		5.963847	1.029033	7.673979	1.664024	-0.037536	-0.182243	0.148187	-0.743387	-0.339313	-0.799805	0.090088	-0.417236	0.059370	0.010132	0.076968	0.153722	-0.390437	-0.091121	-0.903120	3.756421	-47.158527	-162.320213
10556		6.471065	1.920326	7.259367	1.429164	-1.039286	-0.058846	0.181570	-0.902505	-0.241396	-0.809814	0.081299	-0.409180	0.064405	0.019059	0.072902	0.152559	-0.394289	-0.093092	-0.901441	4.047239	-47.668522	-162.577149
10557		6.524648	1.346907	7.113064	1.174529	-0.500278	-0.150896	0.137045	-1.034775	-0.160221	-0.810059	0.079834	-0.400879	0.064888	0.013368	0.071476	0.151610	-0.398805	-0.094803	-0.899434	4.273528	-48.257379	-162.779130
10558		6.645343	1.303473	6.956898	1.068456	-0.476388	-0.174822	0.118857	-1.156497	-0.091919	-0.814941	0.077637	-0.390137	0.066056	0.012963	0.069959	0.150867	-0.403895	-0.096384	-0.897116	4.456890	-48.917508	-162.935920
10559		7.011479	0.629564	6.780785	0.587508	0.085298	-0.056536	0.124573	-1.273428	-0.062111	-0.815674	0.076416	-0.384766	0.069683	0.006232	0.068256	0.150209	-0.409511	-0.098016	-0.894500	4.635248	-49.646205	-163.080034
10560		6.917209	0.550901	6.644843	0.639258	0.191904	-0.228415	0.118556	-1.372675	-0.054526	-0.825684	0.076416	-0.372559	0.068715	0.005451	0.066924	0.149516	-0.415554	-0.099675	-0.891642	4.816311	-50.430828	-163.230650
10561		7.066525	0.694899	6.490758	0.613583	0.040673	-0.212229	0.113821	-1.464904	-0.037770	-0.836914	0.076904	-0.353271	0.070189	0.006899	0.065427	0.148836	-0.422005	-0.101343	-0.888532	4.994826	-51.269419	-163.379645
10562		7.249688	0.750472	6.497011	0.660998	0.016103	-0.071368	0.090324	-1.525458	-0.015457	-0.839600	0.079102	-0.339600	0.071999	0.007470	0.065524	0.148165	-0.428723	-0.102897	-0.885243	5.154403	-52.142574	-163.519977
10563		7.447798	0.028945	6.357990	0.329735	0.675444	-0.049102	0.140087	-1.584949	-0.055229	-0.839111	0.073730	-0.324951	0.073971	0.000224	0.064168	0.147385	-0.435628	-0.104796	-0.881773	5.383680	-53.048123	-163.710387
10564		7.458110	0.528558	6.378777	0.658480	0.283398	-0.010881	0.171041	-1.656967	-0.102390	-0.850830	0.074707	-0.313965	0.074052	0.005193	0.064407	0.146417	-0.442767	-0.106979	-0.878109	5.683274	-53.990715	-163.964006
10565		7.992520	0.449733	6.100223	0.272826	0.260169	0.244679	0.186755	-1.744446	-0.138311	-0.854492	0.071533	-0.299805	0.079392	0.004385	0.061700	0.145269	-0.450233	-0.109367	-0.874200	6.042685	-54.981063	-164.276847
10566		7.978376	0.847724	6.206054	0.661159	0.010238	0.308979	0.198575	-1.813333	-0.166006	-0.862305	0.069092	-0.287354	0.079224	0.008349	0.062789	0.143976	-0.457933	-0.111910	-0.870083	6.457488	-56.006758	-164.644985
10567		8.432486	0.912447	6.206231	0.609925	-0.027519	0.679243	0.154788	-1.887944	-0.163549	-0.874756	0.071045	-0.266113	0.083741	0.009007	0.062862	0.142540	-0.465957	-0.114301	-0.865738	6.876103	-57.074445	-165.043126
10568		8.693901	0.853377	6.520044	0.877496	0.186461	1.050770	0.112209	-1.918723	-0.154980	-0.881836	0.071777	-0.252441	0.086315	0.008430	0.066035	0.141010	-0.474099	-0.116499	-0.861263	7.292251	-58.157663	-165.462556
10569		9.365825	1.040957	6.514767	0.790927	0.010368	1.615997	0.018476	-1.916370	-0.111655	-0.885010	0.063965	-0.230713	0.093034	0.010351	0.066042	0.139434	-0.482286	-0.118179	-0.856734	7.641112	-59.242194	-165.861062
10570		10.079816	0.899129	6.287011	0.410668	0.057422	2.093681	-0.107298	-1.868445	-0.030464	-0.894287	0.075439	-0.204346	0.100206	0.009010	0.063803	0.137917	-0.490351	-0.119078	-0.852264	7.856383	-60.303754	-166.184089
10571		10.722756	1.233003	6.423734	0.541888	-0.219546	2.733872	-0.248467	-1.795599	0.078428	-0.891846	0.078125	-0.196777	0.106640	0.012453	0.065181	0.136551	-0.498234	-0.119051	-0.847905	7.886053	-61.333163	-166.383700
10572		10.717606	1.132578	6.159126	0.506950	-0.173724	2.588676	-0.398419	-1.673208	0.208059	-0.893799	0.073730	-0.178467	0.106644	0.011561	0.062462	0.135432	-0.505729	-0.117974	-0.843788	7.678600	-62.302191	-166.408835
10573		9.646005	0.962099	5.691243	0.746905	-0.035516	1.403334	-0.470172	-1.648963	0.292043	-0.891113	0.074463	-0.162598	0.095972	0.009896	0.057682	0.134480	-0.513191	-0.116354	-0.839650	7.326033	-63.264886	-166.317841
10574		8.772234	1.213254	5.486204	1.230206	-0.245514	0.528788	-0.614603	-1.645218	0.405350	-0.896729	0.083740	-0.146484	0.087242	0.012480	0.055543	0.133632	-0.520750	-0.113827	-0.835467	6.739703	-64.231908	-166.058512
10575		6.920247	0.763574	4.431635	1.139353	0.010260	-1.638827	-0.737897	-1.747926	0.487729	-0.901367	0.090088	-0.122070	0.068793	0.007969	0.044890	0.132730	-0.528830	-0.110627	-0.830953	5.962494	-65.262332	-165.669151
10576		6.903193	-0.775025	4.053310	0.465431	1.330301	-1.894642	-0.609047	-1.941010	0.377978	-0.898926	0.090820	-0.101074	0.068648	-0.007495	0.041224	0.131600	-0.537503	-0.108372	-0.825850	5.377332	-66.393384	-165.411872
10577		5.733665	-1.440797	2.831811	-0.202922	1.701830	-3.485682	-0.248195	-2.098465	0.140602	-0.896484	0.091553	-0.092773	0.057045	-0.014332	0.028935	0.130351	-0.546410	-0.108335	-0.820188	5.309487	-67.602174	-165.495099
10578		6.695162	-0.277387	3.700736	0.733766	0.836705	-2.239283	-0.004849	-2.328252	-0.016057	-0.899170	0.080811	-0.054688	0.066515	-0.002778	0.037783	0.128991	-0.555938	-0.109860	-0.813772	5.648352	-68.932162	-165.864645
10579		8.776073	0.892672	3.522477	0.431031	-0.441894	-0.334348	-0.082298	-2.376677	0.019671	-0.896729	0.087891	-0.039795	0.087333	0.008950	0.036261	0.127510	-0.565664	-0.110987	-0.807123	5.940867	-70.292259	-166.229389
10580		9.610844	0.296579	2.834371	-0.426530	-0.099797	0.201962	-0.217290	-2.409571	0.053056	-0.902344	0.091309	-0.010986	0.095757	0.003023	0.029496	0.125748	-0.575538	-0.111477	-0.800323	6.150252	-71.671328	-166.584817
10581		10.367333	0.039336	3.230728	-0.150357	0.289386	1.041294	-0.212105	-2.361789	0.004508	-0.915283	0.087158	0.004150	0.103282	0.000431	0.033528	0.123812	-0.585116	-0.112084	-0.793566	6.489090	-73.020774	-167.070266
10582		9.293392	0.116101	2.603203	-0.156946	0.160899	-0.163719	-0.162533	-2.314660	-0.068798	-0.905762	0.092529	0.032715	0.092625	0.001151	0.027104	0.121743	-0.594345	-0.113056	-0.786862	7.064111	-74.336045	-167.768504
10583		8.876580	0.080116	2.771294	0.301587	0.349332	-0.524888	-0.158290	-2.346319	-0.128961	-0.903076	0.083252	0.040283	0.088433	0.000767	0.028751	0.119412	-0.603589	-0.114228	-0.779983	7.901422	-75.663511	-168.731512
10584		9.650138	-0.277826	2.634722	0.085011	0.690981	0.170033	-0.111283	-2.372116	-0.198849	-0.902832	0.083496	0.071777	0.096177	-0.002859	0.027491	0.116923	-0.612772	-0.115793	-0.772937	9.129055	-76.993802	-170.062463
10585		10.489075	0.708318	2.793024	0.588757	-0.129930	1.048007	-0.166333	-2.307374	-0.191867	-0.897217	0.085693	0.090576	0.104566	0.007007	0.029132	0.114309	-0.621664	-0.117070	-0.766004	10.562199	-78.281788	-171.629392
10586		9.522162	0.724482	2.203929	0.460078	-0.222964	-0.025526	-0.320508	-2.223872	-0.109721	-0.893311	0.071777	0.115967	0.094973	0.007229	0.023085	0.111569	-0.630282	-0.117438	-0.759279	11.963771	-79.522154	-173.246727
10587		9.440525	0.738932	1.745140	0.253537	-0.314800	-0.192497	-0.414682	-2.195413	-0.026890	-0.899170	0.081299	0.135742	0.094207	0.007414	0.018471	0.108845	-0.638822	-0.117157	-0.752551	13.406519	-80.750129	-174.954473
10588		10.218940	0.722548	1.739014	0.322432	-0.252237	0.570061	-0.451798	-2.126750	0.014441	-0.892578	0.089600	0.165039	0.101996	0.007274	0.018459	0.106185	-0.647063	-0.116551	-0.745956	15.068427	-81.936268	-176.899637
10589		10.294367	0.785938	1.226754	0.055566	-0.417300	0.575565	-0.497084	-2.035333	0.066358	-0.887207	0.073730	0.183105	0.102809	0.007926	0.013295	0.103613	-0.654950	-0.115548	-0.739563	16.960462	-83.071834	-179.097410
10590		10.276957	0.927202	1.172699	0.248612	-0.523968	0.556069	-0.597115	-1.964648	0.163737	-0.881104	0.080322	0.203369	0.102640	0.009393	0.012708	0.101105	-0.662605	-0.113806	-0.733336	18.932483	-84.174601	178.571962
10591		10.400853	0.816135	1.000299	0.234978	-0.439477	0.655974	-0.752056	-1.897043	0.269420	-0.881592	0.082520	0.216553	0.103896	0.008341	0.010958	0.098497	-0.670087	-0.111101	-0.727281	20.957996	-85.253089	176.102902
10592		10.837707	0.725516	0.957836	0.329802	-0.346891	1.080763	-0.902780	-1.846155	0.374290	-0.875977	0.075195	0.237549	0.108269	0.007504	0.010545	0.095784	-0.677437	-0.107458	-0.721358	23.151073	-86.316916	173.383129
10593		12.799998	0.728064	1.500477	0.940064	-0.184547	3.059735	-1.117728	-1.734314	0.499192	-0.870117	0.079346	0.250977	0.127845	0.007688	0.016072	0.092842	-0.684485	-0.102552	-0.715782	25.180024	-87.344597	170.707518
10594		17.289431	0.965030	2.309190	1.820054	-0.214723	7.560368	-1.517615	-1.357740	0.732545	-0.860352	0.084717	0.270752	0.172695	0.010464	0.024187	0.089547	-0.690404	-0.095227	-0.711516	22.565474	-88.228480	172.451197
10595		17.895649	0.193619	0.766169	0.324811	0.019878	8.097342	-1.860283	-0.739510	0.851980	-0.861816	0.089111	0.275879	0.178916	0.002774	0.008300	0.085780	-0.694260	-0.085985	-0.709402	7.751875	-88.772988	-173.798820
10596		16.573359	-0.137565	-0.158630	-0.515983	-0.000928	6.753928	-1.993421	-0.104968	0.765523	-0.854492	0.086182	0.286621	0.165738	-0.000756	-0.001490	0.081507	-0.695797	-0.076287	-0.709510	-14.431861	-88.811041	-152.754974
10597		14.440083	-1.014439	0.756073	0.226849	0.973465	4.648185	-1.897284	0.524737	0.467817	-0.853516	0.082031	0.276855	0.144443	-0.009737	0.007275	0.076743	-0.694879	-0.067703	-0.711808	-22.239716	-88.444843	-146.034547
10598		13.373893	-1.931653	7.636499	6.720402	3.155918	3.817444	-1.609842	1.341961	0.108327	-0.855957	0.079346	0.274902	0.134258	-0.018633	0.075617	0.071965	-0.690738	-0.061066	-0.716919	-17.204410	-87.702000	-151.998115
10599		6.905222	-2.868101	12.866355	11.785254	5.008303	-2.232167	-1.163188	2.492384	-0.146426	-0.847900	0.072021	0.254639	0.070629	-0.027987	0.127954	0.068159	-0.682141	-0.056491	-0.725842	-9.890765	-86.334244	-159.990721
10600		7.638551	-0.337216	9.785742	8.983187	1.857465	-1.442246	-0.469417	2.783372	-0.640927	-0.853760	0.066650	0.232422	0.077727	-0.003392	0.096790	0.064995	-0.671963	-0.056005	-0.735598	-3.127845	-84.790739	-167.045605
10601		0.240485	-0.292645	8.066594	7.831564	1.634605	-8.715989	-0.396572	3.133541	-0.626759	-0.862793	0.046387	0.210449	0.003659	-0.002777	0.080621	0.062208	-0.660333	-0.055616	-0.746322	0.404255	-83.007668	-170.828143
10602		-0.265208	1.203386	7.005065	7.078515	-0.042987	-9.120847	-0.461499	2.801621	-0.593466	-0.863281	0.054688	0.180664	-0.001635	0.012201	0.070050	0.059226	-0.649801	-0.054961	-0.755798	2.340122	-81.396152	-173.051420
10603		-0.991454	1.360857	6.590813	6.795204	-0.294105	-9.713734	-0.659155	2.504236	-0.424489	-0.852051	0.048828	0.159424	-0.009059	0.013846	0.065980	0.056146	-0.640389	-0.053092	-0.764153	3.033746	-79.955656	-174.139269
10604		-0.219285	1.139648	6.890566	6.904311	-0.097973	-8.742434	-0.833108	2.178948	-0.272993	-0.864258	0.034668	0.147461	-0.001427	0.011686	0.068876	0.052994	-0.632191	-0.050152	-0.771370	3.033369	-78.701889	-174.627325
10605		1.153491	0.543995	7.182996	6.798178	0.442121	-7.203263	-0.929611	1.975555	-0.138525	-0.855469	0.036377	0.121582	0.012247	0.005765	0.071685	0.049996	-0.624775	-0.046467	-0.777816	2.613206	-77.571657	-174.744555
10606		2.123852	-0.272854	7.286875	6.527569	1.175327	-6.112520	-0.881728	1.845511	-0.060011	-0.851318	0.024658	0.102295	0.021909	-0.002414	0.072680	0.047418	-0.617778	-0.042745	-0.783757	2.067947	-76.514501	-174.706224
10607		3.498596	-0.931738	7.506011	6.267509	1.762238	-4.610822	-0.670608	1.782913	-0.033926	-0.853271	0.025879	0.087158	0.035652	-0.009072	0.074775	0.045577	-0.610944	-0.039785	-0.789358	1.629228	-75.497092	-174.652398
10608		4.811800	-1.176356	7.545126	5.853218	1.930612	-3.219007	-0.365765	1.784523	-0.054059	-0.853027	0.023926	0.073486	0.048786	-0.011639	0.075039	0.044583	-0.603952	-0.038080	-0.794861	1.431084	-74.474507	-174.667096
10609		6.959598	-0.862821	8.067710	5.679886	1.597704	-0.899140	-0.056114	1.883349	-0.078183	-0.851563	0.022949	0.066162	0.070348	-0.008633	0.080019	0.044444	-0.596468	-0.037660	-0.800520	1.459352	-73.398862	-174.732308
10610		9.294801	-0.017670	8.679985	5.488932	0.754599	1.634219	0.164950	2.158039	-0.093644	-0.850830	0.012451	0.034668	0.093877	-0.000292	0.085790	0.044949	-0.587742	-0.038098	-0.806900	1.617272	-72.161342	-174.801680
10611		11.025297	1.008157	9.110297	5.193019	-0.270744	3.548412	0.226116	2.579738	-0.077882	-0.840820	0.012695	0.014648	0.111420	0.009936	0.089682	0.045772	-0.577250	-0.038644	-0.814367	1.749580	-70.686807	-174.806948
10612		11.349531	1.710244	8.740198	4.444131	-1.042253	3.872173	0.133938	3.052449	-0.036086	-0.827881	0.002686	-0.015137	0.114815	0.017024	0.085668	0.046580	-0.564715	-0.038571	-0.823067	1.735452	-68.937645	-174.713210
10613		10.506936	1.212234	7.719482	3.319850	-0.680487	2.834628	-0.012160	3.418323	-0.006732	-0.823730	0.011475	-0.035645	0.106369	0.012123	0.075383	0.047155	-0.550599	-0.037725	-0.832583	1.596322	-66.984023	-174.573076
10614		9.549194	0.335724	6.463110	2.022324	0.030911	1.543654	-0.067687	3.598804	-0.044380	-0.803467	0.000488	-0.072510	0.096635	0.003357	0.062898	0.047440	-0.535532	-0.036692	-0.842382	1.487916	-64.921457	-174.499972
10615		9.243299	-0.389689	5.493712	0.799078	0.610588	0.899335	-0.044776	3.609204	-0.097673	-0.797852	-0.000244	-0.098877	0.093402	-0.003930	0.053258	0.047548	-0.520269	-0.035890	-0.851922	1.466372	-62.857001	-174.507056
10616		9.719753	-0.718032	4.847225	-0.409888	0.806790	1.034140	0.007345	3.523361	-0.098179	-0.788574	-0.017090	-0.121338	0.098028	-0.007230	0.046750	0.047759	-0.505157	-0.035313	-0.860981	1.476510	-60.836736	-174.517039
10617		10.504050	-1.024150	4.539245	-1.475563	1.002146	1.536076	0.051433	3.407703	-0.024301	-0.780762	-0.015869	-0.148926	0.105792	-0.010266	0.043591	0.048365	-0.490431	-0.034763	-0.869442	1.442858	-58.888764	-174.446659
10618		11.082142	-1.302945	4.204586	-2.472866	1.166525	1.793410	0.102198	3.283687	0.097706	-0.768799	-0.019043	-0.162598	0.111498	-0.012996	0.040212	0.049589	-0.476079	-0.034148	-0.877339	1.336718	-57.008585	-174.255817
10619		11.354718	-1.446578	3.939632	-3.228192	1.205259	1.791493	0.160821	3.127788	0.257480	-0.752441	-0.026367	-0.188721	0.114163	-0.014350	0.037603	0.051616	-0.462338	-0.033447	-0.884568	1.149764	-55.224332	-173.922364
10620		11.522469	-1.385766	3.730486	-3.835673	1.035683	1.711555	0.207237	2.938039	0.425785	-0.740234	-0.032471	-0.204102	0.115785	-0.013649	0.035592	0.054450	-0.449308	-0.032596	-0.891120	0.883723	-53.545069	-173.452752
10621		11.681095	-1.197697	3.728732	-4.229629	0.745229	1.734215	0.237649	2.719280	0.584640	-0.736084	-0.025879	-0.209473	0.117338	-0.011678	0.035680	0.058013	-0.437213	-0.031584	-0.896929	0.551688	-51.995562	-172.867592
10622		11.965442	-0.829350	3.760358	-4.627942	0.254739	1.870990	0.261559	2.503628	0.689954	-0.713379	-0.034180	-0.233887	0.120140	-0.007927	0.036091	0.062056	-0.425982	-0.030497	-0.902086	0.194207	-50.563481	-172.221201
10623		12.738181	-0.559181	4.081015	-5.112852	-0.160422	2.558766	0.286631	2.334603	0.706850	-0.724365	-0.032959	-0.245850	0.127865	-0.005198	0.039312	0.066193	-0.415473	-0.029544	-0.906713	-0.125236	-49.230309	-171.591831
10624		13.629874	-0.238481	4.523802	-5.594725	-0.630707	3.400449	0.331049	2.281616	0.615109	-0.707275	-0.040039	-0.253906	0.136810	-0.002038	0.043676	0.069989	-0.405084	-0.028988	-0.911136	-0.331675	-47.921784	-171.067527
10625		13.475628	0.165461	4.732332	-5.568134	-1.088165	3.295235	0.367998	2.300930	0.399142	-0.707031	-0.031250	-0.277100	0.135285	0.001839	0.045772	0.072869	-0.394538	-0.029034	-0.915526	-0.361585	-46.606317	-170.742809
10626		12.482285	1.104510	4.648594	-5.089855	-1.981033	2.385593	0.307114	2.301421	0.167124	-0.691162	-0.041748	-0.278320	0.125338	0.011080	0.045063	0.074556	-0.383895	-0.029249	-0.919897	-0.279503	-45.287738	-170.616213
10627		11.045367	1.783870	4.484597	-4.355193	-2.545992	1.134382	0.091342	2.229504	-0.023353	-0.688721	-0.040527	-0.283691	0.110947	0.017806	0.043619	0.074934	-0.373615	-0.028867	-0.924102	-0.210450	-44.014626	-170.643195
10628		9.548795	1.867274	4.332887	-3.607061	-2.497583	-0.107679	-0.199613	2.072064	-0.191734	-0.677490	-0.049805	-0.309326	0.095948	0.018623	0.042318	0.073957	-0.364077	-0.027504	-0.928020	-0.219035	-42.828757	-170.801130
10629		8.843054	1.847964	4.344451	-3.283300	-2.416935	-0.654956	-0.497786	1.861453	-0.313724	-0.675293	-0.057373	-0.313965	0.088858	0.018447	0.042573	0.071837	-0.355599	-0.025061	-0.931537	-0.337914	-41.767339	-171.051626
10630		8.667371	1.292951	4.403979	-3.367842	-1.864995	-0.792320	-0.760362	1.662688	-0.381062	-0.675049	-0.056152	-0.320068	0.087060	0.012929	0.043268	0.068903	-0.348076	-0.021580	-0.934682	-0.577408	-40.817660	-171.352897
10631		8.584413	0.571116	4.394667	-3.562515	-1.164976	-0.908707	-0.902245	1.493953	-0.423108	-0.667236	-0.049561	-0.334229	0.086181	0.005725	0.043278	0.065504	-0.341381	-0.017569	-0.937475	-0.880819	-39.969075	-171.685889
10632		8.130262	-0.102155	4.320273	-3.480721	-0.473015	-1.301758	-0.911397	1.350951	-0.447452	-0.663818	-0.048340	-0.340576	0.081590	-0.001009	0.042657	0.061956	-0.335309	-0.013599	-0.939970	-1.181818	-39.201245	-172.037066
10633		7.519262	-0.880319	4.387944	-3.167709	0.354969	-1.663629	-0.787406	1.205930	-0.452440	-0.662598	-0.052490	-0.350830	0.075436	-0.008802	0.043460	0.058579	-0.329881	-0.010268	-0.942147	-1.413563	-38.520581	-172.390340
10634		7.199424	-1.324405	4.585684	-2.932027	0.834199	-1.730545	-0.557844	1.061217	-0.447485	-0.653320	-0.059570	-0.358643	0.072207	-0.013278	0.045511	0.055594	-0.325031	-0.008048	-0.944034	-1.521448	-37.921027	-172.736805
10635		7.132814	-1.220340	4.720052	-2.858757	0.746364	-1.693874	-0.321826	0.928527	-0.390426	-0.645752	-0.062988	-0.360596	0.071522	-0.012267	0.046888	0.053255	-0.320753	-0.006889	-0.945639	-1.524392	-37.399389	-173.037464
10636		7.199417	-1.035647	4.931896	-2.831570	0.571760	-1.513130	-0.149705	0.833182	-0.267534	-0.650146	-0.067383	-0.368408	0.072185	-0.010416	0.049026	0.051768	-0.316858	-0.006368	-0.947038	-1.487005	-36.928125	-173.245823
10637		7.242371	-1.060806	5.086449	-2.840576	0.602936	-1.385563	-0.035389	0.777504	-0.125347	-0.644775	-0.064941	-0.369629	0.072614	-0.010645	0.050584	0.051133	-0.313215	-0.006182	-0.948284	-1.447298	-36.488869	-173.349934
10638		7.055334	-1.054288	5.093628	-2.748834	0.612312	-1.511907	0.048545	0.736405	0.017685	-0.636475	-0.070557	-0.373047	0.070741	-0.010549	0.050673	0.051305	-0.309728	-0.006175	-0.949420	-1.421755	-36.068944	-173.350773
10639		6.975535	-0.995004	5.007312	-2.788245	0.549264	-1.649050	0.116814	0.692471	0.159289	-0.637451	-0.057617	-0.381592	0.069936	-0.009924	0.049825	0.052254	-0.306450	-0.006290	-0.950431	-1.415753	-35.674285	-173.250633
10640		6.934942	-0.729237	4.759298	-2.926822	0.262901	-1.898117	0.160536	0.648820	0.307964	-0.635742	-0.068115	-0.378418	0.069514	-0.007223	0.047362	0.053973	-0.303353	-0.006390	-0.951327	-1.445575	-35.300569	-173.045668
10641		6.835870	-0.661395	4.390533	-3.100065	0.166036	-2.275771	0.196824	0.596545	0.441161	-0.632080	-0.061523	-0.384277	0.068504	-0.006506	0.043695	0.056380	-0.300510	-0.006480	-0.952089	-1.506449	-34.956610	-172.747800
10642		6.766112	-0.581508	4.035748	-3.278586	0.049367	-2.625623	0.258205	0.526776	0.531337	-0.629395	-0.060303	-0.386963	0.067782	-0.005687	0.040172	0.059304	-0.297967	-0.006741	-0.952708	-1.567104	-34.649266	-172.387290
10643		6.832354	-0.360956	3.793138	-3.477716	-0.218964	-2.808645	0.331091	0.441617	0.587905	-0.632080	-0.061768	-0.395996	0.068417	-0.003471	0.037775	0.062603	-0.295819	-0.007295	-0.953162	-1.606251	-34.391242	-171.987431
10644		7.063934	-0.094764	3.596189	-3.770432	-0.551316	-2.861395	0.408094	0.361553	0.620807	-0.626709	-0.057129	-0.387939	0.070707	-0.000801	0.035832	0.066168	-0.294013	-0.008187	-0.953473	-1.613555	-34.176946	-171.564390
10645		7.288627	0.118913	3.551221	-3.970201	-0.823625	-2.790691	0.488926	0.303270	0.614521	-0.624756	-0.052490	-0.386719	0.072936	0.001327	0.035405	0.069819	-0.292464	-0.009499	-0.953677	-1.570411	-33.997705	-171.145550
10646		7.486040	0.485668	3.518806	-4.112238	-1.241043	-2.726934	0.563155	0.250650	0.572438	-0.627197	-0.063965	-0.397217	0.074890	0.004972	0.035108	0.073374	-0.291124	-0.011239	-0.953801	-1.468348	-33.848494	-170.755260
10647		7.398862	0.894750	3.500088	-3.998475	-1.656340	-2.808185	0.591751	0.204313	0.507923	-0.625244	-0.056152	-0.401855	0.074001	0.009032	0.034952	0.076659	-0.289996	-0.013232	-0.953861	-1.324137	-33.728609	-170.408957
10648		7.041827	1.260087	3.560887	-3.617383	-1.977731	-2.967384	0.562307	0.128563	0.435666	-0.626221	-0.058350	-0.400635	0.070414	0.012654	0.035599	0.079550	-0.289224	-0.015213	-0.953829	-1.169822	-33.652880	-170.111219
10649		7.006998	1.682267	3.817599	-3.374786	-2.379027	-2.780394	0.464036	0.037871	0.372941	-0.621826	-0.051025	-0.396729	0.070046	0.016865	0.038202	0.081993	-0.288922	-0.016857	-0.953686	-1.047892	-33.631284	-169.855453
10650		7.050595	1.773172	4.238074	-3.153763	-2.448672	-2.404984	0.319675	-0.054609	0.317668	-0.630859	-0.052979	-0.403564	0.070466	0.017776	0.042428	0.083955	-0.289109	-0.017927	-0.953439	-0.988626	-33.662952	-169.636490
10651		7.245538	1.442057	4.697118	-3.103454	-2.119797	-1.906027	0.202449	-0.118887	0.240251	-0.629883	-0.050049	-0.404297	0.072410	0.014460	0.047029	0.085373	-0.289649	-0.018580	-0.953137	-0.967238	-33.732943	-169.470023
10652		7.445814	1.085233	5.049700	-3.119844	-1.772467	-1.491495	0.129776	-0.152954	0.142397	-0.626953	-0.061035	-0.397461	0.074412	0.010873	0.050561	0.086216	-0.290369	-0.019041	-0.952833	-0.950673	-33.823070	-169.370453
10653		7.312429	0.786480	5.179108	-2.976107	-1.446318	-1.448224	0.086771	-0.178277	0.064757	-0.626465	-0.057617	-0.403076	0.073076	0.007866	0.051860	0.086624	-0.291224	-0.019422	-0.952527	-0.929034	-33.928825	-169.324116
10654		6.884642	0.377220	5.042682	-2.757250	-0.985653	-1.788022	0.064824	-0.233036	0.010591	-0.631836	-0.051758	-0.404785	0.068787	0.003759	0.050508	0.086736	-0.292343	-0.019801	-0.952166	-0.899572	-34.066337	-169.314575
10655		6.452830	-0.049235	4.931240	-2.520683	-0.502392	-2.108646	0.059417	-0.337042	-0.018302	-0.635986	-0.045166	-0.396484	0.064445	-0.000513	0.049421	0.086693	-0.293956	-0.020242	-0.951664	-0.862468	-34.263818	-169.324029
10656		6.231023	-0.316550	5.084545	-2.271588	-0.182236	-2.093555	0.073520	-0.484378	-0.003926	-0.627197	-0.052002	-0.392578	0.062187	-0.003185	0.050995	0.086723	-0.296265	-0.020793	-0.950933	-0.823723	-34.545652	-169.322149
10657		6.304349	-0.605193	5.415530	-2.153795	0.132127	-1.763928	0.098464	-0.631012	0.024108	-0.632568	-0.045898	-0.392822	0.062873	-0.006071	0.054351	0.086908	-0.299260	-0.021484	-0.949963	-0.782425	-34.911197	-169.299558
10658		6.197649	-0.843439	5.833139	-1.818888	0.435928	-1.467088	0.149542	-0.764933	0.054420	-0.632568	-0.054199	-0.380859	0.061755	-0.008461	0.058562	0.087298	-0.302871	-0.022430	-0.948760	-0.724884	-35.353483	-169.254716
10659		6.119036	-0.943124	6.321322	-1.427672	0.610945	-1.101821	0.201442	-0.886448	0.089096	-0.640625	-0.052002	-0.378906	0.060914	-0.009468	0.063474	0.087915	-0.307031	-0.023623	-0.947336	-0.652413	-35.864961	-169.184818
10660		6.184183	-0.818173	6.708762	-1.153379	0.538159	-0.740727	0.227983	-0.991827	0.130381	-0.639404	-0.051758	-0.375732	0.061514	-0.008218	0.067384	0.088755	-0.311680	-0.024923	-0.945705	-0.583041	-36.436963	-169.085031
10661		6.163701	-0.801246	6.994816	-0.874817	0.576249	-0.514169	0.209706	-1.094591	0.181734	-0.635498	-0.053955	-0.364746	0.061260	-0.008030	0.070276	0.089793	-0.316817	-0.026102	-0.943866	-0.547266	-37.067290	-168.947772
10662		6.339743	-0.843164	7.253667	-0.762005	0.638175	-0.193437	0.159316	-1.193919	0.216558	-0.646973	-0.050537	-0.364014	0.062972	-0.008421	0.072907	0.090900	-0.322442	-0.027031	-0.941827	-0.558192	-37.754755	-168.783546
10663		7.484115	-0.589066	7.613265	-1.263167	0.266920	0.801100	0.074146	-1.246835	0.260948	-0.650391	-0.044189	-0.360840	0.074372	-0.005822	0.076595	0.092067	-0.328345	-0.027512	-0.939658	-0.640849	-38.471766	-168.584447
10664		8.383989	-0.645281	7.597439	-1.839488	0.186157	1.368045	-0.039356	-1.208973	0.277658	-0.653564	-0.049072	-0.354248	0.083387	-0.006322	0.076481	0.093129	-0.334115	-0.027411	-0.937519	-0.800724	-39.167093	-168.369333
10665		8.244281	-0.665593	6.982999	-1.985425	0.153733	0.827165	-0.145358	-1.184202	0.275418	-0.647705	-0.031982	-0.345703	0.082036	-0.006492	0.070321	0.094003	-0.339801	-0.026807	-0.935404	-1.025021	-39.847223	-168.151216
10666		8.006565	-0.658350	5.980933	-2.308871	0.059476	-0.067215	-0.256858	-1.246742	0.257755	-0.663574	-0.030273	-0.336670	0.079699	-0.006403	0.060315	0.094592	-0.345822	-0.025737	-0.933165	-1.311708	-40.563218	-167.938974
10667		8.369698	-1.179466	4.858174	-3.269131	0.373884	-0.635750	-0.368383	-1.385937	0.211506	-0.665771	-0.014648	-0.336670	0.083370	-0.011616	0.049182	0.094750	-0.352517	-0.024294	-0.930679	-1.647766	-41.358143	-167.751748
10668		9.152027	-1.745397	3.814345	-4.491270	0.680867	-0.828376	-0.456987	-1.583204	0.125689	-0.661865	-0.016846	-0.326904	0.091225	-0.017308	0.038906	0.094324	-0.360146	-0.022679	-0.927838	-2.002358	-42.267515	-167.616447
10669		10.124502	-2.396746	2.745408	-5.869463	1.049321	-0.855448	-0.564547	-1.784355	0.087097	-0.670166	-0.008789	-0.314941	0.101005	-0.023844	0.028423	0.093494	-0.368720	-0.020730	-0.924594	-2.410451	-43.291433	-167.495167
10670		11.319027	-3.465844	1.874086	-7.326916	1.819743	-0.504396	-0.678793	-1.964997	0.160531	-0.672607	0.000977	-0.307129	0.113026	-0.034501	0.019969	0.092766	-0.378163	-0.018197	-0.920899	-2.940947	-44.417142	-167.294672
10671		12.284335	-4.820148	1.241778	-8.478223	2.925081	-0.053743	-0.747828	-2.089961	0.317164	-0.678223	0.012939	-0.303711	0.122780	-0.047957	0.013881	0.092605	-0.388174	-0.015108	-0.916797	-3.621633	-45.606481	-166.941287
10672		11.989590	-5.815966	0.774388	-8.567549	3.872524	-0.338096	-0.740248	-2.175431	0.572622	-0.689941	0.024170	-0.288818	0.119966	-0.057784	0.009263	0.093612	-0.398554	-0.011592	-0.912281	-4.482575	-46.832507	-166.340331
10673		17.701904	-13.700827	9.437366	-7.208853	11.480492	10.345470	-0.126038	-1.989012	0.485624	-0.694824	0.045654	-0.284668	0.176400	-0.136519	0.096216	0.095444	-0.407728	-0.010966	-0.908035	-4.960476	-47.949611	-165.792206
10674		19.842064	-10.619404	20.933042	0.439645	9.521546	19.406639	2.853900	0.268013	-0.425364	-0.700684	0.033691	-0.298340	0.198469	-0.109586	0.207517	0.099326	-0.405137	-0.024637	-0.908511	-3.048966	-47.819745	-166.169390
10675		-7.240532	7.153117	17.186891	18.723112	-3.426801	-3.758491	3.081033	0.751998	-0.131367	-0.697998	0.032471	-0.305664	-0.071710	0.068917	0.173215	0.105039	-0.400159	-0.038509	-0.909591	-1.185838	-47.396212	-166.304880
10676		-19.735113	18.942100	41.822597	47.276646	-8.426324	4.015799	1.981378	0.884657	0.143007	-0.691162	0.026367	-0.328613	-0.195627	0.185119	0.420942	0.109808	-0.395147	-0.046742	-0.910833	-0.136781	-46.893986	-166.192149
10677		-7.902916	31.793899	18.016400	25.578488	-26.441734	-3.144665	0.765788	0.560461	-0.371099	-0.698730	0.026855	-0.331055	-0.077932	0.317391	0.181599	0.109748	-0.392118	-0.050642	-0.911940	0.524898	-46.576373	-166.501354
10678		17.233439	-5.011450	6.111275	-8.455299	3.211314	6.850096	-0.032996	0.446957	-0.351497	-0.703125	0.029053	-0.332275	0.172382	-0.050407	0.060736	0.108180	-0.390035	-0.050924	-0.913004	0.713554	-46.321362	-166.790552
10679		4.604109	-1.261294	3.931722	-0.639511	1.191910	-3.777997	0.039277	0.050566	0.191327	-0.687988	0.029785	-0.327881	0.046063	-0.012577	0.039303	0.109130	-0.389867	-0.050691	-0.912976	0.619152	-46.297890	-166.631987
10680		7.200903	1.816460	8.417809	1.496568	-1.432055	1.220058	-0.145386	-0.005364	0.215570	-0.683838	0.036133	-0.341064	0.071987	0.018303	0.084167	0.109817	-0.390055	-0.049597	-0.912873	0.404918	-46.305598	-166.453970
10681		9.512822	1.930849	4.948950	-2.455915	-2.557682	0.489775	-0.114739	0.081444	0.264789	-0.692871	0.039551	-0.341309	0.095123	0.019463	0.049440	0.110809	-0.389847	-0.048499	-0.912901	0.178419	-46.263933	-166.234666
10682		8.309843	0.275537	5.826289	-1.420986	-0.633904	0.219953	-0.266865	-0.072947	0.299841	-0.694336	0.039795	-0.338135	0.083073	0.002958	0.058289	0.111627	-0.390430	-0.046726	-0.912645	-0.155714	-46.309370	-165.986839
10683		7.817547	-0.282884	6.060180	-1.039472	-0.004849	0.028003	-0.286296	-0.159545	0.274251	-0.694092	0.041504	-0.335205	0.078131	-0.002635	0.060668	0.112269	-0.391417	-0.044960	-0.912232	-0.486927	-46.404129	-165.758928
10684		6.678714	-2.625010	7.189489	-0.023057	2.626523	-0.000174	-0.206714	-0.122099	0.146194	-0.696045	0.045898	-0.336182	0.066762	-0.026127	0.071963	0.112491	-0.392154	-0.043788	-0.911945	-0.695789	-46.476926	-165.637030
10685		7.305802	-2.456024	6.580301	-0.815825	2.243507	0.036590	-0.035148	-0.084320	-0.028042	-0.696777	0.054932	-0.352783	0.073027	-0.024559	0.065838	0.112264	-0.392588	-0.043718	-0.911790	-0.701529	-46.529662	-165.659980
10686		7.370764	-1.344488	6.540498	-0.614672	1.152073	0.046766	0.008097	-0.043234	-0.104675	-0.703125	0.045898	-0.341797	0.073686	-0.013486	0.065420	0.111781	-0.392789	-0.043972	-0.911750	-0.635757	-46.558828	-165.747303
10687		7.520423	-1.940704	6.139334	-1.139227	1.653721	-0.118264	0.097717	-0.006081	-0.208125	-0.699219	0.054688	-0.348633	0.075182	-0.019515	0.061386	0.111010	-0.392751	-0.044817	-0.911819	-0.455770	-46.567678	-165.921166
10688		6.975806	-0.954967	6.666873	-0.173686	0.901451	-0.159803	0.160253	0.008916	-0.269037	-0.705566	0.046387	-0.344238	0.069748	-0.009697	0.066658	0.110088	-0.392593	-0.046057	-0.911938	-0.203106	-46.567190	-166.145909
10689		7.505470	-0.195701	6.489888	-0.478871	0.077082	0.099611	0.191718	-0.002940	-0.282200	-0.702881	0.048340	-0.348389	0.075051	-0.002125	0.064898	0.109164	-0.392471	-0.047474	-0.912029	0.075680	-46.573282	-166.381636
10690		7.441473	0.594583	6.435145	-0.293803	-0.658841	0.016844	0.178446	-0.018173	-0.247769	-0.717773	0.044434	-0.350830	0.074416	0.005796	0.064363	0.108367	-0.392429	-0.048770	-0.912073	0.325949	-46.586946	-166.588735
10691		6.742806	0.742152	7.191865	0.737622	-0.533547	0.031618	0.129283	-0.013715	-0.192559	-0.703613	0.049561	-0.360596	0.067430	0.007310	0.071928	0.107727	-0.392410	-0.049732	-0.912105	0.514896	-46.598218	-166.749953
10692		7.288157	0.736667	6.720685	0.036348	-0.676466	0.105405	0.117009	-0.015482	-0.151650	-0.718994	0.047852	-0.356689	0.072882	0.007272	0.067217	0.107249	-0.392412	-0.050557	-0.912116	0.671995	-46.609930	-166.877136
10693		6.687347	0.915753	6.905872	0.609251	-0.709270	-0.201443	0.069662	-0.009618	-0.096054	-0.708740	0.048096	-0.360107	0.066875	0.009101	0.069065	0.106932	-0.392429	-0.051056	-0.912117	0.768405	-46.618971	-166.957969
10694		6.814376	0.465340	6.780058	0.328120	-0.303910	-0.199081	0.059362	0.004519	-0.066021	-0.718262	0.048096	-0.364990	0.068147	0.004611	0.067800	0.106736	-0.392392	-0.051440	-0.912135	0.840568	-46.619581	-167.013637
10695		7.043602	0.191865	6.505676	-0.085929	-0.114271	-0.223500	0.066837	0.030676	-0.062685	-0.720703	0.048828	-0.364746	0.070447	0.001875	0.065047	0.106577	-0.392236	-0.051839	-0.912198	0.914783	-46.605678	-167.066159
10696		6.835084	0.155474	6.632723	0.129418	-0.017680	-0.288062	0.055223	0.056877	-0.045737	-0.729980	0.053223	-0.368652	0.068370	0.001521	0.066308	0.106478	-0.391967	-0.052137	-0.912308	0.971756	-46.576389	-167.104186
10697		6.720489	0.155517	6.788479	0.309439	0.031729	-0.264084	0.039857	0.069344	-0.027377	-0.725586	0.056641	-0.371826	0.067229	0.001532	0.067862	0.106437	-0.391657	-0.052323	-0.912435	1.008649	-46.540613	-167.126642
10698		6.517512	0.063652	7.027520	0.584679	0.197336	-0.247790	0.039521	0.083028	-0.021667	-0.725830	0.052490	-0.376465	0.065204	0.000616	0.070248	0.106424	-0.391283	-0.052488	-0.912588	1.041693	-46.496538	-167.144133
10699		6.732580	-0.007409	6.959883	0.367251	0.224368	-0.138886	0.047572	0.094960	-0.044438	-0.721924	0.056396	-0.373535	0.067359	-0.000106	0.069567	0.106327	-0.390849	-0.052728	-0.912771	1.092906	-46.445884	-167.180278
10700		6.981676	0.132168	6.697520	0.038570	0.007264	-0.137126	0.051440	0.099271	-0.036363	-0.722656	0.051025	-0.375977	0.069850	0.001292	0.066941	0.106275	-0.390390	-0.052968	-0.912960	1.141306	-46.392284	-167.209580
10701		7.123103	0.196902	6.586765	-0.129221	-0.093843	-0.110249	0.049318	0.104491	-0.033973	-0.730469	0.052490	-0.384277	0.071266	0.001941	0.065831	0.106231	-0.389913	-0.053191	-0.913156	1.186929	-46.336251	-167.236683
10702		7.294221	0.417796	6.370053	-0.354841	-0.371437	-0.133126	0.035022	0.109841	-0.023517	-0.726074	0.055176	-0.383545	0.072978	0.004158	0.063661	0.106209	-0.389418	-0.053325	-0.913362	1.217924	-46.276727	-167.254975
10703		6.846969	0.071463	6.930163	0.246429	0.134879	-0.074396	0.027297	0.117249	-0.013882	-0.730957	0.062988	-0.391846	0.068510	0.000700	0.069262	0.106217	-0.388900	-0.053402	-0.913577	1.238599	-46.213611	-167.265060
10704		6.928710	0.182590	6.825626	0.133945	-0.003954	-0.085839	0.030602	0.101356	-0.018878	-0.731689	0.060791	-0.395752	0.069322	0.001809	0.068221	0.106205	-0.388447	-0.053511	-0.913765	1.264306	-46.159003	-167.279560
10705		6.840171	0.353200	7.045967	0.379582	-0.116738	0.005694	0.008648	0.080115	0.001499	-0.732910	0.066895	-0.399170	0.068430	0.003529	0.070432	0.106237	-0.388112	-0.053492	-0.913904	1.265548	-46.117348	-167.277530
10706		7.210223	0.301216	6.662201	-0.156829	-0.194315	0.005694	-0.003409	0.064887	0.023303	-0.741211	0.061279	-0.391846	0.072123	0.003022	0.066599	0.106342	-0.387855	-0.053384	-0.914008	1.247111	-46.084143	-167.257823
10707		6.921644	0.388244	6.802807	0.153063	-0.214135	-0.103476	-0.027880	0.052081	0.044534	-0.743652	0.068604	-0.390625	0.069233	0.003907	0.068009	0.106492	-0.387680	-0.053129	-0.914079	1.202223	-46.059072	-167.220798
10708		6.776801	-0.003825	7.011707	0.301875	0.220556	-0.068494	-0.035575	0.038597	0.039774	-0.743652	0.064453	-0.391846	0.067782	-0.000012	0.070104	0.106603	-0.387564	-0.052856	-0.914131	1.155984	-46.041108	-167.188036
10709		7.192216	0.218247	6.651027	-0.179622	-0.129315	-0.016628	-0.023265	0.026702	0.040278	-0.740967	0.066650	-0.399902	0.071931	0.002205	0.066500	0.106736	-0.387501	-0.052645	-0.914155	1.116640	-46.030489	-167.155019
10710		7.377803	0.256890	6.429413	-0.451498	-0.240522	-0.036511	-0.031383	0.029204	0.042159	-0.751465	0.062256	-0.392578	0.073787	0.002595	0.064283	0.106863	-0.387426	-0.052391	-0.914186	1.071539	-46.017895	-167.120488
10711		7.176969	0.276559	6.433980	-0.307462	-0.234170	-0.177746	-0.045929	0.011995	0.057632	-0.749756	0.074219	-0.400146	0.071773	0.002801	0.064335	0.107028	-0.387447	-0.052050	-0.914178	1.009102	-46.015842	-167.073412
10712		6.721890	0.247008	6.955300	0.359159	-0.049981	-0.143689	-0.061406	-0.001293	0.072902	-0.757080	0.070068	-0.404785	0.067218	0.002516	0.069553	0.107229	-0.387536	-0.051616	-0.914141	0.928905	-46.020999	-167.013993
10713		6.761322	-0.176095	7.195448	0.403334	0.388746	0.046681	-0.058426	-0.005802	0.072642	-0.760010	0.072021	-0.415527	0.067612	-0.001715	0.071957	0.107434	-0.387648	-0.051198	-0.914093	0.850555	-46.029189	-166.954762
10714		6.973492	-0.120811	6.843720	0.030217	0.232782	-0.044086	-0.034661	-0.002796	0.035972	-0.765381	0.071289	-0.405029	0.069734	-0.001184	0.068438	0.107518	-0.387720	-0.050958	-0.914066	0.807587	-46.034771	-166.925800
10715		7.098956	-0.153327	6.714422	-0.151133	0.218047	-0.043770	-0.020534	0.008201	0.018945	-0.761230	0.077881	-0.410889	0.070992	-0.001520	0.067141	0.107554	-0.387734	-0.050811	-0.914064	0.782698	-46.034444	-166.910692
10716		7.350415	-0.089859	6.227189	-0.646146	0.029474	-0.200394	-0.009788	0.010687	-0.011801	-0.757324	0.072021	-0.406006	0.073507	-0.000900	0.062268	0.107471	-0.387719	-0.050770	-0.914082	0.782215	-46.031914	-166.920979
