// General information: 
//  MT Manager version: 2019.2.0 
//  XDA version: 2019.2.0 build 3853 rev 94535 built on 2019-09-09
// Device information: 
//  DeviceId: 00B47792
//  ProductCode: MTW2-3A7G6
//  Firmware Version: 4.6.0
//  Hardware Version: 2.0.0
// Device settings: 
//  Filter Profile: human(46.1)
//  Option Flags: Orientation Smoother Disabled, AHS Disabled, ICC Disabled
// Coordinate system: ENU
PacketCounter	SampleTimeFine	Acc_X	Acc_Y	Acc_Z	FreeAcc_E	FreeAcc_N	FreeAcc_U	Gyr_X	Gyr_Y	Gyr_Z	Mag_X	Mag_Y	Mag_Z	VelInc_X	VelInc_Y	VelInc_Z	Quat_q0	Quat_q1	Quat_q2	Quat_q3	Roll	Pitch	Yaw
10176		9.779293	0.071764	0.844475	-0.156165	0.868894	-0.036648	-0.790389	1.744999	-0.412814	-0.906982	0.114258	0.227051	0.097863	0.000547	0.007589	0.188168	-0.644380	-0.237292	-0.702182	57.894275	-83.850447	157.174592
10177		9.834020	-0.436353	0.745299	-0.683345	1.163386	-0.033558	-0.543350	1.571416	-0.359912	-0.920898	0.118408	0.221191	0.098387	-0.004522	0.006692	0.186998	-0.638943	-0.235069	-0.708185	52.166117	-83.165834	162.626286
10178		9.789849	-0.619414	0.370459	-1.223819	1.041809	-0.128817	-0.235284	1.399466	-0.335169	-0.927246	0.106934	0.197998	0.097911	-0.006354	0.003027	0.186679	-0.633817	-0.233998	-0.713212	48.138150	-82.505517	166.549001
10179		9.692097	0.014033	0.284901	-1.048142	0.424857	-0.182647	0.112154	1.246043	-0.354244	-0.927246	0.104248	0.193848	0.096936	-0.000033	0.002245	0.187212	-0.628861	-0.234364	-0.717328	45.445908	-81.870260	169.331325
10180		9.514508	1.078552	0.260433	-0.554548	-0.501109	-0.262957	0.284651	1.105212	-0.364455	-0.922119	0.097900	0.177979	0.095177	0.010609	0.002094	0.188072	-0.624214	-0.235498	-0.720782	43.636824	-81.274020	171.323967
10181		9.184309	1.718289	0.318575	-0.192134	-1.024028	-0.521869	0.195661	0.960010	-0.346269	-0.925293	0.095703	0.175049	0.091887	0.017021	0.002761	0.188549	-0.620174	-0.236390	-0.723847	42.316743	-80.738169	172.774015
10182		8.995744	2.118313	0.233593	-0.085998	-1.423921	-0.678698	0.044085	0.818767	-0.304037	-0.923828	0.099365	0.168701	0.089998	0.021046	0.001972	0.188529	-0.616825	-0.236723	-0.726598	41.267862	-80.274113	173.861865
10183		9.011827	2.192059	0.211655	-0.134967	-1.516190	-0.661430	-0.150206	0.691340	-0.231293	-0.934326	0.101807	0.162842	0.090150	0.021818	0.001789	0.188029	-0.614197	-0.236249	-0.729104	40.293564	-79.889592	174.763623
10184		8.888073	1.827492	-0.034144	-0.576706	-1.382286	-0.863098	-0.292287	0.576193	-0.148694	-0.930176	0.094238	0.160645	0.088893	0.018208	-0.000624	0.187249	-0.612214	-0.235104	-0.731339	39.337184	-79.583379	175.564465
10185		8.578775	1.248812	-0.420227	-1.204283	-1.153705	-1.295059	-0.339296	0.470502	-0.072902	-0.930908	0.091309	0.161865	0.085782	0.012449	-0.004425	0.186483	-0.610743	-0.233657	-0.733227	38.423769	-79.349389	176.295852
10186		8.338766	0.700612	-0.613381	-1.655952	-0.833442	-1.629459	-0.352442	0.353682	-0.012383	-0.929199	0.088867	0.154785	0.083377	0.006990	-0.006294	0.185751	-0.609782	-0.232078	-0.734713	37.609461	-79.187422	176.917860
10187		8.276491	0.407952	-0.751069	-1.939924	-0.685002	-1.750537	-0.257845	0.242175	0.034127	-0.928955	0.092529	0.159424	0.082755	0.004084	-0.007616	0.185357	-0.609191	-0.230812	-0.735700	36.957876	-79.091037	177.430952
10188		8.316789	0.180306	-0.885722	-2.193074	-0.583700	-1.760625	-0.230401	0.111425	0.084565	-0.926270	0.086914	0.153076	0.083162	0.001828	-0.008906	0.185071	-0.609115	-0.229609	-0.736211	36.443126	-79.071014	177.819402
10189		8.454459	-0.348323	-1.142381	-2.717725	-0.297148	-1.723812	-0.253277	-0.040025	0.128594	-0.928955	0.093750	0.149658	0.084549	-0.003443	-0.011403	0.184714	-0.609664	-0.228333	-0.736243	36.074932	-79.135305	178.046626
10190		8.564656	-0.653509	-1.449729	-3.141727	-0.219050	-1.690887	-0.106495	-0.193107	0.183437	-0.924316	0.091553	0.151123	0.085666	-0.006464	-0.014411	0.184821	-0.610707	-0.227566	-0.735590	35.925531	-79.288953	178.135381
10191		8.443317	-0.759835	-1.464940	-3.161839	-0.140474	-1.812942	0.037481	-0.367211	0.229423	-0.929688	0.100342	0.156494	0.084469	-0.007499	-0.014496	0.185348	-0.612302	-0.227353	-0.734195	36.054942	-79.538672	178.025628
10192		8.223829	-1.105478	-1.818718	-3.559549	-0.052287	-2.099851	0.200745	-0.539557	0.278100	-0.931641	0.095215	0.163574	0.082302	-0.010922	-0.017976	0.186348	-0.614435	-0.227744	-0.732036	36.487206	-79.884673	177.702155
10193		8.014226	-1.332167	-2.037629	-3.773671	0.011956	-2.335166	0.453534	-0.718347	0.322814	-0.928955	0.096436	0.169678	0.080236	-0.013146	-0.020118	0.188089	-0.617023	-0.229091	-0.728987	37.333111	-80.327041	177.107315
10194		8.062082	-1.435626	-2.282550	-3.972702	-0.041515	-2.297132	0.686234	-0.901160	0.382830	-0.919189	0.110840	0.182373	0.080750	-0.014124	-0.022511	0.190542	-0.620117	-0.231258	-0.725030	38.621007	-80.871597	176.198910
10195		8.474812	-1.279061	-2.392171	-3.955045	-0.229753	-1.844950	0.882099	-1.087502	0.447314	-0.918701	0.113037	0.185547	0.084905	-0.012497	-0.023516	0.193622	-0.623739	-0.234111	-0.720175	40.429712	-81.517420	174.880146
10196		8.949370	-0.925378	-2.302046	-3.642425	-0.457682	-1.282224	0.966780	-1.273596	0.538663	-0.917969	0.120117	0.196533	0.089662	-0.008903	-0.022493	0.197057	-0.628025	-0.237141	-0.714505	42.790045	-82.270607	173.054227
10197		9.167076	-1.120443	-2.250518	-3.610958	-0.258415	-1.023621	0.803407	-1.474034	0.685404	-0.910645	0.123779	0.202881	0.091871	-0.010801	-0.021872	0.200259	-0.633305	-0.239314	-0.708202	45.682044	-83.151668	170.602876
10198		9.185670	-1.807275	-2.856077	-4.347698	-0.055726	-1.043902	0.756005	-1.669221	0.838593	-0.910645	0.135498	0.222168	0.092166	-0.017581	-0.027859	0.203593	-0.639458	-0.240999	-0.701115	49.591884	-84.153935	167.103613
10199		9.667019	-2.164432	-3.017417	-4.559672	0.149791	-0.516233	0.860291	-1.835050	0.941733	-0.902344	0.143066	0.238281	0.097042	-0.021060	-0.029376	0.207408	-0.646129	-0.242869	-0.693191	55.580458	-85.223856	161.584598
10200		10.177694	-2.338347	-3.218675	-4.660476	0.185114	0.069320	0.953244	-1.981634	1.017859	-0.894775	0.155029	0.251221	0.102207	-0.022713	-0.031285	0.211570	-0.653226	-0.244925	-0.684504	65.682376	-86.294281	152.001607
10201		10.200275	-2.345202	-3.264843	-4.476483	0.169015	0.193903	1.036602	-2.095630	1.082921	-0.894531	0.172363	0.267090	0.102463	-0.022732	-0.031695	0.216065	-0.660592	-0.247144	-0.675169	83.997445	-87.218139	134.253126
10202		11.069128	-1.769045	0.315995	-1.096246	1.986932	1.169118	0.860768	-2.102066	1.159390	-0.884766	0.182373	0.281982	0.110751	-0.017065	0.004249	0.220185	-0.668166	-0.248475	-0.665832	114.074834	-87.699771	104.639998
10203		16.387910	2.303844	9.346409	8.716180	4.744918	6.396225	1.004778	-1.768648	1.084753	-0.880615	0.197510	0.293945	0.162917	0.023449	0.095025	0.224928	-0.674269	-0.250140	-0.657418	143.392351	-87.542626	75.874511
10204		29.760949	23.761347	23.671830	33.805344	-1.950685	19.581799	1.598051	-0.404887	0.607535	-0.877930	0.209473	0.292480	0.296407	0.236610	0.239212	0.231780	-0.674563	-0.253795	-0.653323	154.060042	-87.521019	66.112382
10205		27.586851	29.244677	11.072850	27.561984	-14.257637	18.042521	-1.323849	0.711252	-0.838536	-0.876221	0.184082	0.287598	0.277480	0.292006	0.107810	0.225456	-0.672703	-0.251479	-0.658330	138.625784	-87.591043	80.801386
10206		7.716476	-3.136766	3.868244	1.115247	5.166606	-2.302218	-3.803015	0.640610	-0.207824	-0.881592	0.181885	0.293701	0.077257	-0.030708	0.039023	0.212724	-0.674512	-0.238903	-0.665362	127.891690	-87.752741	89.362779
10207		-15.109441	-13.152999	-6.534747	-13.094566	6.070316	-25.164340	-2.214647	0.098803	0.076891	-0.879150	0.182617	0.291016	-0.151075	-0.132300	-0.063811	0.205603	-0.676608	-0.231169	-0.668200	126.197111	-87.819084	89.788827
10208		6.892456	-5.942752	-3.349561	-6.203565	3.023131	-2.999765	2.552979	-0.783875	0.558149	-0.874756	0.191162	0.296875	0.069222	-0.058803	-0.033978	0.215161	-0.677203	-0.238604	-0.661944	141.779369	-87.733310	75.658184
10209		10.320114	-0.024993	1.169497	1.019850	1.119600	0.462500	2.852821	-0.020609	0.479528	-0.869873	0.200195	0.283936	0.103200	-0.000169	0.011703	0.226347	-0.674722	-0.246433	-0.657867	149.536889	-87.875284	69.530777
10210		23.097060	9.556028	-0.351348	6.104636	-6.702144	13.483726	1.990633	-0.263681	-0.616956	-0.871582	0.195801	0.290527	0.231268	0.094874	-0.002262	0.230679	-0.672558	-0.255356	-0.655169	145.277687	-87.553692	74.934144
10211		18.160507	0.622634	-0.411461	0.322282	-0.010079	8.360275	-0.689584	-0.172818	0.400732	-0.873535	0.194824	0.283447	0.181596	0.006576	-0.003980	0.229437	-0.674443	-0.251960	-0.654982	150.735375	-87.587896	69.076148
10212		-2.609653	-11.087053	-4.411206	-10.550386	5.548466	-12.476314	0.867117	0.300568	0.264482	-0.873047	0.210449	0.286865	-0.026017	-0.110712	-0.044553	0.233583	-0.672809	-0.253570	-0.654576	152.526689	-87.807705	67.779759
10213		2.274157	4.250762	0.635334	3.332949	-2.661252	-7.478253	5.011815	-0.025706	-0.596607	-0.879639	0.205566	0.275146	0.022867	0.042263	0.007417	0.248368	-0.666088	-0.271940	-0.648605	148.154500	-87.621852	75.029306
10214		12.125003	12.140764	6.422475	13.136399	-3.906610	2.346013	0.751361	-0.148020	-0.201612	-0.879395	0.217529	0.270508	0.121324	0.121043	0.064770	0.249994	-0.665375	-0.275240	-0.647319	147.379741	-87.484814	76.234809
10215		12.127259	1.049474	-1.544887	-0.271586	-1.326444	2.382604	-2.372814	0.063494	0.491219	-0.872559	0.216309	0.283447	0.121242	0.010608	-0.015613	0.243745	-0.668780	-0.265840	-0.650116	151.312995	-87.656250	70.937331
10216		9.334747	-1.185929	-4.236118	-3.790811	-1.618941	-0.352389	-0.429417	-0.036288	0.626579	-0.869141	0.215332	0.280029	0.093392	-0.011658	-0.042319	0.244277	-0.670267	-0.262404	-0.649781	159.493943	-87.783383	62.503149
10217		10.257725	1.250222	-0.213649	0.879537	-0.736304	0.459298	0.225559	-0.024753	0.474811	-0.866211	0.232910	0.282471	0.102547	0.012748	-0.002110	0.246528	-0.670710	-0.261588	-0.648802	166.555434	-87.845710	55.565911
10218		11.004598	-0.404800	-1.086152	-0.824514	-0.096414	1.221601	-0.565908	-0.104670	0.414331	-0.867676	0.230225	0.285645	0.110060	-0.003851	-0.010793	0.245817	-0.672303	-0.258504	-0.648659	172.679775	-87.825730	49.112251
10219		9.981895	-1.823614	-1.086797	-1.766797	0.908021	0.197245	0.441591	-0.046554	0.302912	-0.870605	0.224854	0.283936	0.099849	-0.018061	-0.010885	0.248210	-0.672317	-0.258988	-0.647539	177.513687	-87.810398	44.528082
10220		9.219196	0.314233	-0.154078	0.356388	-0.094212	-0.594220	1.142476	-0.039196	0.192399	-0.869141	0.240967	0.278809	0.092189	0.003240	-0.001504	0.252599	-0.671283	-0.262096	-0.645661	-178.991425	-87.785739	41.685010
10221		9.223055	1.487799	-0.016290	1.276564	-0.867425	-0.598761	0.894247	-0.075290	0.196173	-0.862061	0.251709	0.276855	0.092216	0.014969	-0.000061	0.256119	-0.670664	-0.264431	-0.643964	-175.689819	-87.733964	38.893688
10222		10.070596	2.775990	-0.097968	2.154934	-1.838480	0.242599	0.638517	-0.087105	0.183534	-0.865723	0.243896	0.277100	0.100681	0.027855	-0.000847	0.258718	-0.670383	-0.265996	-0.642571	-172.882042	-87.670436	36.449703
10223		10.545810	2.305706	-0.018831	1.933450	-1.438756	0.709784	-0.127542	-0.087565	0.308328	-0.868896	0.245361	0.275146	0.105422	0.023219	-0.000157	0.259151	-0.671255	-0.264680	-0.642029	-168.968058	-87.589680	32.459283
10224		10.042848	-1.100726	-0.771492	-0.940503	0.484414	0.264327	-0.700769	-0.064669	0.473253	-0.859131	0.241943	0.277100	0.100457	-0.010796	-0.007644	0.258211	-0.673008	-0.260938	-0.642104	-163.500948	-87.485950	26.584886
10225		9.796081	-3.675086	-1.325138	-3.069901	1.964522	0.083858	-0.444337	-0.046616	0.479248	-0.864014	0.249512	0.280273	0.098052	-0.036545	-0.013147	0.258179	-0.674371	-0.257972	-0.641886	-158.222925	-87.367580	21.046753
10226		9.567763	-4.350205	-1.379634	-3.544996	2.399484	-0.115000	0.012084	0.008313	0.340969	-0.859375	0.248291	0.282471	0.095751	-0.043338	-0.013803	0.259306	-0.674785	-0.256864	-0.641441	-154.397769	-87.290689	17.223883
10227		9.470166	-3.175416	-1.501884	-2.829645	1.426495	-0.222009	0.500031	0.049584	0.150014	-0.859619	0.255371	0.281006	0.094722	-0.031645	-0.015122	0.261524	-0.674185	-0.257910	-0.640751	-152.276393	-87.274830	15.386988
10228		9.732017	-1.446001	-1.149918	-1.382003	0.380980	-0.011144	0.778514	0.089293	0.057513	-0.864258	0.259521	0.272217	0.097319	-0.014387	-0.011599	0.264426	-0.672969	-0.260103	-0.639951	-150.763505	-87.301470	14.318305
10229		9.744156	-0.462595	-0.780018	-0.440587	-0.098757	-0.036845	0.848673	0.134874	0.055331	-0.856689	0.253662	0.278809	0.097438	-0.004566	-0.007885	0.267619	-0.671499	-0.262466	-0.639203	-148.915674	-87.349842	12.955294
10230		9.485305	-0.478147	-0.835524	-0.505135	-0.150714	-0.293244	0.826949	0.145820	0.104104	-0.858398	0.265137	0.273193	0.094849	-0.004697	-0.008444	0.270898	-0.670076	-0.264574	-0.638446	-146.438350	-87.386092	10.949031
10231		9.285644	-0.516586	-0.757576	-0.486675	-0.095102	-0.495069	0.888316	0.162569	0.111973	-0.861816	0.262451	0.260498	0.092853	-0.005080	-0.007674	0.274431	-0.668512	-0.266826	-0.637639	-143.654483	-87.423398	8.671847
10232		9.514360	0.386778	-0.039182	0.667592	-0.244316	-0.316962	0.963637	0.167272	0.096242	-0.859863	0.267334	0.264404	0.095141	0.003916	-0.000453	0.278161	-0.666796	-0.269357	-0.636755	-140.883352	-87.463258	6.450126
10233		9.505558	0.254560	0.113835	0.678573	-0.058456	-0.327463	0.833445	0.164662	0.128149	-0.863281	0.277344	0.256836	0.095055	0.002602	0.001071	0.281553	-0.665296	-0.271367	-0.635979	-137.818789	-87.485018	3.860628
10234		9.319905	-0.065429	-0.080633	0.306253	0.005447	-0.497240	0.835150	0.123690	0.152380	-0.852539	0.276123	0.257324	0.093199	-0.000580	-0.000866	0.284963	-0.663946	-0.273352	-0.635020	-134.870884	-87.474187	1.388345
10235		9.575076	0.920140	0.145578	1.193281	-0.521773	-0.280964	0.972730	0.098021	0.144876	-0.859375	0.272949	0.254883	0.095745	0.009264	0.001454	0.288769	-0.662456	-0.275831	-0.633784	-132.177682	-87.450996	-0.749569
10236		9.760577	2.236648	0.149383	2.180499	-1.419322	-0.141870	0.880931	0.075291	0.143002	-0.861328	0.287598	0.257080	0.097590	0.022430	0.001556	0.292220	-0.661155	-0.278050	-0.632589	-129.827828	-87.415988	-2.597321
10237		9.796481	2.820295	-0.111037	2.456596	-2.006129	-0.123623	0.670401	0.070045	0.176355	-0.868408	0.285889	0.247559	0.097940	0.028293	-0.001050	0.295076	-0.660212	-0.279498	-0.631610	-127.447096	-87.360719	-4.595967
10238		10.147880	2.623693	-0.382254	2.164418	-2.083959	0.236279	0.393462	0.077193	0.183037	-0.856934	0.284912	0.244629	0.101453	0.026337	-0.003810	0.297040	-0.659660	-0.280036	-0.631027	-125.205483	-87.301358	-6.614985
10239		10.409708	1.421041	-0.987148	0.892246	-1.750563	0.555302	0.168347	0.111700	0.201419	-0.858887	0.293213	0.246094	0.104077	0.014324	-0.009918	0.298373	-0.659356	-0.279752	-0.630842	-122.715768	-87.240264	-9.010911
10240		9.490998	0.007048	-1.763640	-0.711815	-1.403131	-0.288297	0.081673	0.103323	0.202579	-0.860840	0.281494	0.240723	0.094901	0.000174	-0.017685	0.299405	-0.659209	-0.279202	-0.630750	-120.470056	-87.171747	-11.213002
10241		10.158657	-0.216837	-1.435690	-0.619912	-1.035330	0.378010	0.051983	0.087673	0.177868	-0.859375	0.296387	0.234375	0.101582	-0.002074	-0.014402	0.300246	-0.659119	-0.278664	-0.630683	-118.630834	-87.107017	-13.024646
10242		10.229433	-0.834922	-0.914977	-0.724267	-0.255083	0.462813	-0.148700	0.112587	0.188208	-0.860840	0.301025	0.236816	0.102297	-0.008260	-0.009201	0.300486	-0.659267	-0.277421	-0.630961	-116.697056	-87.041049	-15.046652
10243		10.107596	-1.181664	-0.412522	-0.647908	0.332658	0.346029	-0.204498	0.138943	0.188681	-0.856934	0.288574	0.240967	0.101084	-0.011726	-0.004183	0.300586	-0.659414	-0.275961	-0.631401	-114.613566	-86.977456	-17.250261
10244		10.052938	-2.212378	-0.084872	-1.191999	1.245418	0.335782	-0.365859	0.183313	0.182299	-0.860840	0.293701	0.235107	0.100549	-0.022034	-0.000901	0.300188	-0.659653	-0.273944	-0.632218	-112.309751	-86.923302	-19.767657
10245		10.186194	-3.025693	0.483311	-1.402060	2.187541	0.502146	-0.252757	0.236548	0.177469	-0.864746	0.299072	0.237549	0.101894	-0.030160	0.004751	0.300225	-0.659543	-0.272220	-0.633059	-109.513684	-86.876378	-22.712802
10246		9.916505	-3.457153	0.923843	-1.437072	2.783852	0.253463	-0.143992	0.257991	0.158003	-0.854492	0.299316	0.230957	0.099204	-0.034487	0.009135	0.300583	-0.659175	-0.270871	-0.633851	-106.598396	-86.836255	-25.715487
10247		9.464578	-3.030418	1.175809	-0.979298	2.669815	-0.218043	0.038713	0.224194	0.099449	-0.861084	0.306641	0.231201	0.094674	-0.030259	0.011646	0.301315	-0.658557	-0.270344	-0.634370	-104.136011	-86.815402	-28.159390
10248		9.615997	-1.849450	1.671592	0.223553	2.219993	-0.132620	0.203427	0.170879	0.049391	-0.862549	0.297119	0.227295	0.096179	-0.018488	0.016615	0.302356	-0.657793	-0.270584	-0.634565	-102.260048	-86.810541	-29.921702
10249		9.832511	-1.259712	2.198550	1.013213	2.195138	0.049033	0.240803	0.131808	0.067472	-0.860352	0.306885	0.226563	0.098344	-0.012590	0.021906	0.303527	-0.657118	-0.270942	-0.634553	-100.725900	-86.788003	-31.320012
10250		9.593322	-0.955534	2.126604	1.173238	1.933982	-0.202769	0.274493	0.074570	0.113389	-0.855957	0.299805	0.227783	0.095947	-0.009530	0.021217	0.304872	-0.656636	-0.271341	-0.634237	-99.687749	-86.732151	-32.202640
10251		9.287926	-0.380211	1.853999	1.405039	1.348725	-0.536144	0.279794	0.008740	0.133139	-0.851563	0.306396	0.221436	0.092883	-0.003766	0.018531	0.306211	-0.656378	-0.271793	-0.633665	-99.286876	-86.658163	-32.443553
10252		9.525372	0.520378	1.242116	1.688116	0.282530	-0.346073	0.193275	-0.052390	0.122856	-0.863281	0.311279	0.222412	0.095247	0.005250	0.012451	0.307146	-0.656432	-0.272096	-0.633026	-99.543619	-86.584388	-32.075896
10253		9.925263	1.360321	0.701535	1.989651	-0.691678	0.006494	0.057709	-0.098383	0.124513	-0.863770	0.311523	0.231201	0.099241	0.013663	0.007068	0.307582	-0.656841	-0.272036	-0.632416	-100.286758	-86.504805	-31.298229
10254		9.945008	1.322510	0.135130	1.603557	-1.091953	0.031433	-0.142812	-0.112951	0.152014	-0.854736	0.313477	0.232666	0.099439	0.013302	0.001398	0.307423	-0.657641	-0.271273	-0.631990	-101.190792	-86.407740	-30.474840
10255		9.707202	0.623103	-0.716100	0.521609	-1.258487	-0.154792	-0.260777	-0.117095	0.172945	-0.855713	0.306152	0.233398	0.097071	0.006306	-0.007112	0.306939	-0.658662	-0.270075	-0.631674	-102.114055	-86.297428	-29.699371
10256		9.689655	0.059671	-1.329113	-0.290912	-1.341413	-0.128914	-0.378564	-0.084645	0.168194	-0.850342	0.306152	0.233154	0.096902	0.000653	-0.013251	0.306089	-0.659753	-0.268468	-0.631633	-102.791459	-86.193428	-29.238536
10257		9.911016	-0.243934	-1.705585	-0.743437	-1.425873	0.117617	-0.459319	-0.043769	0.146846	-0.846680	0.313477	0.232910	0.099116	-0.002406	-0.017029	0.304965	-0.660806	-0.266614	-0.631861	-103.190769	-86.106012	-29.102039
10258		9.827975	-0.331420	-1.755120	-0.838995	-1.401645	0.041796	-0.568726	-0.002204	0.154754	-0.858154	0.306885	0.239258	0.098282	-0.003288	-0.017541	0.303552	-0.661901	-0.264323	-0.632358	-103.293033	-86.019926	-29.326621
10259		9.754000	-0.364530	-1.418700	-0.636432	-1.130967	-0.035061	-0.711963	0.037411	0.135100	-0.856689	0.307861	0.235352	0.097540	-0.003630	-0.014192	0.301657	-0.663054	-0.261582	-0.633196	-103.202875	-85.949679	-29.825879
10260		9.720469	-0.955373	-1.123825	-0.865365	-0.512302	-0.032507	-0.806063	0.051942	0.115682	-0.857422	0.309082	0.244385	0.097207	-0.009543	-0.011225	0.299398	-0.664269	-0.258580	-0.634227	-103.099851	-85.892443	-30.392733
10261		9.814878	-0.866490	-0.569627	-0.408895	-0.173185	0.046821	-0.845787	0.020549	0.086911	-0.860840	0.303711	0.239258	0.098152	-0.008646	-0.005670	0.296875	-0.665594	-0.255591	-0.635235	-103.318575	-85.846845	-30.659252
10262		9.729723	-0.661813	-0.318759	-0.085180	-0.126498	-0.056467	-1.023588	-0.049718	0.050975	-0.857910	0.303955	0.239014	0.097300	-0.006609	-0.003130	0.293544	-0.667345	-0.252255	-0.636278	-104.241299	-85.812163	-30.322634
10263		9.909357	0.424453	0.260973	1.112758	-0.475920	0.035099	-1.080789	-0.108477	0.014723	-0.852539	0.306396	0.247314	0.099092	0.004266	0.002640	0.289831	-0.669303	-0.248938	-0.637230	-105.698173	-85.788037	-29.482703
10264		10.053369	0.304530	0.969750	1.551608	0.102433	0.171569	-1.151440	-0.109038	0.032123	-0.852051	0.304932	0.250488	0.100528	0.003117	0.009735	0.285923	-0.671364	-0.245332	-0.638224	-107.148729	-85.753016	-28.689853
10265		9.444774	-1.277476	1.380888	0.733617	1.542198	-0.335036	-1.085936	-0.128126	0.090392	-0.845215	0.300049	0.261719	0.094445	-0.012657	0.013938	0.282392	-0.673444	-0.241758	-0.638969	-108.540752	-85.681116	-27.917822
10266		9.143059	-2.458798	1.205042	-0.186284	2.294050	-0.550084	-0.933350	-0.177407	0.085890	-0.854004	0.295654	0.264648	0.091430	-0.024492	0.012246	0.279290	-0.675442	-0.238749	-0.639355	-110.168719	-85.601118	-26.821712
10267		9.332810	-1.974253	1.167592	0.168047	1.922830	-0.397983	-0.772362	-0.236687	0.052152	-0.854736	0.293457	0.268311	0.093319	-0.019673	0.011862	0.276550	-0.677351	-0.236448	-0.639381	-112.148801	-85.523981	-25.279490
10268		9.888153	-0.399583	0.998919	1.178385	0.646235	0.042604	-0.753551	-0.277455	0.050697	-0.852783	0.290039	0.272461	0.098869	-0.003933	0.010141	0.273812	-0.679352	-0.234261	-0.639242	-114.329425	-85.434433	-23.525746
10269		9.822494	0.270544	0.432213	1.231327	-0.217707	-0.056779	-0.868644	-0.292058	0.082860	-0.857666	0.296631	0.272949	0.098217	0.002765	0.004454	0.270769	-0.681581	-0.231615	-0.639128	-116.488915	-85.319153	-21.858481
10270		9.740120	0.361293	0.157770	1.106826	-0.456019	-0.138377	-0.971121	-0.288786	0.084669	-0.840088	0.283691	0.286865	0.097397	0.003662	0.001701	0.267376	-0.683925	-0.228625	-0.639130	-118.586962	-85.199267	-20.311916
10271		9.768561	-0.375144	-0.087350	0.468815	-0.053123	-0.047931	-0.978926	-0.247319	0.097195	-0.847168	0.283691	0.288574	0.097688	-0.003708	-0.000734	0.264041	-0.686144	-0.225507	-0.639247	-120.318675	-85.080257	-19.136814
10272		9.658376	-1.593595	0.190007	-0.087866	1.068022	-0.080710	-0.824174	-0.215793	0.104060	-0.842041	0.281494	0.292969	0.096590	-0.015877	0.002070	0.261281	-0.688050	-0.222809	-0.639277	-121.696441	-84.964930	-18.228648
10273		9.699185	-3.106413	0.476691	-0.799095	2.420528	0.059171	-0.609124	-0.176239	0.125358	-0.842041	0.289307	0.301758	0.097007	-0.030988	0.004947	0.259376	-0.689563	-0.220675	-0.639164	-122.615068	-84.849376	-17.656716
10274		8.955204	-4.136176	0.345040	-1.585103	3.157813	-0.596492	-0.256493	-0.185221	0.122796	-0.835205	0.290283	0.299805	0.089574	-0.041302	0.003586	0.258662	-0.690639	-0.219682	-0.638632	-123.356314	-84.731862	-17.060665
10275		9.246872	-2.559405	0.998007	-0.035914	2.359837	-0.459556	0.130810	-0.198124	0.080064	-0.836914	0.289551	0.302246	0.092469	-0.025564	0.010055	0.259140	-0.691207	-0.220094	-0.637682	-124.059514	-84.629604	-16.279102
10276		9.578042	-1.224709	1.759384	1.438760	1.816648	-0.275183	0.358390	-0.163888	0.103305	-0.841797	0.294434	0.304932	0.095772	-0.012229	0.017650	0.260511	-0.691394	-0.221102	-0.636570	-124.356489	-84.526982	-15.775065
10277		9.370953	-1.502469	2.352123	1.703819	2.419443	-0.493462	0.590302	-0.145503	0.153104	-0.828125	0.291260	0.307617	0.093704	-0.015022	0.023545	0.262865	-0.691272	-0.222655	-0.635193	-124.254539	-84.406399	-15.537642
10278		9.094637	-2.835031	2.754366	1.123910	3.703055	-0.682487	0.928927	-0.144430	0.205403	-0.833740	0.293701	0.302002	0.090956	-0.028385	0.027478	0.266547	-0.690747	-0.225091	-0.633368	-123.782407	-84.261745	-15.478090
10279		8.818610	-3.898469	3.354105	0.828457	4.901306	-0.896040	1.446797	-0.142014	0.244422	-0.836670	0.304688	0.306152	0.088210	-0.039118	0.033321	0.272139	-0.689542	-0.229026	-0.630887	-122.899374	-84.098955	-15.532398
10280		8.640610	-4.970653	2.791766	-0.381666	5.313256	-0.936627	1.996290	-0.168737	0.266021	-0.821045	0.309570	0.298340	0.086449	-0.049867	0.027493	0.279635	-0.687644	-0.234631	-0.627613	-121.785971	-83.917764	-15.503007
10281		8.461187	-4.898589	1.156214	-1.631145	4.104132	-1.013871	2.620210	-0.239174	0.272020	-0.831299	0.328857	0.293701	0.084665	-0.049018	0.011021	0.289180	-0.685007	-0.242246	-0.623263	-120.653144	-83.712509	-15.132357
10282		8.809790	-2.624205	-0.881643	-1.514619	0.976924	-0.755794	2.963575	-0.354028	0.228639	-0.826172	0.329590	0.287842	0.088144	-0.026008	-0.009047	0.299564	-0.682042	-0.251188	-0.618049	-119.953249	-83.496328	-14.129194
10283		10.438230	0.466778	-2.652727	-0.307268	-2.533257	0.661031	2.813551	-0.361629	0.155775	-0.822998	0.345703	0.281982	0.104426	0.005120	-0.026269	0.309143	-0.679089	-0.259883	-0.612968	-119.544846	-83.315168	-12.917484
10284		11.251198	3.384453	-4.360128	0.909377	-5.786750	1.266069	2.432635	-0.362347	0.102353	-0.827393	0.356445	0.270752	0.112573	0.034427	-0.042981	0.317203	-0.676537	-0.267536	-0.608361	-119.456502	-83.161244	-11.604247
10285		11.744662	5.735454	-5.014334	2.456603	-7.804677	1.546284	1.484115	-0.362925	0.071076	-0.820801	0.359375	0.274170	0.117516	0.057765	-0.049502	0.321932	-0.675379	-0.272394	-0.605000	-119.959498	-83.021961	-10.240970
10286		10.585249	5.488761	-4.649542	2.473731	-7.307496	0.398724	0.526040	-0.325280	0.123004	-0.817871	0.357910	0.271484	0.105894	0.055074	-0.046179	0.323619	-0.675695	-0.274103	-0.602971	-120.695946	-82.866461	-9.195951
10287		9.453971	3.235956	-2.982247	1.732073	-4.547183	-0.589577	-0.190208	-0.275432	0.233201	-0.808838	0.361328	0.283203	0.094543	0.032442	-0.029723	0.323287	-0.677168	-0.273203	-0.601905	-121.355678	-82.669687	-8.640737
10288		9.503458	0.360039	-1.282147	0.667178	-1.395222	-0.341816	-0.738090	-0.232573	0.308648	-0.807129	0.364990	0.286865	0.095044	0.003700	-0.012724	0.321376	-0.679492	-0.270322	-0.601609	-121.963496	-82.448764	-8.455222
10289		9.901389	-2.011686	-1.057460	-0.891243	0.313162	0.302157	-0.916913	-0.190388	0.283520	-0.810791	0.361328	0.288330	0.099052	-0.020024	-0.010388	0.318839	-0.681929	-0.266919	-0.601721	-122.556151	-82.252162	-8.387266
10290		9.885925	-3.074906	-1.385191	-1.862971	0.786286	0.435054	-0.905472	-0.213584	0.188897	-0.809814	0.364502	0.291504	0.098903	-0.030718	-0.013607	0.316011	-0.684276	-0.263901	-0.601881	-123.418780	-82.094215	-8.041152
10291		9.795247	-2.542034	-1.590630	-1.581758	0.315632	0.303496	-0.705012	-0.265930	0.094082	-0.811279	0.367432	0.303223	0.097985	-0.025430	-0.015686	0.313516	-0.686325	-0.261892	-0.601730	-124.534687	-81.963247	-7.322193
10292		9.794928	-0.368247	-1.080029	0.382737	-0.721465	0.014601	-0.634596	-0.314877	0.051940	-0.806152	0.363525	0.312988	0.097967	-0.003691	-0.010634	0.311062	-0.688346	-0.260309	-0.601381	-125.838015	-81.834195	-6.373747
10293		9.974269	0.987634	0.968509	2.788028	-0.099772	-0.137132	-0.592408	-0.252149	0.090975	-0.803223	0.364258	0.299561	0.099726	0.009951	0.009781	0.308953	-0.690157	-0.258621	-0.601121	-126.792487	-81.705379	-5.752251
10294		9.406672	-1.928345	1.450050	0.939102	2.236283	-0.409305	-0.770521	-0.175260	0.217815	-0.799561	0.354980	0.316406	0.094075	-0.019125	0.014657	0.306701	-0.692165	-0.255835	-0.601158	-127.291115	-81.544481	-5.695189
10295		8.760545	-5.239401	1.145450	-1.709899	4.280324	-0.633067	-0.355835	-0.153772	0.288424	-0.796875	0.358643	0.322510	0.087672	-0.052247	0.011615	0.306126	-0.693556	-0.254018	-0.600618	-127.317543	-81.358324	-5.874584
10296		8.921657	-5.682856	0.318716	-2.535159	3.973114	-0.337473	0.302718	-0.187147	0.221444	-0.800781	0.362793	0.317383	0.089276	-0.056735	0.003185	0.307582	-0.693951	-0.254454	-0.599232	-127.221242	-81.191583	-5.797869
10297		9.381169	-4.092953	-0.280810	-1.714186	2.427495	-0.014409	0.825548	-0.198659	0.125204	-0.793701	0.364258	0.310791	0.093840	-0.040859	-0.002884	0.310553	-0.693445	-0.256812	-0.597276	-127.073728	-81.064364	-5.468388
10298		9.594755	-1.758873	-0.846028	-0.353939	0.418192	-0.036771	1.037107	-0.239180	0.068284	-0.796631	0.367920	0.310303	0.095964	-0.017512	-0.008436	0.314023	-0.692642	-0.260049	-0.594988	-127.041407	-80.949602	-4.900489
10299		9.928560	-0.317562	-1.339292	0.451676	-0.918682	0.158411	1.008458	-0.213582	0.072797	-0.793213	0.367920	0.308105	0.099301	-0.003072	-0.013303	0.317437	-0.691796	-0.263145	-0.592796	-126.938178	-80.841363	-4.419809
10300		9.581192	-0.833120	-1.738386	-0.218829	-0.877960	-0.081472	0.905350	-0.186621	0.097973	-0.799072	0.381348	0.310791	0.095832	-0.008206	-0.017332	0.320592	-0.691049	-0.265792	-0.590785	-126.758972	-80.731383	-4.076883
10301		9.504640	-1.795024	-1.370230	-0.687858	0.019017	-0.067727	0.892197	-0.186730	0.121618	-0.794189	0.382813	0.302490	0.095070	-0.017831	-0.013693	0.323769	-0.690340	-0.268320	-0.588734	-126.537873	-80.610341	-3.782853
10302		9.829455	-2.532365	-1.411727	-1.198341	0.444571	0.355416	0.918650	-0.184291	0.099594	-0.792725	0.380127	0.299561	0.098320	-0.025210	-0.014143	0.326965	-0.689537	-0.270987	-0.586685	-126.337566	-80.500779	-3.453144
10303		10.042059	-2.328520	-1.550251	-1.081663	0.189905	0.553708	0.966719	-0.204842	0.045372	-0.795166	0.393311	0.297852	0.100442	-0.023187	-0.015512	0.330137	-0.688626	-0.274014	-0.584569	-126.274943	-80.409083	-2.954932
10304		9.888339	-0.995475	-1.474401	-0.025227	-0.598590	0.216525	0.950516	-0.219206	0.006807	-0.794189	0.385498	0.294189	0.098900	-0.009882	-0.014683	0.333108	-0.687714	-0.277139	-0.582480	-126.331877	-80.330598	-2.345491
10305		9.596719	0.279120	-1.504434	0.909308	-1.409871	-0.240665	0.802715	-0.213421	-0.008989	-0.790283	0.390137	0.301025	0.095983	0.002847	-0.014931	0.335530	-0.686995	-0.279877	-0.580626	-126.485289	-80.260904	-1.723204
10306		9.671681	0.757212	-1.733861	1.175241	-1.873100	-0.208974	0.488419	-0.219978	0.003932	-0.791992	0.392578	0.302002	0.096736	0.007616	-0.017214	0.336892	-0.686833	-0.281660	-0.579165	-126.803358	-80.182898	-1.117456
10307		9.863431	0.410319	-1.853162	0.886461	-1.741000	0.039871	0.228334	-0.195226	0.019456	-0.787109	0.396484	0.300293	0.098652	0.004134	-0.018431	0.337443	-0.687055	-0.282600	-0.578121	-127.167807	-80.105404	-0.614713
10308		9.737137	-0.695870	-1.871739	0.008051	-1.067161	0.069649	0.045383	-0.150951	0.046242	-0.791992	0.391357	0.310303	0.097387	-0.006932	-0.018645	0.337500	-0.687496	-0.282837	-0.577448	-127.462048	-80.030938	-0.290624
10309		9.711616	-1.909009	-1.569498	-0.745288	-0.077081	0.180395	-0.015537	-0.138214	0.057838	-0.782471	0.395020	0.298584	0.097132	-0.019063	-0.015626	0.337405	-0.688018	-0.282844	-0.576879	-127.731167	-79.955036	-0.026337
10310		9.794565	-2.390793	-1.208345	-0.875747	0.510411	0.290878	0.039805	-0.120701	0.052001	-0.784912	0.394043	0.303955	0.097959	-0.023880	-0.012029	0.337500	-0.688389	-0.282993	-0.576307	-127.931953	-79.888080	0.199589
10311		9.646024	-2.813006	-1.342835	-1.302407	0.666242	0.218357	0.157422	-0.097576	0.020864	-0.786621	0.397705	0.305176	0.096470	-0.028109	-0.013403	0.337951	-0.688448	-0.283556	-0.575695	-128.065957	-79.842886	0.427393
10312		9.660775	-2.541154	-1.282017	-1.046301	0.550569	0.188999	0.254856	-0.101000	-0.020105	-0.788086	0.394043	0.311279	0.096612	-0.025405	-0.012804	0.338607	-0.688295	-0.284540	-0.575006	-128.231860	-79.815114	0.743259
10313		9.677890	-1.800329	-1.311602	-0.480394	0.079208	0.106284	0.286455	-0.081174	-0.056450	-0.787598	0.392822	0.305176	0.096779	-0.018012	-0.013103	0.339301	-0.687978	-0.285712	-0.574396	-128.401156	-79.810282	1.082071
10314		9.691283	-1.352884	-1.074514	0.013754	0.001716	0.031379	0.219188	-0.079224	-0.068313	-0.783447	0.397949	0.298584	0.096912	-0.013550	-0.010722	0.339724	-0.687752	-0.286720	-0.573913	-128.627506	-79.811495	1.438267
10315		9.903728	-1.302196	-0.931175	0.175060	0.094537	0.217618	0.096061	-0.072872	-0.084539	-0.788330	0.395996	0.306885	0.099035	-0.013059	-0.009282	0.339694	-0.687692	-0.287426	-0.573650	-128.941271	-79.821698	1.813023
10316		9.790777	-1.489308	-1.229342	-0.171875	-0.020029	0.165223	0.016373	-0.066731	-0.102382	-0.778564	0.396729	0.304932	0.097904	-0.014942	-0.012262	0.339341	-0.687724	-0.287950	-0.573557	-129.322004	-79.841895	2.208385
10317		9.795645	-1.153517	-1.347967	0.016674	-0.305438	0.137624	0.012709	-0.050039	-0.134894	-0.785400	0.395752	0.294922	0.097952	-0.011600	-0.013456	0.338913	-0.687666	-0.288551	-0.573578	-129.732173	-79.881818	2.632506
10318		9.829733	-0.757705	-1.402537	0.290644	-0.575586	0.124569	-0.093254	0.001121	-0.169474	-0.784668	0.404785	0.297119	0.098291	-0.007667	-0.014022	0.338090	-0.687592	-0.288877	-0.573989	-130.151775	-79.955451	3.003662
10319		9.505625	-1.672341	-2.038420	-0.876483	-0.518781	-0.000888	-0.205067	0.013871	-0.176023	-0.786865	0.395996	0.305176	0.095040	-0.016828	-0.020374	0.336885	-0.687659	-0.288886	-0.574612	-130.624228	-80.035925	3.364150
10320		10.013973	-1.823193	-2.355289	-1.113207	-0.656903	0.554581	-0.246324	0.008274	-0.210264	-0.789551	0.388428	0.315918	0.100119	-0.018366	-0.023534	0.335429	-0.687760	-0.288901	-0.575334	-131.214640	-80.128762	3.819746
10321		10.039335	-1.694251	-2.602666	-1.178031	-0.910972	0.589951	-0.336647	0.046631	-0.235284	-0.793945	0.389893	0.316895	0.100367	-0.017104	-0.026021	0.333648	-0.687864	-0.288679	-0.576356	-131.827567	-80.245846	4.246073
10322		9.534030	-0.719258	-2.063982	-0.204264	-1.066430	-0.091782	-0.415142	0.059165	-0.252673	-0.788818	0.374023	0.308350	0.095325	-0.007356	-0.020653	0.331554	-0.688037	-0.288261	-0.577565	-132.507150	-80.374462	4.692760
10323		9.769542	-0.269376	-1.271888	0.635363	-0.696824	-0.002241	-0.708678	0.080148	-0.249951	-0.794189	0.379639	0.311523	0.097687	-0.002861	-0.012748	0.328494	-0.688631	-0.286956	-0.579255	-133.311806	-80.508980	5.097033
10324		9.661946	-1.107565	-0.927530	0.150393	0.107569	-0.045090	-0.821514	0.120508	-0.217142	-0.793945	0.380127	0.315674	0.096602	-0.011219	-0.009288	0.325186	-0.689330	-0.285134	-0.581185	-134.019210	-80.645140	5.335888
10325		9.414985	-1.456515	-0.629776	0.003327	0.571623	-0.282043	-0.744657	0.094307	-0.220834	-0.798096	0.375488	0.319336	0.094131	-0.014693	-0.006288	0.322096	-0.689962	-0.283592	-0.582908	-134.770538	-80.771629	5.664925
10326		9.655164	-1.442406	-0.397922	0.177844	0.764892	-0.073882	-0.699825	0.075969	-0.243337	-0.795410	0.365234	0.319580	0.096532	-0.014555	-0.003965	0.319059	-0.690534	-0.282279	-0.584536	-135.614595	-80.899158	6.112799
10327		9.742225	-1.245168	-0.282355	0.395572	0.749627	-0.023784	-0.647646	0.050164	-0.261446	-0.790039	0.362061	0.317139	0.097405	-0.012588	-0.002807	0.316114	-0.691063	-0.281223	-0.586018	-136.558515	-81.021942	6.692897
10328		9.703466	-0.799363	0.015386	0.897445	0.710644	-0.143872	-0.648588	0.030989	-0.269963	-0.803955	0.372070	0.334961	0.097024	-0.008124	0.000165	0.313104	-0.691630	-0.280215	-0.587446	-137.594886	-81.138604	7.364779
10329		9.679012	-0.865974	-0.066903	0.773447	0.711432	-0.151774	-0.797067	0.007268	-0.274233	-0.803711	0.357666	0.325439	0.096778	-0.008795	-0.000638	0.309536	-0.692482	-0.278824	-0.588993	-138.809503	-81.244501	8.131804
10330		9.699982	-1.157260	-0.146469	0.492035	0.866915	-0.093807	-0.891400	-0.017325	-0.267166	-0.799072	0.345459	0.329346	0.096984	-0.011709	-0.001404	0.305616	-0.693549	-0.277158	-0.590569	-140.141689	-81.334647	8.961814
10331		9.521187	-1.413768	-0.013887	0.350007	1.161045	-0.263797	-0.935600	-0.053845	-0.275336	-0.808350	0.343018	0.332275	0.095192	-0.014269	-0.000047	0.301467	-0.694764	-0.275444	-0.592074	-141.632369	-81.408157	9.927411
10332		9.587494	-1.216786	0.241617	0.666168	1.253645	-0.250079	-0.913378	-0.087680	-0.289201	-0.807129	0.337158	0.337646	0.095856	-0.012295	0.002514	0.297294	-0.696010	-0.273883	-0.593443	-143.250932	-81.467464	11.033854
10333		9.477920	-0.960188	0.395174	0.935067	1.222746	-0.403142	-0.882642	-0.117616	-0.287361	-0.801025	0.333252	0.343750	0.094763	-0.009720	0.004050	0.293192	-0.697286	-0.272451	-0.594644	-144.930868	-81.507209	12.221201
10334		9.408480	-0.389731	0.748608	1.573855	1.121614	-0.566245	-0.776986	-0.170043	-0.283095	-0.802490	0.328125	0.343262	0.094073	-0.004001	0.007581	0.289387	-0.698555	-0.271383	-0.595506	-146.660251	-81.515799	13.518404
10335		9.401476	0.124463	1.046411	2.145580	1.012961	-0.654709	-0.698496	-0.218588	-0.251476	-0.796387	0.318115	0.353027	0.094005	0.001163	0.010563	0.285887	-0.699886	-0.270511	-0.596030	-148.342225	-81.485175	14.814451
10336		9.338896	0.286756	1.436017	2.523612	1.205640	-0.782898	-0.640427	-0.285121	-0.206503	-0.806152	0.326416	0.357178	0.093371	0.002817	0.014484	0.282622	-0.701384	-0.269737	-0.596177	-149.958465	-81.403531	16.076465
10337		9.476896	-0.067944	1.521261	2.361888	1.546263	-0.638765	-0.564370	-0.357837	-0.158395	-0.796875	0.313721	0.360107	0.094741	-0.000711	0.015384	0.279673	-0.703046	-0.269130	-0.595885	-151.476323	-81.266528	17.284800
10338		9.220301	-0.593317	1.120108	1.696686	1.648162	-0.811284	-0.412443	-0.452261	-0.123816	-0.791016	0.311523	0.361084	0.092174	-0.005967	0.011422	0.277225	-0.704815	-0.268974	-0.595008	-152.910041	-81.068352	18.495283
10339		9.110267	0.069766	0.998420	2.094067	1.130551	-0.961971	-0.200076	-0.571607	-0.108207	-0.797852	0.319824	0.373047	0.091074	0.000659	0.010244	0.275415	-0.706660	-0.269566	-0.593391	-154.300627	-80.799846	19.787419
10340		9.131633	1.290507	1.152316	3.101921	0.426432	-1.061922	-0.290605	-0.706600	-0.067071	-0.790527	0.310547	0.378906	0.091279	0.012891	0.011827	0.273215	-0.709076	-0.269918	-0.591362	-155.727527	-80.447047	21.063609
10341		9.656821	2.503557	1.488351	4.316027	-0.115404	-0.697021	-0.434440	-0.817639	-0.012140	-0.795654	0.304199	0.390625	0.096508	0.025063	0.015224	0.270519	-0.712078	-0.269805	-0.589041	-157.115560	-80.017643	22.219520
10342		9.834594	2.736093	1.959526	4.888683	0.100100	-0.640147	-0.633951	-0.861832	0.098287	-0.791504	0.302246	0.397705	0.098247	0.027472	0.019932	0.267362	-0.715611	-0.268754	-0.586676	-158.242696	-79.537459	22.993955
10343		9.733790	0.826681	0.939894	2.898086	0.776223	-0.468634	-0.953874	-0.964064	0.216075	-0.778564	0.308350	0.410645	0.097282	0.008418	0.009828	0.263268	-0.720003	-0.266480	-0.584186	-159.248115	-78.974886	23.461070
10344		10.091918	-0.003779	0.240629	1.984066	0.964182	0.038075	-0.772759	-1.077112	0.263302	-0.775879	0.301514	0.420166	0.100904	0.000106	0.002950	0.259791	-0.724515	-0.264690	-0.580970	-160.066686	-78.341910	23.842464
10345		11.221810	0.631665	-0.323009	2.333474	0.270533	1.183344	-0.573085	-1.150034	0.265139	-0.769775	0.300781	0.430664	0.112226	0.006457	-0.002603	0.256945	-0.728950	-0.263567	-0.577185	-160.770761	-77.667222	24.226611
10346		12.869097	2.100607	-0.400675	3.715980	-0.640894	2.675936	-0.610109	-1.202686	0.299960	-0.765869	0.301514	0.439209	0.128681	0.021188	-0.003297	0.253972	-0.733596	-0.262254	-0.573199	-161.400404	-76.957807	24.511635
10347		15.319179	4.824234	0.666373	6.952947	-1.632216	4.588163	-0.758380	-1.230356	0.435750	-0.752441	0.307617	0.453613	0.153042	0.048603	0.007422	0.250806	-0.738651	-0.260052	-0.569091	-161.783693	-76.207094	24.459010
10348		15.088746	6.490378	2.530714	9.496758	-1.629972	3.728043	-1.143415	-1.322880	0.658147	-0.743652	0.301270	0.467529	0.150502	0.065547	0.025930	0.246701	-0.744684	-0.256019	-0.564835	-161.964214	-75.367823	23.967536
10349		12.690752	5.328546	3.370285	8.934717	-0.481148	1.175634	-1.002504	-1.405586	0.811036	-0.733398	0.303955	0.475098	0.126450	0.053970	0.034323	0.243436	-0.750909	-0.251905	-0.559838	-161.835910	-74.454939	23.239808
10350		10.635574	2.905879	4.168230	7.583633	1.618804	-0.935860	-0.910100	-1.502453	0.902219	-0.722900	0.295654	0.491455	0.105906	0.029729	0.042345	0.240614	-0.757332	-0.247789	-0.554214	-161.598367	-73.474179	22.447774
10351		10.722967	-1.991994	2.198634	3.220915	4.099712	0.015763	-0.562997	-1.549058	0.922646	-0.707520	0.309814	0.505615	0.107145	-0.019362	0.022871	0.239097	-0.763426	-0.244602	-0.547890	-161.215865	-72.461391	21.710426
10352		11.020726	-5.846615	-0.263061	-0.720843	5.553532	1.338271	0.393649	-1.638890	0.944471	-0.699951	0.312500	0.521240	0.110499	-0.057941	-0.001840	0.241142	-0.768574	-0.244021	-0.539998	-160.378915	-71.395764	21.064210
10353		10.981803	-6.445798	-2.360294	-2.415049	4.678347	2.019335	1.405450	-1.749709	0.907068	-0.682861	0.317871	0.514648	0.110312	-0.063795	-0.023089	0.246828	-0.772668	-0.246436	-0.530405	-159.173785	-70.272470	20.640978
10354		11.405860	-5.185732	-4.282631	-2.605126	2.511337	2.924196	1.611665	-1.778563	0.850904	-0.667480	0.336426	0.532227	0.114654	-0.051028	-0.042222	0.253070	-0.776392	-0.249592	-0.520456	-158.034841	-69.145046	20.407799
10355		12.256749	-3.960524	-5.130311	-1.856369	1.130063	3.880552	1.241775	-1.716101	0.855797	-0.654053	0.350586	0.525635	0.123170	-0.038764	-0.050490	0.257948	-0.780317	-0.251671	-0.511106	-157.129324	-68.046262	20.199476
10356		13.132243	-2.550279	-3.556533	0.667391	1.256925	3.956090	0.517408	-1.453252	0.736053	-0.639160	0.363770	0.539063	0.131669	-0.024928	-0.034674	0.259984	-0.784271	-0.251982	-0.503817	-156.689843	-67.114152	20.041670
10357		12.432116	1.369760	-2.605842	3.786451	-1.052124	2.343726	-0.097539	-1.041748	0.410574	-0.634033	0.355713	0.552734	0.124426	0.013940	-0.025417	0.259307	-0.787540	-0.251492	-0.499292	-156.796690	-66.470073	20.097169
10358		9.410325	5.565397	-2.383554	5.597173	-4.389238	-1.174670	-1.205263	-0.528976	0.013002	-0.630615	0.362549	0.561279	0.094163	0.055516	-0.023921	0.253896	-0.790433	-0.249106	-0.498698	-157.744288	-66.186963	20.374398
10359		7.278529	4.712231	-1.673009	4.652701	-3.603012	-3.228552	-1.986863	0.066971	-0.008751	-0.629883	0.340576	0.571533	0.072782	0.046950	-0.017221	0.246081	-0.792751	-0.244104	-0.501402	-158.866110	-66.221592	20.356344
10360		8.382058	2.279417	-2.359318	2.968894	-2.067684	-1.570700	-2.338463	0.542667	0.072759	-0.630615	0.326172	0.564941	0.083747	0.022545	-0.024085	0.237608	-0.794309	-0.237260	-0.506284	-159.872776	-66.497275	19.988707
10361		8.714440	0.117263	-2.536258	1.528306	-0.472493	-0.878049	-2.643956	0.986420	0.006256	-0.637939	0.309570	0.575439	0.087018	0.000836	-0.025805	0.228259	-0.794895	-0.229361	-0.513257	-160.943382	-67.025560	19.505255
10362		8.703811	-1.991132	-2.723616	0.013636	1.091254	-0.541938	-2.757161	1.418282	-0.158142	-0.642334	0.293945	0.574219	0.086827	-0.020359	-0.027574	0.218461	-0.794135	-0.221258	-0.522178	-162.117237	-67.824389	19.061391
10363		8.173492	-3.610229	-2.969586	-1.418127	2.221462	-0.773298	-2.329611	1.836622	-0.403370	-0.659912	0.267578	0.567383	0.081387	-0.036615	-0.030020	0.210154	-0.791363	-0.214761	-0.532407	-163.223098	-68.894708	18.815145
10364		7.787542	-3.631990	-2.846218	-1.621225	2.283285	-1.204914	-1.435959	2.212123	-0.686074	-0.657959	0.264160	0.555420	0.077431	-0.036793	-0.029057	0.204966	-0.786185	-0.211293	-0.543376	-164.108524	-70.220820	18.877127
10365		7.869508	-2.959862	-2.694187	-1.301277	1.804175	-1.268916	-0.697479	2.558998	-0.915039	-0.676514	0.254150	0.546875	0.078206	-0.030053	-0.027840	0.202410	-0.778918	-0.210366	-0.555034	-164.840952	-71.770754	19.229105
10366		8.438319	-2.537603	-3.189777	-1.533248	1.188839	-0.644898	0.010806	2.873706	-1.083390	-0.694824	0.234375	0.524170	0.083774	-0.025829	-0.033106	0.202409	-0.769713	-0.211667	-0.567247	-165.409560	-73.520645	19.826549
10367		8.734467	-1.891950	-3.659475	-1.756198	0.341213	-0.323083	0.568978	3.107754	-1.267308	-0.709717	0.240479	0.497314	0.086640	-0.019363	-0.037999	0.204253	-0.758886	-0.214995	-0.579784	-166.042793	-75.422240	20.822066
10368		8.758516	-0.852962	-3.710582	-1.518051	-0.639486	-0.406059	0.977371	3.275910	-1.476121	-0.725830	0.222412	0.469238	0.086896	-0.008987	-0.038576	0.207130	-0.746687	-0.220030	-0.592573	-167.094819	-77.443543	22.475230
10369		8.541464	0.175719	-2.677314	-0.459338	-0.997805	-0.927825	0.826796	3.277776	-1.566776	-0.740234	0.219238	0.452637	0.084972	0.001205	-0.028162	0.209133	-0.734283	-0.224910	-0.605399	-169.027251	-79.463889	24.930784
10370		8.536862	-0.314897	-3.054856	-1.349252	-0.894785	-0.886334	0.537422	3.233267	-1.534992	-0.759766	0.211426	0.427002	0.084833	-0.003717	-0.031932	0.210019	-0.722103	-0.228738	-0.618173	-172.083718	-81.435257	28.336816
10371		8.616022	-0.144858	-2.368468	-0.988965	-0.694642	-0.958405	0.404390	3.079555	-1.502587	-0.781250	0.198486	0.399902	0.085768	-0.002044	-0.025011	0.210314	-0.710351	-0.232158	-0.630295	-176.997435	-83.272101	33.527735
10372		9.027262	-0.193576	-2.433623	-1.324158	-0.731025	-0.584697	0.204722	2.983387	-1.457206	-0.787354	0.195801	0.374512	0.089879	-0.002566	-0.025681	0.209840	-0.698960	-0.234796	-0.642101	174.646195	-84.966910	42.040195
10373		9.546657	-0.833653	-2.730462	-2.211527	-0.426103	-0.106604	0.045728	2.895841	-1.424552	-0.805420	0.177734	0.351807	0.094995	-0.009008	-0.028684	0.208786	-0.687870	-0.236865	-0.653558	159.081813	-86.406910	57.673339
10374		9.757145	-1.020035	-3.332602	-3.104443	-0.685341	0.047960	0.042019	2.828947	-1.436722	-0.818115	0.173340	0.336182	0.097010	-0.010891	-0.034703	0.207519	-0.676809	-0.238950	-0.664657	129.546421	-87.269228	87.270776
10375		9.703981	0.140293	-3.046091	-2.480267	-1.497349	-0.062621	-0.059888	2.715191	-1.450984	-0.824951	0.157715	0.312256	0.096621	0.000692	-0.031775	0.205701	-0.666052	-0.240828	-0.675324	93.626121	-87.055897	123.197969
10376		9.718866	1.077147	-2.914244	-2.106989	-2.207990	-0.076812	-0.427610	2.573702	-1.394183	-0.835205	0.142090	0.300293	0.096874	0.010031	-0.030412	0.202605	-0.656067	-0.241344	-0.685770	70.827791	-86.043712	145.786008
10377		9.459655	1.239840	-2.718560	-2.120889	-2.262331	-0.389855	-0.902960	2.411561	-1.293579	-0.839355	0.135498	0.278320	0.094336	0.011661	-0.028378	0.198084	-0.647103	-0.240036	-0.695991	58.700162	-84.778246	157.432671
10378		8.843921	0.789830	-2.335626	-2.282610	-1.714995	-1.087024	-1.322520	2.227863	-1.148577	-0.852539	0.119385	0.263184	0.088214	0.007232	-0.024389	0.192418	-0.639234	-0.236909	-0.705853	51.439104	-83.505326	163.965137
10379		8.072756	-0.102516	-2.015435	-2.666307	-0.835834	-1.974911	-1.555756	2.015391	-0.990032	-0.857422	0.105469	0.244385	0.080512	-0.001585	-0.020956	0.186308	-0.632406	-0.232634	-0.715006	46.557401	-82.320444	167.985948
10380		7.511537	-0.910923	-1.914431	-3.130183	-0.125609	-2.664112	-1.530400	1.778677	-0.850779	-0.854736	0.100830	0.232666	0.074902	-0.009578	-0.019739	0.180439	-0.626452	-0.228170	-0.723145	43.116661	-81.254014	170.572114
10381		7.538137	-1.613367	-1.887685	-3.625476	0.485754	-2.769367	-1.385532	1.543434	-0.729766	-0.865479	0.081787	0.236084	0.075173	-0.016541	-0.019344	0.175197	-0.621271	-0.224051	-0.730157	40.622684	-80.318245	172.294429
10382		7.940078	-2.561577	-2.250438	-4.608838	1.099665	-2.586411	-0.596061	1.396011	-0.605346	-0.861084	0.080566	0.212402	0.079163	-0.025924	-0.022981	0.172650	-0.616017	-0.222515	-0.735664	38.921106	-79.482177	173.671500
10383		7.395256	-3.487680	-1.984197	-4.867321	2.002127	-3.248335	-0.065253	1.108199	-0.382914	-0.868896	0.077148	0.210693	0.073774	-0.035025	-0.020240	0.172257	-0.611581	-0.222505	-0.739451	37.740799	-78.850107	174.835187
10384		7.008994	-4.967549	-2.409609	-5.979471	3.000069	-3.908954	-0.260497	0.712193	-0.166008	-0.862061	0.073975	0.200928	0.069962	-0.049765	-0.024281	0.171596	-0.609004	-0.221424	-0.742051	36.751307	-78.468738	175.687969
10385		7.553369	-4.549876	-3.094975	-6.473897	2.269772	-3.466813	0.500376	0.430877	-0.187852	-0.865723	0.072266	0.190674	0.075424	-0.045492	-0.031226	0.172886	-0.606786	-0.223493	-0.742949	36.754246	-78.208727	175.977751
10386		8.944345	-1.077605	-2.198091	-4.219233	-0.170057	-1.556589	1.479036	0.279741	-0.318690	-0.861572	0.074219	0.192139	0.089395	-0.010755	-0.022186	0.176456	-0.604117	-0.229694	-0.742392	37.842327	-77.971973	175.727641
10387		9.768683	2.195181	-0.751785	-1.460109	-2.080438	-0.099244	1.522632	0.220756	-0.316520	-0.860107	0.073486	0.195313	0.097713	0.021854	-0.007459	0.180115	-0.601593	-0.236111	-0.741550	39.023694	-77.762274	175.411667
10388		9.550972	3.628202	-0.900451	-0.736880	-3.325272	-0.138225	1.091574	0.120630	-0.189919	-0.863281	0.072754	0.183105	0.095539	0.036240	-0.008864	0.182793	-0.599954	-0.240606	-0.740777	39.846039	-77.641207	175.205882
10389		8.482814	2.895489	-0.825963	-0.842682	-2.687301	-1.263274	0.584665	-0.003113	-0.008778	-0.856689	0.081299	0.185791	0.084830	0.028975	-0.008174	0.184496	-0.599438	-0.242811	-0.740052	40.217721	-77.641361	175.168364
10390		7.671123	1.050802	-0.321210	-1.291168	-0.905112	-2.225387	0.128771	-0.136764	0.156625	-0.858643	0.074707	0.189453	0.076705	0.010570	-0.003153	0.185257	-0.600040	-0.242937	-0.739334	40.222739	-77.760573	175.235104
10391		7.878122	0.144584	-0.668422	-2.101633	-0.369301	-2.198281	0.104436	-0.268797	0.239044	-0.866699	0.079834	0.190186	0.078788	0.001543	-0.006578	0.186113	-0.601246	-0.242865	-0.738161	40.273356	-77.968624	175.244582
10392		9.069777	-1.475234	-1.000414	-3.501623	0.773857	-1.293434	0.026665	-0.318061	0.210918	-0.863770	0.073486	0.191895	0.090729	-0.014655	-0.009862	0.186545	-0.602676	-0.242617	-0.736967	40.425617	-78.187258	175.100618
10393		9.946314	-3.172792	-2.314127	-5.665984	1.400660	-0.852459	0.468080	-0.270457	0.074845	-0.854492	0.086914	0.188477	0.099506	-0.031637	-0.023081	0.187888	-0.603345	-0.244378	-0.735495	41.038781	-78.334651	174.748321
10394		9.878266	-2.492321	-2.966128	-5.770050	0.444313	-0.918942	1.549803	-0.219578	-0.118125	-0.857666	0.077393	0.188232	0.098801	-0.024751	-0.029745	0.191817	-0.602560	-0.250624	-0.733018	42.593491	-78.384983	174.063760
10395		9.490239	-0.031026	-2.387739	-3.782470	-1.213982	-0.869201	2.129082	-0.193888	-0.202855	-0.860107	0.082275	0.196777	0.094925	-0.000153	-0.023788	0.197219	-0.600960	-0.259221	-0.729901	44.611021	-78.387103	173.249478
10396		9.568033	2.498666	-0.321262	-0.644880	-1.916375	-0.127383	1.882930	-0.136530	-0.188119	-0.859863	0.085449	0.187256	0.095706	0.024925	-0.002912	0.201964	-0.599360	-0.266771	-0.727194	46.344212	-78.366850	172.577336
10397		14.346482	8.988905	6.577985	7.654155	-2.361024	6.488476	1.825284	0.427271	-0.307117	-0.864990	0.083008	0.188721	0.143743	0.089065	0.066288	0.206864	-0.595547	-0.273897	-0.726300	47.129099	-78.072590	172.843922
10398		19.568578	20.881746	4.549502	12.446217	-12.436126	13.211290	0.848004	0.556184	-0.700708	-0.856934	0.079102	0.181885	0.196542	0.207936	0.045832	0.207563	-0.591707	-0.278476	-0.727497	47.800065	-77.562753	172.650868
10399		13.412494	7.559796	3.425790	4.371491	-3.226178	4.994673	-2.291558	0.571458	-0.401489	-0.869873	0.079834	0.180176	0.134372	0.075711	0.033007	0.200089	-0.591425	-0.270727	-0.732726	46.134212	-77.172816	173.012547
10400		3.630323	-1.002846	0.972791	-0.672164	1.482768	-6.279866	-1.453374	0.393039	0.123875	-0.859619	0.068604	0.176025	0.036329	-0.009935	0.009729	0.196731	-0.591614	-0.264634	-0.735703	44.399455	-77.065781	173.934645
10401		5.338371	3.598636	1.641960	2.239085	-1.675839	-3.785876	-0.534416	-0.181565	0.055232	-0.867676	0.068115	0.175293	0.053359	0.036045	0.016372	0.195098	-0.592898	-0.262694	-0.735799	44.326253	-77.164070	173.695676
10402		9.609597	4.387496	4.604734	4.043530	-0.413101	0.970474	-1.621781	-0.067253	-0.117924	-0.858643	0.072266	0.175293	0.096107	0.044190	0.045722	0.189720	-0.594578	-0.257131	-0.737812	43.743566	-77.145867	173.336840
10403		13.965821	4.006121	4.318944	2.629863	-0.267372	5.112387	-2.300896	-0.218711	-0.094672	-0.864502	0.060059	0.182861	0.139630	0.040490	0.042878	0.182223	-0.597426	-0.249126	-0.740144	42.990232	-77.201562	172.757445
10404		13.928219	2.068562	4.117412	1.414749	1.072171	4.750099	-2.231215	-0.251294	0.290897	-0.854492	0.062012	0.191406	0.139200	0.021347	0.041113	0.176270	-0.600735	-0.240212	-0.741852	41.610463	-77.421194	172.858188
10405		10.243447	-1.110827	2.292112	-0.923530	2.469333	0.408089	-1.973854	-0.382821	0.530388	-0.860352	0.055908	0.194580	0.102419	-0.010608	0.023224	0.171825	-0.604520	-0.231633	-0.742548	40.100523	-77.787861	173.246277
10406		7.791993	-1.806615	2.384047	-0.621973	3.006822	-2.051598	-0.964467	-0.335854	0.335291	-0.859375	0.059570	0.201904	0.077910	-0.017820	0.024058	0.169721	-0.606998	-0.227319	-0.742344	39.449247	-78.059758	173.343501
10407		7.318078	-0.667574	3.867320	1.344191	2.837038	-2.125010	-0.078338	-0.281710	0.162120	-0.855469	0.062988	0.200195	0.073132	-0.006601	0.038779	0.169751	-0.608314	-0.226786	-0.741422	39.566640	-78.245436	173.177737
10408		8.441169	0.003673	3.153280	0.911233	1.917126	-1.055364	0.195852	-0.342676	0.169741	-0.857178	0.072266	0.207275	0.084357	0.000077	0.031677	0.170545	-0.609632	-0.227279	-0.740005	39.941032	-78.459675	172.906177
10409		9.656405	0.906208	0.593274	-0.922187	-0.194352	-0.141549	0.239819	-0.469993	0.234114	-0.852539	0.069336	0.201416	0.096539	0.009168	0.006171	0.171594	-0.611451	-0.227864	-0.738080	40.447532	-78.753958	172.529711
10410		9.420229	0.600891	-1.953567	-3.075079	-1.330363	-0.774341	0.181315	-0.694734	0.409184	-0.855469	0.069824	0.216309	0.094257	0.006219	-0.019203	0.172826	-0.614342	-0.227871	-0.735384	40.988677	-79.209665	172.080755
10411		8.847438	-1.539456	-5.831252	-7.231077	-1.681519	-2.096888	0.197034	-0.865699	0.564788	-0.849609	0.075684	0.225830	0.088769	-0.015087	-0.057944	0.174506	-0.618010	-0.227616	-0.731985	41.571912	-79.797866	171.602459
10412		8.837685	-1.122484	-5.271208	-6.451305	-1.736993	-1.906209	0.676287	-1.009753	0.511049	-0.837402	0.086914	0.225830	0.088670	-0.010821	-0.052302	0.177271	-0.621709	-0.229381	-0.727625	42.968240	-80.424197	170.574543
10413		8.562253	0.336100	-5.057983	-5.332552	-2.853023	-1.911356	0.745992	-1.079160	0.417964	-0.836914	0.092041	0.233154	0.085886	0.003728	-0.050103	0.179856	-0.625458	-0.231758	-0.723009	44.990047	-81.037290	168.959139
10414		8.301972	2.432960	-3.581027	-2.819695	-3.765565	-1.717345	0.364394	-1.065600	0.454303	-0.840088	0.093994	0.247070	0.083153	0.024583	-0.035323	0.181386	-0.629516	-0.232620	-0.718816	46.913279	-81.650390	167.224971
10415		8.929291	1.288189	-1.073593	-1.384654	-1.381980	-0.940463	-1.019252	-1.036712	0.737813	-0.837402	0.093750	0.259033	0.089299	0.013158	-0.010340	0.179604	-0.635023	-0.227579	-0.716028	47.407532	-82.365910	166.136213
10416		11.059299	-1.647078	0.977780	-1.431014	2.249181	1.089964	-1.620640	-0.920739	0.948029	-0.837402	0.094727	0.260254	0.110622	-0.015864	0.010417	0.176755	-0.640846	-0.219576	-0.714046	46.632075	-83.124270	165.978250
10417		13.895332	-0.791754	9.743163	6.164684	6.279757	4.719904	-0.390609	-0.074693	0.671583	-0.831055	0.106689	0.259521	0.138942	-0.007261	0.097498	0.177805	-0.642210	-0.216105	-0.713618	44.407217	-83.430570	167.993191
10418		16.200379	3.440888	6.879750	5.739125	1.182400	7.136834	0.794903	0.663958	-0.057996	-0.837402	0.109375	0.252686	0.162241	0.034089	0.068395	0.180829	-0.639088	-0.218529	-0.714921	42.867275	-83.133756	169.999005
10419		11.779957	1.506110	4.120783	2.824610	1.219442	2.375447	0.443466	0.600048	-0.164185	-0.832520	0.106934	0.245117	0.117935	0.014873	0.040887	0.182300	-0.636378	-0.220106	-0.716480	41.831169	-82.818176	171.298993
10420		3.297115	-1.432906	0.407715	-0.854136	1.478353	-6.622813	0.875792	0.328810	0.084756	-0.831787	0.110840	0.249756	0.032984	-0.014333	0.003960	0.185716	-0.634511	-0.222668	-0.716467	41.089390	-82.710533	172.549464
10421		5.807034	5.059174	2.622433	4.237905	-2.620069	-3.380834	1.319634	-0.293500	-0.017555	-0.845703	0.113037	0.241943	0.058036	0.050412	0.026643	0.189495	-0.634323	-0.227730	-0.714048	42.815167	-82.830796	171.572056
10422		13.064918	11.753918	7.842807	11.413489	-4.989474	4.856780	0.268180	-0.260785	0.006142	-0.830322	0.109375	0.243652	0.130543	0.117438	0.078756	0.190034	-0.635029	-0.228911	-0.712899	43.796409	-82.943134	170.734768
10423		17.137507	7.259365	3.638635	5.001159	-3.654518	8.111104	-2.278808	-0.611939	0.467850	-0.832520	0.108887	0.262451	0.171093	0.073406	0.036077	0.183739	-0.639884	-0.219880	-0.713051	42.898496	-83.383941	170.324139
10424		13.311028	-3.696138	-1.762131	-4.881714	2.372135	3.012585	-1.896345	-0.767430	1.247374	-0.826416	0.112793	0.266357	0.133403	-0.036292	-0.016764	0.181221	-0.645708	-0.209814	-0.711476	39.569907	-84.186622	172.575871
10425		6.302154	-7.176509	-0.928588	-5.194014	5.635032	-4.037788	0.679355	-0.872092	0.962816	-0.827637	0.125244	0.272461	0.063406	-0.071429	-0.009253	0.185908	-0.649207	-0.209918	-0.707038	38.817946	-84.924592	173.722270
10426		6.751717	-2.881940	2.684758	0.098885	3.956244	-3.071969	2.612158	-0.889266	0.282670	-0.822021	0.136719	0.274902	0.067439	-0.029074	0.026769	0.194397	-0.650179	-0.219036	-0.701071	42.846672	-85.417246	171.177705
10427		11.352173	-0.112327	2.066397	0.793572	1.429850	1.610052	2.717981	-1.072043	0.341037	-0.824951	0.141113	0.278076	0.113411	-0.001216	0.021256	0.203220	-0.651618	-0.228485	-0.694183	48.476705	-85.988346	167.093598
10428		12.047677	-2.182547	-1.809047	-3.479000	0.889062	2.031572	2.413102	-1.282014	0.687562	-0.812256	0.161621	0.287842	0.120664	-0.021197	-0.017576	0.211947	-0.654358	-0.235895	-0.686475	55.179864	-86.753340	161.759026
10429		7.300486	-6.180857	-5.881989	-8.746458	1.436383	-2.918624	2.336932	-1.542399	1.080345	-0.814209	0.173096	0.299072	0.073789	-0.060723	-0.058967	0.221444	-0.658395	-0.242002	-0.677432	66.332136	-87.729548	151.934825
10430		4.121688	-6.409286	-7.685206	-10.104208	0.207754	-5.942186	2.918343	-1.763476	1.103060	-0.798096	0.194336	0.310303	0.042246	-0.062735	-0.077405	0.232582	-0.662389	-0.250163	-0.666757	96.006614	-88.532117	123.915363
10431		5.335205	-3.087911	-7.927427	-8.039321	-2.712154	-4.441719	3.067464	-1.956982	0.918014	-0.798584	0.211914	0.306641	0.054265	-0.029416	-0.079205	0.243299	-0.666395	-0.259593	-0.655236	145.237350	-88.399750	76.427157
10432		6.491974	2.236880	-7.505166	-3.942772	-6.498937	-3.053408	2.466951	-1.786185	0.358292	-0.791016	0.210205	0.320801	0.065544	0.023404	-0.074184	0.250313	-0.669658	-0.268618	-0.645558	164.312646	-87.547557	58.751704
10433		7.339358	7.555151	-3.309635	2.987987	-7.453939	-2.235908	1.077163	-1.476201	-0.004292	-0.785400	0.222656	0.325195	0.073635	0.075725	-0.032146	0.251898	-0.673058	-0.273960	-0.639129	168.806147	-86.720239	54.870676
10434		5.279533	5.613263	-0.391029	3.775727	-4.096016	-4.474013	-1.283912	-1.206717	0.688450	-0.772949	0.219482	0.346924	0.052626	0.056289	-0.003953	0.248078	-0.679471	-0.269045	-0.635918	175.754597	-86.082529	47.168343
10435		4.413499	0.841281	-0.998408	0.061732	-1.071438	-5.337009	-2.207937	-0.910233	0.851438	-0.782959	0.228027	0.351807	0.044144	0.008491	-0.009877	0.242026	-0.686211	-0.260254	-0.634669	-178.656076	-85.569087	40.295869
10436		6.475388	-2.334837	-0.229913	-1.306714	1.919485	-3.328657	-1.424728	-0.323909	0.675508	-0.772949	0.221191	0.352783	0.064836	-0.023145	-0.002029	0.238816	-0.689846	-0.253797	-0.634560	-174.758887	-85.357515	35.564282
10437		10.473663	-5.091708	7.879152	3.325912	9.444103	0.059013	-0.589585	0.521908	0.342349	-0.777100	0.227539	0.356201	0.105029	-0.050505	0.078667	0.238516	-0.689339	-0.250134	-0.636675	-172.211230	-85.629084	32.669923
10438		19.943881	-1.247485	7.097391	5.703597	6.338133	9.603181	2.559818	1.182999	0.116166	-0.782471	0.231201	0.341309	0.199861	-0.013256	0.069626	0.249131	-0.682622	-0.256444	-0.637337	-168.215054	-86.282449	30.131058
10439		24.058237	5.927306	3.827483	8.138144	-0.997878	13.880225	2.558244	0.256502	-0.127783	-0.774414	0.237793	0.331299	0.240669	0.058626	0.038719	0.257750	-0.678414	-0.264705	-0.635020	-167.413913	-86.438350	30.797069
10440		16.010351	14.418463	4.746184	14.214038	-6.588324	5.721100	1.472519	0.055484	-0.570059	-0.783447	0.234131	0.326904	0.160526	0.143373	0.048475	0.260967	-0.675587	-0.271232	-0.633965	-171.737775	-86.525819	35.971160
10441		5.480279	9.926907	3.931881	9.988443	-4.196189	-4.649410	-0.372641	0.133749	-0.229561	-0.787842	0.242920	0.316895	0.054943	0.099279	0.039097	0.259147	-0.675353	-0.270665	-0.635202	-173.994396	-86.614861	38.017980
10442		5.980508	3.184845	1.704571	3.717728	-0.917746	-3.968780	-1.050164	-0.020937	0.445404	-0.782959	0.240967	0.329590	0.059732	0.032070	0.016884	0.256948	-0.677390	-0.265851	-0.635958	-170.422607	-86.565672	33.834207
10443		4.990191	-8.479888	-0.707967	-6.018468	5.867917	-4.649903	-1.504083	-0.121504	1.398654	-0.775146	0.240967	0.337646	0.050498	-0.084497	-0.006413	0.256112	-0.681549	-0.256488	-0.635697	-159.206140	-86.283895	21.732650
10444		8.845655	-16.461473	-4.143368	-13.646856	9.416784	-0.248655	1.499106	-0.266773	1.186236	-0.773682	0.259277	0.325439	0.089486	-0.163770	-0.042544	0.264601	-0.681986	-0.257539	-0.631312	-150.385595	-85.853334	13.749067
10445		11.716298	-5.447336	0.768114	-2.418026	4.648832	2.022627	3.355972	-0.278803	-0.033276	-0.769775	0.269531	0.316895	0.117144	-0.054613	0.006929	0.275529	-0.678304	-0.268592	-0.625976	-149.804092	-85.721839	15.094070
10446		11.075043	1.272466	1.124564	2.488814	0.155979	1.110745	2.346879	-0.225419	-0.240821	-0.775146	0.276123	0.314941	0.110753	0.012457	0.011518	0.282383	-0.675425	-0.277045	-0.622340	-150.939257	-85.675876	17.578149
10447		9.469242	3.819691	-0.984170	2.796688	-3.097482	-0.442042	1.380931	-0.087065	-0.251418	-0.772461	0.278564	0.311035	0.094745	0.038144	-0.009537	0.286123	-0.673398	-0.282322	-0.620454	-152.176577	-85.698033	19.612486
10448		9.034886	2.470047	-2.590432	0.720719	-3.350540	-0.719007	0.491036	-0.047890	0.070217	-0.775635	0.282227	0.305664	0.090346	0.024796	-0.025822	0.287894	-0.672960	-0.283678	-0.619491	-151.634006	-85.653020	19.347747
10449		9.812856	0.118150	-3.924090	-1.826982	-2.743894	0.229108	0.227585	-0.034511	0.284735	-0.765137	0.277588	0.311768	0.098133	0.001366	-0.039222	0.289479	-0.673158	-0.283489	-0.618623	-149.812344	-85.553428	17.651534
10450		11.262107	0.590747	-3.586274	-1.114772	-2.799601	1.631298	0.409610	0.004989	0.208192	-0.767334	0.281738	0.302979	0.112614	0.006098	-0.035853	0.291476	-0.672862	-0.284049	-0.617749	-148.291452	-85.492729	16.358741
10451		11.330162	1.252500	-2.661434	0.020126	-2.573439	1.606662	0.198709	0.042652	0.159292	-0.768311	0.280029	0.310059	0.113286	0.012642	-0.026626	0.292683	-0.672683	-0.284080	-0.617360	-147.071803	-85.462175	15.249532
10452		10.196019	-0.134781	-2.337343	-0.868159	-1.448170	0.511517	-0.020898	0.060434	0.233093	-0.766846	0.282227	0.309814	0.101955	-0.001231	-0.023404	0.293403	-0.672870	-0.283159	-0.617238	-145.486850	-85.415204	13.647526
10453		9.638943	-2.101598	-2.161620	-2.242772	-0.038411	0.034492	0.050654	0.110269	0.285266	-0.773682	0.298096	0.309570	0.096407	-0.020873	-0.021675	0.294595	-0.672874	-0.282209	-0.617100	-143.387566	-85.369280	11.570597
10454		9.192925	-3.125727	-1.639657	-2.682287	0.996345	-0.390318	0.297092	0.129033	0.242080	-0.759277	0.301025	0.306885	0.091956	-0.031122	-0.016502	0.296491	-0.672399	-0.282124	-0.616748	-141.352085	-85.341543	9.696508
10455		9.245641	-2.966110	-0.725924	-1.954569	1.541147	-0.399342	0.460800	0.165875	0.123339	-0.767822	0.288330	0.312256	0.092469	-0.029587	-0.007404	0.298640	-0.671393	-0.282898	-0.616453	-139.710147	-85.367940	8.314090
10456		9.728505	-2.681270	-0.296737	-1.433391	1.650192	0.043439	0.569025	0.203082	0.036910	-0.767090	0.302979	0.299561	0.097287	-0.026786	-0.003142	0.300917	-0.669988	-0.284225	-0.616264	-138.279132	-85.440351	7.202622
10457		9.815941	-2.508733	-0.006550	-1.129540	1.726782	0.106421	0.693417	0.237477	-0.006141	-0.767334	0.297852	0.291260	0.098158	-0.025090	-0.000269	0.303542	-0.668216	-0.286039	-0.616061	-136.789343	-85.541211	6.106783
10458		9.807694	-2.262314	0.201488	-0.839800	1.694781	0.075275	0.800700	0.275844	-0.071051	-0.774658	0.289795	0.291016	0.098071	-0.022665	0.001789	0.306361	-0.666064	-0.288324	-0.615931	-135.327501	-85.681851	5.098308
10459		9.627351	-2.418795	-0.030481	-1.156856	1.587845	-0.082444	0.906185	0.257563	-0.066529	-0.776367	0.304932	0.283447	0.096265	-0.024218	-0.000538	0.309528	-0.663796	-0.290955	-0.615559	-133.797345	-85.810836	4.084608
10460		9.916720	-1.949034	0.145890	-0.697959	1.394813	0.173729	1.160744	0.229613	-0.074312	-0.773438	0.305176	0.278076	0.099161	-0.019535	0.001232	0.313449	-0.661194	-0.294414	-0.614729	-132.249688	-85.930436	3.196967
10461		10.225853	-1.333395	0.043674	-0.294881	0.901119	0.456141	1.348077	0.200593	-0.041316	-0.780029	0.302734	0.273193	0.102256	-0.013357	0.000244	0.318053	-0.658405	-0.298389	-0.613441	-130.520723	-86.022636	2.238071
10462		9.808587	-0.130192	-0.083528	0.520588	0.036914	-0.016774	1.447365	0.127568	-0.042995	-0.780273	0.312012	0.267090	0.098085	-0.001317	-0.000907	0.322838	-0.655652	-0.302761	-0.611745	-129.155732	-86.087242	1.698424
10463		9.809792	1.632850	0.201845	2.086451	-0.805579	-0.120592	1.254307	0.066625	-0.039882	-0.773926	0.320801	0.262695	0.098102	0.016296	0.002088	0.326908	-0.653366	-0.306630	-0.610100	-128.258752	-86.127553	1.519737
10464		9.668426	2.159696	0.426272	2.638595	-0.925211	-0.299212	0.968144	0.025089	0.023817	-0.783936	0.319336	0.260010	0.096682	0.021588	0.004355	0.330149	-0.651756	-0.309464	-0.608644	-127.463435	-86.124660	1.276115
10465		9.487852	1.811614	0.606165	2.463721	-0.562066	-0.470158	0.747128	-0.012518	0.112576	-0.778809	0.322998	0.261963	0.094868	0.018147	0.006135	0.332889	-0.650747	-0.311406	-0.607240	-126.599911	-86.067556	0.839692
10466		9.433065	1.071773	0.689943	1.925583	-0.056944	-0.490869	0.590263	-0.047096	0.196448	-0.783447	0.329346	0.253662	0.094318	0.010790	0.006953	0.335301	-0.650230	-0.312639	-0.605831	-125.672761	-85.960053	0.246681
10467		9.611861	0.204157	0.715962	1.267594	0.466204	-0.267114	0.495753	-0.086525	0.237753	-0.775391	0.326416	0.253906	0.096113	0.002138	0.007206	0.337481	-0.650046	-0.313528	-0.604357	-124.904647	-85.819032	-0.238594
10468		9.703683	-0.491353	0.708555	0.724661	0.856772	-0.135616	0.514710	-0.116834	0.256442	-0.771240	0.331787	0.249023	0.097039	-0.004807	0.007130	0.339715	-0.649948	-0.314450	-0.602729	-124.276949	-85.659571	-0.574694
10469		9.545147	-0.872057	1.132629	0.664881	1.420130	-0.289333	0.522595	-0.167973	0.251375	-0.774658	0.334961	0.252930	0.095453	-0.008630	0.011384	0.341890	-0.649975	-0.315508	-0.600914	-124.007033	-85.485233	-0.545056
10470		9.459360	-1.344203	1.502786	0.499529	1.992376	-0.361464	0.603031	-0.182075	0.258494	-0.771729	0.343506	0.252197	0.094597	-0.013365	0.015074	0.344308	-0.649913	-0.316794	-0.598920	-123.754537	-85.303700	-0.454114
10471		9.384354	-2.265329	1.642115	-0.172351	2.621922	-0.379228	0.735758	-0.188233	0.280297	-0.775879	0.340332	0.250732	0.093860	-0.022582	0.016426	0.347223	-0.649664	-0.318425	-0.596639	-123.387014	-85.109168	-0.399848
10472		9.450781	-3.252829	1.495601	-1.056554	3.037768	-0.231946	0.941546	-0.200916	0.289001	-0.773438	0.338135	0.251709	0.094540	-0.032462	0.014898	0.350790	-0.649100	-0.320643	-0.593973	-122.951754	-84.907213	-0.297756
10473		9.605383	-3.789310	1.021215	-1.746627	2.912705	-0.008071	1.213807	-0.215327	0.276383	-0.766602	0.348633	0.246094	0.096095	-0.037822	0.010086	0.355183	-0.648055	-0.323739	-0.590815	-122.494826	-84.706264	-0.058199
10474		9.508557	-3.331165	0.485693	-1.658024	2.186306	-0.106187	1.487244	-0.260221	0.240211	-0.767822	0.353271	0.247559	0.095119	-0.033233	0.004733	0.360250	-0.646572	-0.327807	-0.587117	-122.230692	-84.509801	0.529540
10475		9.799519	-1.560127	0.076847	-0.336461	0.891455	0.064688	1.731140	-0.307186	0.162497	-0.771484	0.364502	0.238281	0.098007	-0.015528	0.000784	0.365791	-0.644612	-0.332921	-0.582955	-122.289948	-84.336114	1.585706
10476		9.766249	0.259366	-0.068609	1.165298	-0.152516	-0.113703	1.720464	-0.327519	0.123043	-0.766113	0.368408	0.239014	0.097662	0.002659	-0.000503	0.371106	-0.642619	-0.338126	-0.578785	-122.534643	-84.175550	2.819554
10477		9.701769	1.129075	-0.359006	1.802704	-0.805090	-0.240339	1.546981	-0.355816	0.131481	-0.758789	0.374756	0.235352	0.097016	0.011381	-0.003330	0.375829	-0.640995	-0.342847	-0.574747	-122.944605	-84.000886	4.122841
10478		9.559449	1.267664	-0.762368	1.760761	-1.191545	-0.376009	1.346462	-0.367120	0.190910	-0.760254	0.380859	0.233398	0.095596	0.012818	-0.007362	0.380024	-0.639850	-0.346788	-0.570887	-123.291775	-83.793938	5.245019
10479		9.497772	0.873584	-1.314234	1.202918	-1.465698	-0.373278	1.130906	-0.372803	0.246267	-0.762939	0.385010	0.227051	0.094991	0.008926	-0.012915	0.383676	-0.639194	-0.349948	-0.567239	-123.581975	-83.557410	6.188964
10480		9.668827	0.304916	-1.799806	0.554075	-1.613829	-0.122137	0.966287	-0.366227	0.272831	-0.758301	0.379639	0.221680	0.096717	0.003267	-0.017806	0.386863	-0.638865	-0.352517	-0.563844	-123.819728	-83.310582	6.983003
10481		9.761277	0.097817	-2.004900	0.344968	-1.688194	0.002733	0.830171	-0.346224	0.269916	-0.758301	0.393555	0.216797	0.097646	0.001193	-0.019875	0.389646	-0.638718	-0.354679	-0.560730	-124.028786	-83.070437	7.672618
10482		9.832329	-0.071568	-1.972033	0.268509	-1.570671	0.088294	0.646241	-0.314169	0.263132	-0.756592	0.397217	0.218018	0.098355	-0.000523	-0.019568	0.391860	-0.638818	-0.356267	-0.558060	-124.207040	-82.844310	8.223256
10483		9.674295	-0.009229	-1.712440	0.462768	-1.356521	-0.093117	0.492583	-0.288797	0.255339	-0.751953	0.394775	0.230957	0.096768	0.000073	-0.016985	0.393614	-0.639124	-0.357408	-0.555741	-124.377832	-82.629086	8.679982
10484		9.575885	-0.224177	-0.987154	0.608590	-0.601252	-0.221530	0.300150	-0.261736	0.269572	-0.750977	0.393311	0.230469	0.095775	-0.002098	-0.009749	0.394825	-0.639757	-0.357902	-0.553833	-124.508800	-82.416528	8.983215
10485		9.736152	-0.743701	-0.749550	0.302067	-0.149391	-0.025252	0.196393	-0.256745	0.278831	-0.756348	0.402100	0.228271	0.097381	-0.007294	-0.007378	0.395749	-0.640591	-0.358078	-0.552092	-124.647322	-82.200359	9.236581
10486		9.761138	-1.242759	-0.907605	-0.173077	-0.068037	0.067258	0.197870	-0.242592	0.270493	-0.745117	0.403564	0.232666	0.097639	-0.012287	-0.008970	0.396664	-0.641370	-0.358242	-0.550422	-124.747053	-81.993454	9.449145
10487		9.475733	-1.346615	-0.780485	-0.217893	0.092535	-0.212900	0.276063	-0.251004	0.251745	-0.749756	0.405762	0.222168	0.094784	-0.013336	-0.007704	0.397776	-0.641976	-0.358710	-0.548606	-124.864085	-81.791773	9.727168
10488		9.684823	-0.782032	-0.609310	0.421723	0.021013	-0.086422	0.321525	-0.259459	0.229553	-0.751709	0.413086	0.225586	0.096865	-0.007699	-0.005980	0.398943	-0.642475	-0.359377	-0.546734	-125.022405	-81.598427	10.071049
10489		9.665230	-0.780949	-0.832506	0.358561	-0.171049	-0.088403	0.236574	-0.252458	0.224252	-0.740723	0.406982	0.220215	0.096671	-0.007691	-0.008212	0.399846	-0.643108	-0.359824	-0.545034	-125.207216	-81.408943	10.395003
10490		9.398058	-1.026072	-1.086517	0.025114	-0.293957	-0.301131	0.168756	-0.259452	0.228864	-0.739502	0.411377	0.231201	0.094006	-0.010144	-0.010752	0.400518	-0.643903	-0.360076	-0.543433	-125.430601	-81.215628	10.716905
10491		9.576214	-1.016396	-1.361375	-0.021449	-0.530653	-0.101450	0.118374	-0.250838	0.223121	-0.743164	0.415771	0.234863	0.095790	-0.010049	-0.013500	0.401038	-0.644762	-0.360199	-0.541948	-125.657606	-81.026858	11.015349
10492		9.877950	-1.199528	-1.666835	-0.235060	-0.710953	0.248640	0.060594	-0.220028	0.213315	-0.744873	0.418213	0.243408	0.098810	-0.011885	-0.016563	0.401385	-0.645637	-0.360123	-0.540698	-125.838876	-80.853588	11.231681
10493		9.947942	-1.570122	-1.990475	-0.661741	-0.837736	0.397555	0.037825	-0.187680	0.192823	-0.739990	0.415283	0.232178	0.099513	-0.015602	-0.019814	0.401675	-0.646428	-0.359998	-0.539620	-125.975656	-80.699813	11.392249
10494		9.646033	-1.309806	-1.533544	-0.263938	-0.533999	0.023899	0.063904	-0.157374	0.186907	-0.739014	0.408936	0.240479	0.096485	-0.013003	-0.015264	0.402072	-0.647077	-0.359889	-0.538618	-126.021436	-80.559696	11.473285
10495		9.696098	-1.053406	-1.375345	0.062514	-0.488979	0.024614	-0.043033	-0.158995	0.187756	-0.740479	0.421875	0.238525	0.096982	-0.010446	-0.013674	0.402136	-0.647943	-0.359503	-0.537787	-126.127895	-80.417871	11.556269
10496		9.683321	-0.924419	-1.206449	0.267237	-0.381911	-0.021903	-0.110383	-0.152300	0.177376	-0.742188	0.427979	0.238281	0.096851	-0.009165	-0.011986	0.401952	-0.648910	-0.358944	-0.537131	-126.273614	-80.283816	11.637427
10497		9.564127	-0.695663	-0.827822	0.629902	-0.130397	-0.209150	-0.183919	-0.152865	0.205852	-0.731934	0.420898	0.238770	0.095655	-0.006866	-0.008199	0.401617	-0.650072	-0.358107	-0.536534	-126.402640	-80.135658	11.661465
10498		9.597345	-0.285980	-0.666631	1.092717	-0.148400	-0.251354	-0.238137	-0.160985	0.221715	-0.736084	0.426514	0.242432	0.095982	-0.002761	-0.006586	0.401122	-0.651394	-0.357080	-0.535987	-126.551712	-79.978178	11.672195
10499		9.592956	0.084630	-0.589010	1.480082	-0.227932	-0.318676	-0.409975	-0.175158	0.224175	-0.739502	0.423340	0.248047	0.095934	0.000942	-0.005808	0.400058	-0.653097	-0.355619	-0.535681	-126.826692	-79.813948	11.712948
10500		9.399084	0.183947	-0.058613	1.781084	0.208398	-0.584237	-0.570424	-0.187208	0.248611	-0.735840	0.427490	0.245850	0.093989	0.001955	-0.000504	0.398497	-0.655194	-0.353661	-0.535580	-127.173174	-79.635183	11.730668
10501		9.177600	-0.705121	0.145070	1.066917	0.775725	-0.701901	-0.717798	-0.195986	0.283665	-0.736572	0.424072	0.249512	0.091784	-0.006916	0.001566	0.396540	-0.657658	-0.351215	-0.535621	-127.552018	-79.436547	11.697736
10502		9.567749	-2.051545	-1.096268	-0.551403	0.283208	0.014218	-0.710991	-0.218466	0.294076	-0.722900	0.419678	0.263672	0.095719	-0.020413	-0.010785	0.394576	-0.660179	-0.348784	-0.535559	-127.955855	-79.226300	11.692201
10503		9.527566	-2.492413	-1.853649	-1.241685	-0.174226	0.129665	-0.552756	-0.242502	0.274132	-0.722168	0.420654	0.260254	0.095332	-0.024844	-0.018352	0.393045	-0.662406	-0.346894	-0.535162	-128.353716	-79.015596	11.774882
10504		9.768249	-1.027597	-1.963402	0.071398	-0.899132	0.163082	-0.435583	-0.223151	0.188531	-0.722168	0.426025	0.265869	0.097714	-0.010226	-0.019503	0.391689	-0.664200	-0.345548	-0.534803	-128.788429	-78.850900	11.961076
10505		10.011773	0.110835	-2.284772	0.991477	-1.675038	0.270926	-0.595345	-0.179783	0.153927	-0.719482	0.424316	0.269775	0.100137	0.001118	-0.022761	0.389796	-0.666123	-0.343814	-0.534913	-129.269897	-78.716114	12.104210
10506		9.655015	-0.193072	-2.365450	0.630132	-1.605665	-0.021023	-0.810641	-0.160879	0.188215	-0.731445	0.420410	0.275146	0.096571	-0.001935	-0.023569	0.387291	-0.668466	-0.341338	-0.535395	-129.764760	-78.573709	12.133006
10507		9.680660	-0.418988	-1.611614	0.790070	-0.818827	-0.055981	-0.899415	-0.140071	0.227851	-0.724121	0.422119	0.286377	0.096823	-0.004152	-0.016030	0.384636	-0.670977	-0.338454	-0.535998	-130.186506	-78.420643	12.037547
10508		9.602477	-2.038206	-1.332033	-0.478721	0.209923	0.079877	-1.005505	-0.111097	0.281512	-0.720703	0.422119	0.283691	0.096061	-0.020313	-0.013165	0.381794	-0.673693	-0.335032	-0.536774	-130.509823	-78.255925	11.776959
10509		9.298368	-3.846872	-1.532153	-2.158972	0.923312	0.091439	-0.823441	-0.102845	0.302944	-0.717041	0.417480	0.291992	0.093050	-0.038390	-0.015116	0.379642	-0.676055	-0.332012	-0.537206	-130.671875	-78.084276	11.460533
10510		9.059630	-3.772250	-1.162488	-1.933935	1.220820	-0.198764	-0.439257	-0.119991	0.277886	-0.714355	0.422607	0.290283	0.090656	-0.037622	-0.011488	0.378674	-0.677686	-0.330127	-0.536995	-130.697568	-77.918044	11.227191
10511		9.124126	-2.617781	-0.726410	-0.696436	1.042282	-0.375597	-0.244823	-0.151777	0.220058	-0.709961	0.429932	0.296631	0.091275	-0.026086	-0.007163	0.378170	-0.678932	-0.329029	-0.536450	-130.777124	-77.764249	11.165121
10512		9.422768	-1.936535	-0.400340	0.129882	1.008414	-0.238495	-0.264619	-0.184204	0.205200	-0.712891	0.423096	0.294434	0.094251	-0.019274	-0.003891	0.377491	-0.680279	-0.327978	-0.535865	-130.957978	-77.605518	11.192879
10513		9.642521	-1.913862	-0.453683	0.198534	0.972211	-0.021763	-0.284248	-0.208447	0.215172	-0.708496	0.431152	0.298828	0.096450	-0.019041	-0.004409	0.376744	-0.681739	-0.326895	-0.535197	-131.176643	-77.432582	11.250072
10514		10.053713	-2.596302	-0.991920	-0.522657	0.882889	0.567537	-0.240772	-0.230729	0.204224	-0.704102	0.419189	0.292725	0.100575	-0.025872	-0.009772	0.376065	-0.683158	-0.325996	-0.534413	-131.428163	-77.256673	11.364374
10515		9.950220	-2.781391	-1.407588	-0.873490	0.630740	0.558591	-0.156170	-0.239117	0.175530	-0.714844	0.422363	0.305176	0.099543	-0.027737	-0.013935	0.375596	-0.684389	-0.325446	-0.533502	-131.689296	-77.088975	11.540461
10516		9.673407	-2.805101	-1.786127	-1.112256	0.321798	0.350624	-0.147230	-0.219999	0.137877	-0.707275	0.424072	0.299561	0.096773	-0.027997	-0.017734	0.375075	-0.685491	-0.325002	-0.532723	-131.967142	-76.945233	11.736920
10517		9.228288	-3.115887	-2.367606	-1.734715	-0.024357	0.059785	-0.120977	-0.206008	0.117440	-0.713623	0.420410	0.297119	0.092325	-0.031119	-0.023562	0.374624	-0.686470	-0.324681	-0.531975	-132.232690	-76.814587	11.938452
10518		9.262929	-2.768402	-2.472497	-1.467087	-0.272509	0.054049	-0.124187	-0.197433	0.074708	-0.714355	0.429443	0.315918	0.092664	-0.027665	-0.024616	0.374052	-0.687364	-0.324472	-0.531352	-132.550184	-76.705779	12.189757
10519		9.553668	-2.296278	-2.392409	-0.951468	-0.411974	0.246837	-0.143853	-0.178571	0.025304	-0.699219	0.425537	0.308350	0.095561	-0.022968	-0.023822	0.373320	-0.688161	-0.324354	-0.530906	-132.921851	-76.624075	12.487057
10520		9.611082	-1.867060	-2.139775	-0.444426	-0.391859	0.191628	-0.203002	-0.175076	0.003172	-0.704346	0.430908	0.318115	0.096130	-0.018691	-0.021295	0.372320	-0.689026	-0.324137	-0.530619	-133.353915	-76.553077	12.809446
10521		9.636609	-1.846112	-1.721467	-0.209387	-0.022563	0.146802	-0.252298	-0.150885	-0.009613	-0.708008	0.425293	0.316406	0.096378	-0.018487	-0.017119	0.371166	-0.689893	-0.323799	-0.530508	-133.789169	-76.495810	13.108414
10522		9.831055	-1.901097	-1.578303	-0.137154	0.157078	0.321973	-0.235760	-0.109351	-0.031662	-0.710205	0.415771	0.327393	0.098316	-0.019045	-0.015707	0.370065	-0.690585	-0.323491	-0.530563	-134.177943	-76.464205	13.367128
10523		9.843409	-1.902049	-1.893849	-0.290804	-0.095484	0.385521	-0.144674	-0.081232	-0.065227	-0.707764	0.432129	0.315674	0.098436	-0.019066	-0.018885	0.369247	-0.690976	-0.323501	-0.530619	-134.520842	-76.456681	13.634607
10524		9.639816	-1.859262	-1.801577	-0.258232	-0.035711	0.165319	-0.061392	-0.093513	-0.088390	-0.700928	0.416016	0.322998	0.096398	-0.018641	-0.017965	0.368622	-0.691211	-0.323821	-0.530552	-134.875766	-76.453799	13.961208
10525		9.570833	-1.342880	-1.659049	0.226433	-0.171262	-0.010851	-0.039009	-0.099844	-0.104678	-0.706543	0.418457	0.321045	0.095710	-0.013482	-0.016540	0.368033	-0.691391	-0.324281	-0.530444	-135.255257	-76.453908	14.328608
10526		9.423616	-0.872646	-1.648473	0.588472	-0.399258	-0.232615	-0.167680	-0.099809	-0.100334	-0.709717	0.421631	0.319092	0.094240	-0.008788	-0.016430	0.366999	-0.691819	-0.324372	-0.530549	-135.701658	-76.452198	14.686602
10527		9.413935	-1.005260	-1.810153	0.389315	-0.451059	-0.192172	-0.346298	-0.089840	-0.097493	-0.703613	0.426758	0.324463	0.094143	-0.010130	-0.018042	0.365381	-0.692546	-0.323972	-0.530959	-136.228313	-76.452216	15.024278
10528		9.516993	-1.413177	-1.869071	0.034620	-0.261044	-0.015021	-0.504014	-0.074784	-0.090258	-0.715332	0.411865	0.327148	0.095170	-0.014222	-0.018619	0.363250	-0.693533	-0.323089	-0.531672	-136.808585	-76.455421	15.322243
10529		9.745221	-2.083516	-2.074324	-0.585072	-0.044105	0.349443	-0.519390	-0.045145	-0.102518	-0.713623	0.408936	0.329834	0.097446	-0.020939	-0.020667	0.361088	-0.694442	-0.322163	-0.532520	-137.371008	-76.474603	15.594683
10530		9.635250	-2.706228	-2.153792	-1.178470	0.238163	0.353676	-0.499681	-0.028329	-0.118319	-0.719238	0.408691	0.331055	0.096339	-0.027173	-0.021456	0.358964	-0.695243	-0.321299	-0.533431	-137.925153	-76.506959	15.867936
10531		9.711563	-2.579658	-2.043657	-1.012101	0.292166	0.387110	-0.360251	-0.024954	-0.159667	-0.722412	0.412598	0.327393	0.097098	-0.025911	-0.020378	0.357231	-0.695712	-0.320955	-0.534191	-138.468960	-76.555355	16.214916
10532		9.707949	-2.093135	-1.916621	-0.560649	0.157585	0.284822	-0.300478	-0.004206	-0.201423	-0.709717	0.406006	0.333496	0.097059	-0.021058	-0.019133	0.355617	-0.695951	-0.320867	-0.535008	-139.024915	-76.628183	16.607683
10533		9.656521	-2.016161	-2.033335	-0.587412	0.034317	0.242235	-0.315280	0.002654	-0.205234	-0.718262	0.404541	0.332275	0.096544	-0.020293	-0.020303	0.353960	-0.696187	-0.320750	-0.535868	-139.590399	-76.704020	17.003226
10534		9.622561	-1.800715	-2.190140	-0.519139	-0.197578	0.203518	-0.286994	0.024336	-0.222594	-0.711914	0.404053	0.335938	0.096203	-0.018146	-0.021887	0.352379	-0.696288	-0.320719	-0.536797	-140.143958	-76.795283	17.401089
10535		9.487639	-1.672819	-1.880628	-0.304354	0.000062	-0.001587	-0.360814	0.032035	-0.235469	-0.723633	0.406738	0.336182	0.094854	-0.016874	-0.018791	0.350527	-0.696472	-0.320530	-0.537882	-140.758625	-76.893295	17.820059
10536		9.578984	-1.817179	-1.809193	-0.390537	0.164433	0.094513	-0.377470	0.043035	-0.259198	-0.730957	0.394775	0.337891	0.095762	-0.018330	-0.018078	0.348560	-0.696617	-0.320348	-0.539080	-141.419641	-77.004053	18.274829
10537		9.591977	-2.052024	-1.774870	-0.588251	0.344258	0.132279	-0.397703	0.039657	-0.264608	-0.721436	0.400146	0.337158	0.095889	-0.020682	-0.017727	0.346510	-0.696791	-0.320145	-0.540296	-142.117456	-77.113609	18.757064
10538		9.577708	-2.015309	-1.729020	-0.562214	0.382945	0.102989	-0.370023	0.026331	-0.274955	-0.721436	0.390137	0.343994	0.095747	-0.020317	-0.017265	0.344496	-0.696936	-0.320064	-0.541445	-142.850743	-77.219774	19.289968
10539		9.632651	-1.502866	-1.549378	-0.060988	0.271789	0.054909	-0.390503	0.027117	-0.287863	-0.729248	0.384521	0.345459	0.096303	-0.015198	-0.015477	0.342384	-0.697086	-0.319979	-0.542640	-143.631281	-77.328737	19.860825
10540		9.471192	-1.501131	-1.795911	-0.251791	0.079154	-0.060129	-0.494655	0.009492	-0.278973	-0.727783	0.385742	0.346191	0.094690	-0.015188	-0.017926	0.339891	-0.697475	-0.319597	-0.543930	-144.491684	-77.425063	20.449950
10541		9.581702	-1.338212	-2.239818	-0.364346	-0.342257	0.105306	-0.516691	-0.000384	-0.293735	-0.737305	0.380127	0.345459	0.095797	-0.013581	-0.022363	0.337274	-0.697896	-0.319232	-0.545233	-145.421153	-77.519245	21.098865
10542		9.359729	-0.923402	-2.300587	-0.134825	-0.616412	-0.150823	-0.592459	-0.007340	-0.297050	-0.730225	0.378418	0.350830	0.093584	-0.009441	-0.022975	0.334359	-0.698454	-0.318670	-0.546641	-146.423490	-77.609163	21.775831
10543		9.374482	-0.473036	-1.827163	0.463325	-0.458850	-0.272360	-0.683240	-0.017161	-0.303545	-0.729492	0.368896	0.358887	0.093739	-0.004935	-0.018247	0.331099	-0.699168	-0.317905	-0.548155	-147.518052	-77.693343	22.495616
10544		9.600813	-0.797644	-1.220405	0.554496	0.268765	-0.121382	-0.857192	-0.018095	-0.295346	-0.737549	0.373779	0.353027	0.095997	-0.008170	-0.012161	0.327235	-0.700179	-0.316620	-0.549926	-148.708337	-77.771759	23.208937
10545		9.713349	-1.723739	-0.980420	-0.055188	1.047257	0.045391	-0.940626	-0.031137	-0.278238	-0.735352	0.365234	0.364258	0.097111	-0.017418	-0.009707	0.323110	-0.701368	-0.315071	-0.551737	-149.936006	-77.835267	23.913610
10546		9.883450	-2.430121	-1.272667	-0.770903	1.287422	0.334027	-0.877470	-0.058648	-0.284194	-0.743164	0.352783	0.364014	0.098803	-0.024497	-0.012591	0.319130	-0.702509	-0.313744	-0.553355	-151.186783	-77.883826	24.677020
10547		9.798418	-2.697958	-1.570286	-1.187649	1.251873	0.325155	-0.786194	-0.115294	-0.303664	-0.747314	0.358398	0.368896	0.097952	-0.027190	-0.015540	0.315330	-0.703614	-0.312832	-0.554644	-152.509638	-77.905070	25.569299
10548		9.659600	-1.384148	-1.178820	0.033966	0.800554	-0.016202	-0.528308	-0.147460	-0.374584	-0.744629	0.343750	0.374023	0.096578	-0.014053	-0.011680	0.312177	-0.704283	-0.312920	-0.555528	-153.896579	-77.924144	26.676242
10549		9.149326	-0.581281	-0.262937	1.091284	1.024629	-0.764135	-0.662730	-0.186927	-0.339523	-0.746582	0.340088	0.375244	0.091486	-0.005977	-0.002524	0.308591	-0.705314	-0.312581	-0.556414	-155.322980	-77.908078	27.746682
10550		9.462372	-0.893508	0.501809	1.349240	1.882832	-0.581163	-0.688984	-0.236486	-0.290073	-0.744141	0.341553	0.381348	0.094605	-0.009055	0.005161	0.304957	-0.706594	-0.312052	-0.557090	-156.692346	-77.849486	28.741374
10551		9.950972	-1.247162	1.263548	1.621619	2.781742	-0.231145	-0.616116	-0.290562	-0.225368	-0.741455	0.342285	0.384766	0.099477	-0.012544	0.012819	0.301683	-0.708001	-0.311589	-0.557346	-157.903780	-77.742904	29.619684
10552		10.443965	-0.841953	1.298106	2.056319	2.645928	0.199347	-0.407725	-0.313965	-0.232247	-0.740479	0.330322	0.389648	0.104409	-0.008514	0.013162	0.299080	-0.709143	-0.311750	-0.557207	-159.016163	-77.622075	30.517272
10553		10.777197	-0.578209	0.740657	1.991516	2.127040	0.605580	-0.320880	-0.314866	-0.213216	-0.748047	0.332520	0.396729	0.107754	-0.005885	0.007586	0.296842	-0.710180	-0.312097	-0.556889	-160.014663	-77.492908	31.351553
10554		11.215697	-0.810152	-0.954802	0.875262	1.063472	1.388320	-0.145568	-0.408767	-0.173999	-0.738281	0.326416	0.392334	0.112169	-0.008206	-0.009313	0.295178	-0.711277	-0.312916	-0.555913	-160.877883	-77.303344	32.148359
10555		11.352247	1.202636	-0.503283	2.743016	0.209436	1.278071	0.126729	-0.399940	-0.214002	-0.748779	0.332764	0.399170	0.113545	0.011908	-0.004798	0.294393	-0.711879	-0.314634	-0.554587	-161.650390	-77.122734	33.015007
10556		10.971168	2.816442	-0.423283	3.980847	-0.738602	0.774340	-0.092203	-0.434575	-0.211273	-0.750488	0.322998	0.403076	0.109750	0.028047	-0.004007	0.292772	-0.712900	-0.315771	-0.553486	-162.543481	-76.920876	33.875317
10557		10.828114	2.426002	-0.439126	3.653299	-0.474803	0.663674	-0.398951	-0.475743	-0.162681	-0.743896	0.319824	0.406982	0.108311	0.024163	-0.004182	0.290133	-0.714554	-0.315957	-0.552637	-163.500134	-76.684342	34.623175
10558		10.229352	0.914420	-0.532276	2.332905	0.377208	0.196018	-0.458057	-0.532743	-0.094320	-0.741455	0.315186	0.417969	0.102312	0.009084	-0.005071	0.287368	-0.716551	-0.315800	-0.551584	-164.341602	-76.403971	35.216296
10559		10.526086	0.375347	-0.332218	2.124062	0.961694	0.464127	-0.238017	-0.590567	-0.064535	-0.737549	0.315918	0.417725	0.105271	0.003716	-0.003016	0.285389	-0.718430	-0.316237	-0.549914	-164.996844	-76.084312	35.750523
10560		10.518080	0.441930	-0.083255	2.360335	1.160300	0.381153	-0.067746	-0.646327	-0.045923	-0.738281	0.314697	0.419922	0.105184	0.004395	-0.000494	0.283969	-0.720242	-0.317136	-0.547757	-165.520718	-75.730899	36.248105
10561		10.028382	1.240422	0.145373	3.055262	0.808998	-0.213797	0.059654	-0.716101	-0.030078	-0.737061	0.313477	0.433350	0.100280	0.012389	0.001816	0.282950	-0.722080	-0.318438	-0.545103	-165.950243	-75.334359	36.727031
10562		9.307496	2.182368	0.497998	3.890117	0.422099	-1.076064	0.026118	-0.787581	0.016302	-0.730957	0.317871	0.439209	0.093053	0.021831	0.005349	0.281807	-0.724223	-0.319562	-0.542186	-166.315962	-74.892197	37.118422
10563		9.247276	2.720264	0.795412	4.519883	0.346607	-1.268997	-0.081264	-0.848373	0.111718	-0.714355	0.317627	0.440918	0.092423	0.027258	0.008335	0.280443	-0.726823	-0.320145	-0.539062	-166.557641	-74.401500	37.320797
10564		9.568198	1.729109	0.617598	3.781287	0.943478	-0.883370	-0.309261	-0.930143	0.272687	-0.717773	0.320068	0.454102	0.095628	0.017431	0.006594	0.278534	-0.730203	-0.319619	-0.535785	-166.642635	-73.845229	37.222175
10565		10.071103	0.582995	-0.133682	2.642416	1.246644	-0.156218	-0.103312	-1.014966	0.395932	-0.706543	0.318359	0.455811	0.100704	0.006029	-0.000829	0.277577	-0.733701	-0.319321	-0.531665	-166.419755	-73.223689	36.928082
10566		9.981560	0.617184	-0.114280	2.755536	1.275447	-0.283543	0.118287	-1.093397	0.453785	-0.699951	0.323730	0.466064	0.099806	0.006399	-0.000593	0.277438	-0.737167	-0.319480	-0.526825	-166.024067	-72.551897	36.582008
10567		10.118977	0.888140	-0.163542	3.071302	1.143904	-0.196741	0.175832	-1.163684	0.505371	-0.698242	0.329346	0.471680	0.101174	0.009138	-0.001039	0.277539	-0.740793	-0.319704	-0.521523	-165.564549	-71.831344	36.205227
10568		10.020600	0.833404	-0.550963	2.888609	0.929009	-0.210508	0.188504	-1.240015	0.563585	-0.691895	0.334961	0.478760	0.100214	0.008621	-0.004880	0.277690	-0.744660	-0.319819	-0.515836	-165.069696	-71.061029	35.794113
10569		9.972634	0.734780	-1.279350	2.493825	0.501801	-0.057825	0.059689	-1.322540	0.594618	-0.680664	0.333496	0.490967	0.099786	0.007648	-0.012132	0.277309	-0.748932	-0.319602	-0.509956	-164.667614	-70.237498	35.404253
10570		9.847552	0.541506	-2.354573	1.810588	-0.131321	0.162993	-0.107473	-1.360393	0.632100	-0.673096	0.347168	0.507813	0.098615	0.005714	-0.022878	0.276308	-0.753548	-0.318835	-0.504146	-164.353101	-69.388662	35.000313
10571		9.829749	0.542107	-3.033452	1.542885	-0.566480	0.356695	-0.255616	-1.409435	0.654726	-0.658203	0.354004	0.510010	0.098490	0.005705	-0.029648	0.274726	-0.758487	-0.317676	-0.498302	-164.136235	-68.506504	34.611053
10572		10.023143	0.372267	-3.762889	1.184327	-0.874309	0.798258	-0.433665	-1.429202	0.679476	-0.644775	0.343506	0.523926	0.100484	0.003983	-0.036920	0.272467	-0.763707	-0.315968	-0.492622	-164.019258	-67.611222	34.213852
10573		10.371230	-0.236536	-4.408035	0.602392	-0.784248	1.415348	-0.656580	-1.442605	0.713348	-0.632568	0.345215	0.533447	0.104035	-0.002138	-0.043323	0.269414	-0.769265	-0.313596	-0.487140	-164.007708	-66.700987	33.793154
10574		10.284383	-0.501904	-4.817515	0.279234	-0.826491	1.521570	-0.709180	-1.428056	0.697894	-0.623291	0.349609	0.538818	0.103201	-0.004828	-0.047422	0.266105	-0.774775	-0.311090	-0.481804	-164.058398	-65.803360	33.400645
10575		9.902486	-0.551290	-4.916475	0.186539	-0.852551	1.222312	-0.728501	-1.346054	0.631282	-0.616455	0.352295	0.555664	0.099370	-0.005377	-0.048477	0.262687	-0.779954	-0.308685	-0.476845	-164.181310	-64.959508	33.076754
10576		9.512933	-1.117723	-5.074420	-0.341389	-0.581381	1.005756	-0.704095	-1.201733	0.585571	-0.599365	0.352051	0.567383	0.095464	-0.011075	-0.050132	0.259449	-0.784634	-0.306290	-0.472464	-164.304146	-64.204859	32.763003
10577		9.236844	-2.468112	-5.565048	-1.601675	0.016044	1.133245	-0.768577	-1.041660	0.591225	-0.588623	0.346191	0.564453	0.092729	-0.024620	-0.055073	0.256215	-0.788989	-0.303513	-0.468754	-164.411464	-63.535707	32.392089
10578		9.077368	-3.903770	-6.051868	-2.878816	0.708035	1.388784	-0.547432	-0.860899	0.531019	-0.580566	0.338867	0.583252	0.091136	-0.038961	-0.060020	0.253963	-0.792511	-0.301229	-0.465500	-164.411570	-62.977654	32.037738
10579		8.777280	-3.587931	-6.263329	-2.802229	0.334759	1.195394	-0.119539	-0.763541	0.371452	-0.573242	0.346924	0.582031	0.088077	-0.035753	-0.062276	0.253188	-0.795004	-0.300461	-0.462156	-164.314870	-62.495912	31.851946
10580		8.467293	-2.433922	-5.840615	-1.782917	-0.204664	0.604155	-0.107022	-0.703777	0.217674	-0.571289	0.347168	0.595459	0.084904	-0.024278	-0.058095	0.252176	-0.797100	-0.300230	-0.459240	-164.360098	-62.072577	31.829756
10581		8.986434	-1.062971	-4.882567	0.009014	-0.326022	0.464402	-0.312733	-0.668562	0.114182	-0.574707	0.344971	0.593506	0.090033	-0.010654	-0.048508	0.250173	-0.799206	-0.299912	-0.456876	-164.616564	-61.682882	31.917424
10582		9.256204	0.314816	-4.335997	1.451106	-0.793303	0.278988	-0.502291	-0.625138	0.106949	-0.564697	0.346436	0.607178	0.092695	0.003089	-0.043078	0.247442	-0.801428	-0.299111	-0.454992	-164.973315	-61.319891	31.992208
10583		8.958200	0.114332	-4.237404	1.277091	-0.610295	-0.003798	-0.870887	-0.569577	0.217331	-0.559570	0.336182	0.600586	0.089701	0.001057	-0.042123	0.243579	-0.804126	-0.296974	-0.453715	-165.408575	-60.969444	31.919495
10584		8.375380	-1.395379	-4.742101	-0.282497	0.024667	-0.091533	-0.934886	-0.513534	0.344722	-0.555420	0.334229	0.611816	0.083899	-0.014030	-0.047140	0.239808	-0.806940	-0.294082	-0.452610	-165.737750	-60.633994	31.679346
10585		8.093038	-1.749720	-5.232760	-0.898485	-0.062926	-0.059278	-0.755599	-0.491848	0.355974	-0.545654	0.333984	0.618896	0.081090	-0.017550	-0.052062	0.236826	-0.809484	-0.291537	-0.451282	-165.946455	-60.307721	31.421693
10586		8.283308	-1.524353	-5.261905	-0.644225	-0.146848	0.096280	-0.685020	-0.453273	0.344202	-0.542236	0.318115	0.625000	0.082978	-0.015280	-0.052379	0.234140	-0.811823	-0.289125	-0.450032	-166.118941	-60.006663	31.164453
10587		8.216417	-1.496807	-5.485041	-0.753140	-0.283875	0.146609	-0.606652	-0.415963	0.292009	-0.544678	0.329590	0.624023	0.082300	-0.015014	-0.054634	0.231719	-0.813896	-0.287074	-0.448852	-166.287613	-59.732161	30.957629
10588		7.923089	-1.086880	-5.728511	-0.721659	-0.772613	-0.032371	-0.513052	-0.376807	0.206429	-0.535156	0.334229	0.637451	0.079350	-0.010934	-0.057108	0.229522	-0.815640	-0.285509	-0.447812	-166.476905	-59.493157	30.832295
10589		7.846937	-0.630658	-5.676111	-0.398243	-1.054299	-0.173180	-0.584237	-0.342263	0.176616	-0.531494	0.316895	0.641113	0.078572	-0.006403	-0.056608	0.227033	-0.817335	-0.283886	-0.447022	-166.725104	-59.275782	30.731774
10590		8.136393	-0.804108	-5.931301	-0.526533	-0.969916	0.227715	-0.652811	-0.324224	0.199568	-0.524902	0.320068	0.648682	0.081468	-0.008153	-0.059155	0.224321	-0.819091	-0.281969	-0.446390	-166.987442	-59.067191	30.597821
10591		8.311446	-0.839939	-5.813233	-0.386964	-0.783585	0.327106	-0.642955	-0.311236	0.213474	-0.530762	0.318848	0.645752	0.083214	-0.008497	-0.057976	0.221711	-0.820813	-0.280021	-0.445756	-167.226719	-58.862893	30.447183
10592		8.547809	-0.514937	-5.758747	-0.021693	-0.891604	0.468257	-0.640726	-0.291288	0.188478	-0.523682	0.309570	0.653076	0.085567	-0.005253	-0.057446	0.219064	-0.822443	-0.278132	-0.445243	-167.484451	-58.674861	30.315412
10593		8.841983	-0.717685	-5.955413	-0.128655	-0.745833	0.845162	-0.595777	-0.270291	0.215871	-0.520752	0.307617	0.652100	0.088508	-0.007258	-0.059413	0.216705	-0.824004	-0.276226	-0.444697	-167.685378	-58.493833	30.150904
10594		8.601480	-1.670767	-7.180348	-1.579490	-0.820297	1.375096	0.234347	-0.172729	0.240023	-0.512451	0.313965	0.658691	0.086097	-0.016520	-0.071749	0.217936	-0.824476	-0.275936	-0.443398	-167.371653	-58.365971	29.936232
10595		7.525537	-1.559556	-7.720966	-2.274923	-1.534964	0.729960	0.464977	-0.315260	0.354633	-0.515381	0.324219	0.653809	0.075404	-0.015283	-0.077127	0.220191	-0.825164	-0.275861	-0.441045	-166.853061	-58.141392	29.639728
10596		7.326922	-2.853019	-8.235607	-3.461695	-0.927792	0.994917	-0.268019	-0.403544	0.413510	-0.510498	0.322998	0.662598	0.073494	-0.028489	-0.082170	0.219412	-0.826928	-0.274000	-0.439287	-166.726104	-57.860471	29.305275
10597		7.198210	-3.365204	-8.514330	-3.961055	-0.729089	1.114830	0.127673	-0.469366	0.440271	-0.507324	0.322510	0.658447	0.072255	-0.033439	-0.084995	0.220251	-0.828428	-0.272987	-0.436663	-166.366679	-57.537073	28.966634
10598		6.879645	-1.956608	-6.995256	-2.222617	-0.943847	-0.103917	-0.335087	-0.506653	0.551890	-0.502930	0.325928	0.666992	0.069027	-0.019493	-0.069745	0.219348	-0.830662	-0.270519	-0.434403	-166.190483	-57.178204	28.525914
10599		7.009451	-1.301825	-4.634912	-0.271118	0.036647	-1.313598	-0.975803	-0.383565	0.669653	-0.490967	0.320801	0.674805	0.070227	-0.013009	-0.046151	0.216215	-0.833466	-0.266048	-0.433364	-166.258651	-56.870245	27.940757
10600		7.273194	0.074194	-2.797664	1.865209	0.147339	-2.247566	-1.049901	-0.051963	0.615845	-0.489014	0.319580	0.675781	0.072737	0.000819	-0.027962	0.213074	-0.835531	-0.261250	-0.433862	-166.350594	-56.755801	27.328220
10601		7.510162	2.934666	-2.484672	3.940078	-1.840488	-2.582432	-0.807916	0.261727	0.287639	-0.496826	0.301514	0.678711	0.075027	0.029354	-0.025063	0.210651	-0.836202	-0.258029	-0.435677	-166.517568	-56.859762	26.974637
10602		8.008041	2.537996	-1.377857	4.575396	-0.811481	-2.680004	-1.596690	0.634137	0.242636	-0.497070	0.311768	0.678223	0.080005	0.025365	-0.014235	0.205285	-0.836797	-0.252850	-0.440110	-167.100129	-57.179946	26.574567
10603		6.959512	-0.630289	-2.657430	1.282726	0.666284	-2.477543	-1.401689	0.963820	0.320766	-0.490234	0.304932	0.679932	0.069476	-0.006379	-0.026865	0.201326	-0.836500	-0.247438	-0.445545	-167.434852	-57.674908	26.018798
10604		6.863791	-1.518634	-2.929834	0.469951	1.169049	-2.301779	-0.811053	1.204760	0.136218	-0.509277	0.287598	0.681152	0.068470	-0.015259	-0.029649	0.199696	-0.834790	-0.243837	-0.451432	-167.542317	-58.330226	25.594137
10605		7.027149	-0.772236	-2.613553	1.110872	0.738897	-2.394682	-0.350853	1.500756	-0.080771	-0.515625	0.293457	0.665771	0.070070	-0.007797	-0.026648	0.199862	-0.831641	-0.241890	-0.458167	-167.514614	-59.176611	25.326646
10606		7.233417	0.542525	-2.403315	2.009688	-0.209805	-2.443276	-0.363947	1.696682	-0.256739	-0.524658	0.280273	0.658447	0.072134	0.005288	-0.024655	0.199776	-0.827788	-0.240410	-0.465897	-167.615299	-60.156008	25.197780
10607		7.668552	1.028399	-2.194719	2.496989	-0.448125	-2.180976	-0.780655	1.913648	-0.390818	-0.540771	0.276123	0.650391	0.076490	0.010047	-0.022719	0.197912	-0.823607	-0.238298	-0.475097	-168.043789	-61.271810	25.176260
10608		7.925710	0.549281	-2.505817	1.953630	-0.236195	-1.718106	-0.919316	2.114884	-0.463549	-0.559570	0.271484	0.644287	0.078998	0.005192	-0.025919	0.195500	-0.818896	-0.235904	-0.485323	-168.603300	-62.510707	25.209296
10609		7.916718	-0.407973	-2.884087	0.947984	0.277487	-1.435351	-1.012839	2.286113	-0.518082	-0.578125	0.261963	0.643066	0.078820	-0.004433	-0.029721	0.192766	-0.813673	-0.233328	-0.496322	-169.265884	-63.849936	25.301486
10610		7.714334	-1.740836	-3.337669	-0.417148	1.030748	-1.301433	-0.901409	2.419488	-0.585356	-0.599854	0.249023	0.623779	0.076681	-0.017786	-0.034227	0.190420	-0.807796	-0.231110	-0.507734	-169.955815	-65.272471	25.489418
10611		7.427664	-2.722130	-3.688640	-1.542028	1.547685	-1.362285	-0.750229	2.494074	-0.659903	-0.615723	0.243652	0.614258	0.073719	-0.027606	-0.037705	0.188568	-0.801357	-0.229489	-0.519234	-170.686878	-66.741428	25.819105
10612		7.171297	-3.003361	-3.856078	-2.125414	1.595648	-1.551369	-0.406544	2.568369	-0.798134	-0.620605	0.232178	0.597168	0.071090	-0.030398	-0.039415	0.187764	-0.794095	-0.229179	-0.530692	-171.465310	-68.264590	26.405471
10613		7.495683	-2.384371	-3.508524	-1.624517	1.269771	-1.450617	-0.139194	2.611873	-0.928120	-0.642822	0.236816	0.587646	0.074378	-0.024215	-0.036042	0.187713	-0.786170	-0.230034	-0.542020	-172.374387	-69.817701	27.293501
10614		8.428566	-1.620127	-3.340948	-1.018371	0.814519	-0.695612	0.026076	2.687707	-1.049363	-0.654785	0.225342	0.560791	0.083740	-0.016637	-0.034539	0.188010	-0.777587	-0.231672	-0.553479	-173.524550	-71.418166	28.524405
10615		9.086422	-0.718218	-3.246018	-0.516152	0.155900	-0.152574	0.121022	2.781924	-1.159564	-0.678467	0.220703	0.543457	0.090357	-0.007687	-0.033724	0.188461	-0.768358	-0.233886	-0.565160	-175.027459	-73.067199	30.175169
10616		9.287801	-0.382472	-3.132876	-0.472740	-0.096599	-0.015546	0.015970	2.851012	-1.218671	-0.696289	0.203369	0.525635	0.092393	-0.004386	-0.032649	0.188359	-0.758783	-0.235890	-0.577170	-177.048417	-74.743504	32.284229
10617		9.322857	-0.439773	-3.219845	-0.863317	-0.162257	0.020768	-0.018363	2.892961	-1.232336	-0.716553	0.201660	0.502197	0.092720	-0.004973	-0.033542	0.188110	-0.748921	-0.237771	-0.589235	-179.621353	-76.417841	34.929711
10618		9.363815	-0.580883	-3.153191	-1.183567	-0.074637	0.013130	-0.008276	2.888157	-1.221933	-0.729980	0.195313	0.488037	0.093132	-0.006380	-0.032879	0.187855	-0.738890	-0.239568	-0.601132	177.115426	-78.055545	38.266553
10619		9.655977	-0.494183	-2.919372	-1.199395	-0.047656	0.215066	0.044728	2.861769	-1.220365	-0.744141	0.182861	0.462402	0.096096	-0.005522	-0.030572	0.187745	-0.728712	-0.241506	-0.612704	172.880456	-79.625553	42.608812
10620		10.067060	0.126674	-2.558941	-0.797776	-0.369175	0.537625	0.141444	2.802369	-1.226825	-0.754150	0.169678	0.438965	0.100304	0.000669	-0.026996	0.187830	-0.718443	-0.243743	-0.623818	167.245760	-81.085279	48.402229
10621		10.584582	1.054587	-1.836298	0.073221	-0.715697	0.957253	0.054237	2.717329	-1.205056	-0.775635	0.171875	0.431152	0.105644	0.009914	-0.019797	0.187545	-0.708386	-0.245674	-0.634556	159.664315	-82.380373	56.093996
10622		11.009429	1.456366	-1.353418	0.420274	-0.781067	1.339226	-0.188087	2.607215	-1.141738	-0.774414	0.155029	0.400391	0.109986	0.013922	-0.014982	0.186404	-0.698832	-0.246643	-0.645023	149.633904	-83.451578	66.088361
10623		11.032716	1.305872	-0.932622	0.371017	-0.479325	1.319284	-0.375349	2.491403	-1.040173	-0.804688	0.142822	0.380615	0.110265	0.012466	-0.010724	0.184780	-0.689817	-0.246734	-0.655081	137.066776	-84.242299	78.511171
10624		10.852544	0.628358	-0.720659	-0.138965	0.107915	1.080173	-0.496072	2.364196	-0.925415	-0.803955	0.130371	0.369385	0.108457	0.005762	-0.008504	0.182902	-0.681349	-0.246090	-0.664643	122.486949	-84.702251	92.869102
10625		10.779051	-0.075739	-0.513446	-0.634633	0.727489	0.935335	-0.648158	2.195443	-0.799594	-0.819336	0.129883	0.342285	0.107721	-0.001207	-0.006314	0.180712	-0.673630	-0.244646	-0.673583	107.564272	-84.817778	107.480829
10626		10.753918	-0.542433	-0.175370	-0.856484	1.237939	0.850395	-0.626838	2.028343	-0.709259	-0.817627	0.117432	0.338135	0.107494	-0.005813	-0.002826	0.178645	-0.666472	-0.243068	-0.681776	94.005625	-84.632625	120.732256
10627		10.847573	-0.112029	0.138512	-0.572002	1.014443	0.973481	-0.433558	1.873984	-0.665942	-0.833984	0.114990	0.328369	0.108478	-0.001480	0.000372	0.177185	-0.659646	-0.242135	-0.689089	82.884873	-84.219280	131.655895
10628		10.612755	0.697191	0.297361	-0.169142	0.368543	0.819213	-0.221430	1.768695	-0.607188	-0.829102	0.104736	0.305664	0.106169	0.006652	0.002027	0.176456	-0.653002	-0.241787	-0.695694	74.065580	-83.673072	140.392717
10629		10.111479	1.408803	0.891724	0.580940	0.032541	0.418669	-0.317014	1.645872	-0.525187	-0.840088	0.095215	0.293701	0.101220	0.013836	0.008062	0.175564	-0.646916	-0.240949	-0.701869	67.115323	-83.075026	147.206683
10630		10.224912	1.798610	1.165453	0.847553	-0.182296	0.598273	-0.451267	1.526672	-0.422055	-0.847168	0.090576	0.289063	0.102372	0.017795	0.010833	0.174416	-0.641442	-0.239373	-0.707695	61.485341	-82.476500	152.616918
10631		10.279670	1.810272	1.344306	0.843726	-0.149585	0.676332	-0.597255	1.397776	-0.323551	-0.850098	0.095703	0.270020	0.102916	0.017975	0.012670	0.173010	-0.636630	-0.237082	-0.713135	56.845878	-81.907339	156.954330
10632		9.828696	1.284856	1.403458	0.529337	0.231132	0.181742	-0.733198	1.276573	-0.259043	-0.855469	0.093506	0.262695	0.098390	0.012771	0.013360	0.171220	-0.632405	-0.234172	-0.718269	52.954304	-81.364853	160.458973
10633		9.358145	0.494078	0.852765	-0.402558	0.506658	-0.425125	-0.631197	1.182705	-0.241575	-0.860596	0.086426	0.251221	0.093636	0.004853	0.007959	0.169724	-0.628421	-0.231663	-0.722920	49.785242	-80.834901	163.300585
10634		9.033549	0.031409	0.796097	-0.747655	0.804493	-0.810870	-0.375983	1.097804	-0.238612	-0.858643	0.081299	0.241211	0.090378	0.000221	0.007464	0.168910	-0.624501	-0.230110	-0.726992	47.291339	-80.315984	165.606492
10635		8.890819	0.178362	0.836350	-0.702894	0.663544	-0.933335	-0.090557	1.007198	-0.252786	-0.858887	0.077393	0.232910	0.088951	0.001675	0.007915	0.168852	-0.620638	-0.229727	-0.730427	45.443775	-79.814557	167.429518
10636		8.945096	0.813030	0.808097	-0.483581	0.092961	-0.807930	0.218900	0.934727	-0.277833	-0.868896	0.072510	0.226074	0.089499	0.007997	0.007672	0.169549	-0.616730	-0.230588	-0.733298	44.147504	-79.322650	168.871198
10637		8.848913	1.245434	0.604681	-0.482618	-0.401985	-0.878204	0.350774	0.855056	-0.284432	-0.865234	0.071533	0.219971	0.088532	0.012318	0.005690	0.170558	-0.612983	-0.232034	-0.735746	43.220750	-78.857603	170.019714
10638		8.724807	1.234809	0.300589	-0.785701	-0.579642	-1.050059	0.351661	0.783379	-0.268322	-0.862549	0.065430	0.212402	0.087275	0.012226	0.002686	0.171514	-0.609503	-0.233470	-0.737957	42.477395	-78.424415	170.979283
10639		8.589326	1.297151	0.049486	-0.993016	-0.788913	-1.218922	0.411981	0.718342	-0.234528	-0.870361	0.080322	0.202393	0.085909	0.012870	0.000213	0.172727	-0.606240	-0.235098	-0.739843	41.880125	-78.031077	171.830535
10640		8.529461	1.609865	0.109692	-0.816442	-1.029464	-1.231965	0.397003	0.646133	-0.204587	-0.868164	0.069336	0.202881	0.085314	0.016010	0.000853	0.173892	-0.603281	-0.236619	-0.741502	41.384569	-77.677067	172.566311
10641		8.459774	1.523251	0.102731	-0.901868	-0.975797	-1.319579	0.324622	0.591335	-0.172849	-0.866699	0.072021	0.196289	0.084613	0.015158	0.000802	0.174916	-0.600618	-0.237839	-0.743031	40.914194	-77.358727	173.238602
10642		8.213499	1.177696	-0.086542	-1.232136	-0.816086	-1.647412	0.290490	0.530114	-0.141287	-0.870117	0.072266	0.191162	0.082141	0.011720	-0.001066	0.175851	-0.598244	-0.238870	-0.744394	40.490574	-77.076334	173.839730
10643		8.146922	0.729466	-0.193996	-1.585370	-0.522046	-1.802940	0.292078	0.466646	-0.111674	-0.876709	0.068359	0.179932	0.081468	0.007252	-0.002119	0.176852	-0.596135	-0.239891	-0.745519	40.135085	-76.833062	174.376451
10644		8.123781	0.420862	-0.330590	-1.890196	-0.358597	-1.901890	0.382259	0.395216	-0.096589	-0.873535	0.070068	0.187500	0.081233	0.004176	-0.003458	0.178065	-0.594226	-0.241247	-0.746317	39.928318	-76.624878	174.810318
10645		8.099174	0.519654	-0.386144	-1.898918	-0.482111	-1.927422	0.543420	0.326793	-0.091714	-0.869629	0.071777	0.189697	0.080988	0.005170	-0.003980	0.179717	-0.592429	-0.243266	-0.746693	39.918730	-76.449581	175.140364
10646		7.952625	0.587798	-0.144730	-1.653164	-0.407996	-2.020944	0.503773	0.242734	-0.083321	-0.874512	0.059570	0.175293	0.079527	0.005849	-0.001529	0.181150	-0.590989	-0.245167	-0.746867	40.002009	-76.313244	175.347619
10647		8.059418	0.625905	-0.191698	-1.706813	-0.467231	-1.922744	0.547901	0.154715	-0.060510	-0.874023	0.065674	0.173096	0.080595	0.006240	-0.001962	0.182718	-0.589859	-0.247261	-0.746688	40.203206	-76.225119	175.463696
10648		8.293872	1.041264	-0.367295	-1.671780	-0.902651	-1.664202	0.629985	0.084264	-0.038743	-0.874512	0.067383	0.173340	0.082939	0.010408	-0.003675	0.184492	-0.588941	-0.249642	-0.746184	40.518207	-76.174965	175.507033
10649		8.430304	1.257629	-0.206787	-1.452910	-0.977882	-1.468395	0.587713	0.025961	-0.014716	-0.872070	0.072998	0.173828	0.084304	0.012576	-0.002042	0.186185	-0.588301	-0.251864	-0.745521	40.853950	-76.160170	175.508087
10650		8.553185	1.372657	-0.072629	-1.303807	-0.983480	-1.305086	0.500155	-0.056343	0.018308	-0.879639	0.071533	0.169434	0.085531	0.013736	-0.000668	0.187612	-0.588090	-0.253720	-0.744700	41.207141	-76.192501	175.435747
10651		8.799610	1.503157	0.064622	-1.166339	-0.994633	-1.017965	0.429824	-0.121661	0.053168	-0.880127	0.075439	0.168213	0.087992	0.015053	0.000732	0.188904	-0.588226	-0.255289	-0.743729	41.560766	-76.266884	175.325250
10652		8.955694	1.138603	0.250507	-1.251972	-0.581817	-0.887574	0.270254	-0.190241	0.094337	-0.871826	0.063721	0.175049	0.089549	0.011425	0.002606	0.189768	-0.588821	-0.256191	-0.742727	41.860877	-76.385361	175.172366
10653		9.062959	0.928477	0.484244	-1.193432	-0.263223	-0.771661	0.279629	-0.278859	0.124175	-0.873535	0.070068	0.170898	0.090617	0.009334	0.004982	0.190681	-0.589770	-0.257140	-0.741412	42.259277	-76.553554	174.927416
10654		9.215824	1.325097	0.841515	-0.686692	-0.347084	-0.495859	0.311312	-0.354271	0.148434	-0.876709	0.075195	0.170166	0.092133	0.013306	0.008599	0.191650	-0.591000	-0.258187	-0.739817	42.765734	-76.761812	174.586365
10655		9.195086	1.509798	1.018167	-0.396312	-0.371559	-0.454778	0.287540	-0.422643	0.177540	-0.880127	0.083008	0.182373	0.091916	0.015165	0.010398	0.192596	-0.592535	-0.259141	-0.738007	43.334441	-77.010064	174.171624
10656		9.072796	1.451891	1.131256	-0.269153	-0.242774	-0.562187	0.305641	-0.489472	0.218409	-0.865967	0.078613	0.183838	0.090684	0.014600	0.011557	0.193634	-0.594351	-0.260088	-0.735940	43.975905	-77.300522	173.689999
10657		9.234177	1.607186	1.510426	0.135817	-0.110264	-0.320399	0.356456	-0.562105	0.265871	-0.871582	0.086670	0.189453	0.092277	0.016167	0.015392	0.194925	-0.596436	-0.261164	-0.733527	44.717209	-77.639102	173.139860
10658		9.603914	1.878883	1.604304	0.356284	-0.235559	0.094699	0.353150	-0.624206	0.307093	-0.866455	0.080078	0.197266	0.095959	0.018907	0.016376	0.196248	-0.598802	-0.262145	-0.730892	45.534641	-78.017209	172.507131
10659		9.805474	1.746661	1.809770	0.467031	0.022452	0.299398	0.242980	-0.680509	0.343958	-0.867188	0.086914	0.200684	0.097962	0.017613	0.018452	0.197324	-0.601517	-0.262680	-0.728176	46.376526	-78.431632	171.789396
10660		9.814271	1.521095	1.864955	0.451070	0.254422	0.279037	0.242458	-0.725750	0.386045	-0.860840	0.089600	0.205322	0.098045	0.015377	0.019024	0.198462	-0.604446	-0.263109	-0.725280	47.290225	-78.878368	170.995319
10661		9.946060	1.600342	1.975165	0.644694	0.286794	0.428792	0.311254	-0.774258	0.413154	-0.852783	0.086182	0.214844	0.099350	0.016178	0.020161	0.199865	-0.607502	-0.263767	-0.722096	48.369061	-79.353230	170.078365
10662		10.285628	1.631312	2.030407	0.736623	0.331213	0.766763	0.313388	-0.793896	0.446650	-0.858398	0.094238	0.213867	0.102738	0.016510	0.020738	0.201338	-0.610662	-0.264325	-0.718810	49.520755	-79.845735	169.086047
10663		10.386783	1.632564	1.918257	0.732193	0.286897	0.846154	0.469893	-0.812999	0.503424	-0.858643	0.100830	0.216553	0.103747	0.016541	0.019643	0.203490	-0.613787	-0.265303	-0.715172	50.800409	-80.367101	168.060415
10664		10.443041	1.794716	1.920899	0.934054	0.186450	0.913895	0.349141	-0.900830	0.595178	-0.854492	0.098145	0.223145	0.104288	0.018224	0.019711	0.205452	-0.617456	-0.265633	-0.711321	52.186238	-80.955907	166.855225
10665		10.723270	1.497145	1.612286	0.592744	0.247813	1.115040	0.057479	-0.988261	0.674931	-0.841797	0.114746	0.237305	0.107100	0.015328	0.016657	0.206700	-0.621816	-0.264776	-0.707470	53.667290	-81.607133	165.390235
10666		10.533522	1.620372	1.676581	0.880653	0.196180	0.937938	-0.032506	-1.061389	0.744299	-0.852783	0.119141	0.247559	0.105183	0.016598	0.017322	0.207782	-0.626599	-0.263433	-0.703422	55.428504	-82.307682	163.589143
10667		10.463022	1.618816	1.619343	0.991163	0.163235	0.850644	-0.286542	-1.170418	0.852648	-0.848145	0.131836	0.251709	0.104463	0.016658	0.016781	0.208322	-0.632138	-0.260975	-0.699210	57.550020	-83.086475	161.284844
10668		10.306503	0.797893	1.025823	0.199042	0.420620	0.564889	-0.560574	-1.271057	0.974082	-0.833984	0.134521	0.262939	0.102957	0.008510	0.010889	0.208253	-0.638435	-0.257247	-0.694878	60.204993	-83.941048	158.286272
10669		10.101814	0.082777	0.150712	-0.732744	0.424032	0.254926	-0.553083	-1.393379	1.088467	-0.833496	0.140137	0.275879	0.100998	0.001383	0.002208	0.208454	-0.645244	-0.253303	-0.689960	64.161744	-84.866542	153.992344
10670		9.988373	-0.657582	-0.367755	-1.396913	0.682421	0.082505	-0.591869	-1.554528	1.231594	-0.823486	0.150635	0.291016	0.099946	-0.005970	-0.002883	0.208777	-0.652769	-0.248890	-0.684367	70.666637	-85.861524	147.122884
10671		9.087017	-1.450823	-1.215163	-2.297994	0.758920	-0.851927	-0.487397	-1.688856	1.357102	-0.818359	0.160156	0.298096	0.091064	-0.013919	-0.011349	0.209702	-0.660724	-0.244553	-0.677984	82.395720	-86.848326	135.090844
10672		8.253056	-2.314846	-2.019502	-3.233419	0.930560	-1.674795	-0.325847	-1.839862	1.448710	-0.812744	0.165283	0.318115	0.082876	-0.022581	-0.019397	0.211239	-0.669048	-0.240570	-0.670730	105.353638	-87.619274	111.917324
10673		7.448563	-3.244084	-2.917373	-4.307732	1.104841	-2.414367	-0.217000	-1.950489	1.545478	-0.803467	0.184570	0.332520	0.075013	-0.031894	-0.028409	0.213320	-0.677643	-0.236726	-0.662763	141.005438	-87.752482	76.113902
10674		7.674506	-4.019094	-1.119532	-3.136740	2.828842	-2.166876	-0.690669	-2.007983	1.658095	-0.796631	0.186523	0.347412	0.077181	-0.039589	-0.010284	0.214046	-0.686956	-0.230934	-0.654939	170.535172	-87.066603	46.156388
10675		8.775557	-4.034115	-2.350847	-3.878329	2.156904	-0.918141	-0.145419	-1.800442	1.442199	-0.785156	0.201416	0.365234	0.088250	-0.039723	-0.022686	0.216163	-0.694645	-0.227428	-0.647317	-175.097394	-86.057170	31.680438
10676		11.172965	2.737912	8.462308	9.110508	3.292556	0.680015	1.292564	-1.025643	0.697214	-0.776367	0.203613	0.358154	0.111198	0.027217	0.085370	0.221701	-0.697354	-0.230281	-0.641496	-170.078708	-85.419569	27.387007
10677		21.463370	16.514923	12.976507	21.850491	-4.321286	10.328796	1.919549	0.121287	0.042725	-0.783691	0.215332	0.350830	0.214678	0.163940	0.131212	0.228648	-0.694872	-0.236157	-0.639612	-168.535347	-85.480072	26.942095
10678		20.530824	7.688051	0.765848	6.818221	-4.777944	10.482383	0.973289	0.067626	-0.238715	-0.790771	0.223145	0.357178	0.205402	0.076597	0.007962	0.231311	-0.693265	-0.240016	-0.638960	-169.623320	-85.542452	28.589777
10679		3.812724	-0.207568	-3.192923	-2.335728	-1.700264	-5.759522	0.413249	-0.351470	-0.056513	-0.775146	0.220947	0.361328	0.038183	-0.002021	-0.031866	0.232128	-0.693857	-0.241951	-0.637290	-170.248622	-85.346568	29.454614
10680		8.896456	3.296461	-4.284569	-0.518692	-4.894204	-0.639536	2.536674	-0.515710	-0.220973	-0.766113	0.229736	0.351318	0.089111	0.033404	-0.042194	0.239548	-0.692247	-0.251377	-0.632630	-170.890995	-85.073671	31.554714
10681		11.395661	7.167197	-4.575290	2.104805	-7.875516	1.836678	1.235542	-0.287818	-0.118328	-0.778076	0.234375	0.348877	0.114064	0.071885	-0.045145	0.243070	-0.691531	-0.256048	-0.630191	-171.257881	-84.917984	32.633656
10682		13.519514	0.072630	-3.229467	-1.300952	-1.554846	3.938706	-0.890713	-0.439820	0.959636	-0.771729	0.235352	0.360107	0.135261	0.001232	-0.032002	0.242413	-0.695226	-0.250456	-0.628624	-166.465169	-84.562024	27.305775
10683		4.715459	-6.959316	-5.711174	-8.424581	1.721287	-4.395333	0.274465	-0.128256	1.132016	-0.770020	0.242432	0.366699	0.047584	-0.069246	-0.057177	0.246748	-0.696719	-0.247549	-0.626432	-160.168472	-84.302008	21.137335
10684		9.879207	0.812065	-0.138797	1.360192	-0.349491	0.000827	1.665130	-0.164939	0.207663	-0.767822	0.250732	0.360840	0.098785	0.008234	-0.001238	0.252951	-0.695432	-0.252237	-0.623511	-158.473230	-84.169528	20.389392
10685		13.981415	1.036382	1.714931	3.322208	0.834596	3.889894	-0.670657	-0.100866	0.557453	-0.764893	0.261230	0.353516	0.139776	0.010811	0.017184	0.252214	-0.697308	-0.248347	-0.623276	-156.250923	-83.990377	17.768889
10686		9.477707	-8.363356	-2.206299	-6.161322	5.133741	0.203379	-1.527171	0.131301	0.829898	-0.770020	0.251709	0.368408	0.095109	-0.083405	-0.021488	0.249598	-0.699844	-0.240523	-0.624554	-152.819690	-83.852204	13.435785
10687		7.056608	-12.410865	-3.423652	-9.889691	7.347133	-1.827730	0.328790	0.013046	0.570320	-0.761963	0.264893	0.361572	0.070917	-0.123850	-0.034445	0.252531	-0.700092	-0.239551	-0.623470	-149.990986	-83.699756	10.779848
10688		9.273937	-7.664776	-2.261708	-5.721027	4.471299	0.043583	1.586695	-0.000452	-0.055064	-0.766357	0.268311	0.361328	0.092718	-0.076491	-0.023224	0.257875	-0.698021	-0.244681	-0.621609	-149.355457	-83.713670	11.052188
10689		10.585286	-1.974567	-2.022409	-1.685590	0.343237	1.007579	1.864804	0.010414	-0.396106	-0.763916	0.272705	0.352051	0.105813	-0.019766	-0.020414	0.263140	-0.695085	-0.251849	-0.619828	-150.079631	-83.830781	12.855487
10690		10.951843	3.085515	-1.008431	2.508685	-2.662323	1.008517	1.658637	0.012557	-0.387116	-0.777832	0.269043	0.352295	0.109577	0.030725	-0.009836	0.267683	-0.692371	-0.258306	-0.618260	-150.922320	-83.944208	14.655986
10691		10.208004	4.115551	-0.674847	3.398850	-3.157472	0.191044	0.798089	0.057943	-0.132123	-0.765869	0.277100	0.341064	0.102105	0.041115	-0.006614	0.270097	-0.690964	-0.261166	-0.617583	-150.963810	-84.007441	15.157548
10692		9.969985	2.197781	-1.149970	1.715714	-2.107709	0.095247	0.365938	0.052131	0.049091	-0.777344	0.277344	0.343750	0.099691	0.022023	-0.011485	0.271550	-0.690390	-0.262055	-0.617210	-150.407846	-84.017909	14.806619
10693		9.114721	0.307813	-1.356489	0.174893	-0.932841	-0.641421	0.327336	0.055558	0.154029	-0.767090	0.280029	0.343750	0.091141	0.003171	-0.013585	0.273215	-0.689992	-0.262472	-0.616744	-149.365859	-83.998663	13.947518
10694		9.266725	-0.471519	-1.270334	-0.285467	-0.329555	-0.457574	0.517944	0.063437	0.114287	-0.774658	0.281006	0.338135	0.092666	-0.004629	-0.012745	0.275406	-0.689255	-0.263589	-0.616117	-148.385647	-83.994176	13.257680
10695		9.606589	-0.821164	-1.135608	-0.397270	0.003238	-0.112553	0.585213	0.078199	0.090358	-0.778320	0.285400	0.338135	0.096065	-0.008135	-0.011418	0.277790	-0.688340	-0.264986	-0.615470	-147.432602	-84.002218	12.636562
10696		9.103671	-0.974795	-1.178876	-0.585547	0.050021	-0.600120	0.735274	0.071348	0.072117	-0.784424	0.290771	0.329102	0.091036	-0.009672	-0.011857	0.280606	-0.687208	-0.266902	-0.614629	-146.497940	-84.012334	12.117843
10697		9.347291	0.060779	-0.510459	0.642845	-0.206181	-0.475645	0.832450	0.051067	0.029459	-0.779297	0.299561	0.331543	0.093472	0.000643	-0.005126	0.283609	-0.685933	-0.269300	-0.613628	-145.758230	-84.024893	11.853683
10698		9.612235	0.781442	0.089030	1.601728	-0.273530	-0.306201	0.695778	0.058533	0.024832	-0.780029	0.294434	0.322998	0.096122	0.007823	0.000889	0.286122	-0.684813	-0.271269	-0.612844	-145.093738	-84.042858	11.584311
10699		9.430177	0.447461	-0.109938	1.207858	-0.194780	-0.450867	0.558390	0.061093	0.059713	-0.775635	0.299316	0.324463	0.094300	0.004506	-0.001116	0.288285	-0.683922	-0.272702	-0.612190	-144.339441	-84.049411	11.147622
10700		9.116508	0.048676	-0.296418	0.763745	-0.071814	-0.723547	0.529052	0.044718	0.108714	-0.772949	0.299072	0.323242	0.091164	0.000544	-0.002983	0.290459	-0.683185	-0.273889	-0.611454	-143.439379	-84.031994	10.545261
10701		9.393656	0.323102	-0.200500	1.065669	-0.192801	-0.473923	0.532455	0.012844	0.141811	-0.778320	0.303467	0.316895	0.093934	0.003303	-0.002002	0.292715	-0.682580	-0.275028	-0.610542	-142.501722	-83.986766	9.909235
10702		9.667229	0.083121	-0.236021	0.907142	-0.061315	-0.185059	0.443370	-0.014599	0.183381	-0.773682	0.308105	0.323486	0.096672	0.000925	-0.002351	0.294738	-0.682243	-0.275781	-0.609605	-141.544917	-83.914247	9.200300
10703		9.577337	-0.484498	-0.075537	0.603656	0.427411	-0.251374	0.441353	-0.049804	0.206224	-0.777832	0.312744	0.312744	0.095778	-0.004745	-0.000742	0.296789	-0.682043	-0.276510	-0.608503	-140.631202	-83.815751	8.535685
10704		9.758514	-0.353231	0.157614	0.893475	0.505356	-0.100608	0.468751	-0.084218	0.219631	-0.776123	0.316162	0.312256	0.097588	-0.003429	0.001609	0.298911	-0.681921	-0.277317	-0.607232	-139.790318	-83.696992	7.957840
10705		9.650488	-0.355693	-0.132363	0.709387	0.282076	-0.184961	0.461951	-0.120926	0.218654	-0.776123	0.321777	0.310791	0.096509	-0.003448	-0.001273	0.300968	-0.681915	-0.278169	-0.605832	-139.103813	-83.560911	7.533422
10706		10.034519	0.214744	-0.140872	1.195794	-0.101448	0.153117	0.412919	-0.153834	0.208666	-0.779785	0.317627	0.315918	0.100344	0.002255	-0.001327	0.302768	-0.682063	-0.278946	-0.604410	-138.613974	-83.414901	7.276762
10707		9.654104	0.103460	-0.358507	0.955731	-0.198410	-0.200815	0.240831	-0.187959	0.248314	-0.777100	0.328369	0.320313	0.096543	0.001159	-0.003493	0.304063	-0.682627	-0.279126	-0.603038	-138.203854	-83.237984	7.002802
10708		9.783992	-0.127425	-0.196070	0.936702	0.075265	-0.071126	0.161520	-0.203103	0.281313	-0.775146	0.326660	0.323975	0.097844	-0.001135	-0.001862	0.305150	-0.683401	-0.278967	-0.601684	-137.790315	-83.042769	6.677290
10709		9.613065	-0.729937	-0.441697	0.340092	0.280489	-0.171916	0.049764	-0.204873	0.316824	-0.770264	0.328613	0.314941	0.096147	-0.007146	-0.004320	0.305973	-0.684398	-0.278362	-0.600412	-137.344735	-82.831765	6.257065
10710		9.512316	-1.717354	-1.166235	-0.846242	0.378920	-0.120746	0.039120	-0.236227	0.319556	-0.775146	0.327637	0.326416	0.095164	-0.017019	-0.011553	0.306709	-0.685506	-0.277752	-0.599053	-137.016903	-82.607257	5.946974
10711		9.870543	-1.645877	-1.607623	-0.995673	0.003021	0.273416	0.072198	-0.262882	0.272974	-0.768799	0.335693	0.320068	0.098749	-0.016318	-0.015952	0.307395	-0.686576	-0.277451	-0.597614	-136.911731	-82.388574	5.882647
10712		9.927409	-1.534681	-1.850399	-1.025853	-0.249371	0.346939	0.017341	-0.263024	0.232415	-0.771240	0.333984	0.321289	0.099316	-0.015230	-0.018375	0.307755	-0.687673	-0.277114	-0.596323	-136.967371	-82.186712	5.946585
10713		10.170728	-1.186271	-1.487740	-0.464094	-0.196714	0.522213	-0.019962	-0.213998	0.189837	-0.770996	0.334961	0.313965	0.101734	-0.011768	-0.014767	0.307942	-0.688619	-0.276746	-0.595304	-137.030719	-82.021006	5.999023
10714		10.012011	-1.571980	-1.496408	-0.752620	0.051427	0.404043	-0.157543	-0.150577	0.200860	-0.774658	0.332275	0.324463	0.100147	-0.015631	-0.014876	0.307764	-0.689602	-0.275825	-0.594686	-136.964517	-81.878543	5.839271
10715		9.628932	-2.531094	-1.760807	-1.669553	0.480565	0.147474	-0.191898	-0.116979	0.204307	-0.769043	0.337891	0.324707	0.096325	-0.025229	-0.017528	0.307535	-0.690541	-0.274745	-0.594214	-136.820535	-81.747767	5.582754
10716		9.668665	-2.520854	-1.539643	-1.491573	0.641946	0.165858	-0.065351	-0.097295	0.138750	-0.761719	0.331787	0.328125	0.096712	-0.025146	-0.015341	0.307562	-0.691137	-0.274228	-0.593746	-136.744560	-81.651727	5.466172
