// General information: 
//  MT Manager version: 2019.2.0 
//  XDA version: 2019.2.0 build 3853 rev 94535 built on 2019-09-09
// Device information: 
//  DeviceId: 00B47791
//  ProductCode: MTW2-3A7G6
//  Firmware Version: 4.6.0
//  Hardware Version: 2.0.0
// Device settings: 
//  Filter Profile: human(46.1)
//  Option Flags: Orientation Smoother Disabled, AHS Disabled, ICC Disabled
// Coordinate system: ENU
PacketCounter	SampleTimeFine	Acc_X	Acc_Y	Acc_Z	FreeAcc_E	FreeAcc_N	FreeAcc_U	Gyr_X	Gyr_Y	Gyr_Z	Mag_X	Mag_Y	Mag_Z	VelInc_X	VelInc_Y	VelInc_Z	Quat_q0	Quat_q1	Quat_q2	Quat_q3	Roll	Pitch	Yaw
23472		9.748384	0.281420	-0.644362	-0.003663	0.000168	-0.038979	-0.000180	-0.011587	-0.008203	-1.076904	-0.218994	-0.355225	0.097484	0.002810	-0.006438	0.628979	0.304303	-0.663719	0.266949	156.765059	-85.865693	-109.083123
23473		9.756305	0.243589	-0.630863	0.013973	-0.036849	-0.033053	0.001034	-0.015429	-0.011347	-1.069824	-0.225830	-0.362061	0.097564	0.002430	-0.006301	0.628927	0.304316	-0.663780	0.266907	156.814243	-85.856189	-109.134780
23474		9.748137	0.283297	-0.647258	-0.005479	0.001213	-0.038980	0.005553	-0.016764	-0.008107	-1.072510	-0.224609	-0.362793	0.097482	0.002829	-0.006464	0.628855	0.304341	-0.663841	0.266895	156.894581	-85.846638	-109.213816
23475		9.756042	0.245429	-0.634199	0.012152	-0.035806	-0.033046	0.001758	-0.019086	-0.011061	-1.065674	-0.229248	-0.362793	0.097561	0.002449	-0.006333	0.628789	0.304360	-0.663913	0.266850	156.956986	-85.835262	-109.278314
23476		9.748016	0.264766	-0.664529	0.016835	-0.001644	-0.038475	0.010826	-0.024773	-0.010163	-1.072266	-0.224365	-0.374023	0.097481	0.002643	-0.006633	0.628687	0.304421	-0.663987	0.266837	157.046618	-85.821103	-109.363502
23477		9.789110	0.272374	-0.631970	-0.013559	-0.025375	0.000539	0.008693	-0.026595	-0.011318	-1.061768	-0.225586	-0.358643	0.097892	0.002718	-0.006307	0.628586	0.304472	-0.664072	0.266803	157.133150	-85.805693	-109.448210
23478		9.768166	0.280481	-0.645353	-0.011731	-0.010750	-0.019222	0.007986	-0.024447	-0.014391	-1.072266	-0.224365	-0.367920	0.097683	0.002798	-0.006441	0.628498	0.304531	-0.664145	0.266763	157.188346	-85.790882	-109.501484
23479		9.801777	0.265916	-0.667509	0.011623	-0.008651	0.015380	0.004646	-0.023182	-0.013797	-1.070313	-0.224365	-0.364014	0.098019	0.002653	-0.006664	0.628418	0.304574	-0.664221	0.266713	157.243465	-85.776711	-109.557023
23480		9.760072	0.281043	-0.691566	0.016155	0.020049	-0.024143	0.007990	-0.024446	-0.014389	-1.070557	-0.221191	-0.363525	0.097602	0.002804	-0.006904	0.628329	0.304632	-0.664295	0.266672	157.298615	-85.761882	-109.610383
23481		9.780413	0.296094	-0.669933	-0.011547	0.010409	-0.004899	0.002055	-0.027838	-0.017099	-1.075928	-0.225098	-0.372559	0.097805	0.002953	-0.006686	0.628242	0.304684	-0.664384	0.266596	157.341846	-85.744513	-109.655491
23482		9.767540	0.265650	-0.668538	0.008799	-0.012509	-0.018704	0.005846	-0.024758	-0.012754	-1.072266	-0.221924	-0.365723	0.097676	0.002650	-0.006673	0.628155	0.304726	-0.664465	0.266550	157.407731	-85.729936	-109.721433
23483		9.779935	0.298937	-0.675625	-0.013327	0.011493	-0.004902	0.002573	-0.038551	-0.016639	-1.077637	-0.222900	-0.351807	0.097801	0.002981	-0.006737	0.628031	0.304792	-0.664588	0.266461	157.485084	-85.706993	-109.800462
23484		9.787559	0.282190	-0.651382	-0.019824	-0.021611	0.000538	0.007116	-0.041390	-0.016190	-1.072754	-0.218262	-0.364502	0.097877	0.002814	-0.006493	0.627888	0.304879	-0.664713	0.266388	157.576472	-85.682641	-109.890267
23485		9.766669	0.270037	-0.679416	0.006086	-0.010929	-0.018700	0.004237	-0.037293	-0.013445	-1.072510	-0.224121	-0.366455	0.097668	0.002694	-0.006776	0.627761	0.304938	-0.664835	0.266316	157.671716	-85.661042	-109.986288
23486		9.779200	0.282801	-0.700257	0.008066	0.009193	-0.004378	0.008997	-0.033828	-0.014565	-1.070801	-0.229248	-0.367432	0.097793	0.002821	-0.006986	0.627642	0.305006	-0.664938	0.266260	157.750905	-85.641240	-110.064055
23487		9.766139	0.272601	-0.685982	0.004300	-0.009846	-0.018698	0.008257	-0.028663	-0.012062	-1.069092	-0.223633	-0.355225	0.097663	0.002720	-0.006846	0.627536	0.305062	-0.665029	0.266219	157.831899	-85.624498	-110.143480
23488		9.753099	0.262361	-0.671596	0.000557	-0.028877	-0.033016	0.009470	-0.031748	-0.013809	-1.072754	-0.221924	-0.361572	0.097532	0.002617	-0.006700	0.627418	0.305135	-0.665123	0.266176	157.908142	-85.605829	-110.216653
23489		9.765442	0.295584	-0.678959	-0.021568	-0.004865	-0.019234	0.010211	-0.036157	-0.014914	-1.071533	-0.216309	-0.359131	0.097656	0.002949	-0.006772	0.627288	0.305216	-0.665231	0.266122	157.990246	-85.584478	-110.296073
23490		9.778306	0.267538	-0.726338	0.028577	0.007409	-0.003837	0.011624	-0.031430	-0.015441	-1.066406	-0.220947	-0.358154	0.097784	0.002668	-0.007248	0.627173	0.305293	-0.665322	0.266075	158.056654	-85.565672	-110.359479
23491		9.798499	0.302954	-0.691819	-0.023241	0.001719	0.014847	0.008748	-0.028090	-0.014090	-1.063477	-0.222900	-0.361816	0.097986	0.003023	-0.006904	0.627071	0.305356	-0.665408	0.266030	158.120009	-85.548770	-110.420938
23492		9.811081	0.315834	-0.711226	-0.021259	0.021840	0.029161	0.002481	-0.012965	-0.016035	-1.067627	-0.221680	-0.369141	0.098112	0.003151	-0.007106	0.627032	0.305384	-0.665451	0.265981	158.124094	-85.539670	-110.426697
23493		9.777372	0.312827	-0.705757	-0.022284	0.016861	-0.004926	-0.002061	-0.010128	-0.016476	-1.069580	-0.220215	-0.350098	0.097774	0.003120	-0.007053	0.627009	0.305397	-0.665491	0.265921	158.115470	-85.531806	-110.422171
23494		9.738783	0.300613	-0.641183	-0.055858	-0.037363	-0.048423	-0.003258	-0.008552	-0.017515	-1.072754	-0.219727	-0.361816	0.097388	0.002998	-0.006408	0.626996	0.305406	-0.665526	0.265854	158.094832	-85.524725	-110.406591
23495		9.718007	0.288676	-0.666700	-0.029920	-0.026709	-0.067644	-0.003195	-0.020586	-0.016408	-1.072998	-0.224121	-0.353516	0.097181	0.002879	-0.006657	0.626940	0.305429	-0.665601	0.265774	158.114571	-85.511316	-110.431166
23496		9.738776	0.263089	-0.671920	-0.009476	-0.044158	-0.047319	-0.003115	-0.034129	-0.018086	-1.072021	-0.226563	-0.356201	0.097389	0.002622	-0.006703	0.626840	0.305476	-0.665714	0.265669	158.159965	-85.490441	-110.481311
23497		9.759104	0.278535	-0.651650	-0.037216	-0.053757	-0.028104	-0.000426	-0.044521	-0.019256	-1.071533	-0.221680	-0.360352	0.097593	0.002776	-0.006495	0.626704	0.305549	-0.665856	0.265552	158.226050	-85.463690	-110.550787
23498		9.797115	0.294341	-0.721816	-0.005421	0.001563	0.015389	0.001523	-0.050503	-0.019320	-1.075684	-0.223633	-0.354004	0.097973	0.002934	-0.007193	0.626545	0.305638	-0.666012	0.265435	158.307429	-85.433849	-110.634183
23499		9.796897	0.275735	-0.739739	0.017766	-0.001847	0.015950	0.007204	-0.042877	-0.018948	-1.071777	-0.220215	-0.356689	0.097971	0.002748	-0.007376	0.626402	0.305731	-0.666138	0.265347	158.373886	-85.408025	-110.699652
23500		9.822175	0.279947	-0.791533	0.046679	0.033902	0.045136	0.001173	-0.031226	-0.017172	-1.073975	-0.230225	-0.357422	0.098223	0.002791	-0.007900	0.626304	0.305785	-0.666238	0.265264	158.418065	-85.388862	-110.746106
23501		9.817194	0.272203	-0.735033	0.013199	-0.014831	0.035727	0.006565	-0.017115	-0.014950	-1.064941	-0.218994	-0.356934	0.098173	0.002715	-0.007342	0.626242	0.305829	-0.666291	0.265226	158.442298	-85.377598	-110.769584
23502		9.796210	0.280425	-0.747043	0.015082	-0.000237	0.015955	0.003412	-0.008802	-0.014528	-1.062256	-0.218750	-0.360596	0.097963	0.002797	-0.007466	0.626213	0.305852	-0.666321	0.265193	158.444909	-85.370997	-110.772962
23503		9.795930	0.302256	-0.734515	-0.009906	0.004230	0.015385	0.000066	-0.007545	-0.013927	-1.067383	-0.226074	-0.358398	0.097960	0.003016	-0.007341	0.626192	0.305860	-0.666354	0.265151	158.447171	-85.365048	-110.778134
23504		9.762438	0.278474	-0.742251	0.013218	-0.004680	-0.018124	0.001546	-0.014851	-0.013350	-1.071289	-0.227051	-0.359375	0.097625	0.002778	-0.007415	0.626146	0.305876	-0.666409	0.265103	158.471902	-85.355578	-110.805568
23505		9.774988	0.291166	-0.761087	0.015184	0.015418	-0.003817	0.001540	-0.014096	-0.011957	-1.069824	-0.223633	-0.360596	0.097751	0.002906	-0.007604	0.626098	0.305891	-0.666464	0.265062	158.504772	-85.346551	-110.840602
23506		9.816552	0.278962	-0.741038	0.008764	-0.012121	0.035736	0.004168	-0.013963	-0.017024	-1.072754	-0.228027	-0.354004	0.098166	0.002781	-0.007403	0.626055	0.305929	-0.666505	0.265014	158.504192	-85.336736	-110.840668
23507		9.795574	0.287142	-0.752804	0.010641	0.002448	0.015961	0.003401	-0.007292	-0.011742	-1.071533	-0.224854	-0.357422	0.097956	0.002866	-0.007524	0.626027	0.305940	-0.666537	0.264991	158.521861	-85.331381	-110.859381
23508		9.795494	0.288202	-0.753442	0.009758	0.002984	0.015961	0.005533	-0.005464	-0.010597	-1.072998	-0.231201	-0.357910	0.097955	0.002877	-0.007532	0.625999	0.305955	-0.666558	0.264984	158.542591	-85.327332	-110.879312
23509		9.782784	0.277905	-0.735937	0.005996	-0.016069	0.001660	0.004252	0.007388	-0.014139	-1.071045	-0.225098	-0.362061	0.097828	0.002772	-0.007363	0.626022	0.305956	-0.666539	0.264978	158.507387	-85.329300	-110.844486
23510		9.761752	0.306454	-0.732560	-0.016166	0.002466	-0.018705	0.002575	0.008393	-0.013142	-1.064941	-0.220459	-0.356445	0.097617	0.003058	-0.007330	0.626049	0.305950	-0.666517	0.264974	158.473176	-85.332190	-110.811292
23511		9.790627	0.303066	-0.679479	-0.049588	-0.040712	0.005958	0.004707	0.010221	-0.011997	-1.067871	-0.230225	-0.359619	0.097906	0.003025	-0.006800	0.626078	0.305943	-0.666492	0.264981	158.444848	-85.336116	-110.783104
23512		9.757301	0.279039	-0.685344	-0.026446	-0.049658	-0.027530	0.003311	0.005495	-0.011460	-1.064697	-0.227295	-0.350342	0.097573	0.002785	-0.006856	0.626093	0.305935	-0.666482	0.264978	158.429979	-85.337824	-110.769176
23513		9.769974	0.291691	-0.702392	-0.024482	-0.029553	-0.013230	0.004529	0.002412	-0.013207	-1.062256	-0.218506	-0.364258	0.097700	0.002911	-0.007025	0.626097	0.305941	-0.666479	0.264968	158.413768	-85.337332	-110.753248
23514		9.770137	0.272566	-0.715747	-0.001273	-0.032955	-0.012633	0.001471	-0.002819	-0.014458	-1.065430	-0.226074	-0.355469	0.097702	0.002719	-0.007156	0.626092	0.305947	-0.666494	0.264936	158.400263	-85.333999	-110.742104
23515		9.782758	0.285354	-0.733427	0.000690	-0.012849	0.001666	0.003134	-0.002314	-0.012670	-1.063965	-0.225342	-0.356934	0.097828	0.002847	-0.007333	0.626082	0.305953	-0.666508	0.264916	158.398982	-85.331103	-110.741958
23516		9.770229	0.254597	-0.729708	0.021039	-0.035849	-0.012027	0.007686	-0.005142	-0.012233	-1.057861	-0.225342	-0.365479	0.097703	0.002540	-0.007294	0.626056	0.305977	-0.666524	0.264911	158.409110	-85.326940	-110.750300
23517		9.728370	0.269292	-0.752402	0.025750	-0.007264	-0.051586	0.008996	-0.020256	-0.012864	-1.064209	-0.219727	-0.356689	0.097285	0.002687	-0.007514	0.625977	0.306027	-0.666587	0.264883	158.456070	-85.314443	-110.795186
23518		9.741059	0.261620	-0.785108	0.051839	0.008919	-0.036681	0.007803	-0.019437	-0.015294	-1.072266	-0.224854	-0.363281	0.097412	0.002609	-0.007842	0.625910	0.306072	-0.666645	0.264840	158.482768	-85.302188	-110.821386
23519		9.795296	0.261064	-0.782743	0.048186	0.000966	0.017183	0.009665	-0.013385	-0.016473	-1.061279	-0.222168	-0.361084	0.097954	0.002603	-0.007821	0.625858	0.306127	-0.666680	0.264813	158.488813	-85.292591	-110.824836
23520		9.815851	0.276187	-0.759584	0.020426	-0.008530	0.036358	0.011970	-0.003746	-0.014121	-1.066895	-0.226074	-0.353271	0.098159	0.002755	-0.007594	0.625836	0.306161	-0.666686	0.264812	158.485531	-85.288932	-110.818535
23521		9.820280	0.307138	-0.804840	0.028065	0.045192	0.045161	0.012325	0.011119	-0.013097	-1.072266	-0.224365	-0.354248	0.098203	0.003065	-0.008054	0.625857	0.306180	-0.666645	0.264842	158.452420	-85.293106	-110.781166
23522		9.841240	0.301501	-0.792672	0.024354	0.031703	0.064945	0.007013	0.019106	-0.011040	-1.060303	-0.223877	-0.366455	0.098412	0.003010	-0.007936	0.625909	0.306167	-0.666588	0.264876	158.408803	-85.302042	-110.735799
23523		9.807865	0.297721	-0.783598	0.023412	0.026667	0.030870	0.005975	0.029245	-0.009479	-1.059570	-0.227783	-0.357910	0.098078	0.002973	-0.007850	0.625996	0.306130	-0.666505	0.264924	158.348680	-85.316629	-110.674978
23524		9.795408	0.287431	-0.763105	0.019699	0.007642	0.016581	0.004523	0.033530	-0.015624	-1.058350	-0.228027	-0.353760	0.097953	0.002867	-0.007647	0.626110	0.306099	-0.666400	0.264952	158.233833	-85.332488	-110.560638
23525		9.790923	0.279494	-0.700776	-0.013830	-0.041056	0.007165	0.006639	0.036872	-0.011694	-1.069092	-0.230713	-0.361572	0.097908	0.002789	-0.007026	0.626224	0.306061	-0.666289	0.265008	158.138677	-85.350644	-110.464291
23526		9.757823	0.255406	-0.704257	0.009349	-0.050064	-0.026282	0.006002	0.027738	-0.012257	-1.068848	-0.218262	-0.363525	0.097577	0.002548	-0.007056	0.626309	0.306040	-0.666203	0.265049	158.060882	-85.363933	-110.384999
23527		9.757949	0.256509	-0.702103	0.008450	-0.049541	-0.026279	0.008237	0.016782	-0.011385	-1.067871	-0.218262	-0.362305	0.097579	0.002560	-0.007029	0.626353	0.306032	-0.666153	0.265079	158.020676	-85.371460	-110.342866
23528		9.765932	0.259779	-0.659499	-0.022218	-0.078596	-0.021406	0.012609	0.006902	-0.010759	-1.062500	-0.231201	-0.369873	0.097659	0.002593	-0.006598	0.626361	0.306039	-0.666132	0.265104	158.013890	-85.374164	-110.333333
23529		9.778879	0.251769	-0.689696	0.003822	-0.062460	-0.006484	0.013822	0.004575	-0.011111	-1.067139	-0.226318	-0.364258	0.097789	0.002513	-0.006899	0.626356	0.306064	-0.666113	0.265135	158.010940	-85.375263	-110.325368
23530		9.791592	0.264185	-0.706274	0.005830	-0.042311	0.007805	0.016133	0.013463	-0.010150	-1.063721	-0.224609	-0.365479	0.097916	0.002637	-0.007069	0.626378	0.306079	-0.666064	0.265189	157.989563	-85.381571	-110.297997
23531		9.791671	0.264981	-0.704876	0.004928	-0.041786	0.007808	0.022073	0.016124	-0.008853	-1.072998	-0.227539	-0.364746	0.097916	0.002646	-0.007056	0.626395	0.306108	-0.666001	0.265273	157.975441	-85.389289	-110.274081
23532		9.770654	0.293160	-0.700388	-0.017181	-0.023233	-0.012620	0.018200	0.025062	-0.014297	-1.072754	-0.225830	-0.363281	0.097706	0.002925	-0.007016	0.626458	0.306127	-0.665907	0.265338	157.898178	-85.400809	-110.189523
23533		9.758080	0.282752	-0.680970	-0.020942	-0.042300	-0.026903	0.017065	0.016869	-0.010041	-1.069092	-0.225586	-0.369873	0.097580	0.002823	-0.006818	0.626487	0.306143	-0.665847	0.265403	157.871075	-85.408662	-110.155463
23534		9.762647	0.313316	-0.725421	-0.013246	0.011453	-0.018129	0.014757	0.007980	-0.010999	-1.066895	-0.229980	-0.361816	0.097626	0.003128	-0.007258	0.626494	0.306162	-0.665817	0.265440	157.859446	-85.411818	-110.138844
23535		9.749969	0.302938	-0.707437	-0.017004	-0.007616	-0.032412	0.010501	0.004314	-0.013291	-1.066162	-0.229492	-0.364014	0.097500	0.003023	-0.007076	0.626495	0.306185	-0.665800	0.265453	157.840776	-85.412306	-110.117019
23536		9.791695	0.290551	-0.685316	-0.023587	-0.035090	0.007169	0.007118	0.007833	-0.008521	-1.066650	-0.223633	-0.363037	0.097917	0.002902	-0.006857	0.626507	0.306178	-0.665782	0.265477	157.840927	-85.415831	-110.115692
23537		9.799924	0.273263	-0.655928	-0.030209	-0.068164	0.012681	0.004426	0.016708	-0.010147	-1.067139	-0.229736	-0.362793	0.097999	0.002728	-0.006567	0.626555	0.306155	-0.665739	0.265499	157.806097	-85.423574	-110.081146
23538		9.799990	0.274502	-0.654421	-0.031098	-0.067614	0.012682	-0.002692	0.014103	-0.015269	-1.063232	-0.221436	-0.365967	0.098000	0.002737	-0.006551	0.626613	0.306129	-0.665705	0.265477	157.739624	-85.428978	-110.018994
23539		9.787020	0.285026	-0.622846	-0.058939	-0.082689	-0.002252	-0.003796	0.003642	-0.015186	-1.065674	-0.229248	-0.364990	0.097870	0.002843	-0.006230	0.626637	0.306114	-0.665706	0.265436	157.701926	-85.428694	-109.986298
23540		9.807836	0.279819	-0.612052	-0.062690	-0.096131	0.017540	-0.002305	-0.003661	-0.014600	-1.062744	-0.221924	-0.362549	0.098079	0.002791	-0.006119	0.626635	0.306108	-0.665729	0.265388	157.688228	-85.424872	-109.977250
23541		9.820763	0.272464	-0.642967	-0.036661	-0.080001	0.032478	-0.006368	-0.001028	-0.018470	-1.061768	-0.225098	-0.366455	0.098208	0.002715	-0.006429	0.626652	0.306102	-0.665743	0.265321	157.640058	-85.421395	-109.935527
23542		9.833096	0.306489	-0.646805	-0.058767	-0.055843	0.046090	-0.014530	0.006505	-0.022037	-1.069580	-0.224609	-0.361084	0.098331	0.003054	-0.006471	0.626713	0.306069	-0.665739	0.265225	157.542864	-85.421332	-109.849824
23543		9.799544	0.304004	-0.639233	-0.059660	-0.060912	0.012018	-0.016477	0.011728	-0.023369	-1.062500	-0.224854	-0.372070	0.097995	0.003028	-0.006398	0.626794	0.306031	-0.665719	0.265128	157.421703	-85.423522	-109.740686
23544		9.795049	0.276779	-0.592447	-0.069146	-0.113545	0.003264	-0.021954	0.011143	-0.023919	-1.062988	-0.216064	-0.357666	0.097950	0.002755	-0.005930	0.626884	0.305974	-0.665708	0.265008	157.294897	-85.425469	-109.629537
23545		9.761493	0.274541	-0.584879	-0.070032	-0.118619	-0.030805	-0.019041	0.007060	-0.026652	-1.063477	-0.228760	-0.362793	0.097615	0.002732	-0.005852	0.626957	0.305945	-0.665701	0.264885	157.163346	-85.424426	-109.511450
23546		9.748781	0.265439	-0.566945	-0.073794	-0.137667	-0.045077	-0.017593	0.002779	-0.020505	-1.065674	-0.229736	-0.361328	0.097488	0.002644	-0.005671	0.627007	0.305904	-0.665715	0.264780	157.085593	-85.422609	-109.446611
23547		9.774100	0.290537	-0.601279	-0.068976	-0.097937	-0.016534	-0.014999	0.005940	-0.019999	-1.072510	-0.229004	-0.362549	0.097741	0.002895	-0.006016	0.627062	0.305867	-0.665716	0.264689	157.003437	-85.422431	-109.375753
23548		9.787122	0.283578	-0.630955	-0.042933	-0.081799	-0.001585	-0.005537	0.014420	-0.019475	-1.056885	-0.224609	-0.371826	0.097871	0.002826	-0.006317	0.627129	0.305849	-0.665678	0.264648	156.905900	-85.426930	-109.283561
23549		9.774879	0.253520	-0.624730	-0.022623	-0.104880	-0.015172	-0.010677	0.028701	-0.019000	-1.067139	-0.222900	-0.373779	0.097748	0.002526	-0.006261	0.627252	0.305792	-0.665603	0.264610	156.768437	-85.438947	-109.154737
23550		9.774305	0.296399	-0.595057	-0.071646	-0.096287	-0.016537	-0.009283	0.033434	-0.019531	-1.069336	-0.225098	-0.363770	0.097742	0.002954	-0.005967	0.627393	0.305728	-0.665513	0.264577	156.613182	-85.453603	-109.008316
23551		9.769936	0.268693	-0.546238	-0.081164	-0.148951	-0.025275	-0.007596	0.032435	-0.020522	-1.068604	-0.223633	-0.364990	0.097699	0.002677	-0.005478	0.627525	0.305681	-0.665421	0.264550	156.455101	-85.467181	-108.857043
23552		9.757351	0.259236	-0.526035	-0.084926	-0.168000	-0.039541	-0.013243	0.024788	-0.020894	-1.064941	-0.226563	-0.367432	0.097573	0.002582	-0.005273	0.627642	0.305626	-0.665359	0.264492	156.312958	-85.476769	-108.725110
23553		9.770081	0.272929	-0.541518	-0.082971	-0.147864	-0.025274	-0.012652	0.013325	-0.021815	-1.063232	-0.229736	-0.362061	0.097701	0.002718	-0.005422	0.627720	0.305592	-0.665331	0.264415	156.197721	-85.479967	-108.619725
23554		9.770864	0.233898	-0.567071	-0.035718	-0.155344	-0.023885	-0.013348	0.007959	-0.015429	-1.066650	-0.231689	-0.362305	0.097709	0.002331	-0.005675	0.627773	0.305543	-0.665330	0.264349	156.139504	-85.481955	-108.571703
23555		9.796594	0.238259	-0.614905	-0.006833	-0.119620	0.005346	-0.014412	-0.004014	-0.018142	-1.063721	-0.225098	-0.362793	0.097966	0.002373	-0.006147	0.627791	0.305515	-0.665364	0.264251	156.098341	-85.476902	-108.541635
23556		9.850950	0.238597	-0.610521	-0.010687	-0.127431	0.059219	-0.007331	0.006106	-0.022468	-1.068359	-0.221680	-0.361572	0.098510	0.002375	-0.006108	0.627838	0.305512	-0.665350	0.264182	156.002701	-85.476245	-108.452417
23557		9.856264	0.229634	-0.681709	0.045172	-0.081744	0.069351	-0.007172	0.013919	-0.021254	-1.063477	-0.227783	-0.365723	0.098562	0.002286	-0.006824	0.627909	0.305493	-0.665314	0.264126	155.892349	-85.479841	-108.348783
23558		9.868654	0.263695	-0.683361	0.023056	-0.057560	0.082918	-0.005469	0.034279	-0.019354	-1.063965	-0.230713	-0.369629	0.098686	0.002627	-0.006851	0.628043	0.305445	-0.665214	0.264113	155.734959	-85.494648	-108.196995
23559		9.855768	0.274581	-0.648739	-0.004782	-0.072614	0.067956	-0.007711	0.045235	-0.020215	-1.063965	-0.227051	-0.368652	0.098556	0.002736	-0.006510	0.628218	0.305379	-0.665082	0.264106	155.536181	-85.514789	-108.004975
23560		9.788921	0.266634	-0.631206	-0.005549	-0.083318	-0.000169	-0.006051	0.045747	-0.018421	-1.063232	-0.218994	-0.363525	0.097888	0.002657	-0.006335	0.628390	0.305312	-0.664948	0.264112	155.346207	-85.535755	-107.820873
23561		9.797730	0.229877	-0.612113	0.011837	-0.120398	0.006090	-0.007417	0.040260	-0.019282	-1.063477	-0.220215	-0.369141	0.097976	0.002289	-0.006141	0.628546	0.305251	-0.664832	0.264101	155.165713	-85.553432	-107.647033
23562		9.810615	0.243287	-0.625814	0.013788	-0.100224	0.020357	-0.005932	0.033712	-0.017313	-1.057129	-0.237061	-0.370605	0.098105	0.002424	-0.006275	0.628678	0.305192	-0.664740	0.264090	155.019156	-85.568333	-107.506936
23563		9.810333	0.265257	-0.609183	-0.011187	-0.095665	0.019648	-0.003092	0.033407	-0.013089	-1.062500	-0.221924	-0.365723	0.098102	0.002646	-0.006108	0.628796	0.305133	-0.664649	0.264103	154.901760	-85.583884	-107.393906
23564		9.823247	0.278344	-0.622581	-0.009216	-0.075498	0.033910	-0.006047	0.046507	-0.017017	-1.066162	-0.230713	-0.368408	0.098231	0.002775	-0.006249	0.628969	0.305061	-0.664514	0.264115	154.712912	-85.605401	-107.210676
23565		9.857095	0.284865	-0.623651	-0.010196	-0.069323	0.067976	-0.000254	0.062734	-0.014012	-1.066650	-0.231445	-0.367188	0.098569	0.002842	-0.006267	0.629182	0.304975	-0.664327	0.264179	154.494387	-85.635850	-106.994597
23566		9.823926	0.281300	-0.610415	-0.011015	-0.074415	0.033916	0.003459	0.075618	-0.014939	-1.061035	-0.231201	-0.378174	0.098237	0.002806	-0.006141	0.629433	0.304889	-0.664090	0.264276	154.225776	-85.672769	-106.725677
23567		9.811112	0.291423	-0.572319	-0.038846	-0.089460	0.018939	0.006775	0.076644	-0.011344	-1.062988	-0.224854	-0.376953	0.098109	0.002909	-0.005761	0.629677	0.304798	-0.663853	0.264393	153.976214	-85.710910	-106.474454
23568		9.764157	0.316814	-0.514848	-0.090639	-0.106080	-0.030830	0.006615	0.069587	-0.011165	-1.064697	-0.218750	-0.371826	0.097640	0.003163	-0.005182	0.629901	0.304712	-0.663639	0.264497	153.746363	-85.745624	-106.243547
23569		9.723364	0.310494	-0.543775	-0.061588	-0.081651	-0.069719	0.008845	0.059387	-0.008907	-1.064453	-0.221436	-0.373047	0.097232	0.003101	-0.005466	0.630082	0.304642	-0.663457	0.264602	153.565994	-85.775376	-106.060541
23570		9.711359	0.279569	-0.534949	-0.041279	-0.104736	-0.083240	0.010263	0.041251	-0.015117	-1.055420	-0.228027	-0.368896	0.097113	0.002789	-0.005369	0.630211	0.304617	-0.663323	0.264663	153.404798	-85.794401	-105.896540
23571		9.677408	0.296134	-0.511834	-0.066153	-0.105819	-0.118033	0.013640	0.030987	-0.009038	-1.052734	-0.229492	-0.370361	0.096773	0.002957	-0.005133	0.630290	0.304600	-0.663224	0.264740	153.321779	-85.809504	-105.808401
23572		9.690283	0.308763	-0.526656	-0.064176	-0.085653	-0.103783	0.015212	0.020664	-0.014028	-1.056885	-0.228760	-0.369629	0.096902	0.003081	-0.005276	0.630340	0.304620	-0.663146	0.264794	153.239875	-85.818166	-105.720057
23573		9.723906	0.314942	-0.531380	-0.065169	-0.079466	-0.069724	0.014545	0.013029	-0.011827	-1.065430	-0.232910	-0.379395	0.097239	0.003144	-0.005320	0.630362	0.304639	-0.663098	0.264839	153.200375	-85.823348	-105.675035
23574		9.716443	0.313788	-0.572212	-0.036171	-0.049377	-0.074545	0.015606	0.002887	-0.013397	-1.062744	-0.228271	-0.371338	0.097165	0.003132	-0.005723	0.630351	0.304681	-0.663077	0.264868	153.185422	-85.823095	-105.653777
23575		9.730303	0.285482	-0.615991	0.013920	-0.037318	-0.058808	0.017979	0.000502	-0.009921	-1.066406	-0.229980	-0.383301	0.097303	0.002851	-0.006160	0.630325	0.304721	-0.663068	0.264910	153.205505	-85.822361	-105.666523
23576		9.784083	0.305261	-0.598143	-0.014093	-0.041008	-0.005681	0.019197	-0.001823	-0.010269	-1.062256	-0.231689	-0.375000	0.097841	0.003048	-0.005980	0.630290	0.304768	-0.663062	0.264952	153.231421	-85.820541	-105.684541
23577		9.755788	0.310227	-0.650852	0.017854	0.003007	-0.030309	0.020825	-0.000555	-0.007081	-1.055664	-0.227539	-0.374756	0.097558	0.003099	-0.006508	0.630251	0.304809	-0.663056	0.265012	153.276722	-85.819998	-105.720938
23578		9.755191	0.331409	-0.637787	-0.007090	0.007611	-0.031059	0.017061	-0.002908	-0.010035	-1.061279	-0.233398	-0.382080	0.097552	0.003310	-0.006376	0.630215	0.304851	-0.663057	0.265047	153.306691	-85.817665	-105.744053
23579		9.788103	0.357951	-0.631770	-0.032165	0.017861	0.002243	0.026998	-0.015197	-0.014385	-1.068359	-0.227539	-0.375977	0.097882	0.003573	-0.006310	0.630128	0.304955	-0.663078	0.265081	153.355808	-85.807743	-105.780730
23580		9.800700	0.370326	-0.651219	-0.030189	0.038046	0.016483	0.022249	-0.026962	-0.005222	-1.066406	-0.228516	-0.374268	0.098008	0.003701	-0.006499	0.629999	0.305028	-0.663156	0.265110	153.506038	-85.794339	-105.921693
23581		9.827122	0.353194	-0.715228	0.022749	0.069718	0.046483	0.018999	-0.029499	-0.011592	-1.068115	-0.221191	-0.377441	0.098272	0.003527	-0.007137	0.629873	0.305117	-0.663236	0.265105	153.618758	-85.777782	-106.026742
23582		9.847144	0.368141	-0.693657	-0.005186	0.060390	0.065534	0.017036	-0.023522	-0.011534	-1.060791	-0.229736	-0.374756	0.098472	0.003676	-0.006925	0.629772	0.305187	-0.663302	0.265102	153.709736	-85.764492	-106.111552
23583		9.801759	0.311701	-0.698592	0.039305	0.027513	0.018760	0.015562	-0.016973	-0.013506	-1.067383	-0.224609	-0.366943	0.098018	0.003111	-0.006977	0.629696	0.305255	-0.663345	0.265098	153.763056	-85.753862	-106.159016
23584		9.813819	0.345012	-0.703859	0.017202	0.051748	0.032236	0.011179	-0.007105	-0.014145	-1.059570	-0.226807	-0.372803	0.098139	0.003444	-0.007035	0.629660	0.305297	-0.663361	0.265094	153.775783	-85.748283	-106.168208
23585		9.788256	0.323273	-0.669600	0.010591	0.013031	0.003755	0.013510	0.000288	-0.015949	-1.067627	-0.228760	-0.373779	0.097883	0.003225	-0.006696	0.629647	0.305344	-0.663348	0.265103	153.752043	-85.745904	-106.139580
23586		9.763297	0.281241	-0.648036	0.028053	-0.029722	-0.023951	0.013253	0.004512	-0.018270	-1.062012	-0.232910	-0.373047	0.097633	0.002804	-0.006482	0.629652	0.305390	-0.663319	0.265110	153.697595	-85.745274	-106.080383
23587		9.758047	0.273640	-0.588773	-0.005609	-0.078327	-0.033380	0.018240	0.004547	-0.015665	-1.068848	-0.233643	-0.373291	0.097581	0.002729	-0.005890	0.629646	0.305445	-0.663287	0.265141	153.664043	-85.745151	-106.039198
23588		9.737160	0.281715	-0.600119	-0.003503	-0.063837	-0.053194	0.023444	-0.011239	-0.018898	-1.060547	-0.229736	-0.377441	0.097372	0.002809	-0.005995	0.629583	0.305549	-0.663291	0.265158	153.664384	-85.736235	-106.028645
23589		9.737018	0.283283	-0.601694	-0.004402	-0.063310	-0.053191	0.031624	-0.019501	-0.016692	-1.068848	-0.233398	-0.373047	0.097371	0.002826	-0.006007	0.629478	0.305681	-0.663316	0.265194	153.713374	-85.723501	-106.062541
23590		9.709073	0.268189	-0.669519	0.051686	-0.023383	-0.077028	0.034498	-0.021306	-0.015242	-1.063477	-0.233398	-0.379639	0.097092	0.002676	-0.006684	0.629362	0.305819	-0.663344	0.265242	153.779156	-85.710379	-106.111613
23591		9.728570	0.303907	-0.634274	-0.000330	-0.028664	-0.058769	0.037842	-0.021784	-0.014430	-1.060303	-0.230957	-0.370361	0.097287	0.003033	-0.006332	0.629236	0.305966	-0.663371	0.265302	153.854291	-85.697037	-106.168156
23592		9.707567	0.311545	-0.647300	0.001795	-0.014175	-0.078587	0.038765	-0.018371	-0.014318	-1.065186	-0.231201	-0.363281	0.097076	0.003110	-0.006463	0.629122	0.306111	-0.663385	0.265372	153.918100	-85.685657	-106.212812
23593		9.719547	0.344577	-0.653327	-0.020304	0.010049	-0.065141	0.038259	-0.018182	-0.010897	-1.058838	-0.221191	-0.374512	0.097196	0.003442	-0.006524	0.629003	0.306243	-0.663406	0.265450	154.004810	-85.675047	-106.280725
23594		9.711236	0.363557	-0.683813	-0.015334	0.044166	-0.070732	0.033580	-0.023956	-0.013948	-1.064941	-0.234619	-0.369873	0.097113	0.003630	-0.006826	0.628877	0.306376	-0.663446	0.265494	154.087246	-85.660849	-106.347154
23595		9.731288	0.378640	-0.662179	-0.043296	0.034832	-0.051708	0.030956	-0.025612	-0.011678	-1.064209	-0.229736	-0.366943	0.097314	0.003782	-0.006609	0.628746	0.306497	-0.663498	0.265534	154.188050	-85.646198	-106.433402
23596		9.731099	0.379533	-0.664443	-0.044182	0.035379	-0.051714	0.027291	-0.018642	-0.010647	-1.064209	-0.228760	-0.366455	0.097312	0.003791	-0.006635	0.628642	0.306596	-0.663533	0.265579	154.270206	-85.635513	-106.502701
23597		9.752366	0.353496	-0.668391	-0.024035	0.017901	-0.031100	0.021527	-0.014276	-0.012156	-1.068359	-0.225342	-0.375732	0.097524	0.003530	-0.006677	0.628563	0.306674	-0.663562	0.265603	154.324534	-85.626577	-106.547758
23598		9.738968	0.363551	-0.639232	-0.051838	0.002903	-0.046132	0.023668	-0.013187	-0.012392	-1.060547	-0.236816	-0.366699	0.097390	0.003630	-0.006385	0.628486	0.306756	-0.663584	0.265635	154.375066	-85.618323	-106.588106
23599		9.739398	0.343971	-0.654081	-0.028677	-0.000647	-0.045335	0.017987	-0.019344	-0.009990	-1.066650	-0.231445	-0.372803	0.097395	0.003435	-0.006531	0.628394	0.306822	-0.663636	0.265647	154.457869	-85.607297	-106.663755
23600		9.738076	0.386059	-0.629763	-0.077673	0.008058	-0.046947	0.014221	-0.021710	-0.012931	-1.068848	-0.234619	-0.364258	0.097382	0.003855	-0.006287	0.628303	0.306892	-0.663695	0.265636	154.525261	-85.594456	-106.725801
23601		9.746621	0.348766	-0.617179	-0.060392	-0.029052	-0.040550	0.015758	-0.029766	-0.013717	-1.067139	-0.228760	-0.366943	0.097467	0.003481	-0.006157	0.628183	0.306977	-0.663777	0.265612	154.614174	-85.577104	-106.808863
23602		9.725504	0.356427	-0.631407	-0.058258	-0.014584	-0.060379	0.015605	-0.036825	-0.013518	-1.066895	-0.232178	-0.361816	0.097256	0.003558	-0.006296	0.628040	0.307073	-0.663881	0.265581	154.726051	-85.556243	-106.914684
23603		9.738436	0.348671	-0.665798	-0.032245	0.001495	-0.045346	0.018528	-0.040141	-0.014841	-1.070557	-0.238525	-0.366455	0.097386	0.003480	-0.006638	0.627884	0.307185	-0.663991	0.265548	154.839982	-85.533215	-107.021252
23604		9.746320	0.331948	-0.641811	-0.039021	-0.031524	-0.039748	0.017892	-0.047767	-0.012608	-1.065918	-0.230957	-0.366699	0.097465	0.003314	-0.006395	0.627699	0.307301	-0.664126	0.265511	154.990473	-85.506837	-107.164172
23605		9.750326	0.362621	-0.692832	-0.031178	0.022195	-0.031129	0.020687	-0.058900	-0.015117	-1.059082	-0.227051	-0.369629	0.097506	0.003620	-0.006899	0.627478	0.307446	-0.664291	0.265455	155.158484	-85.473954	-107.323755
23606		9.804819	0.341988	-0.707547	-0.011235	0.010466	0.023563	0.018073	-0.060554	-0.012839	-1.071289	-0.236084	-0.374023	0.098051	0.003414	-0.007045	0.627253	0.307574	-0.664468	0.265394	155.342329	-85.440912	-107.501031
23607		9.775754	0.347009	-0.765414	0.020856	0.054376	-0.001049	0.015820	-0.050366	-0.015129	-1.072998	-0.231201	-0.360107	0.097760	0.003463	-0.007629	0.627067	0.307692	-0.664612	0.265335	155.477403	-85.412400	-107.630384
23608		9.809431	0.332826	-0.789405	0.043831	0.056555	0.033822	0.012271	-0.035583	-0.012918	-1.064941	-0.228271	-0.365234	0.098096	0.003322	-0.007876	0.626933	0.307772	-0.664718	0.265295	155.579489	-85.392245	-107.728574
23609		9.808608	0.354692	-0.779095	0.018877	0.061170	0.032997	0.009244	-0.021752	-0.015516	-1.069580	-0.232666	-0.361816	0.098087	0.003540	-0.007780	0.626853	0.307833	-0.664781	0.265257	155.622047	-85.378538	-107.768897
23610		9.795279	0.365017	-0.750220	-0.008922	0.046172	0.017946	0.005520	-0.013270	-0.011718	-1.062988	-0.229736	-0.365967	0.097954	0.003645	-0.007496	0.626802	0.307857	-0.664827	0.265232	155.662115	-85.370298	-107.808859
23611		9.807722	0.377730	-0.769026	-0.006969	0.066339	0.032161	0.003869	-0.013793	-0.013505	-1.066650	-0.234375	-0.363770	0.098078	0.003771	-0.007683	0.626754	0.307884	-0.664875	0.265195	155.690981	-85.361216	-107.838536
23612		9.815891	0.361175	-0.742039	-0.013762	0.033338	0.037769	0.000524	-0.013321	-0.014306	-1.064453	-0.233398	-0.359619	0.098160	0.003605	-0.007414	0.626714	0.307901	-0.664924	0.265145	155.710955	-85.352352	-107.861215
23613		9.820036	0.391823	-0.788667	-0.005902	0.087058	0.046370	-0.001066	-0.003750	-0.010753	-1.066650	-0.233398	-0.364014	0.098201	0.003913	-0.007885	0.626703	0.307890	-0.664952	0.265115	155.725397	-85.349162	-107.879258
23614		9.828913	0.354360	-0.773116	0.011350	0.049955	0.052817	-0.006302	0.011265	-0.008949	-1.069580	-0.234619	-0.359375	0.098289	0.003539	-0.007737	0.626748	0.307838	-0.664940	0.265099	155.704642	-85.354356	-107.864659
23615		9.783507	0.318055	-0.760285	0.031865	0.021003	0.005396	-0.005570	0.027467	-0.008617	-1.068115	-0.234131	-0.367920	0.097834	0.003176	-0.007616	0.626845	0.307764	-0.664879	0.265109	155.639505	-85.367969	-107.805450
23616		9.811819	0.335737	-0.691673	-0.026111	-0.017709	0.029158	-0.007116	0.035520	-0.007835	-1.066895	-0.235352	-0.365479	0.098117	0.003353	-0.006934	0.626970	0.307673	-0.664795	0.265130	155.554173	-85.386083	-107.726557
23617		9.745596	0.305796	-0.688269	-0.002525	-0.032763	-0.038089	-0.003725	0.033533	-0.009805	-1.069092	-0.231445	-0.362061	0.097455	0.003053	-0.006899	0.627086	0.307601	-0.664710	0.265152	155.463613	-85.402563	-107.640785
23618		9.712269	0.301596	-0.678779	-0.003192	-0.037963	-0.072132	-0.002194	0.026239	-0.009198	-1.066406	-0.236084	-0.362061	0.097122	0.003011	-0.006801	0.627174	0.307542	-0.664646	0.265171	155.398728	-85.415499	-107.579620
23619		9.745911	0.307586	-0.682991	-0.004311	-0.031698	-0.038086	0.001916	0.022122	-0.008091	-1.058838	-0.228027	-0.367920	0.097458	0.003072	-0.006841	0.627241	0.307497	-0.664593	0.265200	155.355588	-85.426429	-107.538180
23620		9.738338	0.305696	-0.722219	0.024782	-0.001712	-0.042853	0.000689	0.024443	-0.007749	-1.067383	-0.235840	-0.359375	0.097383	0.003053	-0.007234	0.627318	0.307444	-0.664533	0.265229	155.306405	-85.438798	-107.491310
23621		9.772619	0.291032	-0.739163	0.047707	0.000450	-0.007951	0.004647	0.032359	-0.007791	-1.068115	-0.236816	-0.371582	0.097725	0.002907	-0.007407	0.627414	0.307393	-0.664444	0.265283	155.235486	-85.455121	-107.420436
23622		9.784287	0.344449	-0.726646	0.001571	0.028852	0.004547	0.000223	0.042211	-0.008456	-1.067627	-0.231934	-0.370605	0.097841	0.003440	-0.007287	0.627550	0.307319	-0.664327	0.265339	155.126478	-85.476508	-107.313378
23623		9.751706	0.319599	-0.728505	0.024958	0.019516	-0.028637	-0.003288	0.055476	-0.009020	-1.061523	-0.241699	-0.362305	0.097515	0.003191	-0.007312	0.627737	0.307217	-0.664175	0.265398	154.970582	-85.504521	-107.161828
23624		9.777377	0.343686	-0.757427	0.029777	0.059351	-0.000220	-0.005543	0.065663	-0.011310	-1.070801	-0.225342	-0.368896	0.097771	0.003431	-0.007606	0.627964	0.307104	-0.663987	0.265461	154.763460	-85.537337	-106.959648
23625		9.819617	0.332068	-0.728708	0.022701	0.032087	0.039450	-0.007076	0.073721	-0.010521	-1.068604	-0.235107	-0.368164	0.098194	0.003315	-0.007323	0.628219	0.306970	-0.663779	0.265531	154.533060	-85.574345	-106.735559
23626		9.807496	0.321638	-0.703568	0.018953	0.012990	0.025244	-0.009810	0.083343	-0.010776	-1.063721	-0.230957	-0.370605	0.098072	0.003211	-0.007077	0.628512	0.306814	-0.663545	0.265606	154.264648	-85.616332	-106.475079
23627		9.834068	0.325285	-0.742889	0.047797	0.048702	0.054527	-0.013005	0.091640	-0.010387	-1.065186	-0.233154	-0.371094	0.098337	0.003247	-0.007474	0.628835	0.306637	-0.663289	0.265684	153.964165	-85.662446	-106.184137
23628		9.816849	0.305697	-0.657518	0.011214	-0.019473	0.030878	-0.011851	0.092361	-0.005166	-1.061035	-0.235596	-0.374023	0.098166	0.003054	-0.006621	0.629153	0.306445	-0.663036	0.265784	153.690914	-85.710291	-105.919870
23629		9.830156	0.317806	-0.665494	0.013157	0.000707	0.045084	-0.012141	0.098103	-0.004709	-1.059326	-0.235596	-0.377930	0.098298	0.003175	-0.006703	0.629488	0.306243	-0.662768	0.265893	153.395137	-85.760948	-105.633187
23630		9.844198	0.309497	-0.686322	0.039174	0.016793	0.060166	-0.017101	0.098058	-0.007304	-1.066895	-0.234375	-0.377930	0.098439	0.003091	-0.006912	0.629836	0.306035	-0.662500	0.265977	153.069946	-85.810971	-105.319777
23631		9.810573	0.325699	-0.657277	0.014478	0.015678	0.025248	-0.015848	0.095745	-0.007630	-1.063965	-0.237061	-0.376953	0.098103	0.003253	-0.006620	0.630173	0.305834	-0.662238	0.266061	152.745476	-85.859423	-105.006492
23632		9.786391	0.282830	-0.626546	0.031945	-0.027201	-0.002272	-0.018905	0.092003	-0.006107	-1.067383	-0.225342	-0.375732	0.097861	0.002825	-0.006311	0.630500	0.305624	-0.661993	0.266135	152.435226	-85.906391	-104.709015
23633		9.765387	0.310564	-0.615702	0.010105	-0.008666	-0.022992	-0.020214	0.085750	-0.008342	-1.070557	-0.219727	-0.381104	0.097651	0.003101	-0.006199	0.630812	0.305425	-0.661768	0.266186	152.126036	-85.949332	-104.413592
23634		9.754588	0.258926	-0.616665	0.054441	-0.036003	-0.035416	-0.018188	0.079026	-0.009760	-1.067383	-0.234375	-0.375977	0.097544	0.002584	-0.006205	0.631102	0.305239	-0.661561	0.266225	151.828752	-85.988589	-104.130007
23635		9.732702	0.307689	-0.594100	0.008562	-0.013343	-0.057029	-0.016082	0.070026	-0.015346	-1.059570	-0.233154	-0.385254	0.097325	0.003069	-0.005975	0.631365	0.305097	-0.661369	0.266243	151.520358	-86.021471	-103.833036
23636		9.775405	0.275882	-0.578086	0.025489	-0.044682	-0.016454	-0.016124	0.071547	-0.012562	-1.073975	-0.239746	-0.386719	0.097752	0.002752	-0.005816	0.631629	0.304944	-0.661175	0.266274	151.220098	-86.055918	-103.544126
23637		9.781441	0.286479	-0.629408	0.057446	0.004910	-0.007001	-0.017803	0.081560	-0.018249	-1.064697	-0.229004	-0.382813	0.097812	0.002855	-0.006334	0.631935	0.304791	-0.660944	0.266296	150.832175	-86.093539	-103.168452
23638		9.802689	0.281861	-0.609811	0.053435	-0.008416	0.012846	-0.016006	0.089915	-0.015232	-1.053467	-0.235352	-0.384277	0.098024	0.002811	-0.006142	0.632263	0.304622	-0.660688	0.266346	150.424273	-86.136153	-102.771731
23639		9.790371	0.271937	-0.583410	0.049682	-0.027543	-0.001345	-0.015784	0.096232	-0.016790	-1.062256	-0.239502	-0.380127	0.097901	0.002711	-0.005881	0.632613	0.304451	-0.660410	0.266401	149.969803	-86.181110	-102.328239
23640		9.815749	0.317384	-0.595184	0.030449	0.016450	0.026149	-0.015758	0.096241	-0.016776	-1.067627	-0.232422	-0.387207	0.098155	0.003165	-0.005999	0.632962	0.304283	-0.660129	0.266460	149.502978	-86.225933	-101.871689
23641		9.824141	0.301035	-0.557139	0.023564	-0.016549	0.031800	-0.013651	0.098860	-0.014207	-1.068359	-0.237061	-0.383545	0.098239	0.003003	-0.005620	0.633314	0.304107	-0.659843	0.266534	149.035642	-86.272453	-101.414125
23642		9.858238	0.307891	-0.553411	0.022376	-0.010210	0.065840	-0.013561	0.097353	-0.016971	-1.061768	-0.236084	-0.389893	0.098580	0.003070	-0.005582	0.633663	0.303943	-0.659556	0.266599	148.542254	-86.317265	-100.930097
23643		9.831089	0.313379	-0.596497	0.054628	0.033592	0.041256	-0.016455	0.100677	-0.015644	-1.064453	-0.243164	-0.386475	0.098308	0.003126	-0.006015	0.634027	0.303759	-0.659266	0.266662	148.029970	-86.363717	-100.429150
23644		9.831620	0.315040	-0.586779	0.053742	0.034139	0.041259	-0.013982	0.096041	-0.016308	-1.058350	-0.237549	-0.385254	0.098314	0.003142	-0.005915	0.634371	0.303596	-0.658983	0.266728	147.521874	-86.407518	-99.930263
23645		9.852820	0.310502	-0.565904	0.049692	0.020805	0.061107	-0.012968	0.097953	-0.018950	-1.057617	-0.232910	-0.380615	0.098526	0.003095	-0.005707	0.634724	0.303438	-0.658692	0.266787	146.973711	-86.451045	-99.391415
23646		9.846487	0.309798	-0.598194	0.078818	0.050740	0.056371	-0.011487	0.091412	-0.016960	-1.069580	-0.238770	-0.385498	0.098462	0.003089	-0.006027	0.635049	0.303291	-0.658420	0.266853	146.462005	-86.491800	-98.887468
23647		9.833060	0.320342	-0.559136	0.051022	0.035754	0.041268	-0.011678	0.085104	-0.015390	-1.059326	-0.237549	-0.393311	0.098328	0.003196	-0.005633	0.635353	0.303143	-0.658172	0.266908	145.984249	-86.529735	-98.418464
23648		9.826746	0.319360	-0.592414	0.080159	0.065687	0.036533	-0.009993	0.084876	-0.014961	-1.060547	-0.232910	-0.387207	0.098265	0.003186	-0.005966	0.635652	0.303002	-0.657922	0.266975	145.500873	-86.567523	-97.942171
23649		9.833913	0.323521	-0.542041	0.049214	0.036839	0.041273	-0.011419	0.091434	-0.016925	-1.055664	-0.232422	-0.393799	0.098337	0.003227	-0.005466	0.635978	0.302851	-0.657651	0.267036	144.954932	-86.607434	-97.404750
23650		9.813743	0.331325	-0.543851	0.051464	0.051259	0.021428	-0.009213	0.102644	-0.011729	-1.061035	-0.230469	-0.392334	0.098135	0.003307	-0.005489	0.636331	0.302675	-0.657349	0.267139	144.374661	-86.654105	-96.831569
23651		9.738332	0.360443	-0.537736	0.033145	0.077860	-0.053229	-0.007484	0.101662	-0.012683	-1.060547	-0.234375	-0.398926	0.097381	0.003598	-0.005427	0.636678	0.302508	-0.657047	0.267241	143.777498	-86.699536	-96.240630
23652		9.745383	0.364306	-0.486413	0.002207	0.049040	-0.048498	-0.012633	0.095297	-0.013772	-1.057617	-0.235596	-0.396240	0.097452	0.003636	-0.004911	0.637015	0.302336	-0.656770	0.267314	143.190113	-86.741448	-95.662561
23653		9.712111	0.360392	-0.472043	0.001626	0.043769	-0.082534	-0.015865	0.083709	-0.013523	-1.056641	-0.243408	-0.395996	0.097119	0.003597	-0.004761	0.637318	0.302170	-0.656535	0.267360	142.659801	-86.777685	-95.143439
23654		9.711377	0.382175	-0.451250	-0.023297	0.048466	-0.083472	-0.012453	0.071182	-0.011588	-1.058350	-0.233398	-0.398926	0.097112	0.003816	-0.004547	0.637570	0.302028	-0.656336	0.267407	142.212641	-86.808725	-94.704965
23655		9.664914	0.366268	-0.422176	-0.026713	0.023524	-0.131692	-0.008122	0.062074	-0.009524	-1.056152	-0.231689	-0.395996	0.096648	0.003658	-0.004252	0.637784	0.301902	-0.656165	0.267458	141.836220	-86.836135	-94.335561
23656		9.687856	0.319955	-0.431537	0.017306	0.001919	-0.109964	-0.010408	0.053144	-0.010547	-1.057373	-0.229004	-0.406982	0.096878	0.003194	-0.004341	0.637975	0.301783	-0.656024	0.267485	141.501363	-86.859162	-94.009095
23657		9.701119	0.332565	-0.443641	0.019250	0.022122	-0.095781	-0.005160	0.047456	-0.008352	-1.048828	-0.228027	-0.396240	0.097010	0.003321	-0.004460	0.638135	0.301682	-0.655897	0.267527	141.220502	-86.880210	-93.733710
23658		9.748030	0.350327	-0.462010	0.020868	0.048177	-0.047570	0.000861	0.037354	-0.007257	-1.055908	-0.231445	-0.399902	0.097480	0.003500	-0.004638	0.638253	0.301606	-0.655797	0.267575	141.015003	-86.897272	-93.530935
23659		9.736175	0.319111	-0.454601	0.041162	0.024888	-0.060801	0.003615	0.037516	-0.012257	-1.057129	-0.238281	-0.398193	0.097361	0.003185	-0.004564	0.638373	0.301559	-0.655685	0.267619	140.767192	-86.912366	-93.283623
23660		9.749399	0.331650	-0.468158	0.043110	0.045110	-0.046621	0.004928	0.033233	-0.006113	-1.058594	-0.232666	-0.402832	0.097493	0.003314	-0.004698	0.638468	0.301503	-0.655593	0.267682	140.596659	-86.927833	-93.112637
23661		9.791774	0.299408	-0.455176	0.059878	0.013792	-0.005960	0.003916	0.031772	-0.012726	-1.052734	-0.235352	-0.397461	0.097917	0.002988	-0.004567	0.638568	0.301466	-0.655497	0.267716	140.379913	-86.940122	-92.896268
23662		9.790764	0.321028	-0.438963	0.034940	0.018509	-0.006911	0.008421	0.029740	-0.010819	-1.060059	-0.231201	-0.404297	0.097907	0.003205	-0.004404	0.638653	0.301441	-0.655405	0.267769	140.193059	-86.952276	-92.707065
23663		9.750840	0.314279	-0.472395	0.064446	0.042578	-0.045659	0.006803	0.029217	-0.012634	-1.054688	-0.229980	-0.397461	0.097508	0.003137	-0.004738	0.638741	0.301417	-0.655314	0.267809	139.993111	-86.963396	-92.505866
23664		9.778947	0.291289	-0.429722	0.054320	-0.004226	-0.020121	0.011432	0.024913	-0.014898	-1.059326	-0.229004	-0.401611	0.097789	0.002906	-0.004309	0.638812	0.301418	-0.655227	0.267851	139.805778	-86.971887	-92.314799
23665		9.771546	0.310824	-0.455981	0.059446	0.029830	-0.025797	0.014883	0.022175	-0.018214	-1.056152	-0.236084	-0.401367	0.097715	0.003100	-0.004570	0.638872	0.301447	-0.655140	0.267889	139.611148	-86.977790	-92.114292
23666		9.745370	0.289090	-0.419907	0.052862	-0.008963	-0.054140	0.018168	0.022468	-0.015968	-1.050293	-0.236572	-0.403809	0.097453	0.002883	-0.004210	0.638925	0.301479	-0.655050	0.267946	139.433877	-86.984735	-91.929264
23667		9.772784	0.293378	-0.465097	0.081673	0.026757	-0.024822	0.018906	0.018812	-0.015676	-1.055664	-0.232422	-0.398682	0.097728	0.002927	-0.004660	0.638965	0.301517	-0.654972	0.268000	139.284849	-86.990058	-91.772117
23668		9.751108	0.321582	-0.461822	0.059941	0.045318	-0.045643	0.023452	0.016025	-0.015155	-1.058838	-0.231201	-0.402344	0.097511	0.003209	-0.004626	0.638988	0.301572	-0.654896	0.268069	139.161195	-86.994447	-91.637560
23669		9.752276	0.302366	-0.473866	0.083073	0.041685	-0.044667	0.030396	0.009349	-0.013915	-1.059326	-0.235352	-0.405273	0.097523	0.003018	-0.004743	0.638976	0.301654	-0.654835	0.268152	139.100061	-86.996298	-91.561836
23670		9.757400	0.326617	-0.418199	0.028055	0.017070	-0.040924	0.031577	0.007785	-0.012858	-1.060791	-0.227295	-0.403564	0.097574	0.003261	-0.004185	0.638958	0.301737	-0.654779	0.268240	139.059080	-86.997988	-91.505697
23671		9.751112	0.325049	-0.459307	0.057233	0.046949	-0.045634	0.031052	0.007211	-0.010839	-1.059570	-0.231445	-0.397949	0.097511	0.003246	-0.004596	0.638934	0.301813	-0.654728	0.268332	139.038879	-87.000062	-91.470587
23672		9.736829	0.334661	-0.428668	0.029446	0.032002	-0.060780	0.033368	0.004841	-0.007337	-1.050293	-0.236572	-0.399414	0.097368	0.003344	-0.004288	0.638896	0.301887	-0.654688	0.268439	139.066981	-87.002553	-91.482778
23673		9.736812	0.335381	-0.428498	0.028543	0.032538	-0.060779	0.034678	0.001001	-0.010447	-1.062500	-0.234619	-0.397949	0.097368	0.003349	-0.004285	0.638846	0.301982	-0.654654	0.268535	139.096581	-87.002088	-91.495456
23674		9.736770	0.336073	-0.428901	0.027639	0.033085	-0.060778	0.031772	-0.006995	-0.006678	-1.050781	-0.236084	-0.403076	0.097368	0.003358	-0.004285	0.638769	0.302068	-0.654653	0.268624	139.212806	-86.999625	-91.596057
23675		9.737886	0.315974	-0.442935	0.050769	0.029443	-0.059790	0.034616	-0.008789	-0.005191	-1.064941	-0.235596	-0.407715	0.097379	0.003158	-0.004425	0.638680	0.302159	-0.654657	0.268722	139.355630	-86.996870	-91.722151
23676		9.757220	0.330814	-0.419114	0.022621	0.020349	-0.040917	0.035676	-0.007641	-0.009224	-1.063232	-0.236328	-0.406982	0.097573	0.003304	-0.004187	0.638600	0.302265	-0.654650	0.268812	139.455997	-86.993223	-91.805162
23677		9.755977	0.352164	-0.407004	-0.002319	0.025066	-0.041908	0.038609	-0.010953	-0.010514	-1.058594	-0.234863	-0.400146	0.097560	0.003517	-0.004064	0.638505	0.302388	-0.654648	0.268902	139.571759	-86.987518	-91.901867
23678		9.751427	0.302992	-0.375747	0.011908	-0.031750	-0.049380	0.040277	-0.011182	-0.010083	-1.061768	-0.239258	-0.406982	0.097515	0.003026	-0.003751	0.638407	0.302516	-0.654644	0.269000	139.692750	-86.981971	-92.002812
23679		9.764453	0.315509	-0.393963	0.013837	-0.011531	-0.035215	0.042473	-0.010838	-0.011670	-1.060547	-0.242188	-0.401123	0.097645	0.003150	-0.003934	0.638309	0.302656	-0.654635	0.269099	139.799540	-86.975869	-92.088317
23680		9.743799	0.322742	-0.406793	0.016175	0.002842	-0.055075	0.044186	-0.011826	-0.012626	-1.057617	-0.237793	-0.402100	0.097438	0.003222	-0.004061	0.638205	0.302809	-0.654623	0.269203	139.904357	-86.969045	-92.170389
23681		9.716345	0.321349	-0.360868	-0.014439	-0.031807	-0.084397	0.045248	-0.010681	-0.016659	-1.061768	-0.242676	-0.399170	0.097164	0.003206	-0.003603	0.638109	0.302973	-0.654602	0.269296	139.969606	-86.961157	-92.212702
23682		9.729346	0.334103	-0.379248	-0.012499	-0.011578	-0.070237	0.048708	-0.013842	-0.010703	-1.047363	-0.233398	-0.401367	0.097294	0.003337	-0.003785	0.637989	0.303137	-0.654593	0.269418	140.106631	-86.954122	-92.324317
23683		9.694386	0.350336	-0.362882	-0.037033	-0.012722	-0.105267	0.045588	-0.027731	-0.014611	-1.061035	-0.238281	-0.392578	0.096945	0.003497	-0.003615	0.637835	0.303319	-0.654628	0.269492	140.305245	-86.939468	-92.499991
23684		9.714807	0.345069	-0.354714	-0.041178	-0.025993	-0.085406	0.048384	-0.039300	-0.007845	-1.050537	-0.239990	-0.395752	0.097149	0.003448	-0.003527	0.637628	0.303505	-0.654707	0.269582	140.637658	-86.922205	-92.807788
23685		9.748271	0.351190	-0.364773	-0.042494	-0.019589	-0.051387	0.047376	-0.051324	-0.010558	-1.060059	-0.235596	-0.396973	0.097484	0.003508	-0.003622	0.637388	0.303711	-0.654821	0.269640	141.023784	-86.898436	-93.170226
23686		9.775340	0.354407	-0.417033	-0.013696	0.016143	-0.022062	0.045593	-0.048805	-0.006819	-1.057617	-0.239746	-0.388672	0.097755	0.003542	-0.004146	0.637153	0.303898	-0.654934	0.269710	141.416985	-86.877072	-93.540385
23687		9.795727	0.348551	-0.410177	-0.017857	0.002864	-0.002199	0.048108	-0.044079	-0.003490	-1.059326	-0.233398	-0.402344	0.097958	0.003485	-0.004079	0.636926	0.304074	-0.655035	0.269803	141.803584	-86.858808	-93.902892
23688		9.761886	0.343377	-0.409025	-0.018352	-0.002461	-0.036222	0.045270	-0.042288	-0.004973	-1.049805	-0.238037	-0.404297	0.097620	0.003432	-0.004069	0.636710	0.304244	-0.655131	0.269887	142.160795	-86.840784	-94.237400
23689		9.774724	0.355181	-0.430585	-0.016426	0.017762	-0.022069	0.040499	-0.045823	-0.003923	-1.061035	-0.238770	-0.398438	0.097748	0.003551	-0.004283	0.636489	0.304399	-0.655248	0.269951	142.541988	-86.821323	-94.598872
23690		9.774496	0.355611	-0.435385	-0.017317	0.018321	-0.022072	0.044014	-0.049327	-0.008607	-1.062256	-0.238281	-0.397705	0.097746	0.003553	-0.004329	0.636259	0.304584	-0.655362	0.270006	142.902272	-86.798666	-94.937578
23691		9.780707	0.359109	-0.398971	-0.048351	-0.010448	-0.017387	0.038282	-0.055522	-0.006284	-1.056641	-0.229736	-0.400146	0.097808	0.003589	-0.003962	0.636013	0.304753	-0.655509	0.270041	143.312685	-86.773686	-95.329603
23692		9.780457	0.359716	-0.404513	-0.049258	-0.009883	-0.017390	0.042677	-0.054838	-0.009464	-1.052734	-0.236084	-0.396484	0.097806	0.003593	-0.004018	0.635768	0.304941	-0.655643	0.270079	143.689279	-86.747960	-95.685815
23693		9.760691	0.346008	-0.434519	-0.022875	0.000258	-0.036231	0.039355	-0.054380	-0.010311	-1.062988	-0.238281	-0.390381	0.097608	0.003456	-0.004318	0.635529	0.305125	-0.655778	0.270106	144.048866	-86.721858	-96.026336
23694		9.801708	0.334762	-0.416792	-0.030319	-0.026805	0.003504	0.040851	-0.051148	-0.013596	-1.056152	-0.245605	-0.379395	0.098018	0.003342	-0.004142	0.635303	0.305320	-0.655895	0.270134	144.358311	-86.696147	-96.315697
23695		9.801451	0.336032	-0.421786	-0.031233	-0.026272	0.003503	0.038487	-0.048031	-0.015714	-1.062744	-0.234619	-0.397461	0.098016	0.003353	-0.004194	0.635093	0.305510	-0.656002	0.270151	144.627255	-86.670999	-96.565938
23696		9.800056	0.358140	-0.414015	-0.056173	-0.021529	0.002462	0.036703	-0.055641	-0.017317	-1.061279	-0.237061	-0.395020	0.098002	0.003574	-0.004112	0.634862	0.305714	-0.656132	0.270149	144.921202	-86.641724	-96.841591
23697		9.786820	0.348074	-0.402257	-0.059921	-0.040689	-0.011689	0.037112	-0.052778	-0.015178	-1.059326	-0.230957	-0.384521	0.097870	0.003474	-0.003996	0.634638	0.305904	-0.656257	0.270156	145.211652	-86.614378	-97.114180
23698		9.834230	0.345788	-0.443132	-0.034426	-0.018752	0.037515	0.033991	-0.046013	-0.017613	-1.060059	-0.240723	-0.394775	0.098344	0.003450	-0.004408	0.634445	0.306081	-0.656361	0.270154	145.440423	-86.589478	-97.327061
23699		9.800360	0.342044	-0.441825	-0.034894	-0.024114	0.003496	0.035438	-0.042020	-0.019521	-1.065918	-0.240234	-0.390625	0.098005	0.003412	-0.004397	0.634265	0.306266	-0.656448	0.270158	145.629519	-86.565677	-97.499089
23700		9.827071	0.345960	-0.493391	-0.006105	0.011619	0.032833	0.029835	-0.040376	-0.016001	-1.059814	-0.236328	-0.393799	0.098272	0.003452	-0.004914	0.634094	0.306419	-0.656541	0.270158	145.830982	-86.543869	-97.686655
23701		9.819487	0.359631	-0.425119	-0.064024	-0.032619	0.022312	0.027059	-0.029990	-0.014927	-1.055176	-0.240479	-0.394775	0.098196	0.003590	-0.004236	0.633960	0.306546	-0.656608	0.270167	145.982811	-86.527185	-97.826166
23702		9.804842	0.375429	-0.498484	-0.028651	0.030717	0.011904	0.025393	-0.029764	-0.015349	-1.060059	-0.238281	-0.390381	0.098049	0.003747	-0.004970	0.633832	0.306666	-0.656676	0.270168	146.126552	-86.510630	-97.958953
23703		9.798416	0.368465	-0.442774	-0.062546	-0.017729	0.002431	0.024483	-0.033187	-0.015452	-1.060059	-0.236816	-0.381348	0.097985	0.003678	-0.004411	0.633691	0.306790	-0.656755	0.270163	146.286691	-86.492212	-98.108274
23704		9.804398	0.378275	-0.505018	-0.030475	0.031793	0.011895	0.017328	-0.033618	-0.016506	-1.058105	-0.253174	-0.384277	0.098045	0.003775	-0.005033	0.633562	0.306896	-0.656843	0.270131	146.435507	-86.473318	-98.250250
23705		9.823780	0.394570	-0.483678	-0.058708	0.022748	0.030703	0.014187	-0.026862	-0.018949	-1.060547	-0.248047	-0.396973	0.098239	0.003937	-0.004823	0.633463	0.306991	-0.656911	0.270090	146.527344	-86.456772	-98.337054
23706		9.856091	0.422320	-0.478812	-0.084083	0.033411	0.063646	0.012552	-0.017266	-0.015438	-1.064941	-0.242920	-0.381592	0.098562	0.004216	-0.004779	0.633392	0.307063	-0.656952	0.270075	146.592893	-86.445968	-98.397438
23707		9.875549	0.438659	-0.456032	-0.112325	0.024376	0.082445	-0.000339	-0.014148	-0.019463	-1.064209	-0.243164	-0.384766	0.098756	0.004377	-0.004553	0.633358	0.307097	-0.656999	0.270004	146.606841	-86.435330	-98.414543
23708		9.835082	0.432024	-0.493011	-0.082609	0.048273	0.043752	-0.013789	-0.010828	-0.020082	-1.055908	-0.236816	-0.385254	0.098352	0.004310	-0.004925	0.633355	0.307089	-0.657050	0.269896	146.591583	-86.426109	-98.409395
23709		9.848911	0.424783	-0.524483	-0.056668	0.064289	0.058950	-0.026714	-0.016699	-0.017398	-1.060059	-0.237061	-0.384521	0.098490	0.004239	-0.005237	0.633350	0.307036	-0.657143	0.269741	146.618962	-86.414901	-98.455100
23710		9.820810	0.445002	-0.465381	-0.111287	0.033882	0.028521	-0.034672	-0.012721	-0.017383	-1.061523	-0.237549	-0.389160	0.098209	0.004441	-0.004648	0.633371	0.306950	-0.657234	0.269566	146.621925	-86.405717	-98.481082
23711		9.869977	0.417434	-0.415032	-0.124971	-0.026637	0.074001	-0.036255	-0.014027	-0.020569	-1.054443	-0.248047	-0.393799	0.098700	0.004163	-0.004144	0.633394	0.306873	-0.657327	0.269374	146.606040	-86.394787	-98.488916
23712		9.897288	0.416859	-0.363811	-0.159351	-0.069120	0.098531	-0.038897	-0.025829	-0.023646	-1.062256	-0.243164	-0.388184	0.098974	0.004156	-0.003626	0.633387	0.306813	-0.657455	0.269146	146.622404	-86.377387	-98.530627
23713		9.897506	0.404134	-0.479861	-0.073082	0.005421	0.104412	-0.043099	-0.029570	-0.025974	-1.055664	-0.246826	-0.377686	0.098976	0.004027	-0.004785	0.633376	0.306754	-0.657598	0.268890	146.638896	-86.357317	-98.574832
23714		9.870874	0.389279	-0.548307	-0.016475	0.044774	0.080949	-0.052245	-0.024039	-0.027009	-1.066895	-0.245850	-0.388672	0.098710	0.003878	-0.005472	0.633398	0.306666	-0.657731	0.268614	146.613932	-86.339599	-98.581923
23715		9.843168	0.395100	-0.602529	0.016109	0.088344	0.056408	-0.052789	-0.004715	-0.024971	-1.064209	-0.246338	-0.385254	0.098432	0.003937	-0.006024	0.633482	0.306538	-0.657809	0.268368	146.509819	-86.331733	-98.510841
23716		9.828052	0.427425	-0.557988	-0.035658	0.077637	0.040096	-0.050181	0.026977	-0.021863	-1.064453	-0.235352	-0.393799	0.098280	0.004262	-0.005594	0.633662	0.306370	-0.657786	0.268192	146.272674	-86.340019	-98.304356
23717		9.828859	0.424248	-0.453649	-0.099752	-0.000040	0.035272	-0.052397	0.046524	-0.020234	-1.056885	-0.240479	-0.382568	0.098288	0.004231	-0.004560	0.633908	0.306160	-0.657709	0.268041	145.948269	-86.358001	-98.012310
23718		9.821144	0.443843	-0.476600	-0.094496	0.034005	0.029514	-0.059454	0.064051	-0.014759	-1.062988	-0.249512	-0.386230	0.098210	0.004430	-0.004799	0.634216	0.305883	-0.657594	0.267909	145.567715	-86.386071	-97.668387
23719		9.768280	0.425149	-0.488122	-0.067546	0.038151	-0.023291	-0.072174	0.074607	-0.008318	-1.063721	-0.232422	-0.386963	0.097681	0.004246	-0.004919	0.634568	0.305533	-0.657473	0.267773	145.167755	-86.420930	-97.312008
23720		9.816275	0.422602	-0.515812	-0.042107	0.060107	0.025936	-0.074640	0.089374	-0.002307	-1.056396	-0.239990	-0.399902	0.098160	0.004223	-0.005204	0.634964	0.305137	-0.657315	0.267673	144.725310	-86.464593	-96.914195
23721		9.806640	0.364604	-0.414446	-0.061008	-0.045735	0.009180	-0.081493	0.103862	-0.002342	-1.062744	-0.242676	-0.393555	0.098064	0.003643	-0.004197	0.635419	0.304698	-0.657122	0.267570	144.188850	-86.514721	-96.426442
23722		9.760577	0.347843	-0.380896	-0.064213	-0.070822	-0.038958	-0.086101	0.108165	-0.000064	-1.053955	-0.239746	-0.385010	0.097604	0.003477	-0.003863	0.635892	0.304230	-0.656923	0.267464	143.626107	-86.567469	-95.915218
23723		9.704221	0.389863	-0.351062	-0.109296	-0.053980	-0.095060	-0.088288	0.079339	-0.001110	-1.054688	-0.242920	-0.394775	0.097041	0.003897	-0.003551	0.636274	0.303798	-0.656818	0.267305	143.206586	-86.606185	-95.548562
23724		9.736514	0.304974	-0.343912	-0.047657	-0.113400	-0.066105	-0.092977	0.045786	-0.005494	-1.057373	-0.236572	-0.393555	0.097364	0.003045	-0.003463	0.636558	0.303414	-0.656817	0.267069	142.937556	-86.627942	-95.334806
23725		9.764945	0.288061	-0.400462	0.005125	-0.081922	-0.035634	-0.081512	0.028547	-0.004933	-1.058105	-0.240967	-0.408447	0.097649	0.002877	-0.004020	0.636767	0.303084	-0.656858	0.266843	142.779417	-86.641922	-95.226112
23726		9.841241	0.261583	-0.392777	0.021023	-0.107184	0.039256	-0.077620	0.038032	-0.002107	-1.056152	-0.235840	-0.397461	0.098412	0.002613	-0.003947	0.637000	0.302742	-0.656868	0.266652	142.586072	-86.661345	-95.080226
23727		9.832471	0.300302	-0.403242	0.002272	-0.068922	0.032388	-0.072661	0.058021	0.000679	-1.060303	-0.236328	-0.392334	0.098324	0.003002	-0.004062	0.637285	0.302383	-0.656811	0.266517	142.296556	-86.690626	-94.834859
23728		9.810836	0.327030	-0.394941	-0.019295	-0.050356	0.011391	-0.083877	0.071812	0.003864	-1.056885	-0.231689	-0.397461	0.098107	0.003271	-0.003986	0.637628	0.301958	-0.656730	0.266377	141.935609	-86.727279	-94.524346
23729		9.772236	0.291594	-0.336220	-0.028688	-0.108954	-0.030971	-0.104557	0.077747	0.007748	-1.056641	-0.240234	-0.399902	0.097721	0.002918	-0.003402	0.638016	0.301447	-0.656664	0.266190	141.548967	-86.767767	-94.200019
23730		9.726106	0.280477	-0.406606	0.031359	-0.055894	-0.074258	-0.113463	0.070481	0.006437	-1.064453	-0.227783	-0.389648	0.097260	0.002806	-0.004102	0.638396	0.300921	-0.656630	0.265959	141.183505	-86.804524	-93.902037
23731		9.725124	0.300853	-0.386425	0.006442	-0.051107	-0.075376	-0.123595	0.065537	0.005458	-1.057129	-0.244629	-0.403809	0.097250	0.003009	-0.003898	0.638776	0.300373	-0.656624	0.265683	140.829976	-86.838510	-93.621821
23732		9.773294	0.297853	-0.415596	0.031841	-0.029131	-0.026123	-0.137520	0.059715	0.004253	-1.058838	-0.235596	-0.402344	0.097732	0.002978	-0.004187	0.639157	0.299794	-0.656651	0.265351	140.490488	-86.869436	-93.363233
23733		9.827830	0.297357	-0.402516	0.027021	-0.036382	0.027772	-0.151991	0.073979	0.006644	-1.065674	-0.235107	-0.399902	0.098277	0.002974	-0.004064	0.639604	0.299139	-0.656656	0.264999	140.059450	-86.907375	-93.021706
23734		9.868593	0.312525	-0.457588	0.058609	0.019079	0.071259	-0.164780	0.098589	0.005655	-1.049316	-0.222412	-0.404053	0.098684	0.003124	-0.004627	0.640152	0.298416	-0.656597	0.264639	139.431250	-86.955607	-92.489777
23735		9.897817	0.295666	-0.507070	0.111378	0.050558	0.101764	-0.169845	0.112892	0.006183	-1.052734	-0.226807	-0.407227	0.098975	0.002955	-0.005129	0.640753	0.297654	-0.656500	0.264284	138.683116	-87.009813	-91.840988
23736		9.890902	0.314073	-0.523700	0.116677	0.084611	0.095998	-0.174754	0.114372	0.006357	-1.059570	-0.227295	-0.407227	0.098906	0.003139	-0.005296	0.641368	0.296868	-0.656405	0.263912	137.896422	-87.064439	-91.157181
23737		9.890176	0.334747	-0.498382	0.091756	0.089421	0.094865	-0.194396	0.114439	0.006382	-1.058350	-0.232178	-0.412842	0.098899	0.003346	-0.005044	0.642008	0.296024	-0.656334	0.263478	137.070776	-87.118417	-90.444929
23738		9.848015	0.256714	-0.505264	0.160628	0.051532	0.050179	-0.204750	0.105956	0.001837	-1.051758	-0.229492	-0.424072	0.098477	0.002563	-0.005107	0.642643	0.295171	-0.656296	0.262983	136.238864	-87.166654	-89.732438
23739		9.794341	0.258341	-0.500751	0.163671	0.059859	-0.003700	-0.209521	0.105955	-0.000762	-1.060303	-0.225098	-0.413818	0.097941	0.002578	-0.005062	0.643286	0.294312	-0.656260	0.262464	135.356813	-87.213207	-88.972450
23740		9.799460	0.281895	-0.434738	0.108553	0.035493	-0.000205	-0.235306	0.099741	-0.005752	-1.058350	-0.226318	-0.417480	0.097992	0.002811	-0.004400	0.643954	0.293391	-0.656269	0.261832	134.440945	-87.254799	-88.193921
23741		9.707364	0.116100	-0.403973	0.214153	-0.089847	-0.099004	-0.265869	0.100802	-0.002855	-1.056641	-0.222168	-0.426025	0.097072	0.001154	-0.004090	0.644663	0.292363	-0.656318	0.261113	133.498931	-87.297227	-87.406279
23742		9.731077	0.070452	-0.409792	0.257897	-0.111542	-0.076785	-0.267646	0.096252	0.001096	-1.059814	-0.226318	-0.415527	0.097309	0.000700	-0.004146	0.645356	0.291318	-0.656389	0.260391	132.600934	-87.339088	-86.664262
23743		9.753359	0.015597	-0.315778	0.238332	-0.211388	-0.059407	-0.269084	0.096562	0.000783	-1.052734	-0.221436	-0.419189	0.097532	0.000152	-0.003205	0.646049	0.290272	-0.656458	0.259665	131.672484	-87.380212	-85.892095
23744		9.784291	-0.049217	-0.293687	0.275828	-0.266557	-0.031384	-0.274265	0.105313	0.004375	-1.058105	-0.220215	-0.414795	0.097841	-0.000494	-0.002988	0.646771	0.289187	-0.656508	0.258948	130.659305	-87.425648	-85.037868
23745		9.837154	-0.140820	-0.272207	0.333919	-0.339745	0.017703	-0.260210	0.134643	0.002698	-1.053467	-0.226807	-0.421631	0.098370	-0.001410	-0.002786	0.647571	0.288113	-0.656443	0.258312	129.313549	-87.480272	-83.842952
23746		9.919343	-0.166265	-0.211404	0.319387	-0.394129	0.097325	-0.250976	0.163222	-0.003011	-1.047363	-0.216064	-0.430908	0.099192	-0.001667	-0.002193	0.648456	0.287054	-0.656262	0.257731	127.570286	-87.541094	-82.244280
23747		9.869556	-0.254993	-0.156757	0.355185	-0.481004	0.043284	-0.243881	0.189368	-0.000655	-1.054932	-0.211670	-0.431152	0.098694	-0.002552	-0.001658	0.649413	0.285972	-0.655990	0.257215	125.475793	-87.609534	-80.290703
23748		9.813533	-0.263886	-0.045698	0.294946	-0.550768	-0.015402	-0.221672	0.187555	-0.006220	-1.046387	-0.230225	-0.431396	0.098135	-0.002642	-0.000546	0.650340	0.284977	-0.655687	0.256748	123.254189	-87.671809	-78.197932
23749		9.836404	-0.228689	0.052279	0.212348	-0.584578	0.006836	-0.210686	0.158190	-0.012360	-1.058350	-0.210205	-0.426270	0.098364	-0.002292	0.000447	0.651160	0.284080	-0.655455	0.256258	121.242488	-87.718692	-76.308347
23750		9.824569	-0.259509	0.067808	0.232617	-0.607991	-0.006040	-0.204318	0.123065	-0.021845	-1.047119	-0.210693	-0.427734	0.098246	-0.002605	0.000620	0.651865	0.283284	-0.655312	0.255710	119.533877	-87.748254	-74.717819
23751		9.810591	-0.218847	0.021918	0.244173	-0.540493	-0.017570	-0.187672	0.087824	-0.029408	-1.041504	-0.209961	-0.432373	0.098106	-0.002203	0.000178	0.652442	0.282607	-0.655254	0.255139	118.198078	-87.762549	-73.491537
23752		9.854548	-0.157545	0.036834	0.197451	-0.505606	0.028230	-0.173984	0.067984	-0.036418	-1.051025	-0.215332	-0.438232	0.098545	-0.001593	0.000336	0.652942	0.282021	-0.655232	0.254562	117.068180	-87.767145	-72.463545
23753		9.894756	-0.116094	-0.005169	0.204999	-0.445829	0.070577	-0.172022	0.064872	-0.041571	-1.038330	-0.208984	-0.433594	0.098947	-0.001182	-0.000083	0.653436	0.281464	-0.655209	0.253969	115.942875	-87.767343	-71.438953
23754		9.895964	-0.080311	-0.083697	0.243404	-0.362839	0.074306	-0.170103	0.086002	-0.048208	-1.053467	-0.209229	-0.435059	0.098959	-0.000828	-0.000879	0.654004	0.280907	-0.655105	0.253391	114.494385	-87.768526	-70.089833
23755		9.877660	-0.028405	-0.016128	0.167646	-0.369142	0.056702	-0.156885	0.097610	-0.053281	-1.043457	-0.210449	-0.444092	0.098776	-0.000311	-0.000209	0.654597	0.280396	-0.654939	0.252855	112.868250	-87.768147	-68.555352
23756		9.825314	-0.041796	-0.027187	0.194769	-0.365077	0.004035	-0.156589	0.119003	-0.060301	-1.046387	-0.214844	-0.442871	0.098253	-0.000448	-0.000330	0.655269	0.279878	-0.654692	0.252327	110.912655	-87.766944	-66.691195
23757		9.786460	-0.041927	-0.052486	0.224734	-0.341320	-0.034533	-0.156112	0.136106	-0.065116	-1.045898	-0.217041	-0.442383	0.097864	-0.000452	-0.000591	0.656000	0.279359	-0.654381	0.251809	108.702480	-87.763624	-64.571785
23758		9.626438	-0.104664	-0.004329	0.244660	-0.408508	-0.197464	-0.137194	0.151877	-0.065771	-1.040771	-0.217773	-0.446533	0.096264	-0.001078	-0.000116	0.656756	0.278886	-0.653991	0.251375	106.286065	-87.759422	-62.234661
23759		9.547341	-0.142732	0.019672	0.266187	-0.443975	-0.278303	-0.118340	0.146985	-0.068617	-1.037842	-0.213379	-0.446289	0.095473	-0.001460	0.000127	0.657474	0.278488	-0.653591	0.250983	103.955106	-87.749048	-59.972699
23760		9.498497	-0.187038	0.137842	0.223769	-0.551479	-0.330008	-0.095943	0.123724	-0.070590	-1.038818	-0.210693	-0.441895	0.094985	-0.001903	0.001321	0.658086	0.278200	-0.653233	0.250628	101.981436	-87.731355	-58.055046
23761		9.412678	-0.257167	0.200481	0.236229	-0.640152	-0.419114	-0.061820	0.083026	-0.075960	-1.046631	-0.216797	-0.445801	0.094127	-0.002607	0.001967	0.658524	0.278092	-0.652961	0.250307	100.622512	-87.703794	-56.733424
23762		9.367505	-0.340720	0.282533	0.241798	-0.756245	-0.468401	-0.027615	0.035849	-0.072793	-1.043457	-0.211182	-0.445068	0.093674	-0.003441	0.002809	0.658755	0.278146	-0.652804	0.250046	99.979149	-87.672414	-56.107782
23763		9.395558	-0.419396	0.238586	0.333486	-0.786541	-0.443618	0.000694	-0.001171	-0.070441	-1.041504	-0.217285	-0.444336	0.093954	-0.004227	0.002386	0.658824	0.278331	-0.652739	0.249830	99.881501	-87.638398	-56.012587
23764		9.374498	-0.445878	0.154918	0.414321	-0.751652	-0.465636	0.040732	-0.024961	-0.063480	-1.049316	-0.216309	-0.450195	0.093743	-0.004489	0.001560	0.658750	0.278656	-0.652710	0.249739	100.147027	-87.606120	-56.257455
23765		9.361368	-0.453025	0.167721	0.410620	-0.770828	-0.479639	0.074628	-0.044973	-0.055991	-1.049561	-0.214111	-0.450684	0.093612	-0.004557	0.001697	0.658555	0.279092	-0.652716	0.249751	100.709561	-87.575739	-56.780623
23766		9.371281	-0.395863	0.176181	0.364538	-0.741903	-0.467885	0.112420	-0.056270	-0.046710	-1.035156	-0.220215	-0.444824	0.093711	-0.003982	0.001786	0.658259	0.279634	-0.652725	0.249902	101.451226	-87.549332	-57.461392
23767		9.462342	-0.366016	0.231472	0.304640	-0.767846	-0.376529	0.145827	-0.056206	-0.034977	-1.047119	-0.229004	-0.441650	0.094622	-0.003678	0.002339	0.657901	0.280249	-0.652708	0.250200	102.230013	-87.528882	-58.160201
23768		9.570237	-0.312023	0.171077	0.310939	-0.695960	-0.266222	0.178617	-0.053162	-0.024824	-1.045654	-0.212646	-0.439941	0.095702	-0.003134	0.001733	0.657491	0.280941	-0.652650	0.250649	103.004845	-87.514145	-58.835049
23769		9.625885	-0.278450	0.088599	0.345316	-0.620709	-0.208599	0.212244	-0.054479	-0.015886	-1.037598	-0.219971	-0.436279	0.096258	-0.002793	0.000909	0.657021	0.281710	-0.652570	0.251229	103.836237	-87.503744	-59.548438
23770		9.766764	-0.168699	-0.048430	0.366280	-0.456110	-0.061878	0.255377	-0.066393	-0.015842	-1.045410	-0.217529	-0.443359	0.097668	-0.001694	-0.000454	0.656448	0.282635	-0.652474	0.251935	104.838102	-87.491468	-60.407474
23771		9.837416	-0.144228	-0.161939	0.427465	-0.365403	0.011036	0.273399	-0.049671	-0.001037	-1.040283	-0.226318	-0.443359	0.098375	-0.001441	-0.001597	0.655887	0.283549	-0.652320	0.252768	105.681678	-87.489011	-61.097995
23772		9.872355	-0.107613	-0.256205	0.465292	-0.276389	0.048739	0.306940	-0.043010	0.002190	-1.042236	-0.220215	-0.437012	0.098724	-0.001071	-0.002542	0.655294	0.284552	-0.652104	0.253733	106.468695	-87.489225	-61.712511
23773		9.930238	0.002964	-0.197543	0.343067	-0.242222	0.110634	0.340358	-0.022740	0.007487	-1.044678	-0.231934	-0.431396	0.099303	0.000037	-0.001964	0.654711	0.285623	-0.651786	0.254850	107.044273	-87.495104	-62.096376
23774		9.913073	0.028932	-0.155463	0.291314	-0.252751	0.094142	0.373050	-0.015883	0.006937	-1.050781	-0.231934	-0.439941	0.099131	0.000296	-0.001546	0.654100	0.286796	-0.651399	0.256087	107.553904	-87.501885	-62.394652
23775		9.841230	0.105685	-0.194148	0.259123	-0.169030	0.026162	0.403373	-0.033611	0.002364	-1.040771	-0.223877	-0.434082	0.098413	0.001062	-0.001923	0.653394	0.288101	-0.651025	0.257375	108.284959	-87.502713	-62.898000
23776		9.822171	0.152377	-0.141914	0.183385	-0.175247	0.008415	0.426766	-0.065935	0.003976	-1.050049	-0.238525	-0.425049	0.098222	0.001529	-0.001383	0.652543	0.289518	-0.650724	0.258700	109.436856	-87.498333	-63.808815
23777		9.809867	0.168354	-0.220352	0.219072	-0.112089	-0.001988	0.455259	-0.088269	0.003356	-1.046143	-0.238525	-0.425293	0.098100	0.001690	-0.002156	0.651576	0.291057	-0.650456	0.260079	110.872176	-87.488047	-64.987348
23778		9.760761	0.308925	-0.272138	0.144528	0.019717	-0.044337	0.486680	-0.083091	0.008923	-1.042236	-0.237549	-0.428955	0.097609	0.003100	-0.002673	0.650565	0.292682	-0.650132	0.261594	112.282387	-87.480571	-66.120970
23779		9.666468	0.410182	-0.316826	0.091882	0.121407	-0.133532	0.494750	-0.068208	0.010290	-1.043457	-0.241943	-0.419922	0.096666	0.004115	-0.003125	0.649589	0.294298	-0.649750	0.263151	113.515510	-87.475962	-67.074475
23780		9.596055	0.526468	-0.294220	-0.018543	0.184587	-0.199489	0.514547	-0.063172	0.029873	-1.042236	-0.242920	-0.427246	0.095961	0.005287	-0.002898	0.648568	0.295911	-0.649347	0.264848	114.802501	-87.481966	-68.069392
23781		9.523110	0.709783	-0.333717	-0.137513	0.338687	-0.264328	0.521238	-0.076987	0.044237	-1.047607	-0.237793	-0.422852	0.095231	0.007127	-0.003282	0.647472	0.297510	-0.649000	0.266583	116.342553	-87.490779	-69.314925
23782		9.520441	0.835286	-0.324630	-0.249261	0.414013	-0.262382	0.503603	-0.088093	0.057831	-1.044434	-0.247559	-0.418945	0.095203	0.008388	-0.003183	0.646343	0.299022	-0.648727	0.268292	118.092684	-87.502273	-70.780383
23783		9.600400	0.898133	-0.437414	-0.233250	0.533084	-0.178008	0.481770	-0.084960	0.075660	-1.047363	-0.242920	-0.416016	0.096002	0.009028	-0.004312	0.645229	0.300398	-0.648497	0.269986	119.925636	-87.521328	-72.341703
23784		9.646958	1.017327	-0.464843	-0.318879	0.629910	-0.126804	0.466460	-0.079961	0.090158	-1.048340	-0.255127	-0.413818	0.096467	0.010227	-0.004586	0.644129	0.301674	-0.648287	0.271689	121.819851	-87.546898	-73.972204
23785		9.723131	1.091241	-0.464268	-0.390312	0.675297	-0.048609	0.421470	-0.067420	0.100103	-1.048340	-0.249512	-0.406494	0.097227	0.010971	-0.004587	0.643122	0.302750	-0.648112	0.273290	123.656015	-87.578720	-75.571260
23786		9.757624	1.085382	-0.479452	-0.391908	0.681908	-0.014701	0.378191	-0.055490	0.099781	-1.049805	-0.253662	-0.406250	0.097572	0.010912	-0.004747	0.642213	0.303679	-0.647950	0.274775	125.376116	-87.612083	-77.077293
23787		9.848382	1.124990	-0.419631	-0.476000	0.660438	0.075161	0.342067	-0.063463	0.089899	-1.052246	-0.256348	-0.413818	0.098480	0.011301	-0.004146	0.641349	0.304525	-0.647851	0.276089	127.124619	-87.636305	-78.634073
23788		9.873659	1.022401	-0.369181	-0.447870	0.552051	0.095157	0.313244	-0.094803	0.074272	-1.046875	-0.255615	-0.406006	0.098735	0.010266	-0.003629	0.640444	0.305379	-0.647862	0.277220	129.091611	-87.640266	-80.424602
23789		9.895915	0.988281	-0.384147	-0.428291	0.534616	0.116267	0.289843	-0.134904	0.055486	-1.056152	-0.256104	-0.399170	0.098959	0.009916	-0.003760	0.639471	0.306266	-0.648007	0.278144	131.298089	-87.618507	-82.469692
23790		9.967749	0.931607	-0.450994	-0.358638	0.534367	0.187968	0.278016	-0.192708	0.027012	-1.050781	-0.265137	-0.403320	0.099681	0.009336	-0.004401	0.638365	0.307295	-0.648305	0.278858	133.758820	-87.558866	-84.774771
23791		10.031655	0.894101	-0.550747	-0.282658	0.567564	0.253829	0.255241	-0.213143	0.004872	-1.050293	-0.251465	-0.397217	0.100322	0.008950	-0.005389	0.637259	0.308343	-0.648667	0.279387	136.066241	-87.478026	-86.940910
23792		10.018771	0.861025	-0.569251	-0.262395	0.544047	0.240984	0.231541	-0.207697	-0.013607	-1.051270	-0.262207	-0.392090	0.100194	0.008610	-0.005578	0.636230	0.309370	-0.649012	0.279793	137.998903	-87.388925	-88.744862
23793		10.058498	0.850598	-0.567025	-0.270362	0.517244	0.280764	0.213029	-0.187192	-0.028555	-1.053955	-0.268066	-0.389893	0.100591	0.008498	-0.005567	0.635318	0.310354	-0.649296	0.280118	139.497294	-87.300550	-90.125607
23794		10.032795	0.786009	-0.476005	-0.292385	0.391657	0.250238	0.193838	-0.166490	-0.040145	-1.047852	-0.257568	-0.386230	0.100333	0.007845	-0.004669	0.634516	0.311288	-0.649520	0.280379	140.633025	-87.215652	-91.153760
23795		10.002830	0.697911	-0.437911	-0.260087	0.290842	0.216430	0.176319	-0.176163	-0.056286	-1.053711	-0.272217	-0.381348	0.100034	0.006955	-0.004285	0.633733	0.312229	-0.649776	0.280512	141.618590	-87.119651	-92.042317
23796		10.142866	0.706739	-0.349457	-0.333724	0.204361	0.353244	0.189361	-0.184853	-0.068818	-1.056885	-0.266602	-0.377686	0.101434	0.007036	-0.003394	0.632918	0.313264	-0.650019	0.280636	142.500603	-87.014765	-92.819594
23797		10.296118	0.728855	-0.278863	-0.404583	0.137634	0.504113	0.163448	-0.174410	-0.088765	-1.054688	-0.270020	-0.379883	0.102967	0.007245	-0.002693	0.632204	0.314266	-0.650233	0.280627	143.074940	-86.907079	-93.303893
23798		10.364620	0.618670	-0.421504	-0.232721	0.153558	0.575190	0.132155	-0.121225	-0.106530	-1.054932	-0.278076	-0.384766	0.103652	0.006134	-0.004148	0.631737	0.315152	-0.650294	0.280545	143.123890	-86.817684	-93.279918
23799		10.279248	0.470270	-0.459341	-0.093892	0.076426	0.486848	0.126341	-0.075859	-0.125928	-1.062012	-0.266846	-0.375244	0.102797	0.004641	-0.004551	0.631452	0.316019	-0.650190	0.280452	142.737977	-86.742154	-92.823827
23800		10.163712	0.363414	-0.322104	-0.096134	-0.105206	0.361620	0.141788	-0.077714	-0.151005	-1.057861	-0.271484	-0.379395	0.101641	0.003560	-0.003179	0.631173	0.317018	-0.650028	0.280328	142.196805	-86.656997	-92.203245
23801		10.023361	0.327988	-0.163136	-0.166801	-0.260232	0.212599	0.166790	-0.142871	-0.180314	-1.055908	-0.282471	-0.377441	0.100238	0.003191	-0.001557	0.630681	0.318282	-0.649991	0.280088	141.863114	-86.531634	-91.776166
23802		9.918473	0.280934	-0.129196	-0.150716	-0.335507	0.103782	0.197376	-0.214542	-0.199266	-1.052734	-0.283691	-0.368652	0.099189	0.002712	-0.001183	0.629934	0.319804	-0.650104	0.279775	141.842203	-86.367370	-91.644772
23803		9.820160	0.331872	-0.171566	-0.164278	-0.295782	0.008746	0.231789	-0.281245	-0.211042	-1.062012	-0.279541	-0.362549	0.098207	0.003217	-0.001574	0.628928	0.321565	-0.650359	0.279427	142.120733	-86.168682	-91.793742
23804		9.734046	0.394011	-0.236515	-0.175014	-0.236271	-0.072243	0.258313	-0.318024	-0.215716	-1.052734	-0.280273	-0.373047	0.097348	0.003838	-0.002205	0.627764	0.323474	-0.650681	0.279091	142.545451	-85.951804	-92.073968
23805		9.672470	0.477318	-0.339995	-0.180114	-0.137268	-0.125134	0.289301	-0.344007	-0.209186	-1.062012	-0.284424	-0.358643	0.096735	0.004677	-0.003227	0.626452	0.325493	-0.651049	0.278832	143.111416	-85.724982	-92.478169
23806		9.634666	0.601883	-0.368594	-0.267081	-0.072314	-0.156176	0.305379	-0.355079	-0.199420	-1.060303	-0.287354	-0.351318	0.096359	0.005928	-0.003506	0.625061	0.327544	-0.651440	0.278637	143.742755	-85.496302	-92.938771
23807		9.626571	0.752439	-0.493404	-0.315264	0.080999	-0.149645	0.311627	-0.353439	-0.187878	-1.058838	-0.302979	-0.352783	0.096281	0.007441	-0.004752	0.623645	0.329574	-0.651833	0.278499	144.382795	-85.271691	-93.404701
23808		9.634229	0.800224	-0.535146	-0.337355	0.105631	-0.136943	0.321050	-0.334045	-0.169548	-1.054932	-0.299072	-0.337891	0.096358	0.007929	-0.005178	0.622248	0.331543	-0.652178	0.278480	145.003596	-85.062000	-93.845970
23809		9.684384	0.905690	-0.575671	-0.405377	0.164797	-0.078860	0.328658	-0.291695	-0.150301	-1.061768	-0.300537	-0.343262	0.096859	0.008993	-0.005601	0.620945	0.333414	-0.652409	0.278612	145.533242	-84.877990	-94.191568
23810		9.702797	0.982008	-0.617317	-0.448651	0.213546	-0.053449	0.327298	-0.237281	-0.136226	-1.059814	-0.301270	-0.332520	0.097042	0.009764	-0.006042	0.619800	0.335155	-0.652493	0.278875	145.915142	-84.724232	-94.389621
23811		9.692776	0.986083	-0.682250	-0.419194	0.243123	-0.058054	0.325496	-0.185932	-0.115089	-1.058838	-0.309082	-0.334717	0.096940	0.009816	-0.006716	0.618793	0.336751	-0.652454	0.279281	146.212727	-84.601359	-94.504136
23812		9.763083	0.965464	-0.637803	-0.437189	0.169276	0.007541	0.315728	-0.142677	-0.101817	-1.057861	-0.306152	-0.329102	0.097640	0.009615	-0.006293	0.617923	0.338210	-0.652314	0.279769	146.418931	-84.503458	-94.532450
23813		9.838554	0.948503	-0.647774	-0.422037	0.144249	0.082639	0.310150	-0.083045	-0.090132	-1.064453	-0.309326	-0.330322	0.098392	0.009451	-0.006422	0.617239	0.339530	-0.652016	0.280374	146.481741	-84.437548	-94.419963
23814		9.811772	0.909760	-0.731490	-0.341035	0.178799	0.060778	0.297199	-0.031114	-0.079084	-1.066650	-0.311768	-0.318848	0.098122	0.009070	-0.007286	0.616730	0.340700	-0.651593	0.281060	146.423742	-84.400110	-94.193503
23815		9.787228	0.825218	-0.672980	-0.308778	0.077856	0.027145	0.289185	0.007904	-0.072387	-1.062012	-0.317139	-0.325195	0.097875	0.008226	-0.006722	0.616350	0.341769	-0.651071	0.281804	146.269448	-84.383191	-93.874923
23816		9.750676	0.798418	-0.618592	-0.318108	0.019048	-0.015022	0.289515	0.021217	-0.065426	-1.062500	-0.309326	-0.325195	0.097509	0.007961	-0.006185	0.616002	0.342795	-0.650517	0.282595	146.106856	-84.374911	-93.547769
23817		9.694609	0.754080	-0.586745	-0.299873	-0.030500	-0.075774	0.283260	0.004569	-0.062130	-1.068604	-0.312012	-0.318115	0.096948	0.007519	-0.005859	0.615604	0.343816	-0.650029	0.283345	146.011670	-84.359533	-93.291980
23818		9.674975	0.672347	-0.586057	-0.234440	-0.082605	-0.099868	0.282179	-0.019609	-0.057002	-1.066895	-0.326660	-0.321045	0.096752	0.006704	-0.005842	0.615122	0.344849	-0.649623	0.284066	146.019446	-84.334464	-93.140256
23819		9.686398	0.686389	-0.609948	-0.232562	-0.062370	-0.085844	0.281198	-0.051640	-0.052637	-1.064941	-0.315430	-0.323486	0.096867	0.006847	-0.006065	0.614530	0.345910	-0.649324	0.284741	146.151210	-84.295405	-93.113703
23820		9.664454	0.693311	-0.629841	-0.229886	-0.048241	-0.105789	0.282075	-0.084639	-0.039913	-1.069092	-0.320068	-0.319580	0.096649	0.006923	-0.006248	0.613810	0.346979	-0.649146	0.285401	146.446819	-84.244844	-93.251292
23821		9.723951	0.678560	-0.707667	-0.178028	-0.010815	-0.041064	0.289027	-0.109250	-0.038370	-1.064697	-0.331543	-0.321533	0.097245	0.006777	-0.007014	0.612993	0.348098	-0.649035	0.286043	146.826341	-84.182739	-93.469253
23822		9.801200	0.702713	-0.753568	-0.177738	0.021714	0.040896	0.281392	-0.109514	-0.035890	-1.060059	-0.329102	-0.313477	0.098017	0.007020	-0.007472	0.612185	0.349186	-0.648937	0.286669	147.207168	-84.121310	-93.692932
23823		9.816344	0.716525	-0.843750	-0.142678	0.090771	0.064424	0.274609	-0.093054	-0.026781	-1.066650	-0.317383	-0.305664	0.098168	0.007164	-0.008382	0.611428	0.350199	-0.648814	0.287328	147.571878	-84.070317	-93.904354
23824		9.863774	0.689227	-0.901576	-0.093636	0.108443	0.115121	0.269659	-0.072184	-0.021870	-1.066406	-0.324951	-0.305664	0.098642	0.006894	-0.008971	0.610739	0.351150	-0.648641	0.288022	147.890385	-84.030979	-94.072177
23825		9.891353	0.760560	-0.884698	-0.167328	0.128116	0.145003	0.273076	-0.049651	-0.020074	-1.062744	-0.328369	-0.306641	0.098916	0.007608	-0.008812	0.610112	0.352073	-0.648397	0.288771	148.151490	-84.002879	-94.180339
23826		9.877340	0.772032	-0.861238	-0.195043	0.113180	0.129584	0.253459	-0.031855	-0.019901	-1.064453	-0.322754	-0.306641	0.098776	0.007721	-0.008587	0.609578	0.352908	-0.648126	0.289489	148.349215	-83.983625	-94.236069
23827		9.917520	0.735896	-0.953537	-0.115631	0.159864	0.175759	0.239642	-0.008589	-0.014589	-1.066406	-0.336670	-0.307129	0.099176	0.007363	-0.009522	0.609133	0.353651	-0.647813	0.290218	148.497193	-83.977135	-94.249747
23828		9.915845	0.756893	-0.944160	-0.140545	0.164700	0.174376	0.221428	0.018556	-0.010709	-1.065918	-0.329590	-0.311523	0.099158	0.007574	-0.009442	0.608804	0.354285	-0.647449	0.290948	148.575109	-83.985235	-94.203466
23829		9.871053	0.739529	-0.916467	-0.143475	0.139215	0.126354	0.206580	0.040036	-0.002717	-1.075195	-0.325439	-0.314941	0.098709	0.007403	-0.009177	0.608556	0.354817	-0.647055	0.291691	148.621180	-84.006065	-94.133722
23830		9.877541	0.768024	-0.862507	-0.198791	0.115010	0.129488	0.194254	0.045273	0.000946	-1.066650	-0.330566	-0.308350	0.098773	0.007689	-0.008640	0.608343	0.355291	-0.646668	0.292415	148.661747	-84.030720	-94.065558
23831		9.841545	0.804043	-0.830780	-0.246874	0.118039	0.092756	0.172193	0.050299	0.006518	-1.063721	-0.340088	-0.301758	0.098413	0.008051	-0.008326	0.608176	0.355673	-0.646309	0.293093	148.701858	-84.059334	-94.009637
23832		9.814965	0.826067	-0.768287	-0.301368	0.087688	0.061910	0.157049	0.054741	0.013801	-1.054932	-0.324707	-0.310059	0.098147	0.008273	-0.007703	0.608039	0.355979	-0.645969	0.293753	148.754258	-84.092448	-93.974793
23833		9.773120	0.830576	-0.786171	-0.295052	0.115379	0.022017	0.136308	0.070839	0.025724	-1.062012	-0.335693	-0.308350	0.097727	0.008324	-0.007891	0.607973	0.356159	-0.645633	0.294409	148.805737	-84.136840	-93.950977
23834		9.710251	0.838375	-0.813811	-0.285079	0.156716	-0.037806	0.116006	0.087260	0.026363	-1.060303	-0.325684	-0.298340	0.097098	0.008401	-0.008176	0.607996	0.356250	-0.645277	0.295032	148.800273	-84.189629	-93.881636
23835		9.721674	0.865961	-0.813348	-0.307187	0.181304	-0.025189	0.090060	0.117178	0.043481	-1.065186	-0.334961	-0.304932	0.097210	0.008684	-0.008187	0.608135	0.356164	-0.644899	0.295675	148.774843	-84.262002	-93.807156
23836		9.744323	0.856972	-0.790037	-0.311742	0.168137	-0.005296	0.058436	0.139055	0.051443	-1.063721	-0.328613	-0.313965	0.097435	0.008597	-0.007966	0.608389	0.355923	-0.644515	0.296280	148.702775	-84.347597	-93.704040
23837		9.679567	0.839280	-0.761074	-0.310998	0.156250	-0.073258	0.041717	0.161557	0.060128	-1.067627	-0.329102	-0.312500	0.096787	0.008423	-0.007687	0.608732	0.355570	-0.644102	0.296897	148.593743	-84.446628	-93.573412
23838		9.692101	0.797487	-0.725140	-0.294379	0.118920	-0.066005	0.018773	0.169360	0.063704	-1.062744	-0.331543	-0.315918	0.096912	0.008006	-0.007333	0.609136	0.355122	-0.643705	0.297465	148.459983	-84.550665	-93.431206
23839		9.756253	0.750202	-0.784596	-0.218625	0.151931	0.000159	-0.001817	0.169611	0.065014	-1.069092	-0.325928	-0.322021	0.097553	0.007534	-0.007929	0.609573	0.354609	-0.643340	0.297970	148.315894	-84.655034	-93.290464
23840		9.849073	0.707833	-0.790491	-0.176938	0.142325	0.090774	-0.021443	0.185701	0.062199	-1.056885	-0.325195	-0.312500	0.098481	0.007108	-0.007997	0.610102	0.354019	-0.642950	0.298433	148.085708	-84.766489	-93.074610
23841		9.925901	0.670517	-0.865154	-0.098408	0.195115	0.170989	-0.037751	0.211082	0.063572	-1.070068	-0.328125	-0.316650	0.099248	0.006735	-0.008758	0.610737	0.353337	-0.642508	0.298891	147.758351	-84.890442	-92.770574
23842		9.957714	0.618053	-0.911186	-0.021817	0.221973	0.203226	-0.054948	0.233720	0.057168	-1.064941	-0.329102	-0.321289	0.099565	0.006206	-0.009230	0.611486	0.352589	-0.642010	0.299314	147.288568	-85.023305	-92.333535
23843		10.026751	0.557623	-0.871572	0.014204	0.172777	0.265814	-0.071077	0.258144	0.048015	-1.064209	-0.326172	-0.325684	0.100255	0.005597	-0.008847	0.612353	0.351784	-0.641445	0.299700	146.643286	-85.164532	-91.729695
23844		10.020403	0.499698	-0.846328	0.058403	0.144664	0.254589	-0.081340	0.274884	0.046741	-1.056396	-0.319580	-0.331299	0.100191	0.005017	-0.008603	0.613293	0.350926	-0.640840	0.300078	145.880492	-85.312814	-91.014003
23845		10.059438	0.390384	-0.816660	0.143207	0.080516	0.286054	-0.103103	0.285259	0.039599	-1.063721	-0.322510	-0.332031	0.100582	0.003919	-0.008312	0.614313	0.350008	-0.640223	0.300382	144.973063	-85.462661	-90.165832
23846		10.046672	0.392596	-0.858899	0.179150	0.143365	0.275659	-0.113266	0.287098	0.038316	-1.060059	-0.326660	-0.329590	0.100453	0.003940	-0.008735	0.615358	0.349058	-0.639610	0.300652	143.982897	-85.611917	-89.240736
23847		10.096435	0.315733	-0.835915	0.242761	0.103386	0.319772	-0.122135	0.302436	0.038241	-1.063477	-0.329590	-0.335938	0.100951	0.003171	-0.008514	0.616465	0.348058	-0.638963	0.300919	142.849875	-85.766720	-88.177616
23848		10.054963	0.275342	-0.789025	0.263839	0.073471	0.273221	-0.131796	0.329292	0.038334	-1.060547	-0.322021	-0.336426	0.100536	0.002767	-0.008058	0.617674	0.346986	-0.638245	0.301202	141.493353	-85.932051	-86.896194
23849		10.032422	0.252925	-0.717634	0.257259	0.034318	0.245195	-0.133966	0.348981	0.038902	-1.055908	-0.320801	-0.352295	0.100311	0.002544	-0.007353	0.618945	0.345876	-0.637469	0.301513	139.923561	-86.103794	-85.402484
23850		9.932100	0.180341	-0.725089	0.337316	0.036426	0.141692	-0.126138	0.357725	0.040948	-1.061279	-0.317871	-0.357910	0.099307	0.001819	-0.007430	0.620227	0.344768	-0.636655	0.301869	138.179120	-86.277133	-83.729585
23851		9.916297	0.233337	-0.639228	0.261626	0.030249	0.123435	-0.117663	0.366102	0.039659	-1.055176	-0.311035	-0.353271	0.099151	0.002349	-0.006575	0.621519	0.343677	-0.635798	0.302261	136.214308	-86.449701	-81.831299
23852		9.838815	0.208427	-0.572057	0.259632	-0.001462	0.041522	-0.122379	0.373916	0.047070	-1.049072	-0.316406	-0.356689	0.098377	0.002104	-0.005906	0.622831	0.342534	-0.634934	0.302673	134.046059	-86.624098	-79.732305
23853		9.795879	0.256791	-0.538047	0.218089	0.034969	-0.001176	-0.122343	0.390162	0.042890	-1.045166	-0.319824	-0.358154	0.097947	0.002586	-0.005573	0.624198	0.341379	-0.634009	0.303099	131.498266	-86.797600	-77.253459
23854		9.732415	0.309313	-0.514496	0.180256	0.085024	-0.063820	-0.126072	0.419693	0.046548	-1.047119	-0.319824	-0.364502	0.097312	0.003112	-0.005351	0.625657	0.340154	-0.633001	0.303575	128.439409	-86.976521	-74.265361
23855		9.665500	0.315945	-0.450093	0.157112	0.077477	-0.133150	-0.142917	0.451843	0.045752	-1.055420	-0.315186	-0.376709	0.096644	0.003178	-0.004722	0.627244	0.338829	-0.631914	0.304046	124.694549	-87.156059	-70.600521
23856		9.626063	0.304121	-0.340595	0.123809	0.022955	-0.176633	-0.154112	0.467473	0.050779	-1.052490	-0.313965	-0.382324	0.096252	0.003063	-0.003633	0.628889	0.337426	-0.630799	0.304524	120.327821	-87.329234	-66.320090
23857		9.605208	0.325829	-0.297542	0.102582	0.041389	-0.197995	-0.160449	0.462145	0.051059	-1.047852	-0.310547	-0.381104	0.096044	0.003280	-0.003200	0.630522	0.336010	-0.629708	0.304971	115.457289	-87.483925	-61.539532
23858		9.589076	0.265205	-0.197054	0.113524	-0.035541	-0.218667	-0.165760	0.457015	0.055162	-1.041260	-0.307129	-0.401123	0.095885	0.002677	-0.002192	0.632139	0.334568	-0.628644	0.305404	110.078889	-87.619790	-56.254241
23859		9.603422	0.270196	-0.172085	0.115367	-0.015318	-0.204636	-0.154680	0.425906	0.054536	-1.049561	-0.310303	-0.399902	0.096030	0.002727	-0.001927	0.633636	0.333210	-0.627657	0.305816	104.556501	-87.727879	-50.818938
23860		9.662652	0.274178	-0.082805	0.079344	-0.051242	-0.146259	-0.152116	0.391457	0.053904	-1.050537	-0.302979	-0.397705	0.096624	0.002767	-0.001019	0.635019	0.331913	-0.626770	0.306175	99.054590	-87.809910	-45.403051
23861		9.676622	0.278924	-0.063693	0.081176	-0.031007	-0.132232	-0.155134	0.360799	0.057068	-1.038574	-0.308594	-0.399902	0.096764	0.002816	-0.000814	0.636303	0.330642	-0.625989	0.306483	93.662097	-87.871360	-40.098612
23862		9.687909	0.215545	-0.020139	0.121651	-0.072757	-0.123402	-0.152824	0.338319	0.054605	-1.037598	-0.308838	-0.406006	0.096878	0.002182	-0.000367	0.637515	0.329419	-0.625268	0.306752	88.356531	-87.912279	-34.879999
23863		9.717273	0.259727	0.029445	0.071830	-0.057284	-0.092338	-0.147619	0.325386	0.050759	-1.040283	-0.301758	-0.414063	0.097172	0.002622	0.000134	0.638681	0.328244	-0.624573	0.307002	83.105891	-87.933693	-29.713478
23864		9.689710	0.234956	0.095945	0.065277	-0.096402	-0.120358	-0.138569	0.316707	0.043377	-1.034424	-0.303955	-0.418213	0.096898	0.002371	0.000804	0.639815	0.327132	-0.623877	0.307242	77.951819	-87.934668	-24.638438
23865		9.648673	0.290795	0.163014	-0.006675	-0.088907	-0.158672	-0.138034	0.308865	0.033452	-1.040527	-0.308594	-0.431641	0.096489	0.002925	0.001479	0.640936	0.326065	-0.623188	0.307438	73.001113	-87.915150	-19.766558
23866		9.511926	0.315976	0.271698	-0.082347	-0.133388	-0.292932	-0.131613	0.296034	0.024181	-1.044189	-0.298340	-0.430664	0.095123	0.003173	0.002574	0.642021	0.325066	-0.622513	0.307603	68.413327	-87.878414	-15.254090
23867		9.456288	0.363359	0.352442	-0.157072	-0.145682	-0.345287	-0.124309	0.264967	0.012955	-1.042969	-0.295654	-0.433350	0.094567	0.003642	0.003397	0.643011	0.324172	-0.621907	0.307703	64.511322	-87.830776	-11.423556
23868		9.369859	0.473929	0.406999	-0.269469	-0.102142	-0.426451	-0.120815	0.221324	0.010142	-1.038574	-0.299316	-0.440186	0.093703	0.004746	0.003963	0.643864	0.323364	-0.621430	0.307734	61.374606	-87.784349	-8.356784
23869		9.297933	0.454504	0.392009	-0.238059	-0.085138	-0.498834	-0.132367	0.173404	0.002428	-1.043945	-0.296875	-0.442871	0.092983	0.004549	0.003836	0.644597	0.322617	-0.621112	0.307625	59.022156	-87.742209	-6.081371
23870		9.242741	0.485414	0.277162	-0.187993	0.038238	-0.555048	-0.113625	0.139400	0.001197	-1.034424	-0.309814	-0.427734	0.092429	0.004856	0.002704	0.645196	0.321986	-0.620871	0.307517	57.182031	-87.706492	-4.307904
23871		9.357321	0.590936	0.377237	-0.321821	0.032483	-0.434716	-0.106883	0.113722	0.005107	-1.032959	-0.293945	-0.438965	0.093575	0.005914	0.003716	0.645697	0.321404	-0.620709	0.307399	55.673533	-87.678798	-2.862403
23872		9.496300	0.478934	0.368426	-0.216017	-0.017464	-0.299651	-0.142481	0.134992	0.008051	-1.042480	-0.296387	-0.437012	0.094965	0.004796	0.003617	0.646318	0.320664	-0.620537	0.307216	53.913531	-87.643739	-1.185553
23873		9.587238	0.350359	0.383000	-0.112102	-0.093441	-0.212518	-0.140848	0.168674	0.018367	-1.037598	-0.300781	-0.439941	0.095875	0.003515	0.003747	0.647022	0.319847	-0.620270	0.307123	51.758598	-87.599484	0.887537
23874		9.737740	0.268694	0.372940	-0.027530	-0.119153	-0.064873	-0.132905	0.176967	0.026664	-1.031006	-0.300049	-0.438477	0.097380	0.002702	0.003641	0.647727	0.319015	-0.619976	0.307096	49.527915	-87.552555	3.041050
23875		9.900748	0.077536	0.309412	0.176814	-0.167012	0.090210	-0.118947	0.194487	0.044050	-1.029785	-0.298584	-0.444092	0.099010	0.000799	0.002997	0.648436	0.318148	-0.619632	0.307195	47.069117	-87.502777	5.430991
23876		10.105281	-0.174612	0.210723	0.452069	-0.221914	0.283745	-0.072170	0.197852	0.063003	-1.028320	-0.290771	-0.444580	0.101055	-0.001714	0.002008	0.649052	0.317368	-0.619233	0.307506	44.529020	-87.454901	7.929218
23877		10.223710	-0.344545	0.092458	0.670373	-0.209249	0.393108	-0.018045	0.225556	0.073183	-1.033203	-0.291504	-0.450928	0.102239	-0.003408	0.000810	0.649650	0.316689	-0.618677	0.308061	41.790407	-87.394516	10.657317
23878		10.268976	-0.540503	-0.097980	0.951593	-0.151128	0.425729	0.048917	0.278876	0.092049	-1.027832	-0.294189	-0.456055	0.102691	-0.005358	-0.001124	0.650278	0.316087	-0.617873	0.308969	38.626953	-87.311451	13.849247
23879		10.174423	-0.660337	-0.139869	1.079805	-0.158134	0.325525	0.104921	0.386992	0.100276	-1.026367	-0.289063	-0.458740	0.101745	-0.006552	-0.001599	0.651135	0.315473	-0.616642	0.310245	34.887314	-87.172898	17.650469
23880		10.051008	-0.715407	0.018959	1.039060	-0.278280	0.206177	0.141176	0.463548	0.092501	-1.031494	-0.284668	-0.465088	0.100513	-0.007108	-0.000048	0.652181	0.314881	-0.615090	0.311728	31.168399	-86.983431	21.452276
23881		9.981699	-0.732737	0.287790	0.908610	-0.459250	0.148103	0.165000	0.491622	0.078596	-1.024414	-0.289795	-0.460449	0.099827	-0.007290	0.002626	0.653292	0.314363	-0.613384	0.313281	27.912881	-86.764707	24.804383
23882		10.007461	-0.716210	0.516816	0.781778	-0.588113	0.185917	0.195570	0.448308	0.058209	-1.028809	-0.293457	-0.467285	0.100088	-0.007138	0.004937	0.654251	0.314074	-0.611735	0.314791	25.448893	-86.554052	27.381886
23883		10.073836	-0.654414	0.445444	0.801221	-0.455260	0.250091	0.226529	0.377768	0.033470	-1.023193	-0.291992	-0.480469	0.100748	-0.006532	0.004257	0.654980	0.314071	-0.610227	0.316202	23.754735	-86.369024	29.206382
23884		10.156558	-0.497991	0.293556	0.791420	-0.207144	0.327357	0.275601	0.302664	0.019976	-1.016357	-0.293701	-0.474121	0.101570	-0.004974	0.002775	0.655422	0.314387	-0.608862	0.317600	22.611964	-86.217719	30.506911
23885		10.231293	-0.394512	0.131895	0.826757	0.012271	0.393617	0.299904	0.280491	0.004181	-1.021484	-0.297607	-0.484375	0.102315	-0.003945	0.001170	0.655780	0.314865	-0.607505	0.318983	21.769653	-86.073405	31.520417
23886		10.191202	-0.197549	0.029898	0.745258	0.235186	0.350467	0.302897	0.306792	-0.010495	-1.016357	-0.299561	-0.483643	0.101912	-0.001981	0.000140	0.656234	0.315354	-0.606031	0.320368	21.027706	-85.910996	32.435289
23887		10.070226	0.023635	0.085989	0.547469	0.343422	0.237170	0.319275	0.346699	-0.024084	-1.024902	-0.303711	-0.483398	0.100704	0.000223	0.000686	0.656801	0.315873	-0.604375	0.321819	20.351999	-85.723738	33.293282
23888		9.984164	0.258964	0.181807	0.318188	0.429000	0.162194	0.310485	0.353516	-0.030240	-1.006592	-0.303711	-0.482178	0.099845	0.002572	0.001646	0.657410	0.316368	-0.602698	0.323233	19.759733	-85.530878	34.062844
23889		9.866365	0.311187	0.137216	0.315901	0.515280	0.041014	0.295045	0.322161	-0.034116	-1.014648	-0.304199	-0.497070	0.098666	0.003093	0.001218	0.657951	0.316874	-0.601140	0.324535	19.315168	-85.353729	34.675465
23890		9.730982	0.375189	0.114745	0.286896	0.586203	-0.095695	0.283339	0.278434	-0.031413	-1.010254	-0.301758	-0.489502	0.097312	0.003735	0.001017	0.658372	0.317402	-0.599746	0.325742	18.980013	-85.200389	35.171785
23891		9.719037	0.420540	0.044496	0.305618	0.686761	-0.113542	0.271531	0.229647	-0.027587	-1.007324	-0.307617	-0.489746	0.097191	0.004191	0.000339	0.658657	0.317959	-0.598536	0.326845	18.744845	-85.074050	35.561000
23892		9.712050	0.459094	0.043586	0.287241	0.725038	-0.121023	0.245652	0.210281	-0.022890	-1.006836	-0.306152	-0.488770	0.097121	0.004579	0.000339	0.658915	0.318447	-0.597438	0.327857	18.519970	-84.958944	35.925142
23893		9.684495	0.420079	0.086023	0.304660	0.681414	-0.147485	0.229753	0.214013	-0.021918	-1.014404	-0.312744	-0.490234	0.096846	0.004189	0.000761	0.659207	0.318873	-0.596354	0.328828	18.287465	-84.841871	36.287792
23894		9.679912	0.491421	0.250431	0.164164	0.603993	-0.137300	0.218852	0.216625	-0.026470	-1.000244	-0.307373	-0.496582	0.096802	0.004899	0.002405	0.659530	0.319271	-0.595271	0.329756	18.082578	-84.722449	36.616595
23895		9.686390	0.467393	0.332414	0.150029	0.537701	-0.125405	0.208003	0.198610	-0.033607	-0.998535	-0.311768	-0.499023	0.096868	0.004654	0.003233	0.659827	0.319684	-0.594252	0.330597	17.959370	-84.611483	36.857092
23896		9.748144	0.415332	0.375017	0.185546	0.488601	-0.062495	0.213463	0.181131	-0.044009	-1.001465	-0.308105	-0.492920	0.097486	0.004128	0.003666	0.660079	0.320174	-0.593264	0.331393	17.936216	-84.508163	37.000307
23897		9.765674	0.408526	0.364942	0.211281	0.504409	-0.046963	0.218417	0.171445	-0.057441	-1.002930	-0.310059	-0.502441	0.097661	0.004053	0.003570	0.660316	0.320736	-0.592277	0.332142	18.012360	-84.407771	37.046594
23898		9.786668	0.389829	0.385868	0.230414	0.486861	-0.025472	0.214096	0.167290	-0.078893	-1.010010	-0.305908	-0.501709	0.097871	0.003856	0.003781	0.660581	0.321353	-0.591276	0.332802	18.208936	-84.305860	36.969426
23899		9.745846	0.317741	0.389962	0.299526	0.447873	-0.068756	0.219537	0.169767	-0.093967	-0.998291	-0.321533	-0.496338	0.097463	0.003127	0.003820	0.660870	0.322028	-0.590232	0.333429	18.481296	-84.199823	36.819167
23900		9.702141	0.286845	0.486749	0.283589	0.355508	-0.104757	0.239624	0.168868	-0.110262	-1.004395	-0.329834	-0.499268	0.097027	0.002809	0.004789	0.661148	0.322818	-0.589131	0.334062	18.843538	-84.091255	36.590167
23901		9.624148	0.243241	0.542152	0.299247	0.285776	-0.179097	0.262118	0.144173	-0.120600	-0.995605	-0.327637	-0.500000	0.096247	0.002367	0.005355	0.661333	0.323754	-0.588055	0.334684	19.306159	-83.993908	36.273086
23902		9.567104	0.277059	0.549333	0.279134	0.297941	-0.234520	0.273557	0.111680	-0.127421	-0.992920	-0.323975	-0.506104	0.095676	0.002702	0.005444	0.661414	0.324802	-0.587054	0.335265	19.855584	-83.912541	35.875395
23903		9.516902	0.266630	0.533284	0.306951	0.301188	-0.286830	0.283582	0.063287	-0.126626	-0.999756	-0.327637	-0.495850	0.095172	0.002599	0.005306	0.661334	0.325960	-0.586197	0.335798	20.484281	-83.856894	35.403565
23904		9.482420	0.265329	0.495795	0.337535	0.324252	-0.325147	0.303106	0.007890	-0.126184	-0.995850	-0.321289	-0.496582	0.094826	0.002586	0.004958	0.661057	0.327274	-0.585490	0.336300	21.216392	-83.830460	34.838979
23905		9.506251	0.323167	0.396754	0.355284	0.431022	-0.309075	0.311270	-0.038580	-0.123170	-1.000244	-0.328125	-0.492432	0.095064	0.003167	0.003991	0.660624	0.328683	-0.584926	0.336757	22.025433	-83.828547	34.201660
23906		9.579408	0.394787	0.276568	0.374732	0.563887	-0.245086	0.302903	-0.055212	-0.111243	-1.000000	-0.336426	-0.492432	0.095795	0.003890	0.002798	0.660133	0.330057	-0.584449	0.337202	22.803825	-83.837201	33.590396
23907		9.604713	0.357569	0.267271	0.417820	0.541837	-0.221982	0.288665	-0.047092	-0.099418	-0.999512	-0.340820	-0.497803	0.096048	0.003524	0.002700	0.659670	0.331335	-0.583988	0.337656	23.502149	-83.843293	33.051424
23908		9.624697	0.452894	0.256632	0.350496	0.595257	-0.198709	0.282016	-0.034973	-0.089756	-0.994141	-0.340332	-0.489502	0.096249	0.004482	0.002589	0.659234	0.332541	-0.583512	0.338143	24.124077	-83.844676	32.585576
23909		9.617310	0.525867	0.353067	0.240490	0.546781	-0.193070	0.267273	-0.024236	-0.074025	-0.996826	-0.355469	-0.490967	0.096175	0.005218	0.003549	0.658826	0.333635	-0.583051	0.338655	24.638587	-83.843604	32.219161
23910		9.647583	0.551815	0.316224	0.245014	0.586828	-0.165100	0.255006	-0.018929	-0.065653	-1.001709	-0.342529	-0.489990	0.096477	0.005482	0.003178	0.658439	0.334654	-0.582606	0.339168	25.093265	-83.841547	31.905983
23911		9.640355	0.593015	0.290427	0.226673	0.625055	-0.172646	0.238003	-0.010284	-0.051257	-0.991943	-0.348633	-0.491455	0.096405	0.005902	0.002916	0.658081	0.335560	-0.582185	0.339692	25.449635	-83.838205	31.681755
23912		9.631799	0.554125	0.328476	0.240226	0.567820	-0.179081	0.227872	0.001941	-0.037055	-0.983154	-0.352539	-0.481689	0.096319	0.005520	0.003290	0.657749	0.336370	-0.581764	0.340253	25.703248	-83.832042	31.555098
23913		9.585872	0.520401	0.337043	0.261486	0.537654	-0.225409	0.216783	0.009749	-0.024193	-1.000244	-0.349365	-0.482910	0.095860	0.005189	0.003371	0.657437	0.337092	-0.581357	0.340837	25.871455	-83.824895	31.507895
23914		9.548164	0.549518	0.388176	0.207034	0.507331	-0.256546	0.207904	0.009688	-0.007535	-0.992432	-0.343506	-0.486328	0.095482	0.005488	0.003883	0.657109	0.337737	-0.580993	0.341451	25.954808	-83.822067	31.541026
23915		9.495301	0.568391	0.455022	0.149842	0.457191	-0.301674	0.209221	-0.010807	0.006129	-0.990234	-0.344971	-0.484863	0.094953	0.005682	0.004561	0.656697	0.338381	-0.580716	0.342077	26.021764	-83.833101	31.591306
23916		9.491844	0.611826	0.541797	0.063742	0.404268	-0.294522	0.201563	-0.047719	0.014109	-0.987305	-0.354248	-0.479980	0.094917	0.006119	0.005447	0.656175	0.339039	-0.580587	0.342644	26.131852	-83.865283	31.593821
23917		9.599027	0.694517	0.498714	0.020961	0.485647	-0.187923	0.187442	-0.076152	0.026243	-0.990723	-0.346436	-0.478271	0.095987	0.006953	0.005030	0.655575	0.339664	-0.580595	0.343162	26.243919	-83.915019	31.586178
23918		9.650121	0.806341	0.489272	-0.071426	0.549848	-0.132451	0.180756	-0.084741	0.033665	-0.990723	-0.346191	-0.476563	0.096498	0.008075	0.004941	0.654946	0.340260	-0.580655	0.343670	26.337455	-83.971188	31.593421
23919		9.655618	0.879960	0.489073	-0.141516	0.583482	-0.123312	0.159971	-0.079831	0.043436	-0.995361	-0.350586	-0.475830	0.096552	0.008817	0.004936	0.654350	0.340751	-0.580750	0.344157	26.360172	-84.027183	31.659795
23920		9.717508	0.943979	0.535334	-0.223220	0.576520	-0.054335	0.142126	-0.073229	0.045270	-0.994629	-0.344727	-0.476807	0.097171	0.009458	0.005396	0.653799	0.341167	-0.580857	0.344610	26.346675	-84.080410	31.752359
23921		9.714880	0.962564	0.536013	-0.248184	0.581401	-0.055991	0.125556	-0.064067	0.051633	-0.994873	-0.353516	-0.479248	0.097145	0.009647	0.005397	0.653293	0.341494	-0.580973	0.345051	26.268542	-84.130385	31.900284
23922		9.671260	1.009382	0.515525	-0.289378	0.617800	-0.099168	0.096907	-0.058987	0.049161	-0.993652	-0.348877	-0.477783	0.096709	0.010115	0.005189	0.652854	0.341725	-0.581118	0.345409	26.171704	-84.177232	32.050534
23923		9.670745	0.916335	0.532205	-0.227941	0.551613	-0.102384	0.080418	-0.064723	0.059459	-0.993408	-0.343750	-0.480225	0.096703	0.009190	0.005357	0.652409	0.341883	-0.581327	0.345742	26.025369	-84.229462	32.240989
23924		9.659645	0.869100	0.491741	-0.177207	0.556589	-0.119149	0.058393	-0.088827	0.051001	-0.999512	-0.346680	-0.477051	0.096592	0.008714	0.004963	0.651945	0.342034	-0.581639	0.345943	25.966940	-84.292064	32.330372
23925		9.663721	0.830477	0.432401	-0.123691	0.581393	-0.121927	0.042528	-0.108061	0.058729	-0.997070	-0.347900	-0.470947	0.096632	0.008332	0.004378	0.651439	0.342145	-0.582053	0.346089	25.906335	-84.366386	32.412818
23926		9.611571	0.811196	0.366423	-0.089139	0.617870	-0.180197	0.020815	-0.128189	0.059450	-0.998779	-0.336914	-0.469482	0.096111	0.008140	0.003727	0.650910	0.342218	-0.582572	0.346140	25.879393	-84.451418	32.448982
23927		9.687936	0.793466	0.414555	-0.105669	0.564169	-0.100423	0.000344	-0.135809	0.062071	-1.001221	-0.338135	-0.478027	0.096874	0.007965	0.004211	0.650389	0.342229	-0.583155	0.346127	25.845208	-84.540870	32.480581
23928		9.660224	0.858249	0.411696	-0.174660	0.591511	-0.125293	-0.030556	-0.141807	0.062395	-0.995117	-0.350342	-0.457031	0.096597	0.008613	0.004184	0.649902	0.342148	-0.583812	0.346014	25.805597	-84.633673	32.499688
23929		9.608440	0.849516	0.384819	-0.170649	0.599123	-0.179215	-0.058861	-0.148391	0.060054	-1.005127	-0.334717	-0.459717	0.096079	0.008525	0.003917	0.649449	0.341994	-0.584533	0.345799	25.780089	-84.729109	32.488494
23930		9.571151	0.838746	0.298846	-0.133309	0.655391	-0.223506	-0.063193	-0.171395	0.058378	-1.000977	-0.335205	-0.462158	0.095706	0.008416	0.003068	0.648936	0.341873	-0.585335	0.345527	25.825966	-84.836252	32.403353
23931		9.599731	0.884003	0.296823	-0.183328	0.671052	-0.192892	-0.094017	-0.201990	0.053680	-1.003174	-0.341553	-0.461914	0.095992	0.008867	0.003061	0.648395	0.341715	-0.586279	0.345097	25.969745	-84.957718	32.201979
23932		9.615874	0.887048	0.259943	-0.181589	0.691253	-0.178965	-0.120248	-0.228420	0.057380	-0.997559	-0.334473	-0.461426	0.096153	0.008900	0.002704	0.647814	0.341507	-0.587360	0.344555	26.163015	-85.093840	31.935887
23933		9.597944	0.884595	0.223279	-0.178685	0.705167	-0.198965	-0.138952	-0.245813	0.051670	-0.998047	-0.337891	-0.458740	0.095974	0.008872	0.002345	0.647222	0.341284	-0.588518	0.343910	26.446192	-85.237174	31.568862
23934		9.625729	0.919369	0.174842	-0.198121	0.749686	-0.172711	-0.154732	-0.254889	0.051103	-1.002686	-0.325195	-0.456543	0.096253	0.009220	0.001864	0.646630	0.341027	-0.589731	0.343200	26.773957	-85.384962	31.148080
23935		9.700270	1.001712	0.156323	-0.270487	0.795997	-0.095883	-0.173295	-0.252548	0.051947	-0.996582	-0.331543	-0.445557	0.096998	0.010044	0.001677	0.646074	0.340702	-0.590968	0.342442	27.101276	-85.531457	30.717189
23936		9.776729	1.050847	0.089153	-0.288344	0.866670	-0.021755	-0.190468	-0.234580	0.050761	-0.996582	-0.323486	-0.441406	0.097763	0.010534	0.000996	0.645600	0.340294	-0.592174	0.341658	27.390522	-85.668505	30.314653
23937		9.804139	1.085631	0.043592	-0.307779	0.911230	0.004468	-0.212737	-0.215414	0.055055	-1.001465	-0.331055	-0.452393	0.098038	0.010884	0.000530	0.645213	0.339768	-0.593360	0.340854	27.589087	-85.796612	29.990370
23938		9.830134	1.109581	-0.039922	-0.296625	0.984619	0.026358	-0.226427	-0.178070	0.061623	-1.004150	-0.324219	-0.448242	0.098298	0.011126	-0.000324	0.644946	0.339114	-0.594461	0.340093	27.611772	-85.907628	29.834625
23939		9.894387	1.126278	-0.090456	-0.293283	1.031021	0.088149	-0.255328	-0.148658	0.072837	-1.000000	-0.323975	-0.450928	0.098940	0.011298	-0.000845	0.644795	0.338282	-0.595531	0.339333	27.427018	-86.006510	29.870246
23940		9.867013	1.068244	-0.117001	-0.245242	1.016106	0.057477	-0.273817	-0.134788	0.085622	-1.005371	-0.308838	-0.448730	0.098666	0.010723	-0.001118	0.644693	0.337329	-0.596610	0.338579	27.079141	-86.101829	30.058715
23941		9.898607	0.966664	-0.148658	-0.154395	0.985056	0.084018	-0.304843	-0.127001	0.089195	-1.004395	-0.312256	-0.452148	0.098983	0.009709	-0.001438	0.644660	0.336250	-0.597720	0.337758	26.639900	-86.193840	30.320957
23942		9.873896	0.885391	-0.183248	-0.082411	0.965640	0.055041	-0.325532	-0.129788	0.092980	-1.003418	-0.307373	-0.453857	0.098736	0.008897	-0.001783	0.644644	0.335097	-0.598879	0.336880	26.154412	-86.288291	30.617516
23943		9.798562	0.779667	-0.240560	0.018636	0.948945	-0.026130	-0.351384	-0.154118	0.099594	-1.010254	-0.308105	-0.460449	0.097984	0.007841	-0.002344	0.644585	0.333880	-0.600168	0.335905	25.673211	-86.396577	30.895025
23944		9.771503	0.688706	-0.321689	0.121258	0.958357	-0.059386	-0.372308	-0.202316	0.097996	-1.008545	-0.295898	-0.438721	0.097715	0.006929	-0.003131	0.644416	0.332681	-0.601643	0.334779	25.367275	-86.529439	30.984784
23945		9.757608	0.639461	-0.374774	0.172090	0.963283	-0.076020	-0.398808	-0.255380	0.097980	-1.002686	-0.306396	-0.443848	0.097578	0.006435	-0.003636	0.644129	0.331483	-0.603329	0.333485	25.250520	-86.689587	30.869908
23946		9.750497	0.634885	-0.471620	0.208402	1.025825	-0.086337	-0.399420	-0.288564	0.102043	-1.006348	-0.301270	-0.438232	0.097508	0.006389	-0.004588	0.643730	0.330325	-0.605127	0.332143	25.247140	-86.868165	30.641147
23947		9.671600	0.673973	-0.505199	0.168626	1.055902	-0.163548	-0.417592	-0.321512	0.101164	-1.006836	-0.289063	-0.443115	0.096721	0.006778	-0.004911	0.643260	0.329162	-0.607054	0.330688	25.408810	-87.063341	30.236718
23948		9.626465	0.719019	-0.543888	0.127665	1.092259	-0.206845	-0.441873	-0.352451	0.097429	-1.012207	-0.290283	-0.443604	0.096271	0.007225	-0.005285	0.642736	0.327983	-0.609111	0.329093	25.803473	-87.273698	29.585118
23949		9.598036	0.783070	-0.559832	0.058853	1.119670	-0.231890	-0.462458	-0.366563	0.091801	-1.003906	-0.297363	-0.434082	0.095987	0.007862	-0.005441	0.642207	0.326773	-0.611231	0.327392	26.415579	-87.489386	28.704195
23950		9.628220	0.835427	-0.533206	-0.021794	1.106526	-0.197079	-0.462221	-0.363112	0.084540	-1.006836	-0.285400	-0.433594	0.096288	0.008383	-0.005177	0.641694	0.325579	-0.613325	0.325669	27.244300	-87.701139	27.606710
23951		9.757934	0.895646	-0.556300	-0.075419	1.141304	-0.064837	-0.478013	-0.340748	0.072735	-1.015869	-0.282471	-0.433105	0.097585	0.008979	-0.005418	0.641289	0.324330	-0.615345	0.323896	28.246983	-87.897420	26.326274
23952		9.829991	1.030270	-0.513942	-0.226356	1.167868	0.012745	-0.492565	-0.279321	0.063628	-1.014893	-0.273193	-0.434814	0.098304	0.010321	-0.005028	0.641105	0.322962	-0.617174	0.322143	29.104801	-88.059724	25.182539
23953		9.928841	1.064635	-0.532919	-0.254871	1.191846	0.112727	-0.511664	-0.210523	0.058404	-1.011963	-0.264648	-0.427246	0.099291	0.010662	-0.005252	0.641168	0.321434	-0.618799	0.320425	29.577862	-88.185485	24.412974
23954		9.949668	1.005930	-0.593914	-0.181290	1.198569	0.131712	-0.538829	-0.152485	0.050397	-1.011475	-0.261963	-0.425537	0.099499	0.010068	-0.005890	0.641462	0.319749	-0.620264	0.318685	29.711933	-88.280170	23.966957
23955		9.869808	0.850517	-0.582000	-0.072322	1.090809	0.050381	-0.545431	-0.111959	0.045219	-1.010498	-0.271240	-0.416992	0.098699	0.008512	-0.005788	0.641895	0.317990	-0.621595	0.316973	29.549332	-88.352976	23.814055
23956		10.026594	0.892741	-0.363930	-0.238044	0.939095	0.213451	-0.514627	-0.107624	0.035632	-1.016113	-0.254883	-0.446289	0.100266	0.008936	-0.003608	0.642303	0.316353	-0.622845	0.315328	29.546600	-88.421154	23.518804
23957		10.800093	1.137812	0.353097	-0.846824	0.525135	1.007129	-0.503457	0.036383	0.012052	-1.015381	-0.259033	-0.435059	0.108001	0.011393	0.003483	0.643175	0.314594	-0.623572	0.313871	28.499543	-88.410464	24.274761
23958		11.083080	0.846522	0.297490	-0.565470	0.411434	1.284640	-0.604130	0.182630	-0.024773	-1.019531	-0.256592	-0.437744	0.110834	0.008460	0.002848	0.644713	0.312395	-0.623925	0.312205	26.736895	-88.315466	25.688820
23959		10.625564	-0.187833	-0.435197	0.706157	0.371444	0.793471	-0.626811	0.219237	-0.066389	-1.016602	-0.250732	-0.439941	0.106250	-0.001927	-0.004462	0.646460	0.310192	-0.624122	0.310392	25.518642	-88.189877	26.545404
23960		10.266019	-0.538762	-0.382175	0.956298	0.112682	0.429395	-0.444575	0.068611	-0.111598	-1.016846	-0.249268	-0.444092	0.102656	-0.005453	-0.003845	0.647517	0.308951	-0.624450	0.308762	26.373017	-88.130726	25.432712
23961		10.565420	-0.164590	0.581720	0.083701	-0.420509	0.761324	-0.387358	-0.106942	-0.173182	-1.011963	-0.241455	-0.438721	0.105650	-0.001726	0.005877	0.648031	0.308355	-0.625157	0.306841	29.577355	-88.142400	22.001691
23962		10.779871	-0.108978	1.016196	-0.219561	-0.747662	0.987446	-0.400572	-0.184772	-0.240362	-1.010986	-0.238281	-0.436523	0.107788	-0.001199	0.010264	0.648421	0.308046	-0.626032	0.304537	34.581288	-88.163631	16.762517
23963		10.538069	-0.266846	0.713536	0.091571	-0.641267	0.733001	-0.319053	-0.147803	-0.277048	-1.010010	-0.245850	-0.445313	0.105372	-0.002803	0.007218	0.648854	0.308057	-0.626601	0.302427	39.775716	-88.139973	11.379559
23964		10.133196	-0.505766	0.226019	0.582183	-0.440714	0.309334	-0.305574	-0.077390	-0.277147	-1.006592	-0.238525	-0.440430	0.101324	-0.005195	0.002307	0.649482	0.308005	-0.626919	0.300463	43.970419	-88.072222	7.004382
23965		9.815865	-0.671756	0.038768	0.831915	-0.424630	-0.018224	-0.311418	-0.074835	-0.263116	-1.007324	-0.240479	-0.447998	0.098150	-0.006846	0.000435	0.650105	0.307883	-0.627256	0.298532	47.652962	-87.999348	3.138210
23966		9.574390	-0.761799	0.030322	0.908720	-0.502164	-0.264276	-0.274856	-0.169573	-0.271907	-0.998291	-0.250732	-0.451660	0.095733	-0.007748	0.000395	0.650384	0.308050	-0.627831	0.296537	52.356886	-87.948095	-1.729223
23967		9.494893	-0.629856	0.254920	0.665248	-0.626936	-0.337512	-0.138781	-0.310615	-0.280416	-1.009521	-0.241211	-0.444580	0.094936	-0.006430	0.002701	0.650021	0.308892	-0.628645	0.294726	58.802653	-87.921983	-8.261668
23968		9.645127	-0.211432	0.457021	0.216533	-0.560185	-0.173125	-0.009211	-0.393069	-0.261315	-1.010986	-0.257568	-0.432373	0.096439	-0.002240	0.004760	0.649167	0.310216	-0.629565	0.293253	66.136839	-87.899393	-15.608972
23969		9.489242	0.292032	0.428799	-0.165517	-0.257770	-0.314219	0.045815	-0.340650	-0.204161	-1.013672	-0.246338	-0.433105	0.094888	0.002822	0.004450	0.648306	0.311459	-0.630317	0.292221	72.196772	-87.865695	-21.649700
23970		9.254207	0.696055	0.355969	-0.445286	0.027262	-0.536240	0.019123	-0.245261	-0.133858	-1.010010	-0.252197	-0.426270	0.092542	0.006898	0.003674	0.647681	0.312256	-0.630909	0.291478	76.365004	-87.836176	-25.812867
23971		9.053069	0.902547	0.439872	-0.672406	0.074471	-0.729273	0.041054	-0.229948	-0.067403	-1.002930	-0.256348	-0.419922	0.090529	0.008994	0.004505	0.646974	0.312889	-0.631520	0.291045	80.006492	-87.831677	-29.436349
23972		9.087464	1.195906	0.558896	-0.986900	0.146467	-0.684212	0.093034	-0.307975	-0.018071	-1.009766	-0.247559	-0.417725	0.090867	0.011948	0.005734	0.645865	0.313649	-0.632385	0.290811	84.758711	-87.850999	-34.141574
23973		9.403685	1.525890	0.708914	-1.348965	0.207422	-0.357670	0.095893	-0.388392	0.019430	-1.012939	-0.250732	-0.419922	0.094021	0.015265	0.007279	0.644442	0.314415	-0.633561	0.290582	90.793803	-87.877024	-40.128806
23974		9.666832	1.700484	0.603867	-1.439569	0.363515	-0.091614	0.021088	-0.460082	0.054429	-1.020020	-0.249268	-0.416016	0.096649	0.017030	0.006263	0.642854	0.314932	-0.635131	0.290112	98.049192	-87.893657	-47.380038
23975		9.981085	1.466673	0.169628	-1.011516	0.511131	0.213146	-0.053036	-0.501013	0.075966	-1.017334	-0.248779	-0.409912	0.099801	0.014705	0.001942	0.641219	0.315199	-0.636968	0.289413	105.952320	-87.882282	-55.321860
23976		10.243013	1.102642	-0.146823	-0.562821	0.483707	0.463777	-0.046480	-0.504894	0.078175	-1.019531	-0.241455	-0.401855	0.102429	0.011066	-0.001212	0.639553	0.315485	-0.638808	0.288731	113.702645	-87.831200	-63.107273
23977		10.489057	0.921256	-0.187502	-0.431015	0.357545	0.703508	-0.043143	-0.480590	0.054328	-1.020508	-0.236084	-0.400146	0.104892	0.009241	-0.001625	0.637991	0.315819	-0.640523	0.288022	120.486645	-87.738217	-69.924002
23978		10.506999	0.731661	-0.099797	-0.375544	0.133597	0.712675	-0.089853	-0.472145	0.021211	-1.021973	-0.230957	-0.395508	0.105071	0.007327	-0.000753	0.636572	0.316097	-0.642224	0.287067	126.267910	-87.603389	-75.764606
23979		10.383613	0.509657	-0.177111	-0.189482	0.019190	0.583179	-0.140926	-0.501705	-0.012955	-1.025879	-0.237305	-0.393066	0.103840	0.005089	-0.001514	0.635185	0.316362	-0.644032	0.285793	131.348345	-87.421233	-80.933573
23980		10.273837	0.371191	-0.297868	-0.039032	-0.013233	0.472072	-0.145335	-0.534182	-0.037098	-1.028564	-0.228760	-0.371094	0.102747	0.003691	-0.002707	0.633730	0.316736	-0.645908	0.284373	135.783721	-87.197855	-85.460247
23981		10.110593	0.441610	-0.396428	-0.062403	0.070774	0.314855	-0.132417	-0.540056	-0.058070	-1.015625	-0.237061	-0.381348	0.101117	0.004384	-0.003694	0.632260	0.317223	-0.647745	0.282919	139.414234	-86.949958	-89.174390
23982		9.986010	0.456039	-0.533423	-0.015260	0.147475	0.196844	-0.166625	-0.517281	-0.063140	-1.019043	-0.227295	-0.375977	0.099875	0.004525	-0.005080	0.630920	0.317585	-0.649547	0.281368	142.285485	-86.699628	-92.148721
23983		9.827595	0.465501	-0.760631	0.097329	0.295257	0.050378	-0.175583	-0.472641	-0.066286	-1.033447	-0.225586	-0.370850	0.098295	0.004616	-0.007378	0.629741	0.317862	-0.651209	0.279851	144.472334	-86.462176	-94.443180
23984		9.793422	0.583710	-0.755439	-0.019109	0.331840	0.021533	-0.164246	-0.418663	-0.059708	-1.020508	-0.233887	-0.367920	0.097951	0.005802	-0.007354	0.628729	0.318021	-0.652722	0.278418	146.167676	-86.247408	-96.249315
23985		9.823380	0.526230	-0.672349	-0.047123	0.199080	0.045600	-0.168979	-0.309436	-0.049516	-1.031250	-0.229492	-0.369141	0.098245	0.005232	-0.006576	0.628041	0.318034	-0.653882	0.277232	147.254562	-86.085882	-97.438607
23986		9.964240	0.538853	-0.490425	-0.188322	0.036991	0.176311	-0.153578	-0.211926	-0.037834	-1.029541	-0.229492	-0.362793	0.099649	0.005366	-0.004803	0.627629	0.317922	-0.654732	0.276284	147.922653	-85.973498	-98.199578
23987		10.008234	0.508832	-0.292030	-0.301708	-0.148732	0.207082	-0.146657	-0.087342	-0.014051	-1.031250	-0.228271	-0.364014	0.100084	0.005079	-0.002880	0.627581	0.317580	-0.655218	0.275634	148.197483	-85.928889	-98.562271
23988		9.976031	0.500427	-0.088057	-0.429628	-0.309446	0.162233	-0.149136	0.004795	0.006232	-1.025879	-0.227051	-0.363281	0.099760	0.005007	-0.000887	0.627809	0.317039	-0.655451	0.275183	148.214505	-85.934792	-98.668073
23989		9.855320	0.413533	0.045581	-0.448406	-0.454305	0.030734	-0.171594	0.058004	0.022784	-1.041504	-0.228271	-0.367188	0.098553	0.004147	0.000424	0.628225	0.316297	-0.655573	0.274797	148.106571	-85.972018	-98.661367
23990		9.720997	0.245195	0.122490	-0.367445	-0.603989	-0.113559	-0.180087	0.089088	0.041850	-1.033447	-0.215576	-0.369385	0.097210	0.002473	0.001179	0.628729	0.315425	-0.655639	0.274490	147.989387	-86.029733	-98.650408
23991		9.635197	0.139098	0.241528	-0.363610	-0.747021	-0.209331	-0.166863	0.067483	0.067520	-1.029541	-0.214111	-0.373535	0.096352	0.001426	0.002382	0.629106	0.314538	-0.655793	0.274274	148.157143	-86.085123	-98.917331
23992		9.599833	0.074145	0.387048	-0.413149	-0.887995	-0.254818	-0.140539	0.019734	0.084940	-1.026611	-0.216797	-0.362549	0.095998	0.000785	0.003860	0.629283	0.313687	-0.656117	0.274067	148.682051	-86.121939	-99.537242
23993		9.550203	0.017111	0.556528	-0.489222	-1.044264	-0.316027	-0.124765	-0.051826	0.097229	-1.033447	-0.217285	-0.359863	0.095500	0.000221	0.005590	0.629161	0.312998	-0.656635	0.273896	149.627046	-86.127011	-100.558987
23994		9.624089	0.023619	0.577412	-0.523548	-1.059730	-0.243994	-0.127936	-0.131572	0.112183	-1.032959	-0.202637	-0.366699	0.096237	0.000294	0.005837	0.628760	0.312360	-0.657432	0.273633	151.008828	-86.094871	-102.020508
23995		9.672722	0.008219	0.525748	-0.499182	-1.037493	-0.194351	-0.110445	-0.195461	0.125906	-1.040283	-0.201172	-0.366699	0.096722	0.000146	0.005352	0.628103	0.311818	-0.658425	0.273374	152.723034	-86.031837	-103.805134
23996		9.655347	0.049098	0.459490	-0.510600	-0.965753	-0.208218	-0.094671	-0.226682	0.135563	-1.046387	-0.201172	-0.364258	0.096548	0.000559	0.004704	0.627327	0.311279	-0.659536	0.273090	154.567762	-85.951137	-105.721841
23997		9.643637	0.096278	0.331974	-0.488356	-0.845448	-0.212382	-0.093273	-0.243333	0.145223	-1.040771	-0.198975	-0.361816	0.096432	0.001034	0.003437	0.626456	0.310791	-0.660683	0.272872	156.463019	-85.860051	-107.678461
23998		9.729338	0.112371	0.219429	-0.455888	-0.763605	-0.120949	-0.101960	-0.243128	0.154465	-1.043945	-0.194824	-0.361084	0.097290	0.001200	0.002312	0.625609	0.310188	-0.661882	0.272597	158.332253	-85.766290	-109.624355
23999		9.815209	0.036898	0.116906	-0.361121	-0.748678	-0.031973	-0.134510	-0.220322	0.157545	-1.040039	-0.187744	-0.350342	0.098150	0.000447	0.001277	0.624858	0.309497	-0.663029	0.272316	160.064144	-85.681254	-111.441301
24000		9.919966	-0.023137	0.040580	-0.294488	-0.742616	0.075167	-0.137443	-0.183747	0.156671	-1.041016	-0.192383	-0.362549	0.099199	-0.000153	0.000497	0.624257	0.308692	-0.664091	0.272021	161.630406	-85.611743	-113.104160
24001		10.053173	0.076491	-0.009213	-0.362978	-0.649490	0.213209	-0.123215	-0.123241	0.154677	-1.041260	-0.191406	-0.348145	0.100531	0.000843	-0.000031	0.623812	0.307913	-0.664913	0.271917	163.012181	-85.571957	-114.563778
24002		10.096362	0.120651	-0.017171	-0.410464	-0.613470	0.257394	-0.177152	-0.058519	0.145161	-1.038330	-0.184570	-0.347412	0.100963	0.001280	-0.000143	0.623702	0.306851	-0.665617	0.271647	164.138406	-85.563538	-115.808276
24003		10.093976	0.056966	0.013562	-0.397125	-0.670669	0.251320	-0.208850	-0.008386	0.142442	-1.046631	-0.181885	-0.355957	0.100939	0.000642	0.000139	0.623786	0.305689	-0.666176	0.271396	165.130204	-85.580859	-116.926002
24004		10.060595	-0.054086	0.030513	-0.334736	-0.743462	0.215006	-0.225892	0.047562	0.137415	-1.042725	-0.179199	-0.360840	0.100606	-0.000471	0.000282	0.624111	0.304355	-0.666601	0.271101	165.980989	-85.626923	-117.922196
24005		9.952451	-0.051646	0.140463	-0.412984	-0.801574	0.099960	-0.215927	0.083037	0.134164	-1.041260	-0.166016	-0.359375	0.099525	-0.000448	0.001364	0.624519	0.303073	-0.666869	0.270939	166.774300	-85.691403	-118.844801
24006		9.811607	-0.001487	0.126283	-0.439965	-0.731073	-0.037437	-0.244568	0.124479	0.133399	-1.044678	-0.169922	-0.363281	0.098117	0.000052	0.001202	0.625133	0.301589	-0.667071	0.270684	167.499679	-85.777840	-119.725801
24007		9.591966	0.042145	0.258299	-0.555047	-0.765979	-0.263893	-0.248845	0.142962	0.135245	-1.037109	-0.160156	-0.355469	0.095921	0.000489	0.002514	0.625786	0.300118	-0.667194	0.270505	168.243199	-85.874176	-120.617192
24008		9.401893	0.153627	0.422337	-0.743291	-0.780550	-0.461976	-0.282207	0.124179	0.134284	-1.035889	-0.160645	-0.367676	0.094020	0.001605	0.004163	0.626450	0.298512	-0.667445	0.270126	169.024577	-85.958847	-121.575754
24009		9.205017	0.074431	0.656220	-0.840793	-0.977684	-0.674543	-0.345550	0.056165	0.127784	-1.043945	-0.149902	-0.365234	0.092052	0.000814	0.006535	0.626965	0.296878	-0.667956	0.269470	169.854244	-86.003698	-122.608876
24010		9.147527	0.011488	0.684758	-0.822106	-1.027808	-0.734471	-0.374078	-0.046071	0.108192	-1.043945	-0.157227	-0.371094	0.091474	0.000177	0.006868	0.627228	0.295299	-0.668820	0.268447	170.660906	-85.987781	-123.645466
24011		9.166637	-0.091566	0.592857	-0.700724	-1.030489	-0.711361	-0.380487	-0.156792	0.093416	-1.042725	-0.158447	-0.368408	0.091662	-0.000861	0.006002	0.627124	0.293954	-0.669989	0.267248	171.472341	-85.906960	-124.680421
24012		9.304456	-0.265815	0.390851	-0.461336	-1.017021	-0.563411	-0.392891	-0.215904	0.067600	-1.045410	-0.145020	-0.367920	0.093041	-0.002619	0.004014	0.626895	0.292676	-0.671344	0.265783	172.099917	-85.789536	-125.548454
24013		9.574250	-0.393285	0.171091	-0.251198	-0.973255	-0.281694	-0.401450	-0.246790	0.052436	-1.051025	-0.138184	-0.356445	0.095741	-0.003904	0.001837	0.626568	0.291520	-0.672756	0.264251	172.600841	-85.652865	-126.284373
