// General information: 
//  MT Manager version: 2019.2.0 
//  XDA version: 2019.2.0 build 3853 rev 94535 built on 2019-09-09
// Device information: 
//  DeviceId: 00B47793
//  ProductCode: MTW2-3A7G6
//  Firmware Version: 4.6.0
//  Hardware Version: 2.0.0
// Device settings: 
//  Filter Profile: human(46.1)
//  Option Flags: Orientation Smoother Disabled, AHS Disabled, ICC Disabled
// Coordinate system: ENU
PacketCounter	SampleTimeFine	Acc_X	Acc_Y	Acc_Z	FreeAcc_E	FreeAcc_N	FreeAcc_U	Gyr_X	Gyr_Y	Gyr_Z	Mag_X	Mag_Y	Mag_Z	VelInc_X	VelInc_Y	VelInc_Z	Quat_q0	Quat_q1	Quat_q2	Quat_q3	Roll	Pitch	Yaw
33963		4.498125	0.829712	8.820119	0.173496	0.047502	0.121278	0.026636	-0.181039	-0.036913	-0.803223	0.250000	-0.599609	0.044903	0.008277	0.088243	0.280180	-0.219922	-0.108228	-0.928127	5.044390	-27.961472	-147.660924
33964		4.421987	0.838861	8.893000	0.275288	0.113039	0.149968	0.015121	-0.218585	-0.037254	-0.805908	0.245605	-0.601074	0.044124	0.008374	0.088979	0.279940	-0.220897	-0.108619	-0.927922	5.065862	-28.083959	-147.692248
33965		4.383081	1.011465	8.991050	0.455445	0.035811	0.230453	-0.020590	-0.263279	-0.040016	-0.807617	0.248047	-0.596191	0.043714	0.010115	0.089967	0.279622	-0.222128	-0.108909	-0.927691	5.068996	-28.231717	-147.728134
33966		4.557503	0.396868	8.690144	-0.105398	0.374296	0.000348	-0.028442	-0.303562	-0.038598	-0.813232	0.254639	-0.593994	0.045444	0.003972	0.086970	0.279280	-0.223557	-0.109218	-0.927414	5.068438	-28.402628	-147.765334
33967		4.515720	1.104604	8.901813	0.429569	-0.100538	0.220229	-0.032517	-0.358799	-0.019922	-0.802490	0.251221	-0.585693	0.044999	0.011056	0.089097	0.278989	-0.225258	-0.109563	-0.927049	5.061260	-28.605996	-147.793558
33968		4.458606	0.794307	8.874907	0.319910	0.190783	0.143978	-0.039686	-0.415619	-0.006209	-0.811035	0.250488	-0.579102	0.044402	0.007959	0.088840	0.278721	-0.227238	-0.109939	-0.926602	5.047507	-28.842504	-147.816224
33969		4.473380	0.783711	8.928031	0.361324	0.231187	0.194854	-0.056644	-0.479909	-0.000282	-0.821289	0.246338	-0.587158	0.044519	0.007862	0.089385	0.278427	-0.229543	-0.110318	-0.926077	5.023827	-29.116011	-147.838423
33970		4.495513	0.760762	8.887567	0.362779	0.250154	0.166431	-0.063055	-0.550942	0.002369	-0.819580	0.246826	-0.577881	0.044710	0.007636	0.088997	0.278095	-0.232185	-0.110763	-0.925465	4.997884	-29.430201	-147.863155
33971		4.538269	0.777845	8.884884	0.392084	0.242556	0.183772	-0.077212	-0.627691	0.005444	-0.816162	0.244385	-0.568848	0.045103	0.007814	0.088988	0.277711	-0.235201	-0.111245	-0.924761	4.965139	-29.788268	-147.890730
33972		4.598304	0.780267	8.945643	0.432326	0.263409	0.263077	-0.105128	-0.714045	0.011897	-0.832275	0.249512	-0.581787	0.045663	0.007852	0.089616	0.277277	-0.238656	-0.111708	-0.923949	4.916734	-30.196059	-147.918211
33973		4.656769	0.821771	8.905169	0.467350	0.221178	0.256818	-0.142440	-0.806008	0.024063	-0.832764	0.249512	-0.563477	0.046207	0.008287	0.089233	0.276798	-0.242589	-0.112111	-0.923019	4.845610	-30.656672	-147.942727
33974		4.710259	0.929419	8.911504	0.571702	0.144578	0.292599	-0.181672	-0.901468	0.051786	-0.836914	0.258057	-0.555176	0.046698	0.009387	0.089318	0.276342	-0.247030	-0.112429	-0.921939	4.744980	-31.173442	-147.953178
33975		4.748922	0.913676	8.894983	0.619987	0.169915	0.291451	-0.227701	-1.012902	0.084059	-0.840820	0.251953	-0.555176	0.047034	0.009258	0.089178	0.275909	-0.252059	-0.112646	-0.920680	4.609276	-31.755163	-147.946827
33976		4.812667	0.863126	8.882762	0.644724	0.216492	0.303959	-0.258280	-1.128040	0.116548	-0.844238	0.252686	-0.539063	0.047620	0.008774	0.089086	0.275514	-0.257672	-0.112837	-0.919220	4.446729	-32.404309	-147.923002
33977		4.807336	0.720066	8.898165	0.690313	0.383989	0.295771	-0.268734	-1.253146	0.149690	-0.851318	0.261230	-0.523193	0.047509	0.007356	0.089271	0.275176	-0.263878	-0.113106	-0.917526	4.268196	-33.125693	-147.880813
33978		5.047651	0.719937	8.942785	0.667917	0.340477	0.454088	-0.278680	-1.378538	0.176988	-0.849854	0.267334	-0.523438	0.049852	0.007369	0.089763	0.274867	-0.270682	-0.113460	-0.915591	4.074600	-33.920365	-147.822848
33979		5.166622	0.637778	8.863818	0.645684	0.380535	0.439347	-0.300304	-1.502021	0.186268	-0.865967	0.272949	-0.504883	0.050993	0.006559	0.089013	0.274495	-0.278064	-0.113865	-0.913437	3.865234	-34.785020	-147.759323
33980		5.319013	0.533091	8.874955	0.639939	0.463300	0.517572	-0.306853	-1.631262	0.194764	-0.869629	0.272217	-0.486816	0.052459	0.005519	0.089171	0.274052	-0.286039	-0.114400	-0.911038	3.648811	-35.724477	-147.692283
33981		5.515588	0.552204	8.840055	0.666899	0.416368	0.591742	-0.310676	-1.767531	0.192819	-0.874268	0.261963	-0.477783	0.054366	0.005713	0.088875	0.273506	-0.294611	-0.115096	-0.908379	3.430176	-36.740758	-147.626134
33982		5.731954	0.408481	8.682236	0.544172	0.458673	0.574491	-0.313056	-1.906399	0.186851	-0.890869	0.277832	-0.465088	0.056485	0.004274	0.087357	0.272816	-0.303794	-0.115972	-0.905445	3.212166	-37.836886	-147.565511
33983		5.725461	0.232033	8.940222	0.766241	0.789285	0.748950	-0.286768	-2.047541	0.161864	-0.898682	0.279297	-0.446533	0.056333	0.002495	0.089979	0.271945	-0.313520	-0.117187	-0.902230	3.020166	-39.011131	-147.522914
33984		5.959062	0.140857	8.974945	0.782631	0.879986	0.896579	-0.219443	-2.172834	0.121365	-0.906738	0.284180	-0.416504	0.058610	0.001543	0.090388	0.270891	-0.323676	-0.118925	-0.898726	2.884275	-40.257446	-147.509987
33985		6.191913	-0.006473	8.743137	0.643038	0.928318	0.841036	-0.224287	-2.317729	0.082620	-0.914307	0.279541	-0.416748	0.060900	0.000059	0.088141	0.269539	-0.334415	-0.120884	-0.894931	2.765552	-41.584465	-147.527318
33986		6.328570	-0.358173	8.898975	0.666143	1.351280	1.008364	-0.188317	-2.444628	0.001887	-0.921143	0.279785	-0.385742	0.062192	-0.003497	0.089758	0.267766	-0.345587	-0.123293	-0.890881	2.711412	-42.983013	-147.610056
33987		6.724167	-0.449873	8.990865	0.655093	1.453014	1.309598	-0.130961	-2.546660	-0.096838	-0.927490	0.279541	-0.365479	0.066087	-0.004472	0.090758	0.265550	-0.357014	-0.126246	-0.886615	2.749704	-44.436384	-147.776417
33988		7.204475	-0.830615	9.286484	0.563295	1.873021	1.806249	-0.068820	-2.617234	-0.217392	-0.936035	0.286377	-0.347168	0.070812	-0.008351	0.093800	0.262819	-0.368543	-0.129762	-0.882193	2.903332	-45.927420	-148.051250
33989		7.824120	-1.379345	9.616167	0.335438	2.434183	2.416085	0.057884	-2.673471	-0.396388	-0.945068	0.277100	-0.320557	0.076919	-0.013975	0.097192	0.259451	-0.379969	-0.134218	-0.877664	3.257375	-47.443981	-148.494671
33990		7.982903	-1.481056	9.240267	0.206305	2.526270	2.223453	0.267931	-2.666141	-0.609826	-0.951904	0.282471	-0.303711	0.078542	-0.015176	0.093435	0.255500	-0.390880	-0.139966	-0.873122	3.900429	-48.946293	-149.153891
33991		8.429512	-0.660960	9.266085	0.648108	1.954711	2.560809	0.359132	-2.565789	-0.774802	-0.969482	0.271973	-0.281982	0.083070	-0.007101	0.093719	0.251035	-0.401046	-0.146281	-0.868761	4.750463	-50.378047	-150.001166
33992		8.934148	-0.859046	9.602196	0.673679	2.366052	3.098483	0.299096	-2.309978	-0.864917	-0.974121	0.267090	-0.262695	0.088186	-0.009118	0.097032	0.246198	-0.410045	-0.152170	-0.864924	5.672518	-51.650749	-150.969295
33993		9.330049	-1.162412	9.038565	0.110480	2.483190	2.990092	0.333997	-2.012797	-0.940689	-0.986572	0.264160	-0.246826	0.092328	-0.012212	0.091298	0.241304	-0.417598	-0.157980	-0.861642	6.706599	-52.738622	-152.037640
33994		8.374546	-1.749194	9.479476	0.714057	3.680745	2.393465	0.481707	-1.630324	-1.010845	-0.988770	0.246094	-0.236816	0.082879	-0.018142	0.095430	0.236684	-0.423226	-0.164092	-0.859031	7.899980	-53.591359	-153.186173
33995		7.957345	4.410152	15.252993	8.108670	1.650869	5.901731	0.434113	-0.972280	-1.221198	-0.997803	0.241943	-0.220947	0.079096	0.043286	0.153010	0.231590	-0.425873	-0.169654	-0.858030	9.199053	-54.037818	-154.488989
33996		11.107849	5.583474	15.754792	7.360462	0.226518	8.856649	-0.369397	0.188328	-1.081291	-0.997070	0.234375	-0.223877	0.111527	0.055523	0.157340	0.226349	-0.424574	-0.170118	-0.859979	9.793643	-53.829148	-155.488749
33997		0.285991	-2.768199	8.312345	3.812781	6.257872	-5.002171	-0.799957	0.705154	-0.865751	-1.003662	0.226563	-0.226807	0.003034	-0.027362	0.083223	0.221564	-0.421700	-0.167684	-0.863111	9.895526	-53.345768	-156.185957
33998		-0.654741	-4.835569	6.440383	2.054257	7.304336	-7.034840	-0.567787	0.485304	-0.621752	-1.005127	0.222656	-0.233887	-0.006541	-0.048152	0.064557	0.218117	-0.419712	-0.165972	-0.865286	9.966705	-53.010446	-156.683649
33999		2.897855	-4.601077	9.646466	2.325341	7.744151	-2.246805	-0.302085	0.479509	-0.306999	-1.011475	0.226318	-0.249023	0.029139	-0.045910	0.096464	0.216593	-0.417709	-0.164754	-0.866870	9.950878	-52.708835	-156.882210
34000		4.508954	-3.491839	11.864767	3.405837	7.406383	0.523700	-0.205349	0.921672	0.007039	-1.016357	0.227783	-0.258057	0.045637	-0.034795	0.118474	0.216980	-0.413941	-0.162817	-0.868944	9.702836	-52.189194	-156.720159
34001		3.081542	-3.431666	10.884925	3.517459	7.175113	-1.100818	-0.169877	1.416816	0.265538	-1.013916	0.226074	-0.269287	0.031631	-0.034183	0.108656	0.218977	-0.408171	-0.159957	-0.871699	9.236270	-51.412719	-156.251096
34002		2.154202	-3.276336	9.060689	2.849234	6.362614	-2.822158	-0.089910	1.718841	0.455495	-1.020996	0.230713	-0.282715	0.022394	-0.032672	0.090432	0.222174	-0.401130	-0.156715	-0.874742	8.670424	-50.480429	-155.591259
34003		1.899979	-2.595231	8.075776	2.611798	5.329266	-3.461448	-0.019991	1.896115	0.608619	-1.021484	0.239014	-0.302002	0.019843	-0.025885	0.080575	0.226317	-0.393312	-0.153261	-0.877837	8.051703	-49.455260	-154.799431
34004		2.115774	-1.674904	8.020970	2.809318	4.383601	-3.141349	-0.016691	2.048110	0.733338	-1.021973	0.243408	-0.323975	0.022039	-0.016663	0.079988	0.231088	-0.384884	-0.149387	-0.880992	7.376952	-48.348603	-153.919314
34005		2.416206	-0.850229	8.157804	3.017063	3.563571	-2.649882	-0.073363	2.213988	0.806286	-1.020508	0.254150	-0.343018	0.025097	-0.008373	0.081307	0.236182	-0.375787	-0.144910	-0.884310	6.651556	-47.144725	-152.997756
34006		2.460683	-0.128685	8.045590	3.169804	2.783476	-2.532289	-0.128918	2.378216	0.818777	-1.015137	0.256104	-0.371826	0.025566	-0.001132	0.080156	0.241294	-0.365991	-0.139950	-0.887830	5.922372	-45.841355	-152.096932
34007		2.762177	0.636564	7.728379	3.068408	1.785863	-2.386065	-0.198111	2.512435	0.755988	-1.011475	0.261719	-0.390625	0.028565	0.006549	0.076922	0.246066	-0.355569	-0.134609	-0.891573	5.227424	-44.449250	-151.279036
34008		3.025217	1.205718	7.247577	2.796167	0.889249	-2.428897	-0.270116	2.599782	0.647147	-1.014404	0.268066	-0.428955	0.031151	0.012255	0.072058	0.250229	-0.344719	-0.129013	-0.895494	4.591040	-42.996460	-150.585054
34009		3.416898	1.592352	6.825503	2.382361	0.119364	-2.389409	-0.362300	2.613166	0.517731	-1.010498	0.276367	-0.453369	0.035015	0.016136	0.067772	0.253620	-0.333770	-0.123180	-0.899500	4.005745	-41.524064	-150.026812
34010		3.989706	1.509046	6.775500	1.798457	-0.185177	-2.013322	-0.446860	2.571725	0.395086	-1.010986	0.288330	-0.472412	0.040733	0.015321	0.067201	0.256245	-0.322988	-0.117209	-0.903482	3.465959	-40.067953	-149.595497
34011		4.776334	1.116177	6.952135	1.011724	-0.242405	-1.368452	-0.467969	2.513611	0.298859	-0.991699	0.282715	-0.507080	0.048615	0.011396	0.068887	0.258319	-0.312376	-0.111345	-0.907356	2.984815	-38.637980	-149.263859
34012		5.653432	0.905977	7.145195	0.249355	-0.502246	-0.673917	-0.449763	2.450911	0.236976	-0.998779	0.288574	-0.540771	0.057393	0.009287	0.070731	0.260068	-0.301948	-0.105731	-0.911051	2.562875	-37.241354	-148.999867
34013		6.394842	0.951456	7.240546	-0.353127	-0.973164	-0.161351	-0.450201	2.409524	0.178208	-0.983887	0.285156	-0.563232	0.064806	0.009734	0.071606	0.261483	-0.291623	-0.100233	-0.914623	2.180993	-35.864434	-148.796274
34014		6.735628	0.964763	7.190815	-0.777534	-1.307386	-0.030625	-0.489915	2.351258	0.130104	-0.973633	0.294678	-0.590332	0.068189	0.009867	0.071086	0.262556	-0.281558	-0.094693	-0.918054	1.809493	-34.520040	-148.642069
34015		6.891947	0.580788	7.063494	-1.319616	-1.250807	-0.095749	-0.538912	2.265499	0.071166	-0.965088	0.303711	-0.625000	0.069711	0.006021	0.069832	0.263208	-0.271875	-0.089102	-0.921339	1.443071	-33.221876	-148.543367
34016		7.114380	-0.123819	7.206296	-1.949541	-0.861510	0.087486	-0.556371	2.153781	0.026552	-0.949707	0.303711	-0.642578	0.071914	-0.001030	0.071294	0.263550	-0.262682	-0.083635	-0.924416	1.092230	-31.987797	-148.487431
34017		7.511637	-0.881356	7.429601	-2.696146	-0.479989	0.429231	-0.539770	2.057708	0.036538	-0.932861	0.309082	-0.662598	0.075877	-0.008601	0.073541	0.263886	-0.253877	-0.078341	-0.927240	0.753347	-30.807486	-148.435590
34018		7.827953	-1.450902	7.560061	-3.324371	-0.252718	0.647581	-0.507446	1.992671	0.134618	-0.927490	0.319092	-0.682617	0.079037	-0.014265	0.074852	0.264666	-0.245348	-0.073157	-0.929733	0.406310	-29.665860	-148.327619
34019		7.867057	-1.848962	7.386361	-3.779385	-0.133120	0.461663	-0.477171	1.931078	0.305970	-0.911621	0.320068	-0.706299	0.079407	-0.018193	0.073143	0.266226	-0.237096	-0.067970	-0.931820	0.027938	-28.558285	-148.117231
34020		7.695784	-1.952112	6.976543	-4.000283	-0.228359	-0.032603	-0.449171	1.841284	0.540903	-0.898193	0.329834	-0.732422	0.077648	-0.019156	0.069096	0.268861	-0.229288	-0.062754	-0.933382	-0.396967	-27.501501	-147.764787
34021		7.622793	-1.621215	6.853779	-3.927367	-0.668751	-0.229642	-0.433125	1.733775	0.786842	-0.889893	0.338135	-0.742676	0.076881	-0.015763	0.067908	0.272598	-0.222009	-0.057463	-0.934398	-0.874040	-26.501357	-147.266388
34022		7.649359	-1.005701	6.985784	-3.658068	-1.344367	-0.162137	-0.413773	1.624690	0.998980	-0.873779	0.346191	-0.760986	0.077106	-0.009529	0.069253	0.277294	-0.215260	-0.052178	-0.934906	-1.385791	-25.558475	-146.644866
34023		7.916614	-0.298656	7.225883	-3.462071	-2.197314	0.094778	-0.353286	1.529642	1.115928	-0.854492	0.364258	-0.772217	0.079730	-0.002416	0.071655	0.282547	-0.208875	-0.047169	-0.935047	-1.880651	-24.662351	-145.961910
34024		8.163078	0.613398	7.394942	-3.148638	-3.224017	0.256374	-0.264838	1.447855	1.115511	-0.843018	0.367432	-0.789307	0.082127	0.006689	0.073347	0.287850	-0.202734	-0.042692	-0.934997	-2.310240	-23.809001	-145.289728
34025		8.235572	1.626594	7.298758	-2.727173	-4.280604	0.085737	-0.199869	1.367729	1.004752	-0.824707	0.375244	-0.806885	0.082769	0.016754	0.072406	0.292657	-0.196829	-0.038737	-0.934938	-2.663380	-22.999292	-144.695435
34026		8.141905	2.206169	7.015601	-2.474908	-4.898102	-0.312267	-0.176821	1.266129	0.822327	-0.820557	0.389648	-0.815430	0.081769	0.022459	0.069619	0.296598	-0.191323	-0.035221	-0.934978	-2.949827	-22.250628	-144.219162
34027		7.813304	2.019340	6.755061	-2.466826	-4.725390	-0.738525	-0.154516	1.137359	0.615168	-0.793701	0.395508	-0.825439	0.078453	0.020486	0.067089	0.299552	-0.186335	-0.032192	-0.935153	-3.170143	-21.579327	-143.872673
34028		7.502234	1.569300	6.461368	-2.631966	-4.325325	-1.160581	-0.113216	0.980523	0.428136	-0.790771	0.400879	-0.829102	0.075304	0.015890	0.064236	0.301637	-0.181985	-0.029769	-0.935420	-3.321739	-21.003483	-143.639087
34029		7.173807	0.925947	6.172944	-2.888784	-3.733216	-1.557772	-0.070980	0.791567	0.308750	-0.788574	0.403320	-0.845703	0.071967	0.009392	0.061442	0.303164	-0.178430	-0.027932	-0.935668	-3.423282	-20.538651	-143.474153
34030		6.870557	0.332001	5.984803	-3.095404	-3.159894	-1.839863	-0.036665	0.586931	0.240454	-0.772949	0.405518	-0.847412	0.068877	0.003414	0.059645	0.304371	-0.175772	-0.026632	-0.935817	-3.491405	-20.193595	-143.344255
34031		6.783679	-0.377706	5.839962	-3.506899	-2.593119	-1.986872	-0.018955	0.364107	0.241809	-0.756592	0.403809	-0.843262	0.067947	-0.003689	0.058276	0.305566	-0.174126	-0.025747	-0.935760	-3.552063	-19.975271	-143.206052
34032		7.128431	-0.952357	6.337076	-3.952964	-2.273785	-1.381558	-0.016948	0.167765	0.308751	-0.757568	0.410400	-0.852539	0.071352	-0.009408	0.063312	0.307052	-0.173406	-0.025118	-0.935424	-3.627132	-19.867178	-143.019836
34033		7.905782	-1.350621	7.317290	-4.460931	-2.272638	-0.179235	-0.025179	0.067127	0.412265	-0.764893	0.406738	-0.846924	0.079110	-0.013334	0.073148	0.308999	-0.173179	-0.024510	-0.934841	-3.729618	-19.812138	-142.767227
34034		8.220291	-1.473559	7.656189	-4.649802	-2.341864	0.249946	-0.040669	0.063282	0.540599	-0.753662	0.413818	-0.848633	0.082267	-0.014498	0.076539	0.311532	-0.173011	-0.023730	-0.934051	-3.866762	-19.754341	-142.436518
34035		7.636759	-1.610837	7.062935	-4.459947	-2.037246	-0.498281	-0.044271	0.062878	0.664523	-0.760010	0.425049	-0.854248	0.076443	-0.015839	0.070609	0.314636	-0.172863	-0.022821	-0.933060	-4.031315	-19.690761	-142.030978
34036		6.738569	-1.543801	6.004935	-4.056665	-1.782241	-1.799092	-0.030119	-0.030993	0.774609	-0.750977	0.421875	-0.863037	0.067435	-0.015168	0.060062	0.318253	-0.173141	-0.022035	-0.931800	-4.210909	-19.675453	-141.554674
34037		6.523647	-1.283859	5.683534	-3.807816	-1.958655	-2.185582	-0.019430	-0.221754	0.872657	-0.753662	0.428955	-0.857178	0.065229	-0.012548	0.056909	0.322307	-0.174299	-0.021513	-0.930202	-4.408098	-19.763229	-141.010196
34038		7.768081	-0.911739	6.606132	-4.151838	-2.894538	-0.913325	-0.010296	-0.371736	0.966015	-0.751221	0.442627	-0.850098	0.077601	-0.008739	0.066206	0.326781	-0.176146	-0.021197	-0.928298	-4.622752	-19.930827	-140.400954
34039		9.199692	-0.515877	7.865421	-4.476720	-3.917903	0.740679	0.030261	-0.357445	0.991810	-0.749268	0.445068	-0.859863	0.091880	-0.004715	0.078818	0.331402	-0.177858	-0.021019	-0.926335	-4.821743	-20.086866	-139.775558
34040		9.825059	0.058003	8.288241	-4.357326	-4.728795	1.317526	0.119918	-0.228481	0.943989	-0.754639	0.458008	-0.854980	0.098152	0.000994	0.082995	0.335887	-0.178815	-0.021089	-0.924532	-4.958201	-20.170009	-139.184917
34041		8.940789	0.947580	7.246283	-3.437375	-5.080658	-0.029268	0.226251	-0.121812	0.801147	-0.752197	0.448242	-0.857666	0.089325	0.009752	0.072528	0.339811	-0.179082	-0.021595	-0.923034	-5.002865	-20.198515	-138.686457
34042		7.744372	2.156199	5.876356	-2.212384	-5.508311	-1.817703	0.261097	-0.170684	0.601002	-0.752686	0.458984	-0.849365	0.077328	0.021718	0.058858	0.342832	-0.179490	-0.022527	-0.921815	-4.986406	-20.264764	-138.306980
34043		7.300402	2.707794	5.365784	-1.667453	-5.736527	-2.482521	0.193193	-0.322269	0.397577	-0.759033	0.459229	-0.852783	0.072863	0.027171	0.053802	0.344834	-0.180691	-0.023585	-0.920806	-4.969737	-20.427898	-138.043000
34044		7.355155	2.563301	5.638113	-1.671466	-5.601997	-2.178503	0.100965	-0.472308	0.206260	-0.757080	0.460205	-0.851563	0.073392	0.025680	0.056568	0.345852	-0.182715	-0.024653	-0.919997	-4.968432	-20.686065	-137.887409
34045		7.485598	2.045914	6.191415	-1.878814	-5.172382	-1.550132	0.045608	-0.561141	0.058539	-0.763428	0.465820	-0.850830	0.074676	0.020467	0.062129	0.346127	-0.185227	-0.025753	-0.919361	-4.969522	-21.002527	-137.816933
34046		6.646175	0.653214	6.765862	-1.972933	-3.456515	-1.179322	0.041631	-0.598588	-0.021864	-0.762939	0.463623	-0.852539	0.066260	0.006511	0.067858	0.346020	-0.187904	-0.026976	-0.918822	-4.955984	-21.344098	-137.793664
34047		3.853753	-4.062722	9.498442	-2.178214	2.424750	0.720724	0.660951	-0.694910	-0.063259	-0.777100	0.459229	-0.849609	0.038195	-0.040953	0.094983	0.346287	-0.189946	-0.031248	-0.918166	-4.580007	-21.743067	-137.791921
34048		1.393196	-2.508861	12.407493	1.446638	3.464431	2.356258	1.341091	-0.676826	-0.040097	-0.786377	0.455811	-0.844971	0.013507	-0.025923	0.123949	0.347295	-0.190720	-0.038588	-0.917346	-3.817555	-22.130366	-137.781134
34049		-2.006036	-1.816537	17.506495	5.776151	6.293594	5.705752	1.487632	-0.337437	0.167175	-0.785156	0.436035	-0.851318	-0.020340	-0.019484	0.174889	0.349439	-0.189715	-0.045811	-0.916407	-3.013025	-22.316899	-137.660372
34050		-4.808075	0.169828	22.980927	10.533462	7.974090	9.596563	1.516078	0.061980	0.137469	-0.787354	0.426514	-0.861328	-0.048010	-0.000077	0.229828	0.351545	-0.186810	-0.052492	-0.915840	-2.179760	-22.276851	-137.572148
34051		-4.913213	9.235139	6.747709	11.532834	-2.264526	-5.711048	1.135693	-0.071492	-0.150411	-0.792725	0.426514	-0.855713	-0.049087	0.092003	0.067983	0.351927	-0.185101	-0.057931	-0.915712	-1.498336	-22.319680	-137.658857
34052		-1.967879	4.287344	5.937427	5.972380	-0.535117	-5.170394	0.962321	-1.043933	-0.543766	-0.796387	0.411133	-0.856934	-0.019873	0.042641	0.059476	0.350049	-0.188027	-0.064650	-0.915386	-0.826035	-22.923115	-137.978204
34053		12.661779	1.738815	15.540191	-2.855464	-5.086908	9.443611	0.823610	-0.971381	-0.507039	-0.803711	0.401611	-0.864502	0.125903	0.016427	0.156084	0.348214	-0.190865	-0.070568	-0.915061	-0.235811	-23.481446	-138.283682
34054		11.251562	0.603571	11.669821	-3.805206	-4.223456	5.380370	0.384983	-0.263712	-0.155340	-0.803223	0.405029	-0.850586	0.112366	0.005724	0.116858	0.347811	-0.191348	-0.072912	-0.914930	0.019535	-23.631903	-138.375453
34055		5.526827	1.789536	9.212578	0.157531	-2.235660	0.845493	0.205073	-0.046385	-0.041004	-0.813965	0.392822	-0.848389	0.055251	0.017790	0.092157	0.347837	-0.191192	-0.073944	-0.914870	0.143334	-23.657728	-138.396091
34056		3.883501	2.160145	10.027991	1.766910	-1.282481	0.936344	0.058022	-0.007998	0.001382	-0.812256	0.397949	-0.855713	0.038831	0.021573	0.100288	0.347929	-0.191130	-0.074197	-0.914827	0.172313	-23.661528	-138.390221
34057		3.168217	1.254168	8.545681	1.214046	-0.566943	-0.710827	-0.033990	-0.043154	0.010730	-0.810303	0.394287	-0.856201	0.031663	0.012558	0.085462	0.347964	-0.191394	-0.074081	-0.914768	0.146218	-23.685569	-138.378529
34058		4.022390	0.211847	9.052740	0.095359	-0.171554	0.093779	-0.054348	-0.081836	0.019029	-0.810791	0.398682	-0.851318	0.040187	0.002147	0.090543	0.348003	-0.191872	-0.073931	-0.914666	0.106407	-23.731694	-138.361712
34059		4.210711	0.077212	8.864553	-0.169839	-0.236798	-0.002926	-0.061858	-0.055938	0.030219	-0.814697	0.403809	-0.855469	0.042082	0.000806	0.088657	0.348095	-0.192250	-0.073691	-0.914571	0.059424	-23.763056	-138.337794
34060		4.422342	0.261610	9.128992	-0.103584	-0.435350	0.324560	-0.074455	-0.038358	0.038169	-0.822998	0.392578	-0.856201	0.044205	0.002659	0.091297	0.348218	-0.192571	-0.073355	-0.914483	0.003202	-23.784251	-138.308888
34061		4.431368	0.287116	9.329599	-0.024160	-0.413388	0.511526	-0.105667	0.011110	0.049656	-0.813232	0.404541	-0.857178	0.044318	0.002931	0.093292	0.348382	-0.192726	-0.072780	-0.914434	-0.073817	-23.777153	-138.272746
34062		3.856899	-0.313196	9.038191	-0.112244	0.295935	0.013933	-0.114957	0.029802	0.040735	-0.811768	0.393555	-0.853027	0.038583	-0.003072	0.090378	0.348502	-0.192807	-0.072138	-0.914422	-0.153879	-23.759225	-138.242261
34063		3.498865	-0.756619	8.793056	-0.231295	0.771347	-0.353095	-0.071615	0.000530	0.023533	-0.816650	0.400879	-0.853027	0.034990	-0.007531	0.087933	0.348575	-0.192941	-0.071762	-0.914396	-0.204785	-23.758155	-138.222477
34064		3.506685	-0.677184	8.756346	-0.190242	0.694951	-0.383484	-0.017734	-0.041474	0.006026	-0.817139	0.404785	-0.851807	0.035049	-0.006763	0.087571	0.348604	-0.193166	-0.071722	-0.914340	-0.220438	-23.781090	-138.213590
34065		3.685467	-0.466998	8.725942	-0.178006	0.424093	-0.340028	0.026161	-0.063668	-0.015033	-0.811279	0.394043	-0.855225	0.036827	-0.004684	0.087271	0.348572	-0.193409	-0.071941	-0.914284	-0.205670	-23.816866	-138.217803
34066		3.911915	-0.470744	8.790552	-0.313414	0.313772	-0.189705	0.067350	-0.077133	-0.033783	-0.805908	0.400146	-0.852051	0.039084	-0.004744	0.087919	0.348489	-0.193634	-0.072391	-0.914232	-0.162531	-23.860310	-138.233788
34067		4.009281	-0.462872	9.033642	-0.301060	0.324810	0.071599	0.099900	-0.074708	-0.052500	-0.810059	0.403564	-0.851807	0.040058	-0.004684	0.090349	0.348352	-0.193786	-0.073003	-0.914204	-0.095997	-23.902452	-138.261523
34068		4.013552	-0.355957	9.085926	-0.219907	0.269525	0.120506	0.122526	-0.060039	-0.060718	-0.814209	0.405029	-0.858643	0.040107	-0.003627	0.090869	0.348206	-0.193827	-0.073701	-0.914195	-0.014328	-23.936084	-138.294517
34069		4.098396	-0.255850	9.047569	-0.227635	0.147156	0.119448	0.140168	-0.062082	-0.067726	-0.817139	0.391357	-0.856934	0.040955	-0.002636	0.090487	0.348043	-0.193845	-0.074490	-0.914189	0.079232	-23.970915	-138.331939
34070		4.263330	-0.069407	9.236544	-0.164676	-0.026071	0.359172	0.137503	-0.054388	-0.069084	-0.821289	0.395752	-0.854248	0.042608	-0.000772	0.092377	0.347874	-0.193831	-0.075255	-0.914194	0.171702	-24.001204	-138.370304
34071		4.586543	0.186120	9.332265	-0.193120	-0.374170	0.578889	0.115529	-0.017307	-0.060422	-0.814453	0.399658	-0.848633	0.045858	0.001793	0.093328	0.347737	-0.193689	-0.075846	-0.914227	0.249321	-24.010292	-138.403174
34072		4.250687	0.224859	9.094706	-0.016894	-0.255920	0.225579	0.091666	0.012820	-0.044418	-0.815674	0.393311	-0.854004	0.042513	0.002197	0.090945	0.347662	-0.193457	-0.076260	-0.914270	0.309202	-24.002048	-138.425959
34073		4.005023	0.227302	9.008436	0.120033	-0.126821	0.046993	0.078044	0.009249	-0.032420	-0.812500	0.390869	-0.845703	0.040055	0.002231	0.090083	0.347627	-0.193270	-0.076607	-0.914294	0.358170	-23.995958	-138.441187
34074		3.932432	0.185336	8.981988	0.128752	-0.054024	-0.006823	0.064487	0.001026	-0.022926	-0.818359	0.397705	-0.857178	0.039325	0.001820	0.089820	0.347619	-0.193147	-0.076897	-0.914299	0.397006	-23.994517	-138.450525
34075		3.836425	0.134590	8.901149	0.132977	0.024519	-0.119987	0.061468	-0.015036	-0.017208	-0.820068	0.385986	-0.853516	0.038358	0.001315	0.089015	0.347628	-0.193105	-0.077195	-0.914279	0.432641	-24.002382	-138.456313
34076		3.858482	0.024014	8.929819	0.051016	0.107358	-0.085612	0.062461	-0.037632	-0.015992	-0.820068	0.392090	-0.846924	0.038568	0.000209	0.089306	0.347634	-0.193165	-0.077536	-0.914235	0.468626	-24.023110	-138.461491
34077		3.894668	0.026658	8.891861	0.015780	0.079975	-0.105592	0.067169	-0.046735	-0.017532	-0.809326	0.395020	-0.855225	0.038926	0.000233	0.088928	0.347635	-0.193259	-0.077916	-0.914183	0.507688	-24.049126	-138.467666
34078		3.779346	-0.044489	8.823245	0.026393	0.192339	-0.215949	0.077925	-0.067600	-0.019331	-0.821533	0.392822	-0.846191	0.037764	-0.000483	0.088245	0.347630	-0.193427	-0.078383	-0.914109	0.553477	-24.086998	-138.475147
34079		3.835524	-0.088931	8.739224	-0.067084	0.178879	-0.270325	0.101582	-0.078893	-0.031339	-0.823730	0.385498	-0.852295	0.038321	-0.000940	0.087407	0.347588	-0.193602	-0.078989	-0.914036	0.615907	-24.131346	-138.490247
34080		3.723679	-0.162530	8.703666	-0.051031	0.305290	-0.349592	0.128766	-0.106267	-0.039285	-0.821289	0.388428	-0.854248	0.037190	-0.001689	0.087055	0.347525	-0.193851	-0.079775	-0.913939	0.696119	-24.191226	-138.510632
34081		3.523852	-0.254479	8.524258	-0.030738	0.462397	-0.596914	0.178805	-0.134113	-0.060881	-0.822021	0.387207	-0.852051	0.035181	-0.002632	0.085264	0.347400	-0.194132	-0.080858	-0.913831	0.810685	-24.266942	-138.544906
34082		3.198566	-0.401851	8.335453	0.034364	0.739535	-0.906290	0.247572	-0.186494	-0.088452	-0.822998	0.385986	-0.850342	0.031906	-0.004136	0.083379	0.347194	-0.194521	-0.082374	-0.913692	0.972194	-24.372269	-138.597282
34083		3.334857	-0.432728	8.439276	-0.051499	0.743232	-0.758697	0.323982	-0.257753	-0.117849	-0.824219	0.383057	-0.854736	0.033237	-0.004484	0.084428	0.346898	-0.195090	-0.084390	-0.913499	1.185708	-24.518010	-138.669401
34084		3.671531	-0.182830	8.550999	-0.085543	0.429425	-0.515309	0.386997	-0.298198	-0.139902	-0.830322	0.373535	-0.855957	0.036586	-0.002019	0.085561	0.346544	-0.195724	-0.086786	-0.913273	1.441906	-24.686290	-138.756774
34085		3.633836	0.027326	8.431382	0.039840	0.309396	-0.636840	0.439670	-0.334225	-0.157358	-0.833496	0.373047	-0.854492	0.036197	0.000059	0.084375	0.346143	-0.196423	-0.089500	-0.913013	1.733759	-24.874606	-138.856772
34086		3.412178	0.032805	8.366085	0.170649	0.473183	-0.791485	0.491127	-0.396752	-0.175475	-0.835449	0.371826	-0.848633	0.033956	0.000093	0.083729	0.345679	-0.197308	-0.092575	-0.912691	2.061427	-25.097829	-138.970840
34087		3.759684	0.144034	8.806031	0.133738	0.381648	-0.245127	0.534853	-0.449524	-0.183831	-0.846680	0.364014	-0.841553	0.037400	0.001170	0.088148	0.345192	-0.198352	-0.095948	-0.912301	2.418029	-25.350510	-139.093170
34088		4.657197	0.908850	9.464096	0.222779	-0.441999	0.762716	0.511859	-0.436279	-0.175511	-0.850098	0.362793	-0.839355	0.046373	0.008805	0.094765	0.344721	-0.199377	-0.099184	-0.911909	2.760426	-25.595092	-139.211827
34089		5.247934	1.261503	9.359054	0.020238	-1.018414	0.943065	0.435054	-0.344602	-0.157178	-0.848633	0.351074	-0.842773	0.052328	0.012370	0.093708	0.344300	-0.200123	-0.101891	-0.911606	3.053566	-25.787200	-139.317583
34090		4.594872	0.713047	9.034089	-0.001498	-0.277596	0.344024	0.387570	-0.286545	-0.146059	-0.841553	0.353271	-0.847168	0.045824	0.006922	0.090420	0.343909	-0.200691	-0.104271	-0.911360	3.316406	-25.945934	-139.415431
34091		4.416556	0.465995	9.143235	-0.018892	0.094800	0.351580	0.373103	-0.269524	-0.142989	-0.855957	0.348877	-0.837891	0.044046	0.004458	0.091500	0.343524	-0.201206	-0.106552	-0.911128	3.570393	-26.094701	-139.511570
34092		5.060824	0.918583	9.402012	-0.087109	-0.484207	0.892981	0.334875	-0.226249	-0.135734	-0.852539	0.345703	-0.843506	0.050508	0.008994	0.094092	0.343155	-0.201593	-0.108577	-0.910942	3.800283	-26.218565	-139.602149
34093		5.324945	1.190386	9.339996	-0.111630	-0.821637	0.972485	0.254800	-0.145545	-0.117506	-0.859619	0.345215	-0.838623	0.053188	0.011754	0.093454	0.342832	-0.201759	-0.110080	-0.910847	3.977940	-26.296779	-139.678153
34094		4.730762	0.923103	9.062448	0.026382	-0.346208	0.445948	0.188735	-0.080306	-0.103582	-0.852783	0.340576	-0.832520	0.047276	0.009121	0.090652	0.342540	-0.201748	-0.111156	-0.910829	4.112759	-26.338018	-139.742643
34095		5.075925	0.916632	9.471111	-0.103501	-0.382842	0.964597	0.154499	-0.048678	-0.090734	-0.850830	0.337891	-0.840820	0.050740	0.009070	0.094730	0.342289	-0.201659	-0.112009	-0.910838	4.223709	-26.361670	-139.797555
34096		5.334697	1.306016	9.314568	-0.075273	-0.864781	0.965639	0.060901	0.053714	-0.067137	-0.856689	0.338867	-0.838623	0.053376	0.013014	0.093135	0.342109	-0.201276	-0.112236	-0.910962	4.272261	-26.327675	-139.832638
34097		4.883370	0.938659	9.065862	-0.093582	-0.419148	0.518517	-0.002844	0.105463	-0.044010	-0.860107	0.331787	-0.836182	0.048884	0.009377	0.090633	0.341999	-0.200781	-0.112061	-0.911135	4.276592	-26.265171	-139.850450
34098		4.460260	0.567978	8.939126	-0.096487	0.048730	0.192951	-0.027412	0.120180	-0.030646	-0.849609	0.335449	-0.841553	0.044657	0.005685	0.089364	0.341933	-0.200267	-0.111736	-0.911312	4.262790	-26.194744	-139.859079
34099		4.613053	0.789038	9.018746	-0.037980	-0.187141	0.346257	-0.050319	0.124122	-0.017364	-0.854248	0.330566	-0.845215	0.046187	0.007909	0.090157	0.341907	-0.199782	-0.111286	-0.911483	4.232021	-26.122722	-139.859058
34100		4.494438	0.746370	8.973372	-0.004783	-0.115405	0.250368	-0.069870	0.140349	-0.016865	-0.852539	0.335693	-0.846680	0.045008	0.007491	0.089700	0.341872	-0.199256	-0.110719	-0.911681	4.189633	-26.041358	-139.858044
34101		4.612831	0.836990	9.109416	0.007865	-0.221396	0.429926	-0.105994	0.147737	-0.001026	-0.855957	0.338135	-0.851318	0.046196	0.008418	0.091056	0.341878	-0.198768	-0.109959	-0.911877	4.121992	-25.956523	-139.846672
34102		4.515311	0.585358	8.983471	-0.133298	-0.039805	0.257767	-0.129780	0.158858	0.011564	-0.846680	0.337646	-0.843018	0.045224	0.005914	0.089795	0.341923	-0.198276	-0.109059	-0.912076	4.037113	-25.865738	-139.826965
34103		4.585282	0.719630	9.043209	-0.077867	-0.181878	0.350143	-0.149579	0.168152	0.021977	-0.842285	0.347168	-0.847168	0.045928	0.007269	0.090388	0.342000	-0.197781	-0.108042	-0.912275	3.937907	-25.770123	-139.800377
34104		4.658359	0.748324	9.089724	-0.097991	-0.255332	0.424916	-0.180759	0.187578	0.039365	-0.843018	0.350586	-0.854736	0.046667	0.007575	0.090847	0.342136	-0.197259	-0.106832	-0.912479	3.815857	-25.663936	-139.762185
34105		4.494773	0.498600	9.038680	-0.168130	-0.019989	0.292785	-0.200033	0.206131	0.058810	-0.843262	0.340820	-0.849609	0.045039	0.005090	0.090335	0.342351	-0.196697	-0.105483	-0.912677	3.677275	-25.547892	-139.711160
34106		4.490520	0.659146	9.005094	-0.069018	-0.178294	0.269690	-0.207782	0.208771	0.065079	-0.847900	0.351563	-0.852295	0.044997	0.006700	0.089997	0.342588	-0.196137	-0.104088	-0.912869	3.532777	-25.430350	-139.656465
34107		4.688613	0.918189	9.102033	-0.006254	-0.488215	0.455452	-0.226719	0.236740	0.075557	-0.844727	0.342529	-0.840820	0.046990	0.009303	0.090954	0.342867	-0.195488	-0.102548	-0.913077	3.374384	-25.297149	-139.594430
34108		4.557613	0.773344	9.102009	-0.014064	-0.340757	0.390255	-0.259327	0.262526	0.084063	-0.831543	0.348633	-0.847656	0.045692	0.007871	0.090950	0.343166	-0.194781	-0.100806	-0.913310	3.194997	-25.149207	-139.526628
34109		4.416127	0.608031	9.064483	-0.038744	-0.186894	0.286826	-0.278525	0.281289	0.097092	-0.832520	0.356689	-0.845459	0.044286	0.006228	0.090574	0.343513	-0.194027	-0.098932	-0.913545	3.001258	-24.990847	-139.450531
34110		4.300970	0.539456	9.005610	-0.023406	-0.128521	0.180969	-0.281165	0.293714	0.103642	-0.838379	0.363525	-0.860596	0.043139	0.005543	0.089985	0.343892	-0.193222	-0.097017	-0.913778	2.804605	-24.825221	-139.370640
34111		4.172525	0.598576	8.984344	0.096675	-0.145665	0.109811	-0.280915	0.296260	0.110260	-0.835205	0.355957	-0.854492	0.041855	0.006135	0.089773	0.344302	-0.192409	-0.095092	-0.913998	2.606821	-24.658184	-139.287198
34112		4.209492	0.423965	8.973081	-0.050054	-0.083021	0.107303	-0.274640	0.291995	0.107155	-0.831299	0.369629	-0.857910	0.042224	0.004385	0.089663	0.344700	-0.191601	-0.093206	-0.914212	2.414036	-24.493139	-139.206607
34113		4.068064	0.359279	8.790548	-0.050290	-0.046724	-0.120056	-0.260057	0.295584	0.104469	-0.827881	0.369385	-0.855469	0.040809	0.003728	0.087840	0.345099	-0.190751	-0.091382	-0.914423	2.230756	-24.325853	-139.128272
34114		3.509217	0.182092	8.542307	0.142739	0.307809	-0.582110	-0.221166	0.264374	0.089355	-0.820068	0.373779	-0.859375	0.035204	0.001931	0.085374	0.345451	-0.189967	-0.089804	-0.914610	2.074435	-24.175783	-139.060850
34115		3.328943	0.080504	8.416690	0.160646	0.425789	-0.772673	-0.157272	0.192173	0.066159	-0.822510	0.370117	-0.865234	0.033370	0.000882	0.084134	0.345725	-0.189393	-0.088665	-0.914737	1.961631	-24.066558	-139.009990
34116		3.431594	0.250935	8.504011	0.226633	0.243551	-0.645010	-0.101276	0.116565	0.043540	-0.811279	0.377197	-0.861084	0.034365	0.002560	0.085019	0.345914	-0.189057	-0.087934	-0.914805	1.887516	-24.000004	-138.975177
34117		3.092468	-0.037917	8.340679	0.220667	0.604016	-0.940360	-0.035024	0.047244	0.018709	-0.816650	0.376465	-0.854980	0.030944	-0.000362	0.083400	0.346021	-0.188914	-0.087649	-0.914821	1.858303	-23.972758	-138.957388
34118		3.221770	-0.183908	8.506395	0.081711	0.683431	-0.740829	0.045558	-0.051694	-0.011672	-0.818359	0.368652	-0.857666	0.032196	-0.001860	0.085072	0.346023	-0.189069	-0.087933	-0.914762	1.883845	-24.001496	-138.960707
34119		3.670313	0.032288	8.743281	-0.014507	0.332078	-0.336048	0.097157	-0.109050	-0.029453	-0.824219	0.378418	-0.859131	0.036655	0.000275	0.087453	0.345966	-0.189391	-0.088569	-0.914655	1.943963	-24.062826	-138.976366
34120		3.825494	0.128158	8.890944	-0.013989	0.226471	-0.135487	0.125825	-0.131617	-0.044315	-0.816895	0.371338	-0.868652	0.038197	0.001217	0.088935	0.345858	-0.189758	-0.089389	-0.914540	2.024598	-24.136675	-139.001963
34121		3.735901	0.231738	8.849856	0.106032	0.209451	-0.206676	0.144458	-0.143040	-0.052303	-0.823730	0.373047	-0.859863	0.037296	0.002244	0.088527	0.345726	-0.190143	-0.090321	-0.914419	2.118120	-24.216950	-139.032938
34122		3.897689	0.235932	8.944073	0.025462	0.158418	-0.054701	0.153518	-0.164460	-0.058532	-0.824463	0.367920	-0.859375	0.038904	0.002279	0.089475	0.345564	-0.190606	-0.091337	-0.914282	2.218798	-24.309220	-139.068537
34123		4.139136	0.315379	9.065665	-0.051764	0.013478	0.158035	0.152098	-0.155854	-0.059908	-0.827393	0.363037	-0.857422	0.041322	0.003072	0.090691	0.345398	-0.191032	-0.092334	-0.914156	2.319026	-24.396555	-139.104959
34124		4.093074	0.201166	9.021116	-0.107593	0.134630	0.094104	0.151029	-0.162594	-0.060330	-0.832031	0.367188	-0.859131	0.040858	0.001931	0.090246	0.345226	-0.191489	-0.093337	-0.914024	2.418995	-24.487600	-139.142045
34125		4.416190	0.480655	9.189756	-0.094381	-0.193175	0.392170	0.142081	-0.140927	-0.060404	-0.825195	0.366455	-0.854492	0.044099	0.004728	0.091932	0.345054	-0.191864	-0.094262	-0.913915	2.513702	-24.566265	-139.178754
34126		4.572055	0.586449	9.299754	-0.099204	-0.312858	0.561574	0.107231	-0.104314	-0.044117	-0.833008	0.364502	-0.856445	0.045673	0.005805	0.093024	0.344940	-0.192138	-0.094949	-0.913829	2.583888	-24.624257	-139.204361
34127		4.464645	0.591246	9.227528	-0.042524	-0.261822	0.451792	0.071654	-0.067461	-0.038002	-0.835449	0.357666	-0.852539	0.044616	0.005871	0.092292	0.344837	-0.192308	-0.095404	-0.913785	2.631657	-24.661380	-139.225101
34128		4.390002	0.528692	9.163336	-0.050994	-0.182453	0.359946	0.042346	-0.045946	-0.024901	-0.838135	0.370361	-0.857910	0.043880	0.005262	0.091645	0.344776	-0.192437	-0.095675	-0.913752	2.658989	-24.686434	-139.237030
34129		4.327612	0.472105	9.013860	-0.088186	-0.144440	0.195916	0.026133	-0.025525	-0.018920	-0.826904	0.353271	-0.856689	0.043265	0.004705	0.090145	0.344737	-0.192503	-0.095831	-0.913737	2.675183	-24.700049	-139.244569
34130		4.158323	0.458545	8.962378	0.004799	-0.046603	0.077911	0.021513	-0.023575	-0.015138	-0.828369	0.360107	-0.853271	0.041573	0.004573	0.089629	0.344712	-0.192570	-0.095960	-0.913719	2.687746	-24.712555	-139.249707
34131		4.072490	0.417962	8.921515	0.025466	0.025890	0.003217	0.037589	-0.038095	-0.021054	-0.836670	0.355957	-0.853516	0.040708	0.004159	0.089224	0.344668	-0.192673	-0.096192	-0.913689	2.711231	-24.733305	-139.258973
34132		4.279463	0.471937	9.026796	-0.050763	-0.099341	0.187669	0.040803	-0.035180	-0.018906	-0.826660	0.364990	-0.853760	0.042779	0.004697	0.090276	0.344638	-0.192758	-0.096432	-0.913658	2.735995	-24.752346	-139.266845
34133		4.209179	0.472837	9.026814	-0.001779	-0.053628	0.158333	0.033476	-0.030344	-0.018932	-0.833008	0.362793	-0.851318	0.042079	0.004709	0.090275	0.344603	-0.192833	-0.096630	-0.913634	2.756480	-24.768712	-139.274562
34134		4.421008	0.554260	9.101928	-0.072033	-0.213221	0.318796	0.019891	-0.011522	-0.017502	-0.831787	0.358887	-0.860352	0.044205	0.005530	0.091022	0.344571	-0.192847	-0.096732	-0.913632	2.768600	-24.774249	-139.280846
34135		4.321515	0.547879	9.016134	-0.033172	-0.175545	0.199027	0.002218	0.013825	-0.011544	-0.835938	0.356934	-0.858643	0.043222	0.005475	0.090158	0.344561	-0.192778	-0.096705	-0.913653	2.768667	-24.765541	-139.282566
34136		4.380108	0.494620	9.076907	-0.093304	-0.153736	0.276311	-0.005476	0.032762	-0.010148	-0.833008	0.363037	-0.848877	0.043816	0.004946	0.090762	0.344560	-0.192636	-0.096607	-0.913694	2.763745	-24.745938	-139.282866
34137		4.292355	0.526630	9.033891	-0.026123	-0.142824	0.201889	-0.020350	0.050644	-0.008865	-0.833496	0.359375	-0.854004	0.042947	0.005274	0.090327	0.344558	-0.192440	-0.096411	-0.913757	2.749710	-24.716237	-139.281782
34138		4.195974	0.355262	8.977305	-0.092658	0.018567	0.102729	-0.027769	0.060064	-0.000426	-0.825928	0.358887	-0.858887	0.041987	0.003565	0.089760	0.344593	-0.192216	-0.096155	-0.913818	2.729116	-24.681275	-139.275145
34139		4.065693	0.378041	8.899812	-0.012403	0.048885	-0.021013	-0.023137	0.058125	-0.004229	-0.834717	0.366455	-0.853027	0.040683	0.003790	0.088986	0.344613	-0.191993	-0.095928	-0.913881	2.712183	-24.647421	-139.270938
34140		4.070213	0.388270	8.973584	0.010332	0.055870	0.048315	-0.026650	0.042322	-0.002452	-0.829102	0.366455	-0.855713	0.040721	0.003894	0.089727	0.344631	-0.191847	-0.095711	-0.913928	2.693000	-24.622554	-139.266132
34141		3.998284	0.237957	8.901278	-0.062562	0.183464	-0.053688	-0.016873	0.044140	-0.005682	-0.833252	0.361816	-0.853760	0.040003	0.002386	0.089004	0.344644	-0.191676	-0.095538	-0.913977	2.680221	-24.596661	-139.263277
34142		4.026098	0.275728	8.925619	-0.051637	0.142679	-0.018346	-0.007427	0.033150	-0.010959	-0.823975	0.360596	-0.849609	0.040276	0.002758	0.089249	0.344637	-0.191535	-0.095432	-0.914020	2.674402	-24.576814	-139.264109
34143		4.124885	0.371740	8.939490	-0.054142	0.014377	0.039430	0.003693	0.033571	-0.015274	-0.829102	0.357666	-0.861328	0.041264	0.003713	0.089388	0.344621	-0.191372	-0.095380	-0.914065	2.676045	-24.556711	-139.267608
34144		4.130840	0.347539	8.919089	-0.082991	0.020740	0.022324	0.005062	0.031054	-0.019989	-0.822998	0.360352	-0.856201	0.041323	0.003469	0.089185	0.344583	-0.191215	-0.095344	-0.914116	2.679767	-24.537822	-139.274183
34145		3.983555	0.294319	8.897725	-0.026112	0.140103	-0.060532	0.017564	0.028867	-0.023011	-0.827881	0.360840	-0.861084	0.039849	0.002931	0.088972	0.344543	-0.191046	-0.095371	-0.914164	2.691431	-24.520205	-139.282683
34146		3.930176	0.325754	8.816736	0.005498	0.124188	-0.154956	0.032500	0.008647	-0.025493	-0.830811	0.361572	-0.862793	0.039306	0.003238	0.088166	0.344496	-0.190942	-0.095504	-0.914190	2.712579	-24.513988	-139.293375
34147		3.912959	0.375483	8.894142	0.069696	0.123787	-0.089631	0.044025	-0.006256	-0.028822	-0.833252	0.358398	-0.860840	0.039127	0.003730	0.088943	0.344438	-0.190885	-0.095718	-0.914201	2.741346	-24.516306	-139.306568
34148		4.176658	0.561697	9.037811	0.050071	-0.123377	0.158485	0.042863	-0.011868	-0.031438	-0.831787	0.359375	-0.864990	0.041762	0.005591	0.090382	0.344363	-0.190853	-0.095939	-0.914213	2.770239	-24.521657	-139.321615
34149		4.209011	0.562066	9.000940	0.014944	-0.150833	0.138475	0.039185	0.003924	-0.023746	-0.829346	0.350586	-0.850342	0.042093	0.005598	0.090010	0.344328	-0.190761	-0.096109	-0.914227	2.794782	-24.518277	-139.331307
34150		4.075970	0.431789	8.965658	0.007437	0.016666	0.045439	0.031472	-0.001724	-0.024593	-0.838135	0.366943	-0.846924	0.040759	0.004299	0.089658	0.344279	-0.190706	-0.096254	-0.914242	2.815234	-24.518004	-139.341740
34151		4.013822	0.358830	8.919944	-0.013485	0.096643	-0.025174	0.038768	-0.005242	-0.032955	-0.826904	0.359619	-0.864258	0.040136	0.003564	0.089201	0.344197	-0.190651	-0.096446	-0.914264	2.842060	-24.519603	-139.357507
34152		3.923995	0.335950	8.777341	-0.009462	0.127459	-0.193126	0.057527	-0.020276	-0.033787	-0.835449	0.354736	-0.857666	0.039232	0.003328	0.087778	0.344122	-0.190632	-0.096751	-0.914264	2.880083	-24.529673	-139.374307
34153		3.806436	0.303659	8.772734	0.046519	0.227007	-0.247735	0.081834	-0.046684	-0.045088	-0.826904	0.355469	-0.858154	0.038045	0.002992	0.087737	0.344006	-0.190687	-0.097223	-0.914246	2.935310	-24.554612	-139.399034
34154		4.022604	0.382363	8.915010	-0.012484	0.095035	-0.025157	0.102093	-0.067760	-0.049520	-0.829834	0.360107	-0.859375	0.040197	0.003768	0.089166	0.343878	-0.190800	-0.097829	-0.914206	3.003653	-24.591356	-139.427310
34155		4.168106	0.589558	9.042820	0.058860	-0.093338	0.161333	0.102120	-0.067731	-0.049581	-0.827637	0.351074	-0.855713	0.041652	0.005839	0.090445	0.343750	-0.190914	-0.098434	-0.914166	3.072028	-24.628145	-139.455644
34156		4.219443	0.506498	9.058932	-0.029648	-0.044876	0.193390	0.096714	-0.060914	-0.047649	-0.830566	0.347412	-0.854736	0.042168	0.005011	0.090605	0.343628	-0.191006	-0.099001	-0.914131	3.136780	-24.660970	-139.482620
34157		4.262965	0.535427	9.023037	-0.053313	-0.092708	0.180475	0.087663	-0.041712	-0.048874	-0.825928	0.355225	-0.858887	0.042612	0.005304	0.090242	0.343502	-0.191026	-0.099494	-0.914120	3.196381	-24.682840	-139.509709
34158		4.216880	0.556900	9.041754	-0.005232	-0.066789	0.179362	0.075543	-0.030203	-0.048681	-0.831787	0.352539	-0.860107	0.042156	0.005525	0.090426	0.343371	-0.191014	-0.099913	-0.914127	3.248874	-24.698013	-139.536329
34159		4.182708	0.454664	8.989925	-0.067646	0.020553	0.112811	0.067415	-0.020618	-0.044523	-0.833252	0.348633	-0.855713	0.041819	0.004507	0.089905	0.343256	-0.190974	-0.100274	-0.914139	3.295448	-24.707915	-139.559969
34160		4.164247	0.523099	8.963574	-0.019890	-0.021623	0.084755	0.057514	-0.017775	-0.038811	-0.836914	0.343750	-0.849365	0.041636	0.005197	0.089641	0.343159	-0.190941	-0.100579	-0.914149	3.334846	-24.716267	-139.579954
34161		4.155649	0.560140	8.949888	0.004178	-0.042972	0.070723	0.052946	-0.018171	-0.036250	-0.839600	0.355469	-0.856689	0.041549	0.005570	0.089504	0.343069	-0.190919	-0.100861	-0.914156	3.370927	-24.725018	-139.598312
34162		4.102908	0.506553	8.941681	0.000123	0.030582	0.038362	0.052257	-0.016865	-0.036914	-0.827148	0.354248	-0.859131	0.041022	0.005035	0.089422	0.342976	-0.190891	-0.101139	-0.914166	3.406810	-24.732890	-139.617083
34163		4.092440	0.591783	8.952602	0.064854	-0.018011	0.048491	0.049803	-0.022296	-0.036024	-0.833008	0.349609	-0.856934	0.040915	0.005888	0.089532	0.342882	-0.190894	-0.101414	-0.914170	3.441106	-24.743986	-139.635469
34164		4.177379	0.570811	8.962431	-0.007017	-0.044142	0.091832	0.045863	-0.021653	-0.031578	-0.833496	0.349854	-0.853760	0.041765	0.005681	0.089630	0.342804	-0.190901	-0.101666	-0.914170	3.472008	-24.754761	-139.651074
34165		4.033971	0.525199	8.905807	0.044180	0.061471	-0.022058	0.054478	-0.024280	-0.033848	-0.839844	0.343506	-0.858887	0.040330	0.005221	0.089064	0.342724	-0.190906	-0.101963	-0.914166	3.508456	-24.767049	-139.668184
34166		4.041328	0.429654	8.889374	-0.031337	0.129347	-0.039244	0.063843	-0.030478	-0.042723	-0.833496	0.347412	-0.860352	0.040401	0.004260	0.088901	0.342608	-0.190918	-0.102323	-0.914166	3.552758	-24.782459	-139.691171
34167		4.086963	0.533128	8.847756	-0.008343	0.020006	-0.052062	0.077180	-0.037369	-0.050056	-0.828369	0.347412	-0.858154	0.040854	0.005287	0.088487	0.342468	-0.190935	-0.102762	-0.914166	3.606728	-24.801625	-139.719031
34168		4.118198	0.500293	8.908580	-0.038467	0.054614	0.014223	0.094195	-0.035520	-0.056967	-0.838623	0.348145	-0.860107	0.041168	0.004949	0.089095	0.342314	-0.190910	-0.103283	-0.914170	3.672300	-24.819361	-139.751231
34169		4.052172	0.409905	8.859472	-0.070989	0.154996	-0.063365	0.102133	-0.036824	-0.059936	-0.831543	0.341064	-0.847900	0.040507	0.004042	0.088604	0.342152	-0.190877	-0.103845	-0.914174	3.743210	-24.837792	-139.785349
34170		4.172460	0.555303	8.942232	-0.039307	0.013696	0.070609	0.106293	-0.043315	-0.064518	-0.836426	0.341064	-0.850830	0.041707	0.005492	0.089434	0.341971	-0.190863	-0.104441	-0.914177	3.817893	-24.859627	-139.822689
34171		4.118695	0.560975	8.923457	-0.008205	0.046121	0.031307	0.106879	-0.039896	-0.061480	-0.843262	0.344727	-0.855957	0.041171	0.005549	0.089246	0.341805	-0.190835	-0.105031	-0.914177	3.892032	-24.879675	-139.857973
34172		4.008067	0.560550	8.888158	0.053612	0.111514	-0.047297	0.117731	-0.049849	-0.066727	-0.841309	0.338623	-0.863037	0.040060	0.005540	0.088895	0.341620	-0.190830	-0.105693	-0.914171	3.974031	-24.905067	-139.897066
34173		4.108361	0.599201	8.868020	-0.000761	0.030721	-0.020931	0.125204	-0.056864	-0.074066	-0.836914	0.341309	-0.869141	0.041061	0.005921	0.088696	0.341405	-0.190841	-0.106407	-0.914166	4.062388	-24.934215	-139.941110
34174		4.121076	0.632066	8.902017	0.016556	0.023730	0.017258	0.129217	-0.057502	-0.072611	-0.841797	0.334961	-0.861084	0.041187	0.006248	0.089036	0.341200	-0.190848	-0.107140	-0.914155	4.152757	-24.963632	-139.984361
34175		4.159025	0.636815	8.896281	-0.013054	0.010153	0.028377	0.124803	-0.061414	-0.068901	-0.841553	0.340820	-0.853760	0.041565	0.006298	0.088980	0.341006	-0.190884	-0.107856	-0.914136	4.239691	-24.995471	-140.025481
34176		4.125593	0.632281	8.926625	0.011277	0.056917	0.041324	0.123736	-0.067053	-0.065517	-0.835693	0.337891	-0.860596	0.041228	0.006254	0.089284	0.340823	-0.190948	-0.108573	-0.914107	4.325314	-25.030528	-140.064831
34177		4.151617	0.715874	8.931582	0.046090	-0.004680	0.062504	0.123723	-0.065824	-0.068009	-0.845459	0.328857	-0.859375	0.041489	0.007089	0.089334	0.340628	-0.191005	-0.109290	-0.914081	4.411578	-25.064813	-140.105730
34178		4.193728	0.666846	8.935690	-0.018733	0.022861	0.080629	0.123133	-0.066840	-0.069968	-0.843262	0.332031	-0.862305	0.041910	0.006599	0.089375	0.340424	-0.191066	-0.110008	-0.914059	4.498144	-25.099443	-140.148015
34179		4.227555	0.769114	8.977472	0.033078	-0.045200	0.139981	0.116391	-0.061015	-0.068150	-0.839844	0.324951	-0.855225	0.042251	0.007624	0.089792	0.340224	-0.191114	-0.110684	-0.914042	4.580244	-25.130863	-140.188897
34180		4.248555	0.779273	8.955601	0.015704	-0.059214	0.129974	0.105384	-0.063867	-0.058893	-0.841309	0.329834	-0.860596	0.042459	0.007733	0.089574	0.340055	-0.191198	-0.111305	-0.914012	4.653706	-25.164198	-140.224174
34181		4.185366	0.688211	8.906860	-0.016904	0.041193	0.052457	0.099495	-0.064035	-0.058837	-0.841309	0.329834	-0.849365	0.041827	0.006825	0.089085	0.339880	-0.191293	-0.111900	-0.913984	4.723783	-25.197683	-140.259447
34182		4.109821	0.676616	8.868765	0.014891	0.093602	-0.015013	0.113025	-0.073211	-0.061511	-0.842285	0.320801	-0.853271	0.041068	0.006703	0.088706	0.339700	-0.191405	-0.112574	-0.913945	4.802623	-25.236146	-140.296983
34183		4.147776	0.684929	8.828051	-0.020207	0.066122	-0.035016	0.127023	-0.077767	-0.069575	-0.835693	0.325439	-0.854248	0.041446	0.006779	0.088301	0.339494	-0.191510	-0.113328	-0.913906	4.891773	-25.276861	-140.339894
34184		4.187773	0.690666	8.821074	-0.049821	0.052521	-0.023890	0.145244	-0.088831	-0.076180	-0.844971	0.329102	-0.857178	0.041841	0.006827	0.088234	0.339269	-0.191630	-0.114190	-0.913857	4.993513	-25.323410	-140.387703
34185		4.222102	0.715184	8.903190	-0.039191	0.059813	0.066547	0.150534	-0.088448	-0.080732	-0.849609	0.332764	-0.853760	0.042185	0.007068	0.089056	0.339028	-0.191737	-0.115080	-0.913813	5.099544	-25.369524	-140.438444
34186		4.424794	0.770595	8.964085	-0.131641	-0.059735	0.212606	0.148347	-0.081027	-0.077967	-0.846436	0.319580	-0.849854	0.044215	0.007622	0.089664	0.338801	-0.191815	-0.115945	-0.913771	5.203520	-25.411370	-140.487160
34187		4.188965	0.711238	8.891703	-0.031507	0.112520	0.041346	0.154834	-0.077336	-0.081212	-0.849609	0.322266	-0.847168	0.041858	0.007027	0.088939	0.338568	-0.191864	-0.116835	-0.913734	5.312029	-25.450950	-140.537781
34188		4.129881	0.702225	8.834911	-0.017473	0.151484	-0.036113	0.168203	-0.080565	-0.083999	-0.854980	0.319336	-0.851807	0.041266	0.006931	0.088372	0.338333	-0.191902	-0.117796	-0.913690	5.429161	-25.492040	-140.590491
34189		4.144343	0.699634	8.774979	-0.051839	0.143950	-0.084282	0.187795	-0.091771	-0.094269	-0.847412	0.311768	-0.849121	0.041406	0.006894	0.087775	0.338063	-0.191953	-0.118874	-0.913639	5.560645	-25.538945	-140.650456
34190		4.092493	0.636507	8.762814	-0.067550	0.237908	-0.123553	0.205532	-0.103797	-0.096872	-0.855225	0.316650	-0.856689	0.040882	0.006255	0.087656	0.337790	-0.192026	-0.120056	-0.913570	5.703487	-25.592341	-140.713000
34191		4.400958	0.957455	9.001682	-0.012101	-0.070007	0.252616	0.203408	-0.113840	-0.098510	-0.846924	0.307373	-0.854248	0.043963	0.009461	0.090052	0.337501	-0.192148	-0.121246	-0.913494	5.845914	-25.651315	-140.777364
34192		4.582446	1.037175	8.940719	-0.108734	-0.231660	0.284118	0.180823	-0.091531	-0.091163	-0.852295	0.312012	-0.852295	0.045788	0.010270	0.089437	0.337237	-0.192210	-0.122289	-0.913440	5.972943	-25.697783	-140.835839
34193		4.397431	0.962826	8.882659	-0.050853	-0.072013	0.145137	0.165706	-0.076285	-0.091131	-0.845459	0.299561	-0.845947	0.043945	0.009535	0.088851	0.336967	-0.192228	-0.123236	-0.913408	6.090903	-25.735546	-140.893370
34194		4.341812	0.900179	8.837697	-0.072069	0.008067	0.074742	0.158281	-0.070383	-0.087535	-0.858154	0.306641	-0.854004	0.043391	0.008913	0.088399	0.336711	-0.192233	-0.124137	-0.913380	6.203574	-25.769970	-140.948361
34195		4.309320	0.899718	8.868129	-0.047745	0.054848	0.087723	0.152404	-0.070574	-0.087465	-0.857178	0.301514	-0.852539	0.043066	0.008911	0.088703	0.336448	-0.192249	-0.125010	-0.913354	6.312881	-25.804506	-141.003376
34196		4.353679	1.056996	8.876290	0.021690	-0.067787	0.129908	0.141657	-0.064163	-0.081025	-0.849854	0.302002	-0.848145	0.043513	0.010489	0.088784	0.336208	-0.192257	-0.125818	-0.913330	6.414176	-25.835614	-141.053984
34197		4.385126	1.040233	8.867319	-0.019375	-0.061068	0.134002	0.133016	-0.061609	-0.078669	-0.857422	0.299316	-0.853760	0.043828	0.010326	0.088694	0.335973	-0.192271	-0.126579	-0.913308	6.509796	-25.865437	-141.102958
34198		4.489733	1.196721	8.958972	0.030447	-0.189034	0.277722	0.117127	-0.059100	-0.072517	-0.861328	0.305908	-0.851563	0.044875	0.011898	0.089610	0.335751	-0.192302	-0.127257	-0.913289	6.594635	-25.894070	-141.147955
34199		4.500568	1.186773	8.900646	-0.003890	-0.196572	0.229542	0.101767	-0.039212	-0.063869	-0.859863	0.300293	-0.852051	0.044992	0.011808	0.089021	0.335566	-0.192275	-0.127824	-0.913283	6.667636	-25.911996	-141.186036
34200		4.554689	1.136546	8.854169	-0.091924	-0.196493	0.206603	0.087684	-0.033521	-0.058146	-0.857422	0.289063	-0.854492	0.045535	0.011313	0.088554	0.335398	-0.192248	-0.128311	-0.913283	6.730870	-25.926930	-141.220137
34201		4.428372	1.128947	8.874866	-0.007013	-0.103525	0.169170	0.077430	-0.024923	-0.052163	-0.856445	0.293213	-0.844238	0.044276	0.011244	0.088759	0.335253	-0.192204	-0.128731	-0.913286	6.786264	-25.937444	-141.249793
34202		4.392771	1.153236	8.807106	0.012298	-0.118674	0.095757	0.071464	-0.022774	-0.044681	-0.860107	0.291504	-0.853516	0.043920	0.011491	0.088080	0.335137	-0.192164	-0.129114	-0.913283	6.836153	-25.947119	-141.274602
34203		4.356502	1.143044	8.840565	0.036617	-0.071880	0.108741	0.060846	-0.021134	-0.040513	-0.851807	0.292969	-0.852295	0.043558	0.011395	0.088414	0.335031	-0.192138	-0.129440	-0.913281	6.878715	-25.956230	-141.296624
34204		4.329488	1.105637	8.853763	0.031670	-0.018230	0.104705	0.052981	-0.022258	-0.038590	-0.858643	0.288086	-0.852539	0.043287	0.011025	0.088545	0.334926	-0.192130	-0.129732	-0.913280	6.916326	-25.965997	-141.317560
34205		4.415185	1.087811	8.862488	-0.040022	-0.044622	0.148100	0.045745	-0.022297	-0.034802	-0.856201	0.298096	-0.852539	0.044144	0.010850	0.088632	0.334831	-0.192138	-0.129986	-0.913277	6.948710	-25.976138	-141.336075
34206		4.394345	1.152058	8.833203	0.007837	-0.086588	0.119856	0.040499	-0.021420	-0.026635	-0.857910	0.292236	-0.849365	0.043936	0.011497	0.088339	0.334769	-0.192155	-0.130207	-0.913265	6.975841	-25.986238	-141.349399
34207		4.455840	1.115360	8.824545	-0.063159	-0.093014	0.135101	0.033641	-0.016931	-0.028287	-0.861084	0.290771	-0.849365	0.044553	0.011132	0.088251	0.334695	-0.192163	-0.130391	-0.913264	6.999314	-25.993767	-141.363390
34208		4.393025	1.087307	8.806939	-0.043692	-0.040100	0.088806	0.031329	-0.009575	-0.025412	-0.866943	0.292969	-0.854492	0.043927	0.010854	0.088073	0.334638	-0.192142	-0.130549	-0.913267	7.020456	-25.997206	-141.375029
34209		4.380757	1.044178	8.802567	-0.066359	0.000064	0.074785	0.030600	-0.008310	-0.026073	-0.860107	0.284424	-0.848389	0.043805	0.010423	0.088029	0.334577	-0.192117	-0.130703	-0.913272	7.041283	-25.999981	-141.386954
34210		4.360716	1.103484	8.808328	-0.012991	-0.028033	0.077672	0.025998	-0.007553	-0.019675	-0.852783	0.294678	-0.852051	0.043605	0.011019	0.088086	0.334542	-0.192100	-0.130828	-0.913271	7.057712	-26.002666	-141.394809
34211		4.367347	1.130002	8.809631	-0.001063	-0.048903	0.084678	0.021792	-0.003475	-0.022373	-0.855469	0.293945	-0.850830	0.043673	0.011286	0.088098	0.334493	-0.192070	-0.130929	-0.913281	7.072302	-26.002947	-141.404015
34212		4.378776	1.103025	8.823199	-0.024429	-0.028733	0.098809	0.016643	-0.004958	-0.015392	-0.852295	0.292969	-0.856445	0.043786	0.011020	0.088234	0.334469	-0.192059	-0.131003	-0.913281	7.082094	-26.004456	-141.408958
34213		4.367922	1.134432	8.808777	-0.000289	-0.049960	0.084673	0.013522	-0.007937	-0.011321	-0.866211	0.285645	-0.841309	0.043676	0.011336	0.088090	0.334460	-0.192071	-0.131064	-0.913273	7.089035	-26.008053	-141.411524
34214		4.366154	1.105992	8.875170	-0.000429	-0.002457	0.139959	0.008204	-0.007130	-0.009213	-0.864990	0.301270	-0.858643	0.043659	0.011054	0.088754	0.334456	-0.192088	-0.131097	-0.913266	7.092354	-26.011232	-141.412729
34215		4.347046	1.115947	8.824699	0.006662	-0.017179	0.087672	0.002970	-0.007468	-0.004666	-0.859375	0.291992	-0.852051	0.043467	0.011157	0.088249	0.334467	-0.192120	-0.131102	-0.913255	7.091388	-26.015033	-141.411048
34216		4.332219	1.118805	8.842855	0.024755	-0.004218	0.097676	-0.004088	-0.011020	0.000388	-0.862061	0.292480	-0.851318	0.043317	0.011190	0.088431	0.334492	-0.192182	-0.131076	-0.913236	7.085134	-26.021104	-141.406485
34217		4.309268	1.100736	8.824841	0.025811	0.015254	0.069536	-0.007292	-0.012855	0.002022	-0.853516	0.286621	-0.851074	0.043087	0.011011	0.088251	0.334520	-0.192259	-0.131037	-0.913215	7.076616	-26.028440	-141.400995
34218		4.326133	1.096948	8.805795	0.008469	0.001231	0.059530	-0.011144	-0.014572	0.005440	-0.858643	0.289307	-0.844727	0.043255	0.010976	0.088060	0.334559	-0.192352	-0.130980	-0.913189	7.065036	-26.036885	-141.393511
34219		4.356408	1.060109	8.835032	-0.027091	0.021738	0.094820	-0.013803	-0.014168	0.006494	-0.856445	0.289063	-0.851807	0.043557	0.010609	0.088353	0.334601	-0.192450	-0.130910	-0.913164	7.051588	-26.045280	-141.385290
34220		4.377556	1.082517	8.783527	-0.038397	-0.026471	0.060661	-0.013257	-0.011930	0.005913	-0.855713	0.294678	-0.853516	0.043770	0.010832	0.087837	0.334641	-0.192535	-0.130838	-0.913141	7.038571	-26.052253	-141.377295
34221		4.369149	1.107176	8.803685	-0.008741	-0.033843	0.077659	-0.018218	-0.005384	0.006209	-0.851807	0.296143	-0.850342	0.043689	0.011081	0.088037	0.334683	-0.192599	-0.130733	-0.913127	7.022367	-26.055629	-141.368563
34222		4.347723	1.084749	8.820385	-0.002200	-0.000538	0.080673	-0.015558	-0.005787	0.005153	-0.855713	0.297363	-0.855957	0.043474	0.010855	0.088204	0.334722	-0.192660	-0.130641	-0.913113	7.008030	-26.059052	-141.360566
34223		4.390923	1.047676	8.797084	-0.060986	-0.007378	0.074817	-0.021334	-0.008363	0.010278	-0.863281	0.293457	-0.848877	0.043905	0.010488	0.087972	0.334778	-0.192746	-0.130523	-0.913092	6.989008	-26.064402	-141.349487
34224		4.354074	1.027626	8.832295	-0.036737	0.039422	0.087843	-0.019493	-0.006357	0.006130	-0.860840	0.290527	-0.848877	0.043538	0.010286	0.088323	0.334817	-0.192816	-0.130413	-0.913078	6.972162	-26.068213	-141.340913
34225		4.382962	1.069799	8.817340	-0.030951	-0.015285	0.091812	-0.019595	-0.004002	0.007334	-0.853027	0.288818	-0.858154	0.043827	0.010708	0.088173	0.334864	-0.192877	-0.130298	-0.913065	6.954803	-26.070874	-141.331357
34226		4.348056	1.079649	8.785910	-0.006179	-0.016482	0.049521	-0.022253	-0.003598	0.008387	-0.846680	0.293701	-0.849121	0.043479	0.010808	0.087859	0.334912	-0.192941	-0.130169	-0.913052	6.935652	-26.073267	-141.321137
34227		4.350523	1.073823	8.820342	-0.000272	-0.003178	0.080672	-0.026204	-0.002960	0.013006	-0.856934	0.299072	-0.850342	0.043503	0.010753	0.088203	0.334979	-0.193012	-0.130017	-0.913034	6.912891	-26.075721	-141.307907
34228		4.392792	1.082357	8.853732	-0.012731	-0.023397	0.129947	-0.029372	-0.007205	0.007348	-0.856689	0.298096	-0.851074	0.043924	0.010838	0.088537	0.335014	-0.193103	-0.129862	-0.913024	6.890069	-26.080087	-141.298619
34229		4.378728	1.035312	8.815752	-0.040971	0.002929	0.084834	-0.033884	-0.007600	0.016184	-0.851807	0.292725	-0.857910	0.043783	0.010372	0.088157	0.335085	-0.193211	-0.129679	-0.913001	6.862176	-26.085389	-141.283727
34230		4.425716	1.069661	8.816584	-0.047379	-0.051462	0.109933	-0.035073	-0.009720	0.018538	-0.857422	0.294434	-0.847168	0.044252	0.010716	0.088166	0.335163	-0.193330	-0.129492	-0.912974	6.833051	-26.091943	-141.267538
34231		4.378448	1.030893	8.781455	-0.045721	-0.011958	0.053683	-0.034626	-0.005126	0.019164	-0.855713	0.291504	-0.848389	0.043781	0.010328	0.087814	0.335248	-0.193429	-0.129299	-0.912949	6.803814	-26.096027	-141.250563
34232		4.433708	1.085021	8.818635	-0.035040	-0.072869	0.116906	-0.040483	-0.006551	0.021839	-0.859619	0.298584	-0.850342	0.044333	0.010873	0.088186	0.335339	-0.193546	-0.129079	-0.912922	6.770558	-26.100986	-141.232035
34233		4.394698	1.065589	8.819883	-0.016307	-0.039877	0.098787	-0.044615	-0.002411	0.025222	-0.852051	0.292480	-0.854980	0.043945	0.010681	0.088197	0.335444	-0.193653	-0.128830	-0.912896	6.733815	-26.103918	-141.211011
34234		4.354895	1.091865	8.877918	0.048765	-0.020244	0.135776	-0.053124	-0.003427	0.028943	-0.859863	0.298828	-0.857666	0.043546	0.010949	0.088777	0.335557	-0.193781	-0.128539	-0.912868	6.691226	-26.107553	-141.187739
34235		4.321270	0.971418	8.834622	-0.014202	0.067101	0.069765	-0.062449	-0.002025	0.029572	-0.852539	0.296631	-0.849854	0.043210	0.009748	0.088344	0.335664	-0.193919	-0.128204	-0.912846	6.643035	-26.110527	-141.163924
34236		4.272906	0.976246	8.856608	0.033773	0.093260	0.068631	-0.062441	-0.002018	0.029554	-0.858398	0.297852	-0.852783	0.042727	0.009796	0.088563	0.335772	-0.194057	-0.127868	-0.912825	6.594887	-26.113367	-141.140153
34237		4.403505	0.983181	8.868147	-0.044578	0.012793	0.137156	-0.072493	0.000655	0.029525	-0.867432	0.302490	-0.851563	0.044034	0.009870	0.088678	0.335871	-0.194200	-0.127482	-0.912812	6.540862	-26.114773	-141.116167
34238		4.445044	1.066025	8.858178	-0.015619	-0.082599	0.155014	-0.083100	0.002294	0.033701	-0.858887	0.302734	-0.849609	0.044450	0.010705	0.088577	0.335980	-0.194355	-0.127041	-0.912800	6.479578	-26.115387	-141.089448
34239		4.441221	0.982964	8.834884	-0.067652	-0.035627	0.124112	-0.103770	0.007808	0.041492	-0.858154	0.304688	-0.847168	0.044414	0.009885	0.088342	0.336108	-0.194525	-0.126489	-0.912794	6.404066	-26.113444	-141.057358
34240		4.413780	1.003656	8.841415	-0.025807	-0.043305	0.119928	-0.117381	0.016879	0.044248	-0.860596	0.299561	-0.853271	0.044143	0.010098	0.088405	0.336240	-0.194677	-0.125856	-0.912800	6.319746	-26.106360	-141.022920
34241		4.427975	0.987846	8.824993	-0.043120	-0.057343	0.109921	-0.132903	0.025102	0.048683	-0.855957	0.301025	-0.845947	0.044288	0.009948	0.088238	0.336383	-0.194822	-0.125135	-0.912815	6.225016	-26.094934	-140.985075
34242		4.418842	0.995859	8.882583	-0.007939	-0.050905	0.158045	-0.145761	0.032929	0.052050	-0.853516	0.315430	-0.859375	0.044200	0.010035	0.088811	0.336533	-0.194954	-0.124338	-0.912841	6.121801	-26.079087	-140.944620
34243		4.416393	0.980123	8.885551	-0.007545	-0.051439	0.158043	-0.154317	0.034310	0.056862	-0.847412	0.309326	-0.847412	0.044176	0.009882	0.088840	0.336698	-0.195097	-0.123495	-0.912864	6.012293	-26.062789	-140.901021
34244		4.417903	0.910393	8.900289	-0.042518	-0.011013	0.165282	-0.159484	0.047969	0.060719	-0.856445	0.313721	-0.854004	0.044198	0.009188	0.088985	0.336883	-0.195189	-0.122602	-0.912896	5.898421	-26.038748	-140.854152
34245		4.383552	0.853037	8.883798	-0.053112	0.028824	0.130219	-0.161427	0.047137	0.056223	-0.853027	0.312012	-0.849365	0.043854	0.008614	0.088821	0.337046	-0.195285	-0.121705	-0.912936	5.784720	-26.014949	-140.810214
34246		4.397796	0.864718	8.802459	-0.069910	-0.033167	0.064844	-0.156287	0.053422	0.063758	-0.857666	0.313965	-0.843994	0.043999	0.008730	0.088006	0.337251	-0.195347	-0.120814	-0.912965	5.671776	-25.987807	-140.761197
34247		4.324947	0.789919	8.820917	-0.056694	0.054026	0.042847	-0.151909	0.057415	0.053662	-0.858887	0.307129	-0.843262	0.043273	0.007978	0.088191	0.337416	-0.195379	-0.119946	-0.913012	5.564049	-25.957851	-140.718366
34248		4.384172	0.805792	8.841945	-0.075222	-0.000111	0.089059	-0.145933	0.057705	0.053360	-0.855225	0.314453	-0.852539	0.043865	0.008134	0.088401	0.337586	-0.195398	-0.119105	-0.913055	5.459913	-25.927528	-140.675820
34249		4.362339	0.752150	8.772529	-0.109065	0.012424	0.012836	-0.136207	0.062055	0.050938	-0.849365	0.321777	-0.849365	0.043649	0.007592	0.087707	0.337757	-0.195379	-0.118304	-0.913100	5.361917	-25.894640	-140.634581
34250		4.284374	0.733306	8.779557	-0.060534	0.058661	-0.016407	-0.123579	0.060122	0.047482	-0.858154	0.314697	-0.843506	0.042868	0.007397	0.087778	0.337922	-0.195346	-0.117566	-0.913141	5.272257	-25.862495	-140.595757
34251		4.257357	0.700200	8.799047	-0.054049	0.091974	-0.013340	-0.110869	0.055835	0.042825	-0.849365	0.325928	-0.851318	0.042597	0.007060	0.087975	0.338077	-0.195308	-0.116898	-0.913178	5.191277	-25.832618	-140.560159
34252		4.274305	0.755399	8.843696	-0.013391	0.044231	0.038664	-0.096423	0.057088	0.038967	-0.852539	0.318359	-0.853760	0.042767	0.007605	0.088421	0.338228	-0.195237	-0.116298	-0.913214	5.119692	-25.801668	-140.527028
34253		4.303022	0.736487	8.843834	-0.042893	0.030468	0.049819	-0.090209	0.050311	0.035070	-0.858154	0.327637	-0.851563	0.043051	0.007412	0.088424	0.338364	-0.195186	-0.115741	-0.913245	5.052899	-25.774468	-140.496759
34254		4.298788	0.727527	8.846634	-0.042536	0.029926	0.049822	-0.079697	0.051003	0.032168	-0.850342	0.333496	-0.854492	0.043009	0.007317	0.088452	0.338496	-0.195110	-0.115234	-0.913276	4.992988	-25.746581	-140.468371
34255		4.139882	0.604823	8.669105	-0.061349	0.142471	-0.188045	-0.057153	0.046295	0.022853	-0.850098	0.325684	-0.847900	0.041418	0.006078	0.086680	0.338606	-0.195013	-0.114847	-0.913305	4.948650	-25.721011	-140.446140
34256		3.949027	0.499451	8.685463	0.006592	0.330393	-0.264267	-0.019123	0.018161	0.012071	-0.853516	0.330078	-0.843506	0.039498	0.005005	0.086851	0.338687	-0.194974	-0.114692	-0.913303	4.929794	-25.710843	-140.432339
34257		4.043069	0.570041	8.724368	-0.000878	0.235860	-0.183029	0.012022	-0.004230	-0.002782	-0.856201	0.316406	-0.856445	0.040429	0.005695	0.087245	0.338718	-0.194976	-0.114731	-0.913286	4.933346	-25.712835	-140.429135
34258		4.094726	0.557239	8.736587	-0.042588	0.222362	-0.150701	0.044844	-0.019895	-0.019269	-0.853760	0.323975	-0.848145	0.040939	0.005549	0.087371	0.338697	-0.194984	-0.114963	-0.913263	4.960662	-25.722843	-140.437276
34259		4.051376	0.606888	8.690397	0.005888	0.200696	-0.207239	0.079264	-0.040463	-0.029654	-0.847656	0.319092	-0.850586	0.040497	0.006028	0.086915	0.338649	-0.195022	-0.115397	-0.913218	5.010997	-25.744177	-140.453104
34260		4.105720	0.646357	8.758215	0.010620	0.173829	-0.119871	0.115103	-0.064724	-0.048489	-0.853516	0.326172	-0.850830	0.041030	0.006403	0.087599	0.338537	-0.195099	-0.116054	-0.913160	5.087724	-25.778284	-140.482295
34261		4.266064	0.689487	8.784521	-0.068143	0.073097	-0.023280	0.140100	-0.079093	-0.055976	-0.850830	0.318848	-0.856934	0.042628	0.006821	0.087867	0.338406	-0.195195	-0.116857	-0.913085	5.181176	-25.820272	-140.517077
34262		4.309015	0.687336	8.846019	-0.086601	0.086867	0.050224	0.142218	-0.067737	-0.063108	-0.852295	0.325439	-0.860352	0.043062	0.006797	0.088480	0.338252	-0.195231	-0.117657	-0.913032	5.277648	-25.855252	-140.555849
34263		4.509174	0.913793	8.978057	-0.043700	-0.135460	0.274576	0.127964	-0.057311	-0.061104	-0.854004	0.309570	-0.851318	0.045069	0.009067	0.089799	0.338098	-0.195245	-0.118372	-0.912993	5.365115	-25.884439	-140.592768
34264		4.401279	0.942269	8.878292	0.018073	-0.117246	0.140659	0.105011	-0.043211	-0.052985	-0.852539	0.321533	-0.847412	0.043996	0.009364	0.088797	0.337967	-0.195237	-0.118951	-0.912968	5.436918	-25.905870	-140.623785
34265		4.283265	0.833898	8.885990	0.026214	0.044223	0.086803	0.102388	-0.042773	-0.052010	-0.856689	0.314209	-0.838135	0.042816	0.008282	0.088873	0.337839	-0.195234	-0.119516	-0.912943	5.506899	-25.927177	-140.654154
34266		4.372448	0.897562	8.884412	0.001692	-0.043823	0.129886	0.103518	-0.038269	-0.053172	-0.860107	0.312012	-0.849854	0.043710	0.008918	0.088857	0.337708	-0.195206	-0.120079	-0.912923	5.577815	-25.945711	-140.685055
34267		4.395639	0.933504	8.831200	-0.009529	-0.091980	0.095622	0.098337	-0.039768	-0.052377	-0.848877	0.310303	-0.855225	0.043941	0.009280	0.088325	0.337576	-0.195195	-0.120621	-0.912903	5.645542	-25.965217	-140.715536
34268		4.411294	0.910298	8.876522	-0.027409	-0.058168	0.141039	0.087394	-0.029898	-0.047041	-0.856934	0.314453	-0.846680	0.044102	0.009054	0.088776	0.337462	-0.195160	-0.121091	-0.912890	5.705330	-25.979261	-140.742079
34269		4.474401	1.000357	8.914800	-0.004872	-0.139515	0.211041	0.073242	-0.021865	-0.040096	-0.850830	0.311035	-0.850098	0.044736	0.009962	0.089157	0.337372	-0.195117	-0.121475	-0.912882	5.754806	-25.989207	-140.763684
34270		4.387622	0.959320	8.878358	0.014831	-0.066307	0.136792	0.058286	-0.012587	-0.039855	-0.856934	0.313721	-0.850098	0.043873	0.009559	0.088789	0.337273	-0.195056	-0.121776	-0.912891	5.795453	-25.993756	-140.784591
34271		4.309677	0.891350	8.821494	0.005226	0.013723	0.045626	0.059090	-0.013830	-0.033155	-0.856934	0.314209	-0.851318	0.043092	0.008880	0.088221	0.337206	-0.195004	-0.122076	-0.912887	5.834679	-25.999498	-140.801294
34272		4.297861	0.852056	8.815869	-0.017655	0.053840	0.031801	0.075118	-0.019807	-0.044281	-0.852051	0.308105	-0.849121	0.042972	0.008478	0.088166	0.337099	-0.194945	-0.122470	-0.912886	5.886415	-26.007875	-140.825487
34273		4.370115	0.870281	8.776418	-0.070889	-0.007339	0.029859	0.084350	-0.018863	-0.043702	-0.854248	0.314941	-0.851318	0.043695	0.008656	0.087772	0.337005	-0.194867	-0.122904	-0.912880	5.943200	-26.015836	-140.849222
34274		4.388853	0.873350	8.790623	-0.082683	-0.007636	0.051030	0.084184	-0.015340	-0.044947	-0.855957	0.306152	-0.849609	0.043884	0.008687	0.087913	0.336906	-0.194772	-0.123333	-0.912878	6.000201	-26.021585	-140.873563
34275		4.476521	0.977393	8.881251	-0.055104	-0.095318	0.180262	0.079793	-0.005336	-0.041585	-0.854980	0.310547	-0.848389	0.044765	0.009729	0.088818	0.336825	-0.194642	-0.123721	-0.912884	6.053401	-26.021926	-140.895068
34276		4.431687	1.024475	8.869765	-0.001090	-0.103142	0.154835	0.071383	0.005260	-0.039690	-0.856689	0.307617	-0.853760	0.044321	0.010204	0.088700	0.336751	-0.194477	-0.124051	-0.912901	6.101001	-26.016217	-140.914697
34277		4.373332	0.943575	8.898519	-0.011828	0.004669	0.147225	0.060877	0.017308	-0.040958	-0.855469	0.304443	-0.856201	0.043743	0.009400	0.088984	0.336668	-0.194276	-0.124314	-0.912939	6.142510	-26.003667	-140.934264
34278		4.372280	0.904628	8.841711	-0.057945	0.017496	0.092229	0.059693	0.015187	-0.038633	-0.855957	0.308105	-0.847656	0.043731	0.009011	0.088416	0.336594	-0.194086	-0.124573	-0.912971	6.182808	-25.992342	-140.952530
34279		4.337248	0.920063	8.844766	-0.027710	0.030252	0.081070	0.053015	0.017383	-0.035430	-0.859863	0.296143	-0.860596	0.043382	0.009169	0.088446	0.336529	-0.193901	-0.124795	-0.913005	6.218258	-25.980067	-140.968566
34280		4.354398	0.996790	8.851171	0.007560	-0.031257	0.101775	0.052125	0.020970	-0.040963	-0.850586	0.300537	-0.851807	0.043555	0.009936	0.088510	0.336439	-0.193696	-0.125012	-0.913051	6.254675	-25.965282	-140.987888
34281		4.332393	1.012640	8.801613	0.014572	-0.045772	0.049419	0.049376	0.023732	-0.038722	-0.857422	0.307373	-0.844238	0.043336	0.010096	0.088013	0.336360	-0.193486	-0.125210	-0.913098	6.288743	-25.949167	-141.005545
34282		4.302773	1.016787	8.907801	0.061394	0.008253	0.131798	0.045616	0.020857	-0.032906	-0.854492	0.309570	-0.851074	0.043039	0.010140	0.089076	0.336301	-0.193297	-0.125389	-0.913135	6.319182	-25.934932	-141.019748
34283		4.316385	1.019166	8.889650	0.044096	-0.005802	0.121787	0.037210	0.017482	-0.030421	-0.854248	0.312256	-0.848633	0.043173	0.010169	0.088895	0.336243	-0.193141	-0.125534	-0.913169	6.344155	-25.922884	-141.032566
34284		4.328381	1.024266	8.837113	0.021243	-0.033613	0.080593	0.032817	0.013519	-0.026460	-0.857666	0.299316	-0.856445	0.043291	0.010222	0.088370	0.336197	-0.193012	-0.125661	-0.913196	6.365690	-25.913226	-141.043188
34285		4.314084	0.981166	8.833481	-0.001648	0.006504	0.066804	0.026715	0.015552	-0.031109	-0.851318	0.301025	-0.853271	0.043149	0.009793	0.088333	0.336125	-0.192882	-0.125762	-0.913236	6.384892	-25.902223	-141.056566
34286		4.304165	0.965086	8.797542	-0.018460	0.012545	0.028729	0.036108	0.014210	-0.025656	-0.863525	0.307617	-0.849365	0.043049	0.009629	0.087974	0.336086	-0.192744	-0.125902	-0.913260	6.408061	-25.892216	-141.066620
34287		4.320386	0.963387	8.813510	-0.030222	0.012236	0.049905	0.036865	0.011751	-0.028657	-0.858398	0.302734	-0.852295	0.043210	0.009611	0.088134	0.336032	-0.192616	-0.126053	-0.913286	6.432510	-25.883524	-141.078705
34288		4.347312	1.012153	8.799087	-0.024249	-0.042471	0.053675	0.036764	0.014107	-0.027456	-0.858398	0.300293	-0.854248	0.043481	0.010099	0.087990	0.335986	-0.192477	-0.126198	-0.913313	6.456548	-25.873452	-141.089895
34289		4.363486	1.010344	8.815085	-0.036005	-0.042785	0.074850	0.032207	0.012449	-0.028361	-0.854980	0.307373	-0.854004	0.043642	0.010083	0.088150	0.335930	-0.192353	-0.126326	-0.913342	6.478217	-25.864374	-141.101733
34290		4.297615	1.028290	8.855083	0.029573	-0.002943	0.083700	0.031072	0.010368	-0.019926	-0.857178	0.303467	-0.850586	0.042982	0.010265	0.088550	0.335909	-0.192246	-0.126445	-0.913356	6.497025	-25.856911	-141.108418
34291		4.329605	1.023116	8.852551	0.000132	-0.016789	0.094867	0.028879	0.014164	-0.021897	-0.854004	0.301514	-0.855225	0.043303	0.010214	0.088524	0.335880	-0.192124	-0.126548	-0.913377	6.514944	-25.847270	-141.116034
34292		4.319978	1.006494	8.816568	-0.016687	-0.010742	0.056796	0.030346	0.011638	-0.020592	-0.848389	0.303223	-0.850830	0.043206	0.010047	0.088165	0.335857	-0.192011	-0.126662	-0.913394	6.533475	-25.839037	-141.123042
34293		4.338350	1.000444	8.866874	-0.022901	0.002675	0.109162	0.025761	0.011175	-0.017845	-0.853271	0.300781	-0.846680	0.043389	0.009989	0.088668	0.335842	-0.191911	-0.126753	-0.913408	6.548580	-25.831357	-141.128304
34294		4.277809	0.998388	8.817870	0.002247	0.021845	0.038748	0.030814	0.015035	-0.023618	-0.855957	0.294434	-0.851074	0.042786	0.009965	0.088177	0.335808	-0.191780	-0.126866	-0.913432	6.568100	-25.820988	-141.136972
34295		4.311768	0.990122	8.849657	-0.021651	0.021726	0.081107	0.032469	0.009005	-0.021079	-0.856689	0.306396	-0.854492	0.043123	0.009882	0.088496	0.335783	-0.191676	-0.126994	-0.913446	6.588003	-25.814328	-141.144432
34296		4.318249	0.971005	8.794968	-0.056164	0.014245	0.033034	0.031847	0.007919	-0.022948	-0.857910	0.308350	-0.851563	0.043187	0.009691	0.087950	0.335748	-0.191576	-0.127123	-0.913461	6.608152	-25.808049	-141.153188
34297		4.354364	0.959626	8.860980	-0.074516	0.027848	0.106587	0.033670	0.011139	-0.023453	-0.857910	0.300049	-0.854736	0.043550	0.009576	0.088609	0.335714	-0.191460	-0.127255	-0.913480	6.629322	-25.800013	-141.161985
34298		4.291000	1.007889	8.834058	-0.008381	0.019933	0.059933	0.035790	0.008503	-0.023930	-0.855225	0.299072	-0.850098	0.042915	0.010058	0.088341	0.335679	-0.191350	-0.127402	-0.913495	6.651977	-25.793330	-141.171313
34299		4.324656	1.079761	8.821154	0.009312	-0.055082	0.070539	0.031964	0.005573	-0.024172	-0.847168	0.294922	-0.856445	0.043250	0.010778	0.088212	0.335637	-0.191261	-0.127536	-0.913511	6.672541	-25.788408	-141.180968
34300		4.268562	1.071257	8.840437	0.045526	-0.008418	0.062504	0.027921	0.007349	-0.022001	-0.857422	0.304199	-0.858887	0.042690	0.010696	0.088404	0.335603	-0.191171	-0.127647	-0.913527	6.690190	-25.782505	-141.189156
34301		4.279292	1.044863	8.854310	0.022115	0.011569	0.076815	0.023603	0.002228	-0.015569	-0.852295	0.299316	-0.854736	0.042795	0.010435	0.088544	0.335590	-0.191116	-0.127741	-0.913530	6.703704	-25.780055	-141.193618
34302		4.292653	1.048129	8.801354	-0.000740	-0.016223	0.035613	0.020892	0.002573	-0.020613	-0.843994	0.295166	-0.850586	0.042929	0.010468	0.088014	0.335552	-0.191061	-0.127826	-0.913543	6.717095	-25.776959	-141.201279
34303		4.305675	1.018010	8.849460	-0.018609	0.017483	0.081122	0.019777	-0.000704	-0.015807	-0.856689	0.294678	-0.862793	0.043057	0.010168	0.088496	0.335533	-0.191026	-0.127908	-0.913546	6.728578	-25.776160	-141.206109
34304		4.303633	1.023520	8.814928	-0.023783	0.003227	0.049930	0.017117	-0.000307	-0.014759	-0.853027	0.289063	-0.853027	0.043037	0.010224	0.088150	0.335516	-0.190994	-0.127975	-0.913550	6.738290	-25.775092	-141.210285
34305		4.335455	1.063473	8.868652	-0.006641	-0.024025	0.116034	0.014998	0.002332	-0.014291	-0.862061	0.295410	-0.856934	0.043356	0.010625	0.088687	0.335501	-0.190954	-0.128028	-0.913556	6.746518	-25.772667	-141.213931
34306		4.315516	1.074274	8.818495	0.000322	-0.038461	0.063654	0.009674	0.003125	-0.012192	-0.854004	0.296387	-0.848877	0.043157	0.010736	0.088185	0.335491	-0.190920	-0.128053	-0.913563	6.751150	-25.769818	-141.216228
34307		4.320243	1.022675	8.830654	-0.034765	0.001826	0.071118	0.009675	0.003126	-0.012193	-0.852295	0.289307	-0.858154	0.043204	0.010220	0.088306	0.335481	-0.190887	-0.128079	-0.913570	6.755725	-25.767082	-141.218487
34308		4.310373	1.049885	8.851093	-0.005040	-0.005483	0.087987	0.003044	0.004144	-0.006521	-0.856689	0.298340	-0.852783	0.043106	0.010496	0.088510	0.335491	-0.190863	-0.128067	-0.913573	6.754967	-25.764036	-141.217124
34309		4.303735	1.026917	8.849374	-0.016324	0.014306	0.081131	0.002422	0.003052	-0.008383	-0.847168	0.301270	-0.855225	0.043039	0.010266	0.088493	0.335491	-0.190846	-0.128055	-0.913578	6.754343	-25.761599	-141.216982
34310		4.263794	1.012582	8.850322	0.002178	0.047453	0.063102	0.001066	0.003222	-0.010905	-0.859863	0.295166	-0.861816	0.042640	0.010123	0.088503	0.335479	-0.190826	-0.128040	-0.913589	6.753685	-25.758782	-141.218458
34311		4.312585	1.001789	8.829198	-0.044919	0.020021	0.064270	0.001258	-0.000281	-0.009665	-0.862793	0.295166	-0.853760	0.043126	0.010015	0.088292	0.335470	-0.190825	-0.128030	-0.913594	6.752853	-25.758154	-141.219374
34312		4.296617	1.004965	8.847775	-0.026872	0.033029	0.074283	0.001035	0.004427	-0.007257	-0.853271	0.301758	-0.860352	0.042968	0.010048	0.088477	0.335475	-0.190803	-0.128009	-0.913600	6.751137	-25.754897	-141.218456
34313		4.272391	0.987775	8.830234	-0.026035	0.052646	0.046248	0.001147	0.002073	-0.008461	-0.849854	0.296631	-0.857666	0.042725	0.009875	0.088302	0.335474	-0.190791	-0.127994	-0.913605	6.749833	-25.753010	-141.218436
34314		4.308368	1.052840	8.851718	-0.002745	-0.008657	0.087986	-0.001596	0.003618	-0.009856	-0.842529	0.297363	-0.855225	0.043086	0.010527	0.088516	0.335464	-0.190775	-0.127965	-0.913616	6.747349	-25.750039	-141.219220
34315		4.301708	1.029381	8.850073	-0.014037	0.011129	0.081139	-0.004912	0.004126	-0.007020	-0.853516	0.294434	-0.849854	0.043019	0.010294	0.088500	0.335464	-0.190766	-0.127917	-0.913624	6.742111	-25.747081	-141.218136
34316		4.301313	1.029194	8.850287	-0.013666	0.010598	0.081140	-0.006187	0.003146	-0.007097	-0.851563	0.298096	-0.859863	0.043015	0.010293	0.088502	0.335462	-0.190762	-0.127865	-0.913633	6.736255	-25.744564	-141.217213
34317		4.271876	1.064279	8.820712	0.022664	-0.010566	0.045606	-0.006921	0.004409	-0.007756	-0.853516	0.290039	-0.851318	0.042721	0.010644	0.088206	0.335458	-0.190754	-0.127808	-0.913645	6.730059	-25.741396	-141.216575
34318		4.288953	1.058069	8.836841	0.010910	-0.010934	0.066794	-0.005677	0.006593	-0.004030	-0.859619	0.292725	-0.858154	0.042893	0.010582	0.088367	0.335472	-0.190735	-0.127749	-0.913651	6.723543	-25.737123	-141.213459
34319		4.279135	1.083790	8.857414	0.040667	-0.018225	0.083645	-0.009311	0.000150	-0.003021	-0.860107	0.299561	-0.860840	0.042792	0.010841	0.088574	0.335484	-0.190753	-0.127684	-0.913652	6.714818	-25.736695	-141.210149
34320		4.282422	1.033489	8.835262	-0.000019	0.008324	0.059953	-0.005915	-0.001507	-0.003413	-0.863281	0.291016	-0.858643	0.042824	0.010337	0.088353	0.335497	-0.190772	-0.127638	-0.913650	6.708258	-25.737071	-141.207246
34321		4.287755	0.980288	8.847332	-0.035139	0.048576	0.067469	-0.003873	-0.002993	-0.006326	-0.851563	0.297119	-0.847656	0.042877	0.009803	0.088474	0.335497	-0.190794	-0.127606	-0.913650	6.703657	-25.738209	-141.206256
34322		4.309784	1.001029	8.830652	-0.040749	0.014186	0.064298	-0.003985	-0.000639	-0.005122	-0.854248	0.298096	-0.855957	0.043098	0.010011	0.088306	0.335503	-0.190804	-0.127568	-0.913651	6.698644	-25.737977	-141.204368
34323		4.287850	0.980321	8.847282	-0.034383	0.047515	0.067477	-0.001370	-0.001087	-0.012267	-0.854248	0.299561	-0.858154	0.042879	0.009801	0.088473	0.335480	-0.190809	-0.127550	-0.913661	6.697043	-25.737633	-141.206989
34324		4.287689	0.980683	8.847320	-0.034016	0.046983	0.067481	-0.000861	0.002359	-0.009199	-0.852783	0.295898	-0.858398	0.042878	0.009805	0.088473	0.335473	-0.190798	-0.127526	-0.913669	6.694842	-25.735423	-141.207454
34325		4.282332	1.033886	8.835259	0.001891	0.005688	0.059954	-0.002677	-0.000863	-0.008695	-0.851074	0.300781	-0.857422	0.042823	0.010338	0.088353	0.335465	-0.190807	-0.127498	-0.913674	6.691504	-25.735189	-141.207802
34326		4.306150	1.051794	8.852922	0.001844	-0.015006	0.087979	-0.001369	-0.001086	-0.012269	-0.855957	0.292480	-0.866455	0.043062	0.010516	0.088529	0.335441	-0.190810	-0.127480	-0.913685	6.689964	-25.734735	-141.210462
34327		4.307544	1.005336	8.796361	-0.044393	-0.002156	0.033104	-0.005260	-0.001619	-0.005200	-0.854492	0.296875	-0.853271	0.043075	0.010055	0.087964	0.335446	-0.190829	-0.127438	-0.913685	6.684213	-25.735165	-141.208658
34328		4.322108	1.048998	8.834314	-0.015062	-0.029614	0.077966	-0.005768	-0.005064	-0.008270	-0.849609	0.301270	-0.852295	0.043219	0.010491	0.088344	0.335433	-0.190861	-0.127403	-0.913688	6.679184	-25.737241	-141.209087
34329		4.326698	1.075453	8.801738	-0.008517	-0.064139	0.053584	-0.007809	-0.003579	-0.005356	-0.857178	0.299316	-0.852295	0.043266	0.010757	0.088018	0.335434	-0.190892	-0.127353	-0.913688	6.672077	-25.738777	-141.207526
34330		4.284132	1.109586	8.824726	0.051018	-0.058016	0.059231	-0.009771	-0.003244	0.000004	-0.852783	0.297852	-0.857666	0.042840	0.011100	0.088247	0.335457	-0.190928	-0.127289	-0.913681	6.662425	-25.740368	-141.202593
34331		4.319511	1.096797	8.856436	0.027183	-0.058266	0.101619	-0.012627	0.000653	-0.000186	-0.848633	0.298340	-0.859375	0.043195	0.010974	0.088564	0.335479	-0.190951	-0.127205	-0.913680	6.651007	-25.739838	-141.197454
34332		4.323985	1.122196	8.824058	0.033713	-0.092790	0.077228	-0.016290	-0.004588	0.004470	-0.853027	0.301025	-0.851807	0.043238	0.011230	0.088241	0.335515	-0.191007	-0.127109	-0.913668	6.636437	-25.742488	-141.189797
34333		4.276174	1.051861	8.889854	0.039867	0.008395	0.107994	-0.019799	-0.000578	0.006067	-0.854248	0.295898	-0.851318	0.042761	0.010529	0.088898	0.335558	-0.191052	-0.126988	-0.913660	6.619234	-25.743071	-141.180796
34334		4.277863	1.003416	8.833347	-0.006412	0.021243	0.053137	-0.018217	-0.005456	0.006176	-0.847656	0.307129	-0.864502	0.042776	0.010044	0.088334	0.335600	-0.191115	-0.126883	-0.913646	6.603119	-25.746323	-141.172122
34335		4.296147	0.995523	8.849071	-0.018135	0.020846	0.074336	-0.019411	-0.007586	0.008541	-0.845703	0.302979	-0.863525	0.042958	0.009966	0.088491	0.335650	-0.191193	-0.126774	-0.913626	6.585681	-25.751051	-141.162070
34336		4.290742	0.970056	8.847011	-0.029482	0.040620	0.067523	-0.017369	-0.009069	0.005624	-0.855713	0.297852	-0.854248	0.042903	0.009709	0.088471	0.335688	-0.191272	-0.126679	-0.913609	6.570315	-25.756319	-141.154006
34337		4.283414	0.948270	8.810573	-0.046369	0.046719	0.029503	-0.012778	-0.008594	0.002865	-0.847168	0.298096	-0.851807	0.042830	0.009489	0.088107	0.335718	-0.191340	-0.126607	-0.913594	6.558263	-25.761245	-141.147612
34338		4.303772	0.937893	8.860444	-0.052554	0.059988	0.081918	-0.012125	-0.008704	0.001078	-0.855713	0.300293	-0.852539	0.043034	0.009385	0.088606	0.335740	-0.191405	-0.126540	-0.913581	6.547136	-25.766005	-141.142391
34339		4.302629	0.940051	8.825857	-0.057726	0.045781	0.050712	-0.010769	-0.008877	0.003600	-0.861572	0.305908	-0.854736	0.043022	0.009406	0.088260	0.335775	-0.191471	-0.126477	-0.913563	6.536038	-25.771138	-141.135552
34340		4.304288	1.015904	8.815489	-0.010087	-0.015788	0.049942	-0.005688	-0.006207	-0.005832	-0.850098	0.308350	-0.853516	0.043040	0.010160	0.088156	0.335773	-0.191510	-0.126442	-0.913561	6.530419	-25.774025	-141.134516
34341		4.309640	1.085207	8.873861	0.048697	-0.049999	0.111586	-0.010340	-0.004282	0.004228	-0.858398	0.293945	-0.848633	0.043094	0.010858	0.088739	0.335814	-0.191555	-0.126372	-0.913546	6.519246	-25.776582	-141.126942
34342		4.307296	1.010778	8.849500	-0.003767	-0.003174	0.081154	-0.012777	-0.008593	0.002862	-0.853027	0.312012	-0.858887	0.043069	0.010114	0.088496	0.335844	-0.191622	-0.126300	-0.913531	6.507249	-25.781391	-141.120581
34343		4.250921	1.000384	8.834282	0.026770	0.029930	0.041957	-0.016059	-0.009288	0.002045	-0.852783	0.303467	-0.852295	0.042505	0.010011	0.088344	0.335867	-0.191698	-0.126215	-0.913518	6.493557	-25.786652	-141.114749
34344		4.352852	1.049484	8.815769	-0.014880	-0.071956	0.074735	-0.019260	-0.011135	0.003672	-0.850830	0.305176	-0.856934	0.043523	0.010504	0.088159	0.335892	-0.191787	-0.126117	-0.913503	6.477700	-25.792958	-141.108056
34345		4.218636	0.928856	8.846495	0.010000	0.103345	0.031567	-0.019800	-0.013376	0.004247	-0.855957	0.300293	-0.855225	0.042180	0.009298	0.088467	0.335919	-0.191890	-0.126020	-0.913486	6.461384	-25.800686	-141.101118
34346		4.353211	1.049026	8.780757	-0.019673	-0.086685	0.043513	-0.017168	-0.012571	0.006848	-0.851563	0.305664	-0.870117	0.043526	0.010499	0.087809	0.335960	-0.191985	-0.125930	-0.913463	6.445892	-25.808011	-141.092514
34347		4.306323	0.978385	8.846036	-0.013588	0.014479	0.074355	-0.020480	-0.012066	0.009682	-0.849609	0.300293	-0.854004	0.043057	0.009795	0.088462	0.336011	-0.192086	-0.125823	-0.913438	6.427645	-25.815338	-141.082042
34348		4.263031	1.014192	8.834463	0.040377	0.006991	0.048756	-0.024782	-0.019639	0.002712	-0.850586	0.298828	-0.846436	0.042621	0.010153	0.088348	0.336022	-0.192223	-0.125715	-0.913420	6.409144	-25.826417	-141.076551
34349		4.305319	0.947089	8.877333	-0.019003	0.047381	0.098779	-0.018785	-0.019294	0.008569	-0.861084	0.300049	-0.862305	0.043044	0.009481	0.088777	0.336065	-0.192353	-0.125628	-0.913388	6.392393	-25.837783	-141.067290
34350		4.326852	0.969099	8.825866	-0.030123	-0.000678	0.064347	-0.025626	-0.016021	0.003260	-0.856689	0.311035	-0.851563	0.043261	0.009703	0.088261	0.336080	-0.192476	-0.125509	-0.913373	6.373140	-25.846834	-141.061188
34351		4.352595	0.984041	8.842941	-0.030094	-0.021410	0.092345	-0.028435	-0.024877	0.007343	-0.863281	0.301758	-0.851074	0.043515	0.009855	0.088433	0.336105	-0.192647	-0.125388	-0.913345	6.351360	-25.861295	-141.053085
34352		4.302682	0.919036	8.839211	-0.035183	0.052420	0.060781	-0.031938	-0.020866	0.008944	-0.856201	0.299072	-0.853760	0.043017	0.009206	0.088395	0.336136	-0.192806	-0.125244	-0.913319	6.327063	-25.873460	-141.043717
34353		4.345376	1.007366	8.827743	-0.005495	-0.042875	0.077927	-0.029733	-0.024654	0.010903	-0.854248	0.299805	-0.852295	0.043442	0.010089	0.088281	0.336176	-0.192981	-0.125114	-0.913286	6.303540	-25.888013	-141.033333
34354		4.334112	1.003392	8.879797	0.018101	-0.016192	0.119156	-0.032278	-0.026607	0.010735	-0.864990	0.303467	-0.854248	0.043329	0.010051	0.088802	0.336212	-0.193168	-0.124975	-0.913252	6.278718	-25.903554	-141.023218
34355		4.286745	0.968199	8.809288	0.013630	0.010038	0.031949	-0.034226	-0.026279	0.016086	-0.860352	0.305176	-0.854004	0.042855	0.009701	0.088097	0.336270	-0.193360	-0.124822	-0.913211	6.251224	-25.919347	-141.009646
34356		4.378777	1.011213	8.877234	0.000857	-0.051031	0.137133	-0.033435	-0.029928	0.009425	-0.855713	0.303711	-0.857178	0.043774	0.010129	0.088777	0.336296	-0.193563	-0.124685	-0.913177	6.226189	-25.936690	-141.000572
34357		4.323367	0.922000	8.871200	-0.015983	0.043108	0.098804	-0.039203	-0.032531	0.014529	-0.852051	0.309814	-0.845215	0.043219	0.009241	0.088717	0.336339	-0.193792	-0.124522	-0.913135	6.196448	-25.955936	-140.988395
34358		4.344169	0.911904	8.885821	-0.027708	0.042657	0.120016	-0.039088	-0.034876	0.013303	-0.858643	0.311279	-0.851318	0.043426	0.009139	0.088864	0.336374	-0.194030	-0.124364	-0.913093	6.167232	-25.976328	-140.977182
34359		4.296359	0.922697	8.871819	0.014521	0.055517	0.087613	-0.035152	-0.034290	0.012324	-0.861572	0.304932	-0.853516	0.042948	0.009245	0.088724	0.336410	-0.194258	-0.124223	-0.913050	6.140454	-25.996430	-140.966494
34360		4.364206	0.905378	8.830516	-0.050176	0.014369	0.078788	-0.033655	-0.038006	0.009965	-0.850098	0.305176	-0.852783	0.043625	0.009071	0.088312	0.336433	-0.194499	-0.124099	-0.913007	6.115354	-26.018392	-140.957585
34361		4.320846	0.909782	8.884933	0.003182	0.054531	0.108828	-0.031642	-0.038290	0.010690	-0.862793	0.299316	-0.852783	0.043191	0.009114	0.088856	0.336462	-0.194739	-0.123983	-0.912961	6.091146	-26.040663	-140.948187
34362		4.349348	0.878073	8.844305	-0.043518	0.047158	0.082031	-0.027598	-0.040054	0.008494	-0.849854	0.298340	-0.857422	0.043475	0.008795	0.088451	0.336483	-0.194978	-0.123890	-0.912915	6.069970	-26.063695	-140.940325
34363		4.348441	0.882413	8.774358	-0.054268	0.019335	0.019587	-0.023971	-0.033617	0.007517	-0.850098	0.309082	-0.844971	0.043469	0.008836	0.087750	0.336507	-0.195181	-0.123805	-0.912874	6.050886	-26.083105	-140.932604
34364		4.353866	0.876445	8.807256	-0.048334	0.032440	0.050815	-0.026297	-0.040260	0.004906	-0.855713	0.317871	-0.850342	0.043521	0.008777	0.088080	0.336514	-0.195417	-0.123722	-0.912833	6.031449	-26.106033	-140.927012
34365		4.339530	0.880459	8.790126	-0.035861	0.031831	0.029606	-0.016624	-0.035880	0.002476	-0.852295	0.306152	-0.859375	0.043379	0.008812	0.087908	0.336521	-0.195615	-0.123679	-0.912794	6.018030	-26.126427	-140.922614
34366		4.362581	0.869452	8.838637	-0.042013	0.045005	0.082048	-0.015329	-0.036091	-0.001102	-0.864258	0.311035	-0.851807	0.043610	0.008701	0.088394	0.336513	-0.195809	-0.123645	-0.912759	6.006423	-26.146617	-140.920541
34367		4.363485	0.871824	8.802954	-0.047196	0.030829	0.050826	-0.010144	-0.033345	0.001662	-0.851563	0.310547	-0.845215	0.043620	0.008723	0.088036	0.336524	-0.195985	-0.123628	-0.912720	5.996865	-26.165515	-140.916488
34368		4.368606	0.867480	8.835855	-0.041260	0.043927	0.082056	-0.008850	-0.033555	-0.001915	-0.858154	0.309082	-0.853027	0.043671	0.008678	0.088365	0.336520	-0.196156	-0.123620	-0.912686	5.989119	-26.184211	-140.914754
34369		4.415148	0.908670	8.801228	-0.052653	-0.024341	0.075561	-0.009584	-0.032289	-0.002568	-0.863037	0.310547	-0.846436	0.044137	0.009090	0.088019	0.336513	-0.196323	-0.123608	-0.912654	5.981028	-26.202253	-140.913308
34370		4.362910	0.895629	8.819521	-0.016659	0.022488	0.067611	-0.008846	-0.033552	-0.001924	-0.856201	0.311523	-0.848633	0.043614	0.008960	0.088202	0.336509	-0.196494	-0.123600	-0.912620	5.973283	-26.220946	-140.911574
34371		4.366005	0.895050	8.818048	-0.016271	0.021952	0.067613	-0.007355	-0.037266	-0.004289	-0.866455	0.308838	-0.852295	0.043644	0.008953	0.088188	0.336494	-0.196679	-0.123608	-0.912584	5.967094	-26.241724	-140.911548
34372		4.326647	0.929118	8.840249	0.043250	0.028199	0.073185	-0.009378	-0.035787	-0.001369	-0.865967	0.302246	-0.848145	0.043251	0.009295	0.088410	0.336490	-0.196861	-0.123601	-0.912547	5.958950	-26.261723	-140.909604
34373		4.369520	0.943284	8.837653	0.025675	-0.006141	0.091145	-0.008531	-0.039395	-0.001950	-0.857422	0.302490	-0.847412	0.043678	0.009436	0.088385	0.336483	-0.197060	-0.123605	-0.912507	5.951492	-26.283852	-140.908232
34374		4.410263	0.960888	8.800704	0.002512	-0.054118	0.077873	-0.012548	-0.038814	-0.003417	-0.867920	0.315674	-0.845703	0.044086	0.009614	0.088015	0.336465	-0.197260	-0.123591	-0.912472	5.942193	-26.305454	-140.907783
34375		4.342925	0.950020	8.837631	0.056165	0.006302	0.079939	-0.012667	-0.035280	0.001459	-0.852539	0.303955	-0.851074	0.043414	0.009506	0.088383	0.336472	-0.197448	-0.123566	-0.912432	5.931277	-26.325439	-140.903954
34376		4.406538	0.908078	8.827912	-0.014697	-0.000981	0.095592	-0.014459	-0.039678	-0.001725	-0.861084	0.308838	-0.855469	0.044048	0.009087	0.088287	0.336460	-0.197657	-0.123543	-0.912395	5.920427	-26.347633	-140.902477
34377		4.376783	0.915376	8.829402	0.015420	0.012002	0.084388	-0.016371	-0.040544	-0.000028	-0.865723	0.312744	-0.853027	0.043750	0.009161	0.088302	0.336453	-0.197875	-0.123510	-0.912354	5.907958	-26.370526	-140.899930
34378		4.358693	0.892990	8.844411	0.021662	0.045329	0.087652	-0.016260	-0.042885	-0.001261	-0.862305	0.307617	-0.846680	0.043568	0.008937	0.088453	0.336438	-0.198101	-0.123484	-0.912314	5.896032	-26.394575	-140.898358
34379		4.384406	0.912706	8.825896	0.016178	0.010925	0.084388	-0.013401	-0.046781	-0.001121	-0.859375	0.303711	-0.842529	0.043823	0.009133	0.088269	0.336425	-0.198342	-0.123477	-0.912267	5.885748	-26.420958	-140.896909
34380		4.388515	0.911366	8.823992	0.016547	0.010385	0.084388	-0.016691	-0.046277	0.001717	-0.858887	0.316162	-0.848877	0.043865	0.009121	0.088249	0.336422	-0.198586	-0.123452	-0.912219	5.872824	-26.447115	-140.893652
34381		4.410661	0.903526	8.837557	0.004862	0.009891	0.105608	-0.021037	-0.051435	0.002017	-0.858643	0.302002	-0.842041	0.044084	0.009045	0.088386	0.336413	-0.198862	-0.123415	-0.912167	5.857403	-26.476332	-140.890494
34382		4.375897	0.886765	8.836539	0.023171	0.043173	0.087658	-0.018077	-0.056488	0.004580	-0.864990	0.305176	-0.851318	0.043734	0.008877	0.088377	0.336415	-0.199158	-0.123397	-0.912104	5.843159	-26.508474	-140.886064
34383		4.363303	0.890864	8.818626	0.035630	0.042595	0.066439	-0.023791	-0.061456	0.002359	-0.864746	0.316650	-0.845947	0.043606	0.008920	0.088199	0.336399	-0.199484	-0.123364	-0.912043	5.826345	-26.543420	-140.883328
34384		4.375243	0.912237	8.818062	0.047782	0.021764	0.073181	-0.022198	-0.066320	0.002397	-0.860596	0.310791	-0.845459	0.043723	0.009133	0.088194	0.336381	-0.199830	-0.123346	-0.911977	5.810632	-26.581038	-140.880905
34385		4.380318	0.833692	8.824668	0.000739	0.082135	0.074185	-0.019965	-0.071288	0.000643	-0.853271	0.311035	-0.852783	0.043772	0.008346	0.088261	0.336354	-0.200194	-0.123349	-0.911906	5.796767	-26.621487	-140.879866
34386		4.403101	0.905910	8.793492	0.030891	0.007109	0.063165	-0.022499	-0.073226	0.000455	-0.865967	0.311035	-0.842285	0.043999	0.009069	0.087950	0.336322	-0.200570	-0.123343	-0.911836	5.781624	-26.662928	-140.879104
34387		4.385773	0.886450	8.772795	0.031558	0.026828	0.035206	-0.023977	-0.082270	0.000869	-0.859863	0.310059	-0.843506	0.043822	0.008875	0.087745	0.336286	-0.200991	-0.123346	-0.911757	5.765704	-26.709646	-140.878610
34388		4.404479	0.854652	8.782879	0.008066	0.046608	0.049695	-0.025446	-0.079730	-0.000438	-0.863525	0.307373	-0.850342	0.044010	0.008558	0.087845	0.336243	-0.201402	-0.123338	-0.911683	5.749304	-26.754744	-140.878811
34389		4.420666	0.872424	8.815659	0.025823	0.039387	0.087667	-0.024375	-0.088005	-0.003530	-0.862549	0.307861	-0.844482	0.044168	0.008734	0.088175	0.336182	-0.201847	-0.123353	-0.911605	5.734572	-26.804479	-140.881468
34390		4.458971	0.865561	8.774365	-0.009100	0.011684	0.067640	-0.023197	-0.085858	-0.005904	-0.863525	0.315186	-0.850586	0.044552	0.008664	0.087762	0.336113	-0.202278	-0.123372	-0.911532	5.721203	-26.852757	-140.885527
34391		4.511232	0.825446	8.780724	-0.062282	0.017900	0.093345	-0.025303	-0.083215	-0.005418	-0.863525	0.317871	-0.842285	0.045076	0.008264	0.087825	0.336046	-0.202701	-0.123376	-0.911462	5.706339	-26.899653	-140.889057
34392		4.524830	0.801268	8.722077	-0.096934	0.010453	0.045367	-0.023386	-0.082333	-0.007152	-0.867676	0.310547	-0.840820	0.045213	0.008021	0.087238	0.335973	-0.203116	-0.123389	-0.911395	5.693116	-26.945853	-140.893667
34393		4.529000	0.849221	8.741561	-0.055305	-0.017090	0.068839	-0.020416	-0.076980	-0.009989	-0.866699	0.314209	-0.839844	0.045257	0.008499	0.087432	0.335893	-0.203500	-0.123410	-0.911336	5.682191	-26.988939	-140.899703
34394		4.571539	0.835677	8.768956	-0.079060	-0.017601	0.111291	-0.019135	-0.075997	-0.009929	-0.867432	0.318604	-0.843506	0.045682	0.008363	0.087706	0.335815	-0.203876	-0.123435	-0.911277	5.672027	-27.031370	-140.905669
34395		4.548154	0.870196	8.737155	-0.042741	-0.038476	0.075564	-0.018810	-0.069077	-0.008020	-0.869385	0.312988	-0.840576	0.045452	0.008708	0.087386	0.335751	-0.204223	-0.123447	-0.911222	5.661222	-27.070064	-140.909928
34396		4.544287	0.818306	8.764332	-0.060392	0.015146	0.093362	-0.016787	-0.069360	-0.007322	-0.865234	0.313232	-0.840576	0.045413	0.008189	0.087658	0.335692	-0.204567	-0.123469	-0.911163	5.651452	-27.108861	-140.913791
34397		4.553584	0.844273	8.729260	-0.053780	-0.019288	0.068843	-0.017734	-0.063415	-0.005489	-0.869385	0.307861	-0.843750	0.045508	0.008449	0.087306	0.335644	-0.204887	-0.123474	-0.911108	5.640360	-27.144472	-140.916058
34398		4.538509	0.898601	8.734145	-0.000096	-0.046841	0.071068	-0.017622	-0.065745	-0.006748	-0.863281	0.310547	-0.835938	0.045357	0.008992	0.087356	0.335588	-0.205216	-0.123486	-0.911053	5.629838	-27.181240	-140.919311
34399		4.558528	0.864031	8.778889	-0.017985	-0.013497	0.116820	-0.017195	-0.061166	-0.006069	-0.868652	0.311035	-0.843506	0.045559	0.008646	0.087802	0.335539	-0.205525	-0.123490	-0.911001	5.619157	-27.215538	-140.921796
34400		4.506467	0.853811	8.762553	0.012338	0.019803	0.077663	-0.020881	-0.065237	-0.003913	-0.867676	0.313232	-0.840088	0.045036	0.008546	0.087639	0.335494	-0.205859	-0.123483	-0.910943	5.605918	-27.252177	-140.923184
34401		4.551864	0.866937	8.758035	-0.005161	-0.014607	0.095591	-0.023935	-0.069408	-0.003552	-0.872314	0.313965	-0.836182	0.045488	0.008679	0.087595	0.335444	-0.206219	-0.123468	-0.910882	5.590867	-27.291316	-140.924553
34402		4.518527	0.849924	8.756718	0.013098	0.018707	0.077664	-0.026347	-0.072505	-0.001317	-0.870850	0.314209	-0.834717	0.045154	0.008510	0.087582	0.335400	-0.206596	-0.123445	-0.910816	5.573933	-27.332245	-140.924710
34403		4.503447	0.826479	8.770600	0.019316	0.052030	0.080969	-0.028233	-0.073366	0.000369	-0.876465	0.309570	-0.832764	0.045002	0.008277	0.087721	0.335361	-0.206983	-0.123413	-0.910747	5.555367	-27.373861	-140.923787
34404		4.522789	0.871029	8.771423	0.043312	0.010910	0.094389	-0.030568	-0.081138	-0.005991	-0.867188	0.318604	-0.840332	0.045193	0.008722	0.087731	0.335286	-0.207405	-0.123390	-0.910682	5.537631	-27.419454	-140.927456
34405		4.493227	0.803850	8.746582	0.020312	0.071216	0.053035	-0.035892	-0.088400	0.002701	-0.866455	0.316406	-0.837158	0.044893	0.008055	0.087484	0.335241	-0.207874	-0.123346	-0.910597	5.514401	-27.469769	-140.925935
34406		4.573908	0.807284	8.737118	-0.026890	0.023203	0.082175	-0.033170	-0.093450	-0.007011	-0.869385	0.322266	-0.840576	0.045699	0.008086	0.087391	0.335151	-0.208355	-0.123333	-0.910522	5.495819	-27.522330	-140.930990
34407		4.500672	0.824105	8.759804	0.050521	0.063421	0.069761	-0.034818	-0.097802	-0.004171	-0.869385	0.312988	-0.829102	0.044964	0.008255	0.087619	0.335069	-0.208861	-0.123317	-0.910439	5.475495	-27.577628	-140.934425
34408		4.512730	0.848421	8.723408	0.057121	0.029006	0.045218	-0.037753	-0.104291	-0.005095	-0.872314	0.312256	-0.838135	0.045082	0.008500	0.087256	0.334976	-0.209400	-0.123299	-0.910351	5.454016	-27.636480	-140.938877
34409		4.546659	0.862413	8.735976	0.057280	0.008167	0.073151	-0.043093	-0.113881	-0.003778	-0.873047	0.315918	-0.828613	0.045417	0.008642	0.087384	0.334878	-0.209994	-0.123271	-0.910255	5.429279	-27.700972	-140.943009
34410		4.577471	0.803233	8.722925	0.004319	0.034583	0.070967	-0.044002	-0.120653	-0.004014	-0.874512	0.313477	-0.833252	0.045722	0.008051	0.087255	0.334773	-0.210618	-0.123251	-0.910152	5.404346	-27.769218	-140.947714
34411		4.576246	0.828991	8.704672	0.028581	0.013759	0.056433	-0.049666	-0.124408	-0.002621	-0.878418	0.316650	-0.823730	0.045708	0.008311	0.087073	0.334666	-0.211271	-0.123210	-0.910046	5.375773	-27.839779	-140.951678
34412		4.617298	0.788884	8.727330	-0.006971	0.033460	0.092205	-0.054248	-0.128353	-0.010918	-0.881836	0.327637	-0.827637	0.046117	0.007910	0.087301	0.334513	-0.211943	-0.123164	-0.909951	5.347250	-27.912052	-140.961236
34413		4.625386	0.788470	8.687548	-0.012170	0.019329	0.060956	-0.055897	-0.133852	-0.011805	-0.873535	0.318115	-0.837402	0.046196	0.007906	0.086904	0.334352	-0.212643	-0.123120	-0.909853	5.318125	-27.987515	-140.971624
34414		4.630605	0.760807	8.679718	-0.023627	0.039053	0.054265	-0.054631	-0.134012	-0.015477	-0.877930	0.315674	-0.825928	0.046248	0.007628	0.086826	0.334174	-0.213339	-0.123085	-0.909760	5.290916	-28.062783	-140.984399
34415		4.721302	0.786438	8.669495	-0.058944	-0.029288	0.090089	-0.057471	-0.138154	-0.009103	-0.873779	0.312012	-0.827393	0.047153	0.007887	0.086725	0.334021	-0.214063	-0.123038	-0.909653	5.260180	-28.140850	-140.993227
34416		4.663163	0.802906	8.637999	-0.004800	-0.016197	0.036398	-0.055109	-0.131533	-0.006478	-0.885742	0.321533	-0.828125	0.046575	0.008051	0.086408	0.333885	-0.214753	-0.122988	-0.909547	5.229874	-28.215187	-140.999960
34417		4.692801	0.792154	8.647191	-0.016453	-0.016777	0.057634	-0.054284	-0.131608	-0.002258	-0.877197	0.322021	-0.823242	0.046871	0.007944	0.086501	0.333769	-0.215446	-0.122937	-0.909433	5.198663	-28.289885	-141.003884
34418		4.744210	0.879038	8.630545	0.013618	-0.112053	0.074364	-0.055435	-0.130233	0.004946	-0.884766	0.324219	-0.825195	0.047386	0.008815	0.086334	0.333686	-0.216138	-0.122871	-0.909308	5.164596	-28.364078	-141.003052
34419		4.713474	0.830978	8.659144	0.025615	-0.044867	0.081020	-0.063373	-0.134771	0.015928	-0.886963	0.318848	-0.815918	0.047076	0.008341	0.086621	0.333641	-0.216871	-0.122764	-0.909164	5.122617	-28.441520	-140.995263
34420		4.696113	0.829054	8.691691	0.061257	-0.018244	0.101050	-0.061093	-0.143107	0.029106	-0.882324	0.322266	-0.812012	0.046898	0.008324	0.086948	0.333652	-0.217646	-0.122667	-0.908988	5.078123	-28.524290	-140.979368
34421		4.670375	0.883632	8.679222	0.127041	-0.045709	0.081950	-0.067391	-0.152485	0.040005	-0.886230	0.323486	-0.820801	0.046636	0.008875	0.086825	0.333701	-0.218481	-0.122545	-0.908786	5.026756	-28.613046	-140.956803
34422		4.732097	0.787873	8.656733	0.032553	-0.012681	0.084346	-0.072318	-0.172419	0.052459	-0.884033	0.326904	-0.813477	0.047244	0.007922	0.086605	0.333788	-0.219421	-0.122421	-0.908544	4.969205	-28.713687	-140.927190
34423		4.720029	0.734303	8.664275	0.026897	0.040909	0.081004	-0.075548	-0.173030	0.051539	-0.887451	0.324219	-0.811035	0.047123	0.007388	0.086681	0.333867	-0.220370	-0.122283	-0.908304	4.909925	-28.814697	-140.898023
34424		4.695340	0.835830	8.674264	0.133976	-0.013511	0.085268	-0.082205	-0.186929	0.061595	-0.890137	0.313721	-0.815674	0.046870	0.008408	0.086783	0.333975	-0.221398	-0.122128	-0.908035	4.843986	-28.924011	-140.862960
34425		4.786834	0.782380	8.634856	0.045554	-0.034652	0.091015	-0.090609	-0.194798	0.069295	-0.889404	0.332764	-0.822998	0.047781	0.007879	0.086392	0.334104	-0.222481	-0.121938	-0.907749	4.770790	-29.038242	-140.823082
34426		4.835227	0.717446	8.563503	-0.030654	-0.035448	0.047612	-0.092076	-0.197937	0.075611	-0.897461	0.327393	-0.806396	0.048265	0.007232	0.085680	0.334258	-0.223583	-0.121740	-0.907448	4.694719	-29.154427	-140.779063
34427		4.855063	0.733533	8.522735	-0.024011	-0.069848	0.023025	-0.092088	-0.195543	0.076705	-0.890381	0.330322	-0.810791	0.048464	0.007393	0.085271	0.334417	-0.224676	-0.121537	-0.907146	4.617974	-29.269335	-140.733935
34428		4.914978	0.655524	8.553128	-0.083435	-0.029994	0.073405	-0.095224	-0.194981	0.079425	-0.888916	0.331787	-0.813965	0.049064	0.006615	0.085576	0.334585	-0.225772	-0.121315	-0.906842	4.538420	-29.383902	-140.686804
34429		4.838621	0.616285	8.569566	-0.029777	0.050868	0.047638	-0.093289	-0.194034	0.077519	-0.892822	0.330566	-0.821533	0.048301	0.006222	0.085740	0.334747	-0.226859	-0.121103	-0.906539	4.460303	-29.497878	-140.640603
34430		4.874206	0.598143	8.575201	-0.041440	0.050246	0.068884	-0.092118	-0.191825	0.075027	-0.896973	0.329346	-0.803711	0.048658	0.006039	0.085796	0.334900	-0.227932	-0.120894	-0.906241	4.383482	-29.610336	-140.595735
34431		4.938250	0.575895	8.541650	-0.088342	0.022428	0.070096	-0.091298	-0.187270	0.067770	-0.898193	0.321777	-0.802002	0.049301	0.005815	0.085460	0.335023	-0.228980	-0.120690	-0.905959	4.309128	-29.719917	-140.555153
34432		4.928134	0.597026	8.540424	-0.046455	0.015219	0.065539	-0.090817	-0.186115	0.063410	-0.901367	0.326660	-0.801758	0.049200	0.006025	0.085447	0.335127	-0.230017	-0.120491	-0.905684	4.236344	-29.828514	-140.517217
34433		4.887270	0.655161	8.512909	0.031367	-0.012154	0.025153	-0.085528	-0.186843	0.060989	-0.901855	0.339355	-0.795654	0.048791	0.006603	0.085172	0.335225	-0.231048	-0.120320	-0.905408	4.167174	-29.937478	-140.480675
34434		4.955091	0.629292	8.513219	-0.009948	-0.026437	0.057621	-0.088734	-0.183982	0.065053	-0.895508	0.341309	-0.794922	0.049471	0.006347	0.085175	0.335340	-0.232073	-0.120125	-0.905129	4.094670	-30.044842	-140.441160
34435		4.964340	0.595310	8.502531	-0.021409	-0.006737	0.050961	-0.082927	-0.179058	0.067139	-0.900879	0.332275	-0.794922	0.049565	0.006005	0.085067	0.335473	-0.233068	-0.119945	-0.904848	4.024455	-30.149526	-140.399798
34436		5.006008	0.552858	8.486454	-0.062549	-0.000700	0.055531	-0.080599	-0.173605	0.066098	-0.899902	0.341309	-0.792236	0.049985	0.005579	0.084906	0.335607	-0.234032	-0.119768	-0.904573	3.955703	-30.250917	-140.358724
34437		4.973913	0.553894	8.503661	-0.014871	0.025978	0.054325	-0.076170	-0.170778	0.064423	-0.907715	0.346680	-0.790527	0.049665	0.005587	0.085077	0.335740	-0.234976	-0.119607	-0.904300	3.889761	-30.350677	-140.318410
34438		4.967799	0.523175	8.513240	-0.008730	0.059270	0.057691	-0.073963	-0.166462	0.059718	-0.906738	0.344482	-0.790771	0.049606	0.005278	0.085172	0.335857	-0.235892	-0.119455	-0.904038	3.826488	-30.447656	-140.280892
34439		4.961736	0.492882	8.522779	-0.002574	0.092564	0.061061	-0.068252	-0.171876	0.060738	-0.906982	0.339600	-0.788574	0.049543	0.004973	0.085269	0.335981	-0.236825	-0.119336	-0.903764	3.766055	-30.547826	-140.242733
34440		4.976657	0.484661	8.514547	-0.002202	0.091980	0.061067	-0.059444	-0.172024	0.051223	-0.901367	0.349609	-0.791504	0.049692	0.004885	0.085187	0.336073	-0.237737	-0.119269	-0.903499	3.713826	-30.647601	-140.210790
34441		5.072540	0.534224	8.467364	-0.031122	-0.010298	0.072210	-0.055530	-0.171428	0.050046	-0.895508	0.343506	-0.793945	0.050651	0.005378	0.084716	0.336164	-0.238639	-0.119220	-0.903234	3.664034	-30.747057	-140.179424
34442		5.075005	0.557188	8.447348	-0.006855	-0.031090	0.057610	-0.054483	-0.166949	0.048969	-0.908691	0.350830	-0.783203	0.050678	0.005607	0.084514	0.336253	-0.239518	-0.119169	-0.902975	3.615073	-30.843799	-140.148498
34443		5.075394	0.552007	8.459124	0.011169	-0.018074	0.067628	-0.059065	-0.166179	0.049332	-0.912598	0.344482	-0.777588	0.050682	0.005558	0.084632	0.336339	-0.240402	-0.119095	-0.902718	3.563160	-30.940181	-140.117124
34444		5.083100	0.521145	8.448662	-0.000321	0.001613	0.060982	-0.058751	-0.169613	0.050245	-0.910889	0.341553	-0.787354	0.050758	0.005249	0.084528	0.336427	-0.241300	-0.119028	-0.902454	3.511146	-31.038445	-140.085191
34445		5.097817	0.513408	8.440264	0.000076	0.001026	0.060982	-0.061592	-0.172553	0.054095	-0.910400	0.353760	-0.779785	0.050904	0.005174	0.084445	0.336528	-0.242220	-0.118947	-0.902181	3.456045	-31.138589	-140.050624
34446		5.109341	0.449311	8.494824	-0.012079	0.068033	0.110240	-0.060007	-0.175036	0.055083	-0.918945	0.337158	-0.777832	0.051018	0.004533	0.084992	0.336632	-0.243147	-0.118877	-0.901902	3.401506	-31.240068	-140.015390
34447		5.114502	0.450889	8.418318	-0.022894	0.040395	0.047704	-0.064329	-0.183445	0.050110	-0.916260	0.347168	-0.780762	0.051067	0.004549	0.084229	0.336704	-0.244117	-0.118808	-0.901622	3.346183	-31.346249	-139.983621
34448		5.181795	0.475830	8.441184	-0.022807	-0.000906	0.103484	-0.064980	-0.184418	0.048071	-0.910889	0.351318	-0.777344	0.051739	0.004798	0.084458	0.336764	-0.245090	-0.118739	-0.901344	3.291162	-31.452804	-139.953142
34449		5.192139	0.472886	8.398237	-0.028014	-0.015020	0.072214	-0.061344	-0.180349	0.045847	-0.921875	0.358398	-0.778564	0.051845	0.004767	0.084028	0.336821	-0.246039	-0.118683	-0.901072	3.238720	-31.557023	-139.923806
34450		5.214427	0.488439	8.391378	-0.015757	-0.035889	0.078848	-0.064930	-0.182014	0.049123	-0.916260	0.354980	-0.779053	0.052067	0.004924	0.083960	0.336888	-0.247001	-0.118609	-0.900794	3.183055	-31.662187	-139.892227
34451		5.217619	0.461760	8.346210	-0.032841	-0.029727	0.040942	-0.067304	-0.180441	0.053829	-0.920410	0.356689	-0.774658	0.052100	0.004660	0.083508	0.336973	-0.247964	-0.118516	-0.900509	3.124127	-31.766663	-139.857221
34452		5.178518	0.461875	8.417670	0.038032	0.024094	0.081022	-0.062793	-0.182230	0.049473	-0.927002	0.357422	-0.767578	0.051707	0.004658	0.084222	0.337042	-0.248924	-0.118452	-0.900227	3.069301	-31.871908	-139.825096
34453		5.160445	0.434305	8.446368	0.061796	0.070981	0.094434	-0.067240	-0.191778	0.062498	-0.916992	0.356689	-0.773193	0.051522	0.004388	0.084512	0.337159	-0.249942	-0.118367	-0.899912	3.007249	-31.983073	-139.784324
34454		5.124364	0.413421	8.461044	0.097551	0.117959	0.086596	-0.066858	-0.205461	0.054244	-0.921875	0.351074	-0.769531	0.051156	0.004176	0.084662	0.337230	-0.251015	-0.118317	-0.899593	2.948534	-32.101695	-139.749459
34455		5.175406	0.395571	8.443492	0.068310	0.103666	0.097833	-0.073265	-0.224929	0.057478	-0.918457	0.358887	-0.766846	0.051658	0.004002	0.084492	0.337297	-0.252189	-0.118267	-0.899247	2.885095	-32.231605	-139.712837
34456		5.143631	0.402286	8.425123	0.110333	0.116867	0.065348	-0.079340	-0.243274	0.056517	-0.924072	0.360596	-0.763916	0.051333	0.004071	0.084312	0.337339	-0.253454	-0.118222	-0.898881	2.818736	-32.371865	-139.677301
34457		5.158240	0.369547	8.410073	0.098842	0.136543	0.058728	-0.075940	-0.264265	0.056763	-0.921875	0.351807	-0.760986	0.051470	0.003742	0.084167	0.337374	-0.254808	-0.118226	-0.898484	2.754319	-32.524191	-139.641999
34458		5.155003	0.364462	8.436760	0.134460	0.163158	0.078775	-0.073205	-0.288541	0.053685	-0.927490	0.363525	-0.764404	0.051427	0.003689	0.084441	0.337384	-0.256264	-0.118288	-0.898058	2.692875	-32.690214	-139.609356
34459		5.162409	0.411103	8.432984	0.188259	0.135727	0.080782	-0.074987	-0.321193	0.053457	-0.932617	0.349609	-0.755371	0.051487	0.004156	0.084411	0.337370	-0.257869	-0.118396	-0.897590	2.630739	-32.874963	-139.577581
34460		5.144430	0.384157	8.474896	0.229609	0.196221	0.104230	-0.084740	-0.353670	0.060781	-0.927002	0.368408	-0.759033	0.051293	0.003893	0.084838	0.337356	-0.259639	-0.118507	-0.897070	2.560654	-33.078385	-139.541533
34461		5.164697	0.423064	8.501187	0.289023	0.182294	0.137506	-0.108780	-0.405432	0.071102	-0.944336	0.363037	-0.755371	0.051473	0.004295	0.085114	0.337325	-0.261687	-0.118582	-0.896476	2.473356	-33.311720	-139.499516
34462		5.163200	0.443613	8.509742	0.348541	0.188747	0.142906	-0.122810	-0.455301	0.083303	-0.934814	0.366455	-0.749756	0.051436	0.004510	0.085212	0.337300	-0.263988	-0.118662	-0.895801	2.373816	-33.573775	-139.450045
34463		5.219969	0.493433	8.545977	0.407848	0.154440	0.204040	-0.159514	-0.519565	0.094938	-0.935547	0.360840	-0.735352	0.051975	0.005027	0.085591	0.337237	-0.266644	-0.118670	-0.895036	2.249080	-33.872861	-139.393532
34464		5.177669	0.494917	8.574927	0.502721	0.208492	0.201605	-0.196485	-0.592738	0.118087	-0.941406	0.376953	-0.732178	0.051519	0.005064	0.085897	0.337183	-0.269701	-0.118604	-0.894149	2.094484	-34.214176	-139.321890
34465		5.193460	0.455819	8.548640	0.520844	0.241880	0.183752	-0.233504	-0.683844	0.139177	-0.942139	0.366943	-0.727051	0.051639	0.004694	0.085658	0.337114	-0.273237	-0.118496	-0.893115	1.910335	-34.607943	-139.236249
34466		5.194131	0.464638	8.584782	0.615602	0.275556	0.209183	-0.265285	-0.781204	0.166187	-0.946777	0.368896	-0.729736	0.051602	0.004803	0.086044	0.337060	-0.277273	-0.118372	-0.891907	1.696787	-35.057667	-139.131838
34467		5.216259	0.553077	8.502697	0.711594	0.194342	0.150556	-0.310489	-0.878236	0.192744	-0.952393	0.369873	-0.714844	0.051783	0.005713	0.085246	0.336998	-0.281828	-0.118170	-0.890529	1.445221	-35.563050	-139.007777
34468		5.338557	0.547491	8.505360	0.729393	0.166573	0.216290	-0.342391	-0.981638	0.224845	-0.956055	0.381348	-0.710449	0.052961	0.005681	0.085305	0.336964	-0.286909	-0.117953	-0.888947	1.159992	-36.127581	-138.858973
34469		5.489934	0.542800	8.371395	0.683116	0.070989	0.189383	-0.381306	-1.081206	0.268605	-0.968506	0.381836	-0.705566	0.054438	0.005661	0.083998	0.336999	-0.292515	-0.117663	-0.887143	0.830487	-36.748931	-138.675328
34470		5.676137	0.518800	8.274425	0.630460	-0.011235	0.215013	-0.425527	-1.182757	0.310127	-0.972656	0.398193	-0.693848	0.056262	0.005452	0.083067	0.337081	-0.298659	-0.117284	-0.885113	0.452696	-37.427806	-138.456332
34471		5.856599	0.519263	8.159777	0.601718	-0.113622	0.225973	-0.463200	-1.278229	0.365685	-0.978516	0.392090	-0.682617	0.058033	0.005489	0.081957	0.337281	-0.305307	-0.116810	-0.882828	0.021645	-38.160247	-138.189195
34472		5.897312	0.458031	8.048645	0.626216	-0.093602	0.155559	-0.493087	-1.367801	0.421991	-0.987793	0.407715	-0.662354	0.058411	0.004903	0.080875	0.337613	-0.312418	-0.116263	-0.880281	-0.461525	-38.942195	-137.870314
34473		6.043496	0.285333	7.881247	0.496531	-0.067727	0.110320	-0.511454	-1.438587	0.463922	-0.992676	0.411133	-0.648438	0.059859	0.003195	0.079237	0.338040	-0.319877	-0.115682	-0.877511	-0.986756	-39.762140	-137.507192
34474		6.229437	0.128446	7.642249	0.325899	-0.102953	0.041617	-0.513344	-1.498503	0.502031	-1.009033	0.419189	-0.639893	0.061716	0.001637	0.076882	0.338574	-0.327603	-0.115126	-0.874523	-1.545608	-40.613261	-137.099932
34475		6.465663	0.047938	7.468917	0.214134	-0.192319	0.061858	-0.498820	-1.528657	0.536856	-1.006104	0.424805	-0.621338	0.064081	0.000839	0.075179	0.339243	-0.335433	-0.114619	-0.871356	-2.129450	-41.477829	-136.649006
34476		6.555033	-0.129113	7.204084	0.073291	-0.173018	-0.073778	-0.481781	-1.544590	0.557605	-1.015381	0.432129	-0.600098	0.064994	-0.000935	0.072547	0.339996	-0.343291	-0.114170	-0.868055	-2.731723	-42.347486	-136.163517
34477		6.647950	-0.311575	6.968390	-0.061944	-0.140246	-0.178112	-0.456243	-1.538685	0.574052	-1.017334	0.440918	-0.594238	0.065949	-0.002766	0.070199	0.340844	-0.351064	-0.113785	-0.864657	-3.346420	-43.209343	-135.646176
34478		6.854963	-0.538378	6.730770	-0.292382	-0.135383	-0.196155	-0.436573	-1.505871	0.562692	-1.016602	0.452881	-0.567871	0.068055	-0.005044	0.067833	0.341671	-0.358630	-0.113442	-0.861264	-3.961930	-44.048762	-135.119435
34479		6.990927	-0.604454	6.458104	-0.403306	-0.231182	-0.287590	-0.418212	-1.458522	0.543948	-1.025635	0.444580	-0.566650	0.069452	-0.005719	0.065101	0.342455	-0.365926	-0.113122	-0.857920	-4.573838	-44.857765	-134.590591
34480		7.214785	-0.849718	6.310315	-0.616864	-0.185946	-0.211732	-0.388037	-1.389268	0.521207	-1.036133	0.456787	-0.550781	0.071729	-0.008187	0.063618	0.343214	-0.372838	-0.112848	-0.854670	-5.170885	-45.624341	-134.065586
34481		7.282027	-1.002215	6.132174	-0.716956	-0.146390	-0.268111	-0.350657	-1.293692	0.469343	-1.037842	0.461670	-0.541748	0.072445	-0.009744	0.061808	0.343856	-0.379228	-0.112660	-0.851620	-5.728236	-46.335448	-133.572588
34482		7.501331	-1.222922	6.043494	-0.895349	-0.094395	-0.144315	-0.317357	-1.202314	0.422658	-1.038818	0.464844	-0.526123	0.074674	-0.011975	0.060904	0.344398	-0.385128	-0.112540	-0.848765	-6.248175	-46.994036	-133.110380
34483		7.517508	-1.305264	5.965205	-0.889153	-0.040813	-0.168675	-0.283857	-1.089082	0.374647	-1.049072	0.478271	-0.511963	0.074873	-0.012827	0.060079	0.344851	-0.390447	-0.112456	-0.846158	-6.725037	-47.588491	-132.685382
34484		7.623435	-1.367920	5.875137	-0.930328	-0.055433	-0.136129	-0.247122	-0.962490	0.330663	-1.048584	0.481689	-0.508301	0.075973	-0.013481	0.059134	0.345249	-0.395130	-0.112390	-0.843827	-7.154867	-48.111684	-132.299183
34485		7.716723	-1.400309	5.842495	-0.924339	-0.063117	-0.076958	-0.214321	-0.828518	0.264604	-1.046631	0.473389	-0.503418	0.076943	-0.013838	0.058759	0.345501	-0.399145	-0.112360	-0.841836	-7.521769	-48.561791	-131.975027
34486		7.773151	-1.361378	5.832932	-0.852928	-0.097435	-0.037163	-0.175114	-0.708687	0.217046	-1.049072	0.488770	-0.483154	0.077539	-0.013478	0.058616	0.345693	-0.402554	-0.112381	-0.840129	-7.831499	-48.946188	-131.699075
34487		7.752011	-1.364017	5.814013	-0.793283	-0.070635	-0.059618	-0.140514	-0.590334	0.168179	-1.055664	0.485596	-0.490234	0.077359	-0.013534	0.058378	0.345811	-0.405374	-0.112439	-0.838716	-8.083399	-49.266453	-131.474924
34488		7.782192	-1.342786	5.921820	-0.675296	-0.030414	0.034971	-0.109268	-0.480481	0.129765	-1.058838	0.482666	-0.487061	0.077688	-0.013345	0.059412	0.345890	-0.407654	-0.112515	-0.837567	-8.284662	-49.526921	-131.294814
34489		7.750450	-1.335262	5.921259	-0.615646	-0.003610	0.012512	-0.077639	-0.385310	0.089862	-1.062256	0.481934	-0.480713	0.077396	-0.013295	0.059367	0.345918	-0.409457	-0.112640	-0.836659	-8.434061	-49.736466	-131.159682
34490		7.710145	-1.329396	6.028332	-0.497528	0.077463	0.051429	-0.051957	-0.312344	0.050100	-1.049316	0.488525	-0.478516	0.077010	-0.013259	0.060407	0.345873	-0.410885	-0.112828	-0.835952	-8.535881	-49.907768	-131.067882
34491		7.684831	-1.220205	6.142578	-0.319723	0.077616	0.095314	-0.026913	-0.248280	0.016912	-1.054688	0.485107	-0.474365	0.076773	-0.012187	0.061523	0.345775	-0.411984	-0.113077	-0.835417	-8.595259	-50.045597	-131.013048
34492		7.656518	-1.154575	6.187110	-0.218631	0.077496	0.095986	-0.017175	-0.203225	-0.016029	-1.055420	0.488037	-0.470459	0.076501	-0.011547	0.061950	0.345585	-0.412858	-0.113356	-0.835027	-8.622292	-50.160626	-130.993130
34493		7.631796	-1.117533	6.262625	-0.123801	0.111090	0.121394	-0.000531	-0.174298	-0.035430	-1.050781	0.485840	-0.469238	0.076261	-0.011189	0.062693	0.345365	-0.413572	-0.113695	-0.834718	-8.623851	-50.261010	-130.994064
34494		7.646371	-1.090321	6.275328	-0.093825	0.103702	0.137988	0.018663	-0.160382	-0.056644	-1.058105	0.499512	-0.470703	0.076410	-0.010931	0.062814	0.345103	-0.414181	-0.114134	-0.834465	-8.598317	-50.355252	-131.015834
34495		7.614075	-1.063966	6.251447	-0.069413	0.103319	0.095453	0.037177	-0.158669	-0.067556	-1.056152	0.493896	-0.474121	0.076088	-0.010677	0.062573	0.344835	-0.414746	-0.114669	-0.834222	-8.554558	-50.449525	-131.047546
34496		7.527161	-0.984170	6.211564	0.002827	0.083188	-0.004359	0.042860	-0.163126	-0.075708	-1.051025	0.486328	-0.469238	0.075217	-0.009884	0.062175	0.344542	-0.415313	-0.115253	-0.833980	-8.502060	-50.546922	-131.086233
34497		7.539451	-0.928582	6.273756	0.079988	0.082744	0.038826	0.039819	-0.169093	-0.079241	-1.063965	0.483643	-0.466309	0.075338	-0.009328	0.062799	0.344224	-0.415910	-0.115842	-0.833732	-8.449429	-50.648052	-131.127380
34498		7.564947	-0.874748	6.287506	0.121894	0.055092	0.061948	0.037989	-0.192053	-0.077286	-1.054443	0.481934	-0.462158	0.075586	-0.008789	0.062946	0.343897	-0.416604	-0.116458	-0.833435	-8.401163	-50.761932	-131.164092
34499		7.499472	-0.842137	6.402152	0.252010	0.136352	0.079566	0.027887	-0.225503	-0.071606	-1.062256	0.487549	-0.458252	0.074919	-0.008457	0.064105	0.343552	-0.417460	-0.117078	-0.833062	-8.366001	-50.894352	-131.191388
34500		7.503684	-0.834231	6.431331	0.287682	0.162847	0.099622	0.011784	-0.262166	-0.059006	-1.065186	0.484131	-0.460449	0.074950	-0.008368	0.064411	0.343205	-0.418501	-0.117668	-0.832599	-8.352304	-51.046428	-131.202789
34501		7.443918	-0.774431	6.488914	0.406457	0.196813	0.082445	-0.000747	-0.311749	-0.052152	-1.063721	0.484131	-0.458008	0.074336	-0.007763	0.065005	0.342829	-0.419774	-0.118275	-0.832027	-8.355818	-51.226102	-131.201364
34502		7.539290	-0.754664	6.530682	0.430079	0.182214	0.179406	-0.014498	-0.377779	-0.036652	-1.066650	0.480469	-0.454590	0.075268	-0.007556	0.065450	0.342450	-0.421353	-0.118906	-0.831295	-8.384988	-51.441850	-131.177091
34503		7.496026	-0.754155	6.558038	0.495403	0.242943	0.160397	-0.033173	-0.441596	-0.022118	-1.058838	0.485352	-0.448730	0.074814	-0.007539	0.065747	0.342052	-0.423237	-0.119537	-0.830411	-8.442495	-51.692588	-131.130462
34504		7.533294	-0.756470	6.497753	0.478221	0.228627	0.150363	-0.045638	-0.523332	-0.007351	-1.067383	0.484131	-0.446289	0.075162	-0.007553	0.065176	0.341638	-0.425487	-0.120224	-0.829332	-8.527194	-51.988311	-131.058429
34505		7.581518	-0.792034	6.458965	0.454776	0.247992	0.165105	-0.056551	-0.596457	0.010052	-1.067871	0.489502	-0.432129	0.075622	-0.007898	0.064818	0.341226	-0.428066	-0.120953	-0.828067	-8.640328	-52.323930	-130.958691
34506		7.641051	-0.746150	6.312850	0.420568	0.152514	0.116762	-0.065609	-0.666565	0.026951	-1.075439	0.486328	-0.432129	0.076201	-0.007430	0.063385	0.340819	-0.430956	-0.121727	-0.826620	-8.780904	-52.697619	-130.831310
34507		7.674876	-0.775920	6.257464	0.409088	0.172066	0.110227	-0.085128	-0.728827	0.043526	-1.075928	0.487549	-0.421143	0.076522	-0.007716	0.062857	0.340397	-0.434143	-0.122488	-0.825013	-8.955270	-53.104895	-130.676316
34508		7.811483	-0.770937	6.191956	0.379885	0.116619	0.177082	-0.094074	-0.781028	0.054360	-1.073242	0.492920	-0.415527	0.077874	-0.007659	0.062228	0.339963	-0.437559	-0.123277	-0.823268	-9.152863	-53.540407	-130.499534
