// General information: 
//  MT Manager version: 2019.2.0 
//  XDA version: 2019.2.0 build 3853 rev 94535 built on 2019-09-09
// Device information: 
//  DeviceId: 00B4778E
//  ProductCode: MTW2-3A7G6
//  Firmware Version: 4.6.0
//  Hardware Version: 2.0.0
// Device settings: 
//  Filter Profile: human(46.1)
//  Option Flags: Orientation Smoother Disabled, AHS Disabled, ICC Disabled
// Coordinate system: ENU
PacketCounter	SampleTimeFine	Acc_X	Acc_Y	Acc_Z	FreeAcc_E	FreeAcc_N	FreeAcc_U	Gyr_X	Gyr_Y	Gyr_Z	Mag_X	Mag_Y	Mag_Z	VelInc_X	VelInc_Y	VelInc_Z	Quat_q0	Quat_q1	Quat_q2	Quat_q3	Roll	Pitch	Yaw
33963		5.791631	-0.865516	7.805607	-0.043568	0.042220	-0.054822	0.000944	0.016514	0.003568	-0.651367	0.505127	-0.667236	0.057923	-0.008654	0.078051	0.465921	-0.294500	-0.116068	-0.826266	-5.899432	-36.500361	-119.216871
33964		5.791617	-0.841435	7.804012	-0.024242	0.027958	-0.058094	0.003528	0.013469	0.008564	-0.653564	0.500732	-0.672363	0.057922	-0.008413	0.078036	0.465965	-0.294477	-0.116065	-0.826250	-5.900106	-36.497516	-119.211245
33965		5.767981	-0.816646	7.796346	0.002550	0.027169	-0.080330	0.003365	0.016364	0.001623	-0.653809	0.504639	-0.666748	0.057686	-0.008167	0.077959	0.465979	-0.294440	-0.116065	-0.826255	-5.897900	-36.493587	-119.211016
33966		5.795198	-0.844101	7.782285	-0.036912	0.015900	-0.073120	-0.000775	0.014152	-0.000417	-0.659912	0.508789	-0.669922	0.057957	-0.008441	0.077819	0.465980	-0.294420	-0.116055	-0.826263	-5.897318	-36.490906	-119.211776
33967		5.806893	-0.814852	7.833804	0.002023	0.015611	-0.027381	0.003628	0.016246	-0.000479	-0.642822	0.502197	-0.662598	0.058075	-0.008150	0.078333	0.465986	-0.294381	-0.116059	-0.826273	-5.894081	-36.487168	-119.213028
33968		5.792745	-0.843725	7.784152	-0.036047	0.017532	-0.073119	0.003366	0.016364	0.001620	-0.651611	0.504639	-0.660400	0.057934	-0.008438	0.077837	0.466004	-0.294344	-0.116058	-0.826277	-5.892072	-36.483120	-119.212254
33969		5.780830	-0.813803	7.829563	0.010332	0.030699	-0.046353	0.002681	0.012908	-0.002096	-0.656982	0.497803	-0.672363	0.057813	-0.008140	0.078292	0.465999	-0.294321	-0.116069	-0.826286	-5.888842	-36.481379	-119.214408
33970		5.814214	-0.843656	7.791925	-0.042635	0.005740	-0.054148	0.003804	0.013971	-0.002206	-0.656250	0.500000	-0.664551	0.058147	-0.008439	0.077915	0.465995	-0.294290	-0.116080	-0.826297	-5.884893	-36.478995	-119.216999
33971		5.814192	-0.818866	7.790417	-0.023286	-0.008504	-0.057414	0.006137	0.018253	-0.002801	-0.648926	0.499756	-0.663086	0.058149	-0.008192	0.077899	0.465996	-0.294236	-0.116093	-0.826314	-5.879154	-36.474249	-119.220042
33972		5.783373	-0.814964	7.808771	-0.001904	0.019477	-0.061375	0.005103	0.012758	-0.004040	-0.657715	0.503662	-0.677002	0.057839	-0.008153	0.078084	0.465984	-0.294207	-0.116115	-0.826328	-5.873760	-36.472683	-119.223943
33973		5.804638	-0.838995	7.818303	-0.027835	0.021945	-0.039134	0.006664	0.018015	-0.007003	-0.659912	0.501709	-0.665527	0.058053	-0.008395	0.078178	0.465969	-0.294151	-0.116137	-0.826354	-5.865960	-36.468317	-119.229946
33974		5.804471	-0.813953	7.816919	-0.008495	0.007698	-0.042401	0.006137	0.018253	-0.002806	-0.655762	0.506348	-0.665039	0.058052	-0.008143	0.078164	0.465967	-0.294097	-0.116150	-0.826372	-5.860176	-36.463530	-119.233386
33975		5.784259	-0.839660	7.790899	-0.033074	0.023335	-0.073121	0.006401	0.018135	-0.004907	-0.652832	0.499023	-0.674805	0.057849	-0.008401	0.077903	0.465960	-0.294042	-0.116167	-0.826393	-5.853406	-36.458973	-119.237911
33976		5.784109	-0.814550	7.789507	-0.013732	0.009069	-0.076387	0.006665	0.018016	-0.007009	-0.650879	0.495850	-0.665283	0.057848	-0.008150	0.077890	0.465946	-0.293985	-0.116189	-0.826419	-5.845640	-36.454499	-119.243734
33977		5.798991	-0.835682	7.822847	-0.026140	0.025261	-0.039138	0.006840	0.022329	-0.007766	-0.653809	0.502930	-0.660645	0.057998	-0.008362	0.078222	0.465930	-0.293909	-0.116203	-0.826453	-5.837236	-36.447717	-119.250587
33978		5.774970	-0.809991	7.815505	0.000649	0.024446	-0.061386	0.004596	0.020203	-0.007550	-0.645020	0.509033	-0.670898	0.057757	-0.008104	0.078149	0.465906	-0.293849	-0.116210	-0.826486	-5.830370	-36.442134	-119.257619
33979		5.796927	-0.809898	7.822936	-0.006355	0.011846	-0.042404	0.003119	0.023692	-0.004000	-0.656982	0.508057	-0.664551	0.057978	-0.008101	0.078222	0.465901	-0.293779	-0.116200	-0.826515	-5.825627	-36.434355	-119.261899
33980		5.778687	-0.787036	7.792265	0.006930	-0.002732	-0.079651	0.006159	0.025461	-0.010521	-0.648682	0.504150	-0.663818	0.057796	-0.007876	0.077915	0.465881	-0.293690	-0.116207	-0.826557	-5.816662	-36.425809	-119.269980
33981		5.794358	-0.784187	7.823382	0.013450	-0.001608	-0.045668	-0.000074	0.024817	-0.004436	-0.646484	0.493652	-0.667969	0.057953	-0.007843	0.078227	0.465870	-0.293623	-0.116182	-0.826591	-5.813521	-36.417413	-119.274647
33982		5.774931	-0.786344	7.795119	0.007776	-0.001096	-0.079652	-0.000957	0.023018	0.002240	-0.656494	0.503174	-0.668213	0.057758	-0.007862	0.077945	0.465887	-0.293568	-0.116147	-0.826606	-5.813826	-36.409507	-119.273993
33983		5.768042	-0.759648	7.817592	0.040646	-0.001618	-0.067921	-0.002082	0.028544	0.003308	-0.653076	0.504395	-0.665527	0.057692	-0.007595	0.078168	0.465908	-0.293494	-0.116094	-0.826628	-5.814932	-36.398537	-119.273443
33984		5.789375	-0.760923	7.825369	0.033664	-0.014222	-0.048931	-0.009086	0.028874	0.007021	-0.653564	0.502441	-0.657227	0.057905	-0.007604	0.078246	0.465931	-0.293438	-0.116003	-0.826647	-5.821744	-36.387154	-119.270532
33985		5.769509	-0.764284	7.797314	0.027991	-0.013693	-0.082914	-0.009351	0.028994	0.009116	-0.651855	0.496338	-0.671631	0.057707	-0.007637	0.077965	0.465965	-0.293383	-0.115909	-0.826661	-5.829433	-36.375590	-119.265905
33986		5.783539	-0.787674	7.831034	0.015603	0.002524	-0.045671	-0.010473	0.027931	0.009220	-0.648682	0.492920	-0.662354	0.057847	-0.007870	0.078303	0.465992	-0.293336	-0.115812	-0.826676	-5.837895	-36.364638	-119.261733
33987		5.756357	-0.812792	7.828934	0.004532	0.031858	-0.061408	-0.010651	0.030207	0.010934	-0.648193	0.497803	-0.664795	0.057576	-0.008121	0.078281	0.466032	-0.293280	-0.115708	-0.826688	-5.847035	-36.352275	-119.255912
33988		5.731622	-0.789658	7.821810	0.031291	0.031026	-0.083668	-0.014286	0.027138	0.013354	-0.645264	0.501221	-0.667725	0.057327	-0.007887	0.078211	0.466072	-0.293246	-0.115591	-0.826693	-5.859345	-36.341473	-119.248575
33989		5.746943	-0.789357	7.852905	0.037822	0.032173	-0.049691	-0.013251	0.026044	0.013621	-0.645508	0.495361	-0.663818	0.057480	-0.007884	0.078522	0.466117	-0.293214	-0.115482	-0.826694	-5.871274	-36.331324	-119.240559
33990		5.761951	-0.823638	7.786264	-0.021263	0.006857	-0.091378	-0.013606	0.024006	0.016094	-0.644531	0.507324	-0.667725	0.057630	-0.008226	0.077856	0.466174	-0.293192	-0.115372	-0.826685	-5.884557	-36.322035	-119.230198
33991		5.768870	-0.869038	7.845679	-0.039044	0.051907	-0.035902	-0.011679	0.024714	0.009687	-0.652832	0.503174	-0.665039	0.057699	-0.008683	0.078450	0.466205	-0.293161	-0.115279	-0.826693	-5.893988	-36.312873	-119.224875
33992		5.744670	-0.845416	7.838207	-0.012259	0.051044	-0.058166	-0.007007	0.020100	0.006575	-0.647705	0.503662	-0.667725	0.057455	-0.008450	0.078377	0.466229	-0.293135	-0.115218	-0.826697	-5.899863	-36.306425	-119.220958
33993		5.724475	-0.872492	7.811987	-0.036866	0.066629	-0.088892	-0.003368	0.016580	0.003194	-0.654541	0.510010	-0.667236	0.057251	-0.008723	0.078115	0.466240	-0.293114	-0.115187	-0.826702	-5.902163	-36.302280	-119.219635
33994		5.766605	-0.822919	7.843959	0.000121	0.024194	-0.042424	-0.003546	0.018856	0.004910	-0.647461	0.499756	-0.669922	0.057674	-0.008226	0.078434	0.466260	-0.293085	-0.115146	-0.826707	-5.905417	-36.296674	-119.217017
33995		5.751433	-0.876593	7.796672	-0.056939	0.041114	-0.084864	-0.001797	0.015250	-0.000732	-0.654541	0.502930	-0.659424	0.057520	-0.008765	0.077962	0.466256	-0.293063	-0.115131	-0.826719	-5.905231	-36.293519	-119.218373
33996		5.746593	-0.825476	7.816079	-0.005131	0.025521	-0.076407	-0.001797	0.015250	-0.000733	-0.650391	0.501221	-0.660400	0.057472	-0.008254	0.078156	0.466249	-0.293042	-0.115113	-0.826733	-5.905124	-36.290370	-119.220236
33997		5.733344	-0.820174	7.863740	0.022357	0.053841	-0.046473	-0.000943	0.009841	0.000301	-0.649414	0.501221	-0.657959	0.057337	-0.008201	0.078635	0.466247	-0.293041	-0.115112	-0.826734	-5.905114	-36.290236	-119.220467
33998		5.769703	-0.801832	7.821111	0.007259	-0.001300	-0.060655	-0.000405	0.009605	-0.003895	-0.647949	0.496582	-0.663574	0.057701	-0.008019	0.078208	0.466222	-0.293040	-0.115117	-0.826748	-5.903235	-36.290577	-119.224538
33999		5.734305	-0.771629	7.859917	0.061082	0.025346	-0.052995	-0.001212	0.009959	0.002398	-0.655029	0.505371	-0.668945	0.057347	-0.007715	0.078596	0.466229	-0.293041	-0.115111	-0.826745	-5.904252	-36.290252	-119.223294
34000		5.731181	-0.820557	7.865277	0.023671	0.056339	-0.046491	-0.003818	0.005795	0.005092	-0.650391	0.505859	-0.673828	0.057314	-0.008203	0.078651	0.466238	-0.293067	-0.115099	-0.826732	-5.908103	-36.292123	-119.220276
34001		5.786455	-0.776507	7.849686	0.033585	-0.013538	-0.029933	-0.004852	0.006890	0.004819	-0.650391	0.500244	-0.670410	0.057867	-0.007762	0.078495	0.466248	-0.293090	-0.115082	-0.826721	-5.912352	-36.293405	-119.217096
34002		5.759841	-0.825156	7.848693	0.003568	0.030834	-0.042444	-0.005975	0.005827	0.004926	-0.654785	0.498047	-0.665039	0.057601	-0.008248	0.078485	0.466260	-0.293118	-0.115063	-0.826707	-5.917345	-36.295118	-119.213255
34003		5.754607	-0.798905	7.869876	0.036450	0.030338	-0.030742	-0.003998	0.001481	0.005854	-0.653320	0.504883	-0.666016	0.057547	-0.007986	0.078698	0.466272	-0.293162	-0.115061	-0.826685	-5.921774	-36.299420	-119.208946
34004		5.771401	-0.832123	7.802115	-0.022641	0.005000	-0.072361	-0.007547	0.007158	0.008847	-0.652588	0.500244	-0.667236	0.057717	-0.008316	0.078019	0.466288	-0.293194	-0.115024	-0.826669	-5.929271	-36.300359	-119.203818
34005		5.758613	-0.827747	7.849321	0.004857	0.033341	-0.042452	-0.006334	0.003788	0.007403	-0.653564	0.508057	-0.664795	0.057588	-0.008273	0.078492	0.466305	-0.293235	-0.115004	-0.826648	-5.935588	-36.303254	-119.198582
34006		5.758144	-0.828878	7.849546	0.005300	0.034169	-0.042455	-0.008939	0.006214	0.011050	-0.645020	0.500244	-0.667236	0.057584	-0.008282	0.078494	0.466330	-0.293275	-0.114961	-0.826625	-5.944939	-36.304558	-119.191389
34007		5.771112	-0.810999	7.800466	-0.002428	-0.007596	-0.075611	-0.004850	0.006890	0.004816	-0.646484	0.501953	-0.659180	0.057714	-0.008107	0.078003	0.466340	-0.293299	-0.114944	-0.826614	-5.949187	-36.305838	-119.188209
34008		5.771692	-0.787533	7.798430	0.016924	-0.021871	-0.078861	-0.007186	0.009198	0.006365	-0.650391	0.502686	-0.675293	0.057721	-0.007871	0.077982	0.466356	-0.293318	-0.114909	-0.826603	-5.955442	-36.305615	-119.183893
34009		5.779648	-0.832373	7.857022	-0.000816	0.023263	-0.023437	-0.010646	0.010443	0.008021	-0.650391	0.505127	-0.668701	0.057801	-0.008317	0.078568	0.466372	-0.293342	-0.114855	-0.826593	-5.964198	-36.304679	-119.178709
34010		5.762581	-0.811350	7.825379	0.012381	0.008611	-0.060664	-0.006331	0.010378	0.008353	-0.658447	0.507568	-0.658936	0.057630	-0.008109	0.078251	0.466401	-0.293354	-0.114819	-0.826577	-5.970635	-36.303585	-119.172726
34011		5.767816	-0.815124	7.802474	-0.000732	-0.004320	-0.075608	-0.009521	0.011505	0.007911	-0.645020	0.502930	-0.667480	0.057683	-0.008145	0.078022	0.466419	-0.293371	-0.114767	-0.826568	-5.978654	-36.302049	-119.167699
34012		5.789102	-0.841005	7.811840	-0.026599	-0.001794	-0.053326	-0.005115	0.013597	0.007863	-0.657715	0.504150	-0.673096	0.057897	-0.008406	0.078115	0.466441	-0.293370	-0.114727	-0.826562	-5.984231	-36.299357	-119.163337
34013		5.764410	-0.841538	7.806272	-0.018774	0.012419	-0.072359	-0.010823	0.012718	0.009731	-0.651855	0.499023	-0.668213	0.057649	-0.008408	0.078060	0.466466	-0.293386	-0.114664	-0.826551	-5.993704	-36.297019	-119.157114
34014		5.763241	-0.842841	7.806995	-0.018365	0.013252	-0.072359	-0.006687	0.014927	0.011779	-0.653076	0.502930	-0.670166	0.057639	-0.008422	0.078066	0.466503	-0.293384	-0.114610	-0.826538	-6.001453	-36.293259	-119.150144
34015		5.739766	-0.819131	7.799018	0.008377	0.012375	-0.094645	-0.008396	0.012568	0.007798	-0.655029	0.507568	-0.676758	0.057403	-0.008186	0.077987	0.466523	-0.293394	-0.114561	-0.826530	-6.008731	-36.291122	-119.145278
34016		5.732565	-0.817743	7.823109	0.022331	0.026959	-0.079711	-0.010060	0.011741	0.012096	-0.648193	0.506836	-0.673828	0.057331	-0.008170	0.078228	0.466559	-0.293412	-0.114500	-0.826512	-6.018769	-36.289079	-119.137178
34017		5.753859	-0.844093	7.832406	-0.003558	0.029501	-0.057428	-0.010060	0.011741	0.012094	-0.643555	0.502930	-0.671143	0.057544	-0.008434	0.078321	0.466594	-0.293432	-0.114440	-0.826493	-6.028833	-36.287153	-119.129215
34018		5.734204	-0.871874	7.805643	-0.028220	0.044973	-0.088156	-0.010913	0.010562	0.010103	-0.648438	0.511719	-0.670166	0.057347	-0.008712	0.078054	0.466629	-0.293454	-0.114383	-0.826474	-6.038651	-36.285740	-119.121268
34019		5.758186	-0.849621	7.809990	-0.016268	0.017348	-0.072362	-0.007994	0.009550	0.012640	-0.649902	0.506836	-0.667725	0.057586	-0.008489	0.078097	0.466668	-0.293478	-0.114336	-0.826450	-6.047856	-36.285027	-119.112755
34020		5.752532	-0.824065	7.831442	0.016637	0.016835	-0.060681	-0.009973	0.007310	0.010755	-0.647461	0.504639	-0.676025	0.057529	-0.008234	0.078313	0.466700	-0.293514	-0.114287	-0.826426	-6.057733	-36.285568	-119.104700
34021		5.751677	-0.825318	7.831938	0.017063	0.017668	-0.060683	-0.008392	0.012570	0.007791	-0.653809	0.506592	-0.669434	0.057522	-0.008248	0.078316	0.466720	-0.293523	-0.114238	-0.826418	-6.065004	-36.283426	-119.099842
34022		5.758214	-0.805304	7.806574	0.022849	-0.010388	-0.078854	-0.013974	0.008790	0.016594	-0.650879	0.506104	-0.668701	0.057586	-0.008043	0.078064	0.466770	-0.293565	-0.114162	-0.826385	-6.079318	-36.282733	-119.087964
34023		5.742282	-0.850436	7.858854	0.012525	0.048173	-0.042521	-0.013517	0.012989	0.013734	-0.645996	0.509277	-0.666504	0.057429	-0.008495	0.078585	0.466808	-0.293588	-0.114082	-0.826367	-6.091990	-36.279989	-119.078937
34024		5.753591	-0.857622	7.812501	-0.014130	0.021416	-0.072367	-0.011723	0.010914	0.016377	-0.652100	0.499023	-0.670410	0.057541	-0.008567	0.078122	0.466861	-0.293617	-0.114010	-0.826337	-6.105004	-36.278149	-119.067415
34025		5.776164	-0.859931	7.819353	-0.021092	0.008886	-0.053317	-0.010056	0.011742	0.012080	-0.650879	0.501465	-0.673096	0.057767	-0.008592	0.078191	0.466896	-0.293636	-0.113949	-0.826318	-6.115056	-36.276214	-119.059466
34026		5.751563	-0.860772	7.813648	-0.013315	0.023077	-0.072370	-0.010056	0.011742	0.012078	-0.655029	0.507813	-0.673828	0.057521	-0.008600	0.078134	0.466929	-0.293654	-0.113889	-0.826301	-6.124884	-36.274164	-119.051796
34027		5.750514	-0.862393	7.814241	-0.012890	0.023908	-0.072371	-0.010597	0.011975	0.016265	-0.643311	0.508301	-0.670410	0.057511	-0.008615	0.078139	0.466981	-0.293676	-0.113820	-0.826274	-6.136984	-36.271838	-119.040909
34028		5.748250	-0.888140	7.817180	-0.031392	0.039792	-0.069130	-0.007721	0.009434	0.010531	-0.649170	0.507324	-0.668701	0.057487	-0.008875	0.078169	0.467017	-0.293697	-0.113777	-0.826252	-6.145225	-36.271123	-119.033125
34029		5.742493	-0.862305	7.838761	0.001501	0.039327	-0.057462	-0.004439	0.010460	0.010596	-0.659180	0.508301	-0.678467	0.057429	-0.008618	0.078385	0.467054	-0.293708	-0.113745	-0.826232	-6.151494	-36.270005	-119.026128
34030		5.746591	-0.889980	7.818190	-0.030553	0.041443	-0.069135	-0.003719	0.007954	0.004693	-0.650146	0.508301	-0.672119	0.057469	-0.008897	0.078180	0.467066	-0.293723	-0.113730	-0.826222	-6.154973	-36.270578	-119.023095
34031		5.777163	-0.869766	7.798940	-0.032139	0.000045	-0.068226	-0.004450	0.003871	0.009642	-0.641357	0.503662	-0.663574	0.057774	-0.008693	0.077988	0.467094	-0.293760	-0.113715	-0.826194	-6.161147	-36.273271	-119.016271
34032		5.762869	-0.889399	7.848604	-0.023537	0.043517	-0.035171	-0.002593	0.009015	0.004588	-0.642578	0.512207	-0.670898	0.057632	-0.008892	0.078484	0.467112	-0.293768	-0.113703	-0.826183	-6.164005	-36.273177	-119.012762
34033		5.747409	-0.843271	7.814532	0.008558	0.013735	-0.075621	-0.002322	0.008899	0.002493	-0.655029	0.502441	-0.663818	0.057478	-0.008431	0.078143	0.467117	-0.293775	-0.113695	-0.826178	-6.165745	-36.273446	-119.011372
34034		5.745329	-0.867809	7.817455	-0.009931	0.029631	-0.072383	-0.001196	0.009960	0.002388	-0.645264	0.504883	-0.665527	0.057457	-0.008677	0.078172	0.467126	-0.293775	-0.113689	-0.826175	-6.166863	-36.273026	-119.009947
34035		5.750700	-0.870648	7.794591	-0.023057	0.016666	-0.087287	-0.000070	0.011021	0.002283	-0.657471	0.512695	-0.667236	0.057511	-0.008706	0.077943	0.467134	-0.293769	-0.113686	-0.826172	-6.167129	-36.272098	-119.008868
34036		5.762111	-0.841997	7.846187	0.016033	0.016649	-0.041659	-0.002309	0.015488	0.003442	-0.645996	0.504883	-0.675049	0.057627	-0.008418	0.078458	0.467145	-0.293751	-0.113659	-0.826176	-6.169121	-36.268540	-119.007526
34037		5.748446	-0.871251	7.796186	-0.022191	0.018314	-0.087288	-0.001278	0.014391	0.003717	-0.653320	0.506104	-0.669189	0.057490	-0.008711	0.077958	0.467160	-0.293734	-0.113641	-0.826177	-6.170525	-36.265603	-119.005691
34038		5.769549	-0.896497	7.805711	-0.048081	0.020868	-0.064981	-0.003162	0.014311	0.001451	-0.650879	0.510498	-0.663574	0.057701	-0.008963	0.078053	0.467166	-0.293719	-0.113619	-0.826182	-6.172016	-36.262692	-119.005095
34039		5.793290	-0.873217	7.810466	-0.036109	-0.006726	-0.049146	0.000607	0.014472	0.005981	-0.650146	0.506592	-0.671875	0.057939	-0.008731	0.078100	0.467193	-0.293698	-0.113606	-0.826176	-6.173283	-36.259570	-119.001668
34040		5.737302	-0.893734	7.824582	-0.026292	0.049657	-0.069161	-0.000056	0.017610	0.003228	-0.652832	0.510986	-0.670898	0.057380	-0.008936	0.078241	0.467209	-0.293665	-0.113585	-0.826181	-6.173771	-36.254777	-119.000432
34041		5.785705	-0.846667	7.833477	-0.002771	-0.006358	-0.037487	0.000216	0.017494	0.001133	-0.651611	0.502197	-0.670410	0.057864	-0.008466	0.078330	0.467217	-0.293631	-0.113569	-0.826191	-6.173099	-36.250232	-119.000660
34042		5.765594	-0.872878	7.807149	-0.027455	0.009083	-0.068216	0.000584	0.019536	-0.001344	-0.649170	0.510986	-0.662842	0.057664	-0.008729	0.078066	0.467215	-0.293585	-0.113553	-0.826210	-6.171082	-36.244611	-119.002977
34043		5.756537	-0.894397	7.834101	-0.032394	0.038810	-0.050093	0.001343	0.018556	0.001025	-0.650879	0.507324	-0.661621	0.057573	-0.008944	0.078336	0.467225	-0.293543	-0.113540	-0.826221	-6.169672	-36.239469	-119.003362
34044		5.727886	-0.842541	7.847524	0.026833	0.036600	-0.060758	0.000312	0.019653	0.000745	-0.647217	0.504883	-0.664307	0.057287	-0.008425	0.078470	0.467228	-0.293501	-0.113518	-0.826237	-6.168950	-36.233773	-119.004522
34045		5.762358	-0.848570	7.808133	-0.007224	-0.003518	-0.071449	-0.000718	0.020750	0.000466	-0.646729	0.508789	-0.664063	0.057632	-0.008485	0.078075	0.467234	-0.293455	-0.113492	-0.826254	-6.168389	-36.227415	-119.005469
34046		5.755964	-0.821917	7.830249	0.025695	-0.003980	-0.059801	-0.003338	0.016586	0.003149	-0.638428	0.504639	-0.669922	0.057566	-0.008217	0.078298	0.467244	-0.293434	-0.113460	-0.826260	-6.170807	-36.223218	-119.004219
34047		5.734421	-0.872743	7.806341	-0.017911	0.026542	-0.087298	-0.000895	0.023024	0.002172	-0.646240	0.508057	-0.666016	0.057353	-0.008726	0.078057	0.467258	-0.293380	-0.113425	-0.826276	-6.170957	-36.215460	-119.004135
34048		5.781223	-0.850045	7.817877	-0.013301	-0.014408	-0.052363	-0.001086	0.018708	0.002936	-0.646484	0.510498	-0.662598	0.057820	-0.008499	0.078173	0.467280	-0.293342	-0.113400	-0.826281	-6.171855	-36.209894	-119.002134
34049		5.785975	-0.852915	7.795528	-0.026434	-0.027390	-0.067238	-0.001842	0.019689	0.000563	-0.643799	0.503174	-0.668213	0.057867	-0.008528	0.077950	0.467284	-0.293303	-0.113371	-0.826296	-6.172027	-36.204134	-119.002932
34050		5.754786	-0.849646	7.813599	-0.005074	0.000557	-0.071447	0.000397	0.015221	-0.000591	-0.644775	0.503418	-0.670410	0.057554	-0.008497	0.078132	0.467286	-0.293276	-0.113364	-0.826306	-6.170797	-36.200895	-119.003894
34051		5.749480	-0.888015	7.919358	0.004390	0.073517	0.013598	0.002732	0.012912	-0.002127	-0.647217	0.505859	-0.666016	0.057500	-0.008882	0.079190	0.467282	-0.293253	-0.113374	-0.826315	-6.167532	-36.199161	-119.006073
34052		5.743016	-0.795167	7.857164	0.060730	-0.000336	-0.048167	0.003089	0.008363	-0.005546	-0.642334	0.505859	-0.667969	0.057433	-0.007954	0.078569	0.467263	-0.293244	-0.113402	-0.826325	-6.162867	-36.200104	-119.010071
34053		5.791981	-0.871523	7.854011	-0.023886	0.005305	-0.015163	0.001497	0.003103	-0.002581	-0.641602	0.505615	-0.677979	0.057921	-0.008717	0.078539	0.467250	-0.293264	-0.113431	-0.826322	-6.160561	-36.203986	-119.011822
34054		5.732049	-0.864904	7.888315	0.018359	0.060372	-0.023613	-0.001483	0.003487	0.003523	-0.639893	0.511963	-0.667969	0.057322	-0.008647	0.078882	0.467268	-0.293289	-0.113440	-0.826301	-6.162515	-36.206961	-119.007801
34055		5.770205	-0.946123	7.831741	-0.086019	0.051683	-0.039433	0.004203	0.002835	-0.006593	-0.650879	0.506104	-0.660889	0.057703	-0.009465	0.078316	0.467242	-0.293301	-0.113486	-0.826305	-6.156998	-36.211242	-119.012364
34056		5.806248	-0.951145	7.791414	-0.120050	0.011523	-0.050066	0.006057	0.001389	-0.012593	-0.646484	0.507324	-0.667480	0.058062	-0.009517	0.077913	0.467195	-0.293312	-0.113552	-0.826319	-6.148246	-36.216643	-119.020712
34057		5.771418	-0.919312	7.829740	-0.066221	0.038234	-0.042663	0.013172	0.003208	-0.016641	-0.646729	0.508057	-0.668945	0.057715	-0.009203	0.078296	0.467140	-0.293296	-0.113649	-0.826342	-6.133379	-36.221326	-119.032401
34058		5.787712	-0.849759	7.776095	-0.036154	-0.033882	-0.082071	0.013638	0.007407	-0.019505	-0.649414	0.507080	-0.666748	0.057879	-0.008509	0.077758	0.467080	-0.293259	-0.113743	-0.826376	-6.117007	-36.223667	-119.045962
34059		5.763610	-0.847087	7.770332	-0.028375	-0.019742	-0.101167	0.010273	0.010814	-0.018253	-0.650391	0.514160	-0.671387	0.057640	-0.008480	0.077700	0.467019	-0.293218	-0.113813	-0.826416	-6.102786	-36.224110	-119.059369
34060		5.760085	-0.893759	7.776000	-0.065771	0.011237	-0.094709	0.009433	0.016226	-0.019306	-0.653564	0.499512	-0.669678	0.057606	-0.008947	0.077755	0.466958	-0.293155	-0.113867	-0.826465	-6.088590	-36.221456	-119.073601
34061		5.745247	-0.786829	7.837801	0.051030	-0.006789	-0.063050	0.008774	0.019365	-0.022068	-0.649658	0.512939	-0.673096	0.057459	-0.007878	0.078372	0.466883	-0.293080	-0.113917	-0.826527	-6.073257	-36.217254	-119.090345
34062		5.773607	-0.788513	7.822023	0.030535	-0.033107	-0.058800	0.007492	0.022106	-0.011987	-0.644043	0.498779	-0.668457	0.057744	-0.007892	0.078214	0.466850	-0.293001	-0.113939	-0.826571	-6.062768	-36.210803	-119.100234
34063		5.757191	-0.740987	7.788787	0.062586	-0.062984	-0.099210	0.003849	0.025628	-0.008644	-0.653809	0.503662	-0.672363	0.057582	-0.007414	0.077880	0.466828	-0.292919	-0.113934	-0.826613	-6.055585	-36.202214	-119.107963
34064		5.673937	-0.774645	7.899427	0.107683	0.063802	-0.056719	-0.003724	0.026198	-0.000796	-0.651367	0.508057	-0.669678	0.056750	-0.007745	0.078987	0.466827	-0.292856	-0.113885	-0.826643	-6.055888	-36.192730	-119.110345
34065		5.697180	-0.786004	7.807091	0.053840	0.009283	-0.116124	-0.009237	0.024575	0.007612	-0.648926	0.498779	-0.669922	0.056982	-0.007854	0.078064	0.466852	-0.292817	-0.113805	-0.826654	-6.063028	-36.183758	-119.106518
34066		5.719920	-0.763959	7.812499	0.065829	-0.018283	-0.100242	-0.014560	0.027269	0.015245	-0.641602	0.503174	-0.669189	0.057210	-0.007630	0.078118	0.466900	-0.292785	-0.113684	-0.826654	-6.076256	-36.172734	-119.097786
34067		5.709906	-0.787847	7.839835	0.060901	0.011476	-0.082173	-0.017450	0.029811	0.020957	-0.640869	0.510498	-0.665527	0.057112	-0.007866	0.078391	0.466971	-0.292752	-0.113538	-0.826646	-6.093422	-36.159967	-119.084941
34068		5.713880	-0.793238	7.817853	0.047767	-0.001578	-0.097020	-0.018195	0.025728	0.025909	-0.644775	0.512207	-0.675049	0.057150	-0.007918	0.078172	0.467067	-0.292739	-0.113391	-0.826616	-6.113471	-36.149021	-119.067175
34069		5.759890	-0.897207	7.818099	-0.055748	0.019177	-0.060739	-0.019416	0.022509	0.026392	-0.649170	0.502686	-0.674561	0.057609	-0.008957	0.078175	0.467154	-0.292743	-0.113246	-0.826586	-6.134338	-36.140075	-119.049957
34070		5.747692	-0.846544	7.861424	0.009643	0.017488	-0.037505	-0.021655	0.026978	0.027526	-0.652588	0.505615	-0.666992	0.057489	-0.008449	0.078607	0.467251	-0.292733	-0.113080	-0.826557	-6.156778	-36.128299	-119.031433
34071		5.694530	-0.920943	7.856833	-0.032006	0.090171	-0.066074	-0.016799	0.020084	0.022757	-0.646240	0.510742	-0.663086	0.056954	-0.009196	0.078563	0.467325	-0.292740	-0.112957	-0.826530	-6.174731	-36.120947	-119.016606
34072		5.778752	-0.882355	7.825613	-0.042882	-0.006742	-0.044840	-0.016798	0.020085	0.022751	-0.647705	0.506592	-0.670166	0.057796	-0.008810	0.078251	0.467394	-0.292748	-0.112831	-0.826505	-6.192857	-36.113645	-119.002410
34073		5.747240	-0.881420	7.843496	-0.021543	0.021228	-0.049124	-0.013154	0.016562	0.019410	-0.642578	0.505615	-0.665039	0.057480	-0.008803	0.078431	0.467457	-0.292759	-0.112736	-0.826478	-6.207483	-36.108501	-118.989681
34074		5.735415	-0.953385	7.874829	-0.064303	0.081163	-0.024627	-0.009134	0.015082	0.013594	-0.647949	0.510498	-0.672119	0.057361	-0.009526	0.078744	0.467502	-0.292763	-0.112668	-0.826461	-6.217530	-36.104474	-118.980861
34075		5.732583	-0.913321	7.794030	-0.059416	0.023547	-0.094690	-0.004462	0.010461	0.010541	-0.650146	0.502197	-0.670166	0.057330	-0.009128	0.077938	0.467538	-0.292774	-0.112636	-0.826441	-6.223764	-36.103351	-118.973919
34076		5.753933	-0.939068	7.803374	-0.085259	0.026176	-0.072344	-0.006631	0.008975	0.002098	-0.651123	0.505859	-0.663330	0.057543	-0.009387	0.078031	0.467534	-0.292790	-0.112610	-0.826441	-6.227774	-36.103535	-118.973050
34077		5.713445	-0.882330	7.862816	0.001064	0.051672	-0.053427	-0.001111	0.005530	0.001035	-0.639893	0.509277	-0.667969	0.057137	-0.008823	0.078627	0.467533	-0.292808	-0.112617	-0.826434	-6.228362	-36.105811	-118.972430
34078		5.750635	-0.864185	7.820397	-0.014060	-0.003592	-0.067174	-0.001110	0.005530	0.001035	-0.648682	0.507568	-0.660645	0.057509	-0.008641	0.078202	0.467531	-0.292827	-0.112623	-0.826428	-6.229100	-36.108052	-118.971921
34079		5.703054	-0.863189	7.807781	0.001036	0.023796	-0.105432	-0.002975	0.006974	0.007026	-0.651367	0.508057	-0.665771	0.057034	-0.008629	0.078076	0.467553	-0.292846	-0.112610	-0.826411	-6.233180	-36.109133	-118.967189
34080		5.714502	-0.835116	7.859168	0.040223	0.023981	-0.059878	-0.005310	0.009284	0.008550	-0.646973	0.507568	-0.669678	0.057149	-0.008347	0.078589	0.467570	-0.292865	-0.112577	-0.826398	-6.239283	-36.108915	-118.962641
34081		5.690076	-0.835458	7.853227	0.047982	0.038088	-0.079015	-0.007646	0.011595	0.010073	-0.646729	0.507813	-0.666504	0.056906	-0.008349	0.078529	0.467600	-0.292878	-0.112530	-0.826383	-6.247096	-36.107173	-118.956117
34082		5.761007	-0.814617	7.870929	0.045333	-0.016005	-0.024837	-0.008203	0.011826	0.014253	-0.647217	0.508545	-0.665771	0.057615	-0.008139	0.078706	0.467647	-0.292894	-0.112473	-0.826359	-6.257036	-36.104978	-118.946728
34083		5.722819	-0.868520	7.816503	-0.004570	0.013832	-0.086306	-0.008383	0.014100	0.015955	-0.644775	0.510010	-0.670654	0.057234	-0.008677	0.078161	0.467701	-0.292902	-0.112408	-0.826334	-6.267599	-36.101440	-118.936253
34084		5.678890	-0.861547	7.880998	0.043927	0.069502	-0.060999	-0.008661	0.014215	0.018043	-0.646484	0.505127	-0.671875	0.056795	-0.008607	0.078806	0.467766	-0.292911	-0.112338	-0.826304	-6.279316	-36.097622	-118.924136
34085		5.748833	-0.899587	7.803383	-0.043541	0.003430	-0.078767	-0.008190	0.013348	0.022505	-0.649658	0.506104	-0.674316	0.057495	-0.008986	0.078030	0.467847	-0.292925	-0.112266	-0.826263	-6.292520	-36.094098	-118.908989
34086		5.726852	-0.852276	7.792883	0.002026	-0.012666	-0.104337	-0.008190	0.013348	0.022501	-0.646240	0.512695	-0.669922	0.057275	-0.008513	0.077925	0.467929	-0.292938	-0.112195	-0.826222	-6.305595	-36.090451	-118.893882
34087		5.706489	-0.846274	7.863796	0.043187	0.029767	-0.059907	-0.007161	0.012250	0.022781	-0.653809	0.511719	-0.665283	0.057071	-0.008453	0.078635	0.468013	-0.292955	-0.112129	-0.826177	-6.318371	-36.087529	-118.878457
34088		5.736830	-0.827201	7.845053	0.041648	-0.011633	-0.058792	-0.007082	0.007818	0.021462	-0.650879	0.512207	-0.664063	0.057372	-0.008263	0.078449	0.468085	-0.292990	-0.112074	-0.826131	-6.330941	-36.087240	-118.864071
34089		5.734684	-0.853484	7.847719	0.023154	0.004292	-0.055578	-0.009896	0.005928	0.025842	-0.650146	0.509521	-0.664551	0.057350	-0.008524	0.078476	0.468174	-0.293040	-0.112008	-0.826072	-6.346844	-36.087718	-118.845997
34090		5.727687	-0.853127	7.871327	0.037190	0.019002	-0.040775	-0.009996	0.003770	0.026225	-0.639893	0.512207	-0.677979	0.057279	-0.008520	0.078713	0.468255	-0.293103	-0.111942	-0.826013	-6.363234	-36.089509	-118.828534
34091		5.722348	-0.828706	7.892405	0.070116	0.018617	-0.029190	-0.012632	-0.000392	0.028900	-0.651611	0.509277	-0.663818	0.057225	-0.008274	0.078925	0.468348	-0.293188	-0.111875	-0.825939	-6.382269	-36.093384	-118.807807
34092		5.749468	-0.883090	7.879853	0.011794	0.022484	-0.018420	-0.010222	-0.007137	0.026059	-0.645020	0.511963	-0.666748	0.057493	-0.008819	0.078801	0.468433	-0.293292	-0.111837	-0.825859	-6.399125	-36.101141	-118.788148
34093		5.746563	-0.834329	7.897893	0.063640	0.007010	-0.010050	-0.009778	-0.014597	0.029584	-0.652344	0.510498	-0.666016	0.057461	-0.008331	0.078984	0.468526	-0.293430	-0.111814	-0.825760	-6.417480	-36.113049	-118.765807
34094		5.684594	-1.035849	7.825875	-0.106053	0.126720	-0.086197	-0.001917	-0.015291	0.019686	-0.641602	0.509277	-0.660889	0.056841	-0.010352	0.078263	0.468585	-0.293547	-0.111837	-0.825682	-6.427372	-36.126003	-118.750936
34095		5.754565	-0.964089	7.860563	-0.057254	0.056391	-0.023587	-0.001399	-0.027183	0.021891	-0.641602	0.510742	-0.665283	0.057536	-0.009634	0.078614	0.468651	-0.293712	-0.111889	-0.825579	-6.438337	-36.145563	-118.733003
34096		5.816493	-0.971842	7.825019	-0.098624	0.002941	-0.014868	0.001196	-0.031129	0.010028	-0.646973	0.510010	-0.663330	0.058153	-0.009716	0.078259	0.468672	-0.293881	-0.111978	-0.825495	-6.443258	-36.168047	-118.722870
34097		5.754336	-0.938337	7.878083	-0.023886	0.056826	-0.012011	0.005859	-0.035757	0.006979	-0.654053	0.504883	-0.661133	0.057530	-0.009384	0.078791	0.468682	-0.294056	-0.112102	-0.825410	-6.444277	-36.193445	-118.714758
34098		5.804282	-0.939760	7.888931	-0.038085	0.031187	0.026299	0.007063	-0.039130	0.005551	-0.644043	0.511475	-0.663574	0.058028	-0.009399	0.078900	0.468676	-0.294244	-0.112237	-0.825328	-6.444180	-36.220980	-118.708851
34099		5.808963	-0.915233	7.884251	-0.018740	0.016933	0.023088	0.005259	-0.043635	0.001955	-0.648926	0.501221	-0.666504	0.058073	-0.009154	0.078855	0.468661	-0.294450	-0.112385	-0.825243	-6.443828	-36.251186	-118.703651
34100		5.784163	-0.887058	7.896283	0.021499	0.029803	0.015504	0.007766	-0.048221	-0.001284	-0.649170	0.506104	-0.665039	0.057823	-0.008874	0.078976	0.468630	-0.294667	-0.112557	-0.825159	-6.440856	-36.284160	-118.700750
34101		5.753303	-0.856026	7.931610	0.075335	0.056564	0.022699	0.006916	-0.049394	-0.003281	-0.653564	0.507568	-0.673584	0.057513	-0.008564	0.079330	0.468592	-0.294891	-0.112732	-0.825077	-6.437642	-36.317982	-118.698789
34102		5.790639	-0.844527	7.808985	0.026713	-0.027126	-0.054433	0.003705	-0.059912	0.002617	-0.645508	0.506592	-0.661865	0.057883	-0.008446	0.078107	0.468565	-0.295167	-0.112910	-0.824969	-6.439076	-36.357351	-118.692314
34103		5.764242	-0.865077	7.824761	0.029122	0.015931	-0.055606	0.005083	-0.065557	-0.000534	-0.643799	0.515869	-0.661621	0.057617	-0.008653	0.078266	0.468526	-0.295463	-0.113112	-0.824858	-6.438833	-36.400199	-118.687118
34104		5.743144	-0.912378	7.819170	-0.000961	0.060163	-0.068359	0.005913	-0.070971	0.000487	-0.646484	0.514893	-0.666748	0.057404	-0.009126	0.078212	0.468493	-0.295779	-0.113327	-0.824734	-6.439021	-36.445955	-118.680300
34105		5.722200	-0.860192	7.827173	0.058199	0.057934	-0.079168	0.004013	-0.082702	0.004555	-0.649170	0.503906	-0.659912	0.057190	-0.008602	0.078295	0.468464	-0.296151	-0.113557	-0.824585	-6.442358	-36.498236	-118.670123
34106		5.716911	-0.854652	7.868848	0.085802	0.086530	-0.049624	0.005336	-0.101523	-0.000519	-0.654297	0.514404	-0.662842	0.057129	-0.008549	0.078717	0.468407	-0.296593	-0.113843	-0.824419	-6.443785	-36.561448	-118.661791
34107		5.636436	-0.844105	7.913825	0.148928	0.168749	-0.062822	0.003220	-0.124154	0.003317	-0.654297	0.503418	-0.648682	0.056315	-0.008441	0.079173	0.468348	-0.297137	-0.114169	-0.824212	-6.449067	-36.637409	-118.649148
34108		5.622962	-0.743934	7.914029	0.245952	0.136335	-0.080067	-0.002243	-0.143369	0.008379	-0.645264	0.501953	-0.653320	0.056173	-0.007436	0.079181	0.468280	-0.297778	-0.114505	-0.823973	-6.460702	-36.724115	-118.632690
34109		5.581904	-0.830984	8.001842	0.232380	0.266370	-0.027357	-0.008731	-0.184792	0.025784	-0.647705	0.512207	-0.647461	0.055746	-0.008299	0.080070	0.468260	-0.298612	-0.114890	-0.823628	-6.485395	-36.833142	-118.599114
34110		5.553580	-0.783321	7.973272	0.285277	0.263453	-0.072149	-0.010638	-0.221337	0.034043	-0.656250	0.512939	-0.659668	0.055449	-0.007820	0.079795	0.468248	-0.299606	-0.115337	-0.823211	-6.516828	-36.962394	-118.556740
34111		5.467591	-0.843055	8.065659	0.318832	0.418755	-0.046261	-0.001028	-0.272239	0.043414	-0.662109	0.504639	-0.651123	0.054568	-0.008418	0.080731	0.468261	-0.300791	-0.115932	-0.822688	-6.549263	-37.120021	-118.503191
34112		5.320217	-0.917331	8.216155	0.388872	0.657310	-0.011257	-0.005326	-0.338738	0.039363	-0.659424	0.513428	-0.653564	0.053065	-0.009161	0.082252	0.468205	-0.302257	-0.116667	-0.822079	-6.585984	-37.315756	-118.447702
34113		5.457496	-0.828341	8.186701	0.422146	0.530967	0.037805	0.007580	-0.425945	0.041885	-0.658936	0.512451	-0.646240	0.054402	-0.008275	0.081983	0.468132	-0.304051	-0.117658	-0.821317	-6.621190	-37.560914	-118.381966
34114		5.401400	-0.915975	8.223735	0.409613	0.673550	0.037302	0.024632	-0.513090	0.046250	-0.656738	0.513428	-0.644531	0.053805	-0.009157	0.082374	0.468049	-0.306164	-0.118915	-0.820398	-6.653706	-37.855258	-118.305306
34115		5.319696	-1.842458	8.167811	-0.333995	1.245351	0.023177	0.092728	-0.606203	0.041511	-0.663086	0.505859	-0.645264	0.052953	-0.018451	0.081830	0.467991	-0.308494	-0.120676	-0.819300	-6.650338	-38.202981	-118.223863
34116		4.992640	-0.641214	8.765852	1.060269	1.184995	0.169741	0.153378	-0.764988	0.003428	-0.658203	0.510986	-0.639160	0.049591	-0.006479	0.087844	0.467777	-0.311304	-0.123115	-0.817996	-6.604052	-38.643342	-118.155511
34117		5.757722	-1.694984	8.046621	-0.361691	0.942151	0.174971	0.164012	-0.888306	-0.047240	-0.670898	0.509277	-0.623291	0.057215	-0.017030	0.080707	0.467280	-0.314558	-0.125962	-0.816601	-6.535188	-39.157547	-118.114871
34118		5.755070	-1.243160	8.079469	0.063817	0.809377	0.151454	0.253415	-0.976785	-0.085941	-0.675781	0.498535	-0.624023	0.057150	-0.012559	0.081059	0.466708	-0.317931	-0.129438	-0.815076	-6.401839	-39.724345	-118.094786
34119		5.828874	-1.209340	8.071243	0.091433	0.838052	0.180888	0.296674	-1.063853	-0.120363	-0.690430	0.506592	-0.620117	0.057851	-0.012248	0.081003	0.465986	-0.321528	-0.133345	-0.813447	-6.230416	-40.343264	-118.096383
34120		6.040418	-1.493446	7.848182	-0.286741	0.841967	0.163220	0.393441	-1.129049	-0.153394	-0.689453	0.500488	-0.620361	0.059948	-0.015135	0.078791	0.465229	-0.325130	-0.137845	-0.811696	-5.988994	-41.001089	-118.120110
34121		6.207404	-1.675363	7.752239	-0.519267	0.897319	0.205285	0.549748	-1.180895	-0.182272	-0.702148	0.496582	-0.607910	0.061600	-0.017024	0.077840	0.464551	-0.328548	-0.143143	-0.809789	-5.642692	-41.690283	-118.166891
34122		6.442405	-1.731257	7.578073	-0.712617	0.808904	0.225508	0.774512	-1.202234	-0.193558	-0.707275	0.486816	-0.601807	0.063950	-0.017669	0.076098	0.464170	-0.331502	-0.149411	-0.807669	-5.157911	-42.391443	-118.226380
34123		6.591824	-1.311535	7.675592	-0.379352	0.685207	0.359421	1.032537	-1.198407	-0.167354	-0.713867	0.474121	-0.594482	0.065446	-0.013568	0.077080	0.464287	-0.333846	-0.156661	-0.805259	-4.531300	-43.089216	-118.277348
34124		6.765877	-0.849476	7.940863	0.034523	0.632486	0.634930	1.226135	-1.180184	-0.114055	-0.726074	0.471680	-0.597656	0.067184	-0.009021	0.079752	0.464928	-0.335684	-0.164547	-0.802547	-3.813469	-43.773545	-118.298814
34125		6.942758	-0.299270	8.033123	0.449791	0.449189	0.789963	1.332215	-1.171957	-0.045210	-0.722656	0.467041	-0.586670	0.068955	-0.003545	0.080714	0.465991	-0.337276	-0.172713	-0.799542	-3.063710	-44.450862	-118.278751
34126		7.091145	0.075973	7.938135	0.657395	0.271439	0.807860	1.345524	-1.170463	0.039612	-0.733643	0.455811	-0.584961	0.070445	0.000238	0.079797	0.467387	-0.338875	-0.180767	-0.796264	-2.347071	-45.124717	-118.200923
34127		7.166389	-0.030365	7.541367	0.368475	0.194456	0.582251	1.347835	-1.159554	0.101802	-0.741455	0.441162	-0.576660	0.071225	-0.000777	0.075823	0.469000	-0.340456	-0.188690	-0.792796	-1.657062	-45.792137	-118.084943
34128		7.298320	-0.439912	7.191036	-0.182903	0.245056	0.437909	1.400633	-1.150907	0.120950	-0.747803	0.449951	-0.580078	0.072571	-0.004861	0.072296	0.470746	-0.341872	-0.196750	-0.789184	-0.941991	-46.455336	-117.963840
34129		7.222880	-0.806182	7.152603	-0.525421	0.584164	0.353954	1.522089	-1.113974	0.125917	-0.740967	0.425293	-0.576416	0.071834	-0.008563	0.071863	0.472717	-0.342829	-0.205180	-0.785435	-0.152415	-47.098359	-117.850024
34130		7.125798	-0.871643	7.087972	-0.619991	0.769073	0.227157	1.675579	-1.063076	0.131812	-0.748291	0.420898	-0.572510	0.070886	-0.009265	0.071181	0.474989	-0.343195	-0.214058	-0.781525	0.728608	-47.712834	-117.742174
34131		6.744696	-1.018157	7.143300	-0.674656	1.230458	-0.036014	1.842512	-0.959884	0.156610	-0.761475	0.413574	-0.568604	0.067112	-0.010788	0.071658	0.477698	-0.342754	-0.223284	-0.777476	1.698548	-48.270052	-117.626217
34132		6.615084	-0.497962	7.131925	-0.250601	1.193948	-0.149281	2.006029	-0.857190	0.174885	-0.755127	0.407227	-0.570313	0.065849	-0.005639	0.071548	0.480818	-0.341505	-0.232840	-0.773288	2.756940	-48.770034	-117.504565
34133		6.015585	0.460477	8.596034	1.141754	2.275119	0.375958	2.093620	-0.698542	0.227024	-0.763916	0.397705	-0.567627	0.059850	0.003771	0.086212	0.484415	-0.339450	-0.242239	-0.769049	3.834857	-49.182534	-117.342781
34134		4.690752	0.482495	11.260369	2.180184	5.044428	1.088150	2.039513	-0.425022	0.295434	-0.761719	0.383301	-0.576660	0.046662	0.003745	0.112745	0.488459	-0.336517	-0.250620	-0.765084	4.829463	-49.443339	-117.113053
34135		7.092197	1.929126	12.294033	2.901221	3.946480	3.647201	1.872156	-0.099704	0.372004	-0.765625	0.372803	-0.579834	0.070826	0.018271	0.123150	0.492872	-0.332811	-0.257415	-0.761611	5.661268	-49.525140	-116.795682
34136		5.434844	2.387691	12.131037	3.599749	4.707324	2.323246	1.649275	0.348992	0.453055	-0.758545	0.370361	-0.577881	0.054507	0.022999	0.121407	0.497759	-0.328020	-0.262097	-0.758909	6.281577	-49.358315	-116.367960
34137		3.700311	2.534299	11.139068	3.849147	4.990839	0.408251	1.398120	0.645612	0.529579	-0.751709	0.364258	-0.587402	0.037297	0.024663	0.111445	0.502878	-0.322808	-0.264945	-0.756778	6.686579	-49.030449	-115.844166
34138		2.466171	2.613903	10.199973	3.940149	5.026085	-1.085354	1.186834	0.767300	0.599310	-0.740723	0.363281	-0.598145	0.024976	0.025608	0.102057	0.508050	-0.317736	-0.266557	-0.754902	6.918475	-48.639484	-115.248514
34139		2.454004	2.609706	10.076179	3.806350	4.947088	-1.129424	1.030523	0.827376	0.611693	-0.739990	0.364502	-0.594727	0.024878	0.025654	0.100792	0.513071	-0.312835	-0.267394	-0.753255	7.053258	-48.216976	-114.638890
34140		2.902759	2.895428	10.389214	3.912501	4.792518	-0.513855	0.918258	0.947721	0.530832	-0.721924	0.362061	-0.605957	0.029444	0.028555	0.103885	0.517748	-0.307642	-0.267609	-0.752117	7.171443	-47.720562	-114.089242
34141		2.889193	3.398765	10.533650	4.319018	4.709668	-0.324771	0.806585	1.107378	0.360928	-0.722656	0.353760	-0.611328	0.029414	0.033616	0.105311	0.521801	-0.301898	-0.267242	-0.751774	7.324738	-47.122637	-113.669258
34142		2.702742	3.902223	10.477731	4.737957	4.576079	-0.382701	0.669128	1.228901	0.147676	-0.703125	0.345947	-0.614502	0.027642	0.038692	0.104739	0.524982	-0.295751	-0.266347	-0.752320	7.523540	-46.439986	-113.415483
34143		2.535753	4.172047	10.229371	4.905372	4.351575	-0.567399	0.479972	1.305648	-0.096395	-0.698730	0.340820	-0.629639	0.026045	0.041463	0.102225	0.527041	-0.289478	-0.264890	-0.753833	7.753671	-45.696592	-113.352598
34144		2.779913	4.154497	10.072772	4.711651	3.998967	-0.418269	0.282738	1.338569	-0.333615	-0.682861	0.334961	-0.632324	0.028542	0.041355	0.100597	0.527939	-0.283266	-0.262930	-0.756246	8.002395	-44.915173	-113.474043
34145		3.145565	3.963956	10.023170	4.341889	3.673214	-0.131537	0.092559	1.363446	-0.554785	-0.684326	0.335449	-0.640625	0.032248	0.039505	0.100032	0.527737	-0.277162	-0.260488	-0.759487	8.257663	-44.102252	-113.761936
34146		3.684972	3.563822	10.058242	3.735257	3.334934	0.305194	-0.055623	1.398037	-0.759958	-0.676270	0.328613	-0.644287	0.037687	0.035524	0.100311	0.526565	-0.271028	-0.257658	-0.763469	8.527119	-43.250619	-114.197645
34147		4.139352	3.519941	10.051145	3.477103	2.893898	0.679300	-0.189749	1.443029	-0.946013	-0.669434	0.317871	-0.650146	0.042283	0.035096	0.100175	0.524523	-0.264824	-0.254436	-0.768119	8.800810	-42.356969	-114.759813
34148		4.460851	3.327226	10.058364	3.113986	2.581924	0.947131	-0.331436	1.478628	-1.089758	-0.661621	0.313232	-0.656250	0.045531	0.033192	0.100194	0.521828	-0.258614	-0.250767	-0.773260	9.047827	-41.427068	-115.401195
34149		4.853207	3.077498	9.960247	2.655417	2.159456	1.165156	-0.447327	1.514579	-1.208686	-0.651855	0.298340	-0.647461	0.049470	0.030700	0.099161	0.518436	-0.252432	-0.246665	-0.778883	9.266381	-40.465472	-116.125126
34150		5.063318	3.084866	9.809726	2.484600	1.733442	1.241837	-0.576609	1.527488	-1.286427	-0.651123	0.307373	-0.650879	0.051578	0.030801	0.097617	0.514623	-0.246377	-0.242118	-0.784755	9.428041	-39.486012	-116.878583
34151		5.328266	2.907875	9.683052	2.126552	1.344647	1.335120	-0.701506	1.524445	-1.328335	-0.636475	0.299805	-0.661377	0.054211	0.029059	0.096318	0.510350	-0.240613	-0.237094	-0.790844	9.518934	-38.504550	-117.661101
34152		5.741598	2.578602	9.533434	1.569178	0.895810	1.467074	-0.799192	1.524618	-1.352377	-0.638428	0.287598	-0.658691	0.058314	0.025773	0.094789	0.505888	-0.235007	-0.231702	-0.796971	9.546613	-37.518515	-118.437262
34153		5.951211	2.381894	9.339804	1.199506	0.517758	1.439503	-0.857526	1.530794	-1.361341	-0.625000	0.285889	-0.664551	0.060386	0.023809	0.092836	0.501186	-0.229520	-0.226026	-0.803147	9.527186	-36.529660	-119.220258
34154		6.080583	2.211013	9.118412	0.877671	0.177142	1.331924	-0.896059	1.528754	-1.361210	-0.618652	0.289307	-0.676270	0.061650	0.022099	0.090616	0.496446	-0.224080	-0.220185	-0.809227	9.469527	-35.540843	-119.984444
34155		6.246920	2.068918	8.818536	0.553117	-0.235511	1.173957	-0.909968	1.515908	-1.348231	-0.611084	0.279297	-0.665527	0.063274	0.020664	0.087614	0.491598	-0.218743	-0.214265	-0.815214	9.384245	-34.562837	-120.743043
34156		6.399621	1.973537	8.691008	0.297539	-0.548702	1.141349	-0.915270	1.492312	-1.327617	-0.608643	0.272705	-0.670898	0.064773	0.019703	0.086338	0.486816	-0.213482	-0.208345	-0.820992	9.275076	-33.599576	-121.473263
34157		6.526652	1.966849	8.578911	0.133324	-0.865908	1.109440	-0.929150	1.457298	-1.262997	-0.601563	0.280518	-0.670410	0.066013	0.019650	0.085219	0.482119	-0.208471	-0.202347	-0.826533	9.123033	-32.665006	-122.168333
34158		6.754207	1.831844	8.468700	-0.188116	-1.189316	1.107075	-0.934768	1.428380	-1.193262	-0.600098	0.275635	-0.677734	0.068253	0.018307	0.084116	0.477676	-0.203616	-0.196308	-0.831763	8.933025	-31.753336	-122.808474
34159		6.901404	1.646651	8.344411	-0.518320	-1.429689	1.034192	-0.907892	1.405854	-1.105825	-0.600342	0.274170	-0.676270	0.069689	0.016460	0.082881	0.473498	-0.198880	-0.190317	-0.836676	8.719598	-30.865520	-123.397987
34160		6.889878	1.641447	8.203580	-0.618018	-1.641148	0.882441	-0.857370	1.387218	-1.008051	-0.598633	0.261719	-0.672852	0.069548	0.016415	0.081485	0.469756	-0.194157	-0.184470	-0.841191	8.494999	-29.997192	-123.918243
34161		6.761871	1.638539	7.978843	-0.668815	-1.802500	0.597459	-0.803095	1.358921	-0.905011	-0.598633	0.278320	-0.680664	0.068233	0.016397	0.079260	0.466394	-0.189523	-0.178797	-0.845334	8.262671	-29.156710	-124.378948
34162		6.690365	1.619647	7.775015	-0.753138	-1.975330	0.354121	-0.726693	1.325710	-0.805479	-0.587158	0.275146	-0.689697	0.067482	0.016207	0.077245	0.463474	-0.184913	-0.173415	-0.849074	8.038891	-28.343504	-124.776486
34163		6.575704	1.604562	7.568987	-0.809283	-2.107714	0.087057	-0.638391	1.286872	-0.712903	-0.586182	0.268799	-0.691406	0.066299	0.016051	0.075213	0.460948	-0.180344	-0.168402	-0.852434	7.834760	-27.562223	-125.120444
34164		6.460916	1.693002	7.351874	-0.776166	-2.286713	-0.178025	-0.541406	1.247909	-0.627792	-0.586670	0.268311	-0.688232	0.065119	0.016924	0.073068	0.458827	-0.175766	-0.163804	-0.855425	7.659089	-26.809450	-125.412062
34165		6.314628	1.691293	7.247187	-0.783255	-2.334198	-0.368461	-0.438203	1.198576	-0.551621	-0.587158	0.263428	-0.698730	0.063626	0.016896	0.072054	0.457044	-0.171227	-0.159687	-0.858075	7.519697	-26.092377	-125.661858
34166		6.318649	1.691726	7.124971	-0.867610	-2.489519	-0.506731	-0.336970	1.151017	-0.483864	-0.579346	0.268311	-0.702148	0.063636	0.016883	0.070856	0.455572	-0.166701	-0.156042	-0.860416	7.418854	-25.406780	-125.874063
34167		6.221866	1.638704	7.069934	-0.932417	-2.504103	-0.634455	-0.239672	1.103482	-0.429382	-0.574707	0.267090	-0.713867	0.062643	0.016337	0.070335	0.454368	-0.162201	-0.152878	-0.862478	7.358563	-24.753534	-126.054814
34168		6.177860	1.590429	6.919133	-1.032868	-2.589839	-0.824092	-0.149103	1.049878	-0.365981	-0.579590	0.263184	-0.716309	0.062170	0.015842	0.068854	0.453448	-0.157762	-0.150165	-0.864260	7.333673	-24.134511	-126.200876
34169		6.203938	1.512624	6.921767	-1.171834	-2.639997	-0.849197	-0.065549	1.000140	-0.303321	-0.567871	0.255859	-0.711182	0.062407	0.015054	0.068901	0.452822	-0.153399	-0.147877	-0.865768	7.340820	-23.549363	-126.310448
34170		6.192160	1.477228	6.885693	-1.258653	-2.694105	-0.919167	0.012203	0.951028	-0.241144	-0.569580	0.253174	-0.718750	0.062266	0.014693	0.068562	0.452456	-0.149109	-0.145979	-0.867029	7.377718	-22.995751	-126.387401
34171		6.131882	1.441067	6.843068	-1.317139	-2.707912	-1.012916	0.079786	0.898451	-0.166404	-0.570801	0.258057	-0.728271	0.061637	0.014332	0.068160	0.452437	-0.144950	-0.144440	-0.868002	7.436095	-22.478372	-126.419092
34172		6.111872	1.332270	6.806787	-1.453527	-2.703573	-1.092614	0.140036	0.853314	-0.100272	-0.566162	0.253662	-0.741211	0.061415	0.013244	0.067816	0.452680	-0.140893	-0.143208	-0.868747	7.514617	-21.990723	-126.416508
34173		6.108739	1.349821	6.858697	-1.481298	-2.743079	-1.068475	0.209301	0.807227	-0.026575	-0.558350	0.255127	-0.751953	0.061365	0.013418	0.068354	0.453277	-0.136933	-0.142333	-0.869212	7.617089	-21.535626	-126.368331
34174		6.212124	1.480068	6.942416	-1.469881	-2.908641	-0.960734	0.270184	0.770915	0.030124	-0.557617	0.248291	-0.749268	0.062386	0.014716	0.069204	0.454108	-0.133027	-0.141759	-0.869479	7.743168	-21.104827	-126.290638
34175		6.092377	1.570884	6.980777	-1.371020	-2.898932	-0.979109	0.310500	0.746492	0.089199	-0.552490	0.252441	-0.744629	0.061177	0.015628	0.069604	0.455219	-0.129178	-0.141378	-0.869541	7.880367	-20.693417	-126.175369
34176		5.957150	1.665707	6.852318	-1.273624	-2.936839	-1.154222	0.339993	0.715845	0.138882	-0.543457	0.250000	-0.759521	0.059805	0.016582	0.068338	0.456509	-0.125427	-0.141157	-0.869449	8.025504	-20.302943	-126.035364
34177		5.732054	1.726750	6.695289	-1.152274	-2.893194	-1.388529	0.367379	0.673375	0.177402	-0.548340	0.239502	-0.757813	0.057530	0.017196	0.066791	0.457974	-0.121825	-0.141130	-0.869196	8.180025	-19.940683	-125.871460
34178		5.671456	1.831316	6.685849	-1.069260	-2.939734	-1.420181	0.393051	0.626610	0.210273	-0.539551	0.240967	-0.769531	0.056905	0.018242	0.066716	0.459530	-0.118388	-0.141295	-0.868822	8.344844	-19.607487	-125.694686
34179		5.644165	2.067789	6.774155	-0.884873	-3.043243	-1.328760	0.411901	0.582341	0.223176	-0.533691	0.235352	-0.763184	0.056616	0.020602	0.067619	0.461143	-0.115108	-0.141639	-0.868352	8.519701	-19.301559	-125.509858
34180		5.605869	2.288077	6.884731	-0.706055	-3.117646	-1.219539	0.418750	0.555702	0.220357	-0.531494	0.236328	-0.772705	0.056225	0.022799	0.068739	0.462695	-0.111924	-0.142070	-0.867873	8.700761	-19.010508	-125.332142
34181		5.412445	2.394088	6.857135	-0.545670	-3.056635	-1.303539	0.407842	0.521913	0.213021	-0.529053	0.238525	-0.766602	0.054278	0.023859	0.068479	0.464206	-0.108906	-0.142538	-0.867373	8.878392	-18.738998	-125.157619
34182		5.173865	2.437421	6.780787	-0.415250	-2.940073	-1.453716	0.410759	0.481159	0.179684	-0.525879	0.230957	-0.770264	0.051880	0.024282	0.067733	0.465512	-0.106033	-0.143126	-0.866932	9.066101	-18.487660	-125.010049
34183		5.087311	2.492206	6.740140	-0.355347	-2.930226	-1.517586	0.407881	0.427715	0.148216	-0.515137	0.234131	-0.776123	0.050999	0.024822	0.067343	0.466665	-0.103375	-0.143845	-0.866514	9.259801	-18.264603	-124.881859
34184		5.003350	2.598560	6.772518	-0.250427	-2.919755	-1.502137	0.405395	0.380575	0.099919	-0.520264	0.233887	-0.780762	0.050149	0.025873	0.067682	0.467542	-0.100891	-0.144684	-0.866194	9.463030	-18.063732	-124.790143
34185		4.992171	2.572724	6.866938	-0.294131	-2.871959	-1.424555	0.393718	0.328974	0.048721	-0.522461	0.238281	-0.780762	0.050028	0.025604	0.068638	0.468179	-0.098620	-0.145621	-0.865954	9.670337	-17.887851	-124.729580
34186		4.965368	2.588094	6.839833	-0.300460	-2.872120	-1.458229	0.381728	0.283444	-0.013039	-0.516846	0.221680	-0.776611	0.049752	0.025747	0.068377	0.468478	-0.096530	-0.146640	-0.865856	9.883720	-17.731558	-124.713587
34187		4.872825	2.536598	6.753593	-0.328973	-2.803632	-1.577330	0.362481	0.237129	-0.069627	-0.516602	0.223877	-0.775879	0.048817	0.025227	0.067524	0.468515	-0.094642	-0.147713	-0.865862	10.097235	-17.596169	-124.731433
34188		4.782372	2.365152	6.612821	-0.459791	-2.690449	-1.766296	0.339148	0.176759	-0.125904	-0.519775	0.219482	-0.784424	0.047897	0.023509	0.066126	0.468217	-0.093031	-0.148851	-0.866003	10.309540	-17.488800	-124.792922
34189		4.749553	2.292170	6.538587	-0.535369	-2.647091	-1.858341	0.312930	0.112604	-0.168741	-0.508545	0.212646	-0.776367	0.047552	0.022779	0.065395	0.467706	-0.091724	-0.150046	-0.866213	10.515892	-17.413198	-124.881765
34190		4.798940	2.166307	6.539421	-0.696957	-2.610748	-1.863794	0.294981	0.040694	-0.211072	-0.515869	0.213867	-0.782959	0.048025	0.021516	0.065416	0.466914	-0.090742	-0.151350	-0.866516	10.722040	-17.373124	-125.007646
34191		4.732296	2.113727	6.517109	-0.731640	-2.525412	-1.911922	0.265847	-0.031200	-0.243159	-0.512695	0.208008	-0.783203	0.047338	0.020993	0.065206	0.465947	-0.090111	-0.152710	-0.866864	10.919059	-17.369845	-125.155974
34192		4.717921	2.028073	6.475965	-0.819992	-2.465982	-1.966896	0.235264	-0.114320	-0.279599	-0.516602	0.206787	-0.778076	0.047170	0.020139	0.064810	0.464711	-0.089887	-0.154147	-0.867296	11.108298	-17.408706	-125.339630
34193		4.782974	1.971111	6.445255	-0.924598	-2.475034	-1.981808	0.200162	-0.197645	-0.315739	-0.510986	0.197510	-0.775146	0.047797	0.019571	0.064519	0.463269	-0.090075	-0.155642	-0.867781	11.286528	-17.489971	-125.550169
34194		4.724332	1.835838	6.406779	-1.022607	-2.345154	-2.054410	0.161246	-0.280271	-0.346630	-0.521973	0.203857	-0.775391	0.047185	0.018225	0.064149	0.461576	-0.090691	-0.157171	-0.868343	11.451823	-17.613473	-125.793438
34195		4.853722	1.757150	6.385447	-1.174268	-2.379261	-2.042216	0.137139	-0.367069	-0.379475	-0.523926	0.197998	-0.772949	0.048453	0.017436	0.063955	0.459690	-0.091709	-0.158811	-0.868938	11.612662	-17.781375	-126.062690
34196		5.138992	1.809837	6.582862	-1.299960	-2.517472	-1.750981	0.107992	-0.433596	-0.413518	-0.520264	0.197998	-0.769043	0.051284	0.017957	0.065950	0.457553	-0.093059	-0.160491	-0.869614	11.766979	-17.981920	-126.365413
34197		5.273353	1.867195	6.785948	-1.334559	-2.534317	-1.497655	0.062291	-0.490942	-0.435974	-0.531738	0.195801	-0.771729	0.052607	0.018536	0.067995	0.455280	-0.094740	-0.162112	-0.870324	11.902305	-18.211293	-126.684846
34198		5.468701	1.805862	6.942483	-1.499538	-2.546472	-1.290213	0.019561	-0.536755	-0.465839	-0.536865	0.196045	-0.764893	0.054542	0.017925	0.069573	0.452784	-0.096697	-0.163664	-0.871120	12.022545	-18.462140	-127.032641
34199		6.024305	1.829993	7.386077	-1.793726	-2.764180	-0.683785	-0.003694	-0.549418	-0.516633	-0.540039	0.192871	-0.761475	0.060087	0.018146	0.074026	0.450069	-0.098714	-0.165165	-0.872017	12.140841	-18.713291	-127.409100
34200		6.241732	1.953458	7.674737	-1.818579	-2.833212	-0.307833	-0.050378	-0.517729	-0.567456	-0.536377	0.178223	-0.760010	0.062274	0.019377	0.076904	0.447097	-0.100660	-0.166415	-0.873085	12.243089	-18.939948	-127.816848
34201		6.026233	1.928818	7.584422	-1.723633	-2.644460	-0.453467	-0.111117	-0.494021	-0.612180	-0.538330	0.184326	-0.741455	0.060134	0.019146	0.075982	0.443944	-0.102595	-0.167366	-0.874287	12.319439	-19.147196	-128.244698
34202		5.760829	1.698646	7.374849	-1.766993	-2.356309	-0.769108	-0.168897	-0.501901	-0.648307	-0.545410	0.180176	-0.751709	0.057478	0.016862	0.073879	0.440559	-0.104665	-0.168098	-0.875612	12.372287	-19.354126	-128.699706
34203		5.602537	1.392352	7.170122	-1.929551	-2.104220	-1.061309	-0.203768	-0.536046	-0.666561	-0.543945	0.180176	-0.746338	0.055879	0.013810	0.071837	0.437069	-0.106939	-0.168758	-0.876958	12.411620	-19.577423	-129.166841
34204		5.583575	1.162968	7.093664	-2.104093	-1.943709	-1.173043	-0.206593	-0.578720	-0.682357	-0.554199	0.177979	-0.738770	0.055670	0.011513	0.071086	0.433438	-0.109396	-0.169506	-0.878312	12.456947	-19.822520	-129.653208
34205		5.520846	1.014546	7.108351	-2.179681	-1.756717	-1.198723	-0.208761	-0.626158	-0.679127	-0.555908	0.184814	-0.737305	0.055020	0.010033	0.071245	0.429796	-0.112061	-0.170340	-0.879604	12.504421	-20.093990	-130.141501
34206		5.428652	0.887431	7.120470	-2.215566	-1.557600	-1.232259	-0.208546	-0.672603	-0.664075	-0.558105	0.177246	-0.730957	0.054076	0.008769	0.071378	0.426145	-0.114946	-0.171263	-0.880827	12.554184	-20.393167	-130.631374
34207		5.405658	0.752392	7.174573	-2.291973	-1.382744	-1.204768	-0.196771	-0.721711	-0.636174	-0.564697	0.177246	-0.725586	0.053821	0.007423	0.071933	0.422597	-0.118037	-0.172322	-0.881921	12.609630	-20.722620	-131.109152
34208		5.385827	0.610220	7.285380	-2.367271	-1.177614	-1.125621	-0.173622	-0.769153	-0.611883	-0.574951	0.177490	-0.720703	0.053596	0.006001	0.073055	0.419096	-0.121312	-0.173565	-0.882903	12.679078	-21.081444	-131.583072
34209		5.363282	0.530241	7.430012	-2.384618	-0.987986	-1.004279	-0.146410	-0.810300	-0.579065	-0.576904	0.171143	-0.715820	0.053346	0.005202	0.074513	0.415732	-0.124732	-0.174989	-0.883735	12.762021	-21.466531	-132.041734
34210		5.363172	0.501445	7.569016	-2.371462	-0.841489	-0.869947	-0.121741	-0.849703	-0.540957	-0.572021	0.175781	-0.709961	0.053323	0.004916	0.075914	0.412484	-0.128311	-0.176577	-0.884428	12.856723	-21.878150	-132.487705
34211		5.374353	0.505882	7.730390	-2.332925	-0.709366	-0.704877	-0.104151	-0.879205	-0.500437	-0.581543	0.169678	-0.701172	0.053416	0.004965	0.077537	0.409412	-0.132010	-0.178272	-0.884971	12.957227	-22.310390	-132.912460
34212		5.351769	0.430521	8.061624	-2.314102	-0.430374	-0.417176	-0.086062	-0.906001	-0.449327	-0.584961	0.173340	-0.703613	0.053161	0.004220	0.080856	0.406531	-0.135837	-0.180065	-0.885357	13.061937	-22.763823	-133.313963
34213		5.530416	0.407214	8.320826	-2.382924	-0.344153	-0.107533	-0.059312	-0.904790	-0.398402	-0.599609	0.169922	-0.682373	0.054935	0.003987	0.083456	0.403896	-0.139643	-0.181933	-0.885589	13.173294	-23.222157	-133.684980
34214		5.661602	0.420432	8.712276	-2.376970	-0.186730	0.309007	-0.035726	-0.880451	-0.348752	-0.602539	0.180176	-0.693115	0.056239	0.004122	0.087370	0.401498	-0.143340	-0.183819	-0.885699	13.288716	-23.673137	-134.026304
34215		5.749014	0.385524	9.059232	-2.381764	0.010899	0.656119	-0.008195	-0.822217	-0.284756	-0.600830	0.172119	-0.681396	0.057122	0.003777	0.090828	0.399461	-0.146775	-0.185659	-0.885674	13.403601	-24.099102	-134.320600
34216		5.560705	0.351050	9.222978	-2.230368	0.303738	0.724896	0.009859	-0.741595	-0.228945	-0.607910	0.171875	-0.673096	0.055269	0.003443	0.092435	0.397748	-0.149869	-0.187375	-0.885566	13.512883	-24.487445	-134.571350
34217		5.162379	0.289036	9.255314	-1.982375	0.682658	0.579534	0.034154	-0.681506	-0.161771	-0.603516	0.166260	-0.671387	0.051310	0.002833	0.092729	0.396405	-0.152706	-0.189025	-0.885332	13.617056	-24.850534	-134.773066
34218		4.879054	0.172499	9.317260	-1.847334	1.026873	0.491622	0.064401	-0.632714	-0.090335	-0.607910	0.171387	-0.662598	0.048496	0.001673	0.093327	0.395440	-0.155337	-0.190657	-0.884956	13.718825	-25.196213	-134.925427
34219		4.701253	0.146494	9.451898	-1.704361	1.276414	0.527874	0.111180	-0.586799	-0.020214	-0.608154	0.168213	-0.664307	0.046735	0.001408	0.094657	0.394864	-0.157734	-0.192346	-0.884424	13.826987	-25.525240	-135.028267
34220		4.589593	0.256368	9.653163	-1.494698	1.428227	0.677280	0.143044	-0.536622	0.044750	-0.610840	0.174316	-0.658203	0.045636	0.002505	0.096656	0.394647	-0.159910	-0.194027	-0.883762	13.933811	-25.835514	-135.084169
34221		4.360163	0.395920	9.846202	-1.190945	1.629885	0.772223	0.169819	-0.484543	0.111789	-0.606445	0.178223	-0.655518	0.043361	0.003900	0.098571	0.394794	-0.161864	-0.195666	-0.882979	14.034736	-26.125621	-135.091504
34222		4.190408	0.481689	10.004556	-0.973207	1.806799	0.848965	0.184004	-0.431750	0.170331	-0.614502	0.179443	-0.658203	0.041684	0.004760	0.100140	0.395269	-0.163614	-0.197219	-0.882098	14.124465	-26.394905	-135.053747
34223		4.094077	0.502377	10.165395	-0.853946	1.975031	0.944587	0.204496	-0.387622	0.225980	-0.624268	0.179199	-0.646729	0.040738	0.004966	0.101738	0.396038	-0.165182	-0.198724	-0.881123	14.207356	-26.647158	-134.976059
34224		4.054588	0.647740	10.358013	-0.674429	2.044574	1.119485	0.225340	-0.334368	0.266169	-0.621826	0.174805	-0.644775	0.040364	0.006414	0.103655	0.397060	-0.166514	-0.200183	-0.880082	14.286996	-26.875962	-134.864219
34225		4.026167	0.749228	10.487069	-0.547573	2.100235	1.234441	0.238638	-0.272998	0.306318	-0.613525	0.176514	-0.649170	0.040107	0.007429	0.104934	0.398320	-0.167587	-0.201543	-0.878997	14.358136	-27.076158	-134.718718
34226		3.971537	0.810501	10.505231	-0.453679	2.138969	1.233072	0.250127	-0.217890	0.343242	-0.605713	0.177979	-0.642578	0.039587	0.008042	0.105106	0.399813	-0.168433	-0.202813	-0.877865	14.420884	-27.251513	-134.540414
34227		3.976580	0.891807	10.553362	-0.381521	2.138571	1.289693	0.266214	-0.158072	0.377886	-0.613770	0.186768	-0.640137	0.039666	0.008853	0.105577	0.401523	-0.169017	-0.204001	-0.876696	14.478050	-27.398463	-134.331767
34228		4.041445	0.993185	10.630956	-0.331097	2.099110	1.404308	0.280983	-0.100227	0.399770	-0.616699	0.186279	-0.641113	0.040341	0.009863	0.106344	0.403411	-0.169339	-0.205121	-0.875505	14.532495	-27.516928	-134.098223
34229		4.154228	1.066617	10.603994	-0.349053	1.989538	1.446080	0.287875	-0.038185	0.425343	-0.610107	0.184570	-0.645264	0.041499	0.010602	0.106063	0.405465	-0.169401	-0.206120	-0.874309	14.578500	-27.604569	-133.840278
34230		4.088535	1.187411	10.564451	-0.225902	1.954753	1.406118	0.299934	0.032778	0.438984	-0.610107	0.182617	-0.636475	0.040877	0.011805	0.105656	0.407671	-0.169141	-0.207018	-0.873121	14.621638	-27.655264	-133.560437
34231		3.932253	1.189232	10.291311	-0.173191	1.927110	1.098051	0.299484	0.067100	0.456327	-0.609375	0.183594	-0.638428	0.039330	0.011828	0.102918	0.409972	-0.168749	-0.207825	-0.871926	14.656792	-27.689360	-133.265763
34232		3.827034	1.152303	10.112819	-0.171490	1.933879	0.886556	0.305272	0.088743	0.466924	-0.614014	0.190186	-0.640625	0.038288	0.011458	0.101129	0.412353	-0.168260	-0.208604	-0.870711	14.690207	-27.713391	-132.959631
34233		3.946177	1.193316	9.997102	-0.236988	1.781203	0.850779	0.320038	0.093062	0.475566	-0.599121	0.184570	-0.641357	0.039480	0.011867	0.099972	0.414776	-0.167730	-0.209427	-0.869464	14.729267	-27.736220	-132.648553
34234		4.071672	1.309256	9.946926	-0.238148	1.614253	0.891119	0.325496	0.100667	0.489488	-0.610352	0.192383	-0.650391	0.040735	0.013030	0.099470	0.417280	-0.167168	-0.210247	-0.868176	14.766474	-27.757247	-132.325997
34235		4.127298	1.366172	9.906557	-0.241695	1.530714	0.894290	0.321350	0.104250	0.497914	-0.600342	0.192139	-0.642822	0.041291	0.013605	0.099066	0.419805	-0.166607	-0.211031	-0.866875	14.798659	-27.777494	-131.998989
34236		4.079211	1.431303	9.782815	-0.185000	1.467906	0.779908	0.313128	0.109057	0.509122	-0.598389	0.193848	-0.644531	0.040809	0.014264	0.097828	0.422386	-0.166052	-0.211759	-0.865549	14.822115	-27.797026	-131.662449
34237		4.047924	1.442979	9.654243	-0.179777	1.421378	0.657253	0.309355	0.098059	0.517020	-0.609863	0.197754	-0.646973	0.040489	0.014385	0.096545	0.424970	-0.165561	-0.212484	-0.864199	14.842057	-27.823756	-131.324394
34238		3.981636	1.453868	9.677185	-0.137416	1.476316	0.647555	0.306639	0.086650	0.515000	-0.601318	0.199707	-0.642090	0.039821	0.014493	0.096777	0.427538	-0.165120	-0.213222	-0.862834	14.861447	-27.856757	-130.987968
34239		4.036101	1.486758	9.724591	-0.144922	1.452173	0.720043	0.306239	0.084005	0.503858	-0.598633	0.199707	-0.643066	0.040364	0.014820	0.097252	0.430040	-0.164678	-0.213971	-0.861489	14.884142	-27.889545	-130.660322
34240		4.071176	1.572144	9.916106	-0.084729	1.486209	0.918541	0.303533	0.095687	0.492450	-0.599609	0.196045	-0.648682	0.040721	0.015671	0.099165	0.432509	-0.164178	-0.214690	-0.860168	14.907236	-27.914424	-130.336462
34241		4.023300	1.674728	10.033179	0.028439	1.527975	1.018786	0.283472	0.118387	0.468878	-0.593506	0.196045	-0.642822	0.040253	0.016699	0.100332	0.434871	-0.163597	-0.215292	-0.858937	14.924180	-27.923235	-130.024885
34242		3.823302	1.632099	10.010708	0.095304	1.676139	0.896053	0.253621	0.136916	0.445478	-0.591064	0.208984	-0.657227	0.038265	0.016279	0.100102	0.437134	-0.162976	-0.215742	-0.857793	14.929097	-27.918488	-129.723745
34243		3.773131	1.586248	9.951618	0.071223	1.703130	0.811891	0.219248	0.142648	0.421735	-0.583496	0.201660	-0.647949	0.037769	0.015833	0.099507	0.439261	-0.162378	-0.216051	-0.856741	14.921211	-27.906955	-129.437672
34244		3.720863	1.580987	9.935467	0.086159	1.729987	0.773036	0.193014	0.154038	0.394692	-0.591797	0.201660	-0.655273	0.037254	0.015787	0.099341	0.441277	-0.161757	-0.216243	-0.855774	14.905046	-27.885108	-129.164605
34245		3.681539	1.541273	9.967882	0.069809	1.788233	0.774345	0.160983	0.168313	0.367465	-0.589111	0.201416	-0.649170	0.036871	0.015400	0.099660	0.443148	-0.161117	-0.216288	-0.854916	14.877923	-27.851226	-128.908374
34246		3.549597	1.482150	9.904433	0.081094	1.868207	0.646634	0.129390	0.179978	0.344282	-0.592285	0.199463	-0.648682	0.035560	0.014819	0.099022	0.444914	-0.160471	-0.216188	-0.854145	14.838392	-27.807370	-128.663626
34247		3.483532	1.413822	9.878386	0.051797	1.924363	0.580124	0.097966	0.187474	0.316625	-0.592529	0.194336	-0.645996	0.034906	0.014145	0.098758	0.446534	-0.159833	-0.215959	-0.853477	14.788984	-27.755119	-128.436310
34248		3.493715	1.328509	9.869281	-0.031700	1.942607	0.560303	0.073248	0.197406	0.293517	-0.588867	0.197998	-0.660156	0.035015	0.013300	0.098663	0.448046	-0.159183	-0.215619	-0.852892	14.731271	-27.693826	-128.221851
34249		3.543299	1.296889	9.862058	-0.091953	1.904569	0.572938	0.056814	0.216805	0.275881	-0.584473	0.207275	-0.656006	0.035522	0.012990	0.098586	0.449488	-0.158467	-0.215180	-0.852377	14.668496	-27.618995	-128.015591
34250		3.558775	1.243613	9.876392	-0.150131	1.908688	0.583894	0.032275	0.245330	0.261753	-0.590332	0.199219	-0.654297	0.035693	0.012467	0.098722	0.450886	-0.157669	-0.214582	-0.851937	14.593542	-27.526046	-127.812912
34251		3.510853	1.193996	9.714666	-0.184099	1.862101	0.415953	0.009610	0.276129	0.258983	-0.585205	0.204102	-0.660889	0.035227	0.011981	0.097099	0.452280	-0.156787	-0.213821	-0.851552	14.505011	-27.415404	-127.608161
34252		3.442371	1.089607	9.622158	-0.247251	1.889029	0.286493	-0.012962	0.304459	0.266799	-0.585449	0.197021	-0.666992	0.034556	0.010948	0.096168	0.453719	-0.155845	-0.212889	-0.851193	14.399323	-27.289799	-127.394223
34253		3.525140	1.016154	9.597876	-0.361023	1.825073	0.292612	-0.023220	0.328144	0.281442	-0.590576	0.205811	-0.667236	0.035394	0.010222	0.095920	0.455235	-0.154838	-0.211851	-0.850826	14.282980	-27.152812	-127.168065
34254		3.590739	1.062047	9.550869	-0.366678	1.699275	0.297622	-0.030293	0.357620	0.295581	-0.587402	0.212646	-0.674561	0.036062	0.010688	0.095443	0.456833	-0.153738	-0.210700	-0.850455	14.156751	-27.000937	-126.929090
34255		3.609254	1.142145	9.468107	-0.320215	1.569166	0.257631	-0.043642	0.388036	0.322395	-0.583984	0.205322	-0.671387	0.036258	0.011500	0.094608	0.458566	-0.152566	-0.209405	-0.850053	14.014565	-26.835480	-126.669339
34256		3.694142	1.164837	9.443368	-0.351978	1.445547	0.285188	-0.059924	0.410327	0.354373	-0.586670	0.211182	-0.671631	0.037114	0.011742	0.094354	0.460441	-0.151369	-0.207960	-0.849608	13.853102	-26.661314	-126.387157
34257		3.809481	1.206816	9.341354	-0.387181	1.249509	0.262932	-0.061097	0.434262	0.384155	-0.586426	0.198975	-0.684082	0.038274	0.012170	0.093327	0.462465	-0.150102	-0.206435	-0.849106	13.682804	-26.477273	-126.083757
34258		3.749335	1.278066	9.193579	-0.306629	1.142028	0.127858	-0.058780	0.452765	0.419695	-0.581543	0.208008	-0.680176	0.037674	0.012887	0.091847	0.464648	-0.148790	-0.204842	-0.848530	13.503645	-26.286782	-125.757583
34259		3.669235	1.327798	8.925092	-0.240475	1.002133	-0.126546	-0.051181	0.454073	0.446122	-0.574463	0.201660	-0.683105	0.036865	0.013383	0.089164	0.466953	-0.147477	-0.203263	-0.847873	13.323530	-26.098261	-125.415022
34260		3.571111	1.394341	8.696196	-0.146859	0.890239	-0.351894	-0.031869	0.437945	0.478843	-0.576904	0.215576	-0.688721	0.035868	0.014043	0.086881	0.469381	-0.146222	-0.201771	-0.847106	13.147575	-25.921955	-125.056914
34261		3.684215	1.552961	8.631419	-0.072761	0.662634	-0.323639	-0.004456	0.406234	0.499138	-0.572266	0.211182	-0.697021	0.036978	0.015624	0.086239	0.471888	-0.145053	-0.200459	-0.846226	12.985776	-25.765143	-124.690653
34262		3.941858	1.831837	8.743934	0.042707	0.358134	-0.054611	0.011828	0.398097	0.509572	-0.571533	0.218262	-0.703613	0.039546	0.018414	0.087362	0.474428	-0.143892	-0.199219	-0.845296	12.831761	-25.613164	-124.321183
34263		4.113828	2.048518	8.834035	0.149249	0.135973	0.143181	0.019309	0.409619	0.506531	-0.571777	0.208984	-0.698242	0.041267	0.020581	0.088258	0.476977	-0.142657	-0.197990	-0.844359	12.684002	-25.453621	-123.951763
34264		4.169202	2.301784	8.815394	0.342040	-0.068008	0.200798	0.011449	0.422467	0.501501	-0.571289	0.220947	-0.699219	0.041820	0.023118	0.088067	0.479495	-0.141384	-0.196692	-0.843450	12.533148	-25.285262	-123.586201
34265		4.039517	2.315103	8.642011	0.413533	-0.093318	-0.005449	0.002287	0.430196	0.493447	-0.571045	0.213867	-0.694580	0.040524	0.023250	0.086333	0.481986	-0.140086	-0.195346	-0.842558	12.380670	-25.110841	-123.224015
34266		4.044050	2.375403	8.464026	0.459263	-0.242035	-0.150027	0.002063	0.418643	0.483714	-0.571289	0.219482	-0.707031	0.040560	0.023851	0.084556	0.484401	-0.138833	-0.194026	-0.841686	12.232192	-24.940733	-122.873030
34267		4.024611	2.404675	8.403047	0.495978	-0.301896	-0.207797	0.006932	0.406737	0.471622	-0.561035	0.217041	-0.712891	0.040360	0.024139	0.083949	0.486772	-0.137600	-0.192768	-0.840809	12.092138	-24.775134	-122.529434
34268		4.044658	2.520280	8.296877	0.587231	-0.449591	-0.273181	0.006868	0.390497	0.461421	-0.563721	0.221924	-0.711426	0.040550	0.025293	0.082891	0.489059	-0.136429	-0.191548	-0.839951	11.956349	-24.616557	-122.197752
34269		4.084002	2.591314	8.278799	0.634850	-0.549474	-0.261381	0.015367	0.376977	0.452786	-0.556885	0.222900	-0.716309	0.040937	0.025999	0.082713	0.491319	-0.135279	-0.190408	-0.839077	11.830005	-24.463957	-121.871361
34270		4.069452	2.642580	8.266617	0.691770	-0.594287	-0.270736	0.017450	0.356508	0.438555	-0.559570	0.228271	-0.719238	0.040784	0.026508	0.082596	0.493477	-0.134201	-0.189328	-0.838228	11.710190	-24.320431	-121.559861
34271		4.086053	2.767863	8.178565	0.796665	-0.727875	-0.321571	0.014739	0.342268	0.433557	-0.562256	0.228271	-0.725342	0.040940	0.027761	0.081718	0.495615	-0.133178	-0.188281	-0.837365	11.592248	-24.183831	-121.251163
34272		4.001520	2.799828	8.100004	0.868698	-0.734957	-0.422990	0.015819	0.320388	0.418495	-0.554199	0.227539	-0.723877	0.040086	0.028076	0.080938	0.497643	-0.132234	-0.187294	-0.836532	11.480329	-24.057130	-120.958196
34273		3.973795	2.829785	8.023073	0.912561	-0.781929	-0.500104	0.014899	0.295669	0.406667	-0.551514	0.235352	-0.727539	0.039799	0.028373	0.080174	0.499619	-0.131379	-0.186378	-0.835694	11.373284	-23.942546	-120.673015
34274		3.917357	2.889159	7.944364	0.996208	-0.817189	-0.585250	0.016997	0.272567	0.391649	-0.552246	0.224854	-0.728271	0.039225	0.028962	0.079393	0.501486	-0.130605	-0.185531	-0.834885	11.272642	-23.838683	-120.403353
34275		3.917910	3.031418	7.951588	1.129871	-0.892353	-0.555564	0.015927	0.254815	0.375349	-0.554199	0.233887	-0.726807	0.039223	0.030381	0.079468	0.503287	-0.129887	-0.184741	-0.834088	11.177271	-23.742649	-120.143292
34276		3.947376	3.142538	8.018626	1.225083	-0.949078	-0.466347	0.008827	0.234090	0.355925	-0.550293	0.233398	-0.734863	0.039512	0.031492	0.080141	0.504955	-0.129261	-0.183977	-0.833345	11.083839	-23.655659	-119.901661
34277		3.966344	3.305353	8.146933	1.373141	-0.991628	-0.317378	0.001542	0.229851	0.328202	-0.549072	0.234131	-0.736816	0.039703	0.033118	0.081424	0.506523	-0.128639	-0.183219	-0.832657	10.994036	-23.567719	-119.674223
34278		3.850026	3.422652	8.123609	1.537719	-0.972950	-0.367104	-0.018268	0.211337	0.291956	-0.550537	0.237305	-0.733643	0.038536	0.034290	0.081192	0.507883	-0.128116	-0.182441	-0.832080	10.902790	-23.485850	-119.474988
34279		3.769719	3.513570	8.041369	1.661134	-0.996359	-0.460284	-0.038633	0.197486	0.261971	-0.554443	0.230713	-0.746338	0.037730	0.035201	0.080370	0.509117	-0.127669	-0.181638	-0.831570	10.808482	-23.408309	-119.292571
34280		3.692511	3.548275	8.016627	1.734449	-0.973222	-0.510231	-0.050709	0.178190	0.222061	-0.543945	0.238525	-0.739990	0.036957	0.035544	0.080124	0.510129	-0.127303	-0.180853	-0.831176	10.717960	-23.337042	-119.141117
34281		3.734452	3.671552	8.114477	1.836192	-1.028693	-0.387120	-0.058463	0.161844	0.174421	-0.550781	0.244873	-0.734619	0.037378	0.036772	0.081104	0.510952	-0.126974	-0.180114	-0.830882	10.635755	-23.269753	-119.016954
34282		3.754476	3.793187	8.200844	1.945098	-1.071367	-0.283420	-0.075245	0.154595	0.126616	-0.547852	0.244141	-0.738281	0.037584	0.037987	0.081965	0.511530	-0.126682	-0.179348	-0.830736	10.555868	-23.201294	-118.926992
34283		3.684329	3.755991	8.123530	1.946772	-1.046968	-0.389981	-0.093837	0.151312	0.081444	-0.545654	0.251221	-0.735107	0.036889	0.037613	0.081190	0.511934	-0.126404	-0.178548	-0.830702	10.476684	-23.129897	-118.861332
34284		3.554505	3.716013	7.951065	1.968620	-1.014362	-0.606262	-0.102203	0.140007	0.036223	-0.549561	0.236816	-0.744873	0.035594	0.037207	0.079467	0.512105	-0.126160	-0.177764	-0.830802	10.404110	-23.060040	-118.828822
34285		3.561422	3.701069	7.880600	1.953741	-1.058056	-0.672179	-0.107062	0.120631	-0.009468	-0.544189	0.238037	-0.743652	0.035663	0.037051	0.078765	0.512095	-0.125962	-0.177044	-0.830992	10.340720	-22.996405	-118.822537
34286		3.615000	3.699870	7.924377	1.932274	-1.096200	-0.613902	-0.104977	0.109433	-0.042656	-0.553955	0.245361	-0.740479	0.036201	0.037033	0.079205	0.511907	-0.125782	-0.176378	-0.831277	10.286954	-22.935631	-118.842140
34287		3.643587	3.633180	7.922472	1.860152	-1.106065	-0.617160	-0.099588	0.104945	-0.087802	-0.550293	0.247314	-0.744873	0.036493	0.036355	0.079187	0.511561	-0.125560	-0.175778	-0.831650	10.247247	-22.872828	-118.885670
34288		3.558902	3.612162	7.862349	1.875452	-1.067824	-0.709257	-0.092974	0.098393	-0.120609	-0.549805	0.241699	-0.748047	0.035649	0.036137	0.078589	0.511043	-0.125327	-0.175238	-0.832118	10.219414	-22.810377	-118.954680
34289		3.560146	3.544129	7.906648	1.811968	-1.034344	-0.680467	-0.081264	0.083980	-0.147126	-0.545654	0.248291	-0.747559	0.035661	0.035447	0.079037	0.510443	-0.125094	-0.174806	-0.832612	10.205074	-22.753408	-119.036828
34290		3.672677	3.491958	7.950376	1.710882	-1.095991	-0.606033	-0.060861	0.072152	-0.171964	-0.548584	0.244873	-0.744629	0.036785	0.034912	0.079480	0.509711	-0.124842	-0.174499	-0.833162	10.208807	-22.700553	-119.139693
34291		3.765518	3.425327	8.080720	1.606223	-1.097773	-0.462556	-0.042224	0.065924	-0.185973	-0.546387	0.243408	-0.748291	0.037714	0.034235	0.080788	0.508956	-0.124550	-0.174299	-0.833709	10.226586	-22.649810	-119.247500
34292		3.793137	3.411347	8.117190	1.573119	-1.107695	-0.420550	-0.029596	0.070268	-0.198604	-0.538086	0.245850	-0.740234	0.037994	0.034088	0.081154	0.508129	-0.124202	-0.174144	-0.834297	10.254421	-22.595256	-119.366821
34293		3.741095	3.312999	8.111179	1.498727	-1.034294	-0.461376	-0.013942	0.056492	-0.193414	-0.547607	0.239990	-0.737061	0.037466	0.033099	0.081099	0.507352	-0.123871	-0.174090	-0.834831	10.290318	-22.548975	-119.480082
34294		3.768120	3.237037	8.112219	1.407671	-1.028998	-0.461493	0.010479	0.048494	-0.199319	-0.548340	0.232910	-0.743896	0.037733	0.032329	0.081115	0.506527	-0.123511	-0.174159	-0.835370	10.342023	-22.506483	-119.602065
34295		3.763782	3.277047	8.195573	1.434768	-1.011789	-0.379225	0.038924	0.047420	-0.199066	-0.548096	0.246094	-0.748535	0.037690	0.032717	0.081953	0.505750	-0.123079	-0.174352	-0.835865	10.409696	-22.464542	-119.719625
34296		3.705845	3.280742	8.230966	1.450827	-0.954812	-0.366589	0.059399	0.043294	-0.202941	-0.549805	0.245850	-0.742432	0.037110	0.032745	0.082311	0.504933	-0.122614	-0.174640	-0.836367	10.490324	-22.424363	-119.844419
34297		3.630947	3.221572	8.160400	1.414815	-0.900114	-0.466966	0.076386	0.040387	-0.206523	-0.552734	0.237061	-0.748291	0.036359	0.032147	0.081609	0.504141	-0.122110	-0.175011	-0.836841	10.581269	-22.385300	-119.967125
34298		3.522614	3.212246	8.138490	1.438788	-0.818524	-0.527095	0.097168	0.029616	-0.215500	-0.546387	0.232178	-0.745117	0.035273	0.032045	0.081395	0.503280	-0.121595	-0.175499	-0.837331	10.686866	-22.351143	-120.101108
34299		3.510344	3.168781	8.252712	1.390567	-0.740420	-0.432441	0.118161	0.014528	-0.229209	-0.539795	0.229004	-0.745361	0.035146	0.031599	0.082543	0.502394	-0.121074	-0.176124	-0.837808	10.807914	-22.323794	-120.240390
34300		3.557264	3.169479	8.353651	1.351731	-0.732678	-0.319576	0.131734	0.011245	-0.240867	-0.552002	0.233887	-0.748291	0.035615	0.031597	0.083555	0.501433	-0.120526	-0.176819	-0.838316	10.939822	-22.296715	-120.391296
34301		3.524336	3.126913	8.454817	1.310754	-0.641642	-0.244374	0.134009	0.012408	-0.252913	-0.544434	0.225830	-0.740723	0.035288	0.031168	0.084567	0.500453	-0.119952	-0.177529	-0.838833	11.075310	-22.267380	-120.545046
34302		3.399583	3.020021	8.434402	1.252901	-0.500328	-0.326029	0.132102	0.015229	-0.262231	-0.537109	0.221191	-0.738525	0.034042	0.030100	0.084361	0.499402	-0.119368	-0.178227	-0.839395	11.211996	-22.235064	-120.708578
34303		3.357010	2.836274	8.438074	1.089482	-0.380089	-0.368982	0.138294	0.003634	-0.275611	-0.551270	0.222168	-0.750244	0.033611	0.028258	0.084400	0.498320	-0.118799	-0.178990	-0.839956	11.355317	-22.207429	-120.876947
34304		3.356403	2.767299	8.540942	1.008643	-0.300812	-0.285716	0.148756	0.003652	-0.288243	-0.545654	0.212646	-0.740479	0.033605	0.027561	0.085429	0.497158	-0.118198	-0.179802	-0.840556	11.507826	-22.177905	-121.057181
34305		3.431034	2.765245	8.693982	0.950442	-0.289378	-0.116463	0.148227	0.012007	-0.298577	-0.556396	0.213135	-0.746338	0.034357	0.027537	0.086958	0.495991	-0.117548	-0.180599	-0.841166	11.661442	-22.142109	-121.238195
34306		3.422544	2.578129	8.691756	0.765988	-0.196097	-0.154430	0.139409	0.023859	-0.308008	-0.545166	0.216553	-0.736328	0.034275	0.025668	0.086931	0.494751	-0.116867	-0.181332	-0.841833	11.811887	-22.098096	-121.428245
34307		3.450568	2.496178	8.698457	0.656258	-0.175377	-0.151477	0.133717	0.035145	-0.320470	-0.544678	0.203857	-0.743896	0.034561	0.024848	0.086995	0.493501	-0.116136	-0.182022	-0.842519	11.960681	-22.045863	-121.619240
34308		3.513509	2.366489	8.657096	0.486327	-0.181663	-0.188720	0.133238	0.043802	-0.335110	-0.546875	0.206543	-0.739258	0.035194	0.023548	0.086579	0.492162	-0.115360	-0.182695	-0.843262	12.112315	-21.986510	-121.822232
34309		3.559901	2.213482	8.553759	0.303381	-0.190341	-0.293714	0.125632	0.042540	-0.335929	-0.540527	0.214844	-0.741943	0.035654	0.022021	0.085544	0.490845	-0.114602	-0.183340	-0.843993	12.259082	-21.927341	-122.021146
34310		3.631109	2.108998	8.445223	0.150775	-0.242355	-0.385434	0.122063	0.049452	-0.347607	-0.551025	0.202881	-0.745117	0.036368	0.020975	0.084456	0.489452	-0.113817	-0.183959	-0.844773	12.406270	-21.862326	-122.230097
34311		3.687653	2.056317	8.397834	0.051154	-0.280255	-0.417496	0.118753	0.046871	-0.355408	-0.552002	0.202881	-0.737793	0.036933	0.020448	0.083982	0.488050	-0.113040	-0.184575	-0.845554	12.552648	-21.797377	-122.439665
34312		3.664217	1.946339	8.260745	-0.058819	-0.266703	-0.572558	0.109911	0.040341	-0.359427	-0.545654	0.203369	-0.742432	0.036694	0.019352	0.082611	0.486583	-0.112312	-0.185169	-0.846366	12.695363	-21.735037	-122.657064
34313		3.635609	1.845940	8.083330	-0.156441	-0.269658	-0.764586	0.098617	0.023298	-0.369897	-0.544189	0.198730	-0.740479	0.036400	0.018352	0.080838	0.485082	-0.111669	-0.185764	-0.847182	12.834006	-21.680458	-122.878029
34314		3.629406	1.726064	7.926517	-0.280197	-0.270220	-0.934062	0.101163	-0.009458	-0.375095	-0.534668	0.196533	-0.737549	0.036323	0.017152	0.079276	0.483499	-0.111158	-0.186450	-0.848003	12.977154	-21.642932	-123.110498
34315		3.691504	1.663282	7.786747	-0.387906	-0.339916	-1.051348	0.108550	-0.044103	-0.384792	-0.542969	0.189453	-0.729980	0.036930	0.016520	0.077885	0.481875	-0.110762	-0.187257	-0.848801	13.127823	-21.623016	-123.349378
34316		3.715028	1.669283	7.744460	-0.415232	-0.367265	-1.080148	0.102710	-0.077180	-0.396084	-0.540283	0.189941	-0.739258	0.037153	0.016579	0.077467	0.480138	-0.110513	-0.188124	-0.849626	13.279749	-21.619413	-123.603459
34317		3.693008	1.676566	7.636254	-0.415774	-0.385428	-1.184820	0.075873	-0.133596	-0.394746	-0.545654	0.182129	-0.730713	0.036912	0.016664	0.076394	0.478365	-0.110565	-0.189011	-0.850422	13.418552	-21.646921	-123.860931
34318		3.627002	1.549343	7.457410	-0.504117	-0.333393	-1.398220	0.040054	-0.204094	-0.387662	-0.551025	0.181885	-0.735107	0.036224	0.015408	0.074614	0.476505	-0.111013	-0.189909	-0.851207	13.539721	-21.714055	-124.128362
34319		3.608175	1.305820	7.195946	-0.710513	-0.293269	-1.693892	0.015575	-0.305145	-0.375398	-0.553711	0.186279	-0.733887	0.035996	0.012985	0.072015	0.474614	-0.111956	-0.190936	-0.851910	13.649639	-21.838679	-124.399491
34320		3.769563	1.172964	7.089421	-0.910243	-0.369850	-1.757880	0.012985	-0.413296	-0.357649	-0.559570	0.175781	-0.729980	0.037570	0.011658	0.070973	0.472659	-0.113387	-0.192197	-0.852524	13.761356	-22.025390	-124.680501
34321		4.155536	1.328338	7.244777	-0.976277	-0.633325	-1.436209	0.002407	-0.514312	-0.331663	-0.552002	0.181396	-0.715088	0.041391	0.013214	0.072555	0.470739	-0.115293	-0.193635	-0.853005	13.867567	-22.271408	-124.957479
34322		4.615376	1.430790	7.395868	-1.122050	-0.919991	-1.098209	-0.033598	-0.596275	-0.302242	-0.556885	0.179688	-0.722168	0.045955	0.014251	0.074093	0.468808	-0.117666	-0.195094	-0.853412	13.953088	-22.566620	-125.234152
34323		4.734474	1.258410	7.246291	-1.318856	-0.942795	-1.217393	-0.072554	-0.659968	-0.272284	-0.562256	0.178711	-0.716797	0.047122	0.012546	0.072614	0.466946	-0.120424	-0.196516	-0.853722	14.014340	-22.901082	-125.499159
34324		4.875637	1.131475	7.145071	-1.483833	-0.978261	-1.271900	-0.080874	-0.728624	-0.252369	-0.564697	0.172119	-0.713867	0.048510	0.011282	0.071623	0.465063	-0.123517	-0.198047	-0.853954	14.072519	-23.276214	-125.767024
34325		5.244394	1.252082	7.259354	-1.554235	-1.200621	-0.985905	-0.068375	-0.784286	-0.247847	-0.569824	0.177979	-0.706787	0.052174	0.012481	0.072794	0.463171	-0.126817	-0.199756	-0.854101	14.141881	-23.682642	-126.038415
34326		5.772941	1.462250	7.515977	-1.629566	-1.511345	-0.484514	-0.072117	-0.815910	-0.250568	-0.574219	0.172607	-0.709473	0.057440	0.014578	0.075389	0.461200	-0.130259	-0.201519	-0.854235	14.214499	-24.105981	-126.320994
34327		6.188949	1.592606	7.698156	-1.712840	-1.728656	-0.108123	-0.103217	-0.779283	-0.262706	-0.583008	0.180176	-0.692139	0.061610	0.015885	0.077214	0.459210	-0.133599	-0.203070	-0.854424	14.272040	-24.506943	-126.603465
34328		5.989758	1.433419	7.509278	-1.721550	-1.527955	-0.377519	-0.128980	-0.740726	-0.283317	-0.580811	0.178223	-0.685059	0.059639	0.014298	0.075305	0.457123	-0.136814	-0.204433	-0.854709	14.320231	-24.883430	-126.896877
34329		5.527213	1.329436	7.152063	-1.549457	-1.249750	-0.896048	-0.136039	-0.745406	-0.292210	-0.591309	0.174316	-0.678711	0.055024	0.013263	0.071717	0.455004	-0.140049	-0.205778	-0.854993	14.368877	-25.260944	-127.194643
34330		5.233942	1.284587	6.874946	-1.416437	-1.089426	-1.261915	-0.130867	-0.800032	-0.287950	-0.590332	0.172852	-0.676514	0.052082	0.012816	0.068950	0.452818	-0.143513	-0.207263	-0.855220	14.425864	-25.669272	-127.502916
34331		5.114791	1.277011	6.681239	-1.341112	-1.031927	-1.472009	-0.131146	-0.890419	-0.274498	-0.594727	0.172852	-0.671387	0.050867	0.012744	0.067031	0.450611	-0.147370	-0.208938	-0.855323	14.487751	-26.129246	-127.815693
34332		5.218599	1.269868	6.663286	-1.374113	-1.041474	-1.429829	-0.115312	-1.000269	-0.269492	-0.601807	0.175781	-0.660889	0.051869	0.012667	0.066885	0.448290	-0.151668	-0.210919	-0.855305	14.568791	-26.650684	-128.147687
34333		5.435256	1.413835	6.873210	-1.324043	-1.084342	-1.103361	-0.114135	-1.091220	-0.287264	-0.612061	0.169189	-0.650391	0.053997	0.014100	0.069019	0.445805	-0.156323	-0.213116	-0.855221	14.665770	-27.219350	-128.505236
34334		5.655526	1.610326	6.937972	-1.239570	-1.218826	-0.885723	-0.119358	-1.159056	-0.307419	-0.614746	0.177979	-0.659180	0.056177	0.016058	0.069696	0.443119	-0.161260	-0.215450	-0.855115	14.775729	-27.822317	-128.892579
34335		5.824273	1.676835	7.071370	-1.225775	-1.207970	-0.659788	-0.136947	-1.213104	-0.341156	-0.616211	0.176270	-0.649414	0.057841	0.016718	0.071054	0.440222	-0.166418	-0.217847	-0.855016	14.894814	-28.449368	-129.310631
34336		6.170339	1.853919	7.246221	-1.213362	-1.345347	-0.287217	-0.151652	-1.237738	-0.382242	-0.632568	0.167480	-0.633057	0.061289	0.018477	0.072828	0.437081	-0.171665	-0.220262	-0.854971	15.026261	-29.083376	-129.764313
34337		6.187494	1.913162	7.239302	-1.131767	-1.290604	-0.252080	-0.189044	-1.230412	-0.423649	-0.630859	0.167725	-0.620850	0.061469	0.019070	0.072754	0.433731	-0.176906	-0.222526	-0.855023	15.154773	-29.706049	-130.245982
34338		6.063586	1.924272	7.071881	-1.028876	-1.204888	-0.433449	-0.221025	-1.240248	-0.469252	-0.643066	0.167236	-0.610107	0.060241	0.019179	0.071072	0.430110	-0.182206	-0.224705	-0.855169	15.287575	-30.326624	-130.765443
34339		5.837721	1.961819	6.798312	-0.861057	-1.129264	-0.750280	-0.258985	-1.268051	-0.506164	-0.655762	0.170898	-0.604980	0.057994	0.019559	0.068326	0.426262	-0.187650	-0.226804	-0.855364	15.420274	-30.955640	-131.316152
34340		8.068610	15.259841	16.478552	10.061205	-4.299344	11.395606	-0.947620	-1.381734	-0.348812	-0.651123	0.178711	-0.591553	0.079815	0.153239	0.164614	0.422269	-0.195221	-0.226039	-0.855853	15.123305	-31.672231	-131.790325
34341		10.093418	11.240463	23.286067	7.139003	0.028256	17.009002	-4.057549	-0.465996	0.404043	-0.661377	0.192627	-0.574707	0.100161	0.117303	0.230748	0.419409	-0.206235	-0.209242	-0.858942	12.700286	-31.992268	-131.603354
34342		-3.416219	-5.372609	9.565962	-0.539222	10.229216	-4.606669	-3.438547	0.066037	-0.470152	-0.651367	0.227783	-0.583496	-0.034254	-0.051990	0.096575	0.413838	-0.212678	-0.194818	-0.863454	10.891599	-31.905576	-131.906893
34343		-3.294320	-6.481963	12.734976	-0.531969	12.351863	-1.926729	-2.143780	-0.557398	-0.136778	-0.658691	0.228760	-0.568604	-0.033343	-0.063428	0.127942	0.410388	-0.219413	-0.186873	-0.865169	9.748656	-32.211057	-132.066933
34344		3.307584	-13.119688	13.826951	-9.024456	12.640127	1.721083	-1.575552	-0.577057	0.875467	-0.655029	0.246826	-0.565674	0.033245	-0.129956	0.139392	0.411874	-0.225989	-0.180297	-0.864166	8.566332	-32.622571	-131.544816
34345		4.575888	-3.139751	9.250081	-2.753382	3.576095	-0.015237	-0.741682	-0.513768	0.868934	-0.661377	0.248535	-0.558105	0.045656	-0.030855	0.092733	0.414308	-0.230554	-0.177188	-0.862437	7.851962	-32.990386	-131.009898
34346		4.116046	6.121771	7.492591	4.549570	-2.523008	-0.675339	-0.826241	-0.649972	0.769604	-0.659668	0.264404	-0.566650	0.040680	0.061684	0.074804	0.416073	-0.235785	-0.174102	-0.860800	7.125245	-33.422339	-130.547495
34347		5.842730	6.278309	6.314335	3.560118	-4.310588	-0.748038	-1.226809	-0.798879	0.712291	-0.657471	0.269775	-0.547852	0.057950	0.063377	0.062988	0.416973	-0.242427	-0.169662	-0.859405	6.188649	-33.929688	-130.125334
34348		7.938534	2.924372	6.644857	0.008628	-3.516679	0.353753	-1.459440	-0.731911	0.877945	-0.659668	0.281006	-0.530273	0.079011	0.030076	0.066521	0.418325	-0.249387	-0.163869	-0.857879	5.041663	-34.401515	-129.571376
34349		7.697321	0.851884	7.949706	-0.958197	-1.546733	1.135294	-1.480929	-0.496462	1.022942	-0.673096	0.295166	-0.535889	0.076729	0.009501	0.079620	0.420432	-0.255480	-0.157296	-0.856285	3.806552	-34.735767	-128.889317
34350		5.454473	-0.472630	8.132931	-0.629757	0.696123	-0.053821	-1.417523	-0.403086	1.018613	-0.663574	0.318848	-0.523926	0.054402	-0.003872	0.081469	0.422630	-0.261016	-0.150790	-0.854703	2.598385	-35.004364	-128.196897
34351		4.825762	-1.726438	8.335977	-1.095604	1.883855	-0.273002	-1.315547	-0.457627	0.945817	-0.669678	0.324219	-0.515869	0.048146	-0.016487	0.083580	0.424586	-0.266494	-0.144919	-0.853057	1.470670	-35.291103	-127.546613
34352		5.063002	-3.402289	8.550984	-2.341046	2.785871	0.040506	-1.095427	-0.527449	0.817921	-0.665283	0.330566	-0.512451	0.050541	-0.033347	0.085827	0.426206	-0.271694	-0.140295	-0.851380	0.514052	-35.606784	-126.979455
34353		6.004487	-2.790405	7.980286	-2.375653	1.508770	0.167477	-0.912594	-0.531231	0.676570	-0.660400	0.341553	-0.508057	0.059926	-0.027336	0.080088	0.427457	-0.276408	-0.136645	-0.849828	-0.286917	-35.917404	-126.502923
34354		6.399495	-1.756038	7.867297	-1.660959	0.561115	0.329153	-0.755609	-0.507582	0.558201	-0.672607	0.352539	-0.501221	0.063843	-0.017084	0.078900	0.428417	-0.280596	-0.133768	-0.848429	-0.954370	-36.210150	-126.104701
34355		6.249279	-1.346097	7.716325	-1.215388	0.330529	0.128137	-0.655387	-0.453909	0.481644	-0.669678	0.358887	-0.496094	0.062349	-0.013057	0.077348	0.429224	-0.284283	-0.131307	-0.847177	-1.536424	-36.469647	-125.755459
34356		6.546982	-1.857824	7.884500	-1.616945	0.510664	0.463692	-0.549861	-0.400789	0.397797	-0.664063	0.362305	-0.495117	0.065348	-0.018231	0.079026	0.429845	-0.287459	-0.129293	-0.846099	-2.025300	-36.697519	-125.464194
34357		6.547943	-1.808150	7.987959	-1.465553	0.522269	0.557051	-0.421555	-0.332623	0.326642	-0.661377	0.372070	-0.478516	0.065376	-0.017806	0.080026	0.430396	-0.290021	-0.127779	-0.845174	-2.411702	-36.886198	-125.221625
34358		6.353234	-0.972371	8.020316	-0.634779	0.162525	0.444260	-0.321537	-0.283382	0.264023	-0.669434	0.375977	-0.485596	0.063431	-0.009511	0.080308	0.430851	-0.292117	-0.126669	-0.844387	-2.714709	-37.047061	-125.024115
34359		6.378418	-0.449895	7.977457	-0.195485	-0.186802	0.407546	-0.272788	-0.247870	0.232558	-0.671631	0.371582	-0.485352	0.063690	-0.004316	0.079860	0.431269	-0.293936	-0.125736	-0.843682	-2.976587	-37.187779	-124.848473
34360		6.467224	-0.345433	7.868427	-0.151945	-0.359685	0.370822	-0.242979	-0.205046	0.225826	-0.657227	0.371582	-0.482178	0.064595	-0.003286	0.078755	0.431721	-0.295506	-0.124843	-0.843035	-3.218476	-37.303539	-124.679047
34361		6.860379	-0.421042	7.867473	-0.352362	-0.576362	0.612414	-0.225723	-0.161190	0.223122	-0.672119	0.369629	-0.478271	0.068545	-0.004045	0.078735	0.432220	-0.296849	-0.123934	-0.842441	-3.448867	-37.393794	-124.511786
34362		6.611045	-0.760222	7.733524	-0.532368	-0.281183	0.372041	-0.192041	-0.077657	0.201182	-0.656494	0.368164	-0.485107	0.066088	-0.007461	0.077368	0.432720	-0.297755	-0.123016	-0.841999	-3.648657	-37.436527	-124.364309
34363		6.297849	-0.640768	7.752029	-0.263584	-0.148205	0.191110	-0.165468	-0.051992	0.180799	-0.657227	0.384766	-0.470703	0.062964	-0.006287	0.077542	0.433195	-0.298481	-0.122187	-0.841618	-3.823726	-37.464992	-124.231642
34364		6.236887	-0.716569	7.708904	-0.292888	-0.092641	0.124366	-0.145876	-0.037163	0.164464	-0.660156	0.394043	-0.476563	0.062360	-0.007058	0.077106	0.433639	-0.299092	-0.121432	-0.841282	-3.980199	-37.485252	-124.111286
34365		6.178862	-0.904193	7.753753	-0.381867	0.068945	0.135478	-0.117660	-0.021472	0.141027	-0.658691	0.384277	-0.485107	0.061787	-0.008953	0.077549	0.434036	-0.299561	-0.120797	-0.841002	-4.109728	-37.497314	-124.008559
34366		6.199654	-1.023182	7.689546	-0.498009	0.088516	0.104765	-0.095858	-0.011650	0.109282	-0.669189	0.388672	-0.480713	0.061998	-0.010161	0.076904	0.434338	-0.299923	-0.120280	-0.840791	-4.212681	-37.504861	-123.929092
34367		6.144637	-0.888645	7.686675	-0.356565	0.037275	0.061658	-0.064591	0.003779	0.079698	-0.655518	0.387695	-0.472900	0.061451	-0.008837	0.076868	0.434571	-0.300133	-0.119905	-0.840649	-4.284150	-37.504808	-123.871816
34368		6.126266	-0.851123	7.652781	-0.325126	0.006145	0.021683	-0.048847	0.016201	0.059975	-0.663574	0.386719	-0.478516	0.061271	-0.008474	0.076525	0.434749	-0.300246	-0.119597	-0.840561	-4.337642	-37.498430	-123.829810
34369		6.003638	-0.827904	7.718544	-0.221753	0.099219	-0.002183	-0.031575	0.020891	0.037569	-0.666016	0.389160	-0.470703	0.060046	-0.008256	0.077180	0.434865	-0.300288	-0.119388	-0.840516	-4.371147	-37.490349	-123.803816
34370		6.068622	-0.835713	7.662937	-0.277139	0.032118	-0.006090	-0.013852	0.026851	0.019684	-0.662598	0.391602	-0.476563	0.060697	-0.008346	0.076622	0.434930	-0.300256	-0.119264	-0.840511	-4.386555	-37.479627	-123.791726
34371		6.042574	-0.788938	7.654134	-0.231887	0.015111	-0.031742	-0.001762	0.033911	0.003064	-0.666748	0.388428	-0.478760	0.060439	-0.007888	0.076531	0.434953	-0.300157	-0.119202	-0.840543	-4.387414	-37.465609	-123.791302
34372		5.948961	-0.687681	7.698633	-0.093169	0.035421	-0.059634	0.003890	0.037939	-0.006344	-0.670410	0.382324	-0.476074	0.059504	-0.006880	0.076975	0.434944	-0.300025	-0.119168	-0.840600	-4.380899	-37.449687	-123.798376
34373		5.999565	-0.662772	7.689105	-0.102117	-0.018704	-0.037944	0.014286	0.041115	-0.010655	-0.663330	0.380127	-0.477295	0.060011	-0.006636	0.076878	0.434938	-0.299853	-0.119180	-0.840662	-4.366323	-37.432153	-123.808216
34374		5.942435	-0.611247	7.697927	-0.035834	-0.008838	-0.068824	0.019895	0.047334	-0.019842	-0.669922	0.388916	-0.471924	0.059442	-0.006126	0.076965	0.434897	-0.299639	-0.119211	-0.840755	-4.344416	-37.411477	-123.826071
34375		5.885361	-0.632216	7.712733	-0.025928	0.046889	-0.090519	0.020980	0.046258	-0.019741	-0.655518	0.381104	-0.479004	0.058871	-0.006336	0.077113	0.434866	-0.299425	-0.119253	-0.840842	-4.321884	-37.391392	-123.842704
34376		5.874837	-0.530269	7.731084	0.063547	0.000665	-0.088464	0.021765	0.045264	-0.017520	-0.661621	0.386963	-0.484131	0.058765	-0.005316	0.077297	0.434839	-0.299216	-0.119294	-0.840924	-4.300030	-37.371773	-123.858415
34377		5.854497	-0.457379	7.697785	0.113738	-0.045783	-0.131510	0.017697	0.044373	-0.011834	-0.667236	0.391357	-0.484863	0.058562	-0.004584	0.076964	0.434835	-0.299023	-0.119315	-0.840992	-4.282914	-37.352417	-123.869236
34378		5.861213	-0.500298	7.757870	0.097140	0.001103	-0.077225	0.006648	0.043552	-0.003075	-0.663330	0.385010	-0.479492	0.058629	-0.005006	0.077566	0.434848	-0.298862	-0.119275	-0.841048	-4.276107	-37.333130	-123.874024
34379		5.817837	-0.503349	7.723442	0.098153	0.013258	-0.130625	-0.002229	0.040573	0.005855	-0.660889	0.379395	-0.474365	0.058194	-0.005031	0.077223	0.434887	-0.298738	-0.119194	-0.841084	-4.278251	-37.315187	-123.871920
34380		5.807665	-0.453687	7.745218	0.150052	-0.002391	-0.122451	-0.005562	0.040875	0.013951	-0.659668	0.391357	-0.482422	0.058093	-0.004531	0.077440	0.434948	-0.298626	-0.119082	-0.841108	-4.285921	-37.296724	-123.864842
34381		5.851773	-0.502852	7.764829	0.098589	0.003500	-0.077240	-0.015872	0.033320	0.017825	-0.657227	0.378418	-0.473145	0.058531	-0.005017	0.077639	0.435012	-0.298569	-0.118941	-0.841115	-4.301321	-37.282411	-123.853759
34382		5.848943	-0.505796	7.766769	0.099079	0.004290	-0.077245	-0.020463	0.036143	0.034614	-0.660156	0.382568	-0.482666	0.058504	-0.005040	0.077658	0.435137	-0.298522	-0.118747	-0.841094	-4.326663	-37.265741	-123.831293
34383		5.761797	-0.459390	7.791201	0.186356	0.041016	-0.113422	-0.030963	0.037350	0.039349	-0.663330	0.390869	-0.477051	0.057633	-0.004571	0.077902	0.435271	-0.298494	-0.118502	-0.841069	-4.359912	-37.248184	-123.805000
34384		5.940971	-0.545031	7.699346	0.004354	-0.073614	-0.072735	-0.034330	0.024598	0.048289	-0.657715	0.386963	-0.478271	0.059420	-0.005423	0.076987	0.435426	-0.298533	-0.118254	-0.841010	-4.399485	-37.237490	-123.772208
34385		5.871024	-0.497618	7.753427	0.098290	-0.035485	-0.075066	-0.034036	0.032446	0.053502	-0.651367	0.385986	-0.488037	0.058724	-0.004947	0.077526	0.435612	-0.298540	-0.117985	-0.840949	-4.440770	-37.222082	-123.735527
34386		5.868504	-0.600950	7.762769	0.023636	0.026462	-0.062826	-0.036682	0.028206	0.056948	-0.662598	0.385498	-0.476807	0.058698	-0.005979	0.077621	0.435805	-0.298574	-0.117708	-0.840876	-4.485306	-37.208881	-123.696309
34387		5.933497	-0.611742	7.707680	-0.031770	-0.040641	-0.066597	-0.038289	0.025076	0.060698	-0.657959	0.386230	-0.478271	0.059346	-0.006085	0.077071	0.436011	-0.298626	-0.117427	-0.840790	-4.532360	-37.197313	-123.654094
34388		5.900822	-0.714063	7.733201	-0.085402	0.048194	-0.059617	-0.033475	0.027163	0.057476	-0.659180	0.384521	-0.482666	0.059021	-0.007111	0.077325	0.436205	-0.298658	-0.117163	-0.840715	-4.575263	-37.184666	-123.615125
34389		5.914906	-0.668537	7.760992	-0.040684	0.019836	-0.031890	-0.026966	0.028002	0.050089	-0.655762	0.385254	-0.479736	0.059162	-0.006660	0.077603	0.436385	-0.298666	-0.116938	-0.840650	-4.611096	-37.171865	-123.580719
34390		5.919354	-0.699247	7.740968	-0.072824	0.021773	-0.043117	-0.019327	0.025567	0.042559	-0.659180	0.390869	-0.487305	0.059205	-0.006972	0.077403	0.436538	-0.298665	-0.116760	-0.840596	-4.639466	-37.160771	-123.552198
34391		5.940296	-0.751092	7.753130	-0.117089	0.040433	-0.017436	-0.016066	0.029649	0.034905	-0.655762	0.393066	-0.478027	0.059416	-0.007494	0.077523	0.436671	-0.298634	-0.116600	-0.840560	-4.662398	-37.147706	-123.528794
34392		5.931092	-0.679404	7.772379	-0.046397	0.009507	-0.012327	-0.013594	0.027405	0.032960	-0.659668	0.385742	-0.479492	0.059323	-0.006779	0.077716	0.436795	-0.298607	-0.116457	-0.840525	-4.683258	-37.135977	-123.506972
34393		5.905462	-0.682699	7.766949	-0.038744	0.023037	-0.031889	-0.011857	0.023970	0.028583	-0.657959	0.393311	-0.479492	0.059065	-0.006814	0.077663	0.436905	-0.298587	-0.116337	-0.840491	-4.701227	-37.126438	-123.487782
34394		5.940466	-0.712769	7.730408	-0.091905	-0.001906	-0.037825	-0.011593	0.026081	0.026687	-0.655273	0.395996	-0.480713	0.059416	-0.007115	0.077297	0.437002	-0.298557	-0.116214	-0.840468	-4.718249	-37.115766	-123.470749
34395		5.908030	-0.713880	7.748280	-0.070408	0.025776	-0.043109	-0.011553	0.023892	0.026472	-0.660645	0.391357	-0.478760	0.059091	-0.007126	0.077476	0.437103	-0.298536	-0.116098	-0.840439	-4.735122	-37.106363	-123.453078
34396		5.899290	-0.689720	7.771018	-0.037284	0.025435	-0.031889	-0.006034	0.021424	0.018533	-0.658447	0.394287	-0.480713	0.059002	-0.006889	0.077704	0.437174	-0.298509	-0.116021	-0.840423	-4.745603	-37.098720	-123.441420
34397		5.904190	-0.693238	7.749043	-0.050655	0.012083	-0.046164	-0.009324	0.026866	0.018509	-0.656494	0.389160	-0.481934	0.059053	-0.006923	0.077483	0.437246	-0.298465	-0.115920	-0.840415	-4.757645	-37.087990	-123.429634
34398		5.895418	-0.644381	7.770024	0.001253	-0.003549	-0.038004	-0.006811	0.022428	0.016333	-0.648682	0.386963	-0.476563	0.058963	-0.006436	0.077694	0.437307	-0.298434	-0.115841	-0.840405	-4.767578	-37.079877	-123.419649
34399		5.846728	-0.671174	7.759318	-0.002720	0.037977	-0.074090	-0.007078	0.020319	0.018239	-0.658447	0.390381	-0.483643	0.058476	-0.006704	0.077587	0.437377	-0.298413	-0.115764	-0.840386	-4.778445	-37.072894	-123.407673
34400		5.875498	-0.674053	7.743928	-0.023249	0.011895	-0.068789	-0.005647	0.016964	0.015977	-0.654053	0.389404	-0.482422	0.058762	-0.006734	0.077434	0.437435	-0.298403	-0.115702	-0.840369	-4.787751	-37.067914	-123.397613
34401		5.873999	-0.699622	7.746760	-0.041556	0.027992	-0.065733	-0.005031	0.016802	0.011726	-0.658691	0.392822	-0.475342	0.058747	-0.006991	0.077463	0.437479	-0.298388	-0.115652	-0.840358	-4.794758	-37.063248	-123.390091
34402		5.896081	-0.700222	7.754587	-0.048230	0.016076	-0.046157	-0.005766	0.015614	0.009294	-0.655762	0.394775	-0.477051	0.058967	-0.006997	0.077541	0.437507	-0.298380	-0.115602	-0.840353	-4.801293	-37.059362	-123.384857
34403		5.901889	-0.678587	7.730225	-0.042823	-0.012578	-0.063475	-0.004375	0.014449	0.007252	-0.660400	0.386963	-0.478271	0.059025	-0.006782	0.077298	0.437532	-0.298371	-0.115566	-0.840348	-4.806079	-37.056253	-123.380396
34404		5.870206	-0.677834	7.747610	-0.021318	0.015090	-0.068789	-0.000204	0.018876	0.008486	-0.651611	0.395508	-0.485107	0.058710	-0.006776	0.077471	0.437566	-0.298337	-0.115533	-0.840347	-4.808954	-37.050552	-123.376107
34405		5.892131	-0.702350	7.757396	-0.046784	0.018484	-0.046154	-0.005149	0.015453	0.005045	-0.650391	0.393799	-0.486328	0.058927	-0.007020	0.077570	0.437581	-0.298324	-0.115495	-0.840349	-4.813195	-37.046975	-123.373288
34406		5.897884	-0.631949	7.729524	-0.003803	-0.040781	-0.069574	-0.003762	0.022210	0.010368	-0.652588	0.397705	-0.484619	0.058988	-0.006315	0.077289	0.437625	-0.298283	-0.115439	-0.840348	-4.818830	-37.039237	-123.366992
34407		5.919466	-0.681090	7.741346	-0.048049	-0.022089	-0.043880	-0.005498	0.017726	0.007401	-0.651123	0.387939	-0.475830	0.059202	-0.006807	0.077408	0.437651	-0.298264	-0.115391	-0.840348	-4.824201	-37.034249	-123.362626
34408		5.856963	-0.703448	7.777219	-0.024312	0.047740	-0.051483	-0.003493	0.024321	0.008472	-0.654785	0.389648	-0.485107	0.058579	-0.007031	0.077765	0.437686	-0.298213	-0.115333	-0.840356	-4.828773	-37.025415	-123.358175
34409		5.885612	-0.656860	7.758493	-0.007285	-0.008916	-0.052259	-0.003184	0.024240	0.006349	-0.655029	0.391846	-0.474609	0.058866	-0.006565	0.077578	0.437715	-0.298160	-0.115282	-0.840367	-4.832127	-37.016758	-123.354957
34410		5.883323	-0.706142	7.763734	-0.044360	0.022469	-0.046151	-0.002182	0.027538	0.006888	-0.657227	0.386475	-0.483398	0.058844	-0.007059	0.077629	0.437745	-0.298092	-0.115225	-0.840383	-4.835135	-37.006179	-123.352132
34411		5.904630	-0.681704	7.770469	-0.032254	-0.004716	-0.029615	0.001606	0.028505	0.003341	-0.658203	0.389404	-0.473389	0.059057	-0.006817	0.077696	0.437771	-0.298009	-0.115189	-0.840404	-4.834293	-36.995232	-123.351324
34412		5.855645	-0.682714	7.758193	-0.017456	0.021470	-0.068793	-0.001562	0.027377	0.002641	-0.666016	0.399658	-0.479248	0.058567	-0.006826	0.077574	0.437781	-0.297938	-0.115140	-0.840430	-4.835111	-36.984967	-123.351885
34413		5.816281	-0.655599	7.797572	0.036677	0.048024	-0.062948	-0.001412	0.026537	0.009110	-0.651367	0.391357	-0.487793	0.058173	-0.006553	0.077968	0.437826	-0.297874	-0.115088	-0.840437	-4.838550	-36.974865	-123.346835
34414		5.851434	-0.683519	7.761299	-0.016491	0.023066	-0.068795	-0.000168	0.026213	0.000604	-0.653320	0.391602	-0.478027	0.058525	-0.006835	0.077605	0.437832	-0.297803	-0.115051	-0.840464	-4.837754	-36.965340	-123.348332
34415		5.849472	-0.683705	7.762761	-0.016014	0.023869	-0.068796	-0.002565	0.024082	0.002113	-0.651367	0.386963	-0.482910	0.058504	-0.006835	0.077621	0.437844	-0.297747	-0.115009	-0.840483	-4.838934	-36.956978	-123.348134
34416		5.847586	-0.683957	7.764160	-0.015525	0.024662	-0.068797	-0.000440	0.024104	0.002510	-0.662109	0.395996	-0.481445	0.058485	-0.006839	0.077635	0.437857	-0.297687	-0.114973	-0.840503	-4.839188	-36.948568	-123.348193
34417		5.852912	-0.661541	7.740327	-0.010131	-0.004014	-0.086087	0.001724	0.021935	0.002679	-0.653076	0.395508	-0.478760	0.058538	-0.006615	0.077397	0.437876	-0.297631	-0.114954	-0.840515	-4.838231	-36.941404	-123.347461
34418		5.860427	-0.681918	7.797118	-0.007842	0.027758	-0.034966	0.001412	0.022016	0.004809	-0.657715	0.396484	-0.482178	0.058613	-0.006818	0.077965	0.437900	-0.297578	-0.114926	-0.840526	-4.838486	-36.934076	-123.345796
34419		5.865753	-0.683727	7.775073	-0.021230	0.014380	-0.049202	0.003119	0.020769	0.000640	-0.659912	0.390625	-0.475342	0.058666	-0.006838	0.077745	0.437912	-0.297522	-0.114918	-0.840540	-4.835898	-36.927676	-123.346451
34420		5.887294	-0.707677	7.785237	-0.046666	0.017795	-0.026551	-0.001483	0.022999	0.002208	-0.651367	0.392090	-0.473389	0.058882	-0.007076	0.077846	0.437919	-0.297469	-0.114880	-0.840560	-4.836651	-36.919924	-123.346936
34421		5.846016	-0.686036	7.747292	-0.026984	0.014473	-0.083035	0.002076	0.019664	0.000333	-0.657227	0.391846	-0.481689	0.058468	-0.006861	0.077467	0.437928	-0.297421	-0.114870	-0.840574	-4.834569	-36.914169	-123.347743
34422		5.860740	-0.707704	7.780654	-0.038552	0.032076	-0.046154	0.005140	0.019441	-0.005651	-0.655029	0.394775	-0.475342	0.058615	-0.007081	0.077801	0.437911	-0.297364	-0.114880	-0.840602	-4.828293	-36.908822	-123.353496
34423		5.829116	-0.656875	7.794377	0.020497	0.029148	-0.057631	0.005140	0.019442	-0.005649	-0.653564	0.392822	-0.476807	0.058299	-0.006572	0.077938	0.437899	-0.297306	-0.114892	-0.840627	-4.821900	-36.903483	-123.358558
34424		5.827714	-0.656211	7.795481	0.020987	0.029942	-0.057635	0.004866	0.017332	-0.003750	-0.654297	0.382568	-0.480469	0.058284	-0.006565	0.077950	0.437888	-0.297260	-0.114902	-0.840648	-4.816676	-36.899245	-123.362807
34425		5.840437	-0.683532	7.751720	-0.025056	0.017663	-0.083035	0.005220	0.015059	-0.006105	-0.656738	0.400635	-0.491211	0.058410	-0.006839	0.077513	0.437872	-0.297220	-0.114925	-0.840667	-4.810201	-36.896429	-123.367929
34426		5.848351	-0.727229	7.810030	-0.041526	0.064767	-0.028889	0.007658	0.015000	-0.007833	-0.659180	0.390869	-0.476563	0.058489	-0.007278	0.078096	0.437848	-0.297174	-0.114959	-0.840691	-4.801720	-36.893709	-123.374737
34427		5.854596	-0.679061	7.783886	-0.017359	0.020780	-0.049206	0.011493	0.013774	-0.011604	-0.653320	0.394531	-0.483887	0.058551	-0.006798	0.077834	0.437817	-0.297123	-0.115019	-0.840717	-4.789342	-36.891889	-123.383707
34428		5.853545	-0.653308	7.783013	0.001911	0.006275	-0.052254	0.008972	0.018217	-0.009412	-0.652832	0.394531	-0.488281	0.058542	-0.006539	0.077825	0.437789	-0.297061	-0.115053	-0.840749	-4.779312	-36.887414	-123.392039
34429		5.828908	-0.676701	7.778827	-0.009254	0.035046	-0.068821	0.012261	0.012772	-0.009389	-0.653564	0.387939	-0.495605	0.058294	-0.006775	0.077784	0.437768	-0.297013	-0.115115	-0.840768	-4.767480	-36.886057	-123.399367
34430		5.828144	-0.626594	7.775934	0.028794	0.005232	-0.074917	0.008286	0.014837	-0.012079	-0.656494	0.386719	-0.481201	0.058287	-0.006273	0.077755	0.437730	-0.296964	-0.115159	-0.840799	-4.756845	-36.883608	-123.408835
34431		5.850213	-0.649309	7.785853	0.003356	0.008674	-0.052256	0.007615	0.017193	-0.007594	-0.656006	0.380615	-0.481201	0.058509	-0.006498	0.077853	0.437713	-0.296909	-0.115189	-0.840823	-4.748288	-36.879640	-123.415143
34432		5.839896	-0.652547	7.733091	-0.016769	-0.006268	-0.100294	0.004218	0.011762	-0.006640	-0.654297	0.383545	-0.480957	0.058403	-0.006529	0.077327	0.437683	-0.296886	-0.115213	-0.840844	-4.742390	-36.878732	-123.421442
34433		5.841133	-0.645848	7.810794	0.018200	0.024477	-0.038050	0.007068	0.012974	-0.003800	-0.656738	0.394775	-0.478271	0.058416	-0.006462	0.078104	0.437678	-0.296853	-0.115244	-0.840854	-4.735923	-36.876992	-123.424791
34434		5.830812	-0.673607	7.759830	-0.020708	0.024828	-0.083040	0.004944	0.012951	-0.004198	-0.648926	0.393799	-0.477539	0.058313	-0.006739	0.077594	0.437662	-0.296824	-0.115265	-0.840869	-4.730622	-36.875277	-123.429201
34435		5.853240	-0.648203	7.765846	-0.008584	-0.002327	-0.066464	0.003093	0.015039	-0.006491	-0.655518	0.383301	-0.480469	0.058538	-0.006485	0.077654	0.437641	-0.296789	-0.115279	-0.840891	-4.725208	-36.872485	-123.434591
34436		5.814743	-0.619961	7.804345	0.045568	0.024220	-0.060728	0.004176	0.013954	-0.006405	-0.652832	0.392578	-0.478271	0.058153	-0.006203	0.078039	0.437622	-0.296756	-0.115300	-0.840910	-4.719399	-36.870258	-123.439794
34437		5.850943	-0.671444	7.769477	-0.026396	0.014564	-0.063419	0.000338	0.015180	-0.002636	-0.657227	0.395996	-0.478516	0.058515	-0.006715	0.077690	0.437613	-0.296728	-0.115297	-0.840925	-4.717209	-36.867202	-123.442440
34438		5.850001	-0.622582	7.766583	0.011650	-0.015248	-0.069507	0.000338	0.015180	-0.002635	-0.656982	0.395752	-0.482666	0.058506	-0.006227	0.077661	0.437600	-0.296701	-0.115291	-0.840942	-4.715148	-36.864128	-123.445660
34439		5.825365	-0.647117	7.762296	0.000476	0.013507	-0.086090	0.002461	0.015204	-0.002234	-0.656006	0.388428	-0.474609	0.058259	-0.006473	0.077618	0.437596	-0.296669	-0.115296	-0.840954	-4.711913	-36.861040	-123.448021
34440		5.847495	-0.670721	7.772135	-0.024939	0.016954	-0.063419	0.001420	0.014096	-0.002549	-0.649170	0.397461	-0.484375	0.058480	-0.006709	0.077717	0.437582	-0.296644	-0.115297	-0.840970	-4.709301	-36.858590	-123.451286
34441		5.846372	-0.670431	7.773005	-0.024462	0.017758	-0.063419	0.002461	0.015204	-0.002232	-0.642822	0.390869	-0.484863	0.058470	-0.006706	0.077726	0.437578	-0.296612	-0.115302	-0.840983	-4.706068	-36.855501	-123.453644
34442		5.845350	-0.645945	7.771974	-0.005195	0.003240	-0.066462	-0.001020	0.014156	-0.000821	-0.655029	0.394287	-0.479980	0.058459	-0.006459	0.077716	0.437575	-0.296593	-0.115292	-0.840993	-4.705622	-36.852895	-123.454870
34443		5.820887	-0.646498	7.765706	0.002405	0.016687	-0.086095	-0.001336	0.014238	0.001305	-0.658936	0.390869	-0.475098	0.058214	-0.006464	0.077653	0.437579	-0.296575	-0.115278	-0.840999	-4.706113	-36.850192	-123.454647
34444		5.843130	-0.646231	7.773620	-0.004228	0.004838	-0.066462	-0.001336	0.014238	0.001306	-0.653564	0.384521	-0.483154	0.058437	-0.006461	0.077732	0.437578	-0.296558	-0.115261	-0.841007	-4.706725	-36.847481	-123.455222
34445		5.818847	-0.598142	7.763588	0.040925	-0.012326	-0.092182	-0.002103	0.015241	-0.000902	-0.654297	0.396973	-0.478516	0.058194	-0.005981	0.077632	0.437573	-0.296537	-0.115245	-0.841020	-4.706675	-36.844309	-123.456633
34446		5.803104	-0.643481	7.814877	0.031628	0.047504	-0.057733	-0.003096	0.017680	0.005707	-0.659424	0.380859	-0.479004	0.058038	-0.006432	0.078144	0.437591	-0.296512	-0.115207	-0.841025	-4.710063	-36.839416	-123.454056
34447		5.832400	-0.645717	7.799504	0.011101	0.021455	-0.052282	-0.007851	0.011221	0.008461	-0.657471	0.388672	-0.482422	0.058329	-0.006452	0.077992	0.437614	-0.296525	-0.115162	-0.841014	-4.717454	-36.838098	-123.448550
34448		5.838387	-0.672941	7.778787	-0.021071	0.023339	-0.063423	-0.005769	0.013436	0.009096	-0.651611	0.392822	-0.480957	0.058389	-0.006725	0.077784	0.437636	-0.296526	-0.115116	-0.841008	-4.723951	-36.835493	-123.443830
34449		5.806975	-0.648065	7.793785	0.019187	0.035691	-0.071928	-0.004369	0.012270	0.007055	-0.655762	0.400635	-0.482178	0.058075	-0.006477	0.077934	0.437659	-0.296526	-0.115085	-0.841000	-4.728709	-36.833642	-123.439390
34450		5.859757	-0.674188	7.787241	-0.027220	0.012300	-0.043782	-0.004645	0.010160	0.008949	-0.652832	0.397705	-0.486572	0.058602	-0.006737	0.077870	0.437687	-0.296538	-0.115053	-0.840987	-4.734647	-36.832872	-123.433776
34451		5.835436	-0.699920	7.782566	-0.038403	0.041041	-0.060386	-0.006768	0.010137	0.008549	-0.658203	0.397461	-0.480957	0.058359	-0.006994	0.077823	0.437711	-0.296553	-0.115015	-0.840974	-4.741493	-36.832167	-123.428145
34452		5.842029	-0.629404	7.754258	0.004527	-0.018310	-0.083679	-0.001610	0.012129	0.003208	-0.661621	0.392578	-0.476807	0.058425	-0.006292	0.077539	0.437720	-0.296546	-0.114999	-0.840974	-4.743168	-36.830543	-123.426732
34453		5.833710	-0.652776	7.780145	0.000116	0.012022	-0.066468	-0.006724	0.013683	0.015479	-0.653809	0.394043	-0.483398	0.058343	-0.006521	0.077798	0.437776	-0.296551	-0.114943	-0.840951	-4.752826	-36.827484	-123.416368
34454		5.855952	-0.653329	7.788015	-0.006507	0.000190	-0.046820	-0.004816	0.013192	0.002725	-0.656250	0.387451	-0.482178	0.058565	-0.006531	0.077876	0.437775	-0.296547	-0.114912	-0.840957	-4.756075	-36.825299	-123.415829
34455		5.838867	-0.632219	7.756410	0.005968	-0.015914	-0.083675	-0.008489	0.011387	0.012721	-0.648682	0.396240	-0.482910	0.058393	-0.006315	0.077561	0.437815	-0.296563	-0.114857	-0.840937	-4.765645	-36.823681	-123.407296
34456		5.830461	-0.680363	7.784085	-0.017204	0.029716	-0.063433	-0.007130	0.012413	0.010915	-0.657227	0.393066	-0.479492	0.058310	-0.006798	0.077837	0.437847	-0.296572	-0.114806	-0.840925	-4.773759	-36.821534	-123.400554
34457		5.836743	-0.659007	7.759582	-0.011843	0.000984	-0.080636	-0.006047	0.011328	0.011000	-0.648926	0.384521	-0.477539	0.058372	-0.006585	0.077593	0.437884	-0.296582	-0.114765	-0.840908	-4.781195	-36.820029	-123.393247
34458		5.851947	-0.657909	7.790640	-0.004571	0.003379	-0.046820	-0.007130	0.012414	0.010918	-0.656250	0.391357	-0.485840	0.058525	-0.006573	0.077903	0.437920	-0.296590	-0.114715	-0.840893	-4.789329	-36.817856	-123.386009
34459		5.834706	-0.661493	7.760903	-0.010879	0.002571	-0.080635	-0.009572	0.012474	0.012644	-0.657471	0.385010	-0.480469	0.058352	-0.006608	0.077606	0.437959	-0.296604	-0.114654	-0.840876	-4.799445	-36.815617	-123.377599
34460		5.856937	-0.662208	7.768784	-0.017496	-0.009252	-0.060978	-0.004410	0.014465	0.007305	-0.648682	0.393066	-0.485840	0.058575	-0.006618	0.077684	0.437978	-0.296597	-0.114614	-0.840874	-4.804369	-36.812490	-123.373961
34461		5.825335	-0.637622	7.783883	0.022756	0.003092	-0.069515	-0.008892	0.015856	0.015328	-0.664795	0.389893	-0.487061	0.058260	-0.006368	0.077834	0.438031	-0.296597	-0.114544	-0.840856	-4.815119	-36.808189	-123.363842
34462		5.807993	-0.616948	7.752462	0.035229	-0.013047	-0.106366	-0.008254	0.015693	0.011077	-0.651123	0.392822	-0.480469	0.058086	-0.006163	0.077520	0.438063	-0.296594	-0.114481	-0.840849	-4.823821	-36.804164	-123.357332
34463		5.838809	-0.662675	7.817835	0.011740	0.021620	-0.032669	-0.009172	0.013746	0.017225	-0.650391	0.387451	-0.475098	0.058394	-0.006618	0.078175	0.438123	-0.296605	-0.114412	-0.840823	-4.835615	-36.800974	-123.345736
34464		5.790930	-0.640861	7.802529	0.045209	0.032319	-0.075032	-0.009254	0.018132	0.017700	-0.649414	0.400635	-0.477295	0.057917	-0.006400	0.078020	0.438187	-0.296597	-0.114330	-0.840804	-4.847650	-36.795202	-123.334009
34465		5.843227	-0.643876	7.794569	0.017585	-0.006332	-0.049858	-0.012017	0.018275	0.021556	-0.649658	0.387695	-0.477539	0.058440	-0.006428	0.077941	0.438263	-0.296598	-0.114233	-0.840777	-4.862756	-36.789211	-123.319602
34466		5.817952	-0.695035	7.792144	-0.012374	0.037679	-0.063453	-0.010656	0.019301	0.019753	-0.649902	0.389160	-0.486572	0.058188	-0.006940	0.077916	0.438335	-0.296589	-0.114140	-0.840755	-4.876422	-36.782666	-123.306488
34467		5.870015	-0.722532	7.786087	-0.058769	0.014341	-0.035233	-0.012018	0.018277	0.021565	-0.650391	0.385986	-0.478760	0.058708	-0.007214	0.077856	0.438411	-0.296590	-0.114042	-0.840729	-4.891526	-36.776668	-123.292081
34468		5.821766	-0.725078	7.772765	-0.044083	0.040335	-0.074567	-0.007573	0.019078	0.013780	-0.646729	0.395020	-0.482666	0.058226	-0.007244	0.077722	0.438462	-0.296572	-0.113972	-0.840718	-4.900881	-36.770537	-123.283215
34469		5.859366	-0.748008	7.813395	-0.062676	0.045487	-0.018055	-0.003807	0.022235	0.010488	-0.657471	0.389893	-0.488281	0.058603	-0.007476	0.078128	0.438506	-0.296531	-0.113916	-0.840717	-4.906405	-36.762818	-123.276949
34470		5.841984	-0.678076	7.778668	-0.012667	-0.001291	-0.060966	-0.005610	0.022135	0.007960	-0.655029	0.398682	-0.487305	0.058429	-0.006776	0.077780	0.438533	-0.296494	-0.113855	-0.840724	-4.912022	-36.755251	-123.272908
34471		5.823739	-0.729810	7.753143	-0.056544	0.028485	-0.088708	-0.004528	0.021049	0.008045	-0.650635	0.389160	-0.491211	0.058246	-0.007294	0.077525	0.438565	-0.296458	-0.113803	-0.840727	-4.916959	-36.748328	-123.268314
34472		5.815196	-0.680017	7.773933	-0.004607	0.012899	-0.080638	-0.003166	0.022074	0.006240	-0.654785	0.396240	-0.484375	0.058161	-0.006797	0.077733	0.438590	-0.296415	-0.113755	-0.840736	-4.920449	-36.740873	-123.265348
34473		5.829032	-0.751360	7.811160	-0.053643	0.061284	-0.037732	-0.001763	0.020906	0.004197	-0.654053	0.393555	-0.481201	0.058299	-0.007512	0.078106	0.438610	-0.296372	-0.113720	-0.840745	-4.922165	-36.734220	-123.263488
34474		5.820708	-0.676856	7.830108	0.017072	0.030396	-0.032700	-0.002523	0.021912	0.001988	-0.661865	0.398193	-0.485107	0.058216	-0.006767	0.078295	0.438616	-0.296325	-0.113681	-0.840764	-4.923473	-36.727082	-123.263853
34475		5.809900	-0.705626	7.779481	-0.021941	0.030605	-0.077609	-0.000285	0.021089	0.008863	-0.652832	0.393799	-0.480713	0.058108	-0.007054	0.077789	0.438657	-0.296281	-0.113645	-0.840763	-4.926321	-36.720095	-123.258682
34476		5.824254	-0.703695	7.811228	-0.014637	0.033058	-0.043803	0.000964	0.022957	0.000591	-0.657959	0.393066	-0.475342	0.058252	-0.007037	0.078106	0.438662	-0.296222	-0.113620	-0.840785	-4.924993	-36.712435	-123.260237
34477		5.822492	-0.703831	7.812529	-0.014160	0.033864	-0.043805	-0.002523	0.021914	0.001995	-0.654785	0.395508	-0.483643	0.058234	-0.007037	0.078119	0.438672	-0.296175	-0.113583	-0.840801	-4.926168	-36.705315	-123.260007
34478		5.828394	-0.657278	7.786850	0.009970	-0.010217	-0.063994	-0.002523	0.021914	0.001997	-0.649414	0.399170	-0.473145	0.058293	-0.006571	0.077862	0.438675	-0.296129	-0.113543	-0.840821	-4.927469	-36.698188	-123.260664
34479		5.826454	-0.682084	7.789957	-0.008326	0.005899	-0.060963	-0.003170	0.022077	0.006257	-0.648193	0.384033	-0.486084	0.058273	-0.006818	0.077893	0.438703	-0.296085	-0.113497	-0.840828	-4.930821	-36.690765	-123.257411
34480		5.824577	-0.707101	7.792993	-0.026610	0.021996	-0.057933	-0.005253	0.019865	0.005613	-0.660156	0.393066	-0.483154	0.058254	-0.007067	0.077924	0.438723	-0.296054	-0.113447	-0.840835	-4.935331	-36.684579	-123.254406
34481		5.839348	-0.681314	7.822690	-0.000539	0.009163	-0.027159	-0.005213	0.017672	0.005375	-0.656250	0.390625	-0.483398	0.058401	-0.006810	0.078222	0.438741	-0.296033	-0.113403	-0.840839	-4.939639	-36.679714	-123.251512
34482		5.791294	-0.682812	7.809201	0.014122	0.035123	-0.066534	-0.005537	0.017754	0.007505	-0.653076	0.391846	-0.482666	0.057920	-0.006824	0.078087	0.438760	-0.296014	-0.113351	-0.840843	-4.945156	-36.674693	-123.248062
34483		5.790106	-0.659295	7.808325	0.033370	0.020615	-0.069567	-0.004456	0.016667	0.007589	-0.661133	0.398682	-0.479492	0.057908	-0.006589	0.078079	0.438788	-0.295997	-0.113310	-0.840840	-4.950007	-36.670292	-123.243531
34484		5.819353	-0.686162	7.794905	-0.005905	0.009882	-0.060965	-0.009229	0.010212	0.010311	-0.655762	0.397461	-0.485107	0.058198	-0.006855	0.077946	0.438810	-0.296019	-0.113255	-0.840828	-4.959115	-36.669431	-123.237535
34485		5.810935	-0.685586	7.818901	0.008482	0.024949	-0.046854	-0.007983	0.017818	0.009234	-0.652832	0.386230	-0.487061	0.058117	-0.006850	0.078184	0.438840	-0.296005	-0.113193	-0.840825	-4.966643	-36.664291	-123.231907
34486		5.809749	-0.686647	7.819689	0.008970	0.025742	-0.046856	-0.007540	0.011156	0.006380	-0.653076	0.398682	-0.475342	0.058102	-0.006862	0.078194	0.438850	-0.296018	-0.113150	-0.840822	-4.973072	-36.663069	-123.228581
34487		5.815949	-0.714047	7.798801	-0.023237	0.027597	-0.057938	-0.012394	0.009088	0.009585	-0.657715	0.395020	-0.489258	0.058163	-0.007133	0.077986	0.438870	-0.296051	-0.113088	-0.840808	-4.983598	-36.662893	-123.222164
34488		5.799622	-0.668913	7.765058	0.007962	-0.003933	-0.097796	-0.010989	0.007920	0.007539	-0.658936	0.391357	-0.487549	0.058000	-0.006683	0.077649	0.438878	-0.296085	-0.113036	-0.840799	-4.992632	-36.663467	-123.217807
34489		5.838237	-0.667848	7.803245	0.008195	-0.014004	-0.044299	-0.010597	0.009188	0.012123	-0.660400	0.389160	-0.484131	0.058386	-0.006671	0.078030	0.438911	-0.296115	-0.112978	-0.840779	-5.003202	-36.663106	-123.209590
34490		5.783388	-0.692535	7.814202	0.017981	0.041511	-0.066565	-0.011314	0.008001	0.009671	-0.649414	0.395264	-0.484375	0.057837	-0.006918	0.078140	0.438924	-0.296151	-0.112920	-0.840767	-5.013289	-36.663540	-123.204137
34491		5.781215	-0.699645	7.737609	-0.016214	0.012076	-0.128570	-0.010989	0.007921	0.007543	-0.651855	0.394287	-0.485107	0.057815	-0.006990	0.077374	0.438937	-0.296185	-0.112870	-0.840755	-5.022185	-36.664128	-123.199100
34492		5.789200	-0.697159	7.791797	0.005029	0.028834	-0.080672	-0.011678	0.010276	0.012047	-0.652588	0.393799	-0.480225	0.057896	-0.006964	0.077915	0.438966	-0.296213	-0.112803	-0.840739	-5.033446	-36.663108	-123.191421
34493		5.819014	-0.700345	7.776249	-0.015486	0.002803	-0.075069	-0.013006	0.007058	0.013610	-0.646484	0.393066	-0.481689	0.058193	-0.006994	0.077761	0.439001	-0.296258	-0.112737	-0.840714	-5.046108	-36.663882	-123.182013
34494		5.818315	-0.701934	7.776628	-0.014998	0.003592	-0.075069	-0.012070	0.009010	0.007466	-0.652100	0.405762	-0.487793	0.058187	-0.007012	0.077764	0.439009	-0.296290	-0.112678	-0.840707	-5.055687	-36.663824	-123.177677
34495		5.810088	-0.701606	7.800440	-0.000604	0.018669	-0.060976	-0.010676	0.013576	0.012622	-0.652344	0.402588	-0.487793	0.058107	-0.007008	0.078001	0.439047	-0.296301	-0.112610	-0.840692	-5.066350	-36.660925	-123.169382
34496		5.816277	-0.704924	7.777883	-0.014032	0.005179	-0.075068	-0.011393	0.012391	0.010169	-0.646240	0.394775	-0.489502	0.058168	-0.007042	0.077776	0.439072	-0.296319	-0.112543	-0.840681	-5.076599	-36.658774	-123.162751
34497		5.808052	-0.704454	7.801699	0.000363	0.020258	-0.060979	-0.008906	0.010134	0.008202	-0.658203	0.394775	-0.484863	0.058085	-0.007039	0.078014	0.439092	-0.296339	-0.112496	-0.840670	-5.084499	-36.658061	-123.157385
34498		5.806782	-0.729918	7.804161	-0.017920	0.036364	-0.057956	-0.006862	0.014538	0.009100	-0.645996	0.394043	-0.482178	0.058074	-0.007294	0.078038	0.439118	-0.296337	-0.112444	-0.840664	-5.091565	-36.654752	-123.152137
34499		5.805288	-0.755297	7.806790	-0.036214	0.052485	-0.054934	-0.005820	0.015644	0.009427	-0.652832	0.401123	-0.479004	0.058059	-0.007548	0.078064	0.439151	-0.296327	-0.112396	-0.840657	-5.098007	-36.650832	-123.146249
34500		5.835239	-0.708900	7.788026	-0.019172	-0.004190	-0.055356	-0.004049	0.012201	0.005002	-0.655518	0.394043	-0.485596	0.058357	-0.007086	0.077877	0.439162	-0.296327	-0.112368	-0.840655	-5.101835	-36.649070	-123.143731
34501		5.803771	-0.683720	7.802948	0.021061	0.008129	-0.064010	-0.003372	0.015581	0.007706	-0.649902	0.399658	-0.486084	0.058044	-0.006834	0.078025	0.439192	-0.296311	-0.112333	-0.840650	-5.106145	-36.645273	-123.139065
34502		5.832273	-0.758895	7.793341	-0.055746	0.028039	-0.049307	-0.004880	0.017598	0.003286	-0.652100	0.390869	-0.487793	0.058330	-0.007586	0.077928	0.439197	-0.296289	-0.112291	-0.840660	-5.109503	-36.640515	-123.138147
34503		5.808210	-0.711094	7.783348	-0.010667	0.010757	-0.075068	-0.004088	0.014396	0.005252	-0.645752	0.396729	-0.483887	0.058088	-0.007108	0.077829	0.439215	-0.296279	-0.112260	-0.840659	-5.113226	-36.637519	-123.135152
34504		5.822693	-0.733920	7.816552	-0.022089	0.028601	-0.038253	-0.002005	0.016606	0.005907	-0.652344	0.395508	-0.487061	0.058234	-0.007337	0.078161	0.439236	-0.296255	-0.112229	-0.840660	-5.116081	-36.633185	-123.132241
