// General information: 
//  MT Manager version: 2021.4.0 
//  XDA version: 2021.4.0 build 6323 rev 112641 built on 2021-09-28
// Device information: 
//  DeviceId: 00B47795
//  ProductCode: MTW2-3A7G6
//  Firmware Version: 4.6.0
//  Hardware Version: 2.0.0
// Device settings: 
//  Filter Profile: human(46.1)
//  Option Flags: Orientation Smoother Disabled, Position/Velocity Smoother Disabled, Continuous Zero Rotation Update Disabled, AHS Disabled, ICC Disabled
// Coordinate system: ENU
PacketCounter	SampleTimeFine	Acc_X	Acc_Y	Acc_Z	FreeAcc_E	FreeAcc_N	FreeAcc_U	Gyr_X	Gyr_Y	Gyr_Z	Mag_X	Mag_Y	Mag_Z	VelInc_X	VelInc_Y	VelInc_Z	Quat_q0	Quat_q1	Quat_q2	Quat_q3	Roll	Pitch	Yaw
25633		9.668516	0.850426	-1.104548	-0.013586	-0.021428	-0.044227	-0.013172	-0.006833	0.001069	-0.817627	0.201904	0.376709	0.096685	0.008504	-0.011043	0.211427	-0.683517	-0.296866	-0.632434	141.994085	-81.927292	80.244588
25634		9.673425	0.822479	-1.124640	-0.047055	-0.012284	-0.039557	-0.011390	-0.007044	-0.000130	-0.824219	0.205078	0.381592	0.096735	0.008224	-0.011243	0.211347	-0.683550	-0.296871	-0.632423	141.987105	-81.919497	80.245186
25635		9.642063	0.829330	-1.112211	-0.033958	-0.011920	-0.071390	-0.014228	-0.008562	-0.002132	-0.817383	0.210693	0.373047	0.096421	0.008291	-0.011119	0.211246	-0.683589	-0.296875	-0.632413	141.976532	-81.910214	80.247607
25636		9.664400	0.827109	-1.103503	-0.028508	0.000048	-0.050431	-0.007987	-0.005788	-0.001123	-0.823242	0.200439	0.383789	0.096644	0.008270	-0.011033	0.211176	-0.683613	-0.296893	-0.632403	141.965252	-81.902635	80.254517
25637		9.633069	0.833851	-1.090895	-0.015405	0.000400	-0.082264	-0.009768	-0.005577	0.000076	-0.817383	0.203857	0.377930	0.096331	0.008338	-0.010907	0.211104	-0.683640	-0.296902	-0.632393	141.957073	-81.895511	80.257395
25638		9.681920	0.819465	-1.149136	-0.067240	-0.019545	-0.028684	-0.013293	-0.004182	-0.005400	-0.823486	0.201904	0.378174	0.096820	0.008191	-0.011490	0.211005	-0.683658	-0.296915	-0.632401	141.925272	-81.887145	80.281964
25639		9.659188	0.856216	-1.085193	0.003870	-0.005724	-0.055094	-0.010702	-0.005758	-0.003216	-0.814453	0.209229	0.371826	0.096592	0.008560	-0.010850	0.210918	-0.683682	-0.296932	-0.632396	141.906331	-81.878759	80.294997
25640		9.645485	0.855201	-1.117329	-0.021237	-0.026661	-0.065175	-0.014915	-0.005648	-0.005606	-0.822266	0.207031	0.375977	0.096455	0.008548	-0.011171	0.210810	-0.683706	-0.296943	-0.632401	141.876683	-81.869656	80.316453
25641		9.663028	0.847821	-1.162502	-0.059687	-0.047105	-0.043422	-0.019411	-0.005408	-0.006499	-0.822510	0.204346	0.386475	0.096631	0.008474	-0.011623	0.210689	-0.683731	-0.296947	-0.632412	141.842022	-81.860368	80.341219
25642		9.636436	0.860778	-1.095689	-0.002681	-0.014359	-0.076047	-0.016696	-0.005437	-0.004406	-0.818115	0.199707	0.385254	0.096365	0.008605	-0.010955	0.210579	-0.683758	-0.296948	-0.632419	141.814726	-81.851782	80.359269
25643		9.658800	0.858751	-1.086647	0.002795	-0.002352	-0.055092	-0.012236	-0.002453	-0.002198	-0.813477	0.209961	0.378174	0.096588	0.008586	-0.010866	0.210491	-0.683777	-0.296948	-0.632427	141.790611	-81.845139	80.375893
25644		9.619951	0.784488	-1.141817	-0.089408	0.011746	-0.093917	-0.015849	-0.005827	-0.008899	-0.817383	0.200684	0.385498	0.096200	0.007840	-0.011416	0.210369	-0.683798	-0.296968	-0.632436	141.750760	-81.834782	80.407118
25645		9.662634	0.850610	-1.163736	-0.060747	-0.043710	-0.043413	-0.008391	-0.003003	-0.006096	-0.821533	0.201660	0.379150	0.096627	0.008503	-0.011636	0.210285	-0.683807	-0.296998	-0.632440	141.718432	-81.826581	80.434925
25646		9.702436	0.874243	-1.125853	-0.016388	-0.028877	-0.006158	-0.010295	-0.004340	-0.004805	-0.820068	0.203125	0.385254	0.097025	0.008740	-0.011257	0.210197	-0.683823	-0.297019	-0.632442	141.691051	-81.818341	80.456768
25647		9.689681	0.855134	-1.100806	-0.011642	0.001552	-0.023264	-0.012482	-0.001346	-0.008575	-0.820313	0.203125	0.371094	0.096897	0.008546	-0.011008	0.210092	-0.683828	-0.297042	-0.632460	141.644094	-81.809989	80.496822
25648		9.644707	0.861073	-1.119533	-0.023372	-0.019915	-0.065163	-0.016008	-0.004149	-0.007491	-0.815430	0.198730	0.383789	0.096448	0.008606	-0.011194	0.209977	-0.683846	-0.297054	-0.632474	141.604715	-81.800874	80.527481
25649		9.644612	0.861982	-1.119647	-0.023639	-0.019067	-0.065162	-0.015762	-0.001055	-0.007672	-0.818115	0.204346	0.374512	0.096447	0.008615	-0.011197	0.209866	-0.683854	-0.297065	-0.632497	141.557833	-81.793008	80.565880
25650		9.661972	0.888440	-1.090792	0.014994	-0.015378	-0.048856	-0.009203	-0.001634	-0.009478	-0.813721	0.204346	0.377686	0.096620	0.008879	-0.010908	0.209771	-0.683853	-0.297103	-0.632512	141.510127	-81.784308	80.608892
25651		9.644440	0.863868	-1.119674	-0.024176	-0.017391	-0.065160	-0.017543	-0.000846	-0.006471	-0.819336	0.201660	0.380615	0.096445	0.008635	-0.011197	0.209661	-0.683863	-0.297107	-0.632536	141.466004	-81.777005	80.643939
25652		9.648186	0.888705	-1.122531	-0.010364	-0.035488	-0.058919	-0.012605	-0.002891	-0.008485	-0.818604	0.201172	0.377686	0.096482	0.008882	-0.011224	0.209556	-0.683871	-0.297132	-0.632550	141.422710	-81.768087	80.680526
25653		9.635416	0.869793	-1.097543	-0.005619	-0.005078	-0.076039	-0.015724	-0.004278	-0.008989	-0.820557	0.198242	0.381104	0.096355	0.008693	-0.010974	0.209436	-0.683887	-0.297150	-0.632563	141.380231	-81.758285	80.714486
25654		9.639146	0.894595	-1.100512	0.008193	-0.023175	-0.069794	-0.017947	-0.002263	-0.004883	-0.824219	0.197266	0.381836	0.096392	0.008943	-0.011005	0.209325	-0.683904	-0.297146	-0.632584	141.343619	-81.750928	80.741230
25655		9.666298	0.898402	-1.037259	0.057560	0.021268	-0.049666	-0.019286	-0.003859	-0.006588	-0.821045	0.203125	0.387695	0.096663	0.008980	-0.010372	0.209199	-0.683927	-0.297142	-0.632602	141.305248	-81.742116	80.768516
25656		9.631306	0.848250	-1.095351	-0.020538	0.016386	-0.082287	-0.016411	-0.005565	-0.005905	-0.816162	0.202637	0.384033	0.096314	0.008479	-0.010952	0.209085	-0.683952	-0.297150	-0.632610	141.274638	-81.732912	80.790086
25657		9.662467	0.842463	-1.108809	-0.034161	0.017787	-0.050465	-0.014790	-0.004098	-0.005697	-0.819336	0.198730	0.377930	0.096625	0.008421	-0.011087	0.208976	-0.683973	-0.297157	-0.632619	141.243395	-81.724298	80.812819
25658		9.653527	0.847309	-1.086809	-0.015341	0.029249	-0.061350	-0.008071	-0.006350	-0.008913	-0.822266	0.194580	0.387939	0.096536	0.008468	-0.010865	0.208880	-0.683987	-0.297202	-0.632615	141.210383	-81.713660	80.841646
25659		9.633803	0.893078	-1.156070	-0.037058	-0.051341	-0.068960	-0.007986	-0.001581	-0.007682	-0.813477	0.202637	0.375244	0.096338	0.008927	-0.011560	0.208791	-0.683990	-0.297235	-0.632626	141.169895	-81.705442	80.877446
25660		9.647312	0.895478	-1.124653	-0.012520	-0.028707	-0.058900	-0.012849	-0.005982	-0.008306	-0.817627	0.198486	0.384277	0.096474	0.008950	-0.011244	0.208681	-0.684009	-0.297262	-0.632629	141.135255	-81.695182	80.905153
25661		9.657203	0.840423	-1.164234	-0.079158	-0.011240	-0.049648	-0.011388	-0.002839	-0.006689	-0.818848	0.194336	0.383301	0.096572	0.008400	-0.011641	0.208586	-0.684019	-0.297285	-0.632639	141.099603	-81.686823	80.934741
25662		9.687172	0.886564	-1.160823	-0.045539	-0.037078	-0.016190	-0.003734	-0.004913	-0.006614	-0.816895	0.194824	0.381592	0.096872	0.008862	-0.011606	0.208514	-0.684027	-0.297334	-0.632630	141.072855	-81.677643	80.959751
25663		9.643175	0.873988	-1.122711	-0.027411	-0.007226	-0.065156	-0.005802	-0.000369	-0.010469	-0.812256	0.204590	0.390869	0.096432	0.008735	-0.011227	0.208424	-0.684020	-0.297381	-0.632645	141.022405	-81.668933	81.006772
25664		9.656891	0.843179	-1.164828	-0.079982	-0.008696	-0.049652	-0.005641	-0.002043	-0.011878	-0.817627	0.200439	0.390625	0.096570	0.008426	-0.011648	0.208334	-0.684014	-0.297439	-0.632655	140.971657	-81.659128	81.054934
25665		9.632397	0.850349	-1.362531	-0.222678	-0.145814	-0.050935	-0.066548	-0.023857	-0.003373	-0.808105	0.196289	0.390137	0.096326	0.008497	-0.013617	0.208024	-0.684156	-0.297293	-0.632671	140.967520	-81.642484	81.019906
25666		9.146741	-0.020309	-2.679025	-1.790668	-0.440441	-0.461753	-0.032945	-0.076776	0.030396	-0.817627	0.195801	0.385498	0.091478	-0.000194	-0.026755	0.207862	-0.684477	-0.297198	-0.632422	141.212061	-81.614584	80.753792
25667		9.158295	1.029707	-2.177139	-0.707794	-0.875885	-0.410217	0.059224	-0.091387	0.000881	-0.813477	0.196533	0.382568	0.091593	0.010304	-0.021726	0.207895	-0.684709	-0.297504	-0.632017	141.454741	-81.569194	80.541855
25668		9.482691	0.619452	-2.252070	-1.022090	-0.570788	-0.116992	0.014618	-0.103152	0.033724	-0.814209	0.200439	0.394287	0.094837	0.006212	-0.022471	0.207867	-0.685068	-0.297575	-0.631603	141.795490	-81.530270	80.205974
25669		9.538346	0.684694	-1.799586	-0.632099	-0.307696	-0.107374	0.070443	-0.081841	0.035120	-0.811768	0.200195	0.391357	0.095390	0.006870	-0.017954	0.208062	-0.685308	-0.297791	-0.631176	142.120501	-81.500968	79.917597
25670		9.664321	0.950031	-1.460988	-0.191746	-0.257401	0.002256	0.054862	-0.072360	0.022071	-0.815430	0.204346	0.397705	0.096647	0.009515	-0.014572	0.208181	-0.685511	-0.297997	-0.630820	142.371532	-81.471372	79.695693
25671		9.676111	0.842641	-1.072696	0.030901	0.083943	-0.041309	0.042137	-0.065574	0.017575	-0.812012	0.205322	0.390869	0.096764	0.008437	-0.010693	0.208247	-0.685703	-0.298166	-0.630509	142.586354	-81.442916	79.502119
25672		9.868523	0.907754	-0.883646	0.225499	0.193046	0.132385	-0.012013	-0.061986	0.016314	-0.812012	0.205566	0.391846	0.098687	0.009085	-0.008806	0.208134	-0.685934	-0.298170	-0.630294	142.754811	-81.415804	79.324938
25673		9.813696	0.735650	-0.932853	0.077018	0.282756	0.068312	-0.021043	-0.058278	0.015878	-0.809814	0.202881	0.394531	0.098139	0.007363	-0.009301	0.207992	-0.686164	-0.298142	-0.630103	142.909240	-81.390002	79.156488
25674		9.705864	0.599851	-1.168201	-0.186500	0.214933	-0.022522	-0.036258	-0.064762	0.019697	-0.812500	0.204590	0.392090	0.097062	0.006006	-0.011652	0.207803	-0.686434	-0.298060	-0.629910	143.078222	-81.362638	78.964700
25675		9.635909	0.590963	-1.332166	-0.310783	0.106740	-0.072736	0.002717	-0.061672	0.012847	-0.812744	0.207764	0.399170	0.096363	0.005916	-0.013292	0.207727	-0.686646	-0.298119	-0.629676	143.242623	-81.334071	78.799653
25676		9.629932	0.696785	-1.492050	-0.353254	-0.073677	-0.049640	0.020046	-0.062945	0.011553	-0.821533	0.202393	0.392578	0.096304	0.006975	-0.014889	0.207707	-0.686839	-0.298241	-0.629414	143.412966	-81.304588	78.639093
25677		9.547571	0.701180	-1.557454	-0.395413	-0.128256	-0.122454	0.044231	-0.069129	0.013478	-0.812256	0.198242	0.400146	0.095481	0.007022	-0.015540	0.207766	-0.687032	-0.298437	-0.629091	143.617238	-81.272667	78.457860
25678		9.560639	0.932452	-1.468453	-0.167655	-0.233464	-0.099345	0.065478	-0.066183	0.009485	-0.825439	0.201172	0.398682	0.095611	0.009334	-0.014650	0.207891	-0.687185	-0.298712	-0.628752	143.812091	-81.240825	78.298813
25679		9.640350	0.976648	-1.400014	-0.078688	-0.204377	-0.024824	0.031990	-0.071558	0.011356	-0.807861	0.208008	0.395264	0.096408	0.009774	-0.013964	0.207892	-0.687397	-0.298875	-0.628443	144.004978	-81.206793	78.121208
25680		9.595705	0.729666	-1.432603	-0.263771	-0.046776	-0.086920	0.030103	-0.073861	0.020536	-0.809570	0.209473	0.398926	0.095962	0.007309	-0.014289	0.207919	-0.687627	-0.299009	-0.628119	144.226668	-81.174929	77.914464
25681		9.544760	0.931396	-1.257510	0.006585	-0.082929	-0.140854	0.082669	-0.066746	0.017428	-0.813721	0.213135	0.403320	0.095451	0.009327	-0.012539	0.208126	-0.687778	-0.299310	-0.627741	144.454629	-81.145053	77.731715
25682		9.673809	1.164219	-0.993652	0.369791	-0.056600	-0.025687	0.102140	-0.062310	0.031683	-0.811279	0.209229	0.393066	0.096739	0.011663	-0.009900	0.208453	-0.687913	-0.299620	-0.627337	144.723344	-81.122022	77.519118
25683		9.778891	0.814994	-1.030507	0.119396	0.193251	0.051453	0.122531	-0.068890	0.045377	-0.807129	0.217285	0.391846	0.097791	0.008178	-0.010266	0.208884	-0.688069	-0.299953	-0.626863	145.059416	-81.100113	77.250245
25684		9.916451	0.810503	-0.853957	0.260255	0.336862	0.164333	0.146668	-0.069912	0.032824	-0.806396	0.205322	0.398682	0.099166	0.008128	-0.008499	0.209355	-0.688183	-0.300406	-0.626364	145.370176	-81.073522	77.020887
25685		10.065564	0.792262	-0.777272	0.319031	0.426884	0.299849	0.170080	-0.078891	0.037908	-0.811523	0.212402	0.392090	0.100657	0.007948	-0.007726	0.209911	-0.688308	-0.300924	-0.625791	145.728233	-81.044011	76.757383
25686		10.141343	1.026498	-0.379667	0.782750	0.535813	0.343340	0.269610	-0.075108	0.032818	-0.812012	0.218262	0.395752	0.101413	0.010287	-0.003745	0.210798	-0.688307	-0.301767	-0.625088	146.116408	-81.014516	76.520929
25687		10.411355	1.546161	0.139001	1.537596	0.550012	0.586328	0.312375	-0.092301	0.048431	-0.805176	0.204834	0.404541	0.104109	0.015485	0.001462	0.211857	-0.688337	-0.302709	-0.624240	146.609775	-80.981440	76.203336
25688		10.626166	1.693550	0.225820	1.725416	0.540776	0.796977	0.354313	-0.115635	0.083136	-0.813232	0.211426	0.402100	0.106253	0.016976	0.002350	0.213130	-0.688445	-0.303684	-0.623213	147.273049	-80.947559	75.737426
25689		10.585968	1.956425	0.320558	1.994081	0.415524	0.762945	0.383147	-0.152132	0.116539	-0.806641	0.217285	0.404053	0.105846	0.019620	0.003324	0.214543	-0.688689	-0.304665	-0.621979	148.120107	-80.905031	75.100891
25690		10.735867	2.354331	0.370680	2.338192	0.193493	0.931355	0.394795	-0.195479	0.164582	-0.807373	0.217773	0.404541	0.107336	0.023624	0.003858	0.216085	-0.689121	-0.305568	-0.620522	149.192192	-80.854177	74.244316
25691		11.392113	3.043826	0.959721	3.305248	0.206134	1.545079	0.400241	-0.235865	0.222252	-0.809082	0.221924	0.398438	0.113876	0.030545	0.009793	0.217758	-0.689759	-0.306327	-0.618852	150.505393	-80.796911	73.145766
25692		11.734658	3.453066	0.863517	3.586321	-0.090495	1.913408	0.474348	-0.301219	0.330738	-0.806396	0.230713	0.397461	0.117276	0.034704	0.008894	0.219924	-0.690675	-0.307014	-0.616720	152.288866	-80.732003	71.614364
25693		11.141085	3.573469	1.611632	4.239655	0.256157	1.207752	0.587141	-0.370427	0.388992	-0.800049	0.236816	0.408936	0.111311	0.035903	0.016428	0.222551	-0.691761	-0.307921	-0.614103	154.400016	-80.638289	69.816202
25694		10.770854	2.417041	1.342509	3.287883	0.853726	0.775805	0.668244	-0.457783	0.443403	-0.799072	0.233154	0.411377	0.107623	0.024363	0.013753	0.225486	-0.693097	-0.308979	-0.610987	156.807192	-80.500481	67.764316
25695		10.344907	3.258708	1.118079	3.774382	0.056867	0.416508	0.704018	-0.554114	0.512768	-0.794678	0.238525	0.414795	0.103333	0.032812	0.011582	0.228598	-0.694779	-0.310003	-0.607390	159.501291	-80.311226	65.440416
25696		10.499562	3.283946	-0.631515	2.668349	-1.136151	0.818027	0.479159	-0.627499	0.582970	-0.785889	0.250732	0.412354	0.104918	0.033160	-0.005907	0.231027	-0.697030	-0.310180	-0.603791	162.261215	-80.077358	62.918341
25697		10.653423	3.160099	-1.681336	1.961732	-1.751620	1.113934	0.345585	-0.607604	0.636366	-0.781982	0.260498	0.419922	0.106483	0.031968	-0.016435	0.233172	-0.699445	-0.309733	-0.600394	164.966570	-79.842691	60.371216
25698		10.200477	3.421875	-1.139598	2.580718	-1.630067	0.567088	0.030027	-0.549771	0.658490	-0.783936	0.260254	0.426270	0.101922	0.034556	-0.011111	0.234370	-0.702071	-0.308193	-0.597649	167.399118	-79.623725	57.916725
25699		9.748953	1.819570	-1.627506	1.133079	-0.931176	0.129662	-0.246049	-0.407670	0.674043	-0.777588	0.272949	0.420898	0.097460	0.018504	-0.016099	0.234856	-0.704610	-0.305598	-0.595800	169.538623	-79.468891	55.597148
25700		9.973778	0.769408	-1.038888	0.876449	0.227634	0.203665	-0.093118	-0.146464	0.525312	-0.773926	0.270508	0.428223	0.099725	0.007951	-0.010320	0.235839	-0.705954	-0.303675	-0.594804	171.130969	-79.433862	53.923303
25701		10.526516	-1.531600	-0.418189	-0.234352	2.330589	0.571990	0.173519	0.137448	0.325051	-0.766602	0.271973	0.424561	0.105287	-0.015141	-0.004267	0.237596	-0.705830	-0.302915	-0.594638	172.137261	-79.536137	53.000966
25702		9.440187	-1.736903	-0.574718	-0.614240	2.173447	-0.465874	0.341013	0.405077	0.057235	-0.771973	0.279297	0.419922	0.094395	-0.017332	-0.005968	0.239552	-0.704303	-0.303279	-0.595478	172.314315	-79.767846	53.019741
25703		8.335358	0.651069	0.026501	1.347896	0.735726	-1.594146	0.356818	0.616755	-0.273047	-0.777832	0.279297	0.415039	0.083363	0.006397	0.000019	0.240897	-0.701619	-0.304594	-0.597429	171.338700	-80.092615	54.217967
25704		8.402204	2.387384	0.686788	2.991886	-0.019063	-1.577637	0.038116	0.766331	-0.490133	-0.777344	0.272461	0.415527	0.084106	0.023667	0.006550	0.240702	-0.698528	-0.305536	-0.600641	169.286720	-80.475405	56.322086
25705		8.505804	1.588726	0.199323	2.010391	0.194043	-1.396489	-0.167895	0.907757	-0.608375	-0.779785	0.270996	0.410400	0.085114	0.015630	0.001594	0.239638	-0.695064	-0.306090	-0.604788	166.417654	-80.907499	59.131482
25706		8.723825	0.882359	0.112896	1.361682	0.637778	-1.173566	-0.260863	1.035514	-0.751085	-0.782715	0.263916	0.406982	0.087275	0.008497	0.000666	0.238010	-0.691078	-0.306699	-0.609670	162.566097	-81.361119	62.878418
25707		9.077399	0.210274	0.132231	0.799442	1.151396	-0.840808	-0.357379	1.132282	-0.884888	-0.796387	0.251953	0.394287	0.090788	0.001703	0.000805	0.235772	-0.686679	-0.307339	-0.615164	157.624334	-81.794951	67.666109
25708		9.285854	0.439989	0.150754	0.850385	1.015641	-0.610136	-0.386773	1.212898	-0.979484	-0.803711	0.241699	0.382080	0.092885	0.003947	0.000936	0.233257	-0.681875	-0.308106	-0.621054	151.659076	-82.179160	73.466399
25709		9.477271	1.342263	0.069062	1.291507	0.334500	-0.334123	-0.405874	1.243806	-1.007340	-0.804443	0.239014	0.378662	0.094840	0.012946	0.000074	0.230617	-0.676911	-0.308849	-0.627072	144.974812	-82.478546	79.975564
25710		9.733992	1.089551	-0.262622	0.728435	0.296547	-0.046109	-0.395343	1.234578	-0.993939	-0.811279	0.230469	0.371094	0.097374	0.010406	-0.003248	0.228031	-0.671936	-0.309573	-0.632984	137.924675	-82.672596	86.856864
25711		9.606881	0.422953	-0.806901	-0.280372	0.354321	-0.173383	-0.319167	1.176560	-0.935556	-0.818848	0.218018	0.359863	0.096037	0.003767	-0.008640	0.225777	-0.667109	-0.310384	-0.638476	131.023498	-82.757599	93.629187
25712		9.503644	1.092887	-0.765109	0.080011	-0.116086	-0.216978	-0.331409	1.076901	-0.859111	-0.819824	0.215576	0.355957	0.095039	0.010507	-0.008180	0.223563	-0.662694	-0.311001	-0.643533	124.616516	-82.742039	99.896430
25713		9.439174	0.244774	-1.425606	-1.108924	0.002149	-0.327993	-0.276094	0.952403	-0.726695	-0.824219	0.216309	0.343750	0.094330	0.002085	-0.014708	0.221750	-0.658794	-0.311479	-0.647918	119.110462	-82.671158	105.287304
25714		9.256518	-0.407253	-1.499360	-1.716114	0.376123	-0.592614	-0.111112	0.850084	-0.603003	-0.824219	0.202637	0.347168	0.092487	-0.004360	-0.015384	0.220720	-0.655214	-0.312191	-0.651548	114.481443	-82.577059	109.890848
25715		9.016919	-0.119883	-1.598130	-1.663499	0.060262	-0.807033	-0.041597	0.735199	-0.499659	-0.833496	0.195068	0.335693	0.090106	-0.001427	-0.016312	0.220065	-0.652077	-0.312908	-0.654565	110.654896	-82.468970	113.725708
25716		8.517668	-0.125608	-1.834838	-1.880568	-0.174128	-1.305873	-0.005997	0.613377	-0.401953	-0.840820	0.197021	0.335693	0.085117	-0.001428	-0.018609	0.219656	-0.649441	-0.313554	-0.657010	107.593831	-82.361278	116.810450
25717		8.074985	-0.487983	-2.183708	-2.408891	-0.225673	-1.790331	0.028152	0.490601	-0.312357	-0.832275	0.182373	0.328613	0.080688	-0.005003	-0.022036	0.219452	-0.647305	-0.314149	-0.658898	105.240912	-82.263713	119.200381
25718		7.811575	-0.847208	-2.459795	-2.877643	-0.205967	-2.101286	0.068240	0.371048	-0.234171	-0.829346	0.190918	0.330566	0.078060	-0.008555	-0.024746	0.219451	-0.645637	-0.314755	-0.660245	103.534130	-82.181415	120.962606
25719		7.635175	-1.219899	-2.700497	-3.323694	-0.141117	-2.328716	0.110417	0.268128	-0.161541	-0.837646	0.187256	0.324219	0.076306	-0.012246	-0.027114	0.219658	-0.644376	-0.315374	-0.661113	102.366860	-82.120374	122.203973
25720		7.386501	-1.629109	-2.866779	-3.727086	-0.007577	-2.633442	0.181080	0.188788	-0.110683	-0.823242	0.197021	0.329590	0.073829	-0.016306	-0.028752	0.220140	-0.643376	-0.316153	-0.661554	101.620798	-82.075704	123.062072
25721		7.342560	-1.782376	-2.928956	-3.886223	0.040878	-2.701821	0.261499	0.129719	-0.076391	-0.827148	0.189453	0.326416	0.073400	-0.017813	-0.029360	0.220896	-0.642538	-0.317148	-0.661640	101.193620	-82.042298	123.644002
25722		7.266834	-1.564523	-3.004236	-3.788071	-0.184995	-2.748954	0.318654	0.091889	-0.065318	-0.833252	0.193115	0.316406	0.072649	-0.015621	-0.030101	0.221816	-0.641775	-0.318342	-0.661498	100.963954	-82.010591	124.060405
25723		6.998125	-1.701705	-3.275068	-4.058554	-0.322645	-3.028909	0.344262	0.054999	-0.060440	-0.829102	0.200439	0.324219	0.069967	-0.016982	-0.032799	0.222771	-0.641115	-0.319641	-0.661192	100.902551	-81.977414	124.320994
25724		6.860947	-2.101977	-3.505236	-4.493168	-0.235426	-3.214689	0.410362	0.023421	-0.064907	-0.834229	0.189941	0.316162	0.068599	-0.020970	-0.035103	0.223876	-0.640473	-0.321210	-0.660679	101.002397	-81.938357	124.457750
25725		7.030806	-2.185588	-3.502494	-4.563994	-0.171517	-3.058651	0.510817	0.023152	-0.074726	-0.835693	0.194580	0.319092	0.070296	-0.021793	-0.035089	0.225265	-0.639703	-0.323138	-0.660013	101.153861	-81.893777	124.599822
25726		7.248694	-2.038390	-3.412260	-4.414593	-0.201515	-2.826068	0.579078	0.043145	-0.103880	-0.831055	0.194336	0.313965	0.072469	-0.020323	-0.034197	0.226810	-0.638736	-0.325363	-0.659327	101.242897	-81.835092	124.845180
25727		7.603575	-2.052250	-2.703637	-3.965460	0.339678	-2.498629	0.659164	0.072760	-0.127896	-0.835205	0.193848	0.303955	0.076013	-0.020482	-0.027132	0.228574	-0.637538	-0.327887	-0.658627	101.246282	-81.766278	125.222749
25728		10.786370	-1.235142	-0.869946	-2.384333	1.470638	0.712536	0.477343	0.041503	-0.075071	-0.828369	0.197754	0.304932	0.107857	-0.012371	-0.008751	0.229883	-0.636729	-0.329682	-0.658058	101.308642	-81.723645	125.436236
25729		10.562037	-1.951418	0.610010	-1.872868	2.992469	0.349705	0.579496	0.045724	0.169857	-0.828857	0.202881	0.311523	0.105638	-0.019442	0.006020	0.232326	-0.636190	-0.331022	-0.657048	101.605516	-81.819212	125.471439
25730		14.046241	6.044256	3.082425	5.338314	-0.173818	4.843485	0.698774	0.117541	0.065526	-0.831787	0.198242	0.307373	0.140461	0.060381	0.030953	0.234925	-0.635094	-0.333003	-0.656183	101.605860	-81.864430	125.875691
25731		17.195419	13.013193	2.162631	9.570315	-5.125716	8.944674	0.242071	0.030459	0.131704	-0.828857	0.192627	0.295898	0.171872	0.130219	0.021758	0.236139	-0.634929	-0.333369	-0.655720	101.740199	-81.936835	125.879478
25732		13.870249	7.114958	-0.003896	4.089434	-3.167992	4.892642	-0.001113	-0.152176	0.182890	-0.828125	0.196045	0.301514	0.138637	0.071276	0.000066	0.236449	-0.635731	-0.332996	-0.655020	102.507699	-82.015860	125.103884
25733		11.454031	2.895129	-2.434785	-0.406481	-2.419378	1.997726	0.241932	-0.326353	0.310522	-0.828613	0.205078	0.301025	0.114535	0.029158	-0.024126	0.237654	-0.637029	-0.333215	-0.653210	104.256682	-82.140485	123.477531
25734		9.700327	4.475675	-3.790255	0.050629	-4.661705	0.519750	0.668128	-0.424335	0.376734	-0.820068	0.202637	0.315430	0.096998	0.045065	-0.037547	0.240271	-0.638240	-0.334730	-0.650289	106.779209	-82.278281	121.318026
25735		9.018996	3.603005	-3.344025	-0.152516	-3.820971	-0.279456	0.835040	-0.481722	0.449983	-0.819824	0.209229	0.306885	0.090188	0.036372	-0.033072	0.243552	-0.639547	-0.336612	-0.646803	109.817397	-82.431130	118.734798
25736		8.624007	-0.064237	-2.690762	-2.338453	-0.976683	-1.141184	0.846261	-0.531335	0.541310	-0.825684	0.220459	0.313232	0.086312	-0.000296	-0.026680	0.247078	-0.641133	-0.338291	-0.643009	113.327354	-82.602469	115.683882
25737		9.205854	1.348534	-1.295500	-0.311713	-0.778565	-0.456366	0.655034	-0.514673	0.533037	-0.813721	0.230713	0.313477	0.092055	0.013773	-0.012673	0.249982	-0.642872	-0.339350	-0.639583	116.787583	-82.748919	112.573162
25738		9.735621	0.615288	-0.650194	-0.394562	0.246615	-0.047100	0.133371	-0.473693	0.560552	-0.815186	0.231689	0.313477	0.097353	0.006430	-0.006267	0.251365	-0.645163	-0.338596	-0.637128	119.969490	-82.897360	109.443300
25739		9.660346	-2.412237	-1.645629	-3.263274	1.438969	-0.371858	-0.281590	-0.400960	0.572266	-0.808105	0.239990	0.324219	0.096705	-0.023869	-0.016229	0.251564	-0.647758	-0.336385	-0.635586	122.780608	-83.052409	106.448098
25740		9.786540	-2.836005	-2.345103	-3.984013	1.206384	-0.221505	-0.325444	-0.310064	0.496499	-0.810059	0.241943	0.321533	0.097972	-0.028155	-0.023253	0.251533	-0.649981	-0.334164	-0.634500	125.123876	-83.184070	103.900151
25741		10.304400	-2.089432	-2.560600	-3.526492	0.623401	0.398977	-0.266088	-0.247952	0.412076	-0.804443	0.237549	0.323242	0.103118	-0.020716	-0.025451	0.251526	-0.651788	-0.332321	-0.633616	127.103896	-83.285863	101.752429
25742		10.654732	-2.605516	-3.109049	-4.241311	0.590994	0.753299	-0.083529	-0.211182	0.321126	-0.805176	0.243164	0.332520	0.106622	-0.025897	-0.030967	0.251888	-0.653092	-0.331308	-0.632660	128.825495	-83.351450	99.971012
25743		10.486674	-2.703218	-2.982992	-4.195166	0.726180	0.581981	0.226040	-0.156441	0.196441	-0.803223	0.245605	0.330811	0.104917	-0.026895	-0.029778	0.252953	-0.653627	-0.331608	-0.631524	130.154391	-83.376169	98.763111
25744		10.167903	-1.950984	-2.815330	-3.489525	0.314857	0.328452	0.415728	-0.110327	0.124395	-0.802002	0.246338	0.324463	0.101707	-0.019388	-0.028138	0.254489	-0.653651	-0.332685	-0.630314	131.192615	-83.384052	97.957849
25745		9.793597	-0.577747	-2.336127	-2.113452	-0.269939	0.044607	0.586947	-0.063766	0.071636	-0.806641	0.250000	0.322754	0.097945	-0.005674	-0.023347	0.256491	-0.653222	-0.334410	-0.629033	131.987998	-83.385430	97.495339
25746		9.748529	0.698908	-1.541225	-0.610320	-0.503749	0.049939	0.659467	-0.026781	0.034088	-0.793701	0.251709	0.328857	0.097486	0.007056	-0.015376	0.258675	-0.652511	-0.336438	-0.627794	132.562505	-83.384630	97.297498
25747		9.848661	0.563798	-1.150116	-0.450650	-0.111239	0.108063	0.563084	-0.001861	0.034236	-0.807129	0.261475	0.322510	0.098486	0.005687	-0.011484	0.260581	-0.651844	-0.338125	-0.626792	132.994703	-83.393264	97.186846
25748		9.797394	0.705220	-1.199005	-0.364429	-0.247172	0.073160	0.490636	0.013697	0.023621	-0.809570	0.258057	0.325928	0.097972	0.007093	-0.011979	0.262245	-0.651197	-0.339600	-0.625973	133.291098	-83.403603	97.171600
25749		9.761125	1.125722	-1.250692	-0.065925	-0.559125	0.076401	0.386878	0.024542	0.023927	-0.802246	0.259033	0.315430	0.097608	0.011293	-0.012497	0.263587	-0.650652	-0.340730	-0.625361	133.493273	-83.418206	97.190995
25750		9.673197	1.561506	-1.475497	0.136764	-1.018257	0.042798	0.267927	0.011990	0.043160	-0.804199	0.257324	0.317871	0.096728	0.015656	-0.014740	0.264582	-0.650331	-0.341444	-0.624885	133.736034	-83.435961	97.101292
25751		9.569019	2.103728	-1.210285	0.734114	-1.167511	-0.037486	0.189931	0.005327	0.064470	-0.807373	0.262939	0.323486	0.095683	0.021080	-0.012085	0.265377	-0.650173	-0.341852	-0.624490	134.035635	-83.459681	96.909097
25752		9.661308	2.180129	-0.832901	1.038927	-0.916296	0.029496	0.070323	-0.012919	0.098655	-0.811035	0.261963	0.329346	0.096603	0.021852	-0.008315	0.265860	-0.650285	-0.341801	-0.624196	134.450882	-83.490144	96.531835
25753		9.935676	1.579751	-0.557971	0.752906	-0.302021	0.230545	-0.023589	-0.036166	0.129941	-0.804932	0.257568	0.323730	0.099347	0.015861	-0.005564	0.266092	-0.650651	-0.341382	-0.623944	135.013179	-83.523425	95.951864
25754		9.800102	0.534122	-0.773457	-0.180379	0.165875	0.029337	-0.035981	-0.057000	0.144520	-0.806396	0.255615	0.325439	0.097999	0.005411	-0.007708	0.266297	-0.651120	-0.340908	-0.623627	135.698182	-83.553546	95.241872
25755		9.676826	0.644494	-0.400190	0.155790	0.368518	-0.114420	-0.022950	-0.075551	0.131257	-0.812500	0.269287	0.317627	0.096766	0.006508	-0.003966	0.266467	-0.651611	-0.340539	-0.623243	136.415966	-83.569572	94.505754
25756		9.702688	0.341679	-0.322812	-0.015706	0.619310	-0.118395	-0.052257	-0.092390	0.144599	-0.814453	0.265869	0.319824	0.097026	0.003486	-0.003184	0.266558	-0.652211	-0.340061	-0.622838	137.225969	-83.582884	93.660641
25757		9.897112	0.424031	0.063728	0.306672	0.886563	0.049190	-0.020531	-0.092136	0.137459	-0.814453	0.263672	0.323730	0.098968	0.004308	0.000682	0.266730	-0.652758	-0.339703	-0.622386	138.032068	-83.592046	92.837588
25758		10.002929	-0.108080	-0.279402	-0.307239	0.967309	0.143127	-0.022441	-0.102740	0.129132	-0.807617	0.259766	0.328125	0.100031	-0.001017	-0.002743	0.266852	-0.653323	-0.339382	-0.621915	138.840264	-83.592371	92.011510
25759		9.844924	-0.070731	-0.407515	-0.343760	0.829040	-0.000037	0.046360	-0.100414	0.098280	-0.802002	0.262939	0.322266	0.098452	-0.000658	-0.004026	0.267104	-0.653741	-0.339368	-0.621376	139.562870	-83.580750	91.310654
25760		9.919434	0.027889	-0.731212	-0.458981	0.528926	0.109015	0.036754	-0.101386	0.077293	-0.807617	0.262207	0.328125	0.099198	0.000319	-0.007262	0.267261	-0.654134	-0.339398	-0.620878	140.196011	-83.560206	90.694834
25761		9.661321	-0.223875	-1.252637	-0.970672	0.259536	-0.119867	0.067135	-0.108453	0.074050	-0.804443	0.265381	0.327393	0.096621	-0.002199	-0.012475	0.267492	-0.654507	-0.339539	-0.620308	140.854899	-83.534416	90.070059
25762		9.582425	0.243366	-0.986720	-0.429044	0.167614	-0.187537	0.098603	-0.101579	0.048350	-0.817627	0.266113	0.335449	0.095829	0.002462	-0.009817	0.267761	-0.654769	-0.339855	-0.619742	141.401380	-83.501881	89.577059
25763		9.754097	-0.141312	-1.234794	-0.873428	0.241608	-0.021578	0.090570	-0.110855	0.046403	-0.810303	0.276855	0.322998	0.097548	-0.001385	-0.012295	0.267978	-0.655070	-0.340162	-0.619162	141.961633	-83.463780	89.064900
25764		9.577057	0.331082	-0.932051	-0.305396	0.166057	-0.190967	0.119865	-0.113265	0.042173	-0.809082	0.265137	0.326172	0.095775	0.003337	-0.009264	0.268277	-0.655328	-0.340579	-0.618529	142.520390	-83.422710	88.571731
25765		9.439990	0.368592	-0.880808	-0.232639	0.174040	-0.328983	0.126612	-0.146355	0.045571	-0.816406	0.266113	0.329834	0.094405	0.003713	-0.008737	0.268551	-0.655688	-0.341049	-0.617770	143.190479	-83.366952	87.970079
25766		9.564709	0.958042	-0.517923	0.468411	0.111085	-0.198220	0.100508	-0.164877	0.058524	-0.814453	0.266846	0.328125	0.095649	0.009611	-0.005096	0.268749	-0.656158	-0.341422	-0.616978	143.936856	-83.306366	87.276743
25767		9.573029	0.998001	-0.547981	0.496202	0.074146	-0.185256	0.100453	-0.175169	0.063279	-0.811768	0.274170	0.337402	0.095732	0.010013	-0.005391	0.268940	-0.656671	-0.341789	-0.616145	144.720138	-83.241337	86.545656
25768		9.686506	1.688104	-0.204472	1.267024	-0.065082	-0.060238	0.096863	-0.178807	0.078897	-0.812256	0.275146	0.331543	0.096860	0.016920	-0.001950	0.269165	-0.657222	-0.342102	-0.615285	145.555991	-83.178685	85.759927
25769		9.608880	1.392918	-0.379733	0.944653	-0.016648	-0.141994	0.004457	-0.198530	0.098323	-0.817871	0.269043	0.332031	0.096086	0.013976	-0.003702	0.269109	-0.657995	-0.342090	-0.614490	146.455252	-83.111316	84.856483
25770		9.553604	0.987642	-0.561864	0.533309	0.097545	-0.207038	-0.027933	-0.217758	0.103835	-0.812744	0.273438	0.335449	0.095537	0.009925	-0.005516	0.268932	-0.658875	-0.341989	-0.613680	147.386433	-83.034902	83.902471
25771		9.536522	0.461023	-0.965732	-0.108782	0.121498	-0.217700	-0.038376	-0.247408	0.122049	-0.809082	0.275635	0.337158	0.095374	0.004667	-0.009540	0.268724	-0.659893	-0.341832	-0.612764	148.436779	-82.947488	82.821824
25772		9.535878	0.999421	-0.682763	0.511138	0.017588	-0.213919	-0.063171	-0.251001	0.118928	-0.815674	0.273926	0.346680	0.095361	0.010049	-0.006711	0.268419	-0.660946	-0.341616	-0.611883	149.440854	-82.855215	81.773658
25773		9.538158	0.299720	-1.045603	-0.237320	0.185824	-0.217446	-0.136852	-0.278461	0.145563	-0.804932	0.274170	0.346680	0.095394	0.003060	-0.010325	0.267903	-0.662229	-0.341120	-0.610998	150.543984	-82.754387	80.582399
25774		9.607223	0.534910	-0.599267	0.252608	0.405956	-0.183809	-0.098845	-0.283323	0.129060	-0.804199	0.269531	0.351318	0.096077	0.005408	-0.005859	0.267455	-0.663442	-0.340803	-0.610054	151.580732	-82.643978	79.480219
25775		9.606692	0.424522	-0.703070	0.127849	0.409892	-0.180521	-0.121237	-0.306706	0.131206	-0.814941	0.276367	0.344482	0.096075	0.004304	-0.006886	0.266895	-0.664763	-0.340437	-0.609065	152.629824	-82.519538	78.351644
25776		9.554881	0.894148	-0.424937	0.694291	0.339825	-0.237813	-0.092060	-0.333128	0.135046	-0.802734	0.269287	0.342529	0.095550	0.009004	-0.004094	0.266402	-0.666125	-0.340185	-0.607932	153.722755	-82.380119	77.196086
25777		9.603413	0.910869	-0.503557	0.689415	0.293236	-0.182142	-0.095226	-0.368326	0.139871	-0.808105	0.277344	0.356445	0.096037	0.009174	-0.004863	0.265851	-0.667607	-0.339952	-0.606678	154.855400	-82.220672	75.997995
25778		9.510065	0.797792	-0.403409	0.694656	0.448394	-0.296554	-0.060238	-0.397182	0.160932	-0.802979	0.276123	0.350342	0.095102	0.008053	-0.003848	0.265432	-0.669160	-0.339792	-0.605237	156.086750	-82.048049	74.720249
25779		9.465729	0.829633	-0.394142	0.760160	0.450480	-0.343647	-0.050242	-0.437729	0.177127	-0.801025	0.290039	0.357178	0.094658	0.008379	-0.003736	0.265023	-0.670849	-0.339659	-0.603619	157.393674	-81.853761	73.371087
25780		9.494136	1.103001	-0.390374	1.015879	0.307751	-0.305810	-0.074312	-0.476665	0.198920	-0.799072	0.277588	0.368652	0.094939	0.011123	-0.003682	0.264533	-0.672718	-0.339432	-0.601880	158.757816	-81.639246	71.949786
25781		9.459136	0.779153	-0.535615	0.715506	0.419607	-0.342684	-0.028975	-0.506806	0.215668	-0.794922	0.286865	0.363770	0.094596	0.007893	-0.005118	0.264192	-0.674643	-0.339320	-0.599934	160.177413	-81.406870	70.497614
25782		9.532592	1.056657	-0.386904	1.075370	0.393895	-0.282489	-0.029123	-0.544111	0.237241	-0.792236	0.283447	0.377441	0.095323	0.010679	-0.003611	0.263850	-0.676710	-0.339183	-0.597831	161.638099	-81.153195	69.003108
25783		9.480509	0.980424	-0.386901	1.065462	0.460892	-0.344687	0.076484	-0.577875	0.267340	-0.788574	0.282227	0.368896	0.094803	0.009932	-0.003591	0.263895	-0.678785	-0.339299	-0.595388	163.214394	-80.880206	67.451449
25784		9.619219	1.680462	-0.240817	1.765862	0.178574	-0.207439	0.083656	-0.618838	0.308225	-0.791748	0.290283	0.383301	0.096173	0.016954	-0.002103	0.264015	-0.681032	-0.339351	-0.592734	164.875625	-80.584516	65.816959
25785		9.390914	1.666112	-0.313151	1.758230	0.127183	-0.434242	0.166718	-0.681113	0.356934	-0.782471	0.286377	0.388428	0.093889	0.016831	-0.002798	0.264451	-0.683428	-0.339558	-0.589654	166.689489	-80.253139	64.074202
25786		9.394821	2.248624	-0.032050	2.458127	0.005776	-0.470472	0.147390	-0.753758	0.412293	-0.785645	0.292480	0.394287	0.093902	0.022680	0.000050	0.264858	-0.686145	-0.339611	-0.586276	168.595214	-79.878746	62.225357
25787		9.166192	2.075113	0.073936	2.450534	0.191949	-0.741417	0.171718	-0.841176	0.492025	-0.784912	0.295898	0.391602	0.091606	0.020976	0.001143	0.265424	-0.689209	-0.339568	-0.582438	170.666229	-79.452271	60.219713
25788		9.368473	2.796928	0.531775	3.405392	0.152466	-0.633747	0.193005	-0.934571	0.580143	-0.776367	0.302490	0.407227	0.093577	0.028235	0.005782	0.266158	-0.692645	-0.339400	-0.578110	172.881888	-78.967064	58.076915
25789		9.315864	3.314424	1.256117	4.354166	0.405311	-0.855891	0.210770	-1.039983	0.687051	-0.770264	0.313721	0.416992	0.092977	0.033450	0.013080	0.267072	-0.696519	-0.339040	-0.573224	175.245155	-78.412482	55.789812
25790		9.499602	3.031839	2.244709	4.879562	1.401072	-0.941480	0.191781	-1.164151	0.792955	-0.764893	0.309814	0.412842	0.094742	0.030672	0.023028	0.268003	-0.700922	-0.338409	-0.567770	177.678918	-77.772295	53.415018
25791		10.724300	1.471510	1.958247	3.780222	2.410836	0.232508	0.230103	-1.297881	0.903515	-0.748291	0.316650	0.424561	0.107045	0.015176	0.020295	0.269138	-0.705800	-0.337657	-0.561603	-179.832287	-77.036326	50.999730
25792		11.667015	0.149888	0.741863	2.307644	2.527810	1.366485	0.418309	-1.353555	0.972940	-0.744385	0.329102	0.432617	0.116607	0.002050	0.008212	0.271023	-0.710650	-0.337242	-0.554789	-177.346413	-76.245212	48.691274
25793		11.044912	0.772583	-0.665718	2.025934	1.006393	1.045937	0.509266	-1.377344	1.033355	-0.733154	0.341797	0.439453	0.110449	0.008312	-0.005876	0.273333	-0.715489	-0.336870	-0.547616	-174.945535	-75.416463	46.515703
25794		10.577812	2.792813	-0.911277	3.561594	-0.480687	0.560403	0.388453	-1.395931	1.102233	-0.716797	0.347168	0.458008	0.105682	0.028527	-0.008320	0.275350	-0.720603	-0.335920	-0.540437	-172.720869	-74.551771	44.443046
25795		11.555012	3.450008	-0.960596	4.425761	-0.705087	1.423639	0.072369	-1.439882	1.201264	-0.706055	0.355957	0.466797	0.115405	0.035197	-0.008762	0.276395	-0.726376	-0.333788	-0.533451	-170.724444	-73.634934	42.409853
25796		13.117859	3.174065	-1.530952	4.420191	-0.630233	3.015251	-0.127318	-1.500179	1.291333	-0.700684	0.361084	0.465332	0.131080	0.032578	-0.014347	0.276832	-0.732668	-0.330851	-0.526402	-168.911636	-72.656821	40.439688
25797		12.820807	3.311513	-1.472619	4.728899	-0.692319	2.623584	-0.210826	-1.525661	1.289158	-0.680420	0.373291	0.476563	0.128099	0.033926	-0.013784	0.276883	-0.739065	-0.327704	-0.519355	-167.362817	-71.648807	38.685135
25798		12.348473	1.673791	-2.447540	3.002551	-0.434938	2.518890	-0.569155	-1.587419	1.236383	-0.667969	0.372070	0.490967	0.123568	0.017434	-0.023544	0.275347	-0.745956	-0.323873	-0.512679	-166.292490	-70.600790	37.209548
25799		12.552275	-0.873226	-3.143912	0.924537	0.778490	3.100117	-0.325093	-1.534543	1.155214	-0.664551	0.373291	0.497559	0.125807	-0.008056	-0.030461	0.274569	-0.752165	-0.320864	-0.505871	-165.317141	-69.585841	35.973893
25800		11.572463	-1.048669	-3.370967	0.605666	0.596535	2.256197	-0.520450	-1.559155	1.157479	-0.639648	0.388672	0.516846	0.116041	-0.009902	-0.032780	0.272998	-0.758638	-0.317356	-0.499225	-164.561268	-68.550083	34.845532
25801		10.608010	-2.888802	-3.867136	-1.154358	1.308073	1.710432	-0.500969	-1.507946	1.064463	-0.637207	0.381348	0.521729	0.106519	-0.028417	-0.037798	0.271320	-0.764732	-0.314148	-0.492829	-163.986689	-67.553195	33.916121
25802		10.304227	-4.396341	-4.950975	-2.818629	1.529999	2.007973	-0.317555	-1.359922	0.932648	-0.616455	0.396240	0.530273	0.103579	-0.043559	-0.048737	0.270233	-0.769948	-0.311671	-0.486843	-163.482843	-66.654885	33.171844
25803		9.501713	-4.125638	-4.396518	-2.394945	1.644194	1.058905	-0.086155	-1.167634	0.809379	-0.603760	0.389893	0.540527	0.095438	-0.040889	-0.043391	0.270018	-0.774142	-0.309952	-0.481378	-162.973551	-65.880473	32.561344
25804		9.359415	-2.433409	-2.355615	0.109558	1.987698	-0.060491	0.327003	-0.779552	0.593545	-0.595947	0.398438	0.545654	0.093757	-0.024018	-0.023230	0.271475	-0.776481	-0.309528	-0.477044	-162.374725	-65.352271	32.109736
25805		9.383680	2.418901	1.836828	6.169922	1.802351	-2.331915	0.423134	-0.231487	0.274223	-0.600830	0.403809	0.544678	0.093782	0.024279	0.018528	0.273384	-0.776878	-0.309819	-0.475115	-161.907530	-65.177427	31.861578
25806		9.133859	3.668065	2.758678	7.539030	1.580501	-3.092766	-0.413825	0.169242	-0.066709	-0.598633	0.402344	0.537109	0.091374	0.036707	0.027434	0.271855	-0.776931	-0.308901	-0.476501	-162.169740	-65.280977	31.889378
25807		10.189333	2.549135	1.344058	6.238572	1.518400	-1.392405	-0.725468	0.529280	-0.501168	-0.608643	0.397705	0.543457	0.101992	0.025284	0.013079	0.268630	-0.775867	-0.308431	-0.480353	-162.998351	-65.656125	32.342951
25808		11.402951	4.229950	2.777801	8.642966	1.659308	-0.970769	-0.896198	0.892454	-0.787326	-0.601563	0.386963	0.539307	0.114317	0.041972	0.027080	0.264607	-0.773686	-0.308163	-0.486239	-164.169577	-66.273495	33.063266
25809		11.722723	1.732493	0.880833	5.668312	2.015855	0.434430	-1.232152	1.144508	-0.879129	-0.615723	0.375732	0.539795	0.117349	0.016860	0.008032	0.259426	-0.771140	-0.307075	-0.493707	-165.618647	-67.037568	33.872080
25810		12.408426	-0.629742	0.208341	3.586698	3.252140	1.631281	-0.839970	1.434667	-1.022630	-0.617676	0.369141	0.531738	0.124061	-0.006925	0.001222	0.255828	-0.767076	-0.307106	-0.501828	-167.017509	-67.974001	34.865332
25811		12.664394	-0.255279	0.571348	3.949553	3.262238	1.786115	-0.635025	1.656525	-1.081159	-0.641357	0.349609	0.515625	0.126669	-0.003222	0.004674	0.253181	-0.762026	-0.307557	-0.510514	-168.419056	-69.032735	35.979911
25812		12.585988	0.228023	0.203893	3.815914	2.601906	1.898999	-0.525380	1.798764	-1.123455	-0.644043	0.348145	0.513428	0.125882	0.001577	0.000902	0.251036	-0.756322	-0.308238	-0.519564	-169.912721	-70.164919	37.252435
25813		12.815711	1.066455	0.351340	4.330982	2.114202	2.114979	-0.360297	1.879380	-1.133285	-0.663574	0.339844	0.506104	0.128240	0.009943	0.002290	0.249581	-0.750094	-0.309243	-0.528619	-171.470414	-71.332054	38.683037
25814		12.910021	1.661215	0.367586	4.543942	1.666329	2.275847	-0.352263	1.865980	-1.062419	-0.664551	0.322266	0.487061	0.129213	0.015931	0.002442	0.248295	-0.743910	-0.309986	-0.537453	-173.093987	-72.471944	40.178830
25815		13.110816	1.543143	-0.205516	3.884863	1.304751	2.737861	-0.310372	1.818394	-0.941497	-0.683350	0.321045	0.480225	0.131153	0.014810	-0.003271	0.247383	-0.737905	-0.310410	-0.545841	-174.682357	-73.564564	41.652667
25816		13.053477	1.511049	-0.686589	3.298471	0.890868	2.894358	-0.265676	1.740211	-0.789603	-0.683350	0.308838	0.468262	0.130527	0.014585	-0.008021	0.246910	-0.732221	-0.310467	-0.553622	-176.153500	-74.592990	43.024277
25817		12.531140	1.734314	-1.190087	2.813093	0.196867	2.576706	-0.316700	1.642069	-0.637113	-0.688721	0.309326	0.460693	0.125262	0.016924	-0.012956	0.246492	-0.727044	-0.309912	-0.560895	-177.527454	-75.551521	44.257245
25818		12.126500	1.974372	-1.682546	2.397580	-0.478428	2.344628	-0.381216	1.533601	-0.496810	-0.698242	0.302490	0.456299	0.121180	0.019409	-0.017792	0.246053	-0.722415	-0.308784	-0.567651	-178.792740	-76.437032	45.336286
25819		11.714281	1.741142	-2.201100	1.643949	-0.844530	2.090345	-0.446798	1.425915	-0.357747	-0.700928	0.305420	0.439697	0.117013	0.017152	-0.022884	0.245580	-0.718340	-0.307071	-0.573920	-179.908739	-77.255055	46.217920
25820		11.208659	1.024333	-2.561881	0.657969	-0.772245	1.685796	-0.458052	1.319252	-0.235421	-0.707031	0.301025	0.431885	0.111926	0.010052	-0.026381	0.245250	-0.714735	-0.305010	-0.579634	179.169820	-78.007970	46.892694
25821		10.460605	0.220733	-3.005853	-0.454379	-0.720568	1.040002	-0.432295	1.227813	-0.169320	-0.717285	0.301514	0.422852	0.104421	0.002053	-0.030705	0.245047	-0.711428	-0.302880	-0.584881	178.352177	-78.707801	47.473724
25822		9.760123	-0.186152	-3.612637	-1.363091	-1.033927	0.454617	-0.373071	1.153443	-0.150303	-0.710205	0.291992	0.421631	0.097389	-0.002003	-0.036685	0.244994	-0.708268	-0.300940	-0.589719	177.547978	-79.362954	48.075274
25823		9.124021	-0.176478	-3.895318	-1.726964	-1.386674	-0.140764	-0.301548	1.096151	-0.159426	-0.721924	0.294434	0.407471	0.091023	-0.001897	-0.039450	0.245066	-0.705150	-0.299297	-0.594246	176.672293	-79.984034	48.788798
25824		8.408757	-0.322880	-4.181905	-2.200306	-1.630668	-0.823889	-0.261881	1.050929	-0.186030	-0.719727	0.294189	0.389893	0.083863	-0.003362	-0.042256	0.245130	-0.702057	-0.297917	-0.598559	175.638742	-80.575316	49.685294
25825		7.671754	-1.198630	-4.458237	-3.174527	-1.345988	-1.549616	-0.160886	1.031349	-0.234725	-0.721191	0.296387	0.382080	0.076472	-0.012112	-0.044967	0.245364	-0.698801	-0.297025	-0.602702	174.361769	-81.150519	50.885171
25826		6.925748	-1.896009	-4.487970	-3.837216	-1.006671	-2.331752	0.005835	1.037150	-0.319633	-0.722168	0.295654	0.373779	0.068993	-0.019069	-0.045238	0.245928	-0.695182	-0.296917	-0.606697	172.681925	-81.717784	52.587458
25827		6.024827	-2.110465	-4.587999	-4.206593	-1.068572	-3.257964	0.140172	1.045054	-0.445891	-0.729736	0.291260	0.365479	0.059960	-0.021206	-0.046209	0.246578	-0.691160	-0.297636	-0.610663	170.300716	-82.270148	55.073076
25828		5.413163	-2.334691	-5.054255	-4.803134	-1.345761	-3.861496	0.272740	1.073445	-0.605437	-0.730469	0.289795	0.354248	0.053788	-0.023441	-0.050864	0.247235	-0.686630	-0.299266	-0.614698	166.900407	-82.801788	58.660127
25829		5.254769	-2.343793	-5.149221	-4.950329	-1.465383	-4.071046	0.454034	1.109719	-0.771325	-0.734619	0.292236	0.336914	0.052170	-0.023522	-0.051836	0.248045	-0.681481	-0.301964	-0.618769	162.240249	-83.294779	63.616712
25830		5.315680	-2.124588	-4.976767	-4.737058	-1.533753	-4.090324	0.563375	1.158272	-0.911077	-0.741211	0.290527	0.327881	0.052770	-0.021346	-0.050134	0.248857	-0.675800	-0.305399	-0.622974	156.164861	-83.726886	70.056155
25831		5.142626	-2.194668	-5.146442	-4.980979	-1.670209	-4.321949	0.572636	1.182830	-1.028875	-0.748047	0.280762	0.306641	0.051007	-0.022062	-0.051830	0.249352	-0.669804	-0.309210	-0.627356	148.638955	-84.051400	77.954839
25832		5.050659	-2.768547	-5.474932	-5.696892	-1.570866	-4.499935	0.600124	1.207936	-1.131835	-0.757080	0.272217	0.298828	0.050017	-0.027804	-0.055136	0.249639	-0.663489	-0.313398	-0.631858	139.878107	-84.230444	87.107276
25833		5.232140	-2.941846	-5.549930	-5.948387	-1.540475	-4.420698	0.653240	1.232698	-1.211640	-0.763916	0.265381	0.284912	0.051799	-0.029551	-0.055916	0.249866	-0.656847	-0.317962	-0.636411	130.409971	-84.236734	96.999509
25834		5.534267	-2.680351	-5.381846	-5.724944	-1.615402	-4.209958	0.674767	1.253641	-1.255342	-0.768555	0.256836	0.268066	0.054835	-0.026966	-0.054254	0.250038	-0.649988	-0.322684	-0.640993	120.981724	-84.065991	106.865608
25835		5.748708	-2.564472	-5.288865	-5.665756	-1.654783	-4.089441	0.692844	1.261716	-1.266662	-0.771729	0.248535	0.261230	0.056988	-0.025822	-0.053338	0.250221	-0.643000	-0.327461	-0.645530	112.271611	-83.734884	116.024331
25836		6.005244	-2.685321	-5.097522	-5.725023	-1.460011	-3.951843	0.694093	1.239762	-1.235641	-0.781250	0.233887	0.244141	0.059568	-0.027044	-0.051439	0.250451	-0.636076	-0.332141	-0.649895	104.770423	-83.282942	123.974089
25837		6.065671	-3.320813	-4.993429	-6.220229	-1.014394	-4.065289	0.656090	1.191746	-1.174835	-0.784424	0.228271	0.237549	0.060161	-0.033398	-0.050403	0.250656	-0.629401	-0.336535	-0.654041	98.575853	-82.755791	130.593543
25838		5.919426	-3.512027	-4.736586	-6.263939	-0.761690	-4.336314	0.546577	1.112873	-1.090808	-0.781494	0.214111	0.222412	0.058737	-0.035311	-0.047790	0.250640	-0.623217	-0.340381	-0.657967	93.596621	-82.196346	135.931916
25839		6.043822	-4.192055	-5.028326	-7.051715	-0.579968	-4.397819	0.418045	0.996454	-0.985438	-0.790039	0.208008	0.209961	0.059979	-0.042111	-0.050671	0.250357	-0.617718	-0.343600	-0.661577	89.713529	-81.643174	140.095894
25840		6.508039	-4.500444	-4.681595	-7.181540	-0.118676	-4.073685	0.460530	0.885389	-0.865167	-0.791260	0.197998	0.203613	0.064677	-0.045176	-0.047207	0.250400	-0.612710	-0.346711	-0.664588	86.745855	-81.127101	143.364395
25841		7.504763	-4.276754	-4.015289	-6.775369	0.298856	-3.123979	0.464066	0.753727	-0.688804	-0.798340	0.202637	0.196045	0.074748	-0.042932	-0.040534	0.250802	-0.608418	-0.349445	-0.666944	84.522803	-80.696023	145.885088
25842		8.130594	-4.278431	-3.757543	-6.757058	0.512468	-2.559440	0.443266	0.619274	-0.473881	-0.803467	0.196777	0.197510	0.081087	-0.042893	-0.037922	0.251617	-0.604960	-0.351615	-0.668640	82.854976	-80.382569	147.833513
25843		8.032248	-4.068392	-3.899813	-6.719068	0.219306	-2.665448	0.449532	0.485544	-0.305428	-0.796631	0.187256	0.191406	0.080165	-0.040718	-0.039284	0.252774	-0.602228	-0.353459	-0.669696	81.657836	-80.167345	149.309569
25844		7.900391	-3.459504	-3.810951	-6.207200	-0.143518	-2.716382	0.490980	0.356407	-0.143063	-0.795654	0.186523	0.198975	0.078911	-0.034558	-0.038335	0.254369	-0.600156	-0.355112	-0.670079	80.868941	-80.050881	150.396057
25845		7.912772	-3.099853	-3.381007	-5.676906	-0.068199	-2.641898	0.462412	0.225088	0.060617	-0.790283	0.184570	0.186523	0.079099	-0.030896	-0.033971	0.256326	-0.598917	-0.356221	-0.669852	80.392758	-80.060025	151.148653
25846		7.544511	-4.432060	-3.977191	-7.011617	0.211599	-3.242064	0.473091	0.068895	0.297298	-0.790283	0.185791	0.175293	0.075497	-0.044114	-0.039902	0.258826	-0.598604	-0.356856	-0.668831	80.291994	-80.216950	151.526191
25847		7.474073	-4.821646	-3.113351	-6.753452	1.072045	-3.328538	0.749080	-0.023760	0.455571	-0.794189	0.189697	0.193359	0.074854	-0.047929	-0.031304	0.262514	-0.598521	-0.358055	-0.666825	80.562759	-80.472596	151.687076
25848		10.940432	-0.898028	1.549967	-1.342839	2.613419	0.876963	1.258600	0.082250	0.444795	-0.797363	0.193604	0.184082	0.109430	-0.008834	0.015399	0.267872	-0.597374	-0.360834	-0.664219	80.770846	-80.712035	152.207245
25849		16.557520	11.022618	8.971891	11.682680	1.938886	8.514813	1.810513	0.415164	0.200510	-0.796143	0.188232	0.189209	0.165652	0.109576	0.090369	0.274651	-0.593905	-0.365706	-0.661893	80.270358	-80.782263	153.765517
25850		24.243630	20.995120	6.703897	17.198135	-4.970937	17.628194	1.120572	0.331897	-0.081674	-0.791504	0.187988	0.183594	0.242634	0.209474	0.067811	0.278277	-0.591105	-0.369225	-0.660931	79.830722	-80.698947	154.861609
25851		18.212222	12.731463	0.486994	7.891460	-5.589062	10.199766	0.863528	-0.076521	0.015654	-0.794434	0.188477	0.178467	0.182110	0.127306	0.005489	0.280704	-0.590177	-0.372165	-0.659082	80.598044	-80.711066	154.585571
25852		12.091289	6.076921	-5.521207	0.086357	-7.111462	2.955617	1.259016	-0.390676	0.207586	-0.798828	0.191650	0.185059	0.120957	0.061240	-0.054591	0.284337	-0.590066	-0.376272	-0.655281	82.594065	-80.857010	153.294384
25853		10.062216	10.085784	-6.710678	3.154595	-10.403450	1.581055	1.195681	-0.532724	0.427829	-0.795166	0.196289	0.181885	0.100583	0.101471	-0.066233	0.288224	-0.590899	-0.379707	-0.650836	85.044376	-81.129131	151.507348
25854		9.391374	7.493045	-6.597575	1.355705	-8.886094	0.534702	0.841665	-0.658900	0.711264	-0.790283	0.207520	0.183838	0.093862	0.075540	-0.065349	0.291735	-0.593164	-0.381317	-0.646254	87.851011	-81.554696	149.156323
25855		8.492447	-0.292135	-2.831739	-2.805438	-1.578743	-1.454341	0.571903	-0.643121	0.817701	-0.790283	0.224365	0.181396	0.085026	-0.002493	-0.028052	0.294809	-0.595953	-0.381704	-0.642051	90.708331	-82.023062	146.600867
25856		8.896362	-4.337881	-1.051899	-5.176339	2.118702	-1.579529	0.039378	-0.567840	0.730121	-0.784424	0.220947	0.191650	0.089151	-0.043052	-0.010275	0.296150	-0.599100	-0.380519	-0.639202	93.231551	-82.425197	144.077162
25857		10.856704	-6.541000	-2.542381	-7.946963	2.210042	0.141047	-0.247007	-0.445618	0.730308	-0.776611	0.228760	0.193115	0.108861	-0.065044	-0.025101	0.296861	-0.602270	-0.378231	-0.637249	95.312959	-82.818548	141.836045
25858		12.290082	-4.670056	-2.186113	-6.245853	1.617379	1.849524	-0.044358	-0.267037	0.714584	-0.769531	0.234131	0.197754	0.123096	-0.046266	-0.021687	0.298464	-0.604529	-0.376363	-0.635464	96.896549	-83.204437	140.215143
25859		11.028557	-2.163782	-0.973820	-3.303811	1.172542	0.909667	-0.021500	-0.163985	0.640936	-0.768066	0.236084	0.196777	0.110362	-0.021285	-0.009645	0.300093	-0.606282	-0.374633	-0.634048	98.115523	-83.551318	138.975932
25860		10.617819	-1.200539	-2.209612	-3.076324	-0.428812	0.647419	-0.020700	-0.196797	0.505856	-0.770264	0.238281	0.197754	0.106230	-0.011739	-0.021990	0.301232	-0.607877	-0.373359	-0.632730	99.523585	-83.815407	137.547478
25861		10.466786	-1.911025	-3.164695	-4.126708	-0.869356	0.455476	0.335391	-0.180539	0.374381	-0.761230	0.248291	0.201660	0.104732	-0.018861	-0.031584	0.303066	-0.608638	-0.373586	-0.630987	101.043629	-84.003034	136.212409
25862		9.555848	-2.165975	-1.764992	-3.472001	0.364020	-0.488877	0.528768	-0.196975	0.314345	-0.771729	0.251221	0.201172	0.095610	-0.021463	-0.017613	0.305265	-0.609037	-0.374626	-0.628922	102.779343	-84.150867	134.772104
25863		9.027941	-2.171754	-1.170519	-3.085330	0.816299	-1.014698	0.669983	-0.213531	0.322274	-0.766602	0.253906	0.198486	0.090327	-0.021533	-0.011681	0.307885	-0.609283	-0.376107	-0.626517	104.786202	-84.296055	133.141195
25864		9.734941	-1.336961	-0.354752	-1.964111	1.106432	-0.241878	0.729088	-0.179535	0.284484	-0.763916	0.260742	0.210693	0.097371	-0.013218	-0.003508	0.310625	-0.609248	-0.377830	-0.624158	106.660401	-84.419917	131.677781
25865		10.088182	-0.275788	-0.062030	-0.902552	0.824218	0.205161	0.449723	-0.186656	0.267399	-0.760498	0.264160	0.200684	0.100886	-0.002622	-0.000532	0.312445	-0.609633	-0.378739	-0.622320	108.460841	-84.528693	130.128161
25866		10.053997	1.860949	0.362197	1.170849	0.082389	0.350944	0.200003	-0.210883	0.237999	-0.761963	0.262207	0.214844	0.100514	0.018725	0.003747	0.313363	-0.610421	-0.378997	-0.620927	110.254211	-84.612105	128.441955
25867		10.591472	0.847152	0.139222	0.193390	0.463614	0.801638	-0.150618	-0.236836	0.246975	-0.761719	0.264648	0.207275	0.105902	0.008603	0.001511	0.313190	-0.611857	-0.378179	-0.620100	112.073005	-84.690004	126.528875
25868		11.100500	-1.318179	-0.897470	-2.182640	0.749362	1.161763	-0.232285	-0.247514	0.261556	-0.762207	0.277100	0.215088	0.111033	-0.013047	-0.008822	0.312790	-0.613477	-0.377077	-0.619372	113.990378	-84.767233	124.469841
25869		10.737594	-1.472300	-1.433790	-2.540577	0.359272	0.814430	-0.100177	-0.246246	0.220308	-0.754883	0.267090	0.221191	0.107410	-0.014612	-0.014198	0.312669	-0.614808	-0.376508	-0.618458	115.925255	-84.817048	122.469647
25870		10.442945	-0.218232	-1.233603	-1.326271	-0.131731	0.620341	-0.076402	-0.251929	0.153594	-0.768799	0.277344	0.220947	0.104447	-0.002107	-0.012204	0.312403	-0.615990	-0.376225	-0.617588	117.737467	-84.825221	120.606189
25871		10.278253	-0.066515	-1.528566	-1.318562	-0.458478	0.484620	-0.042008	-0.260915	0.156447	-0.763184	0.278564	0.221680	0.102803	-0.000588	-0.015151	0.312235	-0.617153	-0.376053	-0.616616	119.638166	-84.826999	118.673888
25872		10.270118	0.513933	-1.003574	-0.524460	-0.301141	0.501420	0.065478	-0.229893	0.114764	-0.759277	0.271484	0.230469	0.102710	0.005202	-0.009916	0.312327	-0.617970	-0.376291	-0.615605	121.288552	-84.811723	117.054539
25873		9.906441	-0.803179	-1.199587	-1.710737	0.204949	0.049007	0.039426	-0.223720	0.092236	-0.768555	0.273438	0.229004	0.099081	-0.007984	-0.011887	0.312281	-0.618768	-0.376509	-0.614693	122.810512	-84.783404	115.549314
25874		9.603160	-0.939577	-1.227842	-1.813040	0.241593	-0.259386	0.074034	-0.205710	0.048901	-0.761475	0.278076	0.236572	0.096046	-0.009368	-0.012183	0.312241	-0.619371	-0.376939	-0.613842	124.083728	-84.736686	114.313488
25875		9.407318	-0.285658	-1.108553	-1.175927	-0.000007	-0.409215	0.149953	-0.168201	-0.013922	-0.764404	0.284912	0.234619	0.094082	-0.002855	-0.011009	0.312316	-0.619625	-0.377737	-0.613057	124.973390	-84.670431	113.506648
25876		9.567489	0.849798	-0.886714	-0.092859	-0.373256	-0.174363	0.007562	-0.157883	-0.028219	-0.770020	0.287109	0.240723	0.095683	0.008485	-0.008791	0.311923	-0.620038	-0.378126	-0.612599	125.652755	-84.599847	112.828781
25877		9.429566	0.978134	-0.857757	0.041863	-0.412394	-0.302831	-0.029681	-0.159363	-0.021233	-0.762695	0.280762	0.233154	0.094303	0.009770	-0.008504	0.311434	-0.620531	-0.378382	-0.612190	126.332124	-84.531299	112.129618
25878		9.247524	1.357478	-0.493267	0.567209	-0.301770	-0.475132	-0.024016	-0.151940	-0.023015	-0.769775	0.279785	0.241943	0.092481	0.013564	-0.004864	0.310970	-0.620984	-0.378649	-0.611802	126.949374	-84.463691	111.495823
25879		9.245543	1.661295	-0.357923	0.901734	-0.331015	-0.461465	-0.063562	-0.165869	-0.021906	-0.770996	0.281006	0.241211	0.092460	0.016602	-0.003508	0.310362	-0.621547	-0.378813	-0.611438	127.604017	-84.391102	110.801841
25880		9.485409	1.898408	0.000456	1.290120	-0.113953	-0.226264	-0.093075	-0.193507	0.007249	-0.770020	0.281494	0.244629	0.094853	0.018988	0.000088	0.309696	-0.622291	-0.378838	-0.611002	128.447012	-84.321032	109.901288
25881		9.589923	2.010880	0.254358	1.526118	0.066100	-0.130666	-0.148225	-0.204798	0.039345	-0.762451	0.285156	0.249023	0.095893	0.020130	0.002627	0.308937	-0.623218	-0.378612	-0.610581	129.409166	-84.259802	108.849348
25882		9.259079	1.494587	0.197424	1.081784	0.269399	-0.498159	-0.136207	-0.230535	0.063970	-0.764648	0.271973	0.246582	0.092584	0.014977	0.002071	0.308240	-0.624248	-0.378385	-0.610023	130.550891	-84.198022	107.623505
25883		9.338084	1.521399	0.501958	1.280710	0.535067	-0.440395	-0.157580	-0.273763	0.096910	-0.768799	0.284912	0.258545	0.093366	0.015263	0.005135	0.307495	-0.625506	-0.378057	-0.609313	131.963016	-84.131317	106.113624
25884		9.417094	1.239159	0.440691	1.030468	0.654905	-0.382918	-0.158422	-0.321578	0.150336	-0.763184	0.281738	0.260986	0.094154	0.012466	0.004548	0.306817	-0.627007	-0.377630	-0.608376	133.728885	-84.064254	104.247229
25885		9.374358	1.815066	0.602088	1.634314	0.499333	-0.399126	-0.155020	-0.341482	0.192379	-0.767822	0.289795	0.265869	0.093716	0.018246	0.006167	0.306241	-0.628643	-0.377111	-0.607299	135.699442	-83.999986	102.176977
25886		9.189042	2.317398	0.782014	2.192588	0.381946	-0.567855	-0.099998	-0.375949	0.230713	-0.761719	0.283447	0.268555	0.091849	0.023284	0.007981	0.305886	-0.630366	-0.376689	-0.605952	137.928477	-83.928600	99.878043
25887		9.218985	1.812024	0.488040	1.647202	0.421911	-0.559589	-0.147935	-0.452157	0.281998	-0.757813	0.297607	0.273682	0.092153	0.018254	0.005075	0.305392	-0.632488	-0.376076	-0.604369	140.546998	-83.833036	97.159608
25888		9.370219	1.610152	0.484685	1.518756	0.563008	-0.431607	0.005217	-0.486789	0.312860	-0.757080	0.286377	0.280273	0.093665	0.016248	0.005075	0.305406	-0.634532	-0.375876	-0.602340	143.397701	-83.719157	94.295155
25889		9.248183	1.504891	0.588132	1.538038	0.716008	-0.579002	-0.050525	-0.551862	0.360210	-0.768066	0.290283	0.286865	0.092438	0.015217	0.006133	0.305261	-0.636942	-0.375455	-0.600128	146.497345	-83.574190	91.147561
25890		9.256165	1.556428	0.818843	1.762082	0.908249	-0.601860	0.006633	-0.587927	0.390791	-0.757080	0.297363	0.287842	0.092506	0.015745	0.008461	0.305318	-0.639420	-0.375158	-0.597644	149.700481	-83.402189	87.927602
25891		9.416511	1.227948	0.383944	1.316283	0.763714	-0.431343	-0.160385	-0.668509	0.447011	-0.759521	0.296387	0.288330	0.094124	0.012493	0.004144	0.304855	-0.642493	-0.374301	-0.595118	153.057594	-83.184250	84.455156
25892		9.116007	0.799853	-0.131865	0.744326	0.554811	-0.707941	-0.035561	-0.715465	0.473856	-0.757813	0.310791	0.302490	0.091145	0.008214	-0.000994	0.304778	-0.645552	-0.373793	-0.592159	156.460499	-82.925212	81.006731
25893		9.254682	1.191539	-0.176995	1.125603	0.356701	-0.554963	-0.060314	-0.741979	0.488698	-0.749023	0.305664	0.310059	0.092523	0.012141	-0.001430	0.304611	-0.648744	-0.373197	-0.589124	159.702835	-82.631292	77.703953
25894		9.485882	1.012890	-0.521438	0.873497	0.228340	-0.301430	-0.005012	-0.782081	0.514160	-0.752441	0.310547	0.314209	0.094852	0.010373	-0.004844	0.304616	-0.652002	-0.372735	-0.585808	162.867354	-82.297793	74.509134
25895		9.574827	1.152869	-0.481163	1.100095	0.236933	-0.222546	0.050480	-0.849426	0.538920	-0.743652	0.315430	0.322021	0.095736	0.011788	-0.004402	0.304743	-0.655406	-0.372449	-0.582114	165.956985	-81.908315	71.419441
25896		9.820732	1.312754	-0.310229	1.428255	0.369513	-0.010190	0.068534	-0.909812	0.562328	-0.740234	0.326416	0.323975	0.098183	0.013405	-0.002651	0.304875	-0.658982	-0.372220	-0.578140	168.896694	-81.466474	68.488377
25897		9.660188	0.905246	-0.554695	1.042378	0.409060	-0.159115	0.143498	-0.960992	0.607877	-0.740479	0.332031	0.330566	0.096599	0.009350	-0.005076	0.305282	-0.662658	-0.372125	-0.573768	171.775154	-80.978896	65.659318
25898		9.379668	2.038353	0.056095	2.406753	0.315813	-0.525983	0.123142	-1.012013	0.653721	-0.730225	0.327393	0.340576	0.093725	0.020689	0.001048	0.305647	-0.666572	-0.371884	-0.569178	174.515606	-80.445141	62.954134
25899		9.126288	2.184411	-0.135188	2.515409	0.087765	-0.771515	0.083606	-1.098413	0.748538	-0.723389	0.339844	0.348389	0.091186	0.022186	-0.000842	0.305978	-0.670943	-0.371332	-0.564203	177.260860	-79.845331	60.216708
25900		8.970558	3.095253	0.575855	3.761668	0.211040	-1.084181	0.129090	-1.188232	0.860027	-0.717041	0.340088	0.354980	0.089535	0.031334	0.006311	0.306593	-0.675671	-0.370653	-0.558647	-179.943815	-79.173884	57.449291
25901		9.469021	2.837190	0.934133	3.911772	0.772908	-0.719659	0.089971	-1.288609	0.965396	-0.711426	0.344727	0.361572	0.094489	0.028824	0.009963	0.307167	-0.680895	-0.369641	-0.552627	-177.216090	-78.419684	54.721459
25902		9.902920	1.128117	1.071039	2.739365	1.928267	-0.364791	0.092104	-1.373227	1.046143	-0.693848	0.348633	0.368652	0.098892	0.011794	0.011395	0.307793	-0.686450	-0.368464	-0.546154	-174.635191	-77.590364	52.137127
25903		10.714538	-0.092361	0.824809	1.856598	2.578712	0.453289	0.103672	-1.442229	1.120399	-0.694092	0.361328	0.377441	0.107085	-0.000328	0.009020	0.308510	-0.692259	-0.367141	-0.539265	-172.217499	-76.694083	49.718496
25904		12.279786	-0.712163	0.243821	1.463487	2.777276	2.082699	0.112162	-1.485022	1.182080	-0.678223	0.364990	0.389893	0.122814	-0.006397	0.003346	0.309317	-0.698223	-0.365661	-0.532071	-169.981842	-75.747219	47.482993
25905		14.052624	-0.521908	-1.159003	1.426369	1.919804	4.092919	0.125414	-1.441280	1.200898	-0.669434	0.370605	0.395020	0.140633	-0.004368	-0.010580	0.310273	-0.704023	-0.364051	-0.524928	-167.960097	-74.803667	45.467170
25906		14.433871	1.050415	-1.720919	2.775493	0.751901	4.474617	0.094566	-1.357160	1.199528	-0.660400	0.383545	0.406738	0.144385	0.011378	-0.016224	0.311244	-0.709586	-0.362203	-0.518096	-166.155008	-73.890851	43.649041
25907		14.722417	3.494226	-2.606963	4.674488	-1.180043	4.764903	-0.085801	-1.360226	1.237965	-0.653076	0.396973	0.415771	0.147177	0.035842	-0.025084	0.311643	-0.715450	-0.359725	-0.511477	-164.576921	-72.956614	41.951472
25908		13.280206	3.904565	-2.871186	4.796443	-1.849129	3.356362	-0.502455	-1.359783	1.286122	-0.631836	0.399902	0.427979	0.132739	0.039829	-0.027909	0.310647	-0.721983	-0.355978	-0.505488	-163.320094	-72.003395	40.331817
25909		11.037382	1.586137	-3.316948	2.313075	-1.325450	1.511259	-0.723253	-1.386463	1.278477	-0.628662	0.407715	0.437256	0.110497	0.016449	-0.032463	0.308757	-0.728844	-0.351707	-0.499758	-162.357401	-71.027582	38.880025
25910		10.243271	-0.532699	-4.567473	-0.102701	-1.224099	1.347888	-1.108612	-1.424194	1.199168	-0.620850	0.397461	0.457031	0.102785	-0.004962	-0.044915	0.305165	-0.736174	-0.346781	-0.494637	-161.866350	-70.039452	37.685677
25911		10.558488	-3.911014	-6.627620	-3.666123	-0.734592	2.706046	-0.982652	-1.341032	1.050377	-0.602051	0.405273	0.462646	0.106230	-0.038876	-0.065374	0.301779	-0.742769	-0.342552	-0.489777	-161.556166	-69.120552	36.754096
25912		10.497878	-4.139212	-5.562139	-3.149486	0.355005	2.362168	-0.897205	-1.239739	0.956464	-0.596924	0.405518	0.470947	0.105517	-0.041135	-0.054784	0.298628	-0.748761	-0.338696	-0.485245	-161.330835	-68.272321	35.960633
25913		10.397033	-5.772718	-5.545654	-4.314336	1.437098	2.495628	-0.860061	-1.089888	0.922006	-0.583496	0.410156	0.484619	0.104535	-0.057482	-0.054640	0.295764	-0.754220	-0.334811	-0.481226	-161.100199	-67.510507	35.179993
25914		9.684588	-6.561798	-4.069661	-4.237274	2.986764	1.436019	-0.552386	-0.805271	0.791203	-0.581055	0.415771	0.486328	0.097267	-0.065345	-0.040125	0.294205	-0.758278	-0.331720	-0.477933	-160.767623	-66.925958	34.476157
25915		8.907780	-3.516479	0.040140	0.172476	4.139950	-1.178654	-0.144790	-0.303072	0.558534	-0.567383	0.417725	0.489014	0.089175	-0.034915	0.000562	0.294462	-0.760133	-0.329738	-0.476197	-160.293766	-66.655094	33.870510
25916		8.397562	3.151924	2.621581	6.620513	1.908412	-3.499769	-0.616403	0.143500	0.226331	-0.582031	0.415039	0.493408	0.083959	0.031695	0.026058	0.292868	-0.761062	-0.327235	-0.477421	-160.311506	-66.688472	33.505362
25917		8.706261	6.349916	1.685481	8.683539	-0.777106	-3.258924	-1.680926	0.398043	-0.151849	-0.593506	0.404541	0.499756	0.087143	0.063571	0.016147	0.286725	-0.762291	-0.323242	-0.481888	-161.303228	-66.932049	33.536660
25918		9.863848	6.738122	1.427983	9.131327	-1.085091	-2.055456	-2.133886	0.640233	-0.479587	-0.581299	0.399414	0.513428	0.098843	0.067289	0.013245	0.278427	-0.762978	-0.319027	-0.488431	-162.890929	-67.365092	33.932966
25919		10.959226	3.437076	-0.696151	5.638145	-0.404669	0.209656	-2.481467	0.827808	-0.449336	-0.590088	0.381836	0.502686	0.109638	0.034031	-0.007839	0.269134	-0.763621	-0.313539	-0.496128	-164.603292	-67.891956	34.247293
25920		12.461447	-1.435545	-2.365044	1.339784	1.866545	2.743626	-1.753311	1.074381	-0.447776	-0.602051	0.374268	0.506592	0.124453	-0.014845	-0.024191	0.262973	-0.762567	-0.309473	-0.503551	-165.848666	-68.551829	34.506730
25921		12.878210	-3.567060	-2.072189	-0.077039	3.556646	3.233707	-1.053906	1.308155	-0.440170	-0.614502	0.361084	0.498535	0.128565	-0.036065	-0.021374	0.259835	-0.759944	-0.306804	-0.510728	-166.639315	-69.339146	34.706982
25922		11.534326	-3.203453	-1.795362	-0.180932	3.175503	1.866660	-0.463104	1.455328	-0.448385	-0.623291	0.368896	0.499268	0.115137	-0.032336	-0.018717	0.259129	-0.756113	-0.305462	-0.517531	-167.083040	-70.208643	34.897225
25923		11.053671	-0.838902	-1.361028	1.527184	1.708090	1.118331	-0.049996	1.518444	-0.597248	-0.621338	0.348145	0.489014	0.110403	-0.008722	-0.014447	0.259678	-0.751307	-0.305649	-0.524103	-167.533022	-71.131857	35.343788
25924		11.517688	1.482186	-1.000791	3.411518	0.401234	1.325232	0.135151	1.510202	-0.646172	-0.634521	0.355957	0.474609	0.115144	0.014457	-0.010868	0.260765	-0.746157	-0.306496	-0.530388	-168.007323	-72.054944	35.925399
25925		11.249549	2.012389	-0.878645	3.655086	0.008891	1.050640	0.159436	1.453714	-0.564676	-0.641846	0.350586	0.469971	0.112484	0.019814	-0.009588	0.262055	-0.741201	-0.307157	-0.536286	-168.396389	-72.935656	36.429166
25926		10.784478	1.602387	-0.703425	3.216164	0.257512	0.625484	0.121326	1.372931	-0.447035	-0.653564	0.354492	0.457520	0.107829	0.015787	-0.007765	0.263381	-0.736651	-0.307368	-0.541757	-168.659935	-73.756454	36.776942
25927		10.363712	1.476978	-0.563879	2.998098	0.300589	0.228501	-0.035452	1.261646	-0.346609	-0.662354	0.352295	0.449707	0.103624	0.014589	-0.006295	0.264217	-0.732727	-0.306916	-0.546903	-168.888528	-74.503412	36.993507
25928		9.871943	1.428765	-0.674093	2.683299	0.106992	-0.182615	-0.227328	1.141131	-0.270697	-0.663818	0.343262	0.441650	0.098698	0.014146	-0.007320	0.264363	-0.729475	-0.305809	-0.551778	-169.139519	-75.173700	37.118739
25929		9.628760	1.212328	-1.038136	2.148704	-0.110428	-0.292686	-0.428140	1.022101	-0.189769	-0.674805	0.337158	0.433105	0.096244	0.012009	-0.010899	0.263808	-0.726914	-0.304000	-0.556404	-169.396243	-75.768596	37.130549
25930		9.346654	0.946727	-1.545406	1.487773	-0.396188	-0.417299	-0.600690	0.924955	-0.105026	-0.673584	0.337158	0.431396	0.093399	0.009371	-0.015914	0.262707	-0.724960	-0.301522	-0.560806	-169.610431	-76.299500	36.996746
25931		8.798165	0.796219	-2.356665	0.666719	-1.004707	-0.749522	-0.763945	0.855905	-0.066417	-0.678467	0.333008	0.420410	0.087882	0.007842	-0.023973	0.261009	-0.723446	-0.298527	-0.565139	-169.861230	-76.788095	36.804566
25932		8.232019	0.465009	-3.051118	-0.212313	-1.389940	-1.134316	-0.862099	0.823060	-0.059066	-0.685791	0.334961	0.411865	0.082195	0.004493	-0.030869	0.258919	-0.722142	-0.295260	-0.569468	-170.166848	-77.257201	36.611440
25933		7.868467	0.219867	-3.655383	-0.933796	-1.725823	-1.358579	-0.888399	0.814310	-0.051368	-0.691650	0.326416	0.406250	0.078535	0.002015	-0.036883	0.256734	-0.720879	-0.291892	-0.573777	-170.476594	-77.721281	36.407359
25934		7.632810	-0.216832	-3.967140	-1.573620	-1.693073	-1.524039	-0.853307	0.839669	-0.059538	-0.692383	0.322266	0.413330	0.076160	-0.002361	-0.039982	0.254680	-0.719464	-0.288611	-0.578112	-170.779584	-78.200259	36.217396
25935		7.223077	-1.240424	-4.141828	-2.560076	-1.162462	-1.877926	-0.743501	0.876792	-0.085888	-0.702637	0.315674	0.404053	0.072043	-0.012590	-0.041688	0.252988	-0.717736	-0.285685	-0.582439	-171.081399	-78.703197	36.090692
25936		6.618026	-2.371304	-4.125936	-3.508146	-0.434713	-2.467743	-0.547173	0.923821	-0.146532	-0.697998	0.311279	0.397705	0.065971	-0.023875	-0.041499	0.251885	-0.715516	-0.283480	-0.586710	-171.433651	-79.237813	36.130301
25937		6.063595	-2.903303	-4.017420	-3.951681	-0.057341	-3.051290	-0.346427	0.970123	-0.263447	-0.708984	0.311523	0.387207	0.060402	-0.029183	-0.040417	0.251215	-0.712720	-0.282216	-0.590995	-172.035839	-79.808541	36.540900
25938		5.801769	-2.746260	-3.911179	-3.869020	-0.142499	-3.369891	-0.173212	1.020581	-0.406258	-0.702637	0.313721	0.378174	0.057761	-0.027614	-0.039383	0.250805	-0.709336	-0.281901	-0.595375	-173.052600	-80.417153	37.472374
25939		5.709516	-2.474365	-3.753968	-3.649998	-0.259804	-3.533937	-0.027023	1.067799	-0.544420	-0.708984	0.307617	0.375977	0.056826	-0.024904	-0.037840	0.250559	-0.705408	-0.282442	-0.599871	-174.597361	-81.057717	39.021909
25940		5.834720	-2.543403	-3.718799	-3.733599	-0.199395	-3.459575	0.122567	1.106025	-0.667501	-0.721191	0.301514	0.359619	0.058055	-0.025605	-0.037525	0.250517	-0.700979	-0.283807	-0.604420	-176.762442	-81.716869	41.282805
25941		6.096895	-2.608952	-3.601917	-3.751217	-0.077319	-3.264861	0.301390	1.147755	-0.762699	-0.725342	0.300537	0.352295	0.060661	-0.026267	-0.036407	0.250861	-0.696031	-0.285981	-0.608954	-179.604368	-82.386489	44.326688
25942		6.086352	-2.587089	-3.867583	-4.011321	-0.313965	-3.293131	0.382353	1.155918	-0.847786	-0.736572	0.288086	0.348389	0.060528	-0.026053	-0.039076	0.251226	-0.690799	-0.288672	-0.613475	176.647346	-83.034239	48.326424
25943		6.088048	-2.528888	-4.059695	-4.194327	-0.526428	-3.326539	0.471606	1.167239	-0.929501	-0.741455	0.277832	0.331055	0.060524	-0.025474	-0.041011	0.251651	-0.685261	-0.291888	-0.617973	171.761119	-83.643990	53.517897
25944		6.325565	-2.270190	-4.079636	-4.100183	-0.738786	-3.145490	0.520109	1.158743	-0.980410	-0.754395	0.284180	0.323730	0.062906	-0.022904	-0.041221	0.252056	-0.679572	-0.295421	-0.622395	165.629268	-84.182801	59.984194
25945		6.358648	-2.464778	-4.353054	-4.519500	-0.833421	-3.154237	0.567173	1.129016	-0.972227	-0.746338	0.269775	0.309326	0.063219	-0.024831	-0.043958	0.252587	-0.673885	-0.299090	-0.626597	158.466494	-84.624019	67.507773
25946		6.191881	-2.833770	-4.694344	-5.114196	-0.881922	-3.372774	0.686980	1.109380	-0.966643	-0.756592	0.273682	0.300049	0.061519	-0.028473	-0.047383	0.253493	-0.668072	-0.303122	-0.630506	150.325480	-84.954882	76.077788
25947		6.424295	-2.721909	-4.505696	-4.981567	-0.853833	-3.222133	0.739579	1.077905	-0.961141	-0.757813	0.264893	0.292969	0.063867	-0.027359	-0.045503	0.254528	-0.662257	-0.307321	-0.634180	141.436318	-85.153528	85.425494
25948		6.478913	-2.211414	-4.319727	-4.561273	-1.108532	-3.217863	0.659780	0.997862	-0.907034	-0.772705	0.250488	0.284424	0.064472	-0.022264	-0.043593	0.255332	-0.656839	-0.311171	-0.637606	132.642271	-85.213187	94.630073
25949		6.423740	-2.282846	-4.635699	-4.899105	-1.334414	-3.317851	0.502649	0.869965	-0.811930	-0.768066	0.241699	0.284424	0.063942	-0.022971	-0.046693	0.255711	-0.652146	-0.314355	-0.640701	124.838150	-85.157109	102.750934
25950		6.689013	-2.859341	-4.566423	-5.346276	-0.909043	-3.152263	0.472905	0.765845	-0.699552	-0.771973	0.238770	0.267334	0.066614	-0.028718	-0.045987	0.256180	-0.647976	-0.317199	-0.643337	118.290031	-85.039916	109.595111
25951		7.007671	-3.147119	-4.387710	-5.507158	-0.592216	-2.914588	0.421127	0.661927	-0.595809	-0.772217	0.235840	0.270020	0.069837	-0.031587	-0.044175	0.256644	-0.644355	-0.319665	-0.645566	112.973127	-84.890899	115.175003
25952		7.179313	-3.559368	-4.331172	-5.834174	-0.294685	-2.823708	0.404121	0.560502	-0.485467	-0.788818	0.231201	0.268066	0.071585	-0.035680	-0.043585	0.257241	-0.641243	-0.321843	-0.647342	108.806192	-84.740219	119.591666
25953		7.367404	-3.458933	-4.084772	-5.647165	-0.193099	-2.671246	0.381124	0.465519	-0.363086	-0.781006	0.223877	0.252441	0.073516	-0.034645	-0.041085	0.258004	-0.638659	-0.323672	-0.648680	105.638919	-84.615448	122.992189
25954		7.490430	-3.119922	-4.066923	-5.420404	-0.421038	-2.544804	0.319166	0.357774	-0.223486	-0.785156	0.225586	0.257568	0.074796	-0.031218	-0.040853	0.258844	-0.636720	-0.324990	-0.649591	103.401734	-84.537714	125.423258
25955		7.849413	-3.721202	-2.477662	-4.866744	1.169436	-2.292942	0.319076	0.259343	-0.075557	-0.781982	0.219482	0.253906	0.078448	-0.037202	-0.024938	0.260005	-0.635342	-0.325962	-0.649989	101.986953	-84.523317	127.028416
25956		11.147452	-4.791582	-2.814580	-6.085363	1.838965	0.898675	0.149687	0.034882	0.225112	-0.780518	0.225830	0.259766	0.111523	-0.047769	-0.028201	0.261237	-0.635398	-0.325720	-0.649562	102.161973	-84.648508	126.938896
25957		13.394997	-2.223387	6.288119	1.677462	7.179727	3.208344	1.013633	0.178646	0.440683	-0.782959	0.227295	0.253662	0.134055	-0.022256	0.062649	0.266145	-0.634204	-0.327404	-0.647888	102.249776	-84.912242	127.434163
25958		27.985928	13.136941	2.867452	10.450389	-4.293599	19.107253	1.029268	-0.116643	0.665696	-0.776123	0.229004	0.258789	0.279403	0.132149	0.029516	0.271337	-0.634287	-0.328809	-0.644934	104.637979	-85.262572	125.629204
25959		24.956995	19.783763	-1.049842	13.489699	-11.683953	16.585236	1.019635	-0.400101	0.849478	-0.781006	0.236572	0.255615	0.248746	0.198944	-0.008988	0.276616	-0.635576	-0.329969	-0.640818	109.808059	-85.655047	121.029144
25960		10.808586	11.552867	-6.088161	4.744474	-11.240805	1.955568	0.801917	-0.592440	0.122202	-0.778809	0.239990	0.262695	0.108194	0.115837	-0.060097	0.278543	-0.636556	-0.332997	-0.637434	114.718106	-85.585977	116.565680
25961		9.936148	7.998266	-5.129138	2.736954	-8.260108	0.830875	0.660867	-0.755880	0.154953	-0.781738	0.247803	0.274170	0.099492	0.080228	-0.050651	0.279846	-0.638294	-0.335692	-0.633701	120.525371	-85.458415	111.120794
25962		9.541284	-4.232012	-9.136761	-9.184440	-3.860682	-0.160534	0.889063	-0.855642	0.882415	-0.778320	0.261963	0.273438	0.095987	-0.041492	-0.091143	0.284004	-0.641221	-0.336913	-0.628225	129.865085	-85.584289	102.263685
25963		5.919642	-10.989259	-7.073934	-13.085772	1.521375	-4.130238	1.207331	-0.642477	0.941122	-0.759277	0.259521	0.274658	0.059940	-0.109183	-0.071208	0.289707	-0.643088	-0.338624	-0.622769	138.955676	-85.707002	93.841025
25964		5.419186	-4.388435	-2.690210	-5.131071	0.886166	-4.450833	1.147976	-0.490240	0.592025	-0.756592	0.281250	0.270752	0.054387	-0.043569	-0.027020	0.294374	-0.643936	-0.341030	-0.618377	145.433628	-85.688414	88.004535
25965		10.647729	5.548505	1.359573	5.323728	-1.403364	0.943549	-0.081768	-0.443004	0.372140	-0.766602	0.276367	0.277344	0.106343	0.055689	0.013809	0.294474	-0.646058	-0.340264	-0.616534	149.502488	-85.584271	83.877276
25966		9.823999	-4.890633	-3.736861	-6.030568	0.694898	0.063635	-0.836921	-0.438447	0.760909	-0.763916	0.285645	0.281006	0.098507	-0.048687	-0.036949	0.293334	-0.649921	-0.335899	-0.615410	155.475050	-85.558771	77.406047
25967		10.788656	-5.095705	-3.042262	-5.689525	1.459254	1.009337	0.189950	-0.262630	0.434777	-0.759033	0.290283	0.290283	0.108037	-0.050693	-0.030329	0.294817	-0.651179	-0.335489	-0.613593	159.231738	-85.511495	73.747500
25968		11.971518	-0.248332	-2.216237	-1.242998	-0.715799	2.279996	0.352422	-0.247663	0.291347	-0.756592	0.289551	0.287842	0.119746	-0.002270	-0.022018	0.296411	-0.651903	-0.336019	-0.611764	161.968105	-85.429546	71.205254
25969		11.062428	-2.941822	-2.554812	-3.583134	0.556111	1.341257	0.234121	-0.222065	0.213304	-0.755127	0.304443	0.292480	0.110684	-0.029270	-0.025460	0.297423	-0.652593	-0.336403	-0.610324	163.969716	-85.339681	69.332117
25970		8.883221	-2.115852	-1.800450	-2.504158	0.492724	-0.861911	0.551370	-0.162612	0.203811	-0.755371	0.302734	0.294922	0.088868	-0.021018	-0.017990	0.299539	-0.652606	-0.337694	-0.608560	165.904969	-85.276820	67.707468
25971		8.557059	2.600135	-0.407293	2.134983	-1.208467	-1.202738	0.444650	-0.198562	0.162147	-0.751709	0.301514	0.294922	0.085553	0.026080	-0.003930	0.301117	-0.652817	-0.338848	-0.606910	167.514329	-85.183673	66.348577
25972		9.462121	2.477966	0.371147	2.555464	-0.426950	-0.373566	0.208101	-0.264223	0.208252	-0.754639	0.301758	0.300293	0.094590	0.024874	0.003862	0.301950	-0.653653	-0.339231	-0.605381	169.308869	-85.056346	64.667312
25973		10.171575	-1.514396	-0.273939	-0.991066	1.463861	0.321618	0.105545	-0.279255	0.282069	-0.755859	0.305176	0.294678	0.101741	-0.014999	-0.002605	0.302645	-0.654817	-0.339084	-0.603857	171.448049	-84.922053	62.581040
25974		9.916074	-2.787407	-0.658259	-2.221867	1.887087	0.088504	0.145714	-0.268484	0.222117	-0.750977	0.309570	0.304932	0.099200	-0.027759	-0.006470	0.303306	-0.655779	-0.339236	-0.602394	173.111583	-84.784017	60.994736
25975		10.148387	-2.282092	-0.667938	-1.778759	1.610047	0.330662	0.145797	-0.260153	0.147199	-0.759521	0.313477	0.298828	0.101509	-0.022741	-0.006564	0.303757	-0.656591	-0.339621	-0.601064	174.235513	-84.641868	59.950290
25976		10.954899	-1.090313	-1.200915	-1.059742	0.560735	1.196547	0.134435	-0.247939	0.096117	-0.755615	0.312500	0.306152	0.109569	-0.010842	-0.011881	0.304035	-0.657291	-0.340119	-0.599875	174.982048	-84.503110	59.277903
25977		10.552532	-0.632208	-1.877709	-1.075489	-0.272102	0.866761	0.119920	-0.253791	0.116411	-0.750977	0.318604	0.311768	0.105553	-0.006249	-0.018647	0.304318	-0.658068	-0.340516	-0.598654	175.811125	-84.360358	58.514319
25978		10.113856	0.494964	-1.719556	-0.066603	-0.822287	0.425051	-0.003203	-0.255207	0.073731	-0.751953	0.318848	0.308105	0.101159	0.004987	-0.017067	0.304063	-0.658958	-0.340685	-0.597707	176.285123	-84.215009	58.036248
25979		9.986858	-0.873932	-2.242677	-1.467834	-0.438809	0.345242	-0.084470	-0.275311	0.087014	-0.751465	0.322998	0.318115	0.099903	-0.008705	-0.022286	0.303547	-0.660058	-0.340599	-0.596805	176.774528	-84.057472	57.496012
25980		9.923591	-0.703629	-1.884218	-1.106061	-0.233120	0.249383	-0.083060	-0.260916	0.020813	-0.754150	0.320557	0.319824	0.099261	-0.007034	-0.018710	0.302860	-0.660993	-0.340712	-0.596053	176.874276	-83.906548	57.347994
25981		9.695589	-1.747976	-1.788009	-1.894814	0.455629	0.008661	-0.041475	-0.246014	0.026944	-0.742920	0.315918	0.319336	0.096980	-0.017470	-0.017757	0.302347	-0.661840	-0.340898	-0.595266	177.024206	-83.763400	57.172316
25982		9.772691	-0.558683	-1.311282	-0.636635	0.172286	0.041350	-0.092643	-0.213954	-0.047464	-0.749756	0.318359	0.322266	0.097740	-0.005616	-0.013006	0.301504	-0.662532	-0.341137	-0.594788	176.743331	-83.637200	57.401631
25983		9.337795	-1.574422	-1.625208	-1.661719	0.495693	-0.362425	-0.095137	-0.215814	-0.058765	-0.756836	0.327881	0.317627	0.093391	-0.015779	-0.016144	0.300618	-0.663217	-0.341408	-0.594317	176.420103	-83.508629	57.672454
25984		9.589576	-0.623598	-1.104972	-0.568683	0.404031	-0.164728	-0.080629	-0.200278	-0.112770	-0.758057	0.308838	0.329590	0.095903	-0.006294	-0.010951	0.299643	-0.663737	-0.341877	-0.593960	175.839792	-83.387400	58.210216
25985		9.832676	-0.590828	-0.946732	-0.432226	0.558189	0.057898	-0.047585	-0.187993	-0.082644	-0.746094	0.310303	0.335693	0.098333	-0.005951	-0.009373	0.298883	-0.664230	-0.342319	-0.593536	175.444405	-83.273086	58.580001
25986		9.620997	0.919340	-0.695761	0.927204	-0.127124	-0.168158	-0.084000	-0.191404	-0.084834	-0.757568	0.324463	0.333252	0.096220	0.009150	-0.006869	0.297994	-0.664774	-0.342671	-0.593171	175.027145	-83.157311	58.951873
25987		9.195027	1.414232	-0.620351	1.349547	-0.380860	-0.594930	-0.051650	-0.205908	-0.070552	-0.760254	0.312256	0.339111	0.091962	0.014108	-0.006112	0.297223	-0.665347	-0.343084	-0.592677	174.719170	-83.032802	59.231071
25988		9.443499	2.177091	-0.247117	2.207767	-0.485462	-0.385571	-0.176450	-0.251555	-0.009879	-0.755615	0.313477	0.334473	0.094439	0.021764	-0.002372	0.296144	-0.666333	-0.343002	-0.592157	174.643671	-82.886273	59.205414
25989		9.355241	1.415302	-0.310139	1.563759	-0.078381	-0.476292	-0.179306	-0.292765	0.048189	-0.767090	0.316162	0.337891	0.093553	0.014173	-0.002977	0.295150	-0.667552	-0.342770	-0.591413	174.848385	-82.718381	58.894411
25990		9.417082	0.782030	-0.263318	1.104674	0.358859	-0.431153	-0.142236	-0.323684	0.087028	-0.757080	0.314941	0.342041	0.094172	0.007859	-0.002486	0.294347	-0.668863	-0.342570	-0.590447	175.239241	-82.535458	58.418259
25991		9.249096	0.651495	-0.307919	0.987525	0.401435	-0.597017	-0.106182	-0.353423	0.131707	-0.767334	0.321533	0.345947	0.092492	0.006574	-0.002919	0.293740	-0.670292	-0.342363	-0.589248	175.832884	-82.336164	57.757219
25992		8.962134	0.631052	-0.422686	0.913206	0.308960	-0.870248	-0.018614	-0.387149	0.171496	-0.762207	0.315918	0.356689	0.089624	0.006387	-0.004054	0.293489	-0.671748	-0.342335	-0.587729	176.613704	-82.118923	56.958534
25993		9.250939	1.185775	-0.117288	1.596537	0.276575	-0.627149	0.029801	-0.429581	0.204966	-0.762939	0.323242	0.352783	0.092499	0.011953	-0.000972	0.293419	-0.673321	-0.342391	-0.585929	177.524723	-81.875949	56.054848
25994		9.488073	1.073840	-0.171438	1.534732	0.349897	-0.393133	0.005942	-0.479349	0.239845	-0.756104	0.323242	0.350586	0.094872	0.010852	-0.001487	0.293291	-0.675120	-0.342337	-0.583951	178.507327	-81.603990	55.065524
25995		9.318514	0.633826	-0.242918	1.172285	0.558066	-0.560148	0.030942	-0.540550	0.288005	-0.758057	0.331055	0.358154	0.093182	0.006473	-0.002176	0.293276	-0.677146	-0.342276	-0.581644	179.627293	-81.294037	53.950305
25996		9.435393	1.396295	0.159470	2.085369	0.465459	-0.515592	0.039310	-0.577853	0.311058	-0.757324	0.322998	0.360596	0.094327	0.014109	0.001870	0.293293	-0.679294	-0.342217	-0.579160	-179.246169	-80.960302	52.833061
25997		9.394809	0.527657	0.032211	1.366432	0.902247	-0.546603	-0.051386	-0.640477	0.360012	-0.755615	0.329834	0.370117	0.093937	0.005446	0.000622	0.293030	-0.681838	-0.341812	-0.576537	-178.086048	-80.585873	51.627362
25998		9.391332	0.670498	0.169712	1.625177	0.955486	-0.586590	-0.019240	-0.695641	0.375007	-0.757080	0.329590	0.369141	0.093894	0.006881	0.002023	0.292825	-0.684503	-0.341529	-0.573644	-176.960673	-80.176516	50.474905
25999		9.410232	0.128213	-0.034246	1.141507	1.151110	-0.542227	-0.034105	-0.751081	0.422747	-0.747070	0.336914	0.381104	0.094100	0.001481	0.000011	0.292602	-0.687425	-0.341111	-0.570503	-175.794987	-79.729192	49.270652
26000		9.343890	0.840231	-0.292573	1.629502	0.547062	-0.585299	-0.065791	-0.810365	0.457323	-0.748291	0.337158	0.379395	0.093430	0.008615	-0.002550	0.292266	-0.690601	-0.340568	-0.567154	-174.660342	-79.243016	48.078441
26001		8.903187	0.345679	-0.618673	1.067440	0.558575	-0.963006	0.012252	-0.874418	0.514922	-0.746826	0.336914	0.391602	0.089048	0.003686	-0.005797	0.292243	-0.693933	-0.340129	-0.563350	-173.437430	-78.711808	46.839220
26002		9.183220	0.742335	-0.586465	1.527897	0.423306	-0.718071	0.088102	-0.921986	0.549771	-0.738770	0.343018	0.399658	0.091837	0.007678	-0.005438	0.292496	-0.697322	-0.339847	-0.559189	-172.207162	-78.146855	45.635113
26003		9.271745	0.834016	-0.574583	1.715591	0.429517	-0.655053	0.205144	-0.977068	0.600340	-0.738525	0.356934	0.404541	0.092718	0.008624	-0.005284	0.293192	-0.700764	-0.339780	-0.554543	-170.913666	-77.540523	44.431537
26004		9.160770	1.779698	-0.211721	2.768620	0.174881	-0.900066	0.298505	-1.052816	0.669819	-0.726563	0.359863	0.407471	0.091557	0.018106	-0.001608	0.294272	-0.704365	-0.339833	-0.549353	-169.549567	-76.879682	43.208277
26005		8.991589	2.508701	0.516178	3.852474	0.331550	-1.300593	0.368105	-1.136141	0.759195	-0.724854	0.362793	0.419189	0.089788	0.025418	0.005719	0.295685	-0.708217	-0.339865	-0.543591	-168.105118	-76.154976	41.939479
26006		8.616192	2.535740	1.134707	4.274423	0.787588	-1.871427	0.361345	-1.256656	0.895696	-0.710449	0.379150	0.420410	0.085974	0.025722	0.011934	0.297226	-0.712593	-0.339558	-0.537185	-166.568306	-75.338959	40.567651
26007		8.957816	3.249620	1.729424	5.375395	0.937408	-1.811607	0.450476	-1.405962	1.032932	-0.703857	0.385010	0.431152	0.089284	0.032918	0.017996	0.299176	-0.717424	-0.339196	-0.529851	-164.939784	-74.411068	39.147759
26008		10.570995	3.720684	1.834177	6.306217	1.069930	-0.429929	0.344753	-1.570031	1.208632	-0.695068	0.388916	0.443359	0.105334	0.037812	0.019234	0.300910	-0.723077	-0.338141	-0.521799	-163.306446	-73.355619	37.653429
26009		12.026168	3.544391	2.033377	6.808353	1.645959	0.782431	0.267240	-1.735073	1.374212	-0.677490	0.403809	0.448242	0.119832	0.036240	0.021423	0.302479	-0.729479	-0.336493	-0.512972	-161.712401	-72.169739	36.144407
26010		13.686950	3.841836	2.655169	8.049888	2.324425	1.974093	0.181972	-1.884107	1.545467	-0.667480	0.404785	0.468506	0.136309	0.039448	0.027873	0.303887	-0.736576	-0.334184	-0.503417	-160.174205	-70.859779	34.632722
26011		15.916564	3.948417	1.335082	8.346207	1.713372	4.262080	0.045082	-2.022776	1.698964	-0.650879	0.414795	0.471924	0.158677	0.040830	0.014966	0.304893	-0.744372	-0.331118	-0.493266	-158.763858	-69.432401	33.160302
26012		17.505924	2.585896	-1.087300	6.829595	1.033329	6.515119	0.041526	-2.091610	1.628349	-0.632568	0.436035	0.486572	0.174942	0.027286	-0.009037	0.305549	-0.752092	-0.328356	-0.482887	-157.671576	-67.973147	32.013740
26013		18.220030	3.153670	-3.137400	6.847811	-0.636696	7.635568	0.022225	-2.076338	1.573100	-0.614502	0.440186	0.496826	0.182257	0.032973	-0.029478	0.305967	-0.759587	-0.325674	-0.472598	-156.787622	-66.527203	31.068678
26014		17.063464	4.628145	-3.357950	7.908961	-1.821511	6.248782	-0.040924	-2.040367	1.703961	-0.599854	0.451172	0.509033	0.170563	0.047728	-0.031849	0.306464	-0.767173	-0.322236	-0.462266	-155.877224	-65.064554	30.045061
26015		14.880276	5.438961	-1.585613	9.014732	-1.346765	3.242064	-0.362744	-2.038995	1.881699	-0.578857	0.454102	0.522461	0.148434	0.055760	-0.014442	0.306079	-0.775393	-0.317309	-0.452102	-155.065622	-63.554278	28.913451
26016		12.352080	2.463676	-2.631144	5.515235	-0.824924	1.783007	-1.227345	-2.123277	1.933884	-0.557129	0.461426	0.538818	0.123547	0.025675	-0.025155	0.302263	-0.785039	-0.310287	-0.442801	-154.829290	-61.983097	27.856992
26017		11.915020	-2.290681	-4.374477	1.150935	0.846249	3.005280	-1.530112	-2.115161	1.719214	-0.531494	0.472656	0.564941	0.119796	-0.022206	-0.042308	0.296717	-0.794601	-0.303347	-0.434223	-155.026643	-60.468364	27.081322
26018		12.038750	-5.125931	-6.438455	-1.628395	1.367296	4.613870	-1.665971	-2.053029	1.600477	-0.516602	0.462646	0.589355	0.121445	-0.050817	-0.062717	0.290401	-0.803857	-0.296420	-0.426165	-155.408072	-59.016142	26.417980
26019		11.874031	-8.155252	-7.422625	-4.061051	2.846728	5.614059	-1.361508	-1.855382	1.561232	-0.504150	0.459473	0.589600	0.120053	-0.081117	-0.072563	0.285450	-0.812020	-0.289945	-0.418419	-155.591956	-57.678200	25.716705
26020		10.296281	-9.033256	-7.118948	-4.957951	3.497593	4.381222	-1.020279	-1.615713	1.437364	-0.477783	0.457275	0.600830	0.104178	-0.089946	-0.069892	0.281930	-0.818877	-0.284300	-0.411254	-155.616439	-56.495053	25.049695
26021		8.460699	-8.636601	-6.800788	-5.170651	3.173309	2.661837	-0.616892	-1.310587	1.224494	-0.460205	0.463135	0.606934	0.085577	-0.086052	-0.067183	0.280022	-0.824141	-0.279889	-0.405020	-155.491566	-55.521417	24.472231
26022		7.652204	-7.929012	-3.637474	-3.312057	4.724465	0.255329	0.434847	-0.741776	0.890873	-0.464355	0.474854	0.615234	0.077009	-0.078869	-0.036262	0.282553	-0.826261	-0.278172	-0.400097	-154.839781	-54.921471	23.982200
26023		7.346850	-1.715293	1.991917	3.686630	4.257635	-4.411998	0.923179	-0.010256	0.386105	-0.458008	0.488525	0.610596	0.073501	-0.017103	0.019844	0.287099	-0.825500	-0.278472	-0.398219	-154.038184	-54.821075	23.648448
26024		8.196137	5.842989	1.418351	9.047266	-1.102725	-5.311598	0.052166	0.416976	0.007472	-0.458008	0.485596	0.608398	0.081989	0.058429	0.014028	0.287888	-0.824598	-0.277986	-0.399853	-153.860661	-55.034087	23.468225
26025		7.803653	5.888054	2.407671	9.338616	-0.570020	-6.094194	-0.787691	0.801811	-0.447762	-0.465088	0.477783	0.606689	0.078263	0.058799	0.023532	0.284832	-0.823487	-0.277135	-0.404891	-154.363162	-55.559964	23.530166
26026		6.494671	1.006891	-1.286162	3.355865	-0.116614	-4.018527	-1.726079	1.000130	-0.855879	-0.467285	0.463867	0.609375	0.064923	0.009678	-0.013271	0.277340	-0.822681	-0.275764	-0.412592	-155.658930	-56.286664	23.900702
26027		7.574981	-2.398646	-2.510163	0.811319	1.650957	-1.685636	-0.843127	1.434162	-1.109792	-0.486084	0.449951	0.605225	0.075433	-0.024513	-0.025541	0.273522	-0.819315	-0.276625	-0.421174	-156.529550	-57.296091	24.363397
26028		9.786501	-2.638148	-0.949608	2.394814	3.352270	-0.503554	-0.081977	1.864525	-1.330380	-0.498779	0.438965	0.595459	0.097592	-0.027035	-0.010396	0.272924	-0.813602	-0.279374	-0.430713	-157.030653	-58.578386	24.899390
26029		10.251140	-4.429214	-1.805123	0.671075	4.049179	0.728161	0.092865	2.184468	-1.314131	-0.513916	0.438721	0.590332	0.102012	-0.044955	-0.019188	0.273476	-0.806865	-0.281952	-0.441230	-157.337931	-60.024525	25.317998
26030		8.260049	-4.835029	-1.621665	-0.666061	3.938655	-0.965488	0.421667	2.443589	-1.429303	-0.538086	0.432373	0.561035	0.082045	-0.048902	-0.017324	0.275418	-0.798796	-0.285317	-0.452399	-157.496948	-61.631680	25.776933
26031		7.812395	-0.338666	-0.371560	2.785019	1.560899	-2.665059	0.414416	2.566193	-1.755323	-0.554688	0.426514	0.554199	0.078034	-0.004063	-0.004725	0.276704	-0.789813	-0.289731	-0.464421	-157.987852	-63.373909	26.597485
26032		8.843618	2.304746	-0.198129	4.958563	0.048008	-2.133876	-0.002835	2.616569	-1.883330	-0.585938	0.416260	0.544678	0.088612	0.022214	-0.003140	0.276050	-0.780906	-0.293543	-0.477299	-158.941095	-65.164451	27.653864
26033		9.787547	1.183644	-0.818103	3.873868	0.495714	-0.723951	-0.322653	2.652766	-1.875144	-0.612061	0.395264	0.528076	0.097860	0.010904	-0.009497	0.274144	-0.772159	-0.296427	-0.490659	-160.211382	-66.964236	28.840548
26034		9.764742	0.195390	-1.144066	2.660480	0.858732	-0.385424	-0.443524	2.662204	-1.776787	-0.611572	0.384766	0.516357	0.097496	0.001060	-0.012742	0.271958	-0.763498	-0.298549	-0.503962	-161.616467	-68.738316	30.083177
26035		10.119744	0.049300	-1.278471	2.284048	0.851338	0.091649	-0.624667	2.635857	-1.661985	-0.637695	0.385742	0.495850	0.101016	-0.000390	-0.014117	0.269254	-0.755124	-0.299728	-0.517158	-163.202749	-70.466016	31.392414
26036		10.403903	-0.567517	-1.744272	1.320778	0.903388	0.629373	-0.806250	2.598586	-1.511186	-0.662354	0.351074	0.493652	0.103754	-0.006534	-0.018767	0.266138	-0.747131	-0.299851	-0.530146	-164.932330	-72.134821	32.730648
26037		10.177313	-0.627261	-2.026185	0.737997	0.622418	0.537991	-0.820182	2.568585	-1.435474	-0.671875	0.355957	0.480713	0.101453	-0.007088	-0.021538	0.263056	-0.739170	-0.299617	-0.542824	-166.851039	-73.762663	34.244831
26038		10.386112	0.114704	-2.377279	0.801000	-0.184122	0.810508	-0.838672	2.507877	-1.369155	-0.691650	0.346924	0.464844	0.103556	0.000334	-0.025075	0.259942	-0.731331	-0.299105	-0.555087	-169.039730	-75.330882	36.016997
26039		10.348730	-0.535328	-3.249502	-0.547878	-0.448916	1.023947	-0.766322	2.445360	-1.229527	-0.696777	0.329590	0.447510	0.103044	-0.006115	-0.033734	0.257324	-0.723623	-0.298296	-0.566722	-171.338276	-76.831271	37.931560
26040		9.932176	-0.858634	-3.386076	-1.225162	-0.466920	0.633620	-0.588872	2.380148	-1.087389	-0.708496	0.319092	0.434326	0.098861	-0.009227	-0.035013	0.255611	-0.715947	-0.297508	-0.577557	-173.691295	-78.263346	39.995687
26041		9.678825	-0.938116	-3.435142	-1.605661	-0.568948	0.358473	-0.457410	2.297507	-0.939342	-0.726807	0.312988	0.412842	0.096340	-0.009915	-0.035438	0.254623	-0.708439	-0.296619	-0.587621	-176.126180	-79.621627	42.208409
26042		9.071869	-1.305454	-3.542300	-2.247320	-0.551718	-0.263259	-0.348668	2.198774	-0.848743	-0.736328	0.297852	0.401123	0.090265	-0.013501	-0.036394	0.254109	-0.701111	-0.295816	-0.596963	-178.864346	-80.899951	44.783875
26043		8.579513	-1.663486	-3.661373	-2.839485	-0.524575	-0.788317	-0.253624	2.102279	-0.801179	-0.741455	0.294434	0.380371	0.085336	-0.017024	-0.037491	0.253887	-0.693925	-0.295207	-0.605692	177.809935	-82.099226	47.998633
26044		8.152841	-1.949700	-4.086628	-3.555283	-0.748719	-1.223931	-0.139186	2.012563	-0.755091	-0.746094	0.282227	0.369385	0.081037	-0.019832	-0.041670	0.254043	-0.686850	-0.294868	-0.613801	173.681461	-83.215363	52.080746
26045		7.150152	-1.022084	-2.656391	-2.122962	-0.540193	-2.435358	-0.113879	1.863058	-0.725335	-0.760498	0.286377	0.346924	0.071212	-0.010495	-0.027222	0.254125	-0.680170	-0.294658	-0.621262	168.333133	-84.203534	57.394816
26046		7.059809	-1.981053	-4.408136	-4.163024	-1.182410	-2.432563	-0.151641	1.701985	-0.673159	-0.768799	0.281982	0.337891	0.070152	-0.020081	-0.044664	0.253984	-0.674054	-0.294335	-0.628101	161.549667	-85.043216	64.120876
26047		6.557806	-2.924582	-4.403743	-4.969654	-0.613864	-3.039586	0.127856	1.582349	-0.680828	-0.781006	0.274658	0.322754	0.065127	-0.029440	-0.044573	0.254564	-0.667891	-0.295042	-0.634089	152.750143	-85.725971	73.022069
26048		5.824695	-2.712307	-4.811724	-5.213523	-1.155593	-3.819459	0.166216	1.420640	-0.703178	-0.779785	0.265625	0.314209	0.057807	-0.027287	-0.048552	0.254946	-0.662115	-0.296133	-0.639461	141.759988	-86.190519	84.134970
26049		5.096457	-3.019509	-5.831721	-6.225056	-1.763102	-4.593567	0.218569	1.250581	-0.726190	-0.778320	0.253906	0.299316	0.050489	-0.030315	-0.058667	0.255159	-0.656742	-0.297664	-0.644189	129.477031	-86.408244	96.568539
26050		5.013397	-3.115833	-6.406435	-6.753309	-2.156300	-4.750370	0.372402	1.097987	-0.739298	-0.792969	0.250732	0.299561	0.049666	-0.031223	-0.064396	0.255597	-0.651614	-0.299916	-0.648166	117.589134	-86.397492	108.693655
26051		5.158994	-2.784453	-6.462347	-6.605669	-2.461489	-4.671127	0.484183	0.958483	-0.715803	-0.798340	0.245117	0.286133	0.051180	-0.027871	-0.064937	0.256251	-0.646801	-0.302615	-0.651466	107.544343	-86.223523	119.036560
26052		5.370312	-2.804765	-6.494837	-6.691046	-2.506345	-4.536584	0.583975	0.817299	-0.675426	-0.794922	0.244141	0.273438	0.053342	-0.028038	-0.065249	0.257139	-0.642355	-0.305681	-0.654078	99.890381	-85.952813	127.043825
26053		5.439532	-3.481150	-6.635801	-7.317481	-2.196276	-4.580964	0.669739	0.676627	-0.628539	-0.797852	0.236816	0.268799	0.054061	-0.034759	-0.066658	0.258230	-0.638310	-0.309044	-0.656026	94.446358	-85.638436	132.886852
26054		5.336193	-3.883667	-6.953303	-7.847943	-2.221935	-4.774990	0.784057	0.551453	-0.592854	-0.805176	0.235840	0.266602	0.053055	-0.038721	-0.069832	0.259603	-0.634561	-0.312824	-0.657328	90.737193	-85.308294	137.058367
26055		5.095117	-3.942628	-6.877313	-7.842577	-2.203209	-5.075469	0.857845	0.455176	-0.573864	-0.798340	0.230957	0.256104	0.050681	-0.039276	-0.069057	0.261110	-0.631045	-0.316896	-0.658164	88.222956	-84.972316	140.074419
26056		4.989416	-4.328237	-6.855764	-8.118991	-2.002959	-5.263072	0.868477	0.371439	-0.534623	-0.799072	0.236816	0.258301	0.049651	-0.043117	-0.068837	0.262643	-0.627831	-0.320983	-0.658648	86.557695	-84.651878	142.246303
26057		5.251979	-5.275613	-6.667929	-8.734294	-1.298941	-5.132859	0.989396	0.321296	-0.467687	-0.799316	0.224854	0.249756	0.052289	-0.052548	-0.067024	0.264689	-0.624713	-0.325313	-0.658669	85.436646	-84.367406	143.942162
26058		6.690397	-6.053370	-4.412935	-7.991962	0.917332	-3.798959	1.118496	0.315362	-0.382944	-0.806885	0.219482	0.246094	0.066718	-0.060413	-0.044573	0.267397	-0.621558	-0.329801	-0.658328	84.506185	-84.128388	145.521557
26059		11.271358	-6.303203	-5.305230	-9.164769	0.590688	0.702883	0.578681	0.081794	-0.057079	-0.804443	0.219238	0.246582	0.112674	-0.062910	-0.053281	0.269110	-0.620419	-0.331803	-0.657698	84.444475	-84.087207	145.917072
26060		10.533070	-9.493345	-5.831299	-11.863405	2.095330	-0.328965	0.768810	-0.252689	0.548715	-0.798828	0.220215	0.243896	0.105664	-0.094419	-0.058543	0.272844	-0.621117	-0.332997	-0.654892	86.084059	-84.407890	144.712055
26061		16.456325	4.398881	-0.388602	1.911589	-2.121170	6.984820	2.170415	-0.192676	0.474197	-0.798096	0.228760	0.241943	0.164462	0.044416	-0.003247	0.280769	-0.619540	-0.338903	-0.649987	88.374293	-84.680676	143.660829
26062		32.901774	34.560721	4.814947	27.820988	-15.394778	26.091680	1.115853	-0.368245	0.382544	-0.794434	0.232178	0.255127	0.328264	0.345958	0.050684	0.284807	-0.619804	-0.341886	-0.646407	91.343785	-84.895634	141.321144
26063		13.813800	7.254529	-3.390067	2.805282	-6.319044	4.579667	-0.077649	-0.584956	0.947076	-0.789551	0.242432	0.249023	0.137891	0.073186	-0.033525	0.286592	-0.623415	-0.339560	-0.643365	95.664340	-85.412463	136.940786
26064		9.077447	-3.872329	-4.496794	-6.293460	-0.732133	-1.010880	0.478665	-0.693424	0.437382	-0.791504	0.246338	0.244141	0.091014	-0.038417	-0.044745	0.288278	-0.625692	-0.340759	-0.639757	101.428471	-85.596407	131.434136
26065		10.136592	-3.629075	-8.816815	-8.660898	-4.256242	0.213656	0.515883	-0.984912	0.658337	-0.791992	0.255859	0.257324	0.101917	-0.035729	-0.087760	0.290282	-0.629208	-0.341795	-0.634831	110.337982	-85.800239	122.796314
26066		10.252888	-1.093850	-10.799073	-7.649146	-7.374164	0.677516	1.229304	-1.001712	0.918053	-0.774170	0.262695	0.269287	0.103115	-0.009804	-0.107538	0.295307	-0.632143	-0.344281	-0.628220	121.485848	-86.018256	112.326424
26067		8.684467	-1.972676	-5.392553	-4.932915	-2.652796	-1.036715	1.274768	-0.770742	0.960447	-0.779053	0.281982	0.266602	0.087144	-0.018966	-0.053713	0.300984	-0.634311	-0.346408	-0.622141	132.259209	-86.188839	102.260747
26068		7.595554	-10.092669	-5.069307	-11.223345	2.202823	-2.434738	0.244201	-0.644248	1.019106	-0.774902	0.281738	0.270264	0.076631	-0.100476	-0.050570	0.303776	-0.637697	-0.344931	-0.618130	142.747885	-86.306856	91.890019
26069		8.738025	2.332685	-1.423221	1.094393	-1.931558	-0.930626	0.910157	-0.421058	0.344424	-0.770508	0.292969	0.276611	0.087369	0.023541	-0.013941	0.306982	-0.638204	-0.347315	-0.614679	147.829013	-86.215904	87.321103
26070		11.916588	5.787603	0.460490	5.089910	-2.154406	2.235717	-0.781982	-0.558011	0.669772	-0.770508	0.297363	0.282715	0.118958	0.058293	0.004710	0.305540	-0.642268	-0.343658	-0.613219	154.653253	-86.115943	80.032686
26071		11.884537	-3.466893	-4.130311	-5.020384	-0.547873	2.221234	-0.592717	-0.622175	0.783037	-0.760010	0.306641	0.290039	0.119108	-0.034324	-0.040831	0.304933	-0.646417	-0.340306	-0.611026	162.179308	-85.944633	72.148623
26072		11.534293	-5.241866	-3.263380	-5.870566	1.184187	1.819175	0.289386	-0.484885	0.498549	-0.763672	0.307129	0.294678	0.115552	-0.052084	-0.032429	0.306533	-0.648298	-0.340349	-0.608202	167.097305	-85.748988	67.384076
26073		10.315461	-5.368863	-2.473620	-5.482066	1.806118	0.581384	0.514190	-0.436056	0.443170	-0.768066	0.317139	0.295898	0.103327	-0.053396	-0.024649	0.308774	-0.649588	-0.341176	-0.605222	171.240239	-85.547302	63.525092
26074		9.839785	-4.848893	-1.944123	-4.711558	1.887289	0.104557	0.549919	-0.426006	0.475496	-0.764404	0.324219	0.297119	0.098554	-0.048201	-0.019364	0.311239	-0.650829	-0.341984	-0.602162	175.252250	-85.334232	59.816576
26075		9.844380	-1.296448	-0.460257	-0.899003	1.059916	0.029701	0.603996	-0.379265	0.354105	-0.762939	0.330811	0.298096	0.098475	-0.012777	-0.004455	0.313580	-0.651641	-0.343263	-0.599334	178.128334	-85.125303	57.276481
26076		10.025389	3.181274	0.521819	3.394987	-0.646403	0.135037	0.237140	-0.405815	0.176314	-0.753662	0.326904	0.303955	0.100215	0.031895	0.005459	0.314153	-0.652782	-0.344068	-0.597328	179.423417	-84.892825	56.112994
26077		9.518418	0.498302	-0.820948	0.442810	-0.241605	-0.259265	-0.194349	-0.462918	0.268008	-0.760254	0.330322	0.302979	0.095196	0.005103	-0.007994	0.313483	-0.654937	-0.343365	-0.595724	-179.069003	-84.623713	54.485936
26078		9.928159	-3.290935	-1.938281	-3.239325	1.050048	0.264982	-0.134992	-0.449630	0.281972	-0.759521	0.337891	0.310059	0.099371	-0.032782	-0.019137	0.313077	-0.656966	-0.342776	-0.594040	-177.599519	-84.359562	52.932071
26079		10.645751	-4.735540	-2.866065	-4.863119	1.196578	1.090969	-0.050311	-0.399943	0.212359	-0.759033	0.338623	0.311523	0.106565	-0.047249	-0.028436	0.312819	-0.658603	-0.342581	-0.592473	-176.581707	-84.121353	51.878978
26080		10.140040	-3.749113	-2.610742	-3.906561	0.824500	0.567637	0.186511	-0.314812	0.055088	-0.758545	0.339111	0.317871	0.101452	-0.037439	-0.025983	0.313026	-0.659333	-0.343478	-0.591031	-176.327084	-83.937612	51.730548
26081		10.057102	-0.877217	-2.419512	-1.420595	-0.636504	0.451111	0.165802	-0.305550	-0.036019	-0.754395	0.335205	0.312012	0.100606	-0.008770	-0.024049	0.312903	-0.659924	-0.344589	-0.589789	-176.563288	-83.760954	52.062336
26082		9.845821	0.254425	-1.809747	-0.144208	-0.770798	0.170555	0.122334	-0.280376	-0.052106	-0.762207	0.337402	0.327393	0.098484	0.002530	-0.017958	0.312640	-0.660464	-0.345594	-0.588735	-176.889299	-83.600493	52.460995
26083		9.902481	-0.119269	-1.713571	-0.381142	-0.449834	0.220357	-0.001012	-0.278971	-0.027665	-0.766602	0.346436	0.330322	0.099048	-0.001206	-0.016998	0.312033	-0.661249	-0.346142	-0.587853	-177.139753	-83.438392	52.710923
26084		9.660286	-0.586768	-1.521643	-0.663349	-0.025053	-0.038225	0.031501	-0.273968	-0.042500	-0.770752	0.339844	0.321289	0.096622	-0.005886	-0.015085	0.311508	-0.661927	-0.346836	-0.586959	-177.436242	-83.280915	53.027720
26085		9.674541	-0.675684	-0.914094	-0.383752	0.549070	-0.094660	0.095619	-0.268505	-0.055566	-0.767334	0.331787	0.329102	0.096756	-0.006779	-0.009014	0.311157	-0.662479	-0.347744	-0.585984	-177.737547	-83.125210	53.385010
26086		9.606752	-0.741968	-1.105684	-0.540311	0.446905	-0.139476	0.095150	-0.267756	-0.052583	-0.776123	0.340820	0.323975	0.096080	-0.007440	-0.010932	0.310823	-0.663018	-0.348647	-0.585014	-178.016311	-82.971136	53.720894
26087		9.329990	-0.031018	-0.604935	0.317143	0.453120	-0.479431	0.215414	-0.261501	-0.059001	-0.771240	0.332764	0.335449	0.093308	-0.000331	-0.005928	0.310870	-0.663355	-0.349903	-0.583856	-178.236204	-82.819116	54.065554
26088		9.588409	1.006482	-0.485778	1.273150	0.018502	-0.243714	0.146792	-0.289363	-0.017930	-0.776367	0.332764	0.333496	0.095892	0.010060	-0.004712	0.310768	-0.663934	-0.350875	-0.582668	-178.309764	-82.651792	54.224629
26089		9.122237	1.035940	-0.139592	1.472531	0.262570	-0.753410	0.134105	-0.316010	0.039356	-0.771973	0.344971	0.337402	0.091222	0.010378	-0.001245	0.310733	-0.664725	-0.351648	-0.581316	-178.135079	-82.466708	54.124269
26090		9.083343	1.406124	0.003307	1.876828	0.192522	-0.816873	0.044044	-0.356546	0.070939	-0.774902	0.337158	0.336426	0.090828	0.014093	0.000198	0.310428	-0.665812	-0.352128	-0.579943	-177.895760	-82.259243	53.908405
26091		9.280305	1.440805	0.081755	1.991095	0.283952	-0.638733	0.052995	-0.400236	0.117116	-0.781494	0.348145	0.337402	0.092793	0.014462	0.001007	0.310202	-0.667104	-0.352538	-0.578329	-177.476822	-82.024128	53.514945
26092		9.408441	1.553884	-0.029782	2.066561	0.169334	-0.504912	0.023201	-0.447819	0.172293	-0.773926	0.350098	0.345703	0.094071	0.015620	-0.000085	0.309958	-0.668660	-0.352758	-0.576526	-176.893987	-81.761182	52.939790
26093		9.162759	1.086504	-0.292730	1.552004	0.213262	-0.714999	0.015626	-0.502612	0.225534	-0.782715	0.346680	0.350830	0.091622	0.010969	-0.002696	0.309738	-0.670487	-0.352855	-0.574459	-176.157292	-81.462809	52.203408
26094		8.913136	1.383777	-0.048632	1.955460	0.245412	-1.010592	0.066766	-0.555870	0.282048	-0.783936	0.349365	0.352051	0.089113	0.013964	-0.000234	0.309760	-0.672469	-0.352994	-0.572039	-175.254153	-81.131406	51.328588
26095		9.361917	1.234162	-0.366598	1.753567	0.151184	-0.528033	0.049409	-0.625765	0.355913	-0.776611	0.353027	0.362549	0.093608	0.012509	-0.003370	0.309802	-0.674813	-0.352933	-0.569287	-174.186473	-80.752674	50.275185
26096		9.323015	1.560475	-0.164014	2.192780	0.161300	-0.617806	0.096735	-0.660400	0.377289	-0.771484	0.365479	0.366699	0.093205	0.015781	-0.001325	0.310006	-0.677199	-0.352990	-0.566300	-173.121149	-80.351182	49.251541
26097		9.338444	1.505379	-0.130431	2.232758	0.254183	-0.623596	-0.006207	-0.716053	0.416615	-0.771729	0.358154	0.359375	0.093357	0.015248	-0.000971	0.309863	-0.679972	-0.352697	-0.563230	-172.093385	-79.910867	48.203803
26098		8.956645	0.797722	-0.169088	1.650677	0.602080	-0.992333	0.029730	-0.781259	0.467754	-0.769287	0.360840	0.371094	0.089553	0.008187	-0.001340	0.309871	-0.682939	-0.352432	-0.559791	-171.010343	-79.427365	47.120375
26099		9.099965	1.042639	-0.169540	1.947090	0.519482	-0.876049	-0.009532	-0.839253	0.508773	-0.773926	0.372314	0.370361	0.090979	0.010658	-0.001314	0.309748	-0.686196	-0.351994	-0.556140	-169.953167	-78.902446	46.037972
26100		9.100814	-0.017489	-0.253481	1.106695	1.083448	-0.841067	-0.024192	-0.905590	0.551353	-0.763428	0.366943	0.382080	0.091018	0.000076	-0.002123	0.309571	-0.689707	-0.351468	-0.552214	-168.921964	-78.333293	44.972091
26101		9.430951	-0.141803	-0.343129	1.093348	1.169165	-0.511215	0.039796	-0.956749	0.591239	-0.761963	0.373535	0.396240	0.094328	-0.001139	-0.002980	0.309624	-0.693318	-0.351046	-0.547914	-167.875949	-77.725963	43.925916
26102		9.386987	-0.171795	-0.461247	1.096320	1.127378	-0.545334	0.062240	-1.010522	0.642269	-0.762939	0.379883	0.395020	0.093896	-0.001415	-0.004139	0.309791	-0.697100	-0.350583	-0.543298	-166.823744	-77.079453	42.884452
26103		9.349122	0.610386	-0.401811	1.872515	0.775483	-0.656748	0.093096	-1.069112	0.689346	-0.753906	0.384766	0.403809	0.093489	0.006428	-0.003515	0.310077	-0.701057	-0.350113	-0.538323	-165.778272	-76.388751	41.864664
26104		9.313996	1.244147	-0.306975	2.550259	0.536926	-0.779460	0.072738	-1.135545	0.746404	-0.745361	0.387207	0.410156	0.093108	0.012790	-0.002536	0.310318	-0.705286	-0.349480	-0.533046	-164.760378	-75.649970	40.858806
26105		9.035787	2.110109	0.213054	3.605558	0.472366	-1.273446	0.108600	-1.227336	0.838179	-0.745605	0.402100	0.415527	0.090253	0.021478	0.002696	0.310751	-0.709836	-0.348740	-0.527207	-163.687616	-74.840902	39.813541
26106		8.484568	2.509142	0.783455	4.246062	0.662054	-2.039121	0.121415	-1.351942	0.961344	-0.728516	0.408936	0.426025	0.084668	0.025494	0.008423	0.311321	-0.714857	-0.347773	-0.520685	-162.554877	-73.939115	38.709828
26107		8.036940	2.525069	1.481739	4.655249	1.183755	-2.735322	0.190180	-1.517178	1.128425	-0.720947	0.419189	0.431885	0.080110	0.025689	0.015450	0.312259	-0.720441	-0.346615	-0.513145	-161.303209	-72.910710	37.517711
26108		8.708510	3.634130	2.645242	6.467123	1.661351	-2.639486	0.248316	-1.699503	1.330364	-0.715576	0.419678	0.450928	0.086612	0.036885	0.027235	0.313576	-0.726671	-0.345129	-0.504485	-159.934643	-71.738770	36.230880
26109		11.144933	3.606786	2.763863	7.306409	2.278944	-0.524371	0.187337	-1.916647	1.545693	-0.690918	0.435791	0.456299	0.110894	0.036900	0.028737	0.314797	-0.733823	-0.343000	-0.494731	-158.561834	-70.396977	34.893108
26110		15.260621	4.392719	2.586027	9.268079	2.560963	3.086856	0.204656	-2.120885	1.706216	-0.684082	0.445313	0.474854	0.151938	0.045198	0.027520	0.316075	-0.741599	-0.340589	-0.483867	-157.248586	-68.903130	33.617768
26111		19.766205	4.957063	1.932977	11.160682	2.732978	7.126933	0.134651	-2.325867	1.877020	-0.660156	0.461670	0.483154	0.196942	0.051407	0.021657	0.317093	-0.750124	-0.337628	-0.471989	-156.043402	-67.252774	32.401856
26112		19.463793	6.589169	2.383277	13.080396	2.235141	6.055808	0.390956	-2.407351	1.950591	-0.640137	0.474854	0.498779	0.193677	0.067734	0.026299	0.319035	-0.758380	-0.335048	-0.459150	-154.817646	-65.533695	31.308908
26113		16.870078	7.420123	1.750818	12.963836	0.827046	3.376304	0.139150	-2.526110	2.023838	-0.617432	0.491699	0.505127	0.167699	0.075888	0.019683	0.319909	-0.767243	-0.331717	-0.446049	-153.866321	-63.727007	30.344385
26114		16.522719	3.477030	-1.137507	8.764826	0.864937	4.636822	-0.114336	-2.627227	2.078691	-0.588379	0.497803	0.527100	0.164985	0.036480	-0.009227	0.319681	-0.776619	-0.327682	-0.432773	-153.173818	-61.848828	29.492296
26115		16.470371	3.422675	-2.657206	8.454146	-0.167828	4.969834	-0.236993	-2.651870	2.095835	-0.568115	0.508789	0.532959	0.164667	0.035923	-0.024430	0.318880	-0.786051	-0.323263	-0.419453	-152.641787	-59.949786	28.728110
26116		15.563330	4.666330	-1.207263	10.106431	0.115666	2.965180	-0.713935	-2.722715	2.171663	-0.539307	0.513184	0.556152	0.155261	0.048312	-0.010128	0.316155	-0.796278	-0.317560	-0.406377	-152.420291	-57.992063	27.992482
26117		15.593162	0.682131	-3.599740	6.426613	0.813697	4.836055	-1.559318	-2.717032	2.110694	-0.522217	0.511475	0.579102	0.156320	0.008200	-0.033936	0.309842	-0.807464	-0.310269	-0.394629	-152.771888	-56.054277	27.346607
26118		14.919223	-3.215806	-5.189289	2.921120	2.069682	5.903948	-1.820873	-2.659488	2.007507	-0.493896	0.515137	0.603516	0.150178	-0.031113	-0.049614	0.302249	-0.818495	-0.302676	-0.383534	-153.342169	-54.175066	26.770108
26119		14.110341	-6.443278	-7.411140	-0.372903	2.573500	7.180067	-1.613551	-2.473762	1.922791	-0.463867	0.508301	0.614258	0.142616	-0.063652	-0.071838	0.295520	-0.828452	-0.295446	-0.372891	-153.797167	-52.416433	26.184264
26120		12.045953	-8.244514	-7.922564	-2.556977	3.113801	6.299078	-1.218572	-2.188995	1.833437	-0.435059	0.505859	0.628906	0.122065	-0.081806	-0.077396	0.290602	-0.836936	-0.288819	-0.362867	-154.007280	-50.828237	25.561837
26121		9.724055	-9.021148	-8.622741	-4.337254	2.735733	5.153285	-0.745662	-1.833400	1.655781	-0.416016	0.507080	0.643066	0.098768	-0.089716	-0.084992	0.287793	-0.843659	-0.283219	-0.353839	-153.971489	-49.469043	24.958597
26122		8.573911	-8.221071	-7.807361	-3.813376	2.577782	3.635726	-0.151904	-1.418310	1.287656	-0.399902	0.507568	0.645508	0.086817	-0.081713	-0.077398	0.287389	-0.848166	-0.279587	-0.346198	-153.715376	-48.414655	24.503714
26123		8.580398	-3.838954	-2.654378	1.514846	3.139814	-0.688412	0.943426	-0.631797	0.797464	-0.388916	0.524902	0.651367	0.086039	-0.037922	-0.026452	0.291860	-0.848991	-0.278780	-0.341048	-152.906486	-47.886891	24.143235
26124		9.025132	4.013633	-0.072863	8.201342	-0.286996	-4.315137	0.425492	-0.003454	0.345200	-0.386963	0.521484	0.648438	0.090182	0.040293	-0.000641	0.294231	-0.848848	-0.278085	-0.339931	-152.475219	-47.794756	23.890504
26125		11.484064	7.294028	0.315391	12.074834	-1.587669	-3.741166	0.014198	0.585141	0.074972	-0.387939	0.522217	0.642334	0.114822	0.072983	0.002823	0.295210	-0.847926	-0.276968	-0.342287	-152.258571	-48.072973	23.609100
26126		8.409669	1.390825	-1.419421	5.459096	0.313612	-3.121587	-1.255415	0.863947	-0.150072	-0.397461	0.516602	0.643555	0.084044	0.013754	-0.014644	0.290800	-0.848062	-0.274214	-0.347897	-152.812905	-48.552223	23.388374
26127		7.400117	-2.829473	-3.605383	0.995890	1.400913	-1.279757	-0.881271	1.199577	-0.643418	-0.405029	0.514648	0.645020	0.073692	-0.028692	-0.036371	0.287558	-0.846339	-0.273696	-0.355121	-153.344296	-49.333283	23.422900
26128		9.123930	-1.499165	-1.469301	3.727544	2.367434	-1.557356	-0.274542	1.629893	-0.993283	-0.421631	0.505859	0.636230	0.091040	-0.015465	-0.015414	0.286831	-0.842436	-0.275097	-0.363802	-153.617131	-50.423286	23.574149
26129		10.392280	-0.573947	-1.848933	4.741575	1.740892	-0.526710	-0.236853	1.998787	-1.084695	-0.431152	0.503174	0.633789	0.103698	-0.006325	-0.019519	0.286570	-0.837584	-0.276392	-0.374085	-153.821702	-51.726698	23.662447
26130		9.988545	-3.574374	-2.501227	1.960089	3.151114	0.435530	-0.100149	2.314418	-0.987260	-0.437256	0.492432	0.624268	0.099409	-0.036248	-0.026146	0.287460	-0.831962	-0.277042	-0.385297	-153.784467	-53.166531	23.543274
26131		7.971419	-3.532865	-2.041778	0.878756	2.851461	-1.369615	0.077848	2.559048	-1.173058	-0.467529	0.488037	0.605469	0.079235	-0.035786	-0.021448	0.289015	-0.825205	-0.278403	-0.397490	-153.683993	-54.780288	23.473373
26132		7.834218	0.685203	-0.831197	4.110302	0.718182	-3.095525	-0.268795	2.652005	-1.411377	-0.485352	0.482910	0.603271	0.078268	0.006287	-0.009359	0.288739	-0.818260	-0.279868	-0.410797	-153.925747	-56.500948	23.579801
26133		8.115804	1.810536	-1.443201	4.516364	-0.486951	-2.700280	-0.960248	2.708624	-1.458009	-0.510254	0.458740	0.596436	0.081081	0.017441	-0.015615	0.285543	-0.811928	-0.279951	-0.425282	-154.607532	-58.263204	23.735204
26134		8.135612	0.547233	-2.420380	2.885520	-0.385613	-1.821176	-1.156987	2.797983	-1.491685	-0.522705	0.451172	0.586182	0.081044	0.004723	-0.025368	0.281529	-0.805423	-0.279552	-0.440326	-155.443122	-60.077433	23.936371
26135		8.266087	-0.812179	-2.643031	1.608275	0.343523	-1.253356	-1.145002	2.846634	-1.432726	-0.547363	0.442139	0.568848	0.082212	-0.008867	-0.027553	0.277670	-0.798644	-0.278784	-0.455354	-156.257078	-61.902948	24.115019
26136		8.268581	-1.289118	-2.994431	0.802095	0.357673	-0.968493	-1.182794	2.856800	-1.378688	-0.566895	0.420166	0.564453	0.082155	-0.013640	-0.031041	0.273727	-0.791742	-0.277630	-0.470256	-157.095367	-63.718766	24.295631
26137		8.207737	-1.825496	-3.520359	-0.188216	0.288733	-0.704092	-1.178830	2.857061	-1.347546	-0.584473	0.418945	0.551514	0.081438	-0.019017	-0.036259	0.269788	-0.784647	-0.276276	-0.484989	-157.968081	-65.527895	24.512607
26138		8.228471	-2.870875	-4.199184	-1.611685	0.495952	-0.287372	-1.042706	2.869190	-1.360916	-0.604492	0.401611	0.540283	0.081474	-0.029487	-0.043012	0.266298	-0.777104	-0.275216	-0.499451	-158.852887	-67.343243	24.826181
26139		8.046341	-3.278742	-4.400815	-2.378503	0.551937	-0.384478	-0.712071	2.896100	-1.390844	-0.621826	0.403076	0.520752	0.079585	-0.033502	-0.045046	0.263976	-0.768794	-0.274982	-0.513476	-159.670470	-69.178442	25.266011
26140		7.766979	-3.038891	-4.141881	-2.419509	0.443965	-0.831733	-0.437764	2.898854	-1.421725	-0.635254	0.377197	0.510742	0.076840	-0.031029	-0.042469	0.262568	-0.759870	-0.275498	-0.527026	-160.487861	-71.017245	25.868609
26141		7.345341	-2.944077	-3.955938	-2.623898	0.368485	-1.372080	-0.307476	2.862729	-1.458411	-0.658691	0.370361	0.499268	0.072660	-0.030034	-0.040557	0.261435	-0.750615	-0.276468	-0.540180	-161.463519	-72.841288	26.708726
26142		6.901418	-3.020930	-3.805766	-2.945734	0.395819	-1.913353	-0.200847	2.810495	-1.514491	-0.680908	0.361816	0.473633	0.068239	-0.030767	-0.038990	0.260416	-0.741095	-0.277937	-0.552913	-162.730296	-74.639966	27.908385
26143		6.832892	-2.755976	-3.971815	-3.127687	0.013623	-2.049265	-0.064584	2.763498	-1.530615	-0.689941	0.356445	0.452881	0.067558	-0.028092	-0.040646	0.259719	-0.731314	-0.279828	-0.565175	-164.306421	-76.407872	29.496696
26144		6.649017	-2.715005	-3.874618	-3.299952	-0.040713	-2.349673	0.040442	2.723735	-1.538055	-0.695801	0.346436	0.438721	0.065743	-0.027650	-0.039650	0.259271	-0.721322	-0.282031	-0.577002	-166.329511	-78.140360	31.594376
26145		6.393146	-2.800700	-3.460331	-3.338307	0.213428	-2.777388	0.066901	2.674079	-1.574140	-0.712891	0.334473	0.412354	0.063238	-0.028495	-0.035461	0.258679	-0.711207	-0.284433	-0.588530	-169.178293	-79.829660	34.534783
26146		6.250689	-2.554958	-3.529428	-3.437979	-0.081808	-3.013793	-0.065714	2.584971	-1.591431	-0.728271	0.326904	0.395020	0.061838	-0.026055	-0.036088	0.257379	-0.701339	-0.286558	-0.599804	-173.346130	-81.431818	38.720485
26147		6.276446	-3.376747	-4.318429	-4.765113	-0.109946	-2.977366	-0.085265	2.509598	-1.561089	-0.747559	0.308838	0.386475	0.061950	-0.034272	-0.043951	0.255935	-0.691602	-0.288548	-0.610675	-179.259803	-82.925683	44.639500
26148		5.872685	-4.295056	-5.143863	-6.217109	-0.135491	-3.431543	0.003198	2.439687	-1.541289	-0.752930	0.294678	0.356201	0.057760	-0.043397	-0.052148	0.254703	-0.681852	-0.290770	-0.621013	172.056664	-84.266810	53.378724
26149		5.925923	-4.111892	-5.713370	-6.655960	-0.718589	-3.500550	0.115135	2.346190	-1.541877	-0.766357	0.294434	0.342773	0.058264	-0.041538	-0.057845	0.253659	-0.672106	-0.293397	-0.630752	158.918278	-85.351543	66.635738
26150		6.122024	-3.077996	-6.006054	-6.281999	-1.691468	-3.433318	0.155152	2.242467	-1.513923	-0.775879	0.278564	0.320557	0.060306	-0.031192	-0.060764	0.252641	-0.662554	-0.296136	-0.639921	140.337972	-86.026247	85.356796
26151		5.860876	-2.004747	-6.107575	-5.738729	-2.579507	-3.805971	0.069996	2.095086	-1.425280	-0.787109	0.265869	0.303223	0.057820	-0.020440	-0.061691	0.251362	-0.653593	-0.298443	-0.648510	119.054538	-86.162248	106.728659
26152		5.517783	-2.447923	-6.519667	-6.468451	-2.625481	-4.316600	-0.054818	1.887459	-1.281522	-0.798828	0.251465	0.300781	0.054401	-0.024847	-0.065706	0.249796	-0.645586	-0.300094	-0.656326	100.844615	-85.831658	124.950943
26153		5.194067	-4.008330	-6.852720	-7.910334	-1.830025	-4.905606	0.007141	1.667780	-1.100463	-0.797363	0.240723	0.282471	0.051145	-0.040364	-0.068957	0.248663	-0.638418	-0.301601	-0.663043	87.972878	-85.267813	137.864790
26154		5.072257	-4.721134	-6.682094	-8.376761	-1.254308	-5.238680	0.152313	1.438517	-0.952286	-0.810547	0.236328	0.266846	0.050015	-0.047400	-0.067218	0.248119	-0.631999	-0.303377	-0.668563	79.486927	-84.629108	146.471315
26155		5.108634	-5.696257	-6.702190	-9.156937	-0.636163	-5.429909	0.350746	1.192470	-0.819084	-0.810547	0.228027	0.265625	0.050452	-0.057052	-0.067424	0.248256	-0.626317	-0.305678	-0.672797	74.104990	-84.011161	152.081187
26156		5.176736	-6.300691	-6.888259	-9.776502	-0.412958	-5.547327	0.620448	0.938611	-0.668653	-0.814941	0.222168	0.247070	0.051232	-0.062964	-0.069319	0.249346	-0.621353	-0.308719	-0.675603	70.863762	-83.479748	155.699527
26157		4.938616	-5.921247	-7.440514	-9.890650	-1.166398	-5.859761	0.828870	0.698559	-0.544930	-0.812256	0.218994	0.237549	0.048964	-0.059037	-0.074822	0.251117	-0.617110	-0.312362	-0.677160	69.090794	-83.045691	157.962391
26158		4.398286	-5.228556	-8.103340	-9.788565	-2.237469	-6.418052	0.958462	0.471636	-0.480759	-0.821045	0.213135	0.239990	0.043666	-0.052001	-0.081386	0.253146	-0.613547	-0.316524	-0.677709	68.453486	-82.687346	159.158241
26159		4.410981	-5.224544	-8.586663	-10.104863	-2.692086	-6.476993	1.024836	0.276805	-0.403810	-0.817627	0.204346	0.233643	0.043886	-0.051893	-0.086194	0.255318	-0.610667	-0.320905	-0.677435	68.589951	-82.410790	159.612106
26160		4.902244	-5.933365	-8.303401	-10.486630	-2.092528	-6.093265	1.164226	0.130105	-0.272794	-0.817139	0.203125	0.231934	0.048888	-0.058916	-0.083410	0.258120	-0.608290	-0.325541	-0.676299	69.185957	-82.234406	159.683929
26161		8.729189	-5.943143	-3.655204	-7.941139	1.499265	-2.094527	1.327353	0.072393	-0.134709	-0.822510	0.206787	0.222900	0.087239	-0.059246	-0.036977	0.261783	-0.606103	-0.330367	-0.674512	69.888360	-82.144727	159.742776
26162		15.680561	-7.822837	-4.823975	-10.980208	2.048642	4.525504	1.183208	-0.359580	0.493551	-0.829834	0.209229	0.229248	0.157084	-0.077555	-0.048418	0.266400	-0.606567	-0.333355	-0.670807	71.336710	-82.476038	158.965502
26163		32.405365	25.830921	5.119087	19.254620	-10.507210	25.716366	3.565514	-0.397314	0.139057	-0.820557	0.222900	0.229248	0.323766	0.257559	0.056431	0.276933	-0.603296	-0.345387	-0.663363	74.899282	-82.615505	157.431223
26164		30.740285	32.509153	3.817269	24.417292	-15.182655	24.678402	0.386203	-0.764658	1.024831	-0.816162	0.225586	0.233887	0.305581	0.326584	0.039973	0.280137	-0.607051	-0.344659	-0.658956	77.452123	-83.286348	155.082084
26165		11.324542	5.044474	-6.421831	-1.052373	-7.576446	1.867202	-0.193986	-1.169772	0.936756	-0.807617	0.235840	0.244629	0.113381	0.050914	-0.063605	0.280569	-0.612779	-0.342832	-0.654407	82.428975	-83.928306	149.961433
26166		7.104704	-0.473251	-7.514298	-5.542468	-5.285191	-2.847704	0.685858	-1.265307	0.689216	-0.803955	0.240723	0.253174	0.071536	-0.004230	-0.074707	0.282715	-0.617116	-0.344760	-0.648368	89.639923	-84.368536	143.108016
26167		8.685889	1.278475	-5.936806	-3.185201	-4.957159	-1.003429	0.266903	-1.525953	0.948188	-0.798584	0.248291	0.264160	0.087246	0.013276	-0.058686	0.283937	-0.623296	-0.344877	-0.641827	99.515148	-84.837103	133.343137
26168		10.818587	-4.497557	-11.254160	-10.908251	-5.545618	0.872324	0.404310	-1.740014	1.649432	-0.794434	0.260986	0.270996	0.109525	-0.043850	-0.111682	0.287437	-0.631101	-0.343511	-0.633319	114.254151	-85.451616	118.784443
26169		9.553215	-13.339272	-6.573465	-14.867388	3.328024	-0.852835	1.087623	-1.238680	2.060197	-0.786377	0.280762	0.278320	0.097305	-0.132039	-0.065856	0.295197	-0.636952	-0.342234	-0.624521	131.610550	-86.057075	102.005062
26170		4.561178	-15.099230	-6.551417	-16.076485	3.923564	-5.587097	0.686267	-0.900233	1.575816	-0.775146	0.296387	0.287598	0.047094	-0.150400	-0.065821	0.300718	-0.641413	-0.340704	-0.618126	147.203380	-86.249907	86.771684
26171		10.671711	11.900003	0.517006	10.032256	-5.782188	1.218129	1.130586	-0.797802	0.044363	-0.776855	0.299561	0.284180	0.106667	0.118990	0.006268	0.303073	-0.642251	-0.345273	-0.613553	151.523889	-85.863932	83.088861
26172		11.149601	5.102077	-1.095741	3.676587	-3.058949	1.530582	-1.814126	-1.156959	1.139039	-0.777588	0.305176	0.302002	0.111266	0.051557	-0.010779	0.298691	-0.650464	-0.337811	-0.611199	161.876976	-85.507691	71.664362
26173		11.691399	-7.523245	-5.594036	-8.991986	0.905597	2.141395	-0.670982	-1.179454	1.038012	-0.763672	0.310303	0.316895	0.117629	-0.074809	-0.054997	0.297637	-0.656810	-0.334163	-0.606917	170.355508	-84.988110	62.770030
