// General information: 
//  MT Manager version: 2019.2.0 
//  XDA version: 2019.2.0 build 3853 rev 94535 built on 2019-09-09
// Device information: 
//  DeviceId: 00B47792
//  ProductCode: MTW2-3A7G6
//  Firmware Version: 4.6.0
//  Hardware Version: 2.0.0
// Device settings: 
//  Filter Profile: human(46.1)
//  Option Flags: Orientation Smoother Disabled, AHS Disabled, ICC Disabled
// Coordinate system: ENU
PacketCounter	SampleTimeFine	Acc_X	Acc_Y	Acc_Z	FreeAcc_E	FreeAcc_N	FreeAcc_U	Gyr_X	Gyr_Y	Gyr_Z	Mag_X	Mag_Y	Mag_Z	VelInc_X	VelInc_Y	VelInc_Z	Quat_q0	Quat_q1	Quat_q2	Quat_q3	Roll	Pitch	Yaw
48183		9.724571	0.440187	-0.443740	-0.064244	-0.056997	-0.068429	0.015385	-0.004076	0.011559	-0.912109	0.238770	0.266602	0.097246	0.004408	-0.004435	0.242539	-0.662461	-0.282055	-0.650204	129.016919	-86.647061	94.550368
48184		9.746012	0.503821	-0.417312	-0.000019	-0.083617	-0.045101	0.017257	-0.001465	0.009432	-0.914551	0.243652	0.272705	0.097460	0.005043	-0.004172	0.242609	-0.662476	-0.282093	-0.650146	129.132176	-86.647831	94.444574
48185		9.716684	0.484609	-0.416964	-0.011658	-0.071298	-0.075263	0.013080	-0.001170	0.011357	-0.908203	0.239014	0.271484	0.097167	0.004852	-0.004169	0.242678	-0.662496	-0.282117	-0.650089	129.255756	-86.649460	94.329079
48186		9.724722	0.469337	-0.456043	-0.049401	-0.086980	-0.066484	0.010776	0.001735	0.011154	-0.919434	0.240723	0.278809	0.097247	0.004699	-0.004561	0.242738	-0.662511	-0.282124	-0.650049	129.353893	-86.652130	94.236715
48187		9.724738	0.435884	-0.444326	-0.062934	-0.054861	-0.068408	0.009199	-0.001370	0.008182	-0.908447	0.246826	0.267578	0.097247	0.004363	-0.004442	0.242779	-0.662535	-0.282143	-0.650001	129.459056	-86.652106	94.136822
48188		9.716755	0.416733	-0.393670	-0.038430	-0.006586	-0.079114	0.004018	-0.000860	0.008086	-0.915283	0.248047	0.279053	0.097167	0.004171	-0.003936	0.242802	-0.662562	-0.282142	-0.649965	129.554015	-86.652454	94.043763
48189		9.729227	0.395522	-0.398929	-0.056010	0.005650	-0.067418	0.002286	0.003387	0.010091	-0.908936	0.243896	0.272705	0.097292	0.003960	-0.003991	0.242840	-0.662579	-0.282130	-0.649939	129.633469	-86.655223	93.966492
48190		9.708870	0.428997	-0.354272	0.000316	0.010655	-0.087894	0.002719	0.001831	0.009904	-0.911865	0.249268	0.269531	0.097088	0.004295	-0.003544	0.242868	-0.662602	-0.282115	-0.649912	129.718894	-86.657341	93.882239
48191		9.667101	0.430334	-0.348244	0.006644	0.011234	-0.129758	0.002147	0.000489	0.007696	-0.905518	0.238037	0.269531	0.096671	0.004307	-0.003483	0.242894	-0.662624	-0.282114	-0.649879	129.804168	-86.657997	93.799149
48192		9.746320	0.431220	-0.393660	-0.025093	-0.016276	-0.048939	-0.004334	0.001711	0.010676	-0.902344	0.234375	0.273193	0.097463	0.004317	-0.003938	0.242902	-0.662657	-0.282074	-0.649860	129.891489	-86.660396	93.708948
48193		9.733846	0.385662	-0.364667	-0.034572	0.035687	-0.064508	-0.003468	0.000577	0.009044	-0.912842	0.238525	0.277100	0.097338	0.003861	-0.003647	0.242906	-0.662690	-0.282046	-0.649837	129.979041	-86.661389	93.619341
48194		9.733935	0.417299	-0.376318	-0.020375	0.004651	-0.062569	-0.001596	0.001208	0.008175	-0.915771	0.245361	0.270264	0.097339	0.004177	-0.003764	0.242914	-0.662718	-0.282024	-0.649816	130.056116	-86.662490	93.540976
48195		9.763424	0.466991	-0.388505	0.005821	-0.038121	-0.030459	-0.009083	0.000667	0.010392	-0.917236	0.238525	0.277832	0.097634	0.004675	-0.003886	0.242906	-0.662759	-0.281975	-0.649798	130.149310	-86.664191	93.442880
48196		9.758981	0.439674	-0.410203	-0.027850	-0.033957	-0.035297	-0.011820	0.003150	0.011634	-0.919922	0.246826	0.267334	0.097589	0.004402	-0.004104	0.242894	-0.662797	-0.281906	-0.649793	130.228033	-86.667511	93.356996
48197		9.763472	0.432629	-0.376260	-0.007407	-0.005501	-0.032399	-0.018145	0.000981	0.007120	-0.911133	0.243652	0.272949	0.097635	0.004329	-0.003763	0.242848	-0.662843	-0.281839	-0.649793	130.291867	-86.667920	93.283298
48198		9.734051	0.381452	-0.363629	-0.032946	0.038337	-0.064512	-0.017137	0.004724	0.006626	-0.911133	0.240723	0.271484	0.097340	0.003817	-0.003639	0.242804	-0.662875	-0.281767	-0.649807	130.324028	-86.669624	93.241004
48199		9.796290	0.344016	-0.413637	-0.094568	0.034361	-0.002152	-0.014265	0.001180	0.010293	-0.911621	0.239746	0.274170	0.097963	0.003445	-0.004137	0.242781	-0.662920	-0.281702	-0.649799	130.410044	-86.671486	93.147269
48200		9.746612	0.392188	-0.380070	-0.036352	0.019563	-0.050873	-0.014399	0.004222	0.004125	-0.916992	0.245361	0.281006	0.097466	0.003924	-0.003803	0.242738	-0.662948	-0.281647	-0.649810	130.431664	-86.671907	93.117105
48201		9.708231	0.321249	-0.422873	-0.115964	0.039160	-0.090713	-0.012958	0.006409	0.003444	-0.916504	0.244385	0.273438	0.097082	0.003214	-0.004232	0.242702	-0.662966	-0.281601	-0.649825	130.437300	-86.672624	93.104233
48202		9.771505	0.350985	-0.389533	-0.071559	0.044084	-0.027485	-0.007775	0.007875	0.002284	-0.909912	0.248291	0.268555	0.097715	0.003511	-0.003899	0.242679	-0.662971	-0.281569	-0.649842	130.423556	-86.673600	93.113295
48203		9.746721	0.391624	-0.377862	-0.035329	0.021162	-0.050873	-0.001722	0.010187	-0.001765	-0.908203	0.239258	0.275879	0.097467	0.003915	-0.003784	0.242675	-0.662953	-0.281576	-0.649859	130.372671	-86.673678	93.164402
48204		9.705017	0.426433	-0.382720	-0.015176	-0.009843	-0.090787	-0.005468	0.008928	-0.000029	-0.916992	0.241943	0.270264	0.097050	0.004264	-0.003832	0.242655	-0.662949	-0.281559	-0.649878	130.337548	-86.674034	93.196203
48205		9.746856	0.424369	-0.387775	-0.020795	-0.009321	-0.048920	0.004325	0.008540	-0.003298	-0.909668	0.236816	0.274658	0.097468	0.004242	-0.003882	0.242658	-0.662929	-0.281589	-0.649885	130.291739	-86.672641	93.244994
48206		9.742386	0.398373	-0.408759	-0.054468	-0.005162	-0.053749	-0.003593	0.011538	-0.002155	-0.909668	0.245361	0.269775	0.097424	0.003983	-0.004093	0.242640	-0.662910	-0.281582	-0.649913	130.224522	-86.673031	93.310019
48207		9.751406	0.451104	-0.363923	0.013858	-0.011894	-0.044089	0.007633	0.007396	-0.002331	-0.902832	0.236084	0.275391	0.097514	0.004510	-0.003643	0.242657	-0.662891	-0.281622	-0.649909	130.195901	-86.671666	93.343597
48208		9.701691	0.500049	-0.329909	0.072060	-0.026717	-0.092821	0.001585	0.009044	-0.000799	-0.909180	0.251465	0.275635	0.097017	0.005000	-0.003303	0.242657	-0.662877	-0.281630	-0.649921	130.159052	-86.671722	93.381175
48209		9.676806	0.508195	-0.306767	0.094430	-0.018068	-0.118168	0.000142	0.004878	0.001139	-0.909668	0.246094	0.277832	0.096768	0.005082	-0.003070	0.242657	-0.662880	-0.281636	-0.649914	130.170337	-86.670949	93.370417
48210		9.676660	0.443152	-0.283096	0.066990	0.045555	-0.122088	0.001438	0.000207	0.000577	-0.897949	0.246338	0.275391	0.096767	0.004432	-0.002831	0.242649	-0.662897	-0.281650	-0.649894	130.208645	-86.668341	93.332627
48211		9.760301	0.438430	-0.294919	0.055488	0.046065	-0.038360	0.000134	-0.001062	0.004911	-0.914307	0.254150	0.285400	0.097603	0.004387	-0.002949	0.242654	-0.662926	-0.281651	-0.649863	130.290145	-86.667060	93.251647
48212		9.714009	0.413935	-0.311136	0.027757	0.050234	-0.085055	0.003876	-0.001783	0.004433	-0.896240	0.253906	0.277100	0.097140	0.004142	-0.003110	0.242663	-0.662951	-0.281662	-0.649828	130.369170	-86.665392	93.174470
48213		9.731007	0.451777	-0.306797	0.058119	0.027295	-0.066580	-0.002319	-0.008972	0.007342	-0.897949	0.261719	0.292725	0.097310	0.004521	-0.003064	0.242659	-0.663012	-0.281658	-0.649769	130.527771	-86.662317	93.015158
48214		9.640783	0.215661	-0.960458	-0.574818	-0.255444	-0.142216	-0.035041	-0.046607	0.027660	-0.901123	0.257080	0.291016	0.096410	0.002168	-0.009582	0.242552	-0.663263	-0.281520	-0.649613	131.065944	-86.653907	92.455715
48215		9.394688	-0.324970	-1.388138	-1.248478	-0.170434	-0.394357	0.035686	-0.095093	0.059939	-0.900635	0.259033	0.291748	0.093954	-0.003219	-0.013837	0.242721	-0.663633	-0.281567	-0.649152	132.215324	-86.640272	91.325361
48216		9.794456	0.591704	-1.635472	-0.784630	-0.976948	0.055755	0.076246	-0.122509	0.050075	-0.896240	0.257568	0.290527	0.097953	0.005948	-0.016292	0.242949	-0.664026	-0.281808	-0.648559	133.495179	-86.610531	90.086802
48217		9.741303	0.709107	-1.458602	-0.562190	-0.938749	0.001895	0.019084	-0.119327	0.060304	-0.885254	0.265381	0.297363	0.097420	0.007122	-0.014527	0.243029	-0.664492	-0.281831	-0.648042	134.770770	-86.584494	88.820488
48218		9.646869	0.377016	-1.003736	-0.449902	-0.386819	-0.124568	0.006572	-0.106886	0.044875	-0.894531	0.270752	0.294189	0.096473	0.003792	-0.009986	0.243030	-0.664912	-0.281845	-0.647605	135.828092	-86.555938	87.764798
48219		9.902209	0.333562	-0.612523	-0.185894	-0.066615	0.112089	-0.008805	-0.088573	0.038201	-0.888916	0.270996	0.304199	0.099024	0.003354	-0.006082	0.242990	-0.665280	-0.281814	-0.647255	136.697140	-86.531093	86.889858
48220		9.844937	0.006018	-0.300484	-0.177935	0.385376	0.027686	-0.037278	-0.071056	0.021479	-0.892578	0.267822	0.302246	0.098450	0.000070	-0.002970	0.242820	-0.665603	-0.281720	-0.647028	137.308013	-86.506546	86.256215
48221		9.694105	-0.155032	-0.492949	-0.421941	0.363604	-0.120812	-0.005602	-0.066538	0.034059	-0.892822	0.271240	0.299072	0.096943	-0.001534	-0.004897	0.242807	-0.665890	-0.281686	-0.646752	137.989672	-86.488158	85.570688
48222		9.893083	0.209722	-0.547225	-0.202359	0.077396	0.095370	0.002602	-0.058179	0.020249	-0.886475	0.276123	0.302734	0.098932	0.002107	-0.005443	0.242784	-0.666122	-0.281709	-0.646512	138.518824	-86.467812	85.041785
48223		9.899184	0.321749	-0.745305	-0.262812	-0.136466	0.115311	-0.027044	-0.056811	0.021600	-0.876709	0.276367	0.304199	0.098994	0.003227	-0.007425	0.242674	-0.666385	-0.281636	-0.646313	139.028657	-86.448111	84.516270
48224		9.669054	0.192517	-0.901878	-0.461013	-0.161949	-0.112054	-0.021285	-0.055987	0.023879	-0.882324	0.275879	0.310547	0.096693	0.001936	-0.008992	0.242587	-0.666644	-0.281567	-0.646110	139.544488	-86.429491	83.986980
48225		9.757435	0.374447	-0.956525	-0.369106	-0.322764	-0.013592	-0.008782	-0.056901	0.018053	-0.885010	0.272217	0.312988	0.097577	0.003753	-0.009538	0.242525	-0.666880	-0.281565	-0.645890	140.029238	-86.407854	83.496964
48226		9.729803	0.486556	-0.901505	-0.246995	-0.364711	-0.039025	-0.025763	-0.053550	0.016002	-0.874023	0.275146	0.315918	0.097300	0.004872	-0.008990	0.242401	-0.667125	-0.281504	-0.645710	140.462099	-86.386874	83.048213
48227		9.640545	0.301335	-0.857292	-0.338201	-0.202818	-0.137444	-0.033674	-0.052507	0.018437	-0.879395	0.277832	0.313965	0.096407	0.003021	-0.008548	0.242263	-0.667379	-0.281414	-0.645539	140.899113	-86.366823	82.591496
48228		9.715916	0.244413	-0.812114	-0.339435	-0.122964	-0.066511	-0.019135	-0.045958	0.011618	-0.869141	0.283936	0.309570	0.097161	0.002449	-0.008099	0.242156	-0.667584	-0.281380	-0.645381	141.252359	-86.347243	82.226307
48229		9.688842	0.454917	-0.791078	-0.175645	-0.259548	-0.086013	-0.024631	-0.045286	0.002987	-0.871338	0.280762	0.327881	0.096890	0.004550	-0.007889	0.242010	-0.667781	-0.281363	-0.645239	141.537302	-86.324556	81.927435
48230		9.582339	0.404185	-0.629804	-0.090998	-0.115891	-0.202301	-0.040282	-0.040314	0.010272	-0.869629	0.280273	0.327393	0.095824	0.004046	-0.006280	0.241837	-0.667993	-0.281259	-0.645131	141.830551	-86.306790	81.610208
48231		9.670559	0.456989	-0.636453	-0.054596	-0.150463	-0.111760	-0.044042	-0.049455	0.017031	-0.867432	0.280762	0.326172	0.096707	0.004577	-0.006342	0.241663	-0.668247	-0.281136	-0.644986	142.218059	-86.286929	81.196988
48232		9.714537	0.552007	-0.575911	0.059733	-0.172544	-0.067162	-0.066057	-0.048596	0.021091	-0.869873	0.286865	0.325928	0.097146	0.005528	-0.005737	0.241427	-0.668531	-0.280922	-0.644874	142.609819	-86.268925	80.766228
48233		9.692301	0.517968	-0.618862	0.010025	-0.176469	-0.088453	-0.083333	-0.054605	0.030416	-0.873047	0.272217	0.326904	0.096924	0.005192	-0.006164	0.241159	-0.668868	-0.280634	-0.644750	143.087080	-86.250968	80.240654
48234		9.809940	0.447990	-0.759929	-0.133542	-0.212672	0.033634	-0.085482	-0.054716	0.036378	-0.868652	0.283936	0.327393	0.098101	0.004495	-0.007574	0.240898	-0.669216	-0.280314	-0.644625	143.598088	-86.234929	79.679221
48235		9.743914	0.585905	-0.781515	-0.049768	-0.330287	-0.025637	-0.090078	-0.048878	0.036012	-0.872070	0.287842	0.330078	0.097440	0.005873	-0.007794	0.240632	-0.669550	-0.279978	-0.644524	144.072111	-86.220911	79.152858
48236		9.559359	0.489700	-0.741404	-0.083534	-0.243402	-0.215573	-0.106659	-0.049006	0.035044	-0.865234	0.288330	0.327881	0.095595	0.004910	-0.007393	0.240304	-0.669904	-0.279587	-0.644449	144.524290	-86.206472	78.638202
48237		9.607513	0.307584	-0.734600	-0.196540	-0.101241	-0.174759	-0.087414	-0.063183	0.042188	-0.868408	0.282471	0.335205	0.096077	0.003093	-0.007317	0.240049	-0.670288	-0.279257	-0.644287	145.106419	-86.187211	78.005281
48238		9.764035	0.250137	-0.631998	-0.151393	0.022842	-0.026221	-0.054467	-0.069721	0.044153	-0.855469	0.290039	0.336914	0.097642	0.002521	-0.006287	0.239896	-0.670658	-0.279028	-0.644058	145.744184	-86.165295	77.334574
48239		9.746740	0.248593	-0.476255	-0.030665	0.131400	-0.052085	-0.009873	-0.078060	0.043139	-0.864990	0.281494	0.333496	0.097469	0.002507	-0.004725	0.239881	-0.670999	-0.278962	-0.643738	146.434238	-86.138318	76.637760
48240		9.787462	0.517713	-0.331157	0.269415	0.039787	-0.009732	0.040302	-0.096406	0.046941	-0.866211	0.283936	0.333984	0.097875	0.005201	-0.003263	0.240018	-0.671344	-0.279061	-0.643284	147.251570	-86.103376	75.841453
48241		9.818437	0.734214	-0.232098	0.501535	-0.044525	0.023019	0.036341	-0.110381	0.052497	-0.858398	0.288574	0.339844	0.098184	0.007368	-0.002265	0.240143	-0.671746	-0.279150	-0.642778	148.155096	-86.062307	74.957144
48242		9.566344	0.442361	-0.279584	0.275871	0.123480	-0.236811	0.058020	-0.130515	0.065891	-0.865234	0.284424	0.341797	0.095664	0.004456	-0.002732	0.240352	-0.672206	-0.279283	-0.642162	149.229915	-86.014588	73.912831
48243		9.585538	0.433552	-0.349854	0.234134	0.088047	-0.214233	0.100846	-0.148426	0.075514	-0.862061	0.287109	0.338867	0.095856	0.004373	-0.003425	0.240714	-0.672684	-0.279547	-0.641410	150.445302	-85.959074	72.752760
48244		9.508998	0.416592	-0.391047	0.208200	0.072257	-0.289090	0.129123	-0.166876	0.088215	-0.863525	0.293457	0.340332	0.095091	0.004210	-0.003828	0.241183	-0.673204	-0.279876	-0.640544	151.801729	-85.896268	71.466827
48245		9.458924	0.179571	-0.532723	-0.039293	0.149541	-0.338336	0.165459	-0.181496	0.099544	-0.854248	0.294189	0.344238	0.094593	0.001847	-0.005240	0.241793	-0.673742	-0.280306	-0.639559	153.271137	-85.826541	70.089156
48246		9.595832	0.082696	-0.890361	-0.341217	-0.010762	-0.181333	0.205525	-0.188938	0.105305	-0.856445	0.303711	0.343994	0.095966	0.000887	-0.008812	0.242542	-0.674262	-0.280848	-0.638489	154.779054	-85.752118	68.694991
48247		9.531170	0.269243	-1.020970	-0.287871	-0.235625	-0.230430	0.209817	-0.174420	0.098138	-0.855713	0.289063	0.347900	0.095319	0.002750	-0.010124	0.243307	-0.674719	-0.281415	-0.637465	156.145767	-85.680762	67.445622
48248		9.518297	0.146618	-1.393914	-0.622193	-0.400614	-0.220252	0.199186	-0.162848	0.096847	-0.850830	0.298340	0.340332	0.095194	0.001526	-0.013860	0.244043	-0.675149	-0.281933	-0.636499	157.419906	-85.613329	66.282010
48249		9.471408	-0.037204	-1.930315	-1.118829	-0.638463	-0.232727	0.223212	-0.138574	0.080215	-0.849609	0.301514	0.345947	0.094728	-0.000313	-0.019238	0.244844	-0.675447	-0.282557	-0.635597	158.492236	-85.553142	65.335195
48250		9.382116	0.190774	-2.044527	-1.029682	-0.886859	-0.305121	0.259093	-0.104905	0.047852	-0.850342	0.310303	0.344482	0.093831	0.001957	-0.020394	0.245708	-0.675548	-0.283358	-0.634800	159.249733	-85.503386	64.724045
48251		9.373684	0.164401	-2.002111	-1.005167	-0.838604	-0.315961	0.267845	-0.071731	0.020980	-0.852539	0.313721	0.343506	0.093744	0.001681	-0.019985	0.246567	-0.675493	-0.284243	-0.634129	159.734013	-85.465230	64.392914
48252		9.649345	-0.165941	-1.931397	-1.166961	-0.533793	-0.054565	0.287975	-0.030576	-0.000229	-0.855225	0.302734	0.340088	0.096496	-0.001632	-0.019302	0.247480	-0.675251	-0.285206	-0.633599	159.977492	-85.445158	64.313943
48253		9.722465	-0.645984	-1.724095	-1.348579	-0.043688	-0.009854	0.319870	0.006253	-0.028431	-0.848633	0.297607	0.348633	0.097223	-0.006446	-0.017254	0.248468	-0.674811	-0.286326	-0.633175	159.959158	-85.439044	64.517024
48254		9.793657	-0.730286	-1.691876	-1.383757	0.039909	0.056208	0.345909	0.037923	-0.046394	-0.843994	0.315186	0.344971	0.097932	-0.007296	-0.016950	0.249527	-0.674211	-0.287541	-0.632847	159.754486	-85.446710	64.920922
48255		9.936732	-0.457392	-1.643933	-1.157561	-0.115327	0.202157	0.348364	0.074802	-0.058085	-0.855713	0.312988	0.341797	0.099360	-0.004574	-0.016484	0.250613	-0.673473	-0.288762	-0.632648	159.379532	-85.471325	65.497800
48256		9.747062	-0.052151	-1.501646	-0.784582	-0.321841	0.012979	0.305994	0.115641	-0.064428	-0.845703	0.316895	0.333252	0.097462	-0.000530	-0.015074	0.251591	-0.672647	-0.289814	-0.632657	158.822112	-85.516481	66.232571
48257		9.563133	0.040832	-1.356836	-0.632709	-0.304686	-0.179255	0.269210	0.137607	-0.079525	-0.850098	0.314697	0.346680	0.095622	0.000389	-0.013634	0.252435	-0.671774	-0.290778	-0.632807	158.069125	-85.569162	67.143480
48258		9.720807	0.043723	-1.438373	-0.696142	-0.359630	-0.017232	0.272054	0.157682	-0.091326	-0.849609	0.308838	0.335449	0.097197	0.000412	-0.014460	0.253273	-0.670816	-0.291758	-0.633037	157.155298	-85.629207	68.216102
48259		9.568621	0.007772	-1.386290	-0.704087	-0.316145	-0.175018	0.311767	0.183943	-0.092406	-0.849609	0.316406	0.340576	0.095673	0.000055	-0.013951	0.254283	-0.669721	-0.292838	-0.633293	156.151652	-85.701073	69.402365
48260		9.351416	0.111738	-1.354935	-0.628741	-0.390962	-0.392012	0.382174	0.193028	-0.098098	-0.852051	0.315918	0.333252	0.093502	0.001098	-0.013637	0.255519	-0.668496	-0.294142	-0.633485	155.078904	-85.775059	70.697422
48261		9.369072	0.399605	-1.280645	-0.384913	-0.546463	-0.371689	0.439914	0.204234	-0.102799	-0.849609	0.316650	0.328125	0.093680	0.003976	-0.012893	0.256952	-0.667151	-0.295635	-0.633628	153.929186	-85.851438	72.103634
48262		9.442454	0.574419	-1.073642	-0.128326	-0.523475	-0.307316	0.445125	0.209730	-0.088387	-0.854004	0.321045	0.317871	0.094416	0.005726	-0.010823	0.258451	-0.665800	-0.297082	-0.633764	152.814151	-85.932649	73.476993
48263		9.486506	0.561596	-0.871546	-0.011299	-0.375147	-0.277076	0.461749	0.203111	-0.084153	-0.853027	0.317383	0.326904	0.094859	0.005596	-0.008799	0.260013	-0.664449	-0.298581	-0.633837	151.719273	-86.009370	74.840785
48264		9.825653	0.747555	-0.511203	0.362601	-0.227241	0.045328	0.428575	0.202891	-0.086044	-0.849854	0.322754	0.318359	0.098254	0.007444	-0.005196	0.261451	-0.663136	-0.299972	-0.633964	150.540523	-86.083887	76.268245
48265		9.857376	0.640582	-0.144420	0.520273	0.107570	0.052239	0.374147	0.191193	-0.072348	-0.846436	0.317139	0.310547	0.098575	0.006373	-0.001526	0.262738	-0.661948	-0.301166	-0.634108	149.436194	-86.154196	77.590771
48266		10.162930	0.539560	0.148259	0.634636	0.403436	0.337816	0.303829	0.168022	-0.063004	-0.848877	0.328857	0.316406	0.101632	0.005361	0.001405	0.263781	-0.660938	-0.302129	-0.634271	148.416690	-86.214574	78.786764
48267		10.320369	0.265978	0.300190	0.524596	0.704595	0.478046	0.220001	0.142859	-0.051997	-0.854980	0.321289	0.322021	0.103206	0.002630	0.002931	0.264549	-0.660132	-0.302829	-0.634456	147.518498	-86.264412	79.814153
48268		10.269298	0.038248	0.468090	0.457704	0.973574	0.410898	0.163648	0.112880	-0.043926	-0.855957	0.321045	0.313477	0.102696	0.000356	0.004623	0.265105	-0.659508	-0.303355	-0.634621	146.763777	-86.301670	80.664184
48269		10.280591	-0.072080	0.515001	0.398474	1.080588	0.416414	0.125402	0.068452	-0.043897	-0.851807	0.328369	0.310791	0.102808	-0.000747	0.005114	0.265471	-0.659076	-0.303824	-0.634693	146.197074	-86.316774	81.304682
48270		10.260497	-0.272816	0.481698	0.221101	1.190263	0.391167	0.129650	0.026109	-0.036832	-0.853027	0.332520	0.316406	0.102605	-0.002750	0.004802	0.265805	-0.658782	-0.304334	-0.634613	145.888065	-86.314001	81.688527
48271		10.010843	-0.336503	0.369324	0.092386	1.137093	0.145480	0.154916	-0.011904	-0.034974	-0.848633	0.326660	0.308350	0.100108	-0.003385	0.003697	0.266177	-0.658577	-0.304976	-0.634362	145.802234	-86.293469	81.864397
48272		9.893975	0.060594	0.356679	0.375277	0.858670	0.043452	0.184330	-0.044427	-0.039044	-0.845215	0.326172	0.307129	0.098939	0.000583	0.003589	0.266576	-0.658431	-0.305760	-0.633969	145.861398	-86.256455	81.910703
48273		9.845674	0.305321	0.295818	0.516703	0.654475	0.006819	0.158758	-0.078339	-0.034150	-0.848877	0.327881	0.308838	0.098456	0.003034	0.002999	0.266861	-0.658431	-0.306499	-0.633492	146.109496	-86.204696	81.754143
48274		9.671882	0.219633	0.213000	0.400354	0.649175	-0.166072	0.150625	-0.113867	-0.025059	-0.840820	0.335449	0.312256	0.096718	0.002183	0.002187	0.267087	-0.658570	-0.307222	-0.632902	146.574892	-86.139034	81.373960
48275		9.556761	0.349507	0.230242	0.514011	0.579019	-0.278152	0.140232	-0.138812	-0.021537	-0.841309	0.330811	0.309814	0.095566	0.003483	0.002371	0.267258	-0.658804	-0.307941	-0.632236	147.161863	-86.062080	80.867119
48276		9.488508	0.385438	0.123362	0.477700	0.483859	-0.339925	0.126445	-0.166698	-0.006272	-0.852295	0.332031	0.318848	0.094884	0.003851	0.001315	0.267383	-0.659170	-0.308596	-0.631483	147.942702	-85.976126	80.156774
48277		9.415353	0.816789	0.178800	0.846904	0.246038	-0.401514	0.126392	-0.187762	0.008314	-0.847412	0.332764	0.321289	0.094151	0.008171	0.001882	0.267526	-0.659622	-0.309237	-0.630636	148.882116	-85.883349	79.288450
48278		9.251314	1.001288	0.026393	0.895747	0.012636	-0.550532	0.100231	-0.222300	0.034890	-0.845215	0.326172	0.322510	0.092511	0.010029	0.000372	0.267607	-0.660260	-0.309747	-0.629683	150.076740	-85.780316	78.147999
48279		9.435510	1.275234	-0.136189	1.013757	-0.261975	-0.348162	0.093020	-0.256046	0.054754	-0.841797	0.339111	0.322754	0.094353	0.012779	-0.001235	0.267678	-0.661042	-0.310218	-0.628599	151.468520	-85.663917	76.806402
48280		9.598405	1.567206	-0.174298	1.231935	-0.456575	-0.174757	0.063093	-0.274588	0.081262	-0.845703	0.344238	0.321777	0.095980	0.015712	-0.001606	0.267700	-0.661963	-0.310527	-0.627466	153.004173	-85.542878	75.302232
48281		9.517859	1.487263	-0.232761	1.158015	-0.437295	-0.256356	0.066085	-0.305433	0.108478	-0.843018	0.328125	0.317871	0.095174	0.014925	-0.002177	0.267775	-0.663016	-0.310804	-0.626185	154.732615	-85.409408	73.607402
48282		9.733623	1.505119	-0.365755	1.118819	-0.515255	-0.033873	0.056956	-0.345485	0.143252	-0.847656	0.331543	0.328125	0.097332	0.015122	-0.003485	0.267859	-0.664260	-0.310981	-0.624741	156.686929	-85.259180	71.679093
48283		9.953523	0.974714	-0.488921	0.683008	-0.220729	0.174622	0.059514	-0.387997	0.179825	-0.833740	0.347168	0.337646	0.099536	0.009838	-0.004693	0.268004	-0.665686	-0.311107	-0.623096	158.853783	-85.088565	69.539530
48284		10.377358	1.021379	-0.347877	0.867337	-0.093562	0.584069	0.092232	-0.432521	0.202708	-0.833740	0.341797	0.334229	0.103770	0.010321	-0.003250	0.268253	-0.667240	-0.311310	-0.621222	161.122752	-84.891839	67.314672
48285		10.546349	0.204876	-0.221928	0.394656	0.576537	0.714814	0.089165	-0.483973	0.227265	-0.837891	0.347656	0.340576	0.105466	0.002170	-0.001963	0.268492	-0.668990	-0.311496	-0.619140	163.456885	-84.663441	65.022965
48286		10.723592	0.070956	-0.509645	0.165369	0.488814	0.910820	0.102275	-0.503788	0.246088	-0.826904	0.341797	0.342529	0.107247	0.000844	-0.004826	0.268794	-0.670810	-0.311677	-0.616945	165.740551	-84.418960	62.787527
48287		10.159046	0.705899	-0.486564	0.687956	0.059832	0.359043	0.062692	-0.517280	0.273606	-0.818604	0.351563	0.345215	0.101593	0.007199	-0.004601	0.269031	-0.672760	-0.311665	-0.614720	167.977018	-84.162131	60.576805
48288		10.437670	1.308460	-0.654174	1.103655	-0.417241	0.660728	-0.035516	-0.562424	0.329654	-0.823730	0.353027	0.360107	0.104373	0.013256	-0.006251	0.269031	-0.675064	-0.311214	-0.612420	170.304684	-83.877590	58.215711
48289		10.586968	1.283415	-1.057914	0.893763	-0.667155	0.845919	-0.152326	-0.585791	0.381950	-0.810547	0.355225	0.364258	0.105875	0.013028	-0.010279	0.268762	-0.677667	-0.310263	-0.610140	172.635444	-83.574280	55.783868
48290		10.298473	1.319923	-1.283313	0.822248	-0.866716	0.580577	-0.270597	-0.592576	0.406947	-0.816162	0.357666	0.356934	0.102995	0.013392	-0.012546	0.268149	-0.680482	-0.308865	-0.607983	174.805732	-83.258674	53.442873
48291		9.733526	1.254419	-1.318284	0.776244	-0.885444	0.019202	-0.402490	-0.604406	0.436788	-0.808105	0.348633	0.369141	0.097347	0.012731	-0.012914	0.267161	-0.683542	-0.306982	-0.605936	176.838281	-82.927720	51.163993
48292		9.807261	1.288047	-1.255828	0.912946	-0.839680	0.080726	-0.493383	-0.616805	0.458038	-0.811035	0.365723	0.378906	0.098081	0.013075	-0.012288	0.265898	-0.686782	-0.304754	-0.603949	178.719798	-82.581177	48.982138
48293		10.202876	0.693788	-1.408745	0.472166	-0.496457	0.487543	-0.455767	-0.622386	0.439792	-0.813232	0.357666	0.381348	0.102056	0.007131	-0.013786	0.264698	-0.689945	-0.302711	-0.601894	-179.638220	-82.222862	47.062887
48294		10.504245	-0.215189	-1.609407	-0.236294	0.025933	0.813635	-0.371380	-0.602116	0.333419	-0.805664	0.371094	0.387207	0.105094	-0.002006	-0.015774	0.263492	-0.692765	-0.301250	-0.599915	-178.530297	-81.871376	45.729117
48295		10.184482	-2.066050	-2.227004	-1.977977	0.832409	0.596256	-0.159721	-0.564307	0.263077	-0.801025	0.364258	0.397217	0.101934	-0.020544	-0.021966	0.262866	-0.695075	-0.300622	-0.597829	-177.669772	-81.539577	44.767959
48296		9.711298	-1.999410	-2.220302	-1.919816	0.771484	0.134953	0.071241	-0.531105	0.164505	-0.794678	0.368652	0.396729	0.097188	-0.019906	-0.021952	0.262791	-0.696829	-0.300972	-0.595639	-177.106344	-81.227858	44.239142
48297		9.498829	-1.853127	-2.200230	-1.776681	0.689029	-0.072499	0.186845	-0.505131	0.118289	-0.797363	0.371826	0.405762	0.095054	-0.018455	-0.021780	0.263022	-0.698278	-0.301799	-0.593418	-176.675562	-80.931539	43.912271
48298		9.358737	-0.997876	-1.941161	-0.950541	0.304340	-0.254785	0.254384	-0.479649	0.083675	-0.794434	0.370117	0.401123	0.093638	-0.009915	-0.019200	0.263419	-0.699506	-0.302903	-0.591228	-176.344950	-80.650892	43.724754
48299		9.308204	-0.625091	-1.584934	-0.406585	0.329280	-0.364327	0.214641	-0.465708	0.074185	-0.788330	0.377686	0.411621	0.093121	-0.006200	-0.015639	0.263672	-0.700725	-0.303910	-0.589152	-176.080620	-80.378186	43.582325
48300		9.250918	-0.815252	-1.564719	-0.503967	0.490914	-0.421344	0.171994	-0.459069	0.074126	-0.789063	0.371094	0.411377	0.092548	-0.008105	-0.015442	0.263779	-0.701977	-0.304774	-0.587164	-175.850232	-80.109414	43.448305
48301		9.260227	-0.706155	-1.595901	-0.407866	0.421169	-0.407717	0.141744	-0.457902	0.063648	-0.781494	0.374512	0.403076	0.092641	-0.007021	-0.015752	0.263755	-0.703244	-0.305589	-0.585233	-175.679594	-79.841435	43.358308
48302		9.429573	-0.472846	-1.690301	-0.241455	0.242205	-0.227260	0.109735	-0.453995	0.063105	-0.784668	0.377197	0.412598	0.094335	-0.004690	-0.016691	0.263616	-0.704538	-0.306298	-0.583365	-175.534593	-79.575908	43.274594
48303		9.772138	0.181880	-1.565221	0.405197	-0.038246	0.077301	0.108251	-0.426617	0.065848	-0.781494	0.382813	0.423096	0.097754	0.001859	-0.015443	0.263526	-0.705752	-0.306964	-0.581585	-175.380914	-79.325629	43.182447
48304		9.927605	0.704936	-1.061851	1.175959	0.021566	0.127049	0.070990	-0.348422	0.038285	-0.781982	0.379395	0.413086	0.099293	0.007072	-0.010443	0.263337	-0.706745	-0.307506	-0.580177	-175.316889	-79.121480	43.158432
48305		10.361469	1.277840	-0.078375	2.326830	0.430846	0.355855	0.018276	-0.211304	-0.033474	-0.782227	0.375244	0.418213	0.103618	0.012761	-0.000673	0.262970	-0.707295	-0.307976	-0.579422	-175.461906	-78.998737	43.317857
48306		10.448982	0.888818	0.539282	2.461672	1.169245	0.328076	0.001625	-0.054113	-0.096200	-0.789307	0.378906	0.429932	0.104493	0.008838	0.005421	0.262599	-0.707318	-0.308405	-0.579336	-175.761712	-78.968639	43.623995
48307		10.568800	0.278124	0.919521	2.266751	1.881266	0.382658	0.086994	0.066508	-0.135353	-0.780762	0.377930	0.418701	0.105693	0.002706	0.009161	0.262607	-0.706815	-0.309067	-0.579593	-176.101719	-79.008592	44.022031
48308		11.371875	0.687926	1.406503	2.978914	2.071466	1.077954	0.163512	0.182979	-0.169631	-0.780762	0.378662	0.422119	0.113737	0.006771	0.013967	0.262960	-0.705823	-0.309913	-0.580190	-176.480903	-79.116084	44.503405
48309		11.464650	1.139103	1.491384	3.346756	1.842567	1.158365	0.179612	0.312330	-0.231775	-0.782227	0.380371	0.420654	0.114683	0.011245	0.014745	0.263395	-0.704333	-0.310860	-0.581295	-177.026457	-79.298792	45.164490
48310		10.637643	1.141344	1.565898	3.243125	1.781410	0.347167	0.169337	0.405038	-0.273815	-0.785889	0.375488	0.419434	0.106423	0.011255	0.015453	0.263809	-0.702520	-0.311794	-0.582799	-177.717195	-79.534381	45.965639
48311		10.525131	1.665409	1.564957	3.567620	1.408303	0.251583	0.149218	0.467463	-0.294806	-0.788818	0.376953	0.413330	0.105312	0.016487	0.015416	0.264191	-0.700512	-0.312666	-0.584574	-178.515655	-79.804223	46.864954
48312		10.606268	1.883217	1.395819	3.573541	1.136495	0.381702	0.063340	0.525285	-0.301153	-0.792725	0.358154	0.407227	0.106127	0.018668	0.013685	0.264337	-0.698434	-0.313223	-0.586691	-179.428493	-80.104782	47.828613
48313		10.218640	1.623856	1.159076	3.120024	1.067168	0.062898	0.002457	0.577883	-0.322860	-0.800781	0.361084	0.398193	0.102245	0.016073	0.011296	0.264291	-0.696239	-0.313610	-0.589110	179.489116	-80.432644	48.928873
48314		9.784942	1.703497	1.042831	2.993725	0.853947	-0.323617	-0.041666	0.617187	-0.342328	-0.802490	0.358398	0.387939	0.097910	0.016870	0.010123	0.264088	-0.693951	-0.313874	-0.591754	178.232131	-80.778818	50.178497
48315		9.496875	1.726485	0.885013	2.814138	0.664986	-0.561059	-0.102943	0.641762	-0.354897	-0.814697	0.351318	0.383789	0.095027	0.017101	0.008536	0.263676	-0.691638	-0.313970	-0.594587	176.790523	-81.134063	51.579363
48316		9.431757	1.658426	0.772249	2.618016	0.596060	-0.587989	-0.138614	0.654383	-0.362223	-0.817627	0.357178	0.378662	0.094372	0.016419	0.007402	0.263130	-0.689318	-0.313958	-0.597523	175.179848	-81.490042	53.128138
48317		9.405381	1.339666	0.607167	2.202474	0.659960	-0.574849	-0.156241	0.655911	-0.377819	-0.822021	0.348633	0.377930	0.094098	0.013224	0.005753	0.262481	-0.686977	-0.313948	-0.600503	173.358605	-81.839113	54.879335
48318		9.458183	1.050184	0.374332	1.769190	0.664816	-0.478461	-0.138814	0.659705	-0.390662	-0.820801	0.344238	0.370605	0.094614	0.010320	0.003424	0.261849	-0.684576	-0.314017	-0.603477	171.336625	-82.180402	56.840568
48319		9.633240	0.926591	0.080783	1.425961	0.528885	-0.254924	-0.109424	0.664612	-0.394610	-0.826904	0.341553	0.368896	0.096352	0.009076	0.000483	0.261315	-0.682100	-0.314185	-0.606417	169.130311	-82.514095	59.004331
48320		9.608754	0.899521	-0.122960	1.197730	0.372787	-0.243027	-0.080515	0.664872	-0.409445	-0.835938	0.334473	0.364502	0.096101	0.008798	-0.001553	0.260826	-0.679557	-0.314478	-0.609324	166.677401	-82.833898	61.430661
48321		9.481406	0.921571	-0.300676	1.016824	0.192623	-0.338235	-0.074140	0.667885	-0.412567	-0.835938	0.334229	0.356201	0.094822	0.009019	-0.003327	0.260355	-0.676976	-0.314799	-0.612225	163.985058	-83.141016	64.101277
48322		9.461567	0.724255	-0.382133	0.743200	0.241876	-0.347989	-0.067177	0.662979	-0.416960	-0.844727	0.325928	0.352295	0.094617	0.007044	-0.004137	0.259877	-0.674390	-0.315151	-0.615095	161.043025	-83.428039	67.024620
48323		9.473668	0.576654	-0.482575	0.495509	0.248040	-0.325418	-0.049913	0.657197	-0.421508	-0.847656	0.326904	0.347168	0.094732	0.005566	-0.005138	0.259435	-0.671775	-0.315582	-0.617916	157.838914	-83.692599	70.221136
48324		9.619381	0.403873	-0.645632	0.192506	0.238812	-0.168108	-0.019908	0.643732	-0.413246	-0.853760	0.311768	0.335205	0.096180	0.003839	-0.006766	0.259090	-0.669172	-0.316083	-0.620623	154.459452	-83.930745	73.608672
48325		9.737358	0.321459	-0.775622	-0.022850	0.190612	-0.041108	0.016015	0.634424	-0.410504	-0.874756	0.321045	0.331543	0.097355	0.003015	-0.008065	0.258860	-0.666540	-0.316701	-0.623231	150.873504	-84.142503	77.224189
48326		9.677142	0.363270	-0.914335	-0.155351	0.035038	-0.086986	0.033271	0.629184	-0.399712	-0.864746	0.304688	0.328857	0.096749	0.003441	-0.009447	0.258704	-0.663916	-0.317332	-0.625771	147.117185	-84.330176	81.018494
48327		9.514447	0.507701	-1.027123	-0.192630	-0.179791	-0.233146	0.037708	0.615695	-0.379587	-0.866455	0.310547	0.323242	0.095122	0.004898	-0.010563	0.258607	-0.661345	-0.317930	-0.628224	143.263264	-84.492580	84.913432
48328		9.297669	0.486351	-1.080675	-0.309680	-0.245404	-0.448150	0.015446	0.602317	-0.360037	-0.867676	0.303711	0.317139	0.092952	0.004697	-0.011086	0.258467	-0.658874	-0.318400	-0.630636	139.329309	-84.629704	88.873811
48329		9.227747	0.337675	-1.084726	-0.483667	-0.175952	-0.529544	0.009001	0.587844	-0.331889	-0.872070	0.299561	0.318115	0.092250	0.003224	-0.011118	0.258375	-0.656488	-0.318779	-0.632966	135.388858	-84.745677	92.837297
48330		9.252732	0.183527	-1.227556	-0.751397	-0.197727	-0.509482	0.003209	0.572987	-0.310263	-0.880615	0.291992	0.307617	0.092494	0.001692	-0.012541	0.258299	-0.654189	-0.319078	-0.635222	131.453598	-84.839222	96.790459
48331		9.277544	-0.032222	-1.376641	-1.067107	-0.184409	-0.496251	0.009378	0.563535	-0.283401	-0.880127	0.289063	0.303467	0.092736	-0.000453	-0.014028	0.258316	-0.651944	-0.319322	-0.637397	127.545027	-84.916486	100.720704
48332		9.348398	-0.087623	-1.464074	-1.220678	-0.228470	-0.431791	0.019888	0.546265	-0.263139	-0.890869	0.283936	0.295898	0.093442	-0.000998	-0.014896	0.258397	-0.649772	-0.319548	-0.639466	123.712588	-84.973534	104.579295
48333		9.267977	-0.068714	-1.542138	-1.307252	-0.328495	-0.514234	0.021253	0.539382	-0.239026	-0.888672	0.280762	0.288086	0.092637	-0.000796	-0.015671	0.258551	-0.647648	-0.319711	-0.641474	119.924220	-85.017516	108.394988
48334		9.166416	-0.014962	-1.580988	-1.337863	-0.424142	-0.617421	0.013944	0.520975	-0.220101	-0.895020	0.277344	0.287109	0.091622	-0.000249	-0.016049	0.258706	-0.645622	-0.319806	-0.643403	116.249978	-85.044371	112.090861
48335		9.094175	-0.077315	-1.706368	-1.510366	-0.505213	-0.697588	-0.005185	0.514484	-0.191310	-0.898193	0.278076	0.282227	0.090897	-0.000861	-0.017298	0.258884	-0.643678	-0.319757	-0.645301	112.649064	-85.064290	115.702850
48336		8.986072	-0.022063	-1.817552	-1.581212	-0.656769	-0.805929	-0.026243	0.502330	-0.162560	-0.900146	0.276123	0.278320	0.089814	-0.000296	-0.018401	0.259061	-0.641847	-0.319555	-0.647151	109.164101	-85.077904	119.185407
48337		8.915186	0.043002	-1.863798	-1.599758	-0.764004	-0.878874	-0.074191	0.492723	-0.122782	-0.894531	0.267090	0.273682	0.089106	0.000368	-0.018858	0.259200	-0.640164	-0.319087	-0.648991	105.775323	-85.093565	122.544627
48338		8.789600	-0.026773	-1.866234	-1.684224	-0.753577	-1.018600	-0.137326	0.485342	-0.089963	-0.895264	0.268066	0.270264	0.087850	-0.000320	-0.018875	0.259226	-0.638639	-0.318311	-0.650861	102.439296	-85.109633	125.813665
48339		8.614779	-0.212865	-1.912277	-1.878895	-0.701183	-1.216497	-0.197359	0.472876	-0.062175	-0.897949	0.263428	0.276123	0.086102	-0.002174	-0.019324	0.259133	-0.637269	-0.317269	-0.652747	99.167809	-85.123773	128.983982
48340		8.469389	-0.252148	-1.845588	-1.887356	-0.658500	-1.374413	-0.259809	0.451378	-0.035415	-0.904541	0.258545	0.272461	0.084652	-0.002561	-0.018644	0.258888	-0.636092	-0.315959	-0.654624	96.017167	-85.136476	131.996395
48341		8.426039	-0.387558	-1.871315	-2.031335	-0.612434	-1.437208	-0.320869	0.431182	-0.004630	-0.907959	0.267578	0.264648	0.084220	-0.003908	-0.018888	0.258518	-0.635103	-0.314378	-0.656490	92.969615	-85.151882	134.870433
48342		8.577292	-0.786988	-2.032854	-2.470067	-0.476742	-1.327808	-0.371765	0.404318	0.021766	-0.905518	0.264893	0.255127	0.085732	-0.007899	-0.020487	0.258027	-0.634306	-0.312576	-0.658311	90.065577	-85.169490	137.570848
48343		8.796347	-1.068881	-2.103920	-2.762398	-0.346903	-1.141272	-0.357229	0.375542	0.043724	-0.907471	0.260010	0.256104	0.087926	-0.010707	-0.021185	0.257612	-0.633612	-0.310792	-0.659985	87.343514	-85.188760	140.097655
48344		8.746259	-0.917933	-1.949566	-2.564413	-0.356704	-1.185002	-0.362870	0.353422	0.064342	-0.914307	0.259521	0.256104	0.087431	-0.009187	-0.019634	0.257207	-0.633030	-0.308946	-0.661567	84.741360	-85.210902	142.500083
48345		8.746069	-1.063948	-1.957815	-2.694020	-0.282409	-1.203321	-0.358660	0.318220	0.086272	-0.912354	0.256348	0.255371	0.087434	-0.010637	-0.019698	0.256835	-0.632586	-0.307091	-0.662997	82.342440	-85.238955	144.701470
48346		8.817669	-1.134510	-1.965845	-2.769345	-0.254413	-1.142687	-0.324482	0.282832	0.106220	-0.906738	0.250244	0.254639	0.088155	-0.011330	-0.019765	0.256579	-0.632245	-0.305327	-0.664236	80.157548	-85.274093	146.707075
48347		8.953798	-1.085610	-2.088082	-2.836819	-0.388109	-1.008659	-0.297319	0.247992	0.130473	-0.909424	0.260986	0.247559	0.089519	-0.010829	-0.020976	0.256436	-0.632018	-0.303621	-0.665287	78.163656	-85.320565	148.536862
48348		9.047277	-0.885421	-2.067547	-2.690438	-0.523876	-0.902075	-0.272957	0.211556	0.167117	-0.906494	0.267090	0.245117	0.090458	-0.008807	-0.020759	0.256434	-0.631936	-0.301925	-0.666138	76.336457	-85.387094	150.212936
48349		8.958707	-1.040809	-2.082980	-2.808476	-0.450194	-1.004153	-0.251912	0.169131	0.211621	-0.912598	0.256348	0.243896	0.089580	-0.010340	-0.020893	0.256587	-0.632031	-0.300215	-0.666762	74.683031	-85.480323	151.727370
48350		8.943993	-1.031618	-2.102476	-2.810435	-0.489443	-1.018285	-0.198094	0.131825	0.239325	-0.907227	0.262695	0.238037	0.089438	-0.010230	-0.021074	0.256941	-0.632222	-0.298641	-0.667151	73.199789	-85.591301	153.101040
48351		8.877037	-1.013742	-2.050556	-2.748478	-0.484952	-1.080855	-0.123206	0.081258	0.266043	-0.912354	0.259521	0.249023	0.088775	-0.010032	-0.020535	0.257549	-0.632523	-0.297299	-0.667230	71.992282	-85.723146	154.241705
48352		8.597997	-0.991865	-1.988665	-2.657751	-0.482011	-1.352893	-0.037102	0.025564	0.280851	-0.915283	0.270752	0.244141	0.085991	-0.009802	-0.019896	0.258390	-0.632921	-0.296265	-0.666987	71.138035	-85.871416	155.076700
48353		8.502874	-1.159191	-2.020082	-2.775790	-0.408362	-1.454967	0.046584	-0.030342	0.292986	-0.911865	0.270508	0.253418	0.085049	-0.011463	-0.020191	0.259458	-0.633414	-0.295547	-0.666424	70.673401	-86.036226	155.569605
48354		8.653941	-1.197554	-2.226680	-2.933162	-0.542754	-1.304760	0.151766	-0.082217	0.304265	-0.898193	0.281006	0.252197	0.086567	-0.011827	-0.022240	0.260815	-0.633958	-0.295207	-0.665527	70.616140	-86.216614	155.713912
48355		8.586551	-1.035533	-2.220687	-2.781573	-0.667991	-1.354013	0.248982	-0.115339	0.305692	-0.904053	0.269043	0.258545	0.085894	-0.010196	-0.022170	0.262439	-0.634486	-0.295230	-0.664374	70.889568	-86.404325	155.583203
48356		8.269922	-0.678665	-2.071653	-2.373520	-0.828479	-1.638101	0.313184	-0.154410	0.311553	-0.901367	0.284912	0.253174	0.082726	-0.006625	-0.020663	0.264223	-0.635065	-0.295496	-0.662994	71.557972	-86.602072	155.093089
48357		8.200611	-0.677636	-2.005371	-2.291452	-0.796072	-1.698124	0.356178	-0.190025	0.324992	-0.898193	0.275635	0.254150	0.082036	-0.006607	-0.019988	0.266136	-0.635722	-0.295908	-0.661413	72.634928	-86.813262	154.218895
48358		11.360954	-0.627721	0.821578	-0.446783	1.295708	1.512581	0.526027	-0.144631	0.354482	-0.902588	0.290039	0.254395	0.113614	-0.006098	0.008282	0.268750	-0.636040	-0.296723	-0.659683	73.372689	-87.031869	153.781658
48359		13.071803	3.006793	3.387701	3.907337	0.738876	3.437826	0.511615	0.024114	0.268559	-0.898193	0.289551	0.248291	0.130682	0.030157	0.033938	0.271284	-0.635689	-0.297536	-0.658617	72.590924	-87.175470	154.858087
48360		11.983176	-0.408560	3.433114	1.484362	3.045135	2.190374	0.402100	0.138232	0.233803	-0.892578	0.293457	0.249023	0.119860	-0.004014	0.034240	0.273522	-0.635052	-0.297941	-0.658123	70.468193	-87.277701	157.213723
48361		11.838875	-1.414822	2.149565	-0.113606	2.743087	1.987473	0.710487	0.084297	0.355847	-0.890869	0.299805	0.251465	0.118423	-0.014014	0.021396	0.277060	-0.634348	-0.299045	-0.656820	68.418003	-87.452380	159.673816
48362		14.396957	7.510780	-2.059946	3.673925	-6.298377	4.841956	1.439215	-0.137695	0.227610	-0.888672	0.302979	0.247803	0.143898	0.075417	-0.019958	0.282143	-0.633148	-0.303245	-0.653882	69.960052	-87.602703	158.955470
48363		15.881984	12.647180	-2.754098	7.161235	-10.089621	6.517877	0.982477	-0.301688	0.013722	-0.888672	0.310059	0.246826	0.158852	0.126615	-0.026680	0.284823	-0.632780	-0.306848	-0.651390	74.540564	-87.663372	154.934490
48364		12.240831	6.933579	-3.477620	2.597150	-6.922244	2.650979	0.254224	-0.471963	0.321025	-0.893799	0.309814	0.251221	0.122378	0.069576	-0.034399	0.285932	-0.634462	-0.307344	-0.649030	80.577322	-87.901423	149.038758
48365		8.933907	1.971297	-3.868953	-1.245719	-4.053404	-0.830091	0.252886	-0.569189	0.558915	-0.885498	0.319336	0.254639	0.089393	0.020011	-0.038410	0.287656	-0.636820	-0.307218	-0.646012	89.709314	-88.248522	140.046846
48366		8.429312	-0.172529	-2.691329	-2.032780	-1.772575	-1.383473	0.287847	-0.630472	0.475146	-0.891846	0.330322	0.254639	0.084381	-0.001486	-0.026650	0.289120	-0.639184	-0.307552	-0.642857	103.688067	-88.477118	126.227219
48367		9.383825	-3.985300	-1.898869	-4.386230	1.314775	-0.508042	0.413344	-0.633951	0.434907	-0.881836	0.332764	0.258789	0.093984	-0.039610	-0.018773	0.290848	-0.641305	-0.308422	-0.639540	120.809213	-88.568804	109.337844
48368		9.815304	-4.168269	-1.460769	-4.189536	1.773169	-0.058107	0.694375	-0.537837	0.422340	-0.867676	0.332031	0.267334	0.098280	-0.041425	-0.014488	0.293576	-0.642676	-0.310079	-0.636106	136.978657	-88.560687	93.561123
48369		9.637963	-2.522575	-0.529380	-2.277239	1.434527	-0.205913	0.549211	-0.408800	0.336631	-0.876953	0.340820	0.271729	0.096433	-0.025049	-0.005166	0.295762	-0.643706	-0.311359	-0.633421	148.827272	-88.486120	82.023744
48370		9.527819	-1.728515	-0.392985	-1.534946	1.037399	-0.300108	0.234261	-0.318333	0.272534	-0.864990	0.358154	0.267090	0.095308	-0.017151	-0.003798	0.296867	-0.644808	-0.311707	-0.631611	157.138783	-88.390809	73.843191
48371		10.059505	-1.721974	-1.286935	-2.051585	0.357230	0.260957	-0.020460	-0.239629	0.259723	-0.872559	0.347656	0.275391	0.100633	-0.017090	-0.012747	0.297235	-0.646017	-0.311178	-0.630462	163.613255	-88.307313	67.354803
48372		10.158674	-3.085768	-2.318092	-3.726410	0.421914	0.386820	-0.124130	-0.169229	0.230497	-0.875000	0.358643	0.262939	0.101642	-0.030755	-0.023076	0.297281	-0.647110	-0.310306	-0.629748	168.570540	-88.241278	62.323880
48373		9.599415	-4.287906	-2.950895	-5.044671	0.673534	-0.151408	0.117115	-0.089068	0.110005	-0.872803	0.347168	0.273926	0.096031	-0.042809	-0.029491	0.297857	-0.647405	-0.310469	-0.629092	170.924963	-88.198195	60.036094
48374		9.822030	-2.283076	-2.596557	-3.252403	-0.316106	0.074110	0.437566	-0.029604	-0.016848	-0.870850	0.355713	0.268555	0.098222	-0.022782	-0.026001	0.299158	-0.646836	-0.311956	-0.628324	170.947690	-88.176344	60.263949
48375		10.022977	-0.196470	-2.033151	-1.267774	-1.185312	0.267995	0.550049	0.009794	-0.089836	-0.864014	0.352295	0.269287	0.100228	-0.001954	-0.020342	0.300657	-0.645859	-0.313976	-0.627607	169.644315	-88.169066	61.883810
48376		9.863638	0.897904	-1.564893	-0.121663	-1.503979	0.100421	0.555201	0.033408	-0.101776	-0.866211	0.360352	0.270264	0.098638	0.008972	-0.015640	0.302166	-0.644775	-0.316008	-0.626977	168.047727	-88.172975	63.799242
48377		9.712886	1.462243	-1.007288	0.664015	-1.414162	-0.063218	0.481670	0.037252	-0.096239	-0.867188	0.352783	0.272705	0.097134	0.014600	-0.010056	0.303463	-0.643795	-0.317789	-0.626457	166.496354	-88.177486	65.628054
48378		9.665526	1.334849	-0.784239	0.698817	-1.156370	-0.117653	0.371050	0.029167	-0.058622	-0.869629	0.356201	0.263184	0.096658	0.013335	-0.007832	0.304503	-0.643064	-0.319108	-0.626033	165.554870	-88.181994	66.782477
48379		9.757733	0.775991	-0.830519	0.228813	-0.846510	-0.028192	0.311772	0.028331	-0.033272	-0.867676	0.359619	0.258301	0.097577	0.007757	-0.008307	0.305433	-0.642466	-0.320164	-0.625654	165.033488	-88.188678	67.483244
48380		9.451224	0.547621	-0.804672	0.059546	-0.696366	-0.337216	0.308020	0.033176	-0.012307	-0.864258	0.363281	0.259033	0.094511	0.005483	-0.008054	0.306421	-0.641889	-0.321130	-0.625269	164.837789	-88.201603	67.855372
48381		9.372968	0.998906	-0.385147	0.673547	-0.639161	-0.424584	0.300798	0.018171	0.013170	-0.858398	0.362793	0.268311	0.093729	0.010001	-0.003845	0.307445	-0.641410	-0.322019	-0.624800	165.169650	-88.209448	67.696586
48382		9.717012	1.294401	0.001529	1.150502	-0.499695	-0.090422	0.217658	0.008804	0.045699	-0.860107	0.367188	0.256104	0.097167	0.012966	0.000025	0.308284	-0.641138	-0.322552	-0.624391	166.066621	-88.217241	66.923708
48383		9.623076	0.574416	0.237215	0.722277	0.117465	-0.197370	0.137123	-0.006897	0.080082	-0.860596	0.365234	0.265625	0.096228	0.005781	0.002379	0.308950	-0.641096	-0.322752	-0.624001	167.618161	-88.219648	65.450654
48384		9.702258	0.155019	0.322381	0.448107	0.436946	-0.124032	0.099700	-0.036761	0.111384	-0.863525	0.372070	0.256104	0.097021	0.001603	0.003242	0.309542	-0.641253	-0.322776	-0.623533	169.807514	-88.207890	63.317151
48385		9.996832	-0.078742	0.231268	0.222640	0.509846	0.171641	0.057989	-0.050289	0.124838	-0.863525	0.373047	0.256104	0.099968	-0.000726	0.002338	0.310024	-0.641540	-0.322653	-0.623062	172.225877	-88.186420	60.931517
48386		9.878575	-0.087092	0.047401	0.117589	0.361618	0.059063	0.050902	-0.056595	0.134866	-0.859131	0.376465	0.258789	0.098786	-0.000804	0.000502	0.310500	-0.641871	-0.322480	-0.622573	174.761074	-88.159390	58.423972
48387		9.699235	0.000619	-0.008157	0.166344	0.257818	-0.118304	0.013647	-0.080490	0.133564	-0.856445	0.367676	0.269531	0.096992	0.000071	-0.000043	0.310819	-0.642334	-0.322239	-0.622062	177.202105	-88.114615	55.990385
48388		9.922511	-0.278738	-0.046010	-0.059421	0.401204	0.105554	-0.016429	-0.111397	0.135625	-0.858154	0.383789	0.270996	0.099227	-0.002720	-0.000405	0.310993	-0.642941	-0.321939	-0.621503	179.542255	-88.049503	53.639267
48389		10.152154	-0.860335	-0.093893	-0.530436	0.720592	0.336923	-0.050155	-0.137195	0.130348	-0.849365	0.375977	0.266113	0.101528	-0.008537	-0.000867	0.311002	-0.643674	-0.321595	-0.620918	-178.384527	-87.966040	51.536484
48390		10.243695	-1.084998	0.049828	-0.602695	0.978897	0.424083	-0.034592	-0.165356	0.105533	-0.851318	0.387939	0.269531	0.102442	-0.010796	0.000585	0.310937	-0.644427	-0.321418	-0.620260	-176.880877	-87.865431	50.011769
48391		10.234762	-1.054111	0.172517	-0.486146	1.067681	0.410568	-0.064417	-0.175075	0.073627	-0.850586	0.386230	0.257324	0.102350	-0.010503	0.001818	0.310665	-0.645206	-0.321272	-0.619662	-176.003503	-87.758671	49.097550
48392		9.863719	-1.405702	-0.107518	-0.928445	1.055935	0.051565	-0.109037	-0.174039	0.047898	-0.843506	0.386230	0.271729	0.098641	-0.014034	-0.000982	0.310166	-0.646008	-0.321063	-0.619184	-175.594228	-87.653804	48.625184
48393		9.872575	-1.247122	-0.332006	-0.922928	0.795369	0.069056	-0.110053	-0.169336	0.009682	-0.843262	0.388916	0.271729	0.098729	-0.012468	-0.003230	0.309559	-0.646735	-0.320974	-0.618775	-175.723496	-87.552659	48.692512
48394		9.812968	-1.485687	-0.852663	-1.417884	0.537148	0.032601	-0.146647	-0.157279	-0.008391	-0.849121	0.383057	0.273438	0.098136	-0.014867	-0.008439	0.308790	-0.647452	-0.320804	-0.618498	-176.091987	-87.459709	48.977013
48395		9.874286	-1.175218	-1.129515	-1.328404	0.147324	0.105583	-0.133936	-0.136157	-0.044645	-0.842285	0.390137	0.281006	0.098748	-0.011782	-0.011220	0.307990	-0.648026	-0.320764	-0.618317	-176.860998	-87.379408	49.670898
48396		9.936016	-0.400607	-1.251971	-0.781580	-0.400472	0.171353	-0.196424	-0.103680	-0.074093	-0.844971	0.387695	0.274658	0.099365	-0.004055	-0.012464	0.306942	-0.648546	-0.320569	-0.618393	-177.970511	-87.318538	50.668697
48397		9.703728	-0.223860	-1.090670	-0.552801	-0.372625	-0.068070	-0.247287	-0.082075	-0.100855	-0.850342	0.382568	0.276611	0.097041	-0.002301	-0.010864	0.305687	-0.649035	-0.320277	-0.618653	-179.372245	-87.268807	51.931139
48398		9.797194	0.016023	-0.893861	-0.245855	-0.344283	0.016110	-0.287037	-0.065740	-0.117733	-0.843506	0.384521	0.276123	0.097975	0.000090	-0.008907	0.304270	-0.649504	-0.319885	-0.619062	179.043223	-87.227460	53.352611
48399		9.508963	0.067548	-0.603061	-0.042937	-0.143161	-0.285554	-0.318505	-0.059616	-0.118052	-0.836182	0.377686	0.282959	0.095092	0.000610	-0.006003	0.302766	-0.650001	-0.319393	-0.619532	177.486101	-87.187174	54.729994
48400		9.509954	0.494400	-0.280593	0.485254	-0.137533	-0.299119	-0.318644	-0.070894	-0.119781	-0.839844	0.383057	0.286621	0.095103	0.004883	-0.002780	0.301229	-0.650527	-0.318915	-0.619974	175.953217	-87.139162	56.081727
48401		9.690405	0.720568	-0.055865	0.801027	-0.080300	-0.128774	-0.355745	-0.080468	-0.112555	-0.842041	0.378418	0.286621	0.096908	0.007150	-0.000532	0.299585	-0.651150	-0.318319	-0.620424	174.545738	-87.083749	57.287843
48402		9.530987	0.529914	0.210249	0.807164	0.250989	-0.302156	-0.345175	-0.089693	-0.098616	-0.838379	0.379883	0.294678	0.095312	0.005256	0.002136	0.297996	-0.651804	-0.317716	-0.620811	173.350983	-87.023127	58.285910
48403		9.444969	0.879422	0.472929	1.240805	0.246829	-0.399720	-0.324760	-0.112367	-0.079802	-0.838867	0.378662	0.284180	0.094451	0.008764	0.004768	0.296501	-0.652527	-0.317154	-0.621055	172.451610	-86.949470	59.001131
48404		9.394427	0.782494	0.377441	1.106677	0.241513	-0.446421	-0.341196	-0.153298	-0.053185	-0.833252	0.383545	0.302002	0.093943	0.007806	0.003833	0.294963	-0.653440	-0.316508	-0.621157	171.911004	-86.854734	59.346513
48405		9.326360	0.739854	0.422011	1.106716	0.312550	-0.518391	-0.301712	-0.198558	-0.021077	-0.838379	0.380859	0.300781	0.093260	0.007395	0.004302	0.293589	-0.654484	-0.315953	-0.620991	171.810742	-86.736319	59.274929
48406		9.569909	1.030444	0.493489	1.396378	0.211900	-0.278869	-0.297850	-0.238122	-0.005694	-0.836182	0.375488	0.311768	0.095693	0.010309	0.005033	0.292204	-0.655667	-0.315408	-0.620673	171.909146	-86.597222	59.005176
48407		9.673734	1.105852	0.742241	1.629923	0.378291	-0.192128	-0.294317	-0.272337	0.006940	-0.822510	0.367432	0.305664	0.096727	0.011073	0.007538	0.290820	-0.656970	-0.314888	-0.620210	172.158388	-86.439163	58.587366
48408		9.497523	0.609044	0.727669	1.249860	0.689695	-0.375236	-0.288023	-0.318055	0.033734	-0.831055	0.376465	0.306885	0.094962	0.006117	0.007419	0.289461	-0.658443	-0.314359	-0.619551	172.663565	-86.257505	57.915563
48409		9.583555	0.593857	0.684011	1.238793	0.691207	-0.291522	-0.253431	-0.380849	0.062564	-0.832275	0.371338	0.312500	0.095820	0.005977	0.007015	0.288211	-0.660103	-0.313938	-0.618580	173.435789	-86.041194	56.996964
48410		9.741093	0.745381	0.513258	1.283605	0.496165	-0.126927	-0.236047	-0.426808	0.086203	-0.830322	0.372070	0.325928	0.097396	0.007502	0.005332	0.287012	-0.661914	-0.313550	-0.617398	174.346336	-85.799726	55.948279
48411		9.649155	0.686417	0.446539	1.227250	0.502982	-0.220115	-0.218738	-0.476487	0.112414	-0.822754	0.381104	0.326172	0.096477	0.006923	0.004688	0.285876	-0.663890	-0.313204	-0.615978	175.384294	-85.529568	54.782408
48412		9.780391	0.736450	0.262097	1.194079	0.366283	-0.080941	-0.210279	-0.526744	0.140344	-0.820557	0.379150	0.334717	0.097791	0.007436	0.002871	0.284769	-0.666046	-0.312854	-0.614338	176.511968	-85.230646	53.529951
48413		10.189119	0.602333	0.223618	1.133810	0.482217	0.322034	-0.171610	-0.585937	0.163547	-0.805664	0.372314	0.340820	0.101879	0.006109	0.002529	0.283772	-0.668359	-0.312635	-0.612396	177.687224	-84.896137	52.252521
48414		10.319969	0.490755	0.134299	1.051222	0.531126	0.452453	-0.117381	-0.627700	0.172865	-0.812256	0.389648	0.344482	0.103191	0.004998	0.001664	0.282910	-0.670731	-0.312599	-0.610216	178.800730	-84.536166	51.066491
48415		10.047900	-0.116072	0.190488	0.664904	0.983777	0.167277	-0.088901	-0.690207	0.203279	-0.813965	0.383545	0.343262	0.100473	-0.001058	0.002252	0.282136	-0.673295	-0.312634	-0.607728	179.959614	-84.138037	49.850651
48416		11.091522	-0.222567	0.575959	0.966350	1.471202	1.155640	-0.064960	-0.759007	0.215970	-0.808594	0.390137	0.350098	0.110895	-0.002104	0.006181	0.281369	-0.676042	-0.312791	-0.604947	-178.960834	-83.698600	48.727329
48417		11.763980	0.366432	0.592514	1.550803	1.208729	1.806685	-0.132648	-0.770419	0.221344	-0.803711	0.383301	0.358154	0.117612	0.003799	0.006376	0.280375	-0.678914	-0.312743	-0.602211	-178.037266	-83.250194	47.722393
48418		10.626082	1.266407	0.395666	2.095898	0.424133	0.680201	-0.288573	-0.773884	0.264511	-0.791504	0.388184	0.365479	0.106228	0.012811	0.004349	0.278963	-0.682072	-0.312071	-0.599641	-177.126853	-82.797331	46.638385
48419		10.093316	2.035940	0.053274	2.487779	-0.346204	0.172975	-0.505595	-0.830623	0.344322	-0.796143	0.385742	0.374756	0.100895	0.020535	0.000900	0.276962	-0.685811	-0.310555	-0.597086	-176.131962	-82.306886	45.343826
48420		10.547294	2.210191	-0.486261	2.390452	-0.787733	0.676896	-0.654585	-0.903635	0.386656	-0.785156	0.388428	0.392090	0.105451	0.022291	-0.004459	0.274448	-0.690020	-0.308534	-0.594440	-175.215268	-81.770466	44.039284
48421		11.687874	2.480213	-0.361784	2.879492	-0.720539	1.766483	-0.705993	-0.961370	0.395687	-0.779053	0.386230	0.392090	0.116845	0.025022	-0.003144	0.271689	-0.694458	-0.306402	-0.591635	-174.451265	-81.197773	42.858540
48422		12.183978	1.855422	0.237522	2.961981	0.232606	2.150577	-0.701356	-0.982932	0.406526	-0.776367	0.400879	0.409180	0.121788	0.018811	0.002908	0.268929	-0.698943	-0.304257	-0.588714	-173.774817	-80.610277	41.766282
48423		11.041187	0.803463	0.552173	2.355896	1.091090	0.963043	-0.578641	-1.028551	0.379359	-0.768799	0.392090	0.412842	0.110366	0.008261	0.006066	0.266438	-0.703329	-0.302620	-0.585458	-173.240697	-79.996536	40.887942
48424		11.159911	0.513463	0.864034	2.472145	1.580568	1.001318	-0.370337	-1.097428	0.371066	-0.763428	0.393066	0.425293	0.111540	0.005358	0.009243	0.264541	-0.707599	-0.301699	-0.581635	-172.724172	-79.343131	40.146992
48425		11.254942	0.871272	0.841424	2.848257	1.391645	1.054236	-0.219775	-1.161515	0.398243	-0.753418	0.391113	0.437500	0.112480	0.008946	0.009058	0.263155	-0.711868	-0.301202	-0.577296	-172.144908	-78.649910	39.429590
48426		10.945911	0.161017	0.439722	2.133327	1.607626	0.812523	-0.083629	-1.197446	0.415719	-0.742188	0.398682	0.446045	0.109427	0.001840	0.005052	0.262233	-0.716061	-0.301063	-0.572583	-171.532049	-77.933627	38.754546
48427		10.895548	0.267662	0.055452	2.068618	1.314406	0.807070	0.094069	-1.193890	0.426735	-0.745850	0.403076	0.450195	0.108944	0.002909	0.001206	0.261973	-0.720000	-0.301377	-0.567576	-170.863794	-77.216817	38.125264
48428		10.435617	-0.180364	-0.389411	1.485937	1.296358	0.443837	0.198504	-1.175571	0.450520	-0.732422	0.409912	0.464355	0.104380	-0.001565	-0.003282	0.262175	-0.723755	-0.301865	-0.562424	-170.141971	-76.506609	37.500601
48429		9.867638	-0.271878	-0.868975	1.113507	0.986008	-0.015445	0.301690	-1.141654	0.474587	-0.740967	0.411133	0.468018	0.098730	-0.002472	-0.008130	0.262857	-0.727287	-0.302500	-0.557184	-169.362243	-75.811248	36.875367
48430		9.230094	-0.616488	-1.602108	0.367095	0.644364	-0.453713	0.344693	-1.109570	0.475597	-0.728271	0.423584	0.468262	0.092402	-0.005918	-0.015519	0.263737	-0.730645	-0.303195	-0.551972	-168.607558	-75.131904	36.299539
48431		8.658323	-0.920186	-2.229311	-0.276742	0.351985	-0.835957	0.369216	-1.096228	0.453746	-0.717773	0.418457	0.476318	0.086724	-0.008965	-0.021835	0.264662	-0.733868	-0.304018	-0.546777	-167.935410	-74.460911	35.823427
48432		8.532153	-1.189662	-2.352110	-0.482711	0.464292	-0.907864	0.327110	-1.080890	0.438336	-0.711670	0.427490	0.484131	0.085473	-0.011671	-0.023079	0.265398	-0.737058	-0.304742	-0.541703	-167.357060	-73.799002	35.416769
48433		8.263283	-1.562589	-2.784595	-0.999635	0.398589	-1.019592	0.245742	-1.055244	0.418814	-0.712891	0.433105	0.494385	0.082811	-0.015419	-0.027428	0.265816	-0.740226	-0.305280	-0.536853	-166.887886	-73.152980	35.075299
48434		7.637995	-1.556365	-2.901948	-1.132417	0.243564	-1.576169	0.153379	-0.986444	0.363012	-0.708984	0.424805	0.489258	0.076550	-0.015403	-0.028654	0.265834	-0.743228	-0.305668	-0.532458	-166.570095	-72.551953	34.834449
48435		7.950836	-0.969074	-2.831990	-0.508980	-0.011711	-1.332388	0.166113	-0.779645	0.218234	-0.700928	0.433594	0.502197	0.079628	-0.009581	-0.028018	0.265830	-0.745421	-0.306354	-0.528989	-166.426241	-72.085268	34.784448
48436		8.680811	0.510871	-1.729295	1.501399	-0.050582	-1.074779	0.138829	-0.444567	-0.022013	-0.699707	0.430176	0.500732	0.086847	0.005111	-0.017096	0.265592	-0.746390	-0.307407	-0.527128	-166.572394	-71.837357	35.021561
48437		8.573461	0.174835	-1.234093	1.541634	0.537380	-1.304319	-0.004041	-0.069182	-0.269637	-0.702881	0.431885	0.508545	0.085741	0.001633	-0.012311	0.264751	-0.746173	-0.308515	-0.527211	-167.066070	-71.830857	35.539725
48438		9.033570	0.062281	-0.153757	2.219958	1.489230	-1.182119	-0.012537	0.273508	-0.438141	-0.702148	0.434082	0.505859	0.090335	0.000425	-0.001661	0.263955	-0.744805	-0.309766	-0.528809	-167.724710	-72.035372	36.224717
48439		10.039213	1.286355	0.837015	3.933494	1.571147	-0.582325	-0.179056	0.597375	-0.594418	-0.705566	0.419678	0.504639	0.100454	0.012572	0.008059	0.262630	-0.742544	-0.310736	-0.532068	-168.654523	-72.437000	37.094358
48440		9.986218	1.952287	1.633810	4.823843	1.679890	-0.862120	-0.380710	0.864940	-0.724385	-0.710693	0.417480	0.483154	0.100001	0.019191	0.015869	0.260613	-0.739619	-0.311284	-0.536793	-169.892069	-72.997934	38.161709
48441		9.951880	2.695456	2.546448	5.836301	1.806054	-1.125695	-0.566477	1.052371	-0.774232	-0.719482	0.400146	0.487305	0.099754	0.026640	0.024864	0.258063	-0.736318	-0.311269	-0.542541	-171.355583	-73.662096	39.351657
48442		10.596920	3.303413	3.366892	6.833214	2.053020	-0.667575	-0.817436	1.157048	-0.747527	-0.732422	0.398926	0.484619	0.106284	0.032773	0.032920	0.254803	-0.733062	-0.310314	-0.549000	-172.995405	-74.373882	40.569941
48443		10.986503	2.874173	3.376608	6.482348	2.350098	-0.178416	-1.025115	1.206970	-0.673286	-0.738037	0.386475	0.476318	0.110162	0.028542	0.032955	0.251051	-0.729992	-0.308439	-0.555833	-174.722722	-75.099797	41.752527
48444		10.767618	2.078407	2.887551	5.419012	2.431152	-0.152417	-1.133033	1.229500	-0.601452	-0.744873	0.375977	0.470947	0.107913	0.020620	0.028095	0.247115	-0.727056	-0.305942	-0.562781	-176.493669	-75.825197	42.911117
48445		10.127548	0.957705	2.195877	3.920321	2.537912	-0.512434	-1.106467	1.231791	-0.535049	-0.758057	0.365234	0.472168	0.101433	0.009425	0.021282	0.243455	-0.724119	-0.303262	-0.569573	-178.246663	-76.541458	44.064633
48446		9.956349	0.456974	1.721221	3.106349	2.462736	-0.507614	-0.968302	1.223668	-0.469832	-0.766113	0.353027	0.467285	0.099677	0.004417	0.016581	0.240443	-0.721092	-0.300717	-0.576005	-179.913472	-77.243363	45.206119
48447		10.081573	0.469188	1.234441	2.695605	2.074789	-0.230952	-0.807304	1.200622	-0.416462	-0.779297	0.350342	0.460938	0.100897	0.004530	0.011720	0.238122	-0.717967	-0.298461	-0.582015	178.496111	-77.925481	46.361855
48448		10.074767	0.406372	0.683530	2.161903	1.679738	-0.084552	-0.646112	1.173153	-0.382295	-0.789063	0.332031	0.445557	0.100793	0.003892	0.006231	0.236420	-0.714750	-0.296561	-0.587613	176.940523	-78.584913	47.572329
48449		9.928717	0.109027	0.181376	1.477207	1.470854	-0.103028	-0.488452	1.138625	-0.357637	-0.787842	0.333252	0.439697	0.099297	0.000916	0.001246	0.235299	-0.711446	-0.295071	-0.592800	175.390682	-79.219398	48.867476
48450		9.893711	-0.189642	-0.247565	0.859578	1.335126	-0.042311	-0.334670	1.104468	-0.346132	-0.799316	0.322266	0.426025	0.098918	-0.002072	-0.003019	0.234693	-0.708058	-0.294017	-0.597600	173.805669	-79.827224	50.284093
48451		10.077694	-0.295525	-0.572050	0.475322	1.164902	0.206818	-0.186531	1.075749	-0.334134	-0.801025	0.323242	0.426514	0.100739	-0.003129	-0.006260	0.234605	-0.704568	-0.293395	-0.602049	172.170866	-80.412890	51.836081
48452		10.159344	-0.323015	-0.782497	0.214196	1.002120	0.330178	-0.053000	1.054771	-0.332327	-0.810791	0.314209	0.415527	0.101545	-0.003401	-0.008360	0.234946	-0.700974	-0.293176	-0.606205	170.431238	-80.977963	53.567866
48453		10.032837	-0.522256	-1.100885	-0.262749	0.861821	0.253579	0.056666	1.042561	-0.338655	-0.824707	0.310547	0.408691	0.100260	-0.005389	-0.011533	0.235635	-0.697249	-0.293323	-0.610149	168.510014	-81.527075	55.545363
48454		9.751742	-0.614253	-1.223678	-0.535021	0.760589	-0.009348	0.158277	1.034580	-0.347768	-0.831787	0.302246	0.395996	0.097441	-0.006302	-0.012746	0.236624	-0.693402	-0.293807	-0.613905	166.356756	-82.058799	57.812258
48455		9.458014	-0.438628	-1.318763	-0.596050	0.486983	-0.284192	0.220327	1.036160	-0.353769	-0.834473	0.303467	0.383789	0.094502	-0.004539	-0.013682	0.237811	-0.689440	-0.294496	-0.617568	163.897237	-82.577861	60.422055
48456		9.386190	-0.568175	-1.444704	-0.872484	0.436118	-0.349167	0.238115	1.028647	-0.345907	-0.835693	0.307129	0.377197	0.093776	-0.005826	-0.014936	0.239060	-0.685478	-0.295207	-0.621147	161.124983	-83.076997	63.353407
48457		9.501476	-0.565963	-1.565684	-1.041633	0.313773	-0.228046	0.236411	1.026400	-0.343297	-0.841064	0.296387	0.360107	0.094923	-0.005804	-0.016151	0.240307	-0.681499	-0.295904	-0.624702	157.930991	-83.556510	66.706481
48458		9.721517	-0.604215	-1.744741	-1.277746	0.188442	-0.002082	0.222699	1.024016	-0.344786	-0.847900	0.285400	0.362549	0.097114	-0.006190	-0.017952	0.241485	-0.677530	-0.296551	-0.628248	154.221211	-84.009415	70.566278
48459		9.794116	-0.726732	-1.943125	-1.595241	0.091585	0.070349	0.197872	1.027199	-0.337189	-0.858154	0.284668	0.358398	0.097827	-0.007413	-0.019941	0.242605	-0.673565	-0.297085	-0.631818	149.924198	-84.436376	74.999581
48460		9.637201	-0.715183	-2.311099	-1.943202	-0.242412	-0.071407	0.173020	1.030356	-0.329719	-0.865723	0.282715	0.338379	0.096239	-0.007290	-0.023613	0.243658	-0.669617	-0.297499	-0.635404	144.956732	-84.829236	80.088196
48461		9.340605	-0.313788	-2.387254	-1.806777	-0.656846	-0.360304	0.114109	1.031025	-0.324797	-0.864014	0.284180	0.338135	0.093276	-0.003276	-0.024355	0.244526	-0.665722	-0.297702	-0.639058	139.196497	-85.178486	85.936125
48462		9.185771	-0.510930	-2.671867	-2.234397	-0.782187	-0.529741	0.053730	1.019115	-0.302985	-0.884277	0.281006	0.320557	0.091712	-0.005241	-0.027188	0.245235	-0.661957	-0.297643	-0.642714	132.753953	-85.475037	92.430741
48463		9.180920	-0.709511	-2.961244	-2.662822	-0.897566	-0.557172	0.050901	1.003781	-0.288237	-0.884521	0.270996	0.317871	0.091649	-0.007220	-0.030075	0.245956	-0.658243	-0.297540	-0.646291	125.662812	-85.708529	99.572433
48464		8.919481	-0.942914	-3.191335	-3.067404	-0.965181	-0.852246	0.087976	0.983036	-0.290394	-0.888916	0.267090	0.302490	0.089023	-0.009544	-0.032355	0.246751	-0.654535	-0.297578	-0.649727	118.057435	-85.862253	107.248671
48465		8.633314	-0.904733	-3.295573	-3.182499	-1.133120	-1.163960	0.145134	0.947298	-0.294737	-0.891357	0.270264	0.296387	0.086162	-0.009150	-0.033371	0.247662	-0.650845	-0.297854	-0.652952	110.301210	-85.928566	115.108228
48466		8.739259	-0.776503	-3.503066	-3.310309	-1.409924	-1.077564	0.196935	0.904593	-0.288570	-0.895508	0.262207	0.289551	0.087222	-0.007856	-0.035433	0.248690	-0.647229	-0.298324	-0.655935	102.821766	-85.915934	122.719484
48467		9.000163	-0.856810	-3.669509	-3.560397	-1.503736	-0.853665	0.256004	0.851116	-0.271211	-0.898682	0.260254	0.279297	0.089833	-0.008643	-0.037089	0.249883	-0.643722	-0.298992	-0.658623	95.973783	-85.840674	129.732362
48468		9.050543	-0.493795	-3.509661	-3.252261	-1.685511	-0.809620	0.310063	0.782093	-0.243136	-0.901123	0.257568	0.275391	0.090361	-0.004993	-0.035458	0.251231	-0.640407	-0.299827	-0.660957	90.027974	-85.723762	135.872182
48469		9.056807	-0.610653	-3.474328	-3.364135	-1.623306	-0.839579	0.326362	0.703161	-0.190248	-0.896729	0.257813	0.267090	0.090439	-0.006136	-0.035071	0.252686	-0.637399	-0.300641	-0.662938	85.012379	-85.596488	141.089697
48470		9.137865	-0.849355	-3.501485	-3.603238	-1.517746	-0.801852	0.380236	0.620460	-0.146846	-0.903320	0.253906	0.263672	0.091263	-0.008494	-0.035314	0.254327	-0.634655	-0.301595	-0.664508	80.890967	-85.468801	145.441941
48471		8.977479	-1.010737	-3.559460	-3.784740	-1.498432	-0.996983	0.427113	0.537391	-0.119601	-0.903320	0.240967	0.261719	0.089673	-0.010085	-0.035857	0.256079	-0.632158	-0.302720	-0.665702	77.570798	-85.343587	149.018200
48472		8.734844	-0.897783	-3.672194	-3.789440	-1.707915	-1.250473	0.467014	0.443043	-0.079756	-0.905029	0.244873	0.248535	0.087263	-0.008927	-0.036936	0.257943	-0.629980	-0.303969	-0.666478	75.018896	-85.238961	151.846988
48473		8.449246	-0.762397	-3.772892	-3.754532	-1.921562	-1.541249	0.474114	0.354240	-0.034418	-0.906982	0.253906	0.251709	0.084424	-0.007549	-0.037896	0.259843	-0.628151	-0.305209	-0.666900	73.071011	-85.164252	154.073862
48474		8.360471	-0.836151	-4.005669	-3.965831	-2.079508	-1.652434	0.471332	0.265613	0.022813	-0.902344	0.255859	0.250732	0.083552	-0.008257	-0.040187	0.261788	-0.626704	-0.306374	-0.666966	71.628167	-85.130751	155.792684
48475		8.205069	-0.918048	-4.120600	-4.089413	-2.146409	-1.824266	0.483182	0.186795	0.058842	-0.906006	0.249023	0.241455	0.082015	-0.009057	-0.041305	0.263768	-0.625555	-0.307567	-0.666716	70.629610	-85.128347	157.072394
48476		8.218553	-1.047789	-4.167458	-4.209162	-2.123440	-1.826195	0.492260	0.114348	0.084834	-0.902832	0.262207	0.243408	0.082166	-0.010340	-0.041747	0.265749	-0.624672	-0.308802	-0.666186	70.035512	-85.152386	157.951461
48477		8.280104	-0.849236	-4.238942	-4.100889	-2.334565	-1.751522	0.520150	0.048547	0.094031	-0.906494	0.252441	0.237549	0.082795	-0.008343	-0.042431	0.267745	-0.623981	-0.310187	-0.665391	69.847865	-85.193923	158.438617
48478		8.165058	-0.613451	-4.149827	-3.837869	-2.451654	-1.842391	0.520734	-0.020382	0.117576	-0.904053	0.257568	0.247559	0.081658	-0.005978	-0.041506	0.269713	-0.623550	-0.311590	-0.664343	70.043583	-85.261551	158.541378
48479		11.072389	-0.669366	-3.230464	-3.467854	-1.655798	1.082905	0.514367	-0.119176	0.183048	-0.903809	0.270020	0.238525	0.110749	-0.006509	-0.032256	0.271721	-0.623555	-0.312898	-0.662904	70.739788	-85.383776	158.138105
48480		9.058833	-1.160206	-4.581083	-4.529388	-2.428151	-0.981873	0.579501	-0.317402	0.284054	-0.905518	0.267822	0.245605	0.090677	-0.011341	-0.045700	0.273955	-0.624279	-0.314374	-0.660601	72.658102	-85.595653	156.546659
48481		8.042915	-0.891225	-2.378032	-2.765079	-0.978460	-1.904811	0.759014	-0.419763	0.345914	-0.906738	0.264648	0.245117	0.080494	-0.008683	-0.023645	0.276788	-0.625183	-0.316385	-0.657598	75.510950	-85.852615	154.121775
48482		14.449412	6.156808	-0.246378	3.616318	-3.699848	5.019213	0.505010	-0.266882	0.283654	-0.898682	0.272217	0.250732	0.144410	0.061779	-0.002115	0.278860	-0.625825	-0.317538	-0.655553	77.413052	-86.046369	152.504749
48483		13.352195	4.883749	-0.001468	2.934616	-2.707266	3.832481	0.415927	-0.186058	0.210079	-0.904785	0.272949	0.250732	0.133470	0.048977	0.000211	0.280535	-0.626207	-0.318514	-0.653998	78.881797	-86.186103	151.271005
48484		12.473314	4.052763	-0.545587	2.058289	-2.596230	2.888838	0.559755	-0.343095	0.191035	-0.896484	0.273438	0.245850	0.124703	0.040661	-0.005128	0.282349	-0.626863	-0.320237	-0.651744	81.940985	-86.326499	148.526445
48485		14.367885	2.703798	-2.517152	-0.256350	-3.164351	4.678792	0.527070	-0.499961	0.313028	-0.891113	0.286621	0.255859	0.143698	0.027328	-0.024741	0.284200	-0.628265	-0.321689	-0.648868	86.587939	-86.533243	144.172629
48486		12.727883	1.543371	-3.869823	-1.831437	-3.512585	2.980409	0.548352	-0.510259	0.325570	-0.901611	0.301514	0.253418	0.127351	0.015746	-0.038330	0.286139	-0.629677	-0.323180	-0.645899	91.882103	-86.722987	139.183793
48487		10.292857	-0.015450	-3.353590	-2.530891	-2.209394	0.478205	0.503372	-0.486767	0.300949	-0.898438	0.301514	0.249756	0.103010	0.000084	-0.033285	0.287891	-0.631031	-0.324566	-0.643099	97.459242	-86.871078	133.886714
48488		9.376324	-1.346669	-2.351013	-2.846961	-0.623873	-0.498098	0.469532	-0.477226	0.297319	-0.885010	0.289307	0.260986	0.093839	-0.013272	-0.023318	0.289535	-0.632385	-0.325835	-0.640382	103.378607	-86.987793	128.228028
48489		9.302925	-2.158945	-1.825997	-3.104759	0.295312	-0.603302	0.356539	-0.436324	0.270545	-0.876221	0.301025	0.261963	0.093098	-0.021431	-0.018095	0.290800	-0.633724	-0.326766	-0.638007	109.109564	-87.064825	122.693854
48490		9.219697	-3.877120	-2.017451	-4.531154	1.205729	-0.750693	0.302654	-0.337991	0.222128	-0.881104	0.300293	0.269531	0.092274	-0.038638	-0.020077	0.291898	-0.634740	-0.327531	-0.636101	113.798823	-87.110364	118.171933
48491		9.403306	-4.234362	-2.422298	-5.039367	1.109245	-0.560995	0.391704	-0.206713	0.157070	-0.890137	0.310059	0.261963	0.094091	-0.042222	-0.024209	0.293284	-0.635103	-0.328592	-0.634552	116.988623	-87.138437	115.202538
48492		9.361516	-2.708511	-3.042969	-4.197230	-0.330573	-0.511741	0.494770	-0.083179	0.063653	-0.883789	0.308594	0.268799	0.093636	-0.026980	-0.030458	0.294903	-0.634761	-0.330093	-0.633364	118.510270	-87.146100	113.962595
48493		9.713535	-0.129703	-3.206351	-2.247626	-2.025245	-0.040440	0.539529	0.007631	-0.027429	-0.880371	0.311523	0.266846	0.097134	-0.001224	-0.032071	0.296524	-0.633915	-0.331890	-0.632514	118.658508	-87.131846	114.123575
48494		9.975888	1.946602	-3.061764	-0.503504	-3.157629	0.309459	0.484247	0.067097	-0.071917	-0.873779	0.315430	0.257813	0.099756	0.019504	-0.030604	0.297926	-0.632881	-0.333561	-0.632012	117.926471	-87.111334	115.134104
48495		9.734063	2.763691	-2.628243	0.420302	-3.313604	0.093927	0.383412	0.102615	-0.080644	-0.879883	0.321289	0.266113	0.097338	0.027648	-0.026279	0.299039	-0.631871	-0.334889	-0.631795	116.762624	-87.094781	116.519350
48496		9.574650	2.578621	-1.730822	0.811372	-2.492266	-0.094187	0.266589	0.116654	-0.076096	-0.886963	0.319824	0.253662	0.095746	0.025773	-0.017330	0.299819	-0.630993	-0.335810	-0.631814	115.411362	-87.082667	118.025064
48497		9.736287	2.235026	-0.581915	1.210611	-1.360483	0.026660	0.173420	0.115599	-0.051345	-0.890381	0.311523	0.252930	0.097365	0.022330	-0.005856	0.300382	-0.630302	-0.336362	-0.631942	114.158975	-87.081296	119.378676
48498		9.843478	2.157676	0.403396	1.724440	-0.521379	0.110357	0.066933	0.095750	-0.027143	-0.888184	0.318359	0.254150	0.098440	0.021562	0.003994	0.300652	-0.629870	-0.336528	-0.632156	113.143504	-87.086832	120.433627
48499		9.813349	1.597750	1.343323	1.829573	0.560507	0.036050	-0.053349	0.045506	0.020117	-0.878418	0.315186	0.247070	0.098135	0.015991	0.013407	0.300608	-0.629861	-0.336243	-0.632337	112.799628	-87.105262	120.747453
48500		10.281529	0.086891	2.069825	1.040429	2.057000	0.419019	-0.117974	-0.040989	0.084713	-0.876709	0.322754	0.259521	0.102811	0.000925	0.020719	0.300419	-0.630328	-0.335678	-0.632263	113.598021	-87.138419	119.880136
48501		10.825486	-0.784529	2.319759	0.490093	2.797499	0.916791	-0.078949	-0.075944	0.109616	-0.877930	0.322510	0.266602	0.108250	-0.007777	0.023242	0.300373	-0.630891	-0.335213	-0.631970	114.941849	-87.175370	118.489524
48502		9.612550	-1.238062	2.254448	0.130577	2.963189	-0.314325	-0.005566	-0.093481	0.097065	-0.880371	0.316895	0.262207	0.096121	-0.012333	0.022590	0.300489	-0.631374	-0.335042	-0.631522	116.467799	-87.199924	116.958305
48503		9.520626	-0.849347	1.822598	0.202345	2.385029	-0.381025	0.095746	-0.151698	0.129852	-0.866699	0.328857	0.263672	0.095198	-0.008440	0.018294	0.300930	-0.631948	-0.335176	-0.630667	118.880650	-87.222870	114.597279
48504		10.075238	-0.588403	0.946173	-0.102313	1.556875	0.203176	0.166588	-0.185831	0.136002	-0.882568	0.330566	0.264404	0.100748	-0.005823	0.009550	0.301557	-0.632527	-0.335563	-0.629579	121.739806	-87.233870	111.830099
48505		9.937881	-0.208674	0.180649	-0.227797	0.718601	0.100402	0.255164	-0.206890	0.129975	-0.869629	0.333008	0.269531	0.099378	-0.002025	0.001907	0.302409	-0.633031	-0.336282	-0.628279	124.842658	-87.228235	108.869996
48506		9.768149	0.261889	-0.082109	0.021398	0.231934	-0.043462	0.326876	-0.230254	0.120767	-0.869385	0.334229	0.266357	0.097681	0.002679	-0.000704	0.303419	-0.633479	-0.337286	-0.626801	128.103402	-87.202645	105.792670
48507		9.726114	0.503791	-0.014780	0.281124	0.155346	-0.078824	0.341745	-0.242217	0.115962	-0.865723	0.333008	0.271973	0.097258	0.005094	-0.000021	0.304440	-0.633934	-0.338371	-0.625259	131.385266	-87.161860	102.702809
48508		9.704949	-0.124566	0.100986	-0.135620	0.630127	-0.127841	0.318102	-0.256680	0.117205	-0.875244	0.339355	0.273438	0.097049	-0.001191	0.001132	0.305363	-0.634466	-0.339397	-0.623711	134.669715	-87.107541	99.596502
48509		9.454031	-0.714162	0.172361	-0.546807	1.033655	-0.402537	0.322364	-0.287237	0.118070	-0.864990	0.342773	0.267822	0.094542	-0.007089	0.001848	0.306249	-0.635089	-0.340479	-0.622051	138.074652	-87.031651	96.371855
48510		9.601511	-0.171269	0.439734	0.072800	0.960073	-0.247929	0.289553	-0.301441	0.097746	-0.867432	0.343750	0.273926	0.096009	-0.001672	0.004540	0.306942	-0.635765	-0.341543	-0.620434	141.201565	-86.933044	93.406498
48511		9.437581	0.197243	0.563991	0.469173	0.858853	-0.406992	0.209937	-0.306510	0.094018	-0.868652	0.337646	0.279541	0.094366	0.002011	0.005787	0.307361	-0.636573	-0.342380	-0.618935	144.095674	-86.822501	90.628600
48512		9.385272	0.088886	0.766069	0.521506	1.104305	-0.475314	0.140210	-0.340655	0.088780	-0.865234	0.345215	0.280762	0.093839	0.000925	0.007821	0.307482	-0.637579	-0.343067	-0.617457	146.887102	-86.687060	87.912920
48513		9.873869	0.235932	1.004911	0.807268	1.266923	0.000665	0.067349	-0.378657	0.095526	-0.849121	0.348389	0.282471	0.098718	0.002403	0.010237	0.307324	-0.638828	-0.343565	-0.615966	149.661690	-86.527504	85.171857
48514		10.179623	0.467169	0.805176	0.913928	1.016833	0.317559	0.037747	-0.414078	0.105945	-0.862061	0.345947	0.277832	0.101777	0.004724	0.008263	0.307043	-0.640242	-0.343991	-0.614398	152.395881	-86.345808	82.453809
48515		9.881963	1.212526	0.770430	1.535910	0.571047	0.037778	0.013525	-0.462391	0.125038	-0.858398	0.345947	0.285156	0.098794	0.012186	0.007934	0.306659	-0.641874	-0.344356	-0.612681	155.180751	-86.135877	79.670717
48516		9.589953	1.268071	0.462744	1.440323	0.300160	-0.240620	-0.020841	-0.529413	0.168438	-0.851074	0.357178	0.295654	0.095876	0.012762	0.004880	0.306178	-0.643832	-0.344575	-0.610740	158.172005	-85.891901	76.660014
48517		9.928956	1.344957	0.172409	1.387510	0.076912	0.111596	-0.028345	-0.580559	0.194378	-0.861572	0.351807	0.296143	0.099271	0.013546	0.002010	0.305663	-0.645999	-0.344764	-0.608600	161.129815	-85.614755	73.677762
48518		9.570582	0.895759	0.063419	1.000467	0.256969	-0.255746	-0.007590	-0.632753	0.221204	-0.854248	0.357178	0.306885	0.095693	0.009063	0.000937	0.305203	-0.648330	-0.345004	-0.606211	164.017353	-85.303116	70.776547
48519		9.716962	0.434050	-0.191084	0.536630	0.366549	-0.105911	0.057872	-0.699144	0.254257	-0.846680	0.354736	0.304932	0.097170	0.004465	-0.001570	0.304937	-0.650813	-0.345434	-0.603432	166.887448	-84.947921	67.929284
48520		9.866301	0.449717	-0.057712	0.692758	0.521665	0.025855	0.113232	-0.737084	0.265432	-0.841309	0.366455	0.329102	0.098658	0.004628	-0.000211	0.304815	-0.653334	-0.346046	-0.600412	169.512809	-84.561935	65.357816
48521		10.499840	-0.150661	0.959904	0.878761	1.797380	0.540442	0.115653	-0.802802	0.302258	-0.841797	0.366455	0.320313	0.104961	-0.001354	0.010020	0.304691	-0.656103	-0.346640	-0.597104	172.049645	-84.131605	62.875003
48522		11.643130	-0.686764	0.687564	0.417784	2.040402	1.683755	0.080329	-0.826152	0.351802	-0.840820	0.366211	0.328369	0.116413	-0.006666	0.007354	0.304554	-0.659066	-0.346994	-0.593695	174.485951	-83.681484	60.470926
48523		10.413045	1.370270	0.120078	1.796312	0.330126	0.530770	-0.023373	-0.798290	0.400872	-0.827881	0.367676	0.332275	0.104097	0.013912	0.001615	0.304263	-0.662178	-0.346830	-0.590469	176.770931	-83.239001	58.157518
48524		8.366473	3.258474	-0.107532	3.160542	-1.111349	-1.481872	-0.328299	-0.840742	0.537661	-0.824707	0.372559	0.340820	0.083580	0.032808	-0.000778	0.303285	-0.666099	-0.345368	-0.587411	179.221725	-82.764717	55.498606
48525		9.111948	3.608034	-0.031697	3.622091	-1.156362	-0.780023	-0.602074	-0.973833	0.709384	-0.827637	0.375488	0.352539	0.090991	0.036403	0.000017	0.301659	-0.671099	-0.342720	-0.584099	-178.091208	-82.198802	52.440299
48526		10.685551	2.461996	0.190775	3.055648	-0.119184	0.719464	-0.744413	-1.076180	0.776259	-0.810791	0.379639	0.375244	0.106747	0.025043	0.002390	0.299559	-0.676691	-0.339568	-0.580558	-175.649696	-81.555203	49.543017
48527		11.766846	1.013527	0.124047	2.084374	0.838526	1.782638	-0.707719	-1.120292	0.764135	-0.813477	0.383545	0.377930	0.117619	0.010591	0.001862	0.297455	-0.682297	-0.336610	-0.576789	-173.630793	-80.871418	47.089610
48528		12.326331	-0.132516	0.310631	1.483278	1.785711	2.297696	-0.580662	-1.107841	0.707153	-0.798584	0.385498	0.394531	0.123247	-0.000879	0.003792	0.295625	-0.687544	-0.334175	-0.572902	-172.036398	-80.187644	45.135688
48529		13.453225	-0.313780	-0.436115	1.185600	1.501568	3.514550	-0.349669	-1.060117	0.630841	-0.798828	0.386230	0.404785	0.134562	-0.002720	-0.003643	0.294436	-0.692154	-0.332578	-0.568879	-170.754926	-79.529436	43.630129
48530		12.477870	-1.135329	-1.778802	-0.253872	0.888029	2.808552	-0.103352	-0.995193	0.451629	-0.791260	0.402100	0.408936	0.124890	-0.011080	-0.017161	0.293687	-0.695892	-0.332194	-0.564915	-169.982849	-78.920677	42.783688
48531		10.899372	-1.517013	-3.106882	-1.458631	-0.062998	1.528290	0.068193	-0.909231	0.306307	-0.782959	0.396240	0.407959	0.109157	-0.014993	-0.030578	0.293260	-0.698877	-0.332666	-0.561162	-169.552158	-78.373397	42.384038
48532		9.249667	-0.894611	-3.383316	-1.291838	-0.827656	-0.042886	0.106196	-0.820849	0.259583	-0.781982	0.397705	0.420410	0.092646	-0.008808	-0.033458	0.292975	-0.701465	-0.333271	-0.557713	-169.215639	-77.880477	42.102100
48533		8.582829	-0.592826	-3.121834	-0.937254	-0.856907	-0.749075	-0.001861	-0.731599	0.272931	-0.769531	0.394287	0.432617	0.085950	-0.005811	-0.030904	0.292493	-0.703972	-0.333392	-0.554726	-168.886031	-77.435794	41.763550
48534		7.842017	-0.388670	-1.797829	-0.067021	-0.019334	-1.758162	-0.192285	-0.606800	0.284499	-0.778320	0.400391	0.432617	0.078480	-0.003792	-0.017737	0.291576	-0.706421	-0.332756	-0.552473	-168.596903	-77.059747	41.353912
48535		8.119309	1.195433	-0.080337	2.278956	0.417331	-1.939263	-0.437502	-0.408820	0.192173	-0.768799	0.408936	0.436035	0.081183	0.012031	-0.000664	0.289863	-0.708521	-0.331475	-0.551454	-168.589130	-76.804886	41.088223
48536		8.953541	1.806993	0.384350	3.198958	0.535284	-1.265234	-0.686129	-0.221645	0.072409	-0.770508	0.392334	0.442627	0.089525	0.018116	0.003881	0.287247	-0.710257	-0.329659	-0.551679	-168.921572	-76.669000	41.025636
48537		9.676127	2.326011	1.532703	4.420128	1.202064	-0.845836	-0.804855	-0.044202	-0.022558	-0.774658	0.396729	0.448730	0.096761	0.023311	0.015255	0.284235	-0.711507	-0.327594	-0.552857	-169.463018	-76.643145	41.107991
48538		10.541764	1.888764	1.742460	4.349116	1.744776	-0.026308	-0.974636	0.124994	-0.089497	-0.764160	0.384766	0.442627	0.105437	0.018925	0.017267	0.280706	-0.712406	-0.325050	-0.554999	-170.187806	-76.719424	41.278710
48539		10.095590	0.560050	1.368922	2.999639	2.205404	-0.312855	-0.953914	0.281748	-0.126004	-0.769775	0.379150	0.462158	0.100979	0.005602	0.013520	0.277397	-0.712764	-0.322466	-0.557704	-170.931924	-76.887196	41.481393
48540		10.332787	1.406100	1.585212	3.796558	1.833091	-0.144070	-0.895509	0.419389	-0.167828	-0.773438	0.377686	0.450439	0.103373	0.014044	0.015572	0.274395	-0.712572	-0.319994	-0.560850	-171.706293	-77.135941	41.749290
48541		10.657471	2.107697	1.575283	4.336851	1.377997	0.177205	-0.886728	0.534654	-0.208011	-0.784424	0.369629	0.447754	0.106638	0.021035	0.015374	0.271486	-0.711962	-0.317522	-0.564434	-172.558793	-77.452439	42.101796
48542		10.627748	2.192693	1.414903	4.238704	1.148479	0.210917	-0.861924	0.624678	-0.241175	-0.792969	0.364502	0.450928	0.106347	0.021858	0.013723	0.268709	-0.710991	-0.315108	-0.568326	-173.486306	-77.821143	42.545513
48543		10.306203	1.673632	1.262885	3.636686	1.280818	-0.027641	-0.793945	0.696653	-0.270063	-0.794189	0.354248	0.441406	0.103128	0.016646	0.012204	0.266196	-0.709656	-0.312883	-0.572391	-174.476371	-78.231166	43.092217
48544		9.970928	1.011024	1.109432	2.924853	1.514698	-0.282591	-0.660110	0.744448	-0.300546	-0.802734	0.354004	0.440674	0.099765	0.009996	0.010690	0.264140	-0.707940	-0.311078	-0.576438	-175.518109	-78.667710	43.769207
48545		9.831856	0.953421	0.927851	2.673707	1.360680	-0.355704	-0.502511	0.779941	-0.335545	-0.797119	0.351074	0.437744	0.098370	0.009392	0.008871	0.262588	-0.705839	-0.309796	-0.580401	-176.634484	-79.123592	44.613137
48546		9.604430	1.376105	0.787512	2.790507	0.907276	-0.531082	-0.382442	0.796997	-0.362664	-0.806396	0.343018	0.431885	0.096099	0.013601	0.007466	0.261401	-0.703475	-0.308929	-0.584257	-177.846845	-79.586293	45.623517
48547		9.444167	1.736389	0.711298	2.910192	0.554006	-0.651001	-0.333971	0.788482	-0.390329	-0.819336	0.332031	0.423828	0.094502	0.017191	0.006712	0.260285	-0.701011	-0.308304	-0.588034	-179.225189	-80.040544	46.829118
48548		9.493288	1.615389	0.525102	2.625340	0.474532	-0.545029	-0.321943	0.777649	-0.409395	-0.817627	0.325439	0.419922	0.094985	0.015968	0.004856	0.259133	-0.698521	-0.307789	-0.591764	179.217874	-80.482638	48.221407
48549		9.661607	1.172234	0.413543	2.164488	0.684452	-0.339689	-0.301106	0.758170	-0.407593	-0.818115	0.319824	0.415039	0.096654	0.011531	0.003752	0.258022	-0.696047	-0.307348	-0.595382	177.538416	-80.907198	49.747881
48550		10.003793	0.604818	0.139943	1.519799	0.884506	0.054861	-0.268465	0.741564	-0.408148	-0.827881	0.315918	0.404541	0.100054	0.005846	0.001021	0.256995	-0.693568	-0.307021	-0.598878	175.727683	-81.314127	51.424686
48551		10.287584	0.199420	-0.116274	0.995947	0.981433	0.382014	-0.223838	0.734093	-0.399804	-0.835938	0.317383	0.403809	0.102874	0.001787	-0.001542	0.256128	-0.691051	-0.306802	-0.602261	173.807324	-81.709024	53.236055
48552		10.412501	0.326686	-0.233094	0.939334	0.798331	0.534337	-0.204775	0.730518	-0.396931	-0.833984	0.308105	0.388916	0.104122	0.003058	-0.002714	0.255328	-0.688515	-0.306631	-0.605584	171.730845	-82.092112	55.214692
48553		10.416074	0.487923	-0.532047	0.772946	0.445750	0.590147	-0.235047	0.726806	-0.379852	-0.839600	0.302490	0.388672	0.104149	0.004675	-0.005705	0.254464	-0.686039	-0.306308	-0.608912	169.506343	-82.464442	57.323268
48554		10.329256	0.708485	-0.822091	0.649462	0.048162	0.552957	-0.293042	0.723745	-0.355055	-0.853027	0.302490	0.384521	0.103274	0.006889	-0.008605	0.253469	-0.683675	-0.305722	-0.612271	167.143070	-82.825842	59.536599
48555		10.134240	0.725949	-1.011661	0.441078	-0.150922	0.387086	-0.373992	0.723968	-0.313981	-0.844727	0.292725	0.376709	0.101316	0.007081	-0.010497	0.252317	-0.681460	-0.304741	-0.615696	164.680041	-83.181293	61.801758
48556		9.913540	0.733885	-1.128272	0.278557	-0.294841	0.183551	-0.452567	0.723873	-0.260748	-0.847412	0.286865	0.371338	0.099103	0.007184	-0.011658	0.251057	-0.679415	-0.303332	-0.619157	162.176229	-83.532673	64.061187
48557		9.625108	0.552321	-1.244243	-0.018544	-0.314985	-0.096934	-0.512873	0.720050	-0.210722	-0.853516	0.271973	0.368896	0.096211	0.005389	-0.012803	0.249734	-0.677517	-0.301564	-0.622625	159.621692	-83.879888	66.335039
48558		9.417574	0.206303	-1.350302	-0.416321	-0.203979	-0.307888	-0.535063	0.706180	-0.168333	-0.860352	0.281250	0.365723	0.094129	0.001947	-0.013841	0.248444	-0.675743	-0.299596	-0.626010	157.025728	-84.216759	68.636590
48559		9.232043	-0.049925	-1.559485	-0.814300	-0.223100	-0.487889	-0.512165	0.693006	-0.145514	-0.864990	0.280518	0.354736	0.092265	-0.000607	-0.015913	0.247276	-0.674001	-0.297630	-0.629281	154.298443	-84.541030	71.081415
48560		9.008952	-0.207162	-1.806582	-1.164909	-0.337538	-0.702441	-0.450570	0.676955	-0.139865	-0.867920	0.275391	0.350342	0.090026	-0.002176	-0.018366	0.246307	-0.672231	-0.295856	-0.632382	151.374123	-84.846102	73.758802
48561		9.111167	-0.396876	-2.093782	-1.555843	-0.425931	-0.595725	-0.373964	0.661759	-0.138528	-0.870117	0.263428	0.348145	0.091039	-0.004071	-0.021232	0.245573	-0.670404	-0.294333	-0.635312	148.206868	-85.130765	76.722807
48562		9.319280	-0.390690	-2.452623	-1.857972	-0.693228	-0.374255	-0.284489	0.654715	-0.154180	-0.867188	0.265137	0.338623	0.093109	-0.004014	-0.024825	0.245076	-0.668459	-0.293152	-0.638092	144.667658	-85.391220	80.110346
48563		9.165232	-0.370849	-2.687963	-2.070303	-0.911950	-0.525816	-0.195594	0.649230	-0.177843	-0.890869	0.257568	0.336426	0.091561	-0.003816	-0.027173	0.244788	-0.666378	-0.292335	-0.640749	140.664369	-85.622197	84.012987
48564		8.991125	-0.173787	-2.752443	-2.034830	-1.136617	-0.701501	-0.129436	0.637809	-0.190468	-0.885742	0.262451	0.337891	0.089821	-0.001841	-0.027810	0.244662	-0.664229	-0.291784	-0.643275	136.280470	-85.820358	88.334516
48565		8.857963	-0.209611	-2.845876	-2.180595	-1.211950	-0.847068	-0.074982	0.619277	-0.198534	-0.881836	0.258057	0.327393	0.088489	-0.002195	-0.028732	0.244659	-0.662051	-0.291453	-0.645667	131.589016	-85.981772	92.994308
48566		8.624734	-0.212509	-2.855259	-2.239373	-1.256901	-1.095530	-0.033773	0.594404	-0.207621	-0.883057	0.257813	0.323730	0.086160	-0.002219	-0.028808	0.244726	-0.659886	-0.291314	-0.647917	126.696185	-86.101702	97.879189
48567		8.634950	-0.315315	-2.930269	-2.413295	-1.258342	-1.104036	-0.013422	0.567001	-0.204539	-0.882324	0.249512	0.318604	0.086263	-0.003243	-0.029547	0.244827	-0.657781	-0.291261	-0.650040	121.753897	-86.184877	102.824460
48568		8.756204	-0.171949	-2.890361	-2.332020	-1.345789	-0.991964	-0.002476	0.531425	-0.198147	-0.891357	0.251953	0.311768	0.087483	-0.001807	-0.029136	0.244932	-0.655783	-0.291264	-0.652014	116.945089	-86.232702	107.642144
48569		8.539470	-0.045667	-2.804332	-2.220658	-1.408397	-1.217699	-0.022804	0.494155	-0.180108	-0.891113	0.250732	0.305908	0.085325	-0.000537	-0.028254	0.244971	-0.653953	-0.291184	-0.653870	112.393601	-86.254740	112.189769
48570		8.704132	-0.107259	-2.914036	-2.384804	-1.449947	-1.067675	-0.040507	0.449676	-0.142042	-0.890625	0.248047	0.304932	0.086975	-0.001140	-0.029336	0.245013	-0.652342	-0.290976	-0.655555	108.285619	-86.265929	116.283014
48571		8.715677	-0.318775	-2.931611	-2.580335	-1.328888	-1.081434	-0.057729	0.405457	-0.105378	-0.899414	0.244873	0.297852	0.087095	-0.003242	-0.029492	0.245051	-0.650946	-0.290644	-0.657073	104.617179	-86.271823	119.925658
48572		8.364521	-0.445606	-2.924990	-2.682234	-1.269993	-1.451348	-0.067019	0.359181	-0.074562	-0.898193	0.246582	0.290527	0.083591	-0.004497	-0.029399	0.245095	-0.649757	-0.290237	-0.658413	101.400991	-86.274858	123.109941
48573		8.061578	-0.362318	-2.946459	-2.652003	-1.374835	-1.757963	-0.084798	0.304413	-0.038560	-0.893555	0.242676	0.298096	0.080570	-0.003651	-0.029586	0.245117	-0.648819	-0.289722	-0.659555	98.701068	-86.281905	125.766571
48574		8.104667	-0.765333	-2.978531	-2.976773	-1.119920	-1.748719	-0.095614	0.248868	-0.015380	-0.897949	0.241455	0.294434	0.081009	-0.007674	-0.029882	0.245101	-0.648111	-0.289162	-0.660502	96.501771	-86.290674	127.915360
48575		8.120778	-1.279802	-3.260565	-3.552291	-0.959243	-1.770469	-0.068839	0.191308	-0.003446	-0.895996	0.244629	0.290771	0.081176	-0.012811	-0.032679	0.245125	-0.647577	-0.288722	-0.661209	94.827168	-86.298137	129.553390
48576		7.883823	-1.520790	-3.656128	-4.003593	-1.083688	-2.026058	-0.012284	0.150571	-0.003472	-0.903809	0.237305	0.295654	0.078810	-0.015212	-0.036620	0.245276	-0.647108	-0.288519	-0.661701	93.539899	-86.301288	130.836059
48577		8.116648	-1.641232	-3.911250	-4.287075	-1.172349	-1.805311	0.035421	0.117898	-0.003512	-0.898438	0.237549	0.288330	0.081143	-0.016407	-0.039163	0.245531	-0.646689	-0.288513	-0.662019	92.569730	-86.301692	131.828043
48578		8.228363	-1.201939	-3.851975	-3.948165	-1.446860	-1.669783	0.087553	0.107748	-0.007226	-0.899170	0.243896	0.287109	0.082262	-0.012005	-0.038569	0.245930	-0.646232	-0.288705	-0.662232	91.716496	-86.298826	132.733092
48579		7.988640	-1.281537	-3.662774	-3.862253	-1.276598	-1.917758	0.074603	0.081903	-0.005925	-0.893555	0.242676	0.290283	0.079871	-0.012804	-0.036665	0.246252	-0.645881	-0.288881	-0.662378	91.089950	-86.295557	133.403343
48580		8.145487	-1.624739	-3.671789	-4.117577	-1.038088	-1.785315	0.133584	0.044090	-0.000721	-0.896240	0.242676	0.280029	0.081447	-0.016223	-0.036747	0.246730	-0.645588	-0.289283	-0.662312	90.829627	-86.294602	133.740673
48581		8.314387	-1.645463	-3.505966	-4.020791	-0.906215	-1.618763	0.222608	0.007907	-0.015796	-0.903320	0.234375	0.287109	0.083141	-0.016422	-0.035081	0.247390	-0.645284	-0.290072	-0.662015	90.943710	-86.284691	133.753801
48582		8.216976	-1.603783	-3.329736	-3.859357	-0.823026	-1.712938	0.301191	-0.029142	-0.038695	-0.899658	0.245850	0.281738	0.082172	-0.016004	-0.033309	0.248176	-0.644970	-0.291241	-0.661515	91.418470	-86.261203	133.450733
48583		7.902654	-1.889934	-3.384626	-4.080579	-0.681427	-2.043259	0.401815	-0.074836	-0.034053	-0.895264	0.239746	0.284424	0.079036	-0.018845	-0.033855	0.249233	-0.644689	-0.292783	-0.660710	92.352143	-86.239347	132.745327
48584		10.679673	-1.556231	-1.381196	-2.547312	0.631727	0.746530	0.445236	-0.100028	-0.006794	-0.898682	0.250000	0.285156	0.106803	-0.015535	-0.013793	0.250483	-0.644472	-0.294411	-0.659725	93.526001	-86.231436	131.824348
48585		12.920493	0.608043	1.403612	0.856586	1.205558	3.113715	0.431408	-0.035569	0.089973	-0.887939	0.253662	0.284668	0.129200	0.006108	0.014072	0.252100	-0.644201	-0.295598	-0.658841	94.196932	-86.280491	131.399291
48586		11.589977	-0.503421	2.881539	1.156365	2.968704	1.708331	0.368095	0.094805	0.104946	-0.896484	0.248291	0.290527	0.115916	-0.005026	0.028751	0.253755	-0.643597	-0.296364	-0.658452	93.683953	-86.343068	132.124439
48587		12.356506	1.235426	2.332195	1.979897	1.396502	2.588056	0.590785	0.085840	0.101840	-0.898682	0.257324	0.290283	0.123569	0.012348	0.023305	0.256101	-0.642735	-0.297881	-0.657701	93.365602	-86.403375	132.782101
48588		15.194060	5.989298	-0.782170	3.158987	-3.984419	5.727182	0.982998	-0.149068	0.113631	-0.889648	0.262939	0.287598	0.151912	0.060016	-0.007414	0.259393	-0.642146	-0.300947	-0.655588	95.428968	-86.460574	131.278803
48589		16.538641	6.601129	-3.601240	1.713711	-6.347498	7.123709	0.896195	-0.346094	0.151493	-0.885742	0.257568	0.286621	0.165398	0.066296	-0.035430	0.262225	-0.642360	-0.303854	-0.652905	99.392837	-86.519806	127.821408
48590		12.611978	5.835300	-5.126966	0.374342	-7.097716	3.182690	0.687867	-0.398136	0.170515	-0.889893	0.261230	0.281738	0.126171	0.058636	-0.050817	0.264368	-0.643029	-0.306083	-0.650335	103.866731	-86.567953	123.733971
48591		8.797451	3.634766	-4.942617	-0.914735	-5.648670	-0.741218	0.427886	-0.414755	0.182296	-0.889404	0.268555	0.276123	0.088043	0.036533	-0.049166	0.265682	-0.644110	-0.307447	-0.648083	108.484174	-86.600052	119.353446
48592		8.081803	-0.542328	-3.948118	-3.261367	-2.142859	-1.690578	0.386065	-0.471046	0.296797	-0.880615	0.267822	0.290771	0.080919	-0.005227	-0.039301	0.267145	-0.645594	-0.308378	-0.645558	114.074362	-86.658519	113.974931
48593		8.941333	-2.700959	-3.269080	-4.380333	-0.155486	-0.940385	0.441929	-0.424118	0.327590	-0.890869	0.272705	0.284668	0.089526	-0.026791	-0.032560	0.268956	-0.646895	-0.309326	-0.643045	119.593577	-86.713637	108.699937
48594		9.484455	-3.016668	-2.463546	-4.048334	0.676234	-0.417060	0.411377	-0.286586	0.221182	-0.882813	0.280762	0.292236	0.094913	-0.030011	-0.024561	0.270538	-0.647620	-0.310329	-0.641165	123.475584	-86.733186	105.047429
48595		9.714604	-1.881641	-1.967182	-2.845754	0.302736	-0.138293	0.347718	-0.150799	0.141138	-0.877197	0.284668	0.293213	0.097174	-0.018714	-0.019631	0.271865	-0.647873	-0.311204	-0.639924	125.782285	-86.747526	102.936398
48596		9.816492	-1.358327	-1.705041	-2.264449	0.153273	-0.016541	0.231968	-0.045073	0.107604	-0.885742	0.295410	0.298340	0.098176	-0.013511	-0.017044	0.272874	-0.647886	-0.311671	-0.639253	126.969314	-86.779054	101.880357
48597		9.806600	-1.411430	-2.035944	-2.514954	-0.070370	-0.015920	0.255450	0.036010	0.035392	-0.883301	0.293701	0.290283	0.098065	-0.014071	-0.020395	0.273854	-0.647499	-0.312337	-0.638901	127.091688	-86.804469	101.904246
48598		9.751005	-0.826820	-1.585558	-1.779379	-0.127047	-0.060899	0.393653	0.086867	-0.038306	-0.878662	0.283691	0.291992	0.097502	-0.008256	-0.015914	0.275125	-0.646639	-0.313611	-0.638602	126.406419	-86.813851	102.816239
48599		9.939535	0.235804	-0.580978	-0.327985	-0.056115	0.141044	0.480515	0.096523	-0.073970	-0.876709	0.283447	0.289307	0.099393	0.002335	-0.005852	0.276576	-0.645574	-0.315265	-0.638238	125.485943	-86.808877	104.013743
48600		10.228693	0.876801	0.039779	0.550456	0.015321	0.438814	0.452369	0.073911	-0.069882	-0.871094	0.291016	0.291748	0.102290	0.008731	0.000380	0.277913	-0.644618	-0.316843	-0.637842	124.753940	-86.797743	105.006242
48601		10.208834	1.490656	1.010277	1.640044	0.362838	0.416761	0.331110	0.041994	-0.040903	-0.881104	0.290771	0.282471	0.102094	0.014869	0.010106	0.278898	-0.643981	-0.317985	-0.637487	124.408229	-86.789036	105.542137
48602		10.446524	0.893289	1.672626	1.604226	1.270693	0.605436	0.131700	-0.024285	0.012870	-0.878662	0.296875	0.299316	0.104463	0.008929	0.016745	0.279308	-0.643913	-0.318409	-0.637165	124.803951	-86.784477	105.221133
48603		10.833111	-0.233636	1.741671	0.785851	2.071338	0.936094	0.025514	-0.086091	0.049707	-0.884033	0.294922	0.281738	0.108324	-0.002312	0.017463	0.279394	-0.644253	-0.318464	-0.636756	125.880393	-86.776090	104.157322
48604		9.956531	-1.266881	1.602530	-0.071776	2.584998	0.016769	-0.015855	-0.125682	0.051633	-0.878174	0.299316	0.287598	0.099558	-0.012642	0.016089	0.279291	-0.644774	-0.318435	-0.636288	127.246212	-86.754148	102.779988
48605		9.611160	-0.723535	1.711984	0.433387	2.309564	-0.309695	-0.025674	-0.174649	0.056967	-0.872803	0.292236	0.282471	0.096099	-0.007206	0.017205	0.279096	-0.645477	-0.318427	-0.635664	129.013953	-86.714900	100.994643
48606		10.127802	-0.395672	1.492160	0.555261	1.971188	0.225317	-0.048366	-0.213354	0.062559	-0.870850	0.293457	0.298340	0.101263	-0.003921	0.015031	0.278783	-0.646340	-0.318381	-0.634948	131.037950	-86.660785	98.939266
48607		9.915005	-0.406730	1.176756	0.366070	1.739368	0.020829	-0.016822	-0.254005	0.050620	-0.872070	0.299072	0.294678	0.099136	-0.004041	0.011894	0.278468	-0.647271	-0.318531	-0.634062	133.229631	-86.581361	96.733845
48608		9.830259	0.004490	0.858365	0.497687	1.244634	-0.036495	0.011281	-0.284807	0.045707	-0.866943	0.302246	0.303467	0.098290	0.000067	0.008724	0.278179	-0.648248	-0.318827	-0.633041	135.493976	-86.482885	94.471587
48609		9.388942	0.002183	0.545494	0.319480	0.999636	-0.466652	0.068004	-0.321374	0.058679	-0.863281	0.300781	0.304932	0.093880	0.000047	0.005606	0.278056	-0.649284	-0.319311	-0.631788	137.982232	-86.368380	92.017281
48610		9.385822	0.263330	0.428598	0.468968	0.764151	-0.456259	0.105804	-0.355156	0.056659	-0.873535	0.293457	0.305908	0.093850	0.002658	0.004454	0.277995	-0.650366	-0.319967	-0.630369	140.502181	-86.232173	89.552584
48611		9.363898	0.197357	0.114105	0.242442	0.587943	-0.467635	0.138889	-0.367879	0.052881	-0.872070	0.305664	0.305908	0.093636	0.001997	0.001315	0.278007	-0.651437	-0.320754	-0.628855	142.909794	-86.081884	87.218891
48612		9.470824	0.747499	0.034396	0.640969	0.207188	-0.336266	0.130491	-0.381423	0.052530	-0.866699	0.303955	0.316162	0.094705	0.007500	0.000529	0.277969	-0.652555	-0.321535	-0.627312	145.186809	-85.919261	85.011033
48613		9.337895	0.789689	-0.297879	0.488757	-0.057883	-0.449660	0.070870	-0.404913	0.065971	-0.864258	0.303711	0.315674	0.093382	0.007929	-0.002787	0.277739	-0.653852	-0.322117	-0.625763	147.447423	-85.743424	82.784896
48614		9.080949	1.050354	-0.269980	0.735213	-0.195615	-0.698917	-0.000174	-0.439989	0.081995	-0.854980	0.311768	0.325439	0.090811	0.010541	-0.002500	0.277270	-0.655376	-0.322471	-0.624193	149.713713	-85.549298	80.511717
48615		9.300790	1.081120	-0.075265	0.918946	-0.022000	-0.494207	-0.087275	-0.470608	0.088135	-0.857178	0.315674	0.322754	0.093005	0.010852	-0.000539	0.276482	-0.657127	-0.322573	-0.622647	151.884096	-85.334673	78.283961
48616		9.726296	1.004077	0.097767	1.013521	0.222879	-0.089444	-0.149256	-0.505423	0.097442	-0.850830	0.313477	0.332031	0.097255	0.010089	0.001216	0.275463	-0.659078	-0.322498	-0.621073	153.976733	-85.098658	76.097964
48617		9.815686	1.045650	0.232108	1.173334	0.337739	-0.014527	-0.182249	-0.540200	0.110130	-0.854248	0.304443	0.335205	0.098144	0.010513	0.002577	0.274316	-0.661202	-0.322324	-0.619411	156.020411	-84.840867	73.941456
48618		9.424507	1.318483	0.169854	1.375672	0.113170	-0.395519	-0.235094	-0.589502	0.142017	-0.860352	0.317871	0.341064	0.094230	0.013254	0.001961	0.273011	-0.663592	-0.321946	-0.617626	158.117409	-84.557887	71.699947
48619		9.457412	1.475497	0.035462	1.457908	-0.054794	-0.352656	-0.276532	-0.657374	0.182986	-0.849121	0.316162	0.357178	0.094559	0.014842	0.000645	0.271583	-0.666309	-0.321392	-0.615615	160.327954	-84.238898	69.319392
48620		10.098909	1.071282	0.209900	1.342084	0.434532	0.246597	-0.281769	-0.727693	0.222216	-0.840332	0.317627	0.363037	0.100969	0.010828	0.002451	0.270140	-0.669300	-0.320782	-0.613319	162.602752	-83.880385	66.869778
48621		10.851711	-0.133613	0.388525	0.641574	1.467069	0.928071	-0.174927	-0.773088	0.232785	-0.831299	0.316406	0.355957	0.108502	-0.001206	0.004306	0.269009	-0.672295	-0.320520	-0.610672	164.786425	-83.488592	64.571508
48622		10.702482	-1.301008	0.954312	0.189224	2.685232	0.670609	-0.097736	-0.805268	0.211999	-0.829590	0.318359	0.370605	0.106999	-0.012892	0.009980	0.268019	-0.675236	-0.320601	-0.607814	166.693256	-83.067681	62.594870
48623		11.237883	-1.664506	0.634564	-0.186711	2.790619	1.216368	0.005890	-0.827099	0.234580	-0.830811	0.314941	0.375000	0.112371	-0.016513	0.006810	0.267408	-0.678130	-0.320945	-0.604671	168.553373	-82.629630	60.723423
48624		10.568741	0.343477	-0.194580	0.834925	0.835206	0.697251	-0.053878	-0.789666	0.262474	-0.826904	0.324707	0.386475	0.105689	0.003573	-0.001529	0.266733	-0.681021	-0.320957	-0.601706	170.256276	-82.208909	58.974140
48625		8.729858	1.451149	-0.872411	1.178566	-0.569682	-1.017045	-0.291012	-0.834628	0.380931	-0.818115	0.325439	0.385254	0.087306	0.014665	-0.008381	0.265529	-0.684542	-0.319905	-0.598796	172.140661	-81.765768	56.902494
48626		10.377279	2.957273	-1.177023	2.323892	-1.554659	0.675433	-0.558969	-0.903518	0.489097	-0.814453	0.325684	0.408691	0.103752	0.029794	-0.011385	0.263615	-0.688776	-0.317764	-0.595920	174.100045	-81.281719	54.597455
48627		11.604491	2.574091	-1.215286	2.208088	-1.149318	1.873615	-0.743206	-0.912434	0.519787	-0.811279	0.322510	0.418945	0.116032	0.025998	-0.011720	0.261133	-0.693304	-0.314967	-0.593240	175.841853	-80.783088	52.402728
48628		11.123348	1.018274	-0.773009	1.389810	0.184184	1.295723	-0.749488	-0.943181	0.513826	-0.802734	0.329102	0.422607	0.111242	0.010441	-0.007244	0.258552	-0.697891	-0.312200	-0.590449	177.359998	-80.257482	50.427977
48629		12.161579	-0.068643	0.063509	1.363944	1.699382	2.152390	-0.695829	-0.943078	0.516743	-0.791504	0.322510	0.434082	0.121612	-0.000369	0.001210	0.256155	-0.702385	-0.309566	-0.587544	178.737890	-79.723625	48.623471
48630		12.483010	0.185046	-0.413610	1.391793	1.270037	2.535567	-0.394531	-0.939999	0.455750	-0.799561	0.328125	0.437256	0.124843	0.002128	-0.003553	0.254633	-0.706363	-0.308018	-0.584242	179.942842	-79.184549	47.167659
48631		12.075639	0.912522	-0.613626	1.848468	0.627810	2.154693	-0.205751	-0.934266	0.287418	-0.789063	0.332031	0.450928	0.120770	0.009293	-0.005582	0.253287	-0.709805	-0.307598	-0.580866	-179.353233	-78.644678	46.329786
48632		11.546577	0.197143	-1.467866	0.779129	0.486372	1.792153	-0.105359	-0.917087	0.266203	-0.787354	0.332764	0.459961	0.115529	0.002118	-0.014150	0.252258	-0.713019	-0.307518	-0.577410	-178.719934	-78.113257	45.621370
48633		10.696083	0.010264	-1.488747	0.596182	0.527845	0.957076	-0.049085	-0.872353	0.276777	-0.771729	0.329346	0.470459	0.107024	0.000247	-0.014421	0.251521	-0.716035	-0.307497	-0.574001	-178.080642	-77.605516	44.938258
48634		10.558995	0.127682	-1.016838	1.060322	0.808059	0.711792	-0.218415	-0.817279	0.337346	-0.774414	0.329102	0.480713	0.105628	0.001444	-0.009738	0.250433	-0.719182	-0.306699	-0.570961	-177.430826	-77.126582	44.143834
48635		9.702860	0.251693	-0.449365	1.474155	1.025904	-0.263626	-0.501017	-0.776295	0.446221	-0.767578	0.338867	0.486816	0.097039	0.002723	-0.004124	0.248693	-0.722718	-0.304641	-0.568352	-176.723268	-76.665666	43.121784
48636		9.057340	0.501092	0.006224	1.930355	1.091138	-1.016714	-0.811797	-0.749854	0.550002	-0.767090	0.331299	0.493164	0.090558	0.005261	0.000381	0.246160	-0.726698	-0.301285	-0.566165	-176.002378	-76.213461	41.901523
48637		8.870417	-0.378783	-0.205770	1.206515	1.536968	-1.149460	-1.083992	-0.729976	0.648549	-0.765137	0.331787	0.496338	0.088723	-0.003510	-0.001714	0.242933	-0.731073	-0.296760	-0.564313	-175.270966	-75.764589	40.506888
48638		8.820255	-1.131243	-0.434380	0.596381	1.912236	-1.137878	-1.109260	-0.636208	0.685145	-0.750732	0.335205	0.504395	0.088254	-0.011033	-0.004001	0.239846	-0.735228	-0.291903	-0.562766	-174.518570	-75.363163	39.073446
48639		9.279158	-0.540649	-0.355247	1.231162	1.619902	-0.736286	-1.107189	-0.414819	0.576921	-0.749512	0.326660	0.519043	0.092814	-0.005158	-0.003331	0.236773	-0.738566	-0.287168	-0.562133	-174.000729	-75.090207	37.881361
48640		9.026031	-1.307769	-0.806125	0.392593	1.827395	-0.849671	-1.008200	-0.171809	0.458205	-0.747070	0.327881	0.519775	0.090297	-0.012911	-0.007918	0.234073	-0.740904	-0.282853	-0.562375	-173.647150	-74.960723	36.917147
48641		9.422944	0.048551	-0.025724	1.975416	1.402926	-0.706406	-0.859256	0.104046	0.284745	-0.754395	0.325684	0.515869	0.094228	0.000618	-0.000309	0.231818	-0.742029	-0.279265	-0.563618	-173.515390	-74.998308	36.270170
48642		9.636533	1.201892	0.431863	3.118502	0.853319	-0.645331	-0.835185	0.367912	0.149940	-0.758789	0.312256	0.515625	0.096364	0.012109	0.004091	0.229638	-0.742177	-0.275938	-0.565949	-173.589315	-75.194765	35.851240
48643		9.381549	1.579410	1.028413	3.715460	0.877213	-1.038230	-0.774255	0.576159	0.059176	-0.753174	0.318359	0.518799	0.093840	0.015861	0.009953	0.227709	-0.741524	-0.272871	-0.569062	-173.770049	-75.515922	35.578903
48644		9.749941	2.536407	1.681439	4.849477	0.580548	-0.842360	-0.753898	0.733826	-0.014420	-0.760254	0.309814	0.516846	0.097562	0.025419	0.016361	0.225856	-0.740280	-0.269952	-0.572800	-174.064429	-75.931511	35.436703
48645		9.734640	2.548140	1.949420	4.987601	0.676315	-0.883969	-0.739951	0.857832	-0.092460	-0.767334	0.302734	0.517334	0.097440	0.025507	0.018982	0.223990	-0.738539	-0.267210	-0.577051	-174.509133	-76.422599	35.457267
48646		9.532668	2.543324	2.143694	5.017285	0.711661	-1.080273	-0.671511	0.942398	-0.165773	-0.763184	0.301514	0.508545	0.095447	0.025425	0.020902	0.222273	-0.736354	-0.264836	-0.581584	-175.092339	-76.965551	35.660953
48647		9.411064	2.570008	2.080908	4.888184	0.574662	-1.136419	-0.591456	0.987279	-0.221800	-0.775146	0.295898	0.504395	0.094240	0.025656	0.020268	0.220736	-0.733850	-0.262838	-0.586222	-175.798626	-77.536384	36.036578
48648		9.468357	2.431593	1.942049	4.622279	0.544401	-0.999567	-0.510024	1.013135	-0.265144	-0.783936	0.288574	0.483887	0.094812	0.024239	0.018879	0.219401	-0.731099	-0.261204	-0.590872	-176.621291	-78.122228	36.578964
48649		9.551627	2.340352	1.512875	4.166567	0.304358	-0.782425	-0.435298	1.031213	-0.313730	-0.794434	0.286621	0.486816	0.095629	0.023286	0.014585	0.218208	-0.728123	-0.259937	-0.595529	-177.608170	-78.718418	37.330876
48650		9.456402	2.583124	1.127383	3.921190	-0.180294	-0.759636	-0.398815	1.037697	-0.360128	-0.790039	0.279053	0.479736	0.094667	0.025683	0.010732	0.217015	-0.725004	-0.258936	-0.600188	-178.809085	-79.315701	38.321173
48651		9.518730	2.803141	0.715982	3.658009	-0.641394	-0.583230	-0.412346	1.042841	-0.394257	-0.809814	0.270752	0.465088	0.095278	0.027858	0.006606	0.215665	-0.721814	-0.257998	-0.604905	179.741848	-79.912089	39.553162
48652		9.786661	2.810762	0.312074	3.284507	-0.908251	-0.212565	-0.449744	1.038994	-0.421832	-0.804199	0.269043	0.465820	0.097940	0.027907	0.002549	0.214088	-0.718616	-0.257047	-0.609659	178.011621	-80.499083	41.047220
48653		9.929666	2.392808	-0.047920	2.650256	-0.828667	0.016568	-0.494542	1.041298	-0.445562	-0.818604	0.259521	0.456787	0.099345	0.023705	-0.001055	0.212268	-0.715400	-0.256028	-0.614488	175.955264	-81.078567	42.842360
48654		9.949434	1.769245	-0.348413	1.914825	-0.559627	0.100027	-0.484026	1.033690	-0.463875	-0.820313	0.260986	0.455566	0.099515	0.017452	-0.004041	0.210417	-0.712147	-0.255109	-0.619266	173.576389	-81.640654	44.967761
48655		9.773295	1.325092	-0.489884	1.395803	-0.345963	-0.043140	-0.445386	1.027202	-0.485860	-0.831543	0.251221	0.445313	0.097738	0.013002	-0.005430	0.208613	-0.708817	-0.254381	-0.623978	170.811043	-82.183022	47.501996
48656		9.583812	0.955737	-0.633116	0.926382	-0.187816	-0.207002	-0.395859	1.017558	-0.487920	-0.844727	0.247803	0.437744	0.095827	0.009310	-0.006837	0.206964	-0.705440	-0.253820	-0.628566	167.692510	-82.700249	50.418783
48657		9.519633	0.520785	-0.753182	0.450773	0.052387	-0.259939	-0.319321	0.995354	-0.487009	-0.843506	0.231201	0.425537	0.095170	0.004964	-0.008014	0.205548	-0.702027	-0.253508	-0.632963	164.199252	-83.182842	53.753293
48658		9.440419	0.538894	-0.779431	0.331842	-0.005591	-0.330685	-0.261142	0.973904	-0.476757	-0.847412	0.234375	0.418213	0.094377	0.005153	-0.008261	0.204340	-0.698616	-0.253360	-0.637173	160.329626	-83.627756	57.497788
48659		9.253901	0.262339	-0.914052	-0.054197	0.093456	-0.510724	-0.252744	0.939699	-0.443380	-0.850342	0.227051	0.416992	0.092500	0.002406	-0.009578	0.203211	-0.695324	-0.253147	-0.641207	156.153405	-84.030753	61.551535
48660		9.827105	-0.035872	-1.166332	-0.502979	0.207937	0.068436	-0.254774	0.897414	-0.395396	-0.863037	0.222412	0.406982	0.098216	-0.000568	-0.012103	0.202177	-0.692214	-0.252800	-0.645024	151.779908	-84.390051	65.800453
48661		10.294295	-0.471275	-1.619144	-1.203495	0.297588	0.544845	-0.270114	0.873050	-0.348980	-0.870361	0.217041	0.397461	0.102863	-0.004915	-0.016634	0.201197	-0.689238	-0.252257	-0.648720	147.155435	-84.716439	70.289203
48662		10.316979	-0.792771	-1.913671	-1.724698	0.353065	0.561834	-0.297437	0.851635	-0.304474	-0.871826	0.216309	0.382568	0.103075	-0.008114	-0.019564	0.200242	-0.686401	-0.251493	-0.652310	142.277702	-85.010870	75.015219
48663		10.122431	-1.088542	-2.099714	-2.143262	0.435152	0.349681	-0.294297	0.828114	-0.248912	-0.872314	0.199951	0.379395	0.101123	-0.011043	-0.021400	0.199441	-0.683690	-0.250563	-0.655751	137.227282	-85.278117	79.913707
48664		9.768309	-1.527328	-2.204479	-2.575666	0.666935	-0.038593	-0.271208	0.804151	-0.195912	-0.876953	0.200439	0.377441	0.097578	-0.015399	-0.022416	0.198863	-0.681090	-0.249549	-0.659011	132.039179	-85.519081	84.962422
48665		9.695879	-1.562211	-2.373269	-2.803111	0.560100	-0.121901	-0.182724	0.769231	-0.140841	-0.878662	0.200928	0.364014	0.096856	-0.015712	-0.024091	0.198714	-0.678573	-0.248665	-0.661980	126.830521	-85.734092	90.080022
48666		9.575007	-1.525617	-2.515364	-2.959346	0.405109	-0.251671	-0.061527	0.732326	-0.097044	-0.888184	0.204346	0.362793	0.095650	-0.015310	-0.025499	0.199079	-0.676103	-0.248072	-0.664615	121.641537	-85.921668	95.247185
48667		9.316221	-1.505610	-2.631140	-3.095682	0.266388	-0.521447	0.066980	0.681266	-0.058926	-0.891113	0.199951	0.353027	0.093067	-0.015075	-0.026634	0.199935	-0.673712	-0.247820	-0.666875	116.594567	-86.079810	100.344013
48668		9.213105	-1.446171	-2.773286	-3.221763	0.088381	-0.632495	0.210264	0.626477	-0.020519	-0.888428	0.194580	0.350830	0.092042	-0.014442	-0.028036	0.201336	-0.671403	-0.247973	-0.668724	111.822487	-86.214142	105.247395
48669		9.130490	-1.571558	-3.066005	-3.571545	-0.035886	-0.730921	0.357143	0.573653	0.008302	-0.895020	0.203125	0.338623	0.091217	-0.015657	-0.030950	0.203253	-0.669149	-0.248566	-0.670181	107.337832	-86.326790	109.945567
48670		8.726484	-1.617763	-3.088409	-3.643687	-0.083022	-1.151087	0.505565	0.527055	0.017369	-0.896729	0.200439	0.344238	0.087184	-0.016092	-0.031155	0.205643	-0.666905	-0.249675	-0.671275	103.123172	-86.414000	114.458700
48671		8.543572	-1.438143	-3.105404	-3.571075	-0.292842	-1.335316	0.611585	0.462327	0.033865	-0.896973	0.202393	0.333984	0.085366	-0.014272	-0.031295	0.208353	-0.664780	-0.251144	-0.671999	99.394046	-86.483148	118.545105
48672		8.595752	-1.182717	-3.361154	-3.637653	-0.695572	-1.276496	0.686862	0.399730	0.043780	-0.895508	0.206055	0.325928	0.085893	-0.011692	-0.033824	0.211269	-0.662790	-0.252898	-0.672396	96.175899	-86.537681	122.163261
48673		8.477922	-1.060388	-3.574252	-3.738431	-0.976588	-1.395736	0.704556	0.353757	0.053688	-0.899170	0.201660	0.328857	0.084719	-0.010455	-0.035929	0.214211	-0.660939	-0.254719	-0.672601	93.312747	-86.583855	125.434997
48674		8.284059	-1.083213	-3.789930	-3.921991	-1.149761	-1.599381	0.705232	0.317145	0.066154	-0.898926	0.210205	0.315918	0.082784	-0.010671	-0.038068	0.217152	-0.659215	-0.256541	-0.672657	90.735390	-86.627137	128.421422
48675		8.111874	-1.391074	-4.120737	-4.370919	-1.174658	-1.798131	0.669877	0.290538	0.068133	-0.893799	0.207520	0.308838	0.081063	-0.013745	-0.041371	0.219940	-0.657613	-0.258258	-0.672662	88.331070	-86.663890	131.213235
48676		7.930833	-1.657140	-4.420604	-4.768000	-1.215185	-2.004021	0.654299	0.280149	0.051410	-0.893311	0.211426	0.313232	0.079250	-0.016406	-0.044371	0.222611	-0.656033	-0.259990	-0.672659	85.982166	-86.684620	133.941381
48677		7.737437	-1.414624	-4.449403	-4.629733	-1.472115	-2.192676	0.655828	0.263581	0.026443	-0.898682	0.210938	0.302734	0.077317	-0.013990	-0.044642	0.225173	-0.654468	-0.261820	-0.672622	83.798871	-86.685673	136.503683
48678		7.510028	-1.387026	-4.427515	-4.587290	-1.529198	-2.427199	0.635067	0.243718	0.007032	-0.891846	0.217773	0.297607	0.075047	-0.013727	-0.044410	0.227578	-0.652957	-0.263668	-0.672558	81.827848	-86.671734	138.842263
48679		7.464219	-1.426507	-4.383030	-4.577807	-1.510358	-2.483102	0.645025	0.209600	-0.002929	-0.905762	0.212891	0.303467	0.074596	-0.014125	-0.043954	0.229930	-0.651532	-0.265613	-0.672375	80.232015	-86.651089	140.810098
48680		7.459904	-1.141232	-4.340599	-4.356444	-1.733596	-2.477204	0.697068	0.164822	-0.020286	-0.906738	0.216064	0.297363	0.074562	-0.011268	-0.043507	0.232335	-0.650164	-0.267842	-0.671987	79.146613	-86.622480	142.297215
48681		7.260496	-0.627536	-4.173854	-3.876168	-2.046404	-2.649089	0.693518	0.112305	-0.024498	-0.904541	0.215820	0.292480	0.072581	-0.006139	-0.041801	0.234636	-0.648968	-0.270125	-0.671431	78.589451	-86.596222	143.252216
48682		7.243695	-0.605309	-4.293508	-3.938800	-2.169925	-2.667833	0.670980	0.049479	-0.026725	-0.894287	0.224365	0.300293	0.072426	-0.005919	-0.042973	0.236774	-0.647994	-0.272416	-0.670695	78.618809	-86.575409	143.607695
48683		11.499750	-0.513660	-3.069128	-3.160652	-1.284246	1.601715	0.620902	-0.038749	0.043976	-0.909424	0.233154	0.292480	0.115005	-0.005016	-0.030685	0.238858	-0.647469	-0.274406	-0.669650	79.326482	-86.604378	143.253963
48684		10.394448	0.143761	-1.836383	-1.732848	-0.986419	0.553684	0.626772	-0.125102	0.174973	-0.901123	0.232422	0.297363	0.103955	0.001586	-0.018294	0.241285	-0.647395	-0.276097	-0.668156	80.657805	-86.715278	142.279863
48685		10.413380	0.624679	1.508298	1.064089	0.935800	0.632199	0.617516	-0.062067	0.188201	-0.900146	0.230957	0.279785	0.104123	0.006298	0.015135	0.243807	-0.647137	-0.277631	-0.666853	81.408133	-86.827239	141.881767
48686		15.710973	4.546896	2.121996	3.981954	-1.313646	6.138179	0.494301	0.058209	0.151324	-0.901611	0.233154	0.286621	0.157081	0.045535	0.021287	0.245976	-0.646567	-0.278729	-0.666151	80.910962	-86.907427	142.663082
48687		16.382263	7.348031	-0.411624	4.087706	-5.042016	6.932752	0.876757	-0.081206	0.045392	-0.893799	0.239258	0.292236	0.163808	0.073534	-0.003727	0.248827	-0.645839	-0.281608	-0.664586	82.273165	-86.939772	141.801179
48688		15.273827	4.813635	-3.006490	0.596153	-5.020603	5.677209	0.954010	-0.392331	0.107920	-0.895264	0.252441	0.288818	0.152771	0.048361	-0.029535	0.251695	-0.646118	-0.284925	-0.661815	87.021775	-87.021782	137.593105
48689		13.267421	3.384214	-4.061949	-0.964789	-4.782309	3.610209	0.930627	-0.549773	0.253342	-0.893555	0.249268	0.299316	0.132742	0.034198	-0.040096	0.254733	-0.647139	-0.287883	-0.658365	93.860794	-87.163764	131.278411
48690		10.065205	3.360569	-3.835707	-0.611781	-4.700689	0.426599	0.642400	-0.546391	0.219139	-0.892334	0.259277	0.299072	0.100719	0.033838	-0.037974	0.256729	-0.648447	-0.289994	-0.655370	100.992428	-87.246598	124.506574
48691		8.852975	-0.367277	-2.881640	-2.492195	-1.443171	-0.951548	0.442266	-0.563148	0.296140	-0.889404	0.260010	0.291260	0.088616	-0.003478	-0.028575	0.258294	-0.650172	-0.291213	-0.652499	108.828451	-87.325667	116.914604
48692		8.575153	-3.904644	-2.238670	-4.515247	1.471146	-1.372358	0.530934	-0.542746	0.334362	-0.889160	0.258301	0.309570	0.085877	-0.038844	-0.022257	0.260303	-0.651757	-0.292569	-0.649507	117.007398	-87.378957	109.031235
48693		9.382367	-4.081622	-1.314761	-3.974358	2.287561	-0.572099	0.581501	-0.439437	0.187572	-0.886475	0.269287	0.300781	0.093891	-0.040690	-0.013060	0.262142	-0.652720	-0.294426	-0.646956	123.305396	-87.342442	103.059326
48694		9.635219	-3.565422	-1.050967	-3.396335	2.130711	-0.295380	0.546842	-0.313654	0.114186	-0.881104	0.268555	0.304688	0.096389	-0.035571	-0.010456	0.263817	-0.653200	-0.296244	-0.644957	127.600207	-87.288706	99.073225
48695		9.886782	-2.503412	-1.414323	-2.855597	1.146438	0.013149	0.544021	-0.220328	0.106410	-0.889648	0.275146	0.307861	0.098897	-0.024943	-0.014102	0.265591	-0.653371	-0.297950	-0.643268	130.830395	-87.252857	96.150780
48696		9.739311	-1.792765	-2.275611	-2.908068	0.018714	-0.076705	0.553814	-0.100762	0.018137	-0.882813	0.277344	0.308350	0.097406	-0.017856	-0.022757	0.267292	-0.653002	-0.299817	-0.642070	132.227036	-87.219370	95.069956
48697		9.450895	0.512146	-3.075866	-1.744573	-2.150434	-0.253673	0.661431	-0.010006	-0.091032	-0.887695	0.275635	0.302734	0.094513	0.005180	-0.030737	0.269123	-0.652034	-0.302259	-0.641143	132.033079	-87.173468	95.642830
48698		9.104899	2.199995	-2.984726	-0.419779	-3.235683	-0.538967	0.726473	0.040106	-0.125768	-0.885254	0.280762	0.307129	0.091057	0.022051	-0.029785	0.271132	-0.650751	-0.304954	-0.640323	131.181819	-87.131852	96.911657
48699		9.325630	2.622521	-2.362905	0.325083	-3.039959	-0.321572	0.728915	0.049013	-0.090032	-0.877930	0.283691	0.293945	0.093262	0.026269	-0.023556	0.273268	-0.649488	-0.307522	-0.639468	130.562066	-87.107832	97.949617
48700		9.341172	2.948908	-1.283927	1.298264	-2.440509	-0.327940	0.621382	0.051176	-0.054648	-0.883789	0.282959	0.293701	0.093417	0.029503	-0.012772	0.275173	-0.648406	-0.309627	-0.638733	130.116328	-87.099999	98.752169
48701		9.652345	2.657819	-0.182736	1.809929	-1.397601	-0.064046	0.416514	0.030949	-0.001937	-0.880615	0.278076	0.299072	0.096523	0.026581	-0.001787	0.276546	-0.647753	-0.310933	-0.638168	130.128725	-87.107182	98.978287
48702		10.073723	1.957011	0.461608	1.704793	-0.428503	0.308228	0.219684	0.005446	0.051542	-0.882813	0.286377	0.290527	0.100732	0.019591	0.004635	0.277415	-0.647529	-0.311471	-0.637756	130.628229	-87.128751	98.603942
48703		9.815461	1.032528	0.403533	0.976957	0.115949	0.016062	0.026990	-0.028229	0.108771	-0.889404	0.285156	0.293457	0.098148	0.010378	0.004051	0.277785	-0.647775	-0.311256	-0.637450	131.765376	-87.161485	97.480226
48704		9.835378	-0.057174	0.427566	0.180228	0.841770	-0.005564	-0.116252	-0.072396	0.140591	-0.882080	0.282715	0.290527	0.098353	-0.000500	0.004312	0.277728	-0.648403	-0.310543	-0.637184	133.462351	-87.189659	95.714262
48705		10.484988	-1.307535	0.359190	-0.795917	1.635707	0.601946	-0.201417	-0.079065	0.146286	-0.886963	0.296143	0.294434	0.104858	-0.012995	0.003646	0.277398	-0.649184	-0.309549	-0.637016	135.259798	-87.214287	93.798611
48706		10.316223	-2.159896	0.342319	-1.432305	2.171787	0.406834	-0.194149	-0.055145	0.115700	-0.874756	0.280518	0.300049	0.103174	-0.021536	0.003473	0.277035	-0.649825	-0.308643	-0.636960	136.620732	-87.234548	92.324472
48707		10.065175	-1.989866	0.249906	-1.350697	1.980031	0.166533	-0.161547	-0.052803	0.058935	-0.884277	0.287354	0.300781	0.100657	-0.019867	0.002542	0.276598	-0.650331	-0.308022	-0.636934	137.514945	-87.231716	91.335981
48708		10.163059	-1.677245	-0.173009	-1.384908	1.464811	0.290144	-0.112365	-0.052247	0.026749	-0.873535	0.295654	0.298828	0.101633	-0.016760	-0.001694	0.276221	-0.650712	-0.307662	-0.636884	138.133520	-87.216629	90.651986
48709		10.111022	-1.308197	-0.575504	-1.367543	0.922057	0.264762	-0.051877	-0.046147	-0.012079	-0.876953	0.283691	0.303223	0.101111	-0.013090	-0.005728	0.275924	-0.650935	-0.307611	-0.636808	138.405779	-87.188623	90.349114
48710		10.153483	-0.553453	-0.479279	-0.736139	0.506114	0.327884	0.014979	-0.041641	-0.062318	-0.877686	0.287354	0.304932	0.101534	-0.005566	-0.004772	0.275695	-0.650968	-0.307931	-0.636719	138.229071	-87.143853	90.534393
48711		10.129709	-0.018264	-0.292704	-0.212849	0.301034	0.314558	0.007864	-0.039286	-0.076445	-0.877930	0.289551	0.302734	0.101298	-0.000221	-0.002907	0.275397	-0.650989	-0.308269	-0.636663	137.931611	-87.094173	90.835942
48712		9.833255	0.025021	-0.162302	-0.097147	0.365199	0.014675	-0.037198	-0.055696	-0.094466	-0.879639	0.291504	0.305664	0.098333	0.000203	-0.001596	0.274873	-0.651089	-0.308547	-0.636652	137.579890	-87.030971	91.166547
48713		9.834649	0.073646	-0.043367	0.015581	0.434127	0.012734	-0.102248	-0.077077	-0.092070	-0.877686	0.288330	0.310059	0.098347	0.000691	-0.000396	0.274110	-0.651357	-0.308637	-0.636664	137.394968	-86.959168	91.292472
48714		9.736937	-0.049854	0.066965	-0.005065	0.605702	-0.094251	-0.157328	-0.092840	-0.088375	-0.876953	0.293213	0.316895	0.097369	-0.000541	0.000715	0.273157	-0.651749	-0.308564	-0.636708	137.313623	-86.882559	91.283423
48715		9.385423	0.187000	0.200254	0.261334	0.542973	-0.442623	-0.208124	-0.101198	-0.091977	-0.874023	0.287598	0.302246	0.093854	0.001829	0.002048	0.272010	-0.652237	-0.308348	-0.636804	137.249833	-86.800605	91.227092
48716		9.247183	0.612914	0.471585	0.761115	0.468695	-0.576375	-0.251161	-0.121072	-0.086227	-0.873535	0.278076	0.315430	0.092472	0.006095	0.004764	0.270714	-0.652848	-0.308006	-0.636896	137.325430	-86.712946	91.007000
48717		9.067227	1.038698	0.747605	1.266300	0.393261	-0.752100	-0.312137	-0.156813	-0.062927	-0.875977	0.282227	0.313721	0.090670	0.010370	0.007531	0.269234	-0.653695	-0.307439	-0.636928	137.771265	-86.618730	90.380606
48718		9.222454	1.476676	1.078729	1.821125	0.367605	-0.596059	-0.377841	-0.214719	-0.035249	-0.881592	0.286133	0.317871	0.092216	0.014771	0.010858	0.267540	-0.654849	-0.306652	-0.636835	138.696077	-86.510308	89.237015
48719		9.373483	1.448445	1.392445	2.025077	0.639330	-0.464460	-0.423313	-0.288983	-0.001425	-0.873535	0.279541	0.321777	0.093715	0.014513	0.014029	0.265687	-0.656354	-0.305704	-0.636517	140.211750	-86.380303	87.474823
48720		9.607553	1.862408	1.863740	2.671632	0.735298	-0.243528	-0.449439	-0.357286	0.035365	-0.871094	0.281006	0.329346	0.096039	0.018683	0.018767	0.263762	-0.658157	-0.304643	-0.635965	142.207558	-86.230123	85.216577
48721		9.613106	1.955713	1.865073	2.771782	0.685216	-0.243847	-0.487777	-0.431825	0.081454	-0.872803	0.279297	0.334473	0.096083	0.019642	0.018810	0.261737	-0.660317	-0.303402	-0.635155	144.697403	-86.055315	82.440247
48722		9.315893	1.692155	1.553664	2.402682	0.629938	-0.544826	-0.475764	-0.523398	0.139279	-0.865234	0.279785	0.348389	0.093106	0.017024	0.015740	0.259797	-0.662827	-0.302126	-0.633945	147.734624	-85.846954	79.121923
48723		9.387820	1.541638	1.607540	2.378696	0.794180	-0.495885	-0.450169	-0.611108	0.193947	-0.863770	0.276367	0.332031	0.093814	0.015544	0.016327	0.257975	-0.665659	-0.300856	-0.632323	151.155358	-85.597836	75.432099
48724		10.540534	0.535038	1.453177	1.624899	1.482896	0.611375	-0.327398	-0.683704	0.235837	-0.867676	0.279297	0.352051	0.105348	0.005499	0.014883	0.256585	-0.668610	-0.299928	-0.630213	154.731179	-85.306765	71.656588
48725		10.670903	0.586562	1.073569	1.474379	1.221038	0.756110	-0.027737	-0.760359	0.186774	-0.853027	0.285400	0.360352	0.106662	0.005967	0.011140	0.255920	-0.671337	-0.300200	-0.627448	157.926078	-84.946662	68.433666
