// General information: 
//  MT Manager version: 2021.4.0 
//  XDA version: 2021.4.0 build 6323 rev 112641 built on 2021-09-28
// Device information: 
//  DeviceId: 00B47791
//  ProductCode: MTW2-3A7G6
//  Firmware Version: 4.6.0
//  Hardware Version: 2.0.0
// Device settings: 
//  Filter Profile: human(46.1)
//  Option Flags: Orientation Smoother Disabled, Position/Velocity Smoother Disabled, Continuous Zero Rotation Update Disabled, AHS Disabled, ICC Disabled
// Coordinate system: ENU
PacketCounter	SampleTimeFine	Acc_X	Acc_Y	Acc_Z	FreeAcc_E	FreeAcc_N	FreeAcc_U	Gyr_X	Gyr_Y	Gyr_Z	Mag_X	Mag_Y	Mag_Z	VelInc_X	VelInc_Y	VelInc_Z	Quat_q0	Quat_q1	Quat_q2	Quat_q3	Roll	Pitch	Yaw
48994		9.435507	2.697863	-0.074245	0.018000	-0.035285	0.001139	0.017228	0.009038	-0.014798	-0.940186	-0.500977	-0.403076	0.094357	0.026972	-0.000744	0.703521	0.234238	-0.669888	0.037956	91.486935	-73.809949	-69.066716
48995		9.424552	2.731644	-0.069722	0.000669	-0.004158	0.000004	0.016955	0.011533	-0.010376	-0.938965	-0.500977	-0.395020	0.094247	0.027312	-0.000700	0.703534	0.234275	-0.669858	0.038008	91.477592	-73.810605	-69.049999
48996		9.457780	2.726010	-0.073633	0.009995	-0.016303	0.030371	0.013687	0.007805	-0.014619	-0.940430	-0.497803	-0.392578	0.094580	0.027253	-0.000738	0.703539	0.234320	-0.669836	0.038036	91.473742	-73.808783	-69.040007
48997		9.390283	2.740891	-0.064535	-0.010422	0.010848	-0.030365	0.016684	0.007257	-0.012850	-0.936279	-0.488770	-0.404785	0.093905	0.027403	-0.000646	0.703539	0.234365	-0.669818	0.038073	91.472555	-73.807958	-69.031944
48998		9.403067	2.730204	-0.080944	0.010172	0.004195	-0.020950	0.014640	0.009187	-0.014038	-0.935303	-0.503662	-0.404053	0.094033	0.027295	-0.000812	0.703548	0.234405	-0.669793	0.038104	91.466459	-73.806683	-69.019865
48999		9.407491	2.727786	-0.038819	-0.027329	-0.015208	-0.017677	0.012599	0.004235	-0.010734	-0.941406	-0.494141	-0.405029	0.094076	0.027273	-0.000388	0.703542	0.234429	-0.669789	0.038131	91.468998	-73.807026	-69.018120
49000		9.394005	2.740879	-0.021822	-0.049082	-0.006601	-0.027097	0.011099	0.007951	-0.013863	-0.935547	-0.514893	-0.388916	0.093942	0.027402	-0.000220	0.703552	0.234460	-0.669767	0.038150	91.462734	-73.805671	-69.007703
49001		9.404321	2.709422	-0.025566	-0.032927	-0.035821	-0.025936	0.009058	0.002999	-0.010559	-0.938477	-0.496338	-0.400391	0.094045	0.027089	-0.000256	0.703546	0.234471	-0.669769	0.038165	91.465692	-73.806096	-69.008506
49002		9.393364	2.743074	-0.021867	-0.050264	-0.004723	-0.027102	0.010834	-0.003209	-0.011845	-0.939453	-0.496582	-0.401611	0.093935	0.027425	-0.000216	0.703516	0.234504	-0.669788	0.038184	91.482496	-73.805551	-69.020899
49003		9.429134	2.757983	-0.039687	-0.036491	0.005692	0.011530	0.013831	-0.003755	-0.010076	-0.940918	-0.502197	-0.399414	0.094293	0.027575	-0.000393	0.703481	0.234532	-0.669812	0.038209	91.501535	-73.806152	-69.035600
49004		9.421595	2.741830	-0.069592	-0.004607	0.004464	0.000002	0.005797	-0.007613	-0.010308	-0.941895	-0.509521	-0.401611	0.094217	0.027413	-0.000692	0.703444	0.234536	-0.669851	0.038205	91.523589	-73.806623	-69.057625
49005		9.400936	2.737487	-0.082561	0.006100	0.010858	-0.020952	0.010558	-0.000713	-0.007426	-0.946045	-0.499268	-0.411621	0.094010	0.027371	-0.000824	0.703423	0.234542	-0.669869	0.038232	91.534894	-73.808785	-69.066225
49006		9.407927	2.755497	-0.053732	-0.026932	0.014017	-0.009432	0.007153	0.000241	-0.011709	-0.943604	-0.500977	-0.403809	0.094081	0.027549	-0.000536	0.703411	0.234555	-0.669877	0.038238	91.541679	-73.808481	-69.071461
49007		9.420830	2.744430	-0.070656	-0.006331	0.007335	-0.000000	-0.000133	-0.002088	-0.006930	-0.937012	-0.504150	-0.401367	0.094209	0.027441	-0.000706	0.703398	0.234523	-0.669902	0.038229	91.549600	-73.810905	-69.082916
49008		9.418076	2.724668	-0.058460	-0.011360	-0.014254	-0.008247	0.002872	-0.009408	-0.012053	-0.939941	-0.494873	-0.401855	0.094182	0.027241	-0.000580	0.703358	0.234524	-0.669945	0.038208	91.573232	-73.810255	-69.108109
49009		9.433395	2.734489	-0.089003	0.013695	0.001607	0.009436	0.003894	-0.010371	-0.011456	-0.937744	-0.500977	-0.398193	0.094336	0.027340	-0.000885	0.703314	0.234523	-0.669993	0.038187	91.599560	-73.809954	-69.136327
49010		9.473878	2.746015	-0.065225	-0.009484	-0.008276	0.051341	-0.002714	-0.008721	-0.013070	-0.936035	-0.496582	-0.397705	0.094741	0.027454	-0.000648	0.703283	0.234505	-0.670034	0.038144	91.618727	-73.808827	-69.160517
49011		9.479459	2.718083	-0.111166	0.043585	-0.017171	0.049274	-0.002730	0.004933	-0.010675	-0.936035	-0.497559	-0.400146	0.094796	0.027176	-0.001114	0.703297	0.234475	-0.670031	0.038121	91.611114	-73.809216	-69.157345
49012		9.476646	2.698631	-0.097571	0.038538	-0.038749	0.041041	0.001824	0.012091	-0.014744	-0.937744	-0.505127	-0.403320	0.094768	0.026979	-0.000981	0.703331	0.234476	-0.669996	0.038112	91.591730	-73.807447	-69.138628
49013		9.446477	2.773600	-0.029719	-0.053595	0.009897	0.032448	-0.001858	0.015538	-0.014610	-0.942383	-0.505127	-0.399902	0.094467	0.027729	-0.000305	0.703381	0.234459	-0.669950	0.038091	91.563486	-73.805749	-69.113453
49014		9.433960	2.716303	-0.031794	-0.030614	-0.036475	0.004474	-0.001041	0.014726	-0.009579	-0.936035	-0.497314	-0.400391	0.094341	0.027159	-0.000325	0.703425	0.234437	-0.669911	0.038096	91.537520	-73.806821	-69.088988
49015		9.420475	2.729322	-0.014032	-0.052373	-0.027876	-0.004975	0.003942	0.007825	-0.013528	-0.935547	-0.502930	-0.400635	0.094207	0.027287	-0.000143	0.703442	0.234439	-0.669893	0.038089	91.527874	-73.805619	-69.079718
49016		9.420125	2.730530	-0.013754	-0.052950	-0.026920	-0.004975	0.002591	-0.000030	-0.012126	-0.937988	-0.498779	-0.404297	0.094203	0.027300	-0.000137	0.703434	0.234438	-0.669903	0.038078	91.532893	-73.805080	-69.085695
49017		9.425756	2.702587	-0.059718	0.000119	-0.035836	-0.007019	0.003614	-0.000992	-0.011530	-0.939941	-0.493652	-0.397217	0.094259	0.027020	-0.000596	0.703421	0.234434	-0.669918	0.038067	91.540553	-73.804887	-69.094643
49018		9.414751	2.736193	-0.055744	-0.017176	-0.004671	-0.008246	0.001905	0.002871	-0.010226	-0.934082	-0.497314	-0.393311	0.094149	0.027357	-0.000559	0.703424	0.234420	-0.669921	0.038061	91.539606	-73.805618	-69.095320
49019		9.412025	2.716438	-0.042433	-0.022223	-0.026264	-0.016470	0.000123	0.009077	-0.008942	-0.941650	-0.501221	-0.403320	0.094121	0.027160	-0.000429	0.703448	0.234393	-0.669905	0.038059	91.525543	-73.807062	-69.083731
49020		9.398565	2.729328	-0.024923	-0.043983	-0.017666	-0.025929	0.003326	0.008384	-0.011605	-0.947510	-0.502930	-0.397949	0.093987	0.027288	-0.000253	0.703467	0.234391	-0.669886	0.038063	91.514703	-73.806996	-69.072759
49021		9.403022	2.726809	0.017134	-0.081513	-0.037015	-0.022662	0.006612	-0.001535	-0.009760	-0.936768	-0.502930	-0.395020	0.094032	0.027264	0.000173	0.703448	0.234391	-0.669905	0.038067	91.525247	-73.807809	-69.082920
49022		9.426846	2.728041	-0.071550	0.001633	-0.008497	0.001215	-0.000321	-0.008709	-0.009380	-0.931152	-0.506836	-0.399414	0.094270	0.027276	-0.000711	0.703413	0.234375	-0.669949	0.038048	91.546507	-73.808723	-69.107179
49023		9.442178	2.737824	-0.102207	0.026685	0.007369	0.018899	0.009155	-0.012983	-0.012920	-0.936523	-0.505371	-0.397217	0.094424	0.027372	-0.001015	0.703354	0.234397	-0.670004	0.038037	91.580919	-73.807545	-69.140678
49024		9.452560	2.706429	-0.106924	0.042810	-0.021900	0.020154	0.006130	0.001217	-0.012291	-0.931396	-0.495850	-0.410156	0.094527	0.027059	-0.001069	0.703345	0.234414	-0.670006	0.038042	91.585671	-73.806757	-69.143471
49025		9.421173	2.734694	-0.114558	0.036849	0.014636	-0.002050	-0.000713	0.016664	-0.007082	-0.940186	-0.508789	-0.401123	0.094213	0.027344	-0.001154	0.703396	0.234377	-0.669966	0.038053	91.556268	-73.809387	-69.116405
49026		9.323649	2.660781	-0.064949	0.010058	-0.043192	-0.116686	-0.004208	0.026733	-0.004495	-0.933105	-0.498535	-0.404541	0.093237	0.026606	-0.000663	0.703485	0.234321	-0.669890	0.038077	91.504475	-73.813569	-69.067346
49027		9.226251	2.631772	-0.084029	0.029135	-0.035637	-0.218164	0.007783	-0.007183	-0.009121	-0.937012	-0.505127	-0.407227	0.092264	0.026314	-0.000836	0.703446	0.234325	-0.669930	0.038081	91.526870	-73.814662	-69.089149
49028		9.305353	2.677396	-0.091681	0.024730	-0.013373	-0.129420	0.018674	-0.037900	-0.002985	-0.943604	-0.499268	-0.401367	0.093054	0.026773	-0.000897	0.703291	0.234357	-0.670079	0.038111	91.615821	-73.818706	-69.173004
49029		9.383232	2.676640	-0.176127	0.106418	-0.003268	-0.054146	0.013922	-0.044800	-0.005853	-0.930420	-0.507080	-0.405273	0.093833	0.026764	-0.001738	0.703119	0.234378	-0.670253	0.038103	91.716190	-73.821029	-69.272334
49030		9.519916	2.715774	-0.277497	0.195571	0.033560	0.088921	0.012649	-0.023151	-0.004117	-0.930176	-0.501953	-0.401367	0.095200	0.027156	-0.002762	0.703020	0.234391	-0.670351	0.038128	91.772847	-73.824603	-69.325957
49031		9.615634	2.654970	-0.265358	0.215533	-0.049641	0.163824	0.008801	0.023700	-0.008221	-0.937012	-0.493164	-0.408447	0.096157	0.026546	-0.002664	0.703083	0.234389	-0.670282	0.038174	91.734933	-73.826729	-69.284356
49032		9.575870	2.691830	-0.211139	0.151496	-0.025737	0.135388	0.004762	0.063936	-0.014764	-0.933350	-0.493896	-0.399658	0.095760	0.026911	-0.002141	0.703289	0.234390	-0.670063	0.038234	91.614144	-73.825772	-69.158506
49033		9.525118	2.716683	-0.083497	0.024837	-0.037037	0.092524	0.008636	0.067132	-0.012419	-0.931396	-0.499023	-0.402588	0.095253	0.027161	-0.000866	0.703498	0.234393	-0.669837	0.038316	91.490115	-73.826126	-69.027340
49034		9.444239	2.698339	0.014242	-0.062461	-0.067800	0.009043	0.017546	0.042888	-0.011924	-0.933105	-0.492676	-0.406250	0.094444	0.026978	0.000125	0.703617	0.234434	-0.669693	0.038405	91.418826	-73.826380	-68.945230
49035		9.439165	2.703076	-0.026301	-0.026083	-0.046566	0.005780	0.024742	-0.002478	-0.014947	-0.933105	-0.500977	-0.404541	0.094394	0.027024	-0.000258	0.703575	0.234516	-0.669706	0.038451	91.441370	-73.824212	-68.957069
49036		9.454514	2.712880	-0.057476	-0.001013	-0.030679	0.023466	0.036074	-0.015400	-0.008360	-0.925781	-0.503662	-0.408691	0.094546	0.027125	-0.000563	0.703476	0.234620	-0.669768	0.038545	91.495667	-73.825660	-68.994862
49037		9.454401	2.758540	-0.126828	0.044325	0.035666	0.036581	0.033323	-0.003690	-0.012141	-0.936279	-0.491455	-0.401123	0.094546	0.027580	-0.001262	0.703420	0.234723	-0.669786	0.038628	91.525654	-73.825077	-69.009332
49038		9.456543	2.780255	-0.138656	0.048248	0.059193	0.044767	0.022173	0.040838	-0.011478	-0.935791	-0.499023	-0.401855	0.094567	0.027797	-0.001403	0.703526	0.234778	-0.669649	0.038731	91.460736	-73.825534	-68.931168
49039		9.529168	2.811156	-0.025326	-0.055819	0.026137	0.122325	0.013968	0.080404	-0.015928	-0.931396	-0.500732	-0.399902	0.095294	0.028104	-0.000290	0.703775	0.234810	-0.669371	0.038835	91.313392	-73.823957	-68.772545
49040		9.673667	2.870342	0.057716	-0.131318	0.012244	0.277140	0.022441	0.120324	-0.017263	-0.930908	-0.497314	-0.404053	0.096739	0.028695	0.000522	0.704147	0.234872	-0.668947	0.039014	91.092001	-73.821938	-68.530907
49041		9.817850	2.929880	0.144969	-0.206841	-0.001606	0.431950	0.033895	0.166639	-0.021232	-0.922607	-0.503662	-0.403564	0.098183	0.029288	0.001373	0.704661	0.234975	-0.668355	0.039267	90.785734	-73.817786	-68.194914
49042		9.904001	2.879419	0.234876	-0.245105	-0.097305	0.500696	0.035632	0.224341	-0.021623	-0.928955	-0.501465	-0.412842	0.099046	0.028783	0.002243	0.705366	0.235079	-0.667555	0.039597	90.366413	-73.813056	-67.739174
49043		9.861874	2.664713	0.274794	-0.184103	-0.283714	0.400946	0.041323	0.294358	-0.017027	-0.931641	-0.491211	-0.419922	0.098625	0.026638	0.002608	0.706295	0.235167	-0.666514	0.040039	89.812766	-73.810041	-67.141141
49044		9.696069	2.490120	0.407213	-0.231737	-0.436133	0.194124	0.060883	0.347025	-0.013209	-0.923828	-0.495850	-0.409180	0.096969	0.024894	0.003911	0.707376	0.235300	-0.665284	0.040623	89.165561	-73.807259	-66.434056
49045		9.596776	2.348752	0.607789	-0.345952	-0.602299	0.061604	0.076275	0.344408	-0.012530	-0.922119	-0.493652	-0.422119	0.095980	0.023479	0.005922	0.708426	0.235486	-0.664061	0.041256	88.533651	-73.802636	-65.733653
49046		9.519198	2.302059	0.682329	-0.379600	-0.643033	-0.023789	0.118105	0.298759	-0.012579	-0.927002	-0.505371	-0.422852	0.095203	0.023011	0.006695	0.709274	0.235829	-0.662988	0.041976	88.015501	-73.796883	-65.126511
49047		9.524984	2.366501	0.665230	-0.366774	-0.574358	0.000759	0.181795	0.225884	-0.022732	-0.922119	-0.507324	-0.427246	0.095260	0.023648	0.006566	0.709805	0.236447	-0.662148	0.042783	87.679236	-73.785554	-64.670981
49048		9.571764	2.510457	0.544683	-0.289177	-0.408155	0.085167	0.219183	0.195773	-0.025231	-0.920898	-0.503418	-0.423340	0.095726	0.025087	0.005381	0.710193	0.237216	-0.661398	0.043675	87.423566	-73.772748	-64.276170
49049		9.565243	2.655258	0.413738	-0.210058	-0.223645	0.118138	0.223829	0.223730	-0.023756	-0.922607	-0.506592	-0.423584	0.095660	0.026537	0.004060	0.710664	0.237985	-0.660552	0.044615	87.116840	-73.759612	-63.826263
49050		9.501549	2.712778	0.413370	-0.221241	-0.151593	0.073541	0.226628	0.297068	-0.024785	-0.909180	-0.504883	-0.426758	0.095025	0.027111	0.004023	0.711373	0.238755	-0.659440	0.045652	86.668005	-73.742737	-63.225867
49051		9.289617	2.785571	0.502523	-0.334184	-0.062850	-0.107368	0.230329	0.353654	-0.023049	-0.914551	-0.501709	-0.435303	0.092908	0.027839	0.004893	0.712260	0.239514	-0.658127	0.046771	86.111974	-73.723386	-62.512304
49052		9.139006	2.803949	0.612265	-0.436462	-0.045176	-0.243684	0.222834	0.347262	-0.013238	-0.917969	-0.512695	-0.426758	0.091402	0.028027	0.005995	0.713132	0.240216	-0.656844	0.047895	85.562957	-73.707917	-61.810095
49053		9.105805	2.833256	0.625769	-0.442348	-0.008691	-0.266021	0.227757	0.308565	-0.005557	-0.905518	-0.508057	-0.432373	0.091068	0.028323	0.006149	0.713865	0.240917	-0.655709	0.049012	85.093431	-73.696959	-61.188083
49054		9.174897	2.956340	0.576384	-0.417565	0.109399	-0.165691	0.243036	0.260182	-0.003153	-0.905273	-0.506104	-0.441162	0.091757	0.029555	0.005680	0.714418	0.241682	-0.654739	0.050137	84.726759	-73.688438	-60.663046
49055		9.270587	3.147164	0.454163	-0.353718	0.310149	-0.023236	0.229204	0.220174	0.017798	-0.911865	-0.510254	-0.437012	0.092708	0.031475	0.004476	0.714849	0.242333	-0.653943	0.051236	84.427044	-73.693301	-60.217064
49056		9.319268	3.239937	0.398647	-0.322045	0.411034	0.047951	0.190753	0.207498	0.048896	-0.916992	-0.518555	-0.428223	0.093189	0.032418	0.003921	0.715277	0.242748	-0.653235	0.052308	84.122325	-73.715891	-59.788458
49057		9.441525	3.220454	0.417704	-0.304719	0.367859	0.160276	0.169958	0.210587	0.075284	-0.910645	-0.510986	-0.445557	0.094407	0.032237	0.004105	0.715730	0.243000	-0.652555	0.053407	83.794143	-73.752733	-59.348281
49058		9.533312	3.203297	0.481917	-0.334154	0.317422	0.245392	0.169741	0.199204	0.091439	-0.915527	-0.509277	-0.445557	0.095323	0.032073	0.004751	0.716142	0.243207	-0.651932	0.054555	83.482334	-73.798723	-58.924433
49059		9.566936	3.189452	0.449941	-0.288026	0.325689	0.272562	0.147273	0.171510	0.118424	-0.908936	-0.501221	-0.446533	0.095654	0.031948	0.004441	0.716481	0.243247	-0.651448	0.055687	83.203986	-73.861386	-58.549890
49060		9.637013	3.025840	0.338229	-0.105817	0.230960	0.290656	0.094375	0.179233	0.147275	-0.908203	-0.511719	-0.438232	0.096351	0.030328	0.003310	0.716902	0.243000	-0.650984	0.056761	82.869361	-73.939400	-58.148378
49061		9.773669	2.800937	0.338524	0.012865	0.024728	0.360002	0.071714	0.251306	0.169064	-0.911865	-0.504395	-0.435059	0.097717	0.028091	0.003273	0.717577	0.242581	-0.650295	0.057925	82.370493	-74.023644	-57.589734
49062		9.820490	2.768701	0.532889	-0.126036	-0.068078	0.403528	0.053710	0.354144	0.185422	-0.909424	-0.514160	-0.447266	0.098188	0.027777	0.005162	0.718600	0.242018	-0.649257	0.059219	81.646198	-74.107296	-56.806685
49063		9.912889	2.691799	0.774725	-0.275579	-0.224226	0.482212	-0.017651	0.412187	0.222298	-0.905273	-0.496826	-0.448486	0.099115	0.027029	0.007541	0.719883	0.241056	-0.648076	0.060479	80.745286	-74.203717	-55.883829
49064		9.950328	2.542660	0.952197	-0.341849	-0.397089	0.488091	-0.075415	0.448299	0.263251	-0.904053	-0.500732	-0.457031	0.099491	0.025561	0.009289	0.721337	0.239745	-0.646825	0.061747	79.712528	-74.315417	-54.858061
49065		9.879639	2.531412	1.230609	-0.568184	-0.463593	0.433857	-0.095637	0.484603	0.275522	-0.907715	-0.495850	-0.453613	0.098791	0.025456	0.012055	0.722923	0.238304	-0.645462	0.063032	78.576154	-74.424894	-53.738074
49066		9.874598	2.735499	1.589995	-0.941429	-0.388046	0.506303	-0.099457	0.491469	0.284085	-0.909668	-0.497559	-0.467773	0.098746	0.027503	0.015644	0.724527	0.236822	-0.644077	0.064348	77.403995	-74.532216	-52.583070
49067		9.838222	2.759497	1.757337	-1.075022	-0.381872	0.492258	-0.106203	0.473170	0.285365	-0.910400	-0.491211	-0.476807	0.098384	0.027745	0.017326	0.726074	0.235310	-0.642760	0.065619	76.249127	-74.636385	-51.451341
49068		9.547849	2.786547	1.759110	-1.105201	-0.251960	0.224023	-0.128146	0.427397	0.273152	-0.904785	-0.488037	-0.473145	0.095478	0.028007	0.017369	0.727498	0.233775	-0.641594	0.066726	75.165237	-74.734292	-50.406201
49069		9.216136	2.851790	1.843387	-1.235748	-0.119348	-0.069668	-0.139618	0.406638	0.263720	-0.904785	-0.490234	-0.475098	0.092161	0.028652	0.018227	0.728867	0.232231	-0.640495	0.067733	74.109892	-74.825033	-49.398510
49070		8.667743	2.911510	1.842182	-1.327087	0.083553	-0.580570	-0.183563	0.370274	0.248223	-0.901123	-0.476318	-0.483643	0.086675	0.029239	0.018235	0.730172	0.230592	-0.639518	0.068506	73.100397	-74.908262	-48.463884
49071		8.046142	2.808081	1.826408	-1.357561	0.156671	-1.204910	-0.252054	0.320414	0.217721	-0.903564	-0.477295	-0.490479	0.080460	0.028191	0.018100	0.731401	0.228811	-0.638711	0.068885	72.162849	-74.979279	-47.645669
49072		7.430026	2.656454	1.814013	-1.375796	0.176865	-1.835940	-0.299054	0.254894	0.167658	-0.906494	-0.486572	-0.487549	0.074301	0.026654	0.018006	0.732491	0.227042	-0.638097	0.068859	71.356691	-75.031498	-46.991098
49073		6.901250	2.361045	1.725695	-1.259651	0.075644	-2.424364	-0.351112	0.149905	0.095578	-0.905762	-0.473877	-0.495361	0.069014	0.023674	0.017164	0.733325	0.225345	-0.637803	0.068280	70.780755	-75.062188	-46.606307
49074		6.667005	2.139300	1.456636	-0.964600	0.046878	-2.726455	-0.307600	-0.030589	-0.034173	-0.900879	-0.478516	-0.506836	0.066671	0.021404	0.014544	0.733576	0.224288	-0.638004	0.067166	70.686097	-75.056068	-46.692808
49075		6.874004	2.219480	1.275581	-0.794321	0.151315	-2.522196	-0.209838	-0.156557	-0.182433	-0.905518	-0.474854	-0.490723	0.068750	0.022145	0.012786	0.733364	0.224099	-0.638471	0.065673	71.006731	-74.993513	-47.152278
49076		7.744552	2.455877	0.933711	-0.423097	0.319504	-1.651800	-0.117684	-0.191850	-0.306743	-0.907959	-0.483398	-0.492920	0.077474	0.024445	0.009397	0.732975	0.224660	-0.638891	0.063984	71.530710	-74.868912	-47.767000
49077		8.774234	2.819030	0.496380	0.018367	0.594325	-0.602538	-0.035478	-0.107808	-0.372916	-0.899414	-0.480713	-0.490967	0.087792	0.028028	0.005006	0.732780	0.225701	-0.638904	0.062403	71.968236	-74.692096	-48.244606
49078		9.842391	2.822071	0.095567	0.581523	0.519781	0.396986	-0.073939	0.033707	-0.349095	-0.901123	-0.490234	-0.494141	0.098473	0.028049	0.000929	0.733071	0.226487	-0.638432	0.060953	72.079186	-74.502460	-48.405697
49079		10.770787	2.476182	-0.060227	1.044043	0.064666	1.189613	-0.102653	0.164615	-0.309587	-0.905029	-0.481689	-0.497559	0.107745	0.024595	-0.000704	0.733798	0.226994	-0.637535	0.059698	71.891928	-74.311366	-48.275464
49080		11.262093	2.355474	0.015645	1.142946	-0.192986	1.634563	0.003663	0.230412	-0.284189	-0.895996	-0.489990	-0.500488	0.112654	0.023395	0.000027	0.734604	0.227795	-0.636388	0.058955	71.626488	-74.122026	-47.999714
49081		11.141003	2.252184	0.073788	1.139675	-0.298807	1.492687	0.086820	0.221708	-0.209355	-0.895752	-0.492676	-0.507080	0.111434	0.022405	0.000624	0.735264	0.228660	-0.635336	0.058735	71.384095	-73.974730	-47.698999
49082		10.908880	2.098434	0.166132	1.093849	-0.433734	1.234938	0.144380	0.153535	-0.105261	-0.891357	-0.489502	-0.500977	0.109101	0.020926	0.001593	0.735610	0.229431	-0.634632	0.059009	71.239922	-73.896007	-47.465210
49083		10.608187	1.766174	0.238545	1.108811	-0.698608	0.864034	0.221904	0.097648	-0.020221	-0.898926	-0.506592	-0.501709	0.106085	0.017648	0.002353	0.735663	0.230228	-0.634211	0.059772	71.192742	-73.873779	-47.286884
49084		10.158153	1.627932	0.391328	0.942191	-0.791477	0.408722	0.297545	0.070540	0.003824	-0.890137	-0.500977	-0.505859	0.101583	0.016275	0.003902	0.735534	0.231241	-0.633890	0.060838	71.224212	-73.869458	-47.144247
49085		9.881267	1.886194	0.623559	0.581971	-0.602424	0.231434	0.338642	0.070774	0.013265	-0.885010	-0.496338	-0.497070	0.098814	0.018858	0.006233	0.735354	0.232368	-0.633568	0.062063	71.273132	-73.870376	-46.996318
49086		9.873779	2.254514	0.786505	0.288702	-0.342954	0.335808	0.318123	0.027983	0.045075	-0.893311	-0.496826	-0.495850	0.098734	0.022555	0.007887	0.735050	0.233338	-0.633442	0.063296	71.369772	-73.896329	-46.909339
49087		9.892685	2.426232	0.691976	0.302952	-0.153605	0.391002	0.286671	-0.010893	0.067218	-0.893555	-0.491211	-0.495605	0.098918	0.024286	0.006960	0.734651	0.234128	-0.633496	0.064459	71.508208	-73.941582	-46.885599
49088		9.846304	2.701348	0.603760	0.257741	0.139359	0.411092	0.228666	0.026434	0.069900	-0.897217	-0.507080	-0.500244	0.098454	0.027041	0.006055	0.734436	0.234687	-0.633432	0.065497	71.540862	-73.981563	-46.785694
49089		9.730982	3.053309	0.666049	0.037473	0.452817	0.397694	0.140275	0.071311	0.082647	-0.891357	-0.499268	-0.489502	0.097300	0.030569	0.006647	0.734462	0.234863	-0.633248	0.066350	71.429870	-74.020248	-46.589742
49090		9.663540	3.287577	0.796580	-0.185931	0.627606	0.404858	0.025116	0.068093	0.107878	-0.901855	-0.496582	-0.495850	0.096620	0.032927	0.007937	0.734604	0.234543	-0.633141	0.066933	71.241592	-74.072999	-46.381032
49091		9.641622	3.481165	0.884005	-0.346028	0.779473	0.440776	-0.071609	0.032955	0.130095	-0.896484	-0.498779	-0.511475	0.096395	0.034878	0.008812	0.734740	0.233803	-0.633223	0.067244	71.049243	-74.144192	-46.226820
49092		9.585122	3.590324	0.925981	-0.438643	0.886526	0.416881	-0.156893	0.024890	0.149601	-0.889404	-0.500732	-0.501465	0.095825	0.035982	0.009220	0.734944	0.232694	-0.633384	0.067351	70.808176	-74.227248	-46.072186
49093		9.461854	3.551821	0.906627	-0.428876	0.906300	0.284774	-0.256736	0.026455	0.169267	-0.898193	-0.496826	-0.496826	0.094590	0.035610	0.009008	0.735260	0.231151	-0.633597	0.067212	70.492004	-74.320483	-45.899656
49094		9.376383	3.357605	0.938517	-0.394264	0.762324	0.153970	-0.361310	0.040863	0.172415	-0.902344	-0.494629	-0.506592	0.093737	0.033674	0.009305	0.735739	0.229215	-0.633790	0.066776	70.082545	-74.412193	-45.691459
49095		9.258291	3.096670	0.996293	-0.361756	0.555759	-0.021971	-0.414269	0.038714	0.170193	-0.903320	-0.488037	-0.508057	0.092558	0.031066	0.009881	0.736269	0.227084	-0.634006	0.066154	69.645098	-74.502858	-45.486891
49096		9.261940	2.909782	1.071502	-0.351747	0.383283	-0.059339	-0.422798	0.029450	0.155376	-0.895508	-0.487061	-0.503906	0.092598	0.029192	0.010640	0.736781	0.224976	-0.634237	0.065446	69.227535	-74.586924	-45.307225
49097		9.275068	2.693577	1.099566	-0.288140	0.200710	-0.098371	-0.442246	0.006974	0.144377	-0.900391	-0.483398	-0.512451	0.092732	0.027027	0.010933	0.737243	0.222832	-0.634543	0.064605	68.848046	-74.669483	-45.179559
49098		9.424988	2.525096	1.300166	-0.374113	-0.035954	0.023757	-0.481059	0.034455	0.139578	-0.898193	-0.476074	-0.517822	0.094234	0.025348	0.012925	0.737832	0.220557	-0.634748	0.063659	68.393235	-74.743351	-44.995844
49099		9.279723	2.252940	1.182090	-0.186531	-0.179430	-0.193993	-0.480168	0.048490	0.144584	-0.906006	-0.470459	-0.515381	0.092784	0.022625	0.011744	0.738459	0.218256	-0.634906	0.062743	67.904727	-74.816631	-44.777806
49100		9.166763	2.262808	1.296577	-0.311291	-0.172577	-0.288810	-0.447150	0.010208	0.127775	-0.902100	-0.470703	-0.520264	0.091654	0.022716	0.012910	0.738929	0.216146	-0.635170	0.061833	67.520008	-74.888785	-44.646981
49101		9.033365	2.114347	1.278180	-0.265859	-0.253462	-0.454753	-0.433663	-0.056115	0.144268	-0.899902	-0.465820	-0.527100	0.090315	0.021236	0.012761	0.739164	0.214048	-0.635692	0.060949	67.258094	-74.984176	-44.636168
49102		8.928539	2.024699	1.115964	-0.111661	-0.233965	-0.593340	-0.377615	-0.122630	0.129227	-0.908936	-0.459961	-0.517822	0.089265	0.020326	0.011176	0.739130	0.212229	-0.636421	0.060122	67.170521	-75.086232	-44.771720
49103		9.005774	1.934431	1.159886	-0.117952	-0.331669	-0.535437	-0.355210	-0.162938	0.156752	-0.920166	-0.461670	-0.524170	0.090033	0.019436	0.011638	0.738931	0.210412	-0.637320	0.059420	67.154235	-75.211957	-44.968530
49104		9.111817	1.844291	0.916507	0.140209	-0.323851	-0.477698	-0.322119	-0.181363	0.158293	-0.910400	-0.457031	-0.517578	0.091095	0.018530	0.009218	0.738635	0.208721	-0.638275	0.058814	67.194134	-75.342526	-45.202868
49105		9.196425	1.947986	0.847024	0.164870	-0.205315	-0.377808	-0.270099	-0.180697	0.160275	-0.910645	-0.450195	-0.525879	0.091941	0.019565	0.008527	0.738283	0.207210	-0.639214	0.058377	67.263745	-75.473993	-45.437813
49106		9.244248	1.833926	0.681778	0.346230	-0.242360	-0.373113	-0.236993	-0.201780	0.161320	-0.921631	-0.452637	-0.515625	0.092421	0.018422	0.006889	0.737827	0.205829	-0.640217	0.058033	67.397273	-75.610465	-45.718182
49107		9.266988	1.635729	0.404377	0.653179	-0.311920	-0.421616	-0.164228	-0.224068	0.151331	-0.911133	-0.446045	-0.512451	0.092653	0.016431	0.004134	0.737225	0.204749	-0.641272	0.057856	67.632202	-75.746404	-46.060858
49108		9.335624	1.555531	0.193139	0.864643	-0.311440	-0.391105	-0.068901	-0.220093	0.118444	-0.924072	-0.440186	-0.515625	0.093345	0.015611	0.002029	0.736546	0.204130	-0.642247	0.057874	67.946974	-75.863563	-46.428361
49109		9.379419	1.518173	0.043045	1.001379	-0.293215	-0.368565	0.009140	-0.195087	0.103997	-0.915039	-0.445801	-0.513184	0.093786	0.015230	0.000523	0.735871	0.203831	-0.643094	0.058109	68.271556	-75.967259	-46.760698
49110		9.331475	1.543534	-0.084222	1.081219	-0.211459	-0.418422	0.062760	-0.183652	0.087530	-0.916260	-0.441895	-0.506836	0.093309	0.015476	-0.000752	0.735182	0.203784	-0.643863	0.058472	68.620658	-76.059254	-47.085694
49111		9.293411	1.672896	-0.129694	1.051392	-0.069440	-0.427987	0.138491	-0.182195	0.062138	-0.913330	-0.443115	-0.519531	0.092930	0.016759	-0.001201	0.734427	0.204091	-0.644581	0.058982	69.036162	-76.136894	-47.435084
49112		9.144654	1.791733	-0.190865	1.020738	0.085926	-0.548666	0.185273	-0.202085	0.044143	-0.917236	-0.442383	-0.510010	0.091444	0.017939	-0.001800	0.733565	0.204639	-0.645336	0.059562	69.540498	-76.208175	-47.847397
49113		9.144614	1.932826	-0.212417	0.968033	0.217617	-0.516430	0.224843	-0.216677	0.019764	-0.922852	-0.442627	-0.510742	0.091446	0.019340	-0.002003	0.732620	0.205409	-0.646108	0.060159	70.124472	-76.268354	-48.319088
49114		9.044177	2.026069	-0.210416	0.894010	0.312275	-0.590456	0.252611	-0.212289	-0.001167	-0.927734	-0.445068	-0.508057	0.090444	0.020263	-0.001983	0.731665	0.206351	-0.646831	0.060779	70.735048	-76.315181	-48.800926
49115		9.028293	2.187414	-0.261059	0.857300	0.471733	-0.571180	0.269653	-0.221120	-0.018861	-0.927246	-0.455078	-0.500000	0.090288	0.021869	-0.002481	0.730668	0.207411	-0.647563	0.061375	71.392686	-76.352828	-49.321811
49116		9.034432	2.164336	-0.375711	0.947406	0.482602	-0.576025	0.283034	-0.243109	-0.033007	-0.929443	-0.445068	-0.501953	0.090352	0.021634	-0.003617	0.729587	0.208577	-0.648353	0.061945	72.120771	-76.385190	-49.906292
49117		9.113239	2.067026	-0.445007	1.031722	0.394889	-0.522839	0.282655	-0.266322	-0.028074	-0.935791	-0.445801	-0.490723	0.091141	0.020664	-0.004300	0.728427	0.209726	-0.649232	0.062502	72.901020	-76.422466	-50.545506
49118		9.051726	1.953034	-0.399457	0.994415	0.272923	-0.601595	0.281042	-0.276056	-0.029660	-0.929199	-0.452148	-0.481201	0.090526	0.019522	-0.003842	0.727235	0.210881	-0.650142	0.063041	73.707243	-76.458423	-51.211668
49119		9.118405	1.934320	-0.392220	0.975992	0.228109	-0.537124	0.284503	-0.288560	-0.028669	-0.937988	-0.454834	-0.479980	0.091192	0.019336	-0.003763	0.725996	0.212044	-0.651096	0.063578	74.547487	-76.494603	-51.911302
49120		9.158068	2.011351	-0.334770	0.870820	0.253977	-0.474332	0.292718	-0.303152	-0.034478	-0.929199	-0.456299	-0.471436	0.091589	0.020102	-0.003179	0.724698	0.213266	-0.652089	0.064111	75.433925	-76.527270	-52.652513
49121		9.198429	2.160488	-0.258576	0.721077	0.335227	-0.393916	0.288299	-0.302264	-0.055460	-0.932373	-0.454590	-0.469482	0.091994	0.021583	-0.002416	0.723412	0.214533	-0.653058	0.064548	76.331237	-76.545449	-53.408417
49122		9.263150	2.364661	-0.277795	0.643012	0.496796	-0.283029	0.256005	-0.278331	-0.082194	-0.936523	-0.460938	-0.469482	0.092645	0.023612	-0.002619	0.722244	0.215768	-0.653917	0.064814	77.170704	-76.542907	-54.122838
49123		9.298842	2.498516	-0.185590	0.488743	0.555489	-0.210709	0.205212	-0.236589	-0.097034	-0.937012	-0.456787	-0.465088	0.093003	0.024942	-0.001720	0.721270	0.216848	-0.654625	0.064899	77.890184	-76.524634	-54.744840
49124		9.389712	2.654877	-0.133081	0.374166	0.639015	-0.082097	0.149029	-0.208485	-0.120666	-0.944580	-0.458496	-0.467773	0.093914	0.026493	-0.001213	0.720455	0.217798	-0.655222	0.064751	78.521297	-76.488113	-55.308267
49125		9.400470	2.697713	-0.054088	0.271410	0.624891	-0.056397	0.097058	-0.185014	-0.132314	-0.939697	-0.458008	-0.458740	0.094023	0.026915	-0.000441	0.719777	0.218586	-0.655739	0.064411	79.069679	-76.441076	-55.818204
49126		9.507811	2.697024	0.034173	0.192886	0.549864	0.053111	0.040830	-0.162404	-0.135008	-0.936035	-0.465576	-0.457520	0.095096	0.026906	0.000424	0.719233	0.219176	-0.656187	0.063906	79.530950	-76.389105	-56.271116
49127		9.666451	2.696964	0.095096	0.149538	0.477064	0.210933	0.018850	-0.121661	-0.141123	-0.942139	-0.464111	-0.453125	0.096683	0.026901	0.001012	0.718849	0.219691	-0.656490	0.063346	79.883938	-76.328723	-56.626324
49128		9.732386	2.762281	0.140328	0.086430	0.487809	0.292943	-0.005687	-0.111560	-0.142478	-0.938477	-0.467285	-0.456543	0.097343	0.027554	0.001457	0.718524	0.220124	-0.656761	0.062718	80.197386	-76.266076	-56.954470
49129		9.784205	2.698793	0.163720	0.091397	0.395424	0.330104	-0.046025	-0.112054	-0.135408	-0.937012	-0.477783	-0.454590	0.097859	0.026922	0.001686	0.718240	0.220384	-0.657055	0.061977	80.482877	-76.207078	-57.278640
49130		9.756778	2.545333	0.115357	0.186834	0.268077	0.266000	-0.058927	-0.097104	-0.129150	-0.937988	-0.463379	-0.453857	0.097584	0.025391	0.001193	0.718016	0.220578	-0.657304	0.061238	80.722127	-76.149793	-57.561783
49131		9.704886	2.342366	0.122070	0.247640	0.080523	0.168223	-0.057924	-0.098153	-0.121344	-0.933838	-0.468994	-0.456787	0.097062	0.023365	0.001262	0.717785	0.220744	-0.657566	0.060524	80.959010	-76.096811	-57.843064
49132		9.637587	2.154145	0.100302	0.324447	-0.079335	0.057566	-0.060459	-0.142690	-0.112011	-0.943359	-0.467529	-0.449951	0.096387	0.021488	0.001065	0.717407	0.220888	-0.657997	0.059790	81.291000	-76.052698	-58.223128
49133		9.732443	1.908958	0.031804	0.481679	-0.305516	0.088837	-0.049043	-0.182096	-0.098305	-0.934082	-0.476807	-0.450439	0.097333	0.019042	0.000402	0.716883	0.221035	-0.658582	0.059094	81.712167	-76.019104	-58.689168
49134		9.778853	1.710494	-0.118708	0.686927	-0.448548	0.081389	0.008450	-0.195751	-0.099174	-0.938721	-0.468506	-0.446289	0.097798	0.017056	-0.001091	0.716248	0.221400	-0.659196	0.058575	82.195861	-75.985192	-59.184769
49135		9.854992	1.624712	-0.221912	0.808101	-0.516111	0.131676	0.040179	-0.203212	-0.090604	-0.931641	-0.472412	-0.448730	0.098559	0.016203	-0.002116	0.715551	0.221847	-0.659838	0.058178	82.709338	-75.955699	-59.693397
49136		9.874832	1.473279	-0.397409	1.012817	-0.601188	0.109688	0.065038	-0.187727	-0.076650	-0.942871	-0.479248	-0.444824	0.098758	0.014696	-0.003877	0.714872	0.222338	-0.660430	0.057935	83.196314	-75.931969	-60.159196
49137		9.920531	1.248169	-0.492578	1.176430	-0.786965	0.097618	0.113113	-0.143333	-0.066234	-0.940674	-0.479004	-0.437256	0.099213	0.012452	-0.004848	0.714283	0.222947	-0.660862	0.057932	83.605474	-75.910367	-60.517306
49138		9.935852	1.097193	-0.519460	1.248828	-0.924644	0.075704	0.171618	-0.104192	-0.065700	-0.937256	-0.476318	-0.445801	0.099365	0.010944	-0.005133	0.713756	0.223759	-0.661135	0.058174	83.958726	-75.886047	-60.782052
49139		9.941803	1.002981	-0.595131	1.346305	-0.989393	0.056869	0.252931	-0.075052	-0.083465	-0.945313	-0.478760	-0.441162	0.099424	0.009996	-0.005901	0.713240	0.224904	-0.661262	0.058648	84.294960	-75.849519	-60.982432
49140		10.740240	1.325157	0.432662	0.379090	-1.289085	0.933965	0.197920	0.127325	-0.089425	-0.941162	-0.479004	-0.442627	0.107411	0.013199	0.004271	0.713455	0.225818	-0.660674	0.059151	84.143853	-75.797881	-60.711819
49141		11.684446	1.698690	1.475043	-0.569019	-1.569020	1.968724	0.063005	0.534370	-0.051922	-0.933350	-0.473145	-0.444336	0.116888	0.016952	0.014444	0.715153	0.226000	-0.658714	0.059796	82.995100	-75.740680	-59.492556
49142		11.765728	2.209073	1.483533	-0.700157	-1.115000	2.178116	0.133885	0.608963	-0.024811	-0.929443	-0.479980	-0.444580	0.117704	0.022066	0.014492	0.717002	0.226327	-0.656491	0.060861	81.722590	-75.686980	-58.102613
49143		11.320566	3.170319	0.611635	-0.290108	0.200368	1.954041	0.322739	0.245208	-0.014110	-0.929199	-0.478027	-0.444336	0.113215	0.031685	0.006029	0.717436	0.227400	-0.655523	0.062167	81.368662	-75.665021	-57.549577
49144		10.481893	3.852582	0.396831	-0.465433	1.073041	1.300453	0.342312	0.066672	0.047346	-0.925781	-0.485352	-0.444092	0.104811	0.038544	0.003999	0.717239	0.228402	-0.655256	0.063560	81.402113	-75.692914	-57.383757
49145		9.733608	2.512771	0.504680	-0.142176	0.009100	0.251681	-0.079815	0.125062	0.200805	-0.926270	-0.483643	-0.451660	0.097314	0.025227	0.004976	0.717667	0.227364	-0.655088	0.064181	81.008957	-75.802358	-57.028394
49146		9.552670	0.802169	0.592361	0.435287	-1.480377	-0.332881	-0.180247	0.360972	0.187163	-0.923096	-0.478027	-0.449951	0.095530	0.008116	0.005744	0.718983	0.225939	-0.654087	0.064700	80.027670	-75.880778	-56.124774
49147		9.397731	0.784501	1.035165	0.048538	-1.618962	-0.464917	0.135295	0.468751	0.065060	-0.932373	-0.474854	-0.453613	0.093999	0.007869	0.010137	0.720331	0.226006	-0.652456	0.065925	79.028370	-75.875341	-55.017495
49148		9.245142	1.727716	0.890275	-0.181844	-0.675823	-0.391413	0.308497	0.252793	0.015238	-0.926514	-0.477295	-0.454102	0.092461	0.017271	0.008813	0.720790	0.226935	-0.651485	0.067299	78.633957	-75.862698	-54.430546
49149		9.303251	2.226744	0.233638	0.234597	0.033543	-0.246742	0.261167	0.068017	0.039630	-0.923828	-0.479980	-0.468750	0.093029	0.022283	0.002334	0.720693	0.227669	-0.651223	0.068389	78.613430	-75.884004	-54.258169
49150		9.369102	2.285020	-0.143575	0.563378	0.237279	-0.187289	0.137303	0.102836	0.085816	-0.922607	-0.479980	-0.457764	0.093680	0.022891	-0.001468	0.720832	0.227799	-0.650929	0.069289	78.422542	-75.927280	-53.982431
49151		9.274631	1.588696	-0.307835	0.979492	-0.278568	-0.453175	0.033672	0.158310	0.117321	-0.923340	-0.478760	-0.454834	0.092734	0.015942	-0.003149	0.721259	0.227429	-0.650506	0.070021	78.031335	-75.981316	-53.562372
49152		9.277191	0.987913	-0.381670	1.293457	-0.764278	-0.596900	0.083349	0.171736	0.101271	-0.922119	-0.478027	-0.456299	0.092764	0.009928	-0.003892	0.721676	0.227292	-0.649998	0.070880	77.643653	-76.024135	-53.115552
49153		9.381242	0.883507	-0.347840	1.328795	-0.877089	-0.518911	0.201858	0.170706	0.053031	-0.926025	-0.472412	-0.457764	0.093807	0.008864	-0.003550	0.721973	0.227733	-0.649397	0.071941	77.347906	-76.039365	-52.694704
49154		9.457338	1.211622	-0.390313	1.256835	-0.571678	-0.370487	0.304034	0.180472	0.034616	-0.928711	-0.477539	-0.461670	0.094568	0.012139	-0.003970	0.722189	0.228603	-0.648701	0.073286	77.098053	-76.042765	-52.259814
49155		9.511125	1.584335	-0.377062	1.110259	-0.248378	-0.230443	0.375785	0.153736	0.026285	-0.918701	-0.482422	-0.458008	0.095106	0.015863	-0.003814	0.722238	0.229764	-0.648064	0.074795	76.953079	-76.044411	-51.891662
49156		9.574905	1.923742	-0.373136	0.980162	0.044714	-0.088691	0.405583	0.091971	0.036701	-0.929199	-0.483154	-0.447510	0.095744	0.019263	-0.003736	0.722044	0.231026	-0.647647	0.076375	76.958791	-76.059909	-51.660078
49157		9.575021	2.132372	-0.323093	0.845923	0.212120	-0.036602	0.423232	0.063515	0.039626	-0.927002	-0.475342	-0.454346	0.095745	0.021350	-0.003216	0.721735	0.232347	-0.647327	0.077982	77.036426	-76.080590	-51.493315
49158		9.570322	2.155211	-0.196505	0.717382	0.183233	-0.028700	0.405781	0.087999	0.055012	-0.927490	-0.485596	-0.452881	0.095696	0.021582	-0.001963	0.721513	0.233549	-0.646942	0.079623	77.041674	-76.107041	-51.261217
49159		9.551331	1.907294	-0.159684	0.783064	-0.040061	-0.103084	0.375816	0.112961	0.054601	-0.920898	-0.483154	-0.448242	0.095507	0.019102	-0.001615	0.721407	0.234629	-0.646475	0.081188	76.972065	-76.129720	-50.970799
49160		9.517829	1.959636	0.003189	0.612450	-0.053660	-0.114683	0.410853	0.153413	0.015871	-0.920654	-0.483887	-0.454590	0.095177	0.019604	-0.000001	0.721401	0.235949	-0.645799	0.082781	76.852058	-76.125638	-50.606581
49161		9.434456	2.323902	0.245591	0.233269	0.175149	-0.097509	0.454062	0.159871	-0.010210	-0.923340	-0.490479	-0.450928	0.094348	0.023229	0.002433	0.721375	0.237498	-0.645048	0.084418	76.755446	-76.105781	-50.242163
49162		9.304928	2.613454	0.185850	0.144295	0.478663	-0.158857	0.427835	0.107720	-0.011101	-0.917969	-0.489258	-0.453125	0.093052	0.026125	0.001864	0.721206	0.238983	-0.644491	0.085913	76.762947	-76.092399	-49.999349
49163		9.324185	2.785963	0.085967	0.158930	0.668282	-0.105085	0.413663	0.065173	-0.022675	-0.914551	-0.495850	-0.449951	0.093245	0.027847	0.000887	0.720920	0.240465	-0.644078	0.087262	76.863787	-76.077980	-49.862151
49164		9.220838	2.956665	0.070096	0.077831	0.838287	-0.165831	0.376057	0.045155	-0.033967	-0.916992	-0.493896	-0.443604	0.092214	0.029550	0.000736	0.720616	0.241863	-0.643735	0.088433	76.994581	-76.060015	-49.776797
49165		9.141632	3.009463	0.022651	0.078829	0.914822	-0.232306	0.290421	0.009529	-0.038797	-0.916016	-0.492432	-0.441895	0.091422	0.030077	0.000266	0.720302	0.242976	-0.643553	0.089259	77.158307	-76.043875	-49.777133
49166		9.009910	2.921490	-0.067340	0.170858	0.897950	-0.384931	0.219528	-0.021572	-0.054957	-0.916260	-0.504395	-0.444580	0.090107	0.029191	-0.000632	0.719978	0.243905	-0.643494	0.089769	77.360378	-76.022820	-49.857618
49167		9.003075	2.836354	-0.118537	0.247311	0.840649	-0.413408	0.152738	-0.054417	-0.082638	-0.911865	-0.494141	-0.441895	0.090043	0.028327	-0.001139	0.719644	0.244692	-0.643548	0.089916	77.610121	-75.990097	-50.027901
49168		9.011523	2.667338	-0.156151	0.352137	0.700125	-0.446128	0.090319	-0.070226	-0.093090	-0.912109	-0.498779	-0.437500	0.090128	0.026632	-0.001518	0.719337	0.245302	-0.643673	0.089813	77.864480	-75.953316	-50.238501
49169		9.145461	2.501068	-0.153572	0.441315	0.519226	-0.354674	0.051373	-0.065969	-0.106088	-0.913574	-0.498291	-0.432373	0.091468	0.024963	-0.001499	0.719100	0.245804	-0.643785	0.089536	78.091092	-75.908478	-50.444869
49170		9.243843	2.468273	0.020354	0.316003	0.379440	-0.257711	0.038930	-0.056356	-0.112364	-0.914063	-0.495850	-0.437988	0.092452	0.024631	0.000234	0.718908	0.246285	-0.643860	0.089216	78.292120	-75.858942	-50.630875
49171		9.425800	2.551207	0.332920	0.030325	0.257842	-0.045509	0.035635	-0.067347	-0.119302	-0.906006	-0.504150	-0.432129	0.094272	0.025455	0.003365	0.718691	0.246773	-0.643968	0.088838	78.516036	-75.806474	-50.843850
49172		9.616732	2.692634	0.475172	-0.130460	0.264213	0.180848	0.026116	-0.069998	-0.109311	-0.912354	-0.507324	-0.435791	0.096180	0.026873	0.004789	0.718469	0.247203	-0.644100	0.088470	78.735504	-75.759822	-51.056628
49173		9.904968	2.863444	0.684590	-0.348997	0.245630	0.511761	0.017423	-0.075819	-0.108202	-0.899902	-0.502930	-0.430176	0.099063	0.028580	0.006886	0.718242	0.247594	-0.644259	0.088064	78.959832	-75.714130	-51.280886
49174		10.247136	3.123309	0.821634	-0.535443	0.327639	0.912977	0.001477	-0.069992	-0.090928	-0.907715	-0.506348	-0.437256	0.102483	0.031186	0.008252	0.718043	0.247878	-0.644424	0.087683	79.154588	-75.677327	-51.482607
49175		10.752376	3.304601	1.068714	-0.757924	0.261277	1.458223	-0.036383	-0.045688	-0.067745	-0.912598	-0.502441	-0.431396	0.107533	0.033012	0.010706	0.717961	0.247932	-0.644549	0.087286	79.262465	-75.650825	-51.618562
49176		11.001575	3.406328	1.014535	-0.718889	0.319972	1.721948	-0.017139	-0.047424	-0.040166	-0.907715	-0.506592	-0.434570	0.110020	0.034042	0.010169	0.717835	0.247973	-0.644704	0.087054	79.374201	-75.640074	-51.745966
49177		11.108369	3.568491	1.003589	-0.771250	0.439597	1.864174	0.022582	-0.085114	-0.003028	-0.911377	-0.497559	-0.428711	0.111080	0.035682	0.010087	0.717525	0.248047	-0.645024	0.087030	79.575541	-75.653999	-51.943534
49178		10.969304	3.341062	0.943415	-0.648388	0.299220	1.670709	-0.008195	-0.065150	0.065148	-0.912842	-0.507080	-0.427979	0.109679	0.033447	0.009469	0.717285	0.247788	-0.645370	0.087183	79.689053	-75.704280	-52.067558
49179		10.611477	2.893155	1.081045	-0.631811	-0.072356	1.220808	-0.026811	0.028118	0.110986	-0.905273	-0.504639	-0.428955	0.106100	0.028992	0.010792	0.717351	0.247268	-0.645446	0.087549	79.566186	-75.770652	-51.959728
49180		10.334654	2.465255	1.409172	-0.772890	-0.523961	0.864222	-0.023462	0.121807	0.146234	-0.907471	-0.496582	-0.436523	0.103337	0.024730	0.014026	0.717697	0.246612	-0.645227	0.088176	79.221163	-75.846940	-51.619452
49181		10.095707	2.137575	1.684440	-0.902760	-0.867353	0.568187	0.006014	0.143514	0.181100	-0.915039	-0.494141	-0.436768	0.100950	0.021467	0.016773	0.718063	0.245932	-0.644961	0.089041	78.824396	-75.939875	-51.209888
49182		9.852105	1.972535	1.761015	-0.931434	-0.977050	0.298386	0.068076	0.129311	0.184526	-0.910645	-0.493896	-0.437744	0.098514	0.019810	0.017553	0.718303	0.245474	-0.644720	0.090108	78.488889	-76.035824	-50.826120
49183		9.587933	2.182392	1.791558	-1.092164	-0.741204	0.094823	0.133243	0.107342	0.183135	-0.909668	-0.495605	-0.439209	0.095869	0.021900	0.017879	0.718393	0.245260	-0.644527	0.091346	78.236027	-76.132926	-50.490050
49184		9.430523	2.461860	1.857395	-1.301628	-0.485000	0.011566	0.137271	0.084701	0.176845	-0.911377	-0.499023	-0.431152	0.094291	0.024689	0.018551	0.718405	0.245096	-0.644404	0.092554	78.036541	-76.228944	-50.205718
49185		9.296572	2.551177	1.794455	-1.310323	-0.337975	-0.100652	0.107524	0.075483	0.172804	-0.913818	-0.491699	-0.429688	0.092950	0.025582	0.017923	0.718426	0.244837	-0.644323	0.093633	77.839424	-76.323470	-49.942478
49186		9.274184	2.585057	1.771315	-1.311399	-0.279128	-0.115632	0.105867	0.084208	0.143287	-0.910400	-0.498047	-0.429199	0.092731	0.025908	0.017688	0.718489	0.244669	-0.644172	0.094620	77.633556	-76.400274	-49.670032
49187		9.072747	2.622901	1.695982	-1.294411	-0.162517	-0.306437	0.085665	0.070324	0.112580	-0.904785	-0.495117	-0.430176	0.090719	0.026273	0.016939	0.718547	0.244528	-0.644045	0.095406	77.461010	-76.461315	-49.445125
49188		8.945980	2.614002	1.531705	-1.167823	-0.061559	-0.440277	0.066478	0.014855	0.070845	-0.921387	-0.488525	-0.436279	0.089452	0.026167	0.015319	0.718468	0.244485	-0.644073	0.095921	77.427185	-76.505871	-49.372837
49189		8.824691	2.554998	1.377384	-1.029291	-0.013545	-0.580096	0.050122	-0.038486	0.054876	-0.916992	-0.491699	-0.436035	0.088237	0.025571	0.013797	0.718247	0.244454	-0.644282	0.096252	77.516276	-76.548091	-49.438002
49190		8.795350	2.577922	1.274193	-0.960571	0.062540	-0.609382	0.060051	-0.043338	0.047704	-0.923828	-0.485352	-0.435303	0.087945	0.025796	0.012769	0.718000	0.244488	-0.644494	0.096590	77.626741	-76.586951	-49.518294
49191		8.762903	2.653439	1.240788	-0.978007	0.151637	-0.626325	0.035167	-0.050114	0.063480	-0.914795	-0.485352	-0.435547	0.087617	0.026560	0.012435	0.717755	0.244380	-0.644763	0.096889	77.731245	-76.635354	-49.608087
49192		8.822843	2.519294	1.206617	-0.887336	0.046351	-0.600966	-0.012561	-0.072758	0.096557	-0.914063	-0.490479	-0.436279	0.088212	0.025236	0.012097	0.717478	0.244010	-0.645175	0.097132	77.845804	-76.705055	-49.735438
49193		8.977434	2.410583	1.111601	-0.743194	-0.023837	-0.480593	-0.033952	-0.106838	0.093699	-0.914307	-0.483643	-0.429688	0.089757	0.024150	0.011160	0.717119	0.243584	-0.645717	0.097248	78.032054	-76.777087	-49.949854
49194		9.155299	2.470954	0.996121	-0.657940	0.054905	-0.300514	-0.000367	-0.156051	0.079992	-0.917969	-0.478271	-0.430664	0.091535	0.024746	0.010033	0.716565	0.243352	-0.646400	0.097369	78.364728	-76.846994	-50.293782
49195		9.361349	2.576969	0.858953	-0.575190	0.174031	-0.083749	0.001259	-0.224417	0.058275	-0.916504	-0.485107	-0.425781	0.093596	0.025797	0.008695	0.715799	0.243224	-0.647302	0.097329	78.877624	-76.911829	-50.822764
49196		9.558517	2.664180	0.604175	-0.385583	0.330399	0.115567	0.013037	-0.245315	0.043321	-0.919922	-0.488281	-0.415039	0.095572	0.026662	0.006161	0.714957	0.243201	-0.648253	0.097253	79.460037	-76.969382	-51.415087
49197		9.775556	2.757557	0.404772	-0.244727	0.461887	0.338972	0.013578	-0.207476	0.050584	-0.927979	-0.485107	-0.425293	0.097744	0.027600	0.004151	0.714233	0.243133	-0.649077	0.097245	79.952116	-77.025862	-51.915207
49198		9.812973	2.618142	0.303512	-0.105404	0.381530	0.340368	-0.021160	-0.133047	0.070397	-0.914795	-0.489014	-0.424805	0.098118	0.026216	0.003098	0.713781	0.242846	-0.649674	0.097293	80.237065	-77.085425	-52.221897
49199		9.661521	2.370291	0.176390	0.087515	0.257737	0.133180	-0.046657	-0.044246	0.063059	-0.925293	-0.486084	-0.427246	0.096607	0.023734	0.001780	0.713653	0.242443	-0.649959	0.097332	80.293331	-77.132034	-52.310117
49200		9.513333	2.321491	0.281063	-0.006130	0.198422	-0.018178	-0.031936	0.027037	0.055645	-0.921631	-0.482178	-0.425293	0.095127	0.023242	0.002794	0.713742	0.242088	-0.649971	0.097486	80.184844	-77.167507	-52.219535
49201		9.245657	2.220894	0.408223	-0.108995	0.106169	-0.296489	-0.048307	0.033474	0.060728	-0.922119	-0.475586	-0.426270	0.092450	0.022238	0.004061	0.713869	0.241648	-0.649977	0.097605	80.048301	-77.205208	-52.110964
49202		9.142162	2.077666	0.443021	-0.090601	-0.009142	-0.427391	-0.029666	-0.013179	0.057921	-0.929443	-0.479736	-0.426025	0.091415	0.020804	0.004433	0.713823	0.241312	-0.650135	0.097725	80.039181	-77.245926	-52.121188
49203		9.135581	2.106285	0.481646	-0.144876	0.002081	-0.426194	0.023922	-0.070033	0.048877	-0.932617	-0.484375	-0.421875	0.091349	0.021085	0.004851	0.713532	0.241218	-0.650460	0.097912	80.207059	-77.287113	-52.282320
49204		9.114175	2.095772	0.374858	-0.059648	0.047753	-0.453462	0.037589	-0.111803	0.049695	-0.921143	-0.478271	-0.417480	0.091134	0.020980	0.003803	0.713088	0.241198	-0.650926	0.098102	80.488524	-77.332639	-52.550764
49205		9.124039	1.986603	0.349253	0.000568	-0.037368	-0.468425	0.066089	-0.127618	0.041499	-0.930420	-0.486816	-0.429199	0.091234	0.019884	0.003557	0.712562	0.241307	-0.651427	0.098331	80.831550	-77.374675	-52.866583
49206		9.246905	1.910502	0.275450	0.102575	-0.092245	-0.367471	0.086992	-0.126596	0.030076	-0.930908	-0.488281	-0.421387	0.092464	0.019118	0.002821	0.712019	0.241534	-0.651897	0.098594	81.190631	-77.409707	-53.185417
49207		9.396839	1.861086	0.284937	0.123185	-0.169245	-0.231374	0.118887	-0.112526	0.014215	-0.927002	-0.480225	-0.420654	0.093965	0.018616	0.002913	0.711491	0.241912	-0.652284	0.098916	81.540135	-77.434135	-53.476794
49208		9.543964	1.883975	0.223927	0.173625	-0.150673	-0.084692	0.155250	-0.093105	0.006140	-0.930420	-0.480713	-0.412598	0.095438	0.018841	0.002298	0.710985	0.242443	-0.652572	0.099357	81.865153	-77.451983	-53.720568
49209		9.596588	1.952770	0.195936	0.163344	-0.091660	-0.019266	0.201293	-0.061632	-0.002519	-0.922607	-0.488037	-0.415283	0.095966	0.019524	0.002009	0.710530	0.243144	-0.652716	0.099949	82.140101	-77.462152	-53.887158
49210		9.574635	2.072799	0.215404	0.080750	0.002865	-0.014218	0.210109	-0.020063	-0.001841	-0.930420	-0.475586	-0.411133	0.095746	0.020725	0.002185	0.710199	0.243860	-0.652705	0.100631	82.314096	-77.469328	-53.943926
49211		9.482078	2.208396	0.156563	0.053772	0.162369	-0.077079	0.214657	0.025679	0.000458	-0.927002	-0.483643	-0.412598	0.094821	0.022082	0.001577	0.710010	0.244553	-0.652535	0.101383	82.373026	-77.474307	-53.881374
49212		9.255152	2.360146	0.205151	-0.089504	0.309588	-0.264580	0.213094	0.060716	0.003458	-0.931641	-0.484619	-0.406982	0.092552	0.023601	0.002049	0.709934	0.245219	-0.652241	0.102190	82.340487	-77.478354	-53.725065
49213		9.094958	2.350966	0.268502	-0.162270	0.300340	-0.421156	0.198530	0.041946	0.015301	-0.936768	-0.487305	-0.405029	0.090948	0.023514	0.002689	0.709809	0.245799	-0.652038	0.102962	82.343393	-77.490519	-53.614596
49214		8.951038	2.345686	0.257110	-0.172326	0.325995	-0.563176	0.186006	-0.019828	0.005927	-0.930908	-0.487305	-0.414551	0.089509	0.023457	0.002602	0.709500	0.246403	-0.652046	0.103591	82.500790	-77.502071	-53.668508
49215		8.952635	2.291784	0.178291	-0.086810	0.313702	-0.575384	0.195707	-0.093532	-0.003980	-0.933838	-0.485352	-0.411133	0.089526	0.022914	0.001847	0.708945	0.247105	-0.652300	0.104119	82.856054	-77.513312	-53.920606
49216		8.965767	2.223053	0.036241	0.056847	0.313666	-0.580862	0.194695	-0.171117	-0.014027	-0.925537	-0.479248	-0.405762	0.089659	0.022224	0.000461	0.708142	0.247882	-0.652813	0.104518	83.413742	-77.523701	-54.379622
49217		9.120587	2.157988	-0.145735	0.246998	0.308754	-0.447493	0.174198	-0.215341	-0.014912	-0.931641	-0.483154	-0.410645	0.091209	0.021574	-0.001340	0.707220	0.248606	-0.653494	0.104785	84.074815	-77.535303	-54.957519
49218		9.225475	2.097832	-0.256912	0.365082	0.281470	-0.359448	0.163140	-0.214050	-0.017655	-0.931885	-0.486572	-0.397461	0.092259	0.020972	-0.002453	0.706316	0.249303	-0.654170	0.105013	84.727777	-77.543854	-55.532794
49219		9.334230	2.056024	-0.381870	0.487715	0.276841	-0.263532	0.161318	-0.188077	-0.010031	-0.936523	-0.479248	-0.391846	0.093347	0.020559	-0.003714	0.705494	0.249950	-0.654765	0.105290	85.311831	-77.554107	-56.039330
49220		9.360502	2.027047	-0.430635	0.528940	0.262374	-0.243741	0.163469	-0.170576	0.000612	-0.933105	-0.482422	-0.398926	0.093609	0.020274	-0.004210	0.704718	0.250566	-0.655308	0.105638	85.850921	-77.568632	-56.497575
49221		9.387324	1.981193	-0.378880	0.491264	0.185424	-0.225468	0.166357	-0.163319	0.009743	-0.934570	-0.484619	-0.385742	0.093875	0.019820	-0.003696	0.703959	0.251153	-0.655836	0.106032	86.372106	-77.587143	-56.936723
49222		9.385741	1.907181	-0.408923	0.534993	0.130514	-0.242243	0.175482	-0.162287	0.011654	-0.939697	-0.489014	-0.395508	0.093860	0.019081	-0.003996	0.703188	0.251769	-0.656356	0.106468	86.897166	-77.605873	-57.373554
49223		9.397080	1.873868	-0.384114	0.513507	0.081114	-0.237003	0.185823	-0.150746	0.009257	-0.940186	-0.488770	-0.395508	0.093973	0.018747	-0.003753	0.702444	0.252419	-0.656827	0.106939	87.399547	-77.622035	-57.781970
49224		9.311114	1.813163	-0.378411	0.513064	0.036233	-0.333076	0.191700	-0.111595	0.000132	-0.942383	-0.493896	-0.376709	0.093113	0.018135	-0.003715	0.701823	0.253102	-0.657143	0.107452	87.805065	-77.631334	-58.086911
49225		9.286340	1.843618	-0.319598	0.433244	0.032437	-0.349684	0.199506	-0.069544	-0.007847	-0.937988	-0.484375	-0.381836	0.092865	0.018436	-0.003145	0.701336	0.253812	-0.657299	0.108010	88.106459	-77.634807	-58.281509
49226		9.158670	1.899675	-0.295139	0.362636	0.086111	-0.461849	0.199556	-0.044655	-0.034753	-0.932861	-0.486328	-0.378662	0.091591	0.018984	-0.002912	0.700942	0.254603	-0.657331	0.108512	88.345760	-77.622249	-58.411385
49227		9.090235	2.031965	-0.163382	0.170931	0.138348	-0.499279	0.226752	-0.033593	-0.058432	-0.933594	-0.493896	-0.385742	0.090909	0.020295	-0.001596	0.700563	0.255554	-0.657280	0.109028	88.572340	-77.595829	-58.513419
49228		9.020472	2.125390	-0.199655	0.144354	0.239840	-0.547284	0.213050	-0.040425	-0.081686	-0.931152	-0.491211	-0.372314	0.090214	0.021219	-0.001956	0.700191	0.256542	-0.657227	0.109414	88.809649	-77.556069	-58.633505
49229		9.012616	2.241043	-0.156945	0.045654	0.306831	-0.529481	0.211451	-0.051464	-0.100908	-0.935303	-0.490967	-0.378418	0.090138	0.022367	-0.001523	0.699794	0.257589	-0.657191	0.109707	89.074133	-77.505322	-58.783368
49230		8.997613	2.337712	-0.142519	-0.020446	0.371045	-0.522685	0.186158	-0.070689	-0.117544	-0.945313	-0.491211	-0.379883	0.089990	0.023326	-0.001372	0.699374	0.258617	-0.657212	0.109841	89.372952	-77.445038	-58.982267
49231		9.060764	2.444410	-0.021174	-0.174910	0.373260	-0.437022	0.182857	-0.070326	-0.129073	-0.936035	-0.492920	-0.377930	0.090623	0.024386	-0.000158	0.698967	0.259666	-0.657220	0.109917	89.666322	-77.377921	-59.178584
49232		9.202920	2.504508	0.140091	-0.331607	0.300285	-0.284531	0.153298	-0.075056	-0.123534	-0.935547	-0.502686	-0.370361	0.092044	0.024987	0.001455	0.698577	0.260598	-0.657265	0.109914	89.952405	-77.313834	-59.384165
49233		9.318901	2.351939	0.116949	-0.227229	0.147183	-0.204675	0.127418	-0.087975	-0.117383	-0.932617	-0.495850	-0.372070	0.093202	0.023464	0.001225	0.698176	0.261424	-0.657378	0.109826	90.253842	-77.252964	-59.621413
49234		9.375963	2.252971	0.063906	-0.132329	0.064422	-0.170750	0.126319	-0.134006	-0.120246	-0.936035	-0.502441	-0.365479	0.093773	0.022473	0.000716	0.697624	0.262286	-0.657647	0.109670	90.668407	-77.189876	-59.974347
49235		9.413573	2.221035	0.002576	-0.070195	0.042313	-0.140998	0.171016	-0.197473	-0.134425	-0.933105	-0.506104	-0.365967	0.094151	0.022147	0.000138	0.696813	0.263379	-0.658094	0.109522	91.262715	-77.117407	-60.486486
49236		9.479038	2.249222	-0.141562	0.031164	0.103215	-0.070023	0.162005	-0.259670	-0.143948	-0.930420	-0.506348	-0.364258	0.094808	0.022425	-0.001274	0.695811	0.264512	-0.658747	0.109236	92.000144	-77.037085	-61.149791
49237		9.550898	2.258166	-0.388127	0.227871	0.196228	0.004598	0.178718	-0.273275	-0.159013	-0.935791	-0.503906	-0.365723	0.095532	0.022509	-0.003731	0.694750	0.265753	-0.659418	0.108927	92.769802	-76.945933	-61.837701
49238		9.474010	2.444840	-0.535981	0.235890	0.415925	-0.025315	0.187780	-0.233029	-0.175459	-0.934570	-0.508301	-0.351563	0.094768	0.024370	-0.005226	0.693815	0.267062	-0.659919	0.108650	93.433540	-76.844653	-62.410931
49239		9.395093	2.601619	-0.563545	0.160400	0.550538	-0.064616	0.160554	-0.171289	-0.195286	-0.938232	-0.512939	-0.356445	0.093981	0.025929	-0.005534	0.693131	0.268302	-0.660194	0.108291	93.919143	-76.733042	-62.818321
49240		9.255136	2.796807	-0.554697	0.033735	0.712935	-0.154639	0.124391	-0.117132	-0.202375	-0.937256	-0.517578	-0.350830	0.092583	0.027878	-0.005475	0.692675	0.269417	-0.660289	0.107866	94.245799	-76.618890	-63.082824
49241		9.211739	2.877610	-0.541256	-0.025216	0.759385	-0.176693	0.079501	-0.108805	-0.210555	-0.935547	-0.517578	-0.350586	0.092151	0.028681	-0.005351	0.692311	0.270393	-0.660368	0.107270	94.519992	-76.500153	-63.320986
49242		9.261947	2.898706	-0.502087	-0.065533	0.722995	-0.121909	0.035014	-0.135415	-0.211701	-0.928223	-0.509033	-0.339355	0.092653	0.028890	-0.004953	0.691918	0.271239	-0.660559	0.106492	94.827368	-76.379149	-63.618523
49243		9.262408	2.808845	-0.565794	0.031765	0.657543	-0.139605	0.002513	-0.162761	-0.197477	-0.928955	-0.513428	-0.349854	0.092656	0.027997	-0.005582	0.691472	0.271932	-0.660882	0.105614	95.177213	-76.264589	-63.980182
49244		9.339823	2.815223	-0.615137	0.075092	0.648407	-0.060250	-0.028543	-0.168643	-0.190495	-0.937500	-0.518311	-0.347412	0.093430	0.028062	-0.006077	0.691042	0.272503	-0.661250	0.104654	95.519213	-76.153184	-64.351422
49245		9.383832	2.885700	-0.593655	0.022986	0.665067	0.000218	-0.070832	-0.140120	-0.165541	-0.934082	-0.527100	-0.343018	0.093866	0.028777	-0.005881	0.690751	0.272825	-0.661575	0.103674	95.771213	-76.057157	-64.655912
49246		9.447170	2.796870	-0.557835	0.043408	0.542563	0.040556	-0.145373	-0.104880	-0.128517	-0.935547	-0.526367	-0.345703	0.094493	0.027904	-0.005549	0.690657	0.272755	-0.661865	0.102628	95.905828	-75.983947	-64.882558
49247		9.649924	2.678479	-0.483028	0.063638	0.350319	0.207384	-0.192648	-0.035349	-0.109380	-0.928711	-0.517090	-0.349121	0.096515	0.026727	-0.004839	0.690849	0.272416	-0.661966	0.101582	95.857638	-75.925779	-64.949752
49248		9.777429	2.770599	-0.395495	-0.035276	0.347713	0.351396	-0.201767	0.026859	-0.098191	-0.925537	-0.516113	-0.349121	0.097787	0.027654	-0.003996	0.691251	0.271982	-0.661869	0.100633	95.666085	-75.877513	-64.873675
49249		9.835560	2.842263	-0.222164	-0.199066	0.304917	0.421248	-0.257014	0.096335	-0.084185	-0.926758	-0.515869	-0.351074	0.098366	0.028378	-0.002306	0.691951	0.271270	-0.661580	0.099640	95.289544	-75.841033	-64.640318
49250		10.095483	2.867604	-0.052435	-0.307413	0.187300	0.676118	-0.313118	0.193973	-0.078834	-0.929688	-0.523193	-0.356445	0.100966	0.028635	-0.000667	0.693045	0.270300	-0.660985	0.098615	94.663254	-75.811914	-64.181809
49251		10.153679	2.904327	0.258434	-0.554837	0.059550	0.736605	-0.334865	0.297608	-0.075138	-0.926514	-0.517334	-0.355713	0.101551	0.029009	0.002385	0.694507	0.269187	-0.660045	0.097667	93.793299	-75.787872	-63.485437
49252		10.226823	2.943189	0.548018	-0.776770	-0.053170	0.814835	-0.374501	0.334477	-0.072929	-0.924805	-0.522949	-0.357178	0.102288	0.029405	0.005254	0.696137	0.267915	-0.658994	0.096650	92.820888	-75.763459	-62.705840
49253		10.355683	2.794330	0.703778	-0.784396	-0.265623	0.904484	-0.389661	0.310277	-0.062570	-0.920410	-0.510498	-0.372803	0.103576	0.027924	0.006823	0.697700	0.266560	-0.658046	0.095581	91.897932	-75.741352	-61.987031
49254		10.584534	2.858186	0.867801	-0.892963	-0.325236	1.144107	-0.378691	0.291862	-0.062458	-0.913574	-0.509033	-0.368652	0.105867	0.028565	0.008469	0.699182	0.265256	-0.657151	0.094528	91.025676	-75.716169	-61.313124
49255		10.644345	2.809929	0.977502	-0.921711	-0.414332	1.193308	-0.388166	0.276599	-0.041849	-0.921631	-0.513428	-0.373779	0.106463	0.028096	0.009573	0.700614	0.263851	-0.656339	0.093491	90.185041	-75.700326	-60.678240
49256		10.593242	2.537470	0.906717	-0.700688	-0.577020	1.080136	-0.407000	0.307072	-0.017599	-0.917480	-0.516357	-0.380371	0.105948	0.025384	0.008853	0.702154	0.262290	-0.655456	0.092521	89.266679	-75.695813	-59.973425
49257		10.460673	2.586175	0.984871	-0.771041	-0.523325	0.967638	-0.338225	0.341898	-0.030712	-0.913574	-0.501953	-0.393066	0.104627	0.025862	0.009626	0.703721	0.260991	-0.654399	0.091771	88.310679	-75.680598	-59.189894
49258		10.214037	2.434333	1.059735	-0.761361	-0.614933	0.695292	-0.333020	0.284933	-0.012996	-0.908691	-0.513672	-0.389893	0.102157	0.024354	0.010411	0.705083	0.259681	-0.653558	0.091029	87.485536	-75.673624	-58.537600
49259		10.100070	2.122217	0.908973	-0.472547	-0.766162	0.508703	-0.289100	0.177448	-0.021332	-0.911865	-0.503174	-0.403076	0.101011	0.021224	0.008969	0.706037	0.258596	-0.653064	0.090258	86.928057	-75.663027	-58.136269
49260		9.907536	2.185665	0.723994	-0.349609	-0.573532	0.336667	-0.176884	0.085713	-0.030250	-0.912598	-0.501709	-0.401855	0.099082	0.021848	0.007178	0.706549	0.257983	-0.652829	0.089707	86.641787	-75.649431	-57.947709
49261		9.849581	2.238914	0.420849	-0.110761	-0.368401	0.289594	-0.114103	-0.032615	-0.033417	-0.913086	-0.503418	-0.390869	0.098499	0.022375	0.004212	0.706596	0.257650	-0.652981	0.089193	86.656717	-75.637991	-58.033696
49262		9.940172	2.286933	-0.072260	0.306738	-0.115945	0.382153	-0.095235	-0.152738	-0.059786	-0.918945	-0.507813	-0.398926	0.099409	0.022839	-0.000658	0.706236	0.257527	-0.653513	0.088496	86.953725	-75.615182	-58.399033
49263		10.136304	2.390417	-0.760145	0.881903	0.249329	0.589074	-0.142559	-0.114074	-0.081131	-0.911621	-0.509521	-0.404785	0.101377	0.023858	-0.007561	0.706073	0.257285	-0.653903	0.087616	87.138740	-75.578698	-58.677476
49264		9.931879	2.476519	-1.228285	1.232929	0.583379	0.406098	-0.135009	0.094914	-0.082248	-0.908447	-0.504883	-0.405273	0.099323	0.024716	-0.012347	0.706583	0.256986	-0.653547	0.087029	86.863264	-75.535272	-58.475229
49265		9.588480	2.702390	-1.204969	1.088702	0.840239	0.127254	-0.177239	0.298350	-0.109735	-0.910645	-0.507568	-0.404785	0.095881	0.026961	-0.012217	0.707823	0.256534	-0.652457	0.086464	86.119667	-75.468639	-57.815161
49266		9.301828	3.112918	-0.792434	0.539086	1.063533	-0.044354	-0.203361	0.404135	-0.119131	-0.907715	-0.499512	-0.404053	0.093020	0.031066	-0.008144	0.709442	0.255979	-0.650987	0.085919	85.137601	-75.389455	-56.923239
49267		9.344656	3.413323	-0.317905	0.035061	1.097338	0.080182	-0.234189	0.400925	-0.108951	-0.908203	-0.504883	-0.409180	0.093458	0.034078	-0.003406	0.711083	0.255276	-0.649553	0.085302	84.152772	-75.312495	-56.047108
49268		9.425128	3.542204	-0.141046	-0.126747	1.118110	0.194000	-0.251519	0.303758	-0.095800	-0.896973	-0.498779	-0.419189	0.094266	0.035375	-0.001598	0.712420	0.254513	-0.648484	0.084555	83.374845	-75.245603	-55.394181
49269		9.654573	3.592427	-0.244752	0.008852	1.170023	0.424847	-0.237564	0.219205	-0.094373	-0.912109	-0.507080	-0.417725	0.096560	0.035876	-0.002596	0.713463	0.253826	-0.647711	0.083746	82.792317	-75.183465	-54.935578
49270		9.964501	3.597854	-0.310450	0.141868	1.146944	0.722800	-0.242777	0.243037	-0.102134	-0.906006	-0.487305	-0.425049	0.099659	0.035924	-0.003269	0.714590	0.253139	-0.646843	0.082926	82.162838	-75.113787	-54.430700
49271		10.154338	3.345328	-0.291625	0.303878	0.890565	0.841008	-0.308164	0.313448	-0.095131	-0.906006	-0.500488	-0.427490	0.101554	0.033400	-0.003127	0.716022	0.252161	-0.645757	0.082005	81.349356	-75.040781	-53.774655
49272		10.095074	2.552506	-0.266376	0.668245	0.223889	0.579611	-0.360729	0.404909	-0.071641	-0.899414	-0.500000	-0.428711	0.100954	0.025484	-0.002914	0.717802	0.250883	-0.644391	0.081115	80.312638	-74.969900	-52.918113
49273		9.750039	1.786737	-0.019899	0.780104	-0.460364	0.058249	-0.326134	0.460069	-0.057676	-0.890869	-0.491211	-0.450684	0.097505	0.017839	-0.000452	0.719705	0.249657	-0.642825	0.080453	79.183793	-74.897184	-51.945700
49274		9.261283	1.422372	0.408224	0.526333	-0.852086	-0.487566	-0.214948	0.481041	-0.021323	-0.896240	-0.500000	-0.448730	0.092624	0.014218	0.003844	0.721516	0.248707	-0.641179	0.080308	78.070049	-74.837479	-50.922162
49275		8.981463	1.764588	0.766580	0.051359	-0.646889	-0.650434	-0.078573	0.382679	-0.023075	-0.887695	-0.491699	-0.449707	0.089831	0.017638	0.007487	0.722839	0.248290	-0.639829	0.080468	77.245324	-74.784437	-50.117338
49276		9.409412	2.747400	1.085467	-0.560824	-0.020327	0.033557	0.018062	0.201383	-0.021576	-0.891846	-0.494385	-0.453613	0.094108	0.027463	0.010762	0.723460	0.248293	-0.639094	0.080720	76.851857	-74.753191	-49.701387
49277		10.380088	2.855319	0.999082	-0.356789	-0.073489	0.993076	-0.078833	0.037574	0.055874	-0.895264	-0.491943	-0.451904	0.103795	0.028586	0.009960	0.723646	0.247760	-0.639087	0.080737	76.701274	-74.786180	-49.595240
49278		11.202206	2.051753	0.671754	0.426895	-0.767247	1.561820	-0.094913	0.136610	0.084011	-0.887695	-0.494873	-0.457031	0.112018	0.020568	0.006631	0.724156	0.247042	-0.638763	0.080929	76.324083	-74.821404	-49.263382
49279		11.169002	1.775054	1.040981	0.238183	-1.147944	1.483612	-0.016196	0.411142	0.050579	-0.885498	-0.494385	-0.458496	0.111707	0.017780	0.010179	0.725459	0.246602	-0.637370	0.081588	75.445396	-74.798813	-48.365607
49280		10.778514	1.926045	1.718576	-0.450136	-1.223734	1.193632	-0.061832	0.546398	0.055334	-0.890869	-0.486328	-0.467041	0.107826	0.019296	0.016885	0.727241	0.245927	-0.635507	0.082289	74.267052	-74.754318	-47.183637
49281		10.616044	1.842599	2.270567	-0.883091	-1.484270	1.062415	-0.104345	0.517877	0.110920	-0.884766	-0.490479	-0.473389	0.106208	0.018497	0.022421	0.728958	0.244928	-0.633829	0.083017	73.094616	-74.738694	-46.033465
49282		10.406524	1.452067	2.417452	-0.842652	-1.816017	0.781658	-0.068603	0.423582	0.111392	-0.880615	-0.489258	-0.476807	0.104108	0.014587	0.023949	0.730327	0.244097	-0.632476	0.083747	72.133553	-74.733808	-45.080720
49283		10.225691	1.551274	2.513377	-0.970851	-1.716792	0.646674	0.062741	0.347203	0.021391	-0.880859	-0.488037	-0.479492	0.102299	0.015516	0.024961	0.731329	0.244060	-0.631235	0.084468	71.460442	-74.690065	-44.348755
49284		9.985975	2.057951	2.669271	-1.346188	-1.295007	0.559899	0.150107	0.244282	-0.008638	-0.881836	-0.486816	-0.478760	0.099893	0.020555	0.026586	0.731910	0.244482	-0.630295	0.085232	71.064920	-74.647141	-43.852054
49285		9.761868	2.189790	2.501953	-1.280842	-1.057139	0.365274	0.102442	0.171151	-0.009123	-0.887695	-0.487305	-0.479004	0.097641	0.021881	0.024947	0.732319	0.244759	-0.629641	0.085751	70.788557	-74.616910	-43.507678
49286		9.491311	2.343753	2.218257	-1.133712	-0.739980	0.120385	0.154230	0.208893	-0.051159	-0.877930	-0.487549	-0.487549	0.094942	0.023396	0.022101	0.732800	0.245345	-0.628775	0.086329	70.498322	-74.556320	-43.117612
49287		9.224204	2.812540	2.333577	-1.469100	-0.339096	-0.006128	0.157809	0.296583	-0.069238	-0.880859	-0.489014	-0.483154	0.092286	0.028075	0.023221	0.733559	0.245959	-0.627562	0.086956	70.055436	-74.468379	-42.567322
49288		8.931044	2.725220	2.356557	-1.479717	-0.366029	-0.303739	-0.000617	0.377792	-0.052568	-0.877686	-0.485596	-0.491699	0.089362	0.027229	0.023397	0.734758	0.245906	-0.626138	0.087249	69.359605	-74.371764	-41.848052
49289		8.542193	2.347200	2.388266	-1.382208	-0.622266	-0.763692	-0.144703	0.512913	-0.054332	-0.874512	-0.486572	-0.499268	0.085489	0.023466	0.023646	0.736553	0.245266	-0.624277	0.087248	68.336193	-74.243421	-40.874251
49290		8.125747	2.013281	2.398040	-1.284561	-0.820827	-1.239032	-0.191803	0.597674	-0.072095	-0.869873	-0.482910	-0.498779	0.081336	0.020126	0.023718	0.738673	0.244471	-0.622095	0.087139	67.158435	-74.082181	-39.767151
49291		7.837451	2.072125	2.481193	-1.395507	-0.740692	-1.483258	-0.068831	0.581528	-0.114404	-0.871826	-0.486816	-0.509521	0.078458	0.020685	0.024577	0.740604	0.244265	-0.619863	0.087234	66.137704	-73.896638	-38.749377
49292		7.735612	2.362212	2.587205	-1.596329	-0.513792	-1.487964	0.053424	0.377979	-0.125243	-0.868896	-0.487061	-0.508545	0.077420	0.023567	0.025732	0.741755	0.244634	-0.618313	0.087421	65.581719	-73.749223	-38.141470
49293		7.874802	2.455527	2.428346	-1.446550	-0.382005	-1.345071	0.005530	0.098801	-0.077436	-0.866455	-0.491211	-0.508545	0.078769	0.024524	0.024245	0.742078	0.244798	-0.617878	0.087293	65.465231	-73.692085	-38.019936
49294		8.249175	2.456455	1.848756	-0.857730	-0.179975	-1.052959	0.073076	-0.156821	-0.077550	-0.866699	-0.491943	-0.513672	0.082487	0.024526	0.018561	0.741530	0.245326	-0.618360	0.087063	65.842907	-73.695252	-38.372592
49295		8.848729	2.920609	1.461709	-0.601773	0.283343	-0.403964	0.245529	-0.186744	-0.077790	-0.858154	-0.499023	-0.499756	0.088485	0.029154	0.014736	0.740675	0.246505	-0.618878	0.087326	66.373920	-73.704540	-38.782394
49296		9.369817	3.282541	1.211993	-0.440747	0.610846	0.160781	0.158728	-0.063266	0.023799	-0.870850	-0.494873	-0.501221	0.093690	0.032827	0.012176	0.740265	0.246997	-0.619098	0.087853	66.553676	-73.738110	-38.877548
49297		10.069786	3.261225	1.282264	-0.343386	0.441568	0.834729	-0.078812	0.085488	0.083919	-0.867676	-0.495117	-0.500244	0.100690	0.032660	0.012767	0.740581	0.246355	-0.618948	0.088046	66.282634	-73.769291	-38.645386
49298		10.178219	3.031964	1.505324	-0.402802	0.141725	0.905172	-0.186897	0.252905	0.138182	-0.870850	-0.495117	-0.510254	0.101780	0.030404	0.014896	0.741523	0.245073	-0.618290	0.088316	65.603265	-73.789104	-38.052019
49299		10.124427	2.909349	1.887195	-0.675724	-0.104220	0.867306	-0.244605	0.246220	0.136396	-0.868652	-0.490234	-0.507080	0.101247	0.029185	0.018712	0.742514	0.243583	-0.617680	0.088388	64.903279	-73.807714	-37.472149
49300		10.010180	2.798987	2.091129	-0.817751	-0.246488	0.755250	-0.258921	0.130660	0.142477	-0.872314	-0.493408	-0.522217	0.100095	0.028088	0.020810	0.743160	0.242073	-0.617508	0.088302	64.393926	-73.855974	-37.098921
49301		9.925946	2.768250	2.017495	-0.755026	-0.199272	0.658611	-0.244407	0.033267	0.139376	-0.865479	-0.489746	-0.526611	0.099243	0.027776	0.020125	0.743488	0.240667	-0.617689	0.088127	64.067507	-73.926276	-36.908037
49302		9.714799	2.786694	1.873141	-0.686743	-0.060247	0.442866	-0.220277	-0.030380	0.137693	-0.865967	-0.485840	-0.518799	0.097126	0.027954	0.018715	0.743590	0.239385	-0.618090	0.087946	63.867661	-74.011292	-36.834128
49303		9.327265	2.710097	1.701401	-0.596169	0.036046	0.030103	-0.251602	-0.049188	0.161962	-0.875244	-0.475342	-0.528076	0.093246	0.027198	0.017003	0.743657	0.237918	-0.618605	0.087734	63.661407	-74.113652	-36.772664
49304		8.986986	2.539434	1.628105	-0.543015	-0.002972	-0.348521	-0.273516	-0.069505	0.181265	-0.874023	-0.466309	-0.521240	0.089841	0.025498	0.016277	0.743679	0.236319	-0.619224	0.087503	63.459567	-74.230886	-36.728588
49305		8.640754	2.257414	1.563537	-0.454748	-0.143523	-0.758641	-0.286710	-0.119705	0.198432	-0.880127	-0.475830	-0.524658	0.086376	0.022682	0.015655	0.743550	0.234637	-0.620056	0.087233	63.325113	-74.369914	-36.762674
49306		8.390558	1.990701	1.370106	-0.243573	-0.231619	-1.087522	-0.264632	-0.200351	0.189641	-0.886475	-0.479004	-0.520264	0.083873	0.020005	0.013759	0.743147	0.233101	-0.621163	0.086906	63.358963	-74.525034	-36.958105
49307		8.334443	2.007424	1.339174	-0.257774	-0.183388	-1.141704	-0.197105	-0.266169	0.154825	-0.882568	-0.462891	-0.513184	0.083311	0.020152	0.013483	0.742472	0.231950	-0.622445	0.086581	63.590397	-74.679171	-37.318400
49308		8.362030	2.056579	1.109141	-0.095428	-0.035519	-1.130935	-0.187506	-0.324472	0.133198	-0.893799	-0.468018	-0.522461	0.083588	0.020632	0.011208	0.741612	0.230929	-0.623909	0.086140	63.963442	-74.836287	-37.819024
49309		8.581800	2.114649	0.954375	0.035158	0.051983	-0.923038	-0.183105	-0.320017	0.113314	-0.885986	-0.468994	-0.513184	0.085791	0.021204	0.009662	0.740766	0.229980	-0.625332	0.085641	64.358545	-74.981308	-38.340001
49310		8.671408	2.167992	0.924514	0.033881	0.099305	-0.827300	-0.200224	-0.248390	0.080825	-0.889160	-0.464111	-0.512695	0.086694	0.021724	0.009331	0.740176	0.229041	-0.626455	0.085053	64.642159	-75.090883	-38.754975
49311		8.762560	1.825472	0.845973	0.244902	-0.179083	-0.827232	-0.266230	-0.200489	0.083821	-0.894287	-0.451660	-0.514648	0.087609	0.018303	0.008523	0.739806	0.227825	-0.627433	0.084322	64.796953	-75.190048	-39.076040
49312		8.851139	1.482546	0.811680	0.418657	-0.477192	-0.824004	-0.237293	-0.164750	0.058853	-0.889404	-0.461426	-0.516113	0.088500	0.014861	0.008172	0.739526	0.226780	-0.628234	0.083631	64.923125	-75.267222	-39.349966
49313		8.900508	1.292760	0.808860	0.494658	-0.650873	-0.819568	-0.165500	-0.165856	0.024400	-0.889160	-0.462402	-0.506348	0.088997	0.012945	0.008152	0.739173	0.226107	-0.628971	0.083035	65.127330	-75.326705	-39.662216
49314		8.920318	1.208146	0.722352	0.596497	-0.694023	-0.828480	-0.117173	-0.175538	-0.005915	-0.901611	-0.455322	-0.517090	0.089197	0.012083	0.007295	0.738747	0.225715	-0.629686	0.082471	65.407646	-75.372238	-40.023856
49315		8.751767	1.144432	0.461431	0.809306	-0.614838	-1.032992	-0.052716	-0.175337	-0.021905	-0.884277	-0.453857	-0.508545	0.087515	0.011436	0.004688	0.738253	0.225608	-0.630358	0.082048	65.741737	-75.409049	-40.403417
49316		8.584927	1.099641	0.270326	0.952231	-0.552399	-1.223662	0.011922	-0.203833	-0.043952	-0.898193	-0.458252	-0.501709	0.085849	0.010977	0.002791	0.737607	0.225822	-0.631081	0.081717	66.190982	-75.440211	-40.863337
49317		8.429337	1.112713	0.120763	1.034424	-0.461311	-1.385140	0.073276	-0.249044	-0.047462	-0.895996	-0.451660	-0.504150	0.084294	0.011107	0.001317	0.736748	0.226290	-0.631942	0.081513	66.773106	-75.478927	-41.424445
49318		8.433608	1.136919	0.082165	1.038452	-0.437806	-1.377348	0.150510	-0.321524	-0.050214	-0.899414	-0.461426	-0.504395	0.084337	0.011347	0.000966	0.735572	0.227082	-0.633033	0.081464	67.552663	-75.530567	-42.143251
49319		8.428982	1.206136	0.238108	0.844377	-0.459758	-1.348955	0.189434	-0.335577	-0.036821	-0.896973	-0.466797	-0.500000	0.084288	0.012043	0.002534	0.734299	0.227978	-0.634174	0.081569	68.378604	-75.589875	-42.887148
49320		8.133189	0.902270	0.008606	1.091115	-0.592323	-1.724334	0.196868	-0.398432	-0.002141	-0.908691	-0.462402	-0.497070	0.081332	0.009022	0.000257	0.732802	0.228819	-0.635578	0.081756	69.318500	-75.677761	-43.743486
49321		8.097592	0.823481	-0.159489	1.233028	-0.599007	-1.788023	0.322911	-0.492430	-0.029593	-0.906006	-0.464600	-0.491943	0.080981	0.008225	-0.001382	0.730867	0.230243	-0.637241	0.082131	70.563150	-75.765358	-44.839987
49322		8.222854	0.927371	-0.459258	1.436465	-0.420080	-1.661239	0.495532	-0.623439	-0.052626	-0.912354	-0.458740	-0.486816	0.082245	0.009263	-0.004313	0.728318	0.232423	-0.639275	0.082823	72.219402	-75.857514	-46.258201
49323		8.806005	0.860464	-0.438271	1.491544	-0.619286	-1.102369	0.471573	-0.678977	-0.044013	-0.912354	-0.472900	-0.479248	0.088076	0.008595	-0.004063	0.725602	0.234507	-0.641524	0.083401	73.998222	-75.953186	-47.816739
49324		9.395281	0.908529	-0.513156	1.586078	-0.677439	-0.518317	0.333620	-0.468681	-0.076661	-0.906738	-0.475098	-0.470703	0.093968	0.009058	-0.004896	0.723728	0.236104	-0.643018	0.083665	75.268986	-75.988788	-48.932394
49325		9.564091	1.763631	-0.245965	0.979937	-0.105738	-0.134300	0.493240	-0.243221	-0.139466	-0.916016	-0.475342	-0.464844	0.095656	0.017575	-0.002300	0.722410	0.238384	-0.643553	0.084479	76.169037	-75.952479	-49.571910
49326		9.182903	2.680763	0.203067	0.103532	0.535461	-0.259892	0.517728	-0.208835	-0.134518	-0.912598	-0.478516	-0.458496	0.091845	0.026740	0.002196	0.721166	0.240723	-0.643951	0.085434	76.999377	-75.912049	-50.124705
49327		9.063814	2.868451	0.341330	-0.145543	0.634033	-0.321957	0.320507	-0.288228	-0.057331	-0.922119	-0.477539	-0.450439	0.090641	0.028653	0.003590	0.719865	0.242132	-0.644811	0.085932	77.852921	-75.922684	-50.818457
49328		9.225270	2.470212	0.299339	0.057634	0.258199	-0.261403	0.150593	-0.388775	0.003142	-0.923340	-0.483398	-0.453613	0.092246	0.024701	0.003191	0.718418	0.242778	-0.646175	0.085981	78.808282	-75.976308	-51.716993
49329		9.411675	2.531682	0.095079	0.199798	0.350654	-0.074361	0.220852	-0.461253	0.003167	-0.930176	-0.481445	-0.446777	0.094114	0.025317	0.001196	0.716646	0.243705	-0.647767	0.086166	79.975546	-76.033469	-52.792641
49330		9.314893	3.172421	-0.112515	0.038994	0.996329	-0.022404	0.343031	-0.528056	0.006950	-0.919189	-0.489014	-0.434082	0.093150	0.031729	-0.000825	0.714502	0.245086	-0.649543	0.086680	81.372523	-76.093196	-54.032196
49331		9.186465	3.621448	-0.510716	0.118613	1.567633	-0.050773	0.287483	-0.584583	0.017495	-0.926758	-0.486328	-0.425293	0.091876	0.036230	-0.004787	0.712231	0.246254	-0.651553	0.086979	82.875981	-76.155708	-55.414260
49332		9.132383	3.601419	-0.893491	0.402786	1.715499	-0.114053	0.212252	-0.540763	0.060843	-0.926758	-0.489258	-0.418701	0.091337	0.036051	-0.008650	0.710168	0.246996	-0.653485	0.087244	84.236129	-76.231779	-56.692030
49333		9.130994	3.012849	-0.897053	0.619059	1.193165	-0.249740	0.076196	-0.480267	0.089923	-0.925781	-0.488281	-0.417725	0.091318	0.030173	-0.008740	0.708454	0.247127	-0.655294	0.087238	85.385090	-76.314610	-57.832912
49334		9.334308	1.928065	-1.010963	1.187726	0.257292	-0.305230	0.001152	-0.446804	0.095395	-0.932861	-0.479736	-0.417969	0.093356	0.019325	-0.009901	0.706936	0.246963	-0.657019	0.087051	86.424298	-76.393984	-58.904006
49335		9.581382	0.750752	-1.194781	1.867740	-0.735064	-0.338243	0.067566	-0.408380	0.063925	-0.930908	-0.479980	-0.411621	0.095836	0.007542	-0.011750	0.705472	0.247115	-0.658538	0.087013	87.425820	-76.449685	-59.897580
49336		9.767064	0.012648	-1.587050	2.534161	-1.240638	-0.328322	0.248566	-0.326497	-0.019056	-0.928711	-0.483398	-0.403564	0.097696	0.000137	-0.015711	0.704087	0.248143	-0.659584	0.087381	88.349354	-76.452273	-60.703817
49337		10.091954	-0.137078	-1.490198	2.530313	-1.492716	-0.042513	0.411947	-0.190717	-0.077966	-0.943604	-0.482910	-0.396484	0.100933	-0.001380	-0.014809	0.702970	0.249879	-0.660005	0.088247	89.046725	-76.416618	-61.181481
49338		10.198919	-0.173825	-1.326957	2.402658	-1.630080	0.055395	0.457212	-0.097179	-0.071759	-0.930664	-0.483398	-0.389648	0.101995	-0.001745	-0.013224	0.702097	0.251713	-0.660081	0.089404	89.545680	-76.382801	-61.427861
49339		10.209660	-0.134033	-1.283295	2.336489	-1.623205	0.077104	0.581819	-0.136499	-0.052487	-0.930176	-0.487793	-0.390137	0.102105	-0.001330	-0.012767	0.700925	0.253935	-0.660260	0.090986	90.206765	-76.359381	-61.768166
49340		10.138667	0.237466	-1.437987	2.271070	-1.223378	0.100046	0.795665	-0.275446	-0.040293	-0.938232	-0.502930	-0.386230	0.101407	0.002411	-0.014231	0.699007	0.256928	-0.660834	0.093144	91.316801	-76.340813	-62.443817
49341		10.073656	0.947360	-1.810413	2.217245	-0.437050	0.214586	0.951122	-0.396315	-0.040083	-0.932129	-0.501709	-0.372803	0.100774	0.009539	-0.017859	0.696476	0.260511	-0.661745	0.095654	92.797154	-76.316117	-63.409573
49342		10.086664	1.519399	-1.876649	1.950599	0.062918	0.373681	0.905142	-0.407267	-0.003841	-0.932129	-0.508545	-0.371826	0.100905	0.015276	-0.018492	0.693931	0.263819	-0.662745	0.098127	94.278429	-76.305945	-64.402539
49343		10.784204	2.063730	-1.185360	1.113256	0.017638	1.174732	0.701222	-0.166497	-0.000455	-0.940674	-0.505371	-0.361816	0.107852	0.020678	-0.011691	0.692440	0.266279	-0.663003	0.100246	95.077347	-76.304206	-64.814390
49344		11.087138	2.695909	-0.338434	0.088710	0.057487	1.602036	0.578692	0.254784	-0.006479	-0.937256	-0.500000	-0.353516	0.110868	0.026965	-0.003448	0.692503	0.268125	-0.661847	0.102504	94.818015	-76.319489	-64.208503
49345		11.301000	3.970321	0.954742	-1.615456	0.426527	2.086719	0.515593	0.452581	-0.081353	-0.927734	-0.504883	-0.365967	0.113048	0.039633	0.009394	0.693337	0.269893	-0.659932	0.104552	94.044269	-76.299361	-63.111163
49346		11.799503	5.193061	1.850213	-2.910265	0.880667	2.851202	0.347582	0.389140	-0.104922	-0.936279	-0.519531	-0.360107	0.118058	0.051837	0.018363	0.694193	0.271188	-0.658287	0.105882	93.323486	-76.260283	-62.166708
49347		12.014858	6.036130	1.696021	-3.162714	1.606599	3.267229	0.297220	0.083165	-0.063001	-0.929688	-0.511963	-0.364746	0.120175	0.060298	0.017000	0.694087	0.272329	-0.657785	0.106772	93.297304	-76.233355	-61.967515
49348		11.893111	6.695288	1.044711	-2.973430	2.497786	3.313013	0.238350	-0.246200	0.011070	-0.937744	-0.519287	-0.352783	0.118914	0.066947	0.010673	0.692934	0.273202	-0.658555	0.107281	94.017222	-76.237064	-62.570312
49349		11.519872	5.992492	0.320428	-2.082354	2.361622	2.789155	-0.136905	-0.420677	0.201213	-0.927246	-0.513672	-0.351074	0.115131	0.060043	0.003405	0.691616	0.272236	-0.660388	0.106970	94.967597	-76.339429	-63.632390
49350		11.320627	3.654947	-0.117292	-0.585261	0.705660	2.048525	-0.542333	-0.348501	0.319068	-0.937012	-0.500488	-0.354492	0.113150	0.036727	-0.001075	0.691016	0.269445	-0.662342	0.105830	95.557902	-76.509352	-64.561349
49351		11.085991	1.692412	-0.235480	0.453003	-0.797802	1.366631	-0.488464	-0.128890	0.213759	-0.937012	-0.505615	-0.359619	0.110843	0.017037	-0.002325	0.691121	0.267063	-0.663360	0.104794	95.643561	-76.630296	-64.940234
49352		10.870158	1.381939	-0.097073	0.461338	-1.070871	1.083180	-0.223777	0.039179	0.010341	-0.940674	-0.505859	-0.357178	0.108701	0.013824	-0.001007	0.691533	0.266184	-0.663384	0.104161	95.431416	-76.644663	-64.856450
49353		10.817733	2.095663	-0.060870	0.079080	-0.479060	1.195631	-0.086578	0.083404	-0.080305	-0.942139	-0.496094	-0.359863	0.108185	0.020913	-0.000663	0.691957	0.266054	-0.663063	0.103725	95.171373	-76.609538	-64.643227
49354		10.830580	2.275143	-0.414683	0.311252	-0.152694	1.256616	-0.141601	0.110525	-0.075535	-0.941162	-0.500732	-0.359375	0.108312	0.022708	-0.004223	0.692539	0.265706	-0.662682	0.103162	94.817457	-76.578308	-64.365236
49355		10.831679	2.146058	-0.708915	0.653002	-0.108665	1.232451	-0.216891	0.236166	-0.089624	-0.931885	-0.509033	-0.365479	0.108318	0.021404	-0.007240	0.693645	0.265076	-0.661885	0.102464	94.119044	-76.543964	-63.778008
49356		10.354402	2.208412	-0.552576	0.475683	-0.024536	0.778300	-0.260438	0.389680	-0.089477	-0.930908	-0.509766	-0.368408	0.103543	0.022030	-0.005756	0.695313	0.264220	-0.660574	0.101831	93.033165	-76.513040	-62.817080
49357		9.673360	2.117035	-0.267535	0.244675	-0.087068	0.089821	-0.313533	0.397905	-0.072100	-0.938965	-0.509521	-0.369141	0.096736	0.021131	-0.002901	0.697066	0.263111	-0.659282	0.101088	91.903519	-76.487976	-61.843164
49358		9.310297	1.795638	-0.042451	0.203503	-0.379747	-0.340516	-0.316970	0.312410	-0.048876	-0.935791	-0.505859	-0.378662	0.093107	0.017933	-0.000598	0.698524	0.261962	-0.658315	0.100307	90.981147	-76.470792	-61.083186
49359		9.163594	1.698525	-0.010249	0.234683	-0.434906	-0.506116	-0.250953	0.257668	-0.042035	-0.932861	-0.498047	-0.382813	0.091639	0.016966	-0.000242	0.699711	0.261041	-0.657514	0.099689	90.228454	-76.454726	-60.459959
49360		9.069682	1.729969	0.148693	0.095139	-0.456314	-0.590068	-0.204846	0.256124	-0.023440	-0.923828	-0.494629	-0.389893	0.090701	0.017290	0.001353	0.700820	0.260223	-0.656717	0.099291	89.507493	-76.447516	-59.841414
49361		9.066264	1.680950	0.350112	-0.031517	-0.582533	-0.603730	-0.222672	0.305903	-0.009086	-0.929443	-0.497314	-0.387207	0.090669	0.016809	0.003344	0.702107	0.259267	-0.655771	0.098944	88.657842	-76.446014	-59.101742
49362		9.120601	1.651297	0.595300	-0.193844	-0.722339	-0.554877	-0.203834	0.384110	-0.023376	-0.920654	-0.492188	-0.397461	0.091219	0.016508	0.005761	0.703631	0.258386	-0.654520	0.098714	87.634951	-76.432172	-58.172165
49363		9.032513	1.794826	0.830630	-0.443003	-0.681223	-0.601977	-0.129874	0.423356	-0.044349	-0.924805	-0.498291	-0.397705	0.090346	0.017934	0.008103	0.705194	0.257811	-0.653065	0.098698	86.566827	-76.401093	-57.152942
49364		8.840704	1.976973	0.967822	-0.639580	-0.541539	-0.740713	-0.082902	0.361593	-0.062709	-0.925537	-0.503174	-0.401123	0.088431	0.019746	0.009510	0.706501	0.257493	-0.651776	0.098695	85.679213	-76.357939	-56.290996
49365		8.687094	1.935892	1.062578	-0.694534	-0.582843	-0.895277	-0.078289	0.275747	-0.075492	-0.919678	-0.496826	-0.402832	0.086893	0.019330	0.010498	0.707527	0.257273	-0.650772	0.098546	85.003944	-76.308611	-55.645296
49366		8.555267	1.785814	0.899948	-0.476897	-0.597765	-1.060154	-0.048403	0.229876	-0.071798	-0.916016	-0.504883	-0.410156	0.085569	0.017830	0.008897	0.708362	0.257173	-0.649917	0.098455	84.456971	-76.262229	-55.112980
49367		8.376033	1.789890	0.954852	-0.531435	-0.581469	-1.230565	0.019105	0.226405	-0.066022	-0.918213	-0.493652	-0.406982	0.083777	0.017870	0.009455	0.709095	0.257290	-0.649050	0.098593	83.958646	-76.218144	-54.591744
49368		8.431195	2.022993	1.315208	-0.929185	-0.565744	-1.110744	0.014147	0.241398	-0.022805	-0.921631	-0.497314	-0.423096	0.084330	0.020219	0.013052	0.709861	0.257246	-0.648184	0.098893	83.414347	-76.196647	-54.025217
49369		8.608502	2.088834	1.625703	-1.186351	-0.683990	-0.911164	-0.036404	0.299308	0.064699	-0.921631	-0.501221	-0.413574	0.086102	0.020919	0.016124	0.710835	0.256705	-0.647251	0.099408	82.683342	-76.219356	-53.297070
49370		8.770080	2.176148	1.814264	-1.347647	-0.712982	-0.723304	0.006776	0.349621	0.109011	-0.916504	-0.502930	-0.415527	0.087720	0.021809	0.017990	0.711893	0.256151	-0.646172	0.100290	81.842901	-76.261073	-52.430336
49371		8.995904	2.480492	1.978381	-1.581828	-0.555134	-0.422123	0.056883	0.315864	0.136458	-0.909912	-0.506104	-0.415771	0.089973	0.024861	0.019649	0.712761	0.255700	-0.645222	0.101383	81.095216	-76.318242	-51.630259
49372		9.265598	2.738697	2.054239	-1.716260	-0.400670	-0.093350	0.021413	0.229516	0.152884	-0.915771	-0.498047	-0.429932	0.092659	0.027456	0.020439	0.713385	0.255122	-0.644614	0.102317	80.515819	-76.390285	-51.023153
49373		9.632628	2.874284	1.958750	-1.635075	-0.283289	0.293349	-0.000739	0.165552	0.150047	-0.916016	-0.491699	-0.420898	0.096321	0.028815	0.019508	0.713832	0.254497	-0.644243	0.103080	80.068399	-76.465743	-50.566397
49374		9.904848	3.065468	1.704223	-1.459228	-0.025094	0.592960	0.009332	0.127344	0.106194	-0.913086	-0.492920	-0.427490	0.099043	0.030706	0.016981	0.714166	0.254073	-0.643946	0.103675	79.729688	-76.519608	-50.214926
49375		9.879430	3.427055	1.615353	-1.552423	0.343383	0.648157	0.010595	0.104020	0.041483	-0.919189	-0.493896	-0.426270	0.098796	0.034290	0.016104	0.714455	0.253870	-0.643650	0.104009	79.473166	-76.538950	-49.947984
49376		9.695627	3.644429	1.335257	-1.436015	0.708047	0.507510	-0.051985	0.044277	0.027947	-0.917236	-0.498047	-0.427002	0.096954	0.036461	0.013322	0.714639	0.253522	-0.643581	0.104022	79.325998	-76.556758	-49.829605
49377		9.442728	3.548162	0.994156	-1.132453	0.845901	0.224489	-0.107538	-0.045492	0.024621	-0.915527	-0.494141	-0.430908	0.094421	0.035499	0.009944	0.714606	0.253028	-0.643860	0.103726	79.360649	-76.582166	-49.931656
49378		9.092751	3.332452	0.668453	-0.804412	0.887971	-0.179692	-0.129143	-0.103311	0.012327	-0.921387	-0.492432	-0.429688	0.090922	0.033334	0.006710	0.714421	0.252533	-0.644337	0.103249	79.524566	-76.606569	-50.178374
49379		8.906701	3.138474	0.447451	-0.555510	0.863559	-0.414537	-0.150210	-0.149872	-0.009089	-0.917480	-0.496338	-0.420166	0.089065	0.031384	0.004518	0.714122	0.252049	-0.644967	0.102562	79.797526	-76.623578	-50.550500
49380		8.779969	2.818905	0.199112	-0.216558	0.732534	-0.620832	-0.205553	-0.185056	-0.000849	-0.917969	-0.492920	-0.428955	0.087798	0.028191	0.002043	0.713773	0.251365	-0.645757	0.101689	80.119443	-76.648225	-51.004487
49381		8.887474	2.595814	0.052355	0.021393	0.589838	-0.572568	-0.206055	-0.196287	-0.014829	-0.914063	-0.495605	-0.425537	0.088876	0.025952	0.000584	0.713395	0.250724	-0.646572	0.100743	80.475213	-76.665516	-51.494541
49382		9.018504	2.474166	0.000099	0.133165	0.482555	-0.474362	-0.188174	-0.156117	-0.007014	-0.927979	-0.491699	-0.421143	0.090186	0.024739	0.000048	0.713120	0.250107	-0.647239	0.099939	80.742436	-76.682646	-51.882017
49383		9.202676	2.262202	0.050047	0.206632	0.240449	-0.341215	-0.213960	-0.131607	0.005221	-0.923584	-0.489014	-0.419189	0.092026	0.022625	0.000537	0.712949	0.249339	-0.647850	0.099119	80.933276	-76.704310	-52.207172
49384		9.292999	1.961111	-0.076469	0.463264	0.026339	-0.326048	-0.209667	-0.097603	0.017509	-0.920654	-0.496338	-0.420654	0.092929	0.019618	-0.000740	0.712874	0.248535	-0.648350	0.098406	81.041236	-76.729662	-52.443589
49385		9.345409	1.706052	0.010570	0.508037	-0.243051	-0.329533	-0.173996	-0.048496	0.018798	-0.922852	-0.491211	-0.418701	0.093452	0.017069	0.000114	0.712913	0.247824	-0.648660	0.097868	81.051717	-76.751326	-52.559856
49386		9.270608	1.608237	-0.013200	0.561883	-0.300198	-0.425198	-0.138464	-0.015958	0.008333	-0.927490	-0.492432	-0.427979	0.092705	0.016086	-0.000136	0.713018	0.247267	-0.648820	0.097456	81.008484	-76.763972	-52.598590
49387		9.047807	1.629124	0.078183	0.440572	-0.283899	-0.634002	-0.097088	-0.014754	0.004637	-0.927002	-0.488281	-0.427490	0.090478	0.016294	0.000781	0.713078	0.246859	-0.648954	0.097158	80.987390	-76.774621	-52.637140
49388		8.856106	1.713437	0.137439	0.321359	-0.203863	-0.799334	-0.061171	-0.036582	0.011405	-0.929199	-0.490967	-0.432861	0.088560	0.017140	0.001385	0.713019	0.246574	-0.649153	0.096981	81.036356	-76.790947	-52.725529
49389		8.655651	1.757613	0.180711	0.230209	-0.149786	-0.982811	-0.032058	-0.077835	0.025328	-0.925049	-0.489014	-0.422363	0.086554	0.017587	0.001838	0.712784	0.246362	-0.649506	0.096890	81.197220	-76.818871	-52.912697
49390		8.655113	1.826884	0.184079	0.185395	-0.092646	-0.967383	0.012726	-0.136094	0.041089	-0.926514	-0.487549	-0.424072	0.086546	0.018287	0.001901	0.712296	0.246292	-0.650060	0.096935	81.519486	-76.860445	-53.238211
49391		8.747091	1.906702	0.220409	0.113591	-0.061043	-0.858413	0.060881	-0.195188	0.047576	-0.930664	-0.494873	-0.416504	0.087464	0.019087	0.002295	0.711553	0.246395	-0.650812	0.097081	82.013898	-76.910128	-53.713121
49392		8.973655	2.045859	0.159884	0.112382	0.040246	-0.608162	0.105929	-0.239713	0.037749	-0.929932	-0.488281	-0.411865	0.089731	0.020475	0.001717	0.710613	0.246720	-0.651685	0.097292	82.650064	-76.956444	-54.305647
49393		9.244502	2.218241	0.149024	0.054534	0.135861	-0.305736	0.122389	-0.245552	0.033272	-0.931396	-0.486572	-0.420898	0.092439	0.022197	0.001617	0.709635	0.247112	-0.652567	0.097525	83.315742	-76.999219	-54.919994
49394		9.464364	2.247392	0.099946	0.088132	0.135408	-0.085982	0.120621	-0.238919	0.034619	-0.930420	-0.488770	-0.412842	0.094638	0.022490	0.001126	0.708678	0.247495	-0.653423	0.097771	83.967413	-77.040696	-55.519864
49395		9.557736	2.256204	0.112756	0.060430	0.110781	0.007573	0.128079	-0.234120	0.023658	-0.929688	-0.488525	-0.405029	0.095573	0.022573	0.001254	0.707733	0.247932	-0.654247	0.098002	84.618285	-77.074163	-56.115477
49396		9.599545	2.414302	0.222068	-0.127279	0.176391	0.085902	0.141738	-0.230454	0.012352	-0.927979	-0.498047	-0.404053	0.095991	0.024147	0.002348	0.706786	0.248459	-0.655034	0.098250	85.273088	-77.099375	-56.705835
49397		9.587436	2.500866	0.264870	-0.230330	0.221784	0.093932	0.142793	-0.233496	0.013501	-0.931885	-0.491455	-0.407227	0.095869	0.025013	0.002778	0.705826	0.248980	-0.655833	0.098494	85.938505	-77.123947	-57.307592
49398		9.621955	2.492774	0.235504	-0.222186	0.210542	0.125000	0.159245	-0.269791	0.005162	-0.933105	-0.486572	-0.401611	0.096216	0.024928	0.002505	0.704730	0.249613	-0.656737	0.098724	86.707374	-77.143169	-58.004311
49399		9.606381	2.505855	0.175677	-0.206292	0.238644	0.111683	0.174139	-0.309343	-0.008659	-0.936523	-0.487061	-0.396240	0.096062	0.025053	0.001927	0.703489	0.250354	-0.657757	0.098898	87.588191	-77.153600	-58.808493
49400		9.593408	2.482484	-0.013828	-0.062111	0.294933	0.092131	0.193694	-0.339005	-0.019313	-0.937500	-0.496338	-0.394775	0.095936	0.024816	0.000048	0.702130	0.251217	-0.658854	0.099066	88.556048	-77.155606	-59.689580
49401		9.530704	2.463586	-0.131414	0.010426	0.328685	0.026651	0.190150	-0.340056	-0.025688	-0.939209	-0.495850	-0.380127	0.095312	0.024625	-0.001129	0.700772	0.252083	-0.659949	0.099193	89.525292	-77.150663	-60.575034
49402		9.387009	2.401579	-0.241421	0.088757	0.337888	-0.126633	0.178067	-0.337788	-0.028740	-0.954590	-0.495605	-0.382568	0.093877	0.024004	-0.002234	0.699435	0.252924	-0.661032	0.099280	90.480794	-77.140509	-61.452126
49403		9.171737	2.425206	-0.377616	0.142701	0.447199	-0.329833	0.178672	-0.349574	-0.031861	-0.942383	-0.490967	-0.379883	0.091728	0.024241	-0.003594	0.698058	0.253773	-0.662153	0.099335	91.464445	-77.125303	-62.359175
49404		9.019484	2.617431	-0.370865	-0.002308	0.616894	-0.434048	0.202995	-0.379148	-0.052774	-0.945313	-0.494141	-0.368164	0.090209	0.026154	-0.003511	0.696559	0.254795	-0.663333	0.099365	92.531088	-77.093934	-63.336209
49405		8.974230	2.825329	-0.403782	-0.111532	0.795782	-0.429912	0.195057	-0.412790	-0.048960	-0.945801	-0.503662	-0.364990	0.089757	0.028235	-0.003825	0.694954	0.255787	-0.664639	0.099333	93.672394	-77.059490	-64.395581
49406		9.109665	2.744462	-0.482227	-0.028148	0.714550	-0.313262	0.145169	-0.442088	-0.032059	-0.940186	-0.502197	-0.361084	0.091111	0.027433	-0.004601	0.693302	0.256572	-0.666086	0.099164	94.855278	-77.028533	-65.525719
49407		9.194129	2.334458	-0.739717	0.363317	0.452399	-0.315737	0.103018	-0.441644	-0.020405	-0.954590	-0.497803	-0.354004	0.091960	0.023339	-0.007182	0.691697	0.257161	-0.667566	0.098887	96.009843	-76.999205	-66.653083
49408		9.452274	2.143637	-0.966134	0.638196	0.324939	-0.098727	0.128035	-0.434558	-0.037533	-0.951660	-0.505127	-0.356201	0.094547	0.021425	-0.009442	0.690087	0.257897	-0.668982	0.098650	97.150498	-76.955400	-67.750344
49409		9.508880	2.162569	-1.168668	0.776616	0.405611	-0.030381	0.169297	-0.347967	-0.057117	-0.953369	-0.500488	-0.343750	0.095115	0.021608	-0.011503	0.688722	0.258790	-0.670053	0.098587	98.088883	-76.902693	-68.617180
49410		9.618721	2.310615	-1.272663	0.781483	0.540328	0.115842	0.158019	-0.184300	-0.079733	-0.954346	-0.505127	-0.343018	0.096208	0.023078	-0.012620	0.687928	0.259645	-0.670532	0.098627	98.608191	-76.848183	-69.059308
49411		9.617458	2.537516	-1.208555	0.610933	0.690883	0.164513	0.123495	0.068887	-0.104851	-0.952393	-0.498291	-0.355469	0.096184	0.025332	-0.012103	0.688040	0.260333	-0.670126	0.098787	98.483343	-76.800761	-68.861488
49412		9.561818	2.862096	-0.975527	0.266475	0.863541	0.175045	0.060978	0.365717	-0.132535	-0.946289	-0.498291	-0.352295	0.095619	0.028561	-0.009921	0.689240	0.260757	-0.668690	0.099033	97.598403	-76.760992	-67.918761
49413		9.359220	3.201018	-0.573472	-0.217997	1.007710	0.041603	-0.028604	0.651325	-0.155837	-0.953125	-0.506104	-0.363281	0.093598	0.031936	-0.006044	0.691518	0.260801	-0.666282	0.099267	95.972821	-76.722626	-66.268583
49414		9.097120	3.401721	0.020336	-0.785970	0.962448	-0.180187	-0.148194	0.855317	-0.172639	-0.937012	-0.514893	-0.364746	0.091000	0.033939	-0.000211	0.694630	0.260387	-0.663193	0.099312	93.794017	-76.672049	-64.119326
49415		8.833744	3.510454	0.518554	-1.214216	0.892120	-0.412885	-0.228802	0.956058	-0.191104	-0.935547	-0.517578	-0.383789	0.088394	0.035026	0.004723	0.698174	0.259694	-0.659758	0.099151	91.345536	-76.593594	-61.740506
49416		8.529255	3.551496	1.007075	-1.607046	0.777371	-0.691943	-0.267064	0.887577	-0.192048	-0.937012	-0.504150	-0.396240	0.085370	0.035446	0.009645	0.701526	0.258908	-0.656560	0.098775	89.070222	-76.491533	-59.560049
49417		8.375539	3.137203	1.153111	-1.482803	0.411086	-0.927120	-0.376843	0.622406	-0.154417	-0.934570	-0.503418	-0.396729	0.083815	0.031329	0.011211	0.704119	0.257730	-0.654388	0.097819	87.391314	-76.398618	-58.058222
49418		8.421037	2.222256	0.774403	-0.667018	-0.171392	-1.096174	-0.368094	0.280209	-0.105010	-0.932373	-0.510742	-0.396240	0.084233	0.022192	0.007585	0.705550	0.256589	-0.653471	0.096628	86.535283	-76.336592	-57.396955
49419		8.825603	1.824405	0.294931	0.008907	-0.353935	-0.802618	-0.269919	-0.027799	-0.119579	-0.933350	-0.513672	-0.403809	0.088267	0.018195	0.002937	0.705853	0.255987	-0.653574	0.095307	86.466318	-76.275763	-57.488229
49420		9.291915	1.976713	-0.219148	0.444784	-0.077727	-0.321049	-0.184262	-0.190875	-0.079521	-0.920410	-0.509033	-0.403076	0.092929	0.019728	-0.002121	0.705492	0.255641	-0.654259	0.094204	86.821299	-76.243083	-57.964324
49421		9.596843	1.834084	-0.994794	1.216471	0.100057	-0.067790	-0.215080	-0.259340	-0.054876	-0.926025	-0.503662	-0.399170	0.095986	0.018304	-0.009843	0.704933	0.255130	-0.655233	0.092994	87.313878	-76.225854	-58.601426
49422		10.084277	1.867255	-1.589818	1.770654	0.301272	0.408898	-0.108648	-0.161461	-0.052808	-0.924316	-0.510498	-0.395020	0.100860	0.018637	-0.015827	0.704558	0.254947	-0.655810	0.092269	87.636943	-76.206106	-59.000352
49423		10.377129	1.783156	-2.049231	2.243592	0.380726	0.669924	-0.139961	-0.055957	-0.032353	-0.926270	-0.507568	-0.404541	0.103780	0.017800	-0.020476	0.704558	0.254532	-0.656059	0.091643	87.694026	-76.195444	-59.144787
49424		10.457486	1.626871	-2.599792	2.811030	0.489003	0.705089	-0.151970	-0.005570	-0.032233	-0.935791	-0.510498	-0.396484	0.104578	0.016232	-0.026007	0.704738	0.254057	-0.656133	0.091048	87.626512	-76.183518	-59.166996
49425		10.518964	1.980816	-2.779958	2.819643	0.860509	0.846090	-0.080045	0.037137	-0.060118	-0.923340	-0.497803	-0.400635	0.105190	0.019765	-0.027827	0.704979	0.253901	-0.655990	0.090639	87.503952	-76.154755	-59.091090
49426		10.573023	2.554503	-2.593820	2.408541	1.250047	1.035285	-0.031182	0.108588	-0.046462	-0.932129	-0.509521	-0.397705	0.105722	0.025516	-0.026000	0.705385	0.253846	-0.655589	0.090534	87.242898	-76.131824	-58.842836
49427		10.397126	2.955187	-2.467419	2.106069	1.574036	0.958030	-0.010340	0.189670	-0.019627	-0.932617	-0.505859	-0.405518	0.103951	0.029540	-0.024774	0.706019	0.253734	-0.654929	0.090691	86.803361	-76.121520	-58.399276
49428		10.111459	3.078057	-2.392911	1.965881	1.712662	0.706063	-0.121840	0.181162	0.026946	-0.929443	-0.508057	-0.402100	0.101089	0.030780	-0.024039	0.706743	0.253085	-0.654405	0.090640	86.313930	-76.137213	-57.969194
49429		9.819789	3.087235	-2.345258	1.897968	1.768716	0.421024	-0.214080	0.099413	0.069381	-0.927246	-0.499268	-0.402832	0.098175	0.030881	-0.023534	0.707298	0.252002	-0.654267	0.090329	85.952780	-76.179629	-57.726652
49430		9.905065	3.553133	-1.862439	1.285171	1.935196	0.618374	-0.163539	0.169401	0.075556	-0.925781	-0.501465	-0.406006	0.099021	0.035553	-0.018737	0.708012	0.251052	-0.653864	0.090298	85.455500	-76.222061	-57.313205
49431		10.242970	3.883764	-1.034149	0.473600	1.782518	1.034878	-0.256565	0.339143	0.109793	-0.923828	-0.492432	-0.408447	0.102391	0.038880	-0.010565	0.709382	0.249577	-0.652944	0.090292	84.497575	-76.274336	-56.481432
49432		10.681272	3.182793	-0.319702	0.259591	0.795536	1.305825	-0.450080	0.458543	0.178900	-0.923584	-0.493896	-0.417480	0.106776	0.031916	-0.003514	0.711345	0.247140	-0.651768	0.090052	83.124655	-76.354493	-55.336028
49433		10.874412	2.027884	0.251368	0.347332	-0.455969	1.237172	-0.497138	0.496825	0.190324	-0.926270	-0.486572	-0.430420	0.108730	0.020388	0.002193	0.713478	0.244473	-0.650484	0.089741	81.615719	-76.431463	-54.079664
49434		11.319174	1.720670	1.281358	-0.314693	-1.235947	1.637170	-0.365514	0.579298	0.117800	-0.918213	-0.484131	-0.437988	0.113218	0.017296	0.012454	0.715740	0.242475	-0.648749	0.089703	80.004320	-76.451725	-52.639856
49435		11.633027	1.628297	2.214211	-0.990316	-1.755076	1.969488	-0.312227	0.730648	0.082781	-0.916260	-0.481445	-0.446533	0.116403	0.016365	0.021691	0.718437	0.240706	-0.646397	0.089891	78.083833	-76.425452	-50.851400
49436		11.562379	1.321937	2.687555	-1.211193	-2.173255	1.869279	-0.335616	0.733853	0.060056	-0.912598	-0.468018	-0.446533	0.115717	0.013299	0.026429	0.721169	0.238924	-0.644006	0.089928	76.164790	-76.371989	-49.077321
49437		11.312752	1.127947	2.955638	-1.332648	-2.377486	1.613491	-0.243623	0.621906	-0.036374	-0.913086	-0.482178	-0.458496	0.113221	0.011295	0.029191	0.723465	0.237828	-0.641854	0.089774	74.628037	-76.268729	-47.642449
49438		10.584885	1.614417	3.130724	-1.758467	-1.891192	1.039895	0.047105	0.405385	-0.212507	-0.911621	-0.484131	-0.463867	0.105929	0.016024	0.031096	0.724793	0.238447	-0.640140	0.089663	73.878269	-76.095341	-46.845057
49439		9.770999	2.617545	3.161985	-2.327842	-0.910802	0.486515	0.196245	-0.053876	-0.331245	-0.905762	-0.488281	-0.458984	0.097745	0.025983	0.031672	0.724524	0.240189	-0.639879	0.089046	74.315960	-75.928032	-47.183331
49440		9.454921	3.370639	2.721357	-2.329325	-0.044441	0.323112	0.046133	-0.523352	-0.409394	-0.914551	-0.480225	-0.457764	0.094546	0.033507	0.027469	0.722962	0.241849	-0.641285	0.087107	75.730496	-75.785604	-48.617052
49441		9.500107	3.939490	1.967518	-1.938207	0.723830	0.451891	0.050872	-0.721829	-0.479359	-0.906982	-0.491211	-0.448730	0.095023	0.039162	0.020028	0.720779	0.243828	-0.643315	0.084683	77.586022	-75.620527	-50.504879
49442		9.971148	4.679866	1.385868	-1.706600	1.473260	1.057554	0.036369	-0.549953	-0.451330	-0.910156	-0.499512	-0.449951	0.099778	0.046571	0.014141	0.719143	0.245590	-0.644754	0.082526	79.004766	-75.438022	-51.951288
49443		10.341461	4.792844	1.311391	-1.636975	1.489855	1.445088	-0.281159	-0.039898	-0.262411	-0.911621	-0.495605	-0.448242	0.103475	0.047811	0.013067	0.719457	0.245388	-0.644719	0.080646	79.038851	-75.301504	-52.156099
49444		10.129634	3.619731	1.727095	-1.486351	0.331038	0.975059	-0.711570	0.493443	-0.174664	-0.909668	-0.496094	-0.455078	0.101370	0.036169	0.016892	0.721976	0.243139	-0.643036	0.078351	77.656503	-75.153008	-51.150728
49445		9.528157	2.717368	2.268755	-1.601140	-0.545624	0.210034	-0.714629	0.793285	-0.191306	-0.905273	-0.498291	-0.464111	0.095396	0.027162	0.022212	0.725451	0.240806	-0.640238	0.076346	75.683636	-74.948287	-49.535654
49446		9.015794	2.339739	2.810254	-1.926255	-0.982587	-0.326918	-0.594557	0.804173	-0.242663	-0.904541	-0.484375	-0.471436	0.090298	0.023371	0.027670	0.728815	0.239066	-0.637273	0.074554	73.836172	-74.699647	-47.976833
49447		8.904848	2.171486	2.992732	-1.965814	-1.170176	-0.446044	-0.475531	0.551032	-0.345427	-0.893311	-0.494873	-0.482422	0.089168	0.021632	0.029630	0.731254	0.238173	-0.635052	0.072459	72.672309	-74.425910	-47.055176
49448		9.012214	2.112286	2.864682	-1.758635	-1.188308	-0.358420	-0.347178	0.201011	-0.372100	-0.889404	-0.488281	-0.487061	0.090190	0.021005	0.028520	0.732429	0.237959	-0.634024	0.070259	72.306977	-74.194782	-46.885060
49449		9.366380	2.098539	2.376797	-1.235259	-1.078425	-0.061116	-0.207872	-0.224718	-0.350523	-0.893555	-0.502441	-0.487549	0.093674	0.020846	0.023852	0.732077	0.238334	-0.634529	0.068070	72.827899	-74.048500	-47.553583
49450		9.893499	2.255728	1.441033	-0.372829	-0.675552	0.407423	0.021851	-0.331563	-0.296430	-0.903320	-0.495850	-0.479248	0.098944	0.022409	0.014577	0.731091	0.239415	-0.635406	0.066683	73.641555	-73.947346	-48.389691
49451		10.386095	3.035916	1.379218	-0.555852	-0.098209	1.080950	0.148748	-0.160155	-0.140073	-0.885010	-0.501709	-0.480713	0.103871	0.030276	0.013898	0.730442	0.240403	-0.635801	0.066472	74.107231	-73.902493	-48.788735
49452		10.356888	2.970531	1.487601	-0.633499	-0.199948	1.043684	-0.138440	0.114444	0.070665	-0.898682	-0.495605	-0.492676	0.103567	0.029752	0.014796	0.730941	0.239583	-0.635539	0.066452	73.767168	-73.930035	-48.520033
49453		10.024189	2.209519	1.872399	-0.719463	-0.937417	0.554360	-0.238019	0.289737	0.220281	-0.898926	-0.499023	-0.486084	0.100244	0.022228	0.018552	0.732063	0.237862	-0.634849	0.066868	72.948358	-74.010177	-47.813104
49454		9.652183	1.737649	2.251542	-0.927532	-1.402150	0.108353	-0.116003	0.188442	0.285956	-0.889404	-0.496094	-0.488281	0.096518	0.017528	0.022414	0.732696	0.236413	-0.634563	0.067794	72.344882	-74.141128	-47.257589
49455		9.656970	1.414406	2.264380	-0.814805	-1.661949	0.034087	-0.030834	-0.046341	0.286764	-0.896484	-0.489990	-0.491699	0.096544	0.014286	0.022664	0.732479	0.235351	-0.635109	0.068713	72.236348	-74.312480	-47.166276
49456		9.688377	1.138841	1.708890	-0.222524	-1.650897	-0.050165	0.058489	-0.192447	0.248267	-0.907471	-0.488037	-0.496338	0.096853	0.011504	0.017185	0.731706	0.234792	-0.636109	0.069606	72.487323	-74.488057	-47.394600
49457		9.537116	1.130613	1.181927	0.198853	-1.387543	-0.238403	0.114743	-0.187688	0.234056	-0.909912	-0.483643	-0.489746	0.095347	0.011411	0.011915	0.730883	0.234479	-0.637057	0.070628	72.776565	-74.654908	-47.629559
49458		9.266246	1.148722	0.844489	0.423834	-1.158276	-0.518886	0.082059	-0.084662	0.237580	-0.902588	-0.487549	-0.493164	0.092645	0.011594	0.008489	0.730426	0.233996	-0.637640	0.071681	72.841104	-74.806146	-47.650772
49459		8.760607	1.133644	0.714194	0.445052	-0.999003	-1.017953	0.041887	0.028147	0.231406	-0.903320	-0.486816	-0.485840	0.087594	0.011436	0.007132	0.730375	0.233347	-0.637820	0.072714	72.659430	-74.934745	-47.440813
49460		8.294383	1.333219	0.736918	0.255890	-0.725116	-1.414711	0.047025	0.045500	0.210186	-0.903320	-0.485840	-0.482666	0.082931	0.013418	0.007353	0.730381	0.232781	-0.637905	0.073709	72.454180	-75.048409	-47.202951
49461		7.817109	1.662382	0.717531	0.048811	-0.322091	-1.795243	0.086596	-0.034434	0.173516	-0.903564	-0.475098	-0.487061	0.078155	0.016689	0.007196	0.730098	0.232503	-0.638228	0.074600	72.458432	-75.155907	-47.159105
49462		7.664695	2.127123	0.707962	-0.171121	0.127712	-1.829718	0.136765	-0.131541	0.138903	-0.917480	-0.479004	-0.484863	0.076627	0.021320	0.007145	0.729459	0.232557	-0.638843	0.075415	72.714518	-75.261098	-47.345440
49463		7.581596	2.490856	0.646136	-0.296923	0.493616	-1.827038	0.094663	-0.201665	0.128363	-0.902344	-0.476807	-0.485840	0.075793	0.024954	0.006550	0.728647	0.232514	-0.639718	0.075972	73.104521	-75.372113	-47.695635
49464		7.706207	2.745338	0.524018	-0.289282	0.750622	-1.654871	0.017531	-0.173511	0.125467	-0.916260	-0.481201	-0.478516	0.077040	0.027501	0.005309	0.728016	0.232190	-0.640514	0.076307	73.396653	-75.476323	-47.989807
49465		7.699734	2.857837	0.558564	-0.382637	0.841860	-1.632835	-0.091208	-0.137333	0.138481	-0.920898	-0.487305	-0.488525	0.076974	0.028634	0.005625	0.727619	0.231413	-0.641237	0.076380	73.546245	-75.581534	-48.201360
49466		7.911460	2.918762	0.538565	-0.365977	0.873139	-1.416016	-0.175541	-0.132176	0.118146	-0.911865	-0.479736	-0.485107	0.079094	0.029239	0.005412	0.727345	0.230396	-0.641944	0.076120	73.650799	-75.674453	-48.415437
49467		8.117509	2.781167	0.399924	-0.162958	0.781073	-1.259785	-0.221314	-0.177630	0.108802	-0.916748	-0.469971	-0.479492	0.081156	0.027860	0.004041	0.726978	0.229256	-0.642827	0.075621	73.836499	-75.769550	-48.740989
49468		8.497602	2.564334	0.096599	0.244375	0.653645	-0.963541	-0.275759	-0.263307	0.080664	-0.925537	-0.481201	-0.483154	0.084964	0.025679	0.001042	0.726408	0.228042	-0.644003	0.074750	74.198197	-75.862134	-49.279540
49469		8.783716	2.248354	-0.256786	0.718553	0.471590	-0.782961	-0.274590	-0.251273	0.054431	-0.919678	-0.468750	-0.470703	0.087834	0.022504	-0.002488	0.725882	0.226909	-0.645106	0.073797	74.556867	-75.937698	-49.814651
49470		8.942347	1.995396	-0.422895	0.980290	0.285918	-0.697684	-0.303031	-0.201995	0.030351	-0.929199	-0.467285	-0.480225	0.089425	0.019961	-0.004169	0.725553	0.225736	-0.646008	0.072726	74.808378	-75.991661	-50.255140
49471		8.971178	1.721566	-0.613347	1.256236	0.114128	-0.744564	-0.342384	-0.156338	0.003521	-0.920166	-0.472412	-0.480469	0.089716	0.017207	-0.006093	0.725423	0.224485	-0.646730	0.071477	74.954813	-76.023728	-50.611307
49472		8.912856	1.613875	-0.625166	1.293763	0.028967	-0.826044	-0.310615	-0.147622	-0.020884	-0.923096	-0.465576	-0.480957	0.089135	0.016120	-0.006211	0.725292	0.223428	-0.647376	0.070255	75.114786	-76.040646	-50.961984
49473		8.669694	1.461687	-0.623842	1.306827	-0.068327	-1.096219	-0.310182	-0.194643	-0.014708	-0.926514	-0.467041	-0.482910	0.086704	0.014601	-0.006177	0.725003	0.222364	-0.648200	0.069001	75.377864	-76.067654	-51.419254
49474		8.582101	1.221137	-0.719261	1.461329	-0.235508	-1.241223	-0.308261	-0.245187	-0.012292	-0.928711	-0.466064	-0.476074	0.085831	0.012195	-0.007106	0.724546	0.221320	-0.649204	0.067708	75.754791	-76.102506	-51.992003
49475		8.516934	1.255748	-0.706579	1.410753	-0.207488	-1.293238	-0.226717	-0.268087	-0.016451	-0.932129	-0.465088	-0.479736	0.085180	0.012543	-0.006966	0.723922	0.220588	-0.650259	0.066636	76.235478	-76.137286	-52.624036
49476		8.607487	1.396101	-0.398624	1.069653	-0.234370	-1.152566	-0.200924	-0.309140	0.002098	-0.931152	-0.462646	-0.471191	0.086081	0.013958	-0.003867	0.723128	0.219906	-0.651470	0.065674	76.816527	-76.186411	-53.343374
49477		8.680319	1.331972	-0.457866	1.135038	-0.291282	-1.097270	-0.254348	-0.347470	0.024384	-0.936035	-0.447754	-0.477783	0.086809	0.013325	-0.004445	0.722257	0.218966	-0.652862	0.064572	77.448193	-76.251114	-54.146894
49478		8.554166	1.445579	-0.616662	1.193812	-0.112910	-1.198413	-0.151597	-0.370634	-0.012872	-0.931641	-0.455078	-0.473145	0.085554	0.014446	-0.006019	0.721208	0.218528	-0.654259	0.063648	78.216196	-76.295410	-55.029535
49479		8.245138	1.484429	-0.580271	1.073635	-0.047049	-1.483971	-0.137180	-0.477032	-0.003954	-0.945313	-0.467285	-0.466797	0.082465	0.014839	-0.005616	0.719787	0.218142	-0.656042	0.062684	79.240614	-76.353345	-56.167812
49480		8.357929	1.033142	-0.425152	1.080138	-0.549875	-1.467993	-0.303878	-0.517524	0.043295	-0.938232	-0.454346	-0.464600	0.083588	0.010343	-0.004051	0.718395	0.217017	-0.658068	0.061302	80.253682	-76.437225	-57.391633
49481		8.601549	0.788023	-0.275454	1.031035	-0.888213	-1.278552	-0.305448	-0.387283	0.038748	-0.947998	-0.452393	-0.456055	0.086019	0.007893	-0.002600	0.717429	0.215856	-0.659619	0.060036	80.973916	-76.502026	-58.315508
49482		8.565181	1.335272	0.187922	0.369737	-0.577088	-1.169147	-0.101748	-0.312210	0.019791	-0.944580	-0.452393	-0.459717	0.085647	0.013362	0.002006	0.716494	0.215467	-0.660814	0.059458	81.647039	-76.546986	-59.070100
49483		8.523277	1.757804	0.357203	0.021392	-0.263060	-1.106716	-0.101575	-0.471944	0.029558	-0.940918	-0.450684	-0.448975	0.085221	0.017593	0.003764	0.715024	0.215090	-0.662591	0.058739	82.702987	-76.607263	-60.218609
49484		8.933554	1.514321	0.032506	0.415361	-0.452025	-0.772468	-0.211862	-0.587080	0.050034	-0.950684	-0.452637	-0.456299	0.089330	0.015166	0.000571	0.713280	0.214287	-0.664827	0.057609	83.976495	-76.681439	-61.654681
49485		9.272922	1.056794	-0.382338	0.956950	-0.790643	-0.554771	-0.180392	-0.547520	0.008032	-0.953857	-0.445313	-0.444336	0.092739	0.010568	-0.003579	0.711639	0.213718	-0.666863	0.056470	85.195204	-76.722254	-63.016245
49486		9.411772	1.301859	-0.378054	0.835241	-0.618296	-0.360749	-0.089717	-0.478937	-0.033508	-0.954590	-0.450684	-0.436035	0.094129	0.013001	-0.003561	0.710136	0.213593	-0.668578	0.055563	86.312641	-76.730089	-64.219680
49487		9.459036	1.468572	-0.428156	0.785244	-0.478030	-0.274968	-0.052451	-0.483470	-0.030026	-0.957275	-0.440918	-0.427246	0.094603	0.014670	-0.004057	0.708574	0.213585	-0.670301	0.054784	87.463296	-76.734523	-65.435837
49488		9.722660	1.420700	-0.729939	1.061365	-0.483163	-0.028970	0.031682	-0.564480	-0.010664	-0.955078	-0.445068	-0.432373	0.097247	0.014203	-0.007023	0.706639	0.213835	-0.672302	0.054273	88.858400	-76.745428	-66.852900
49489		10.060217	1.023679	-1.346488	1.750065	-0.703023	0.212857	0.168201	-0.655505	0.027428	-0.954346	-0.442871	-0.422607	0.100644	0.010262	-0.013126	0.704235	0.214458	-0.674624	0.054253	90.555471	-76.769555	-68.500392
49490		10.502950	0.334003	-2.034431	2.607758	-1.181870	0.500639	0.293267	-0.712063	0.061945	-0.959717	-0.449463	-0.407471	0.105100	0.003402	-0.019965	0.701488	0.215420	-0.677137	0.054719	92.470092	-76.800807	-70.297028
49491		11.091445	-0.407547	-2.532205	3.312198	-1.805059	0.928304	0.399354	-0.686323	0.099872	-0.964844	-0.444336	-0.400635	0.111002	-0.003970	-0.024949	0.698692	0.216613	-0.679563	0.055700	94.396769	-76.840733	-72.043886
49492		11.499618	-1.099189	-3.100649	4.053357	-2.307304	1.201382	0.581674	-0.580459	0.086062	-0.967773	-0.447998	-0.392578	0.115090	-0.010853	-0.030704	0.696050	0.218461	-0.681541	0.057371	96.175640	-76.865611	-73.530675
49493		11.758434	-1.085738	-3.434810	4.315288	-2.217870	1.487604	0.875749	-0.427665	0.041842	-0.967041	-0.460938	-0.385742	0.117660	-0.010683	-0.034144	0.693607	0.221430	-0.682841	0.060051	97.740828	-76.865921	-74.625732
49494		11.722496	-0.405193	-3.414699	3.986788	-1.591859	1.624646	1.054967	-0.269799	0.006203	-0.964355	-0.453613	-0.369873	0.117271	-0.003869	-0.034010	0.691495	0.225095	-0.683482	0.063399	99.012547	-76.853192	-75.313032
49495		11.258353	0.374247	-3.191540	3.413887	-0.861869	1.353285	1.085650	-0.090053	-0.010814	-0.968018	-0.471924	-0.366699	0.112598	0.003909	-0.031844	0.689950	0.228855	-0.683453	0.066987	99.857760	-76.844698	-75.545297
49496		10.536220	0.940320	-2.856607	2.815444	-0.314043	0.771779	1.034557	0.032902	-0.021174	-0.973633	-0.475098	-0.365967	0.105359	0.009540	-0.028534	0.688864	0.232433	-0.682986	0.070512	100.373573	-76.842220	-75.468081
49497		10.118397	1.285213	-2.120145	1.968592	-0.205947	0.415263	0.939412	0.142636	-0.057676	-0.963135	-0.472900	-0.364258	0.101173	0.012923	-0.021213	0.688263	0.235757	-0.682115	0.073703	100.552672	-76.830587	-75.102319
49498		10.816403	2.119166	-0.865404	0.538226	-0.145653	1.229202	0.837140	0.535744	-0.098705	-0.956299	-0.477295	-0.359131	0.108151	0.021175	-0.008855	0.689119	0.238726	-0.679864	0.076874	99.709299	-76.835056	-73.745400
49499		11.200236	3.436378	0.701266	-1.355113	0.258496	1.842440	0.703286	0.947084	-0.144397	-0.951660	-0.484863	-0.362549	0.112059	0.034259	0.006603	0.691533	0.241217	-0.676173	0.079914	97.774065	-76.841867	-71.347224
49500		11.986180	4.844617	2.472470	-3.396120	0.552526	2.892096	0.378794	1.198691	-0.167497	-0.950439	-0.481689	-0.372559	0.120048	0.048300	0.024097	0.695169	0.242563	-0.671688	0.082086	95.036740	-76.829352	-68.314722
49501		12.500343	6.021187	2.786259	-4.027727	1.343071	3.687267	0.435688	1.109982	-0.192347	-0.951660	-0.482910	-0.381836	0.125214	0.060032	0.027299	0.698425	0.244209	-0.667434	0.084243	92.556776	-76.767820	-65.514134
49502		12.226404	7.601409	2.818356	-4.695361	2.749845	3.810861	0.654761	0.742363	-0.179167	-0.939697	-0.490234	-0.388916	0.122436	0.075813	0.027978	0.700157	0.246728	-0.664366	0.086733	91.123340	-76.685542	-63.657843
49503		10.672574	7.954441	2.537237	-4.733458	3.504236	2.390968	0.244964	0.292064	0.189967	-0.943115	-0.483398	-0.381592	0.106687	0.079615	0.025314	0.700731	0.246773	-0.663499	0.088590	90.565806	-76.803292	-62.943927
49504		8.854382	5.057241	1.923860	-3.091065	1.704749	-0.054843	-0.530734	-0.377460	0.714509	-0.950928	-0.483643	-0.386719	0.088326	0.050939	0.019271	0.699797	0.242659	-0.665957	0.088891	91.233778	-77.215816	-63.943513
49505		8.124511	1.300180	-0.069636	0.214844	-0.442571	-1.599289	-0.752565	-1.162786	0.920758	-0.958252	-0.469482	-0.374512	0.081187	0.013374	-0.000274	0.696395	0.237413	-0.671482	0.088211	93.910628	-77.719518	-67.130415
49506		9.075103	-1.677977	-1.963666	3.189299	-2.371753	-1.255174	-0.065046	-1.212843	0.403163	-0.961182	-0.461670	-0.363281	0.090901	-0.016603	-0.019080	0.692195	0.236317	-0.676225	0.087980	97.187527	-77.888512	-70.522824
49507		10.054551	0.402085	-2.606154	2.834089	-0.509868	0.175060	0.543691	-0.697066	-0.516930	-0.967285	-0.471680	-0.364014	0.100646	0.003831	-0.025700	0.689404	0.240195	-0.677806	0.087222	99.131777	-77.544750	-72.196862
49508		10.358313	4.253709	-2.115390	0.664340	2.483626	1.289262	0.824966	-0.166075	-0.680590	-0.960205	-0.487305	-0.347900	0.103745	0.042271	-0.020893	0.688125	0.245365	-0.677218	0.087495	99.748796	-77.150665	-72.346813
49509		10.224954	5.675788	-1.737180	-0.314806	3.517904	1.470357	-0.012187	0.240462	-0.385399	-0.956299	-0.481934	-0.354004	0.102338	0.056560	-0.017498	0.689111	0.246467	-0.675949	0.086440	99.003722	-76.961318	-71.592549
49510		10.494389	3.572506	-1.134041	0.184771	1.370155	1.244837	-0.902946	0.574842	-0.070045	-0.952881	-0.489014	-0.368164	0.104923	0.035636	-0.011803	0.692174	0.243295	-0.674290	0.083878	97.063760	-76.973625	-70.134045
49511		10.740041	1.409284	0.010211	0.240390	-1.034665	0.967165	-0.771886	0.980249	-0.041815	-0.951172	-0.479980	-0.381104	0.107402	0.014069	-0.000479	0.696413	0.240294	-0.671185	0.082339	94.199659	-77.011166	-67.651515
49512		10.213340	1.264755	1.716889	-1.159617	-1.765165	0.404838	-0.230927	1.165199	-0.129722	-0.945313	-0.481934	-0.386963	0.102239	0.012601	0.016559	0.700631	0.239395	-0.667079	0.082535	91.171875	-76.974382	-64.681684
49513		9.873632	2.011423	2.708526	-2.299735	-1.455208	0.260210	0.019704	0.970373	-0.191016	-0.938232	-0.482666	-0.396484	0.098885	0.020017	0.026608	0.703904	0.239643	-0.663463	0.083110	88.794893	-76.871234	-62.232916
49514		9.915242	2.542009	3.078829	-2.774188	-1.154090	0.445213	0.155084	0.696306	-0.179998	-0.943359	-0.483154	-0.408691	0.099282	0.025307	0.030462	0.706086	0.240449	-0.660754	0.083851	87.202509	-76.760693	-60.507875
49515		9.830045	2.849882	3.127491	-2.909711	-0.890572	0.447584	0.230469	0.351509	-0.106702	-0.937988	-0.480469	-0.403076	0.098370	0.028410	0.031135	0.707004	0.241413	-0.659314	0.084676	86.499891	-76.695161	-59.653376
49516		10.047622	2.732938	3.185198	-2.869908	-1.063447	0.637281	0.146905	0.008865	0.054939	-0.938965	-0.484619	-0.401367	0.100470	0.027334	0.031868	0.706821	0.241697	-0.659314	0.085391	86.558485	-76.733117	-59.629262
49517		10.119181	1.875112	2.671543	-2.041815	-1.582698	0.501235	0.080709	-0.148630	0.219949	-0.936035	-0.491211	-0.408936	0.101151	0.018852	0.026798	0.706130	0.241266	-0.660098	0.086274	86.940443	-76.870344	-59.977156
49518		10.015376	1.208418	1.767554	-0.976350	-1.717920	0.236579	0.366901	-0.052512	0.238967	-0.934570	-0.486328	-0.403564	0.100135	0.012171	0.017724	0.705398	0.241748	-0.660436	0.088291	87.254318	-77.015106	-60.085332
49519		9.788878	1.810257	1.716508	-1.229775	-1.114528	0.151800	0.605558	0.231212	0.210653	-0.943848	-0.487061	-0.400879	0.097889	0.018154	0.017107	0.705323	0.243030	-0.659632	0.091331	87.002354	-77.135582	-59.473910
49520		9.397902	2.449453	1.769771	-1.600603	-0.490662	-0.083878	0.444690	0.346895	0.266052	-0.943604	-0.489746	-0.398438	0.093977	0.024580	0.017589	0.705791	0.243515	-0.658551	0.094183	86.347736	-77.282761	-58.543128
49521		9.430838	2.436534	1.645780	-1.475536	-0.420855	-0.054020	0.308546	0.251587	0.336209	-0.935547	-0.482422	-0.402344	0.094288	0.024499	0.016377	0.706073	0.243324	-0.657953	0.096710	85.827253	-77.471709	-57.831657
49522		9.739491	2.690394	1.561845	-1.486477	-0.192005	0.301102	0.363722	0.114114	0.284722	-0.940674	-0.481689	-0.406250	0.097365	0.027014	0.015612	0.705855	0.243570	-0.657743	0.099078	85.689154	-77.636096	-57.478430
49523		10.111537	3.385851	1.471966	-1.702004	0.396296	0.808986	0.387670	-0.054101	0.193655	-0.942383	-0.485352	-0.397217	0.101079	0.033928	0.014813	0.705097	0.244273	-0.658005	0.100989	86.019912	-77.755605	-57.592685
49524		10.399133	3.831670	1.026034	-1.511872	0.946409	1.173435	0.238120	-0.146476	0.181216	-0.949951	-0.482422	-0.398438	0.103949	0.038399	0.010382	0.704221	0.244544	-0.658646	0.102259	86.516118	-77.871202	-57.962496
49525		10.416808	3.770344	0.603009	-1.133605	1.105585	1.168277	0.070738	-0.020108	0.220676	-0.951416	-0.486084	-0.396484	0.104126	0.037816	0.006054	0.703944	0.244023	-0.658978	0.103263	86.579011	-78.004688	-57.988422
49526		10.107464	3.506261	0.712247	-1.139972	0.909016	0.809743	-0.114881	0.283871	0.214397	-0.949951	-0.483643	-0.400146	0.101047	0.035175	0.006959	0.704897	0.242719	-0.658323	0.104012	85.710125	-78.122854	-57.169291
49527		9.349402	3.055719	1.018992	-1.256112	0.546252	-0.019293	-0.221426	0.517258	0.188797	-0.946777	-0.477051	-0.408691	0.093491	0.030657	0.009914	0.706756	0.240993	-0.656870	0.104594	84.131938	-78.210996	-55.689520
49528		8.762685	2.755729	1.403432	-1.483293	0.245088	-0.642746	-0.240931	0.531162	0.148203	-0.945068	-0.477783	-0.416992	0.087643	0.027639	0.013768	0.708699	0.239331	-0.655319	0.104993	82.496441	-78.266432	-54.161630
49529		8.441096	2.519588	1.438208	-1.409720	0.109650	-0.999661	-0.230027	0.354909	0.054655	-0.955811	-0.472900	-0.417969	0.084429	0.025235	0.014203	0.710096	0.238096	-0.654274	0.104876	81.375540	-78.275598	-53.154486
49530		8.141758	2.347105	1.125551	-1.071302	0.173265	-1.334111	-0.184375	0.133456	-0.038413	-0.948975	-0.472656	-0.422363	0.081430	0.023466	0.011180	0.710762	0.237450	-0.653875	0.104323	80.922992	-78.248712	-52.801976
49531		8.062078	2.301646	0.644600	-0.627279	0.375496	-1.435593	-0.147476	-0.006403	-0.113758	-0.951904	-0.471436	-0.415771	0.080634	0.022975	0.006432	0.710964	0.237248	-0.653867	0.103448	80.906438	-78.191633	-52.874437
49532		7.886928	2.159113	0.120814	-0.115952	0.522151	-1.652179	-0.194391	-0.014059	-0.127738	-0.942383	-0.473633	-0.422363	0.078883	0.021542	0.001193	0.711203	0.236934	-0.653890	0.102368	80.888652	-78.127330	-52.971918
49533		7.805453	2.014214	-0.176150	0.212472	0.544757	-1.770843	-0.232461	0.085823	-0.127338	-0.950439	-0.472168	-0.425537	0.078067	0.020090	-0.001818	0.711813	0.236426	-0.653581	0.101276	80.582118	-78.054111	-52.797817
49534		7.796759	1.985810	-0.088999	0.164914	0.480616	-1.782582	-0.234991	0.195029	-0.094572	-0.947754	-0.476807	-0.435547	0.077976	0.019820	-0.000989	0.712765	0.235752	-0.652917	0.100429	79.971182	-77.988471	-52.312838
49535		7.982260	1.852802	0.169431	0.041196	0.219614	-1.619514	-0.245110	0.231368	-0.044907	-0.944580	-0.474121	-0.431641	0.079829	0.018512	0.001579	0.713821	0.234855	-0.652189	0.099761	79.241221	-77.945967	-51.713128
49536		8.327901	1.581928	0.214197	0.186604	-0.083612	-1.335632	-0.227145	0.191512	0.013356	-0.934814	-0.469971	-0.440918	0.083280	0.015827	0.002044	0.714695	0.233858	-0.651658	0.099319	78.598894	-77.939010	-51.191304
49537		8.736281	1.345132	0.280830	0.300113	-0.376309	-0.982107	-0.157725	0.140250	0.036932	-0.947266	-0.471436	-0.438232	0.087362	0.013470	0.002736	0.715307	0.233050	-0.651306	0.099120	78.119725	-77.950256	-50.796794
49538		9.041816	1.127985	0.260875	0.463349	-0.595127	-0.728307	-0.092609	0.109376	0.057194	-0.937256	-0.480469	-0.439453	0.090416	0.011307	0.002554	0.715732	0.232431	-0.651051	0.099177	77.745409	-77.975859	-50.470310
49539		9.283216	0.944010	0.182752	0.651887	-0.748344	-0.532726	-0.053358	0.086331	0.054340	-0.936035	-0.467285	-0.440186	0.092830	0.009466	0.001785	0.716038	0.231966	-0.650859	0.099318	77.455653	-78.002388	-50.208381
49540		9.373179	1.021918	0.201639	0.616717	-0.695442	-0.427727	0.017558	0.073304	0.033593	-0.947754	-0.475586	-0.438477	0.093731	0.010235	0.001983	0.716229	0.231837	-0.650650	0.099609	77.251094	-78.018618	-49.990669
