// General information: 
//  MT Manager version: 2021.4.0 
//  XDA version: 2021.4.0 build 6323 rev 112641 built on 2021-09-28
// Device information: 
//  DeviceId: 00B47793
//  ProductCode: MTW2-3A7G6
//  Firmware Version: 4.6.0
//  Hardware Version: 2.0.0
// Device settings: 
//  Filter Profile: human(46.1)
//  Option Flags: Orientation Smoother Disabled, Position/Velocity Smoother Disabled, Continuous Zero Rotation Update Disabled, AHS Disabled, ICC Disabled
// Coordinate system: ENU
PacketCounter	SampleTimeFine	Acc_X	Acc_Y	Acc_Z	FreeAcc_E	FreeAcc_N	FreeAcc_U	Gyr_X	Gyr_Y	Gyr_Z	Mag_X	Mag_Y	Mag_Z	VelInc_X	VelInc_Y	VelInc_Z	Quat_q0	Quat_q1	Quat_q2	Quat_q3	Roll	Pitch	Yaw
48994		4.881029	-2.861594	8.094682	-0.036543	0.003921	0.063329	0.004992	-0.002250	-0.009421	-0.826904	0.639404	-0.708008	0.048808	-0.028620	0.080947	0.394509	-0.297162	0.030245	-0.868990	-19.258083	-29.511480	-126.048108
48995		4.853609	-2.843752	8.050958	-0.034189	0.003095	0.008778	0.002687	-0.003271	-0.008182	-0.826660	0.635986	-0.698730	0.048534	-0.028441	0.080510	0.394519	-0.297170	0.030243	-0.868982	-19.258757	-29.512151	-126.046234
48996		4.859930	-2.826734	8.080845	-0.010016	-0.007628	0.031562	0.005954	0.000407	-0.006570	-0.829346	0.640137	-0.698486	0.048599	-0.028271	0.080808	0.394528	-0.297154	0.030238	-0.868984	-19.257412	-29.510552	-126.046039
48997		4.872809	-2.841453	8.066845	-0.034106	-0.009242	0.030629	0.002572	-0.001192	-0.007251	-0.825195	0.650635	-0.706787	0.048727	-0.028417	0.080668	0.394526	-0.297154	0.030247	-0.868985	-19.258266	-29.510152	-126.046158
48998		4.863718	-2.859815	8.079097	-0.035085	0.011863	0.041486	0.002572	-0.001192	-0.007251	-0.825195	0.638184	-0.709473	0.048636	-0.028601	0.080791	0.394527	-0.297151	0.030253	-0.868985	-19.258821	-29.509547	-126.046038
48999		4.860783	-2.824786	8.081014	-0.009230	-0.009842	0.031561	0.006069	-0.001672	-0.007501	-0.833252	0.642334	-0.709717	0.048606	-0.028252	0.080810	0.394551	-0.297145	0.030239	-0.868976	-19.257632	-29.509180	-126.043328
49000		4.886392	-2.854752	8.052924	-0.057756	-0.012355	0.029697	0.004878	-0.000170	-0.008491	-0.823730	0.623047	-0.693359	0.048863	-0.028552	0.080529	0.394550	-0.297134	0.030235	-0.868981	-19.256377	-29.508256	-126.044200
49001		4.852027	-2.842219	8.093393	-0.009946	0.010555	0.042422	0.002240	-0.002726	-0.006818	-0.829590	0.639160	-0.704834	0.048518	-0.028425	0.080934	0.394539	-0.297140	0.030245	-0.868983	-19.257515	-29.508597	-126.045140
49002		4.911748	-2.836160	8.098526	-0.033745	-0.034687	0.074317	0.006070	-0.001671	-0.007501	-0.826172	0.640381	-0.707031	0.049116	-0.028366	0.080985	0.394544	-0.297133	0.030235	-0.868984	-19.256041	-29.508298	-126.045071
49003		4.874753	-2.837177	8.067176	-0.032614	-0.013635	0.030629	0.004878	-0.000169	-0.008491	-0.829346	0.635254	-0.708740	0.048746	-0.028376	0.080671	0.394547	-0.297123	0.030231	-0.868986	-19.254981	-29.507433	-126.045333
49004		4.881047	-2.820041	8.097104	-0.008432	-0.024364	0.053400	0.003802	-0.000747	-0.010411	-0.831055	0.630127	-0.706299	0.048809	-0.028204	0.080971	0.394536	-0.297117	0.030228	-0.868993	-19.253816	-29.507184	-126.047273
49005		4.875456	-2.835508	8.067338	-0.032137	-0.015071	0.030628	0.007263	-0.003172	-0.006510	-0.836182	0.635742	-0.715820	0.048752	-0.028360	0.080673	0.394534	-0.297114	0.030215	-0.868996	-19.252103	-29.507633	-126.047932
49006		4.875910	-2.834673	8.067357	-0.031903	-0.015798	0.030628	0.003470	-0.002281	-0.009978	-0.833984	0.638916	-0.710693	0.048757	-0.028351	0.080674	0.394524	-0.297115	0.030211	-0.869000	-19.251425	-29.508133	-126.049270
49007		4.882322	-2.817626	8.097176	-0.007711	-0.026516	0.053395	0.003022	-0.001736	-0.008614	-0.821289	0.631348	-0.708740	0.048821	-0.028180	0.080972	0.394511	-0.297114	0.030215	-0.869006	-19.251347	-29.508169	-126.051132
49008		4.854671	-2.836776	8.093717	-0.008266	0.005485	0.042427	0.004546	-0.001703	-0.008057	-0.829590	0.641602	-0.710205	0.048545	-0.028372	0.080937	0.394511	-0.297110	0.030211	-0.869007	-19.250579	-29.507992	-126.051402
49009		4.877141	-2.832558	8.067356	-0.031188	-0.017977	0.030626	0.002690	-0.003270	-0.008180	-0.826904	0.633545	-0.705078	0.048769	-0.028329	0.080674	0.394513	-0.297117	0.030210	-0.869004	-19.251072	-29.508659	-126.050766
49010		4.868264	-2.850868	8.079521	-0.032174	0.003118	0.041502	0.002690	-0.003270	-0.008180	-0.826904	0.642822	-0.702637	0.048680	-0.028512	0.080796	0.394510	-0.297124	0.030211	-0.869003	-19.251497	-29.509353	-126.050773
49011		4.859431	-2.832274	8.051492	-0.030261	-0.008530	0.008788	0.003767	-0.002691	-0.006260	-0.827148	0.637939	-0.709229	0.048592	-0.028326	0.080515	0.394520	-0.297127	0.030211	-0.868998	-19.252038	-29.509459	-126.049321
49012		4.869111	-2.849667	8.079434	-0.031673	0.001655	0.041504	0.001498	-0.001769	-0.009171	-0.824707	0.635254	-0.708740	0.048689	-0.028500	0.080795	0.394511	-0.297129	0.030218	-0.869001	-19.252683	-29.509529	-126.050269
49013		4.856885	-2.833636	8.093489	-0.007051	0.001822	0.042430	0.004215	-0.003236	-0.007623	-0.830322	0.630859	-0.704102	0.048566	-0.028340	0.080935	0.394516	-0.297133	0.030212	-0.868997	-19.252479	-29.510094	-126.049456
49014		4.870050	-2.848412	8.079311	-0.031197	0.000190	0.041506	0.001166	-0.003303	-0.008737	-0.823486	0.642578	-0.704834	0.048698	-0.028487	0.080794	0.394509	-0.297142	0.030218	-0.868997	-19.253611	-29.510911	-126.049801
49015		4.876464	-2.831381	8.109112	-0.006977	-0.010551	0.064264	0.006072	-0.001667	-0.007500	-0.825195	0.631592	-0.705078	0.048763	-0.028318	0.081091	0.394513	-0.297136	0.030209	-0.868998	-19.252293	-29.510697	-126.049690
49016		4.867413	-2.849523	8.121454	-0.007966	0.010538	0.075150	0.003354	-0.000200	-0.009048	-0.829346	0.640625	-0.712158	0.048673	-0.028499	0.081214	0.394507	-0.297128	0.030211	-0.869003	-19.251745	-29.509895	-126.050902
49017		4.880519	-2.827252	8.067174	-0.029232	-0.023817	0.030620	0.005741	-0.003201	-0.007066	-0.827393	0.642822	-0.702881	0.048803	-0.028277	0.080672	0.394514	-0.297129	0.030200	-0.869000	-19.250827	-29.510372	-126.050200
49018		4.868233	-2.848175	8.121435	-0.007487	0.009076	0.075152	0.001463	-0.003714	-0.005019	-0.825928	0.644043	-0.701172	0.048680	-0.028484	0.081215	0.394523	-0.297139	0.030210	-0.868992	-19.252970	-29.510710	-126.048146
49019		4.871933	-2.845137	8.079330	-0.029938	-0.003477	0.041509	0.003650	-0.000611	-0.005330	-0.832275	0.630859	-0.708740	0.048718	-0.028454	0.080793	0.394544	-0.297134	0.030214	-0.868984	-19.253788	-29.509510	-126.045429
49020		4.872264	-2.844726	8.079275	-0.029704	-0.004206	0.041510	-0.000061	-0.003748	-0.005576	-0.836426	0.634521	-0.698730	0.048720	-0.028449	0.080794	0.394549	-0.297148	0.030229	-0.868977	-19.256639	-29.509971	-126.043713
49021		4.900741	-2.824345	8.082628	-0.028628	-0.037641	0.052444	0.004217	-0.003235	-0.007623	-0.835693	0.632324	-0.694336	0.049005	-0.028247	0.080826	0.394531	-0.297152	0.030230	-0.868984	-19.256406	-29.510798	-126.045977
49022		4.867227	-2.859850	8.049324	-0.053170	0.004385	0.018763	0.003472	-0.002279	-0.009977	-0.828857	0.628418	-0.694336	0.048670	-0.028602	0.080493	0.394521	-0.297153	0.030226	-0.868988	-19.255727	-29.511296	-126.047315
49023		4.886400	-2.821253	8.024781	-0.050427	-0.039927	-0.003031	0.004217	-0.003234	-0.007623	-0.835205	0.632324	-0.691650	0.048862	-0.028216	0.080248	0.394499	-0.297159	0.030228	-0.868996	-19.255608	-29.512237	-126.050016
49024		4.898142	-2.739875	8.158022	0.070053	-0.079813	0.088865	-0.000357	-0.003337	-0.009293	-0.832031	0.639893	-0.703613	0.048979	-0.027401	0.081581	0.394487	-0.297172	0.030240	-0.868996	-19.257446	-29.513178	-126.050699
49025		6.049617	-1.854824	7.041753	-0.530940	-1.698466	-0.514417	0.003512	-0.046541	-0.050923	-0.843262	0.624512	-0.696045	0.060475	-0.018565	0.070431	0.394292	-0.297373	0.030093	-0.869021	-19.249161	-29.545646	-126.069612
49026		5.938722	-2.191685	7.650079	-0.371235	-1.277824	0.027281	0.003545	0.057684	0.002840	-0.836182	0.634766	-0.693604	0.059410	-0.021917	0.076483	0.394329	-0.297112	0.030226	-0.869089	-19.245953	-29.511287	-126.075999
49027		6.972630	-2.164061	7.748887	-0.830190	-2.005693	0.610074	0.017170	-0.050262	-0.023732	-0.842773	0.628174	-0.695801	0.069704	-0.021656	0.077505	0.394256	-0.297299	0.030057	-0.869064	-19.238444	-29.540790	-126.079416
49028		6.010588	-2.334225	7.575461	-0.543808	-1.242007	0.042518	0.008377	0.008936	0.003336	-0.853516	0.635498	-0.689941	0.060110	-0.023344	0.075751	0.394310	-0.297239	0.030074	-0.869059	-19.237835	-29.532707	-126.074912
49029		5.188787	-2.686850	7.814945	-0.229588	-0.378709	-0.064872	0.008505	0.007000	-0.011470	-0.840332	0.625732	-0.693848	0.051889	-0.026875	0.078146	0.394274	-0.297193	0.030072	-0.869091	-19.232955	-29.528909	-126.082413
49030		4.855068	-2.789946	8.179557	0.068372	-0.007708	0.099724	0.004590	0.019539	-0.001930	-0.845459	0.628906	-0.686768	0.048558	-0.027902	0.081790	0.394298	-0.297096	0.030118	-0.869112	-19.231769	-29.516085	-126.083482
49031		4.649232	-2.947625	8.168303	0.061678	0.242619	0.034260	0.006855	-0.000672	-0.009297	-0.854980	0.635742	-0.691895	0.046491	-0.029481	0.081682	0.394290	-0.297085	0.030106	-0.869120	-19.229290	-29.515794	-126.085495
49032		4.849393	-2.926377	8.157483	-0.033148	0.085354	0.117894	0.007846	0.003932	-0.010600	-0.852295	0.641602	-0.678467	0.048494	-0.029270	0.081573	0.394283	-0.297050	0.030095	-0.869135	-19.225251	-29.513050	-126.088569
49033		4.908232	-2.797985	8.155906	0.021203	-0.044446	0.108796	0.002400	-0.002857	-0.011895	-0.851563	0.633057	-0.686279	0.049079	-0.027984	0.081559	0.394263	-0.297057	0.030092	-0.869142	-19.224771	-29.514368	-126.090996
49034		5.018956	-2.742447	7.983778	-0.091450	-0.191442	0.006000	0.005569	-0.004865	-0.011710	-0.854492	0.640625	-0.687500	0.050186	-0.027430	0.079838	0.394250	-0.297066	0.030071	-0.869146	-19.222636	-29.516592	-126.092852
49035		5.082369	-2.696338	7.906434	-0.135023	-0.281206	-0.039505	0.007544	-0.005374	-0.012517	-0.856689	0.630859	-0.681152	0.050820	-0.026970	0.079065	0.394235	-0.297074	0.030040	-0.869151	-19.219279	-29.519385	-126.095084
49036		5.121223	-2.778277	7.904333	-0.210783	-0.252037	0.001398	0.004791	-0.005855	-0.009912	-0.849365	0.627197	-0.685791	0.051209	-0.027787	0.079044	0.394228	-0.297088	0.030024	-0.869150	-19.218246	-29.521805	-126.095609
49037		5.014270	-2.707445	8.027479	-0.042317	-0.202715	0.029604	0.008830	-0.001179	-0.010104	-0.863281	0.635986	-0.677490	0.050141	-0.027081	0.080274	0.394226	-0.297075	0.029999	-0.869156	-19.214443	-29.521879	-126.097249
49038		5.068925	-2.764871	7.929283	-0.162342	-0.218896	-0.007701	0.012933	-0.002330	-0.016796	-0.865723	0.633057	-0.678467	0.050686	-0.027658	0.079292	0.394200	-0.297058	0.029944	-0.869175	-19.206260	-29.523690	-126.102819
49039		4.946487	-2.729106	8.035130	-0.019091	-0.137730	0.008704	0.004762	0.001918	-0.007562	-0.860352	0.630615	-0.675049	0.049465	-0.027295	0.080350	0.394202	-0.297039	0.029946	-0.869181	-19.205234	-29.521614	-126.103549
49040		5.094038	-2.745071	7.975297	-0.138250	-0.241333	0.036813	0.010686	0.000393	-0.009982	-0.862549	0.635986	-0.676514	0.050939	-0.027458	0.079751	0.394203	-0.297014	0.029917	-0.869190	-19.200135	-29.520666	-126.105471
49041		4.890733	-2.766821	8.028911	-0.020258	-0.073659	-0.013088	0.006946	0.005024	-0.007876	-0.854492	0.628662	-0.678711	0.048908	-0.027673	0.080287	0.394206	-0.296978	0.029915	-0.869201	-19.197430	-29.516972	-126.107068
49042		4.953522	-2.757433	7.992265	-0.066711	-0.130784	-0.014955	0.011586	-0.000695	-0.012707	-0.864502	0.632080	-0.680664	0.049533	-0.027582	0.079921	0.394197	-0.296956	0.029876	-0.869214	-19.191096	-29.517126	-126.110448
49043		5.265742	-2.655621	7.995083	-0.158047	-0.419173	0.112081	0.012333	-0.001648	-0.010352	-0.870117	0.641357	-0.685303	0.052655	-0.026564	0.079950	0.394198	-0.296939	0.029834	-0.869221	-19.185257	-29.517511	-126.112141
49044		4.982224	-2.771617	8.036479	-0.068233	-0.132352	0.039583	0.005958	0.000420	-0.006571	-0.867188	0.637451	-0.672363	0.049822	-0.027720	0.080364	0.394207	-0.296922	0.029830	-0.869223	-19.183909	-29.515906	-126.111947
49045		5.036032	-2.818298	8.052143	-0.118749	-0.135057	0.092316	0.008920	-0.005199	-0.006878	-0.866943	0.641846	-0.678955	0.050357	-0.028188	0.080521	0.394219	-0.296926	0.029801	-0.869217	-19.181465	-29.517563	-126.110710
49046		4.939079	-2.813707	8.129640	-0.024307	-0.055734	0.106930	0.005629	-0.001114	-0.006136	-0.872314	0.632080	-0.681641	0.049389	-0.028141	0.081296	0.394229	-0.296917	0.029796	-0.869216	-19.180603	-29.516707	-126.109913
49047		5.192896	-2.729505	8.013056	-0.161145	-0.312995	0.112104	0.007188	-0.008850	-0.007926	-0.873535	0.627197	-0.685547	0.051924	-0.027300	0.080132	0.394234	-0.296941	0.029766	-0.869206	-19.179220	-29.520539	-126.108538
49048		5.108507	-2.703592	8.036181	-0.088213	-0.267214	0.082123	0.004192	0.004542	-0.005273	-0.873291	0.632813	-0.677490	0.051086	-0.027039	0.080360	0.394245	-0.296910	0.029780	-0.869211	-19.178843	-29.516459	-126.108429
49049		5.105964	-2.679774	7.924246	-0.131813	-0.302254	-0.017944	0.007759	-0.001757	-0.012021	-0.882324	0.629639	-0.679932	0.051057	-0.026804	0.079242	0.394233	-0.296902	0.029756	-0.869221	-19.175119	-29.517230	-126.111135
49050		5.149252	-2.697101	8.026110	-0.111223	-0.302359	0.092049	0.005924	0.008194	-0.004225	-0.866211	0.633301	-0.674805	0.051495	-0.026974	0.080258	0.394250	-0.296852	0.029770	-0.869229	-19.173682	-29.510977	-126.111163
49051		4.992928	-2.746611	8.025397	-0.065206	-0.159188	0.028583	0.006046	0.006115	-0.005152	-0.874268	0.639160	-0.684814	0.049931	-0.027470	0.080252	0.394264	-0.296812	0.029779	-0.869236	-19.172204	-29.506201	-126.111299
49052		5.173937	-2.726380	7.998960	-0.159458	-0.305681	0.090205	0.004971	0.005533	-0.007071	-0.881348	0.631348	-0.672363	0.051741	-0.027268	0.079987	0.394268	-0.296775	0.029789	-0.869247	-19.170724	-29.501923	-126.112521
49053		4.807375	-2.767210	8.095364	0.052542	-0.003109	0.000592	0.003412	0.013269	-0.005282	-0.873291	0.632324	-0.677490	0.048078	-0.027675	0.080950	0.394276	-0.296710	0.029823	-0.869264	-19.169952	-29.493305	-126.114284
49054		5.147517	-2.694511	8.028093	-0.110175	-0.305265	0.091972	0.001680	-0.000099	-0.004523	-0.875000	0.638428	-0.682373	0.051475	-0.026947	0.080281	0.394287	-0.296704	0.029839	-0.869261	-19.171738	-29.491596	-126.112704
49055		5.134804	-2.678925	8.042218	-0.085519	-0.305046	0.092854	0.000329	0.001535	-0.000436	-0.881836	0.634766	-0.682617	0.051349	-0.026789	0.080422	0.394313	-0.296695	0.029871	-0.869251	-19.175463	-29.488418	-126.108917
49056		5.060125	-2.720015	8.019735	-0.086608	-0.229265	0.049332	-0.001646	0.002042	0.000370	-0.888672	0.628662	-0.671875	0.050602	-0.027199	0.080197	0.394340	-0.296686	0.029913	-0.869240	-19.180424	-29.484630	-126.104758
49057		5.026241	-2.756634	7.986478	-0.111194	-0.187166	0.015769	-0.003379	-0.001610	-0.000678	-0.885986	0.634277	-0.683350	0.050262	-0.027565	0.079866	0.394361	-0.296697	0.029954	-0.869226	-19.186531	-29.483204	-126.100443
49058		5.100788	-2.715913	8.008921	-0.109609	-0.264416	0.059248	-0.003951	0.001014	0.001612	-0.891846	0.636475	-0.681885	0.051009	-0.027157	0.080089	0.394390	-0.296697	0.030006	-0.869211	-19.193300	-29.479737	-126.095291
49059		5.075283	-2.685629	8.036925	-0.060575	-0.263248	0.061030	-0.005805	-0.000558	0.001491	-0.883301	0.645508	-0.683838	0.050753	-0.026854	0.080370	0.394416	-0.296709	0.030063	-0.869193	-19.201346	-29.477338	-126.089856
49060		4.979298	-2.779008	7.967095	-0.110929	-0.145577	-0.016903	-0.005389	0.006671	0.002474	-0.882568	0.636963	-0.675049	0.049796	-0.027787	0.079670	0.394446	-0.296686	0.030134	-0.869185	-19.208600	-29.470646	-126.085394
49061		5.040802	-2.796860	8.084402	-0.090663	-0.156729	0.114894	-0.006377	0.002066	0.003780	-0.888428	0.635010	-0.668457	0.050409	-0.027965	0.080844	0.394480	-0.296687	0.030202	-0.869166	-19.217391	-29.466398	-126.079106
49062		5.072269	-2.775176	8.045372	-0.112308	-0.201968	0.092065	-0.011245	-0.007354	0.000199	-0.888184	0.630615	-0.676270	0.050720	-0.027747	0.080457	0.394494	-0.296738	0.030267	-0.869140	-19.228797	-29.467722	-126.073022
49063		5.335386	-2.710561	7.956286	-0.250593	-0.448534	0.129746	-0.012440	-0.005856	-0.000793	-0.884277	0.641113	-0.675781	0.053351	-0.027101	0.079566	0.394501	-0.296786	0.030339	-0.869118	-19.240507	-29.468624	-126.067858
49064		5.201696	-2.795375	7.968411	-0.230696	-0.295465	0.098257	-0.019475	0.002858	0.002054	-0.885498	0.642578	-0.679443	0.052018	-0.027945	0.079686	0.394509	-0.296808	0.030463	-0.869103	-19.256107	-29.464072	-126.062837
49065		5.129259	-2.824298	8.017361	-0.185030	-0.217964	0.111137	-0.020496	0.006026	0.005707	-0.890625	0.638672	-0.669434	0.051296	-0.028233	0.080175	0.394530	-0.296820	0.030603	-0.869084	-19.273148	-29.457325	-126.056215
49066		5.196233	-2.753832	8.083524	-0.135022	-0.304353	0.178155	-0.029140	0.009010	0.006577	-0.895996	0.637451	-0.678223	0.051967	-0.027525	0.080837	0.394542	-0.296833	0.030788	-0.869068	-19.295006	-29.448587	-126.049725
49067		5.190138	-2.858088	8.020031	-0.234013	-0.243315	0.152910	-0.032430	0.013097	0.007321	-0.898682	0.637695	-0.679932	0.051908	-0.028566	0.080202	0.394552	-0.296837	0.030995	-0.869055	-19.318616	-29.437712	-126.043646
49068		5.254191	-2.801978	8.014434	-0.230760	-0.331385	0.163570	-0.026538	0.009631	0.009054	-0.894775	0.641113	-0.675781	0.052547	-0.028007	0.080146	0.394578	-0.296843	0.031174	-0.869034	-19.339666	-29.428165	-126.035763
49069		5.185560	-2.988405	8.068174	-0.288870	-0.148815	0.227753	-0.035423	0.007058	0.013582	-0.895264	0.631592	-0.666992	0.051860	-0.029866	0.080685	0.394612	-0.296878	0.031392	-0.868999	-19.367539	-29.419369	-126.024493
49070		4.974112	-3.129866	7.985157	-0.317191	0.079155	0.096586	-0.030244	-0.003226	0.010607	-0.894043	0.645020	-0.673340	0.049741	-0.031284	0.079857	0.394642	-0.296946	0.031564	-0.868956	-19.392556	-29.416469	-126.012850
49071		4.845759	-3.029504	8.092657	-0.122777	0.118825	0.092926	-0.028846	-0.031912	-0.006121	-0.899658	0.640137	-0.672607	0.048444	-0.030285	0.080939	0.394605	-0.297141	0.031647	-0.868903	-19.414840	-29.432479	-126.005297
49072		4.318579	-2.704016	8.434707	0.556377	0.330666	0.020278	-0.041196	-0.101728	-0.016533	-0.903809	0.631836	-0.665527	0.043141	-0.027026	0.084375	0.394516	-0.297663	0.031632	-0.868765	-19.448464	-29.487966	-125.988930
49073		3.519425	-2.811453	8.526873	0.956942	0.991262	-0.268065	-0.075568	-0.190306	-0.047359	-0.908203	0.637207	-0.664551	0.035106	-0.028091	0.085313	0.394256	-0.298645	0.031544	-0.868550	-19.502069	-29.597398	-125.972171
49074		1.535824	-3.558654	8.911807	1.702386	2.988126	-0.723356	-0.050319	-0.345490	-0.192471	-0.903809	0.635010	-0.672852	0.015170	-0.035579	0.089153	0.393427	-0.300270	0.030825	-0.868391	-19.513439	-29.818176	-126.011380
49075		-0.454697	-4.938861	8.685262	1.713186	5.339847	-1.531195	0.004691	-0.823197	-0.527381	-0.916748	0.633057	-0.652100	-0.005035	-0.049378	0.086831	0.391294	-0.303911	0.028424	-0.868170	-19.441063	-30.361129	-126.154464
49076		1.483896	-4.489035	8.983040	1.245533	3.831404	-0.495215	0.190519	-1.344040	-0.772274	-0.928955	0.617188	-0.641602	0.014061	-0.045031	0.089884	0.388438	-0.309469	0.023824	-0.867627	-19.239291	-31.231666	-126.339193
49077		3.164002	-2.178098	9.328409	2.185287	1.276579	-0.047124	0.161035	-1.636018	-0.972116	-0.936279	0.616211	-0.631836	0.030769	-0.022007	0.093521	0.384676	-0.316353	0.018474	-0.866951	-19.015823	-32.297254	-126.592371
49078		4.035761	-2.188114	9.302331	1.820275	0.855811	0.363709	0.052138	-1.813892	-1.075299	-0.953125	0.602783	-0.614258	0.039393	-0.022119	0.093378	0.380271	-0.324194	0.013089	-0.866095	-18.831473	-33.477578	-126.880477
49079		3.991548	-3.257886	8.704045	0.916336	1.694459	0.116641	0.026866	-1.948439	-1.136696	-0.965088	0.600098	-0.603760	0.038879	-0.032814	0.087418	0.375524	-0.332632	0.007457	-0.865033	-18.645914	-34.741448	-127.187584
49080		4.134151	-2.939545	8.894015	1.282931	1.609504	0.216991	-0.006584	-2.059119	-1.183498	-0.978760	0.585205	-0.585449	0.040248	-0.029633	0.089359	0.370472	-0.341567	0.001682	-0.863759	-18.464278	-36.073122	-127.510974
49081		4.034068	-3.699330	9.587596	1.393277	2.594279	0.827045	-0.133213	-2.014767	-1.152290	-0.985840	0.574707	-0.569824	0.039158	-0.037157	0.096299	0.365288	-0.350499	-0.003409	-0.862382	-18.350147	-37.374338	-127.832930
49082		5.836937	-5.970220	12.059614	0.723905	3.985329	4.284607	-0.152604	-1.699705	-1.037156	-0.996338	0.571777	-0.549561	0.057031	-0.059908	0.121130	0.360529	-0.358069	-0.007641	-0.861247	-18.241106	-38.482963	-128.155766
49083		-0.268631	-7.772020	12.689954	3.088047	9.410817	1.296230	-0.315704	-1.177454	-0.770371	-1.009277	0.550049	-0.544922	-0.003733	-0.077507	0.127002	0.356619	-0.363667	-0.009749	-0.860508	-18.259618	-39.259256	-128.417842
49084		-2.318600	-8.727403	13.132296	3.889798	11.554056	0.452394	-0.525832	-0.760382	-0.373555	-0.999023	0.561768	-0.541504	-0.023848	-0.086884	0.131462	0.354042	-0.367851	-0.009489	-0.859797	-18.511887	-39.737632	-128.497996
49085		-2.195150	-9.827572	13.618665	3.586470	12.434619	1.113607	-0.799215	-0.381785	0.117081	-0.997070	0.566895	-0.526855	-0.022155	-0.097744	0.136536	0.353081	-0.370905	-0.006478	-0.858907	-19.086974	-39.920199	-128.318488
49086		-0.771167	-10.024184	14.476468	3.451522	11.875450	2.745362	-1.014093	0.158792	0.629174	-0.995850	0.583740	-0.528564	-0.007283	-0.099529	0.145276	0.353928	-0.372024	-0.000642	-0.858098	-19.931074	-39.711418	-127.910735
49087		-0.388986	-10.026933	14.548689	3.402196	11.488189	3.179409	-1.091711	0.775155	1.053771	-0.981689	0.596924	-0.537354	-0.002799	-0.099490	0.146044	0.356436	-0.370614	0.007411	-0.857639	-20.899508	-39.081322	-127.374081
49088		0.239610	-9.201286	14.149962	3.379665	10.131080	3.259067	-1.004372	1.372482	1.347770	-0.972412	0.599365	-0.548340	0.003986	-0.091278	0.141936	0.360309	-0.366444	0.016694	-0.857682	-21.825020	-38.064923	-126.815881
49089		0.766919	-8.070909	13.596773	3.425353	8.526281	3.077455	-0.858957	1.896305	1.522637	-0.941162	0.624268	-0.553955	0.009571	-0.080056	0.136228	0.365104	-0.359694	0.026621	-0.858260	-22.625616	-36.725549	-126.312014
49090		1.304820	-6.877955	12.969644	3.404978	6.832129	2.794193	-0.721076	2.313008	1.610862	-0.929688	0.638916	-0.574707	0.015100	-0.068196	0.129776	0.370400	-0.350828	0.036865	-0.859282	-23.284758	-35.142413	-125.896283
49091		2.007690	-6.162281	12.301484	2.954373	5.360325	2.671452	-0.623335	2.610317	1.643750	-0.897949	0.642822	-0.603760	0.022185	-0.061063	0.122925	0.375869	-0.340412	0.047295	-0.860584	-23.827789	-33.391187	-125.570563
49092		2.846716	-5.939877	11.722764	2.166619	4.158309	2.789179	-0.541151	2.795862	1.652477	-0.863037	0.659424	-0.609863	0.030591	-0.058835	0.116970	0.381373	-0.328957	0.057716	-0.861981	-24.276815	-31.539548	-125.315430
49093		3.960161	-6.224994	11.244614	0.969278	3.123865	3.231842	-0.462159	2.880816	1.663877	-0.843750	0.666260	-0.621338	0.041732	-0.061649	0.111998	0.386927	-0.316885	0.067969	-0.863280	-24.655018	-29.638311	-125.097467
49094		5.133310	-6.555765	10.979187	-0.183448	2.079742	3.806943	-0.376824	2.918978	1.689362	-0.814697	0.677246	-0.641113	0.053479	-0.064906	0.109144	0.392601	-0.304390	0.077940	-0.864370	-24.971498	-27.711078	-124.892043
49095		6.073959	-6.761146	10.522868	-1.274628	1.072331	3.991064	-0.282588	2.931696	1.730083	-0.789063	0.689453	-0.664063	0.062855	-0.066926	0.104413	0.398476	-0.291544	0.087577	-0.865187	-25.230870	-25.765336	-124.680974
49096		6.482031	-6.523977	9.908360	-1.907183	0.152008	3.569265	-0.204396	2.906857	1.744403	-0.751465	0.697998	-0.666748	0.066817	-0.064562	0.098188	0.404421	-0.278566	0.096813	-0.865720	-25.439669	-23.829322	-124.467118
49097		6.104508	-6.172467	7.090061	-3.259729	-0.305168	0.906659	-0.111356	2.700545	1.588380	-0.729980	0.697510	-0.687256	0.062483	-0.061193	0.070098	0.409813	-0.266286	0.104994	-0.866095	-25.573023	-22.036795	-124.295055
49098		7.621194	-2.369244	1.410284	-4.797680	-4.304334	-4.899755	0.677183	2.013719	0.895598	-0.713867	0.701660	-0.699951	0.076453	-0.023396	0.013254	0.413536	-0.255684	0.107403	-0.867224	-25.176280	-20.771424	-124.324377
49099		13.610128	1.137362	12.982266	0.378724	-11.035991	5.455560	0.188917	2.041140	0.865201	-0.700928	0.699951	-0.702393	0.137366	0.011844	0.128436	0.416436	-0.245950	0.111941	-0.868078	-25.054376	-19.498074	-124.371398
49100		12.004158	-3.189133	11.646317	-2.523230	-7.404805	5.309890	-0.740582	2.218536	1.241026	-0.672363	0.707764	-0.713135	0.121517	-0.030712	0.115236	0.419661	-0.237141	0.121320	-0.867715	-25.515871	-18.042018	-124.262079
49101		7.563172	-6.724051	7.883801	-4.549857	-2.038970	2.006800	-0.945451	2.229834	1.430828	-0.652588	0.716064	-0.724854	0.076983	-0.066322	0.078300	0.423382	-0.228547	0.131821	-0.866682	-26.117573	-16.531025	-124.068402
49102		4.884384	-7.218088	6.386137	-4.275302	0.145022	0.108768	-0.820063	2.068880	1.490764	-0.638428	0.728027	-0.718994	0.050038	-0.071550	0.063642	0.427531	-0.220308	0.141474	-0.865255	-26.657887	-15.086464	-123.817145
49103		3.309957	-5.393708	4.129902	-3.382548	0.241311	-3.059763	-0.461402	1.643153	1.408341	-0.628418	0.728760	-0.727783	0.033816	-0.053606	0.041147	0.431955	-0.213164	0.148560	-0.863658	-27.001802	-13.878270	-123.508967
49104		4.627153	-2.739814	6.605824	-1.084676	-2.700625	-1.807560	-0.368339	1.261555	1.385037	-0.603271	0.740723	-0.722168	0.046875	-0.026954	0.065814	0.436615	-0.207466	0.154372	-0.861681	-27.305085	-12.869830	-123.118754
49105		5.416524	-1.944801	8.054354	-0.259091	-4.072566	-0.793912	-0.498544	1.041735	1.423467	-0.589600	0.745850	-0.731445	0.054720	-0.018859	0.080307	0.441436	-0.202947	0.160299	-0.859216	-27.692508	-11.959928	-122.656912
49106		5.264046	-2.617525	8.193820	-0.577542	-3.738344	-0.464464	-0.487607	0.964462	1.367869	-0.580078	0.751709	-0.719727	0.053211	-0.025613	0.081745	0.446056	-0.198768	0.165931	-0.856734	-28.063174	-11.101835	-122.210145
49107		4.963748	-2.620195	8.051477	-0.500438	-3.614454	-0.701478	-0.275123	0.930294	1.223868	-0.554199	0.754150	-0.718994	0.050170	-0.025785	0.080318	0.450267	-0.194364	0.170429	-0.854656	-28.293058	-10.297007	-121.834027
49108		4.637459	-1.675473	8.110138	0.338928	-3.971545	-1.198837	-0.066536	0.925319	1.052888	-0.556396	0.761963	-0.724854	0.046836	-0.016482	0.080891	0.453930	-0.189649	0.173843	-0.853088	-28.382581	-9.540833	-121.547087
49109		4.250227	-1.046701	8.143515	0.967979	-4.075613	-1.570816	0.001136	0.912036	0.869456	-0.536865	0.755859	-0.725586	0.042918	-0.010281	0.081240	0.456865	-0.184986	0.176761	-0.851945	-28.415489	-8.840435	-121.351742
49110		4.256972	-1.463626	8.211914	0.662219	-3.958784	-1.351707	-0.025738	0.935485	0.706651	-0.523926	0.758057	-0.724121	0.043005	-0.014474	0.081921	0.459044	-0.180424	0.179685	-0.851140	-28.447791	-8.173129	-121.246395
49111		4.098900	-2.074114	8.185659	0.249103	-3.595061	-1.145480	-0.047746	1.023462	0.564351	-0.512695	0.753906	-0.737305	0.041465	-0.020605	0.081650	0.460503	-0.175657	0.182775	-0.850691	-28.478530	-7.499770	-121.238355
49112		3.507786	-2.607402	7.790725	-0.066832	-2.853256	-1.347939	-0.053603	1.137665	0.452540	-0.510010	0.759766	-0.737061	0.035579	-0.025973	0.077713	0.461361	-0.170516	0.186043	-0.850564	-28.501216	-6.799995	-121.318688
49113		2.687142	-2.759450	7.205541	-0.077982	-2.074956	-1.910618	-0.056191	1.217203	0.365281	-0.503662	0.755615	-0.741211	0.027360	-0.027525	0.071898	0.461752	-0.165115	0.189427	-0.850670	-28.519193	-6.083587	-121.465399
49114		1.992060	-2.988407	6.804503	-0.118199	-1.386565	-2.245469	-0.083793	1.250730	0.319723	-0.496094	0.754150	-0.747559	0.020393	-0.029823	0.067931	0.461877	-0.159674	0.192957	-0.850848	-28.551329	-5.363316	-121.644353
49115		1.733301	-3.449335	6.664124	-0.429467	-0.995935	-2.188013	-0.120215	1.269883	0.321109	-0.484375	0.743896	-0.743896	0.017811	-0.034425	0.066550	0.461940	-0.154224	0.196683	-0.850966	-28.606398	-4.632719	-121.828354
49116		1.740903	-3.785281	6.913917	-0.614595	-0.973673	-1.823030	-0.175116	1.305405	0.367283	-0.473633	0.759766	-0.751953	0.017929	-0.037760	0.069056	0.462101	-0.148701	0.200747	-0.850912	-28.696018	-3.872252	-121.999452
49117		1.945150	-3.923172	7.273381	-0.714470	-1.254105	-1.446537	-0.249508	1.377713	0.437986	-0.467041	0.756592	-0.747314	0.020038	-0.039098	0.072646	0.462411	-0.142961	0.205341	-0.850631	-28.831711	-3.055894	-122.156425
49118		2.027556	-3.817596	7.389326	-0.680424	-1.515796	-1.414766	-0.343663	1.449389	0.509958	-0.450684	0.757813	-0.745361	0.020908	-0.037996	0.073809	0.462860	-0.137054	0.210537	-0.850088	-29.024063	-2.184516	-122.299229
49119		2.330165	-3.408124	7.424484	-0.576379	-2.101024	-1.601731	-0.404818	1.509951	0.540001	-0.444336	0.750244	-0.750488	0.023953	-0.033867	0.074134	0.463301	-0.130989	0.216143	-0.849398	-29.253759	-1.274597	-122.447163
49120		2.717381	-2.895454	7.408765	-0.463892	-2.794328	-1.898619	-0.447494	1.553242	0.523600	-0.419434	0.760010	-0.747070	0.027824	-0.028717	0.073938	0.463564	-0.124849	0.222002	-0.848667	-29.509696	-0.348692	-122.619114
49121		3.187447	-2.601118	7.293853	-0.598656	-3.421345	-2.192958	-0.445457	1.572017	0.464368	-0.414307	0.761475	-0.748779	0.032507	-0.025774	0.072742	0.463523	-0.118679	0.227845	-0.848026	-29.767525	0.569330	-122.830150
49122		3.703324	-2.346073	7.200247	-0.782433	-4.061376	-2.467370	-0.399368	1.563734	0.362424	-0.402832	0.762207	-0.756836	0.037637	-0.023249	0.071756	0.463054	-0.112547	0.233394	-0.847609	-30.002968	1.452889	-123.093317
49123		4.214774	-2.191469	7.049853	-1.066877	-4.618067	-2.755698	-0.334075	1.525998	0.242232	-0.391357	0.765625	-0.757324	0.042711	-0.021746	0.070210	0.462125	-0.106556	0.238498	-0.847470	-30.206822	2.282437	-123.408844
49124		4.592556	-2.063515	6.828409	-1.331705	-5.009610	-3.096591	-0.273633	1.470844	0.106476	-0.391113	0.769775	-0.763916	0.046437	-0.020517	0.067972	0.460692	-0.100816	0.243129	-0.847636	-30.382752	3.044164	-123.778451
49125		4.974744	-2.180033	6.497621	-1.824291	-5.235937	-3.411467	-0.218834	1.374605	-0.040082	-0.375488	0.767578	-0.762207	0.050188	-0.021739	0.064656	0.458758	-0.095529	0.247222	-0.848114	-30.534817	3.714878	-124.195088
49126		5.318973	-2.371766	6.116462	-2.370132	-5.355181	-3.727328	-0.166511	1.249550	-0.166452	-0.362061	0.764404	-0.764404	0.053551	-0.023711	0.060851	0.456447	-0.090805	0.250733	-0.848848	-30.663197	4.285898	-124.639479
49127		5.395039	-2.427595	5.630507	-2.700113	-5.256880	-4.175634	-0.150486	1.085470	-0.273215	-0.366211	0.765381	-0.764160	0.054222	-0.024308	0.056030	0.453879	-0.086872	0.253745	-0.849741	-30.786982	4.743894	-125.090065
49128		5.369307	-2.518550	5.139476	-2.987511	-5.036833	-4.588552	-0.141756	0.856838	-0.358140	-0.354736	0.766113	-0.768799	0.053867	-0.025246	0.051182	0.451233	-0.083995	0.256156	-0.850716	-30.906612	5.063497	-125.516322
49129		5.593273	-2.864672	4.888255	-3.500481	-4.970679	-4.672167	-0.133036	0.595719	-0.402998	-0.355225	0.754639	-0.771973	0.056020	-0.028727	0.048735	0.448725	-0.082267	0.257919	-0.851678	-31.018316	5.240618	-125.888288
49130		5.856156	-3.170623	4.972831	-3.870115	-5.064600	-4.478978	-0.110104	0.331928	-0.401541	-0.352783	0.768555	-0.770752	0.058580	-0.031796	0.049649	0.446569	-0.081607	0.258989	-0.852550	-31.110280	5.288154	-126.181546
49131		5.920931	-3.504203	4.944675	-4.173762	-4.936873	-4.336043	-0.050791	0.084487	-0.366425	-0.353027	0.763916	-0.773193	0.059166	-0.035138	0.049431	0.444904	-0.081825	0.259266	-0.853315	-31.160003	5.224132	-126.383994
49132		5.568694	-3.494090	4.870139	-3.990585	-4.612719	-4.359682	0.038293	-0.168698	-0.322523	-0.361816	0.768311	-0.766846	0.055589	-0.035040	0.048742	0.443791	-0.082866	0.258618	-0.853990	-31.149470	5.049162	-126.489372
49133		5.257874	-3.262589	4.889202	-3.628295	-4.455647	-4.411155	0.122654	-0.442157	-0.295455	-0.352539	0.759033	-0.772217	0.052422	-0.032733	0.048988	0.443178	-0.084856	0.257012	-0.854598	-31.082210	4.747751	-126.500280
49134		4.969429	-3.216683	4.924037	-3.395427	-4.228386	-4.346430	0.170036	-0.709640	-0.264133	-0.365479	0.765381	-0.768311	0.049477	-0.032274	0.049389	0.443059	-0.087838	0.254622	-0.855074	-30.980165	4.324673	-126.416911
49135		4.855084	-3.523871	5.254098	-3.395243	-4.068841	-3.853540	0.228109	-0.966003	-0.234272	-0.367432	0.763672	-0.773682	0.048255	-0.035355	0.052734	0.443409	-0.091753	0.251422	-0.855428	-30.839346	3.783671	-126.244167
49136		5.253104	-3.906770	6.051909	-3.559395	-4.433215	-2.945366	0.281563	-1.183546	-0.149182	-0.383301	0.761719	-0.768799	0.052143	-0.039192	0.060773	0.444409	-0.096366	0.247544	-0.855533	-30.663217	3.160517	-125.967182
49137		5.283728	-4.350107	6.400723	-3.708061	-4.302679	-2.359715	0.357719	-1.325148	-0.019113	-0.389404	0.759521	-0.763672	0.052408	-0.043621	0.064277	0.446157	-0.101255	0.243076	-0.855340	-30.441576	2.503786	-125.587012
49138		4.997110	-4.103702	6.490770	-3.275004	-4.154201	-2.332207	0.445975	-1.448109	0.115149	-0.396973	0.769531	-0.775146	0.049524	-0.041154	0.065176	0.448651	-0.106299	0.238013	-0.854846	-30.169925	1.824054	-125.107804
49139		-6.306221	-12.863966	11.695581	-1.005897	7.811083	6.920790	0.526729	-1.053278	0.412534	-0.407227	0.764160	-0.772461	-0.063410	-0.129077	0.116283	0.451966	-0.109122	0.233635	-0.853952	-29.855808	1.422245	-124.597843
49140		-13.061329	-29.713070	42.523243	2.376634	12.135418	42.232220	1.067609	0.935096	1.574911	-0.390869	0.767822	-0.781006	-0.126271	-0.300403	0.424232	0.458184	-0.100861	0.232060	-0.852081	-29.228869	2.336542	-124.073424
49141		-36.931759	-2.005938	-12.079297	14.529520	35.203812	-17.779489	0.834687	0.326822	0.672098	-0.383057	0.768066	-0.783203	-0.369445	-0.020798	-0.120275	0.461109	-0.096770	0.229611	-0.851641	-28.741931	2.689617	-123.823866
49142		-20.259757	8.907961	-6.265230	15.490259	14.414099	-18.831029	1.052021	-1.963973	-1.023364	-0.401123	0.756592	-0.781738	-0.201512	0.090447	-0.064161	0.459509	-0.103865	0.220115	-0.854174	-28.140265	1.424106	-123.800177
49143		12.391825	-6.689140	20.997416	-3.762109	-12.731999	11.702549	0.617556	-2.183453	-0.813444	-0.419922	0.753418	-0.774414	0.121342	-0.068039	0.211099	0.458754	-0.112649	0.212049	-0.855506	-27.786324	0.103861	-123.622002
49144		14.449413	-6.620691	10.305869	-8.887176	-11.387619	2.441543	0.922915	-1.093594	-0.348560	-0.425781	0.744629	-0.776611	0.143813	-0.066935	0.103539	0.458959	-0.115567	0.205415	-0.856625	-27.259941	-0.540953	-123.506177
49145		6.119725	-2.654166	7.385619	-2.495303	-5.549777	-1.937734	1.146000	-0.972550	-0.344435	-0.432373	0.731445	-0.782715	0.060791	-0.027070	0.073998	0.459159	-0.117446	0.198095	-0.857985	-26.606739	-1.124231	-123.426400
49146		0.156267	-5.717332	10.424248	-0.348216	0.386598	2.066048	1.019645	-0.982204	-0.101183	-0.434082	0.732178	-0.781494	0.001023	-0.057704	0.103955	0.460314	-0.119407	0.191426	-0.858609	-26.029362	-1.651294	-123.225355
49147		-4.305685	-3.297086	5.350067	1.926894	4.139102	-3.714607	0.945186	-1.295607	-0.028490	-0.455811	0.726563	-0.780518	-0.043406	-0.033216	0.053064	0.462009	-0.122812	0.184388	-0.858758	-25.500862	-2.324155	-122.913806
49148		-2.109615	-2.274937	7.309910	2.233340	1.506258	-2.342606	0.776683	-1.738337	-0.005900	-0.464355	0.723389	-0.777100	-0.021731	-0.023032	0.072823	0.464072	-0.128473	0.177051	-0.858362	-25.078453	-3.223133	-122.487380
49149		1.305225	-2.601511	10.446185	1.395976	-1.617554	0.818672	0.579769	-1.825706	0.120991	-0.477783	0.715820	-0.784180	0.012114	-0.026310	0.104499	0.466586	-0.134845	0.170422	-0.857363	-24.781150	-4.139709	-121.979120
49150		2.610224	-2.038674	10.232522	1.115045	-2.796899	0.512291	0.435469	-1.742523	0.159373	-0.483398	0.714600	-0.769287	0.025226	-0.020589	0.102503	0.469058	-0.141150	0.164615	-0.856133	-24.573870	-5.005832	-121.474167
49151		2.940082	-1.726717	10.575483	1.389411	-3.126696	0.758839	0.403918	-1.596070	0.085478	-0.495605	0.714844	-0.760986	0.028563	-0.017469	0.105950	0.471035	-0.146954	0.159224	-0.855090	-24.385086	-5.815076	-121.045268
49152		2.023745	-1.905898	10.347961	1.694164	-2.074217	0.561980	0.402803	-1.417201	-0.049902	-0.504150	0.715576	-0.758057	0.019499	-0.019272	0.103581	0.472262	-0.152093	0.154149	-0.854444	-24.190046	-6.564023	-120.731961
49153		0.365240	-1.701771	9.183870	2.261027	-0.486648	-0.756066	0.423304	-1.308170	-0.249781	-0.513428	0.717285	-0.757568	0.003030	-0.017216	0.091824	0.472542	-0.156867	0.149083	-0.854325	-23.971387	-7.304025	-120.551941
49154		-0.371835	-1.658766	8.240817	2.309653	0.343444	-1.728930	0.431886	-1.323542	-0.456589	-0.527832	0.713623	-0.757568	-0.004302	-0.016756	0.082345	0.471933	-0.161829	0.143775	-0.854646	-23.735504	-8.100460	-120.480309
49155		0.489600	-2.151511	8.839991	1.783216	-0.069929	-0.878045	0.368243	-1.359833	-0.584925	-0.535400	0.701172	-0.753906	0.004232	-0.021691	0.088390	0.470723	-0.167183	0.138542	-0.855147	-23.527940	-8.945906	-120.471347
49156		1.506507	-2.566993	8.320131	0.782294	-0.549473	-1.028145	0.333382	-1.348283	-0.654449	-0.552002	0.702881	-0.739502	0.014420	-0.025857	0.083257	0.469153	-0.172605	0.133418	-0.855747	-23.333402	-9.800929	-120.505069
49157		1.663068	-2.878456	8.299907	0.501721	-0.388512	-0.894419	0.320587	-1.347739	-0.696895	-0.563477	0.707764	-0.744873	0.015970	-0.028974	0.083062	0.467361	-0.178075	0.128306	-0.856388	-23.141200	-10.665352	-120.564646
49158		1.840678	-3.106371	8.755582	0.479037	-0.307611	-0.359014	0.307824	-1.340874	-0.732328	-0.574951	0.698242	-0.738525	0.017705	-0.031264	0.087628	0.465375	-0.183555	0.123225	-0.857059	-22.950764	-11.533694	-120.647937
49159		1.846436	-2.765728	8.331300	0.596868	-0.342026	-0.868738	0.285194	-1.372030	-0.772335	-0.580322	0.690674	-0.734375	0.017785	-0.027846	0.083397	0.463185	-0.189237	0.118124	-0.857727	-22.768456	-12.427329	-120.748876
49160		2.510376	-2.839480	8.916603	0.515246	-0.735293	-0.165810	0.246334	-1.413852	-0.799086	-0.593018	0.693115	-0.733154	0.024359	-0.028603	0.089305	0.460840	-0.195190	0.113060	-0.858338	-22.604954	-13.348472	-120.857963
49161		2.360457	-2.953626	8.634443	0.436162	-0.398259	-0.405327	0.239402	-1.417202	-0.828859	-0.609619	0.685791	-0.727295	0.022869	-0.029736	0.086473	0.458330	-0.201179	0.107981	-0.858953	-22.439329	-14.277828	-120.985653
49162		2.588888	-2.819563	8.709052	0.511975	-0.516541	-0.327499	0.226755	-1.461525	-0.859762	-0.614990	0.685547	-0.727783	0.025130	-0.028404	0.087244	0.455667	-0.207387	0.102817	-0.859527	-22.276241	-15.236831	-121.123589
49163		3.605568	-2.926520	8.815929	0.035339	-1.143011	0.085552	0.189010	-1.478431	-0.845421	-0.627197	0.676270	-0.720459	0.035278	-0.029499	0.088394	0.453001	-0.213734	0.097783	-0.859969	-22.134874	-16.201557	-121.253084
49164		3.887780	-2.736185	8.356551	-0.113308	-1.343234	-0.293539	0.208806	-1.449781	-0.865944	-0.638184	0.676025	-0.711670	0.038152	-0.027616	0.083815	0.450222	-0.219905	0.092701	-0.860435	-21.973982	-17.154935	-121.403691
49165		3.442668	-2.802844	8.540609	0.202439	-0.784310	-0.221465	0.221868	-1.448566	-0.909708	-0.651123	0.674805	-0.707764	0.033679	-0.028278	0.085621	0.447236	-0.226048	0.087509	-0.860944	-21.794615	-18.116824	-121.582714
49166		3.562966	-3.162051	8.394918	-0.128087	-0.526655	-0.175682	0.195426	-1.464910	-0.913762	-0.663818	0.661377	-0.704590	0.034868	-0.031863	0.084175	0.444176	-0.232304	0.082384	-0.861368	-21.626641	-19.087507	-121.764445
49167		3.818090	-3.777044	8.148854	-0.755434	-0.227810	-0.085269	0.209272	-1.503107	-0.888062	-0.674072	0.663330	-0.698975	0.037399	-0.038023	0.081732	0.441225	-0.238667	0.077138	-0.861632	-21.454165	-20.072882	-121.927225
49168		4.088702	-3.903348	7.882677	-1.045501	-0.229463	-0.172044	0.254455	-1.532871	-0.871988	-0.685547	0.661377	-0.691162	0.040111	-0.039310	0.079086	0.438374	-0.245031	0.071645	-0.861774	-21.257130	-21.070028	-122.078657
49169		4.207448	-3.770644	8.070127	-0.856049	-0.223556	-0.001372	0.299740	-1.552616	-0.863633	-0.698975	0.653564	-0.681641	0.041283	-0.038007	0.080967	0.435587	-0.251361	0.065917	-0.861822	-21.033268	-22.075745	-122.225838
49170		5.141449	-3.679988	8.037272	-1.206659	-0.843944	0.306765	0.328772	-1.595019	-0.867799	-0.710938	0.657959	-0.682861	0.050611	-0.037153	0.080718	0.432796	-0.257790	0.059963	-0.861764	-20.790886	-23.104169	-122.371557
49171		7.183694	-4.145459	9.487025	-1.759194	-1.777006	2.537910	0.354707	-1.538373	-0.823210	-0.721436	0.644043	-0.671387	0.070933	-0.041917	0.095344	0.430178	-0.263885	0.054071	-0.861619	-20.534377	-24.092913	-122.509646
49172		7.921587	-4.492301	10.072729	-2.010198	-1.842514	3.489659	0.418644	-1.383864	-0.740167	-0.737061	0.638428	-0.668945	0.078349	-0.045426	0.101177	0.427930	-0.269134	0.048342	-0.861455	-20.242824	-24.981185	-122.638846
49173		8.086871	-3.990523	10.843895	-1.292163	-1.971077	4.092478	0.442229	-1.200946	-0.637873	-0.743164	0.636230	-0.663818	0.080088	-0.040402	0.108832	0.426085	-0.273507	0.043036	-0.861274	-19.942606	-25.750637	-122.752892
49174		11.038276	-3.560106	14.389707	-0.582569	-3.722147	8.281079	0.385614	-0.900466	-0.502986	-0.755127	0.635986	-0.668213	0.109643	-0.036155	0.144322	0.424662	-0.276664	0.038799	-0.861170	-19.678436	-26.331046	-122.855849
49175		8.052369	-2.959533	10.085692	-0.871229	-2.436745	3.172810	0.254193	-0.571146	-0.365389	-0.766113	0.630127	-0.660400	0.080181	-0.029870	0.101048	0.423576	-0.278653	0.036015	-0.861185	-19.493014	-26.707321	-122.949416
49176		7.243895	-3.212896	10.014844	-0.675786	-1.594935	2.840087	0.221924	-0.588607	-0.239327	-0.766602	0.628662	-0.661865	0.072105	-0.032327	0.100325	0.422987	-0.280756	0.033509	-0.860892	-19.361062	-27.068345	-122.964388
49177		6.390504	-1.991027	8.944683	0.079534	-1.861964	1.202598	0.156774	-0.525271	-0.181816	-0.775146	0.634277	-0.654297	0.063652	-0.020038	0.089599	0.422538	-0.282715	0.031496	-0.860548	-19.275838	-27.384677	-122.958664
49178		6.406801	-2.673443	8.640975	-0.548525	-1.442072	1.163661	0.102381	-0.390323	-0.137705	-0.780029	0.626709	-0.648682	0.063881	-0.026823	0.086521	0.422179	-0.284196	0.030067	-0.860287	-19.220733	-27.619205	-122.955239
49179		5.605745	-2.801987	8.399176	-0.362986	-0.773099	0.632030	0.074255	-0.294453	-0.103486	-0.776855	0.623779	-0.650391	0.055919	-0.028080	0.084064	0.421910	-0.285322	0.029007	-0.860083	-19.181901	-27.795932	-122.951475
49180		5.924312	-2.676270	8.600432	-0.312742	-1.026085	0.914689	0.054618	-0.204034	-0.071001	-0.781982	0.631836	-0.659180	0.059146	-0.026807	0.086057	0.421740	-0.286091	0.028270	-0.859935	-19.154569	-27.917097	-122.947217
49181		5.342606	-2.702132	8.580151	-0.053777	-0.564124	0.634456	0.027717	-0.150641	-0.046027	-0.791992	0.628906	-0.654541	0.053355	-0.027045	0.085838	0.421631	-0.286687	0.027796	-0.859805	-19.144491	-28.005212	-122.939015
49182		5.434000	-2.584782	8.286107	-0.159069	-0.752801	0.398923	0.004630	-0.112309	-0.022482	-0.791992	0.631592	-0.652588	0.054291	-0.025856	0.082891	0.421584	-0.287161	0.027537	-0.859679	-19.150597	-28.067614	-122.924577
49183		5.387819	-2.620826	8.233162	-0.183601	-0.699313	0.344061	-0.007678	-0.068033	-0.002475	-0.791016	0.629883	-0.655029	0.053850	-0.026206	0.082351	0.421599	-0.287471	0.027451	-0.859570	-19.165108	-28.102845	-122.907238
49184		5.023600	-2.759936	8.067342	-0.188342	-0.369397	0.074874	-0.015410	-0.054011	-0.000358	-0.792480	0.627930	-0.646973	0.050214	-0.027593	0.080689	0.421611	-0.287732	0.027433	-0.859478	-19.183270	-28.129527	-122.891620
49185		4.745950	-2.932453	8.064802	-0.174695	-0.051548	-0.008037	-0.012761	-0.037387	0.002864	-0.796387	0.626465	-0.647949	0.047445	-0.029319	0.080659	0.421637	-0.287921	0.027441	-0.859401	-19.199176	-28.147175	-122.877520
49186		4.756519	-3.056210	8.173164	-0.207759	0.043149	0.123130	-0.003185	-0.047747	0.001747	-0.795166	0.627441	-0.643066	0.047546	-0.030560	0.081743	0.421675	-0.288129	0.027387	-0.859315	-19.210332	-28.170064	-122.861926
49187		4.633485	-2.989734	7.977848	-0.199552	0.056501	-0.116774	0.005446	-0.057123	-0.010569	-0.792480	0.625977	-0.644043	0.046310	-0.029902	0.079791	0.421672	-0.288366	0.027256	-0.859241	-19.213928	-28.200921	-122.851836
49188		5.224507	-2.783531	8.028951	-0.306272	-0.498468	0.145490	0.022611	-0.073330	-0.015308	-0.807861	0.632568	-0.650635	0.052213	-0.027848	0.080306	0.421677	-0.288632	0.027013	-0.859157	-19.207961	-28.240866	-122.841230
49189		4.836709	-3.067124	8.241366	-0.209292	0.018061	0.221105	0.018468	-0.049919	-0.010285	-0.805908	0.627930	-0.646729	0.048345	-0.030681	0.082423	0.421694	-0.288810	0.026841	-0.859094	-19.203463	-28.267782	-122.832503
49190		4.673767	-2.950961	8.129802	-0.105285	0.046183	0.017508	0.019306	-0.047132	-0.016291	-0.811279	0.638672	-0.647461	0.046716	-0.029521	0.081306	0.421686	-0.288971	0.026666	-0.859049	-19.196456	-28.293738	-122.828109
49191		4.987399	-2.743453	8.243630	-0.047492	-0.292815	0.200810	0.018216	-0.035707	-0.014180	-0.806641	0.636719	-0.648438	0.049857	-0.027446	0.082443	0.421683	-0.289090	0.026520	-0.859015	-19.189536	-28.313701	-122.824818
49192		4.981386	-2.724405	8.214052	-0.045580	-0.304011	0.167931	0.009928	-0.020864	-0.005610	-0.802979	0.632080	-0.651611	0.049805	-0.027250	0.082144	0.421704	-0.289156	0.026456	-0.858984	-19.188351	-28.323432	-122.819482
49193		4.820746	-2.888645	8.224462	-0.079154	-0.076403	0.147912	0.004245	-0.013469	-0.001886	-0.805664	0.635498	-0.645996	0.048202	-0.028889	0.082247	0.421731	-0.289207	0.026434	-0.858955	-19.190762	-28.329053	-122.813392
49194		5.152696	-2.416236	8.035534	0.000913	-0.662153	0.011763	-0.000355	-0.029521	-0.004292	-0.807373	0.644775	-0.650879	0.051515	-0.024163	0.080363	0.421744	-0.289332	0.026398	-0.858907	-19.196736	-28.343221	-122.805391
49195		5.108558	-2.646315	8.137901	-0.085729	-0.460567	0.142528	-0.013622	-0.016278	0.003060	-0.807373	0.635498	-0.647949	0.051079	-0.026457	0.081385	0.421767	-0.289431	0.026454	-0.858861	-19.211110	-28.349437	-122.795657
49196		4.595708	-2.850807	8.189403	0.042985	0.059908	0.001003	-0.014945	-0.016372	0.011322	-0.806885	0.639160	-0.636963	0.045952	-0.028499	0.081900	0.421824	-0.289529	0.026531	-0.858798	-19.228670	-28.353543	-122.780867
49197		4.364628	-2.763885	8.270936	0.259904	0.190104	-0.066215	-0.023208	-0.011714	0.011678	-0.815918	0.643066	-0.653076	0.043643	-0.027627	0.082715	0.421870	-0.289628	0.026650	-0.858738	-19.250589	-28.355663	-122.766810
49198		5.102455	-2.495107	8.023751	-0.025732	-0.578494	0.000868	-0.028779	-0.032573	0.005560	-0.804932	0.637939	-0.653564	0.051012	-0.024938	0.080249	0.421884	-0.289825	0.026744	-0.858662	-19.276051	-28.369611	-122.752076
49199		5.177844	-2.545335	8.012153	-0.099029	-0.604796	0.041642	-0.024179	-0.022315	0.015457	-0.816650	0.637939	-0.651123	0.051771	-0.025440	0.080130	0.421946	-0.289971	0.026851	-0.858579	-19.300714	-28.376741	-122.733413
49200		4.651008	-2.975523	8.014049	-0.148701	0.060485	-0.082075	-0.028214	-0.015149	0.014659	-0.811035	0.646729	-0.648438	0.046506	-0.029741	0.080148	0.421998	-0.290091	0.026992	-0.858508	-19.326737	-28.379532	-122.716824
49201		4.745291	-2.834332	8.009173	-0.092223	-0.101540	-0.082361	-0.017930	-0.034488	0.008570	-0.812012	0.649414	-0.654053	0.047440	-0.028334	0.080102	0.422040	-0.290277	0.027036	-0.858423	-19.347063	-28.394544	-122.699759
49202		4.613925	-2.827158	8.053067	0.002221	0.000746	-0.110470	-0.014505	-0.044938	0.005196	-0.820557	0.651123	-0.652832	0.046122	-0.028265	0.080543	0.422075	-0.290497	0.027041	-0.858331	-19.365534	-28.415224	-122.682548
49203		4.695183	-2.889232	7.884684	-0.163474	-0.050092	-0.193362	-0.004731	-0.073607	-0.002674	-0.822510	0.641113	-0.649658	0.046922	-0.028891	0.078865	0.422094	-0.290824	0.026930	-0.858215	-19.379054	-28.453510	-122.663921
49204		5.138252	-2.830599	7.887973	-0.325103	-0.410372	0.003622	-0.000612	-0.082858	-0.002775	-0.811279	0.651123	-0.649170	0.051349	-0.028306	0.078901	0.422120	-0.291179	0.026784	-0.858086	-19.391169	-28.496194	-122.643384
49205		4.606392	-3.105595	8.047519	-0.179538	0.197289	-0.037466	0.013030	-0.082548	-0.006583	-0.822998	0.643066	-0.661865	0.046030	-0.031063	0.080492	0.422149	-0.291508	0.026572	-0.857967	-19.394330	-28.540059	-122.625195
49206		4.548513	-2.933517	8.000701	-0.049815	0.127427	-0.154168	0.023152	-0.111521	-0.010724	-0.826416	0.643555	-0.654541	0.045439	-0.029347	0.080029	0.422180	-0.291936	0.026253	-0.857816	-19.393501	-28.599742	-122.603315
49207		4.799868	-3.072321	7.939833	-0.293382	0.026868	-0.043755	0.016590	-0.111015	-0.011578	-0.821777	0.651855	-0.653809	0.047953	-0.030733	0.079422	0.422196	-0.292380	0.025958	-0.857666	-19.396152	-28.659941	-122.582009
49208		4.507102	-2.862263	7.946469	0.002997	0.118664	-0.239873	0.028172	-0.121889	-0.013535	-0.825439	0.659424	-0.647217	0.045021	-0.028637	0.079488	0.422223	-0.292842	0.025591	-0.857506	-19.392750	-28.725763	-122.559585
49209		4.778880	-2.809201	7.890835	-0.110722	-0.117569	-0.170670	0.023145	-0.133361	-0.017849	-0.822021	0.653809	-0.654053	0.047734	-0.028105	0.078937	0.422224	-0.293369	0.025212	-0.857337	-19.392179	-28.799232	-122.537272
49210		5.349852	-2.569683	8.000874	-0.145234	-0.659278	0.126247	0.028786	-0.150611	-0.024710	-0.834961	0.667725	-0.652832	0.053435	-0.025715	0.080045	0.422207	-0.293954	0.024765	-0.857158	-19.388170	-28.882705	-122.515480
49211		4.810872	-2.946495	8.144727	-0.076795	0.021310	0.094711	0.025423	-0.114292	-0.017478	-0.832031	0.658203	-0.654053	0.048060	-0.029480	0.081471	0.422210	-0.294394	0.024416	-0.857015	-19.384463	-28.945810	-122.497056
49212		4.836699	-2.753491	8.188324	0.076086	-0.103494	0.087187	0.022234	-0.108285	-0.020972	-0.835449	0.663574	-0.649170	0.048320	-0.027549	0.081906	0.422194	-0.294811	0.024092	-0.856889	-19.380923	-29.005698	-122.482138
49213		5.034905	-2.581458	8.059604	0.042023	-0.378172	0.027364	0.020808	-0.092867	-0.030978	-0.845459	0.659912	-0.651123	0.050308	-0.025831	0.080617	0.422130	-0.295170	0.023789	-0.856805	-19.373586	-29.059793	-122.476708
49214		5.239493	-2.844001	8.019814	-0.256880	-0.361683	0.170360	0.003841	-0.074673	-0.016404	-0.841064	0.666016	-0.659180	0.052363	-0.028446	0.080217	0.422103	-0.295481	0.023622	-0.856716	-19.378432	-29.100646	-122.466269
49215		5.108522	-2.814272	7.951445	-0.206325	-0.292734	0.041973	0.009611	-0.068454	-0.025431	-0.844971	0.668457	-0.658203	0.051054	-0.028153	0.079531	0.422043	-0.295759	0.023426	-0.856655	-19.376601	-29.140502	-122.462715
49216		4.940160	-2.806305	8.007785	-0.088692	-0.156394	0.004279	0.003307	-0.062523	-0.030023	-0.839111	0.678955	-0.655273	0.049372	-0.028072	0.080093	0.421954	-0.296021	0.023267	-0.856613	-19.376374	-29.177377	-122.463341
49217		4.880036	-2.986369	8.250504	-0.057038	0.060069	0.227089	0.003245	-0.058579	-0.033320	-0.847656	0.674561	-0.665039	0.048771	-0.029873	0.082519	0.421850	-0.296270	0.023108	-0.856582	-19.374764	-29.213402	-122.466821
49218		5.135872	-2.740962	8.043199	-0.108620	-0.324055	0.110331	-0.000669	-0.069454	-0.035699	-0.854004	0.672119	-0.654541	0.051326	-0.027419	0.080450	0.421732	-0.296571	0.022942	-0.856541	-19.375834	-29.255103	-122.469454
49219		5.613109	-2.432826	7.907338	-0.181131	-0.896879	0.142935	-0.014978	-0.058965	-0.031050	-0.857666	0.679932	-0.653564	0.056104	-0.024331	0.079092	0.421610	-0.296860	0.022863	-0.856502	-19.385390	-29.290909	-122.471443
49220		5.000529	-2.665897	8.213382	0.105893	-0.228807	0.162701	-0.017234	-0.029732	-0.010252	-0.855225	0.684082	-0.658447	0.049992	-0.026654	0.082144	0.421572	-0.297022	0.022890	-0.856464	-19.399431	-29.306301	-122.466959
49221		4.939755	-2.778004	8.373850	0.143520	-0.076506	0.297377	-0.021917	-0.041545	-0.010807	-0.856689	0.679443	-0.649658	0.049379	-0.027774	0.083752	0.421525	-0.297250	0.022908	-0.856408	-19.417243	-29.328855	-122.460187
49222		4.996971	-2.722479	8.262805	0.102172	-0.176444	0.217965	-0.031305	-0.041201	-0.003898	-0.864014	0.681396	-0.662109	0.049952	-0.027213	0.082643	0.421494	-0.297490	0.022980	-0.856338	-19.442514	-29.349230	-122.449244
49223		4.815049	-2.716797	8.178102	0.151757	-0.063269	0.057470	-0.032488	-0.041550	-0.000713	-0.868896	0.676270	-0.661865	0.048133	-0.027155	0.081795	0.421474	-0.297738	0.023058	-0.856259	-19.469462	-29.369856	-122.436191
49224		5.191334	-2.537425	7.975982	0.001826	-0.496768	0.023877	-0.038428	-0.059917	-0.009587	-0.874512	0.677979	-0.647217	0.051888	-0.025361	0.079780	0.421411	-0.298074	0.023113	-0.856172	-19.499119	-29.401419	-122.424642
49225		5.165866	-2.834743	7.906661	-0.227512	-0.300561	0.040999	-0.041466	-0.027960	0.004669	-0.872559	0.684082	-0.654297	0.051648	-0.028330	0.079080	0.421399	-0.298283	0.023266	-0.856101	-19.531401	-29.413670	-122.411210
49226		4.612457	-2.855923	8.011455	0.076548	0.141614	-0.138570	-0.038587	-0.031758	0.000237	-0.868652	0.690186	-0.652588	0.046112	-0.028544	0.080127	0.421374	-0.298497	0.023395	-0.856035	-19.561124	-29.428135	-122.399725
49227		4.641083	-2.735110	7.971022	0.132513	0.035049	-0.192974	-0.034438	-0.049267	-0.012297	-0.876709	0.681396	-0.659668	0.046390	-0.027340	0.079726	0.421302	-0.298784	0.023448	-0.855969	-19.586535	-29.455136	-122.392095
49228		5.305897	-2.830559	7.735324	-0.364554	-0.439182	-0.031376	-0.025928	-0.070295	-0.023637	-0.874268	0.687256	-0.649170	0.053028	-0.028302	0.077376	0.421199	-0.299139	0.023407	-0.855897	-19.605927	-29.494981	-122.386886
49229		5.022682	-2.887558	7.938728	-0.159106	-0.146694	0.012886	-0.010910	-0.067593	-0.021042	-0.884766	0.685059	-0.653809	0.050197	-0.028877	0.079406	0.421127	-0.299456	0.023307	-0.855824	-19.617201	-29.533557	-122.380605
49230		4.468009	-3.005751	7.899413	-0.000492	0.333856	-0.258270	-0.004409	-0.072397	-0.035932	-0.900391	0.689209	-0.656738	0.044646	-0.030064	0.079011	0.421003	-0.299777	0.023151	-0.855777	-19.620746	-29.576901	-122.382537
49231		4.634751	-3.064937	7.973902	-0.076248	0.272770	-0.097871	0.012907	-0.087128	-0.055247	-0.892822	0.690674	-0.654785	0.046304	-0.030667	0.079757	0.420822	-0.300131	0.022857	-0.855750	-19.610037	-29.632597	-122.393158
49232		4.776752	-2.913973	7.953025	-0.042834	0.076717	-0.088929	0.018775	-0.108751	-0.069036	-0.896729	0.684814	-0.649170	0.047714	-0.029164	0.079553	0.420595	-0.300562	0.022475	-0.855720	-19.594090	-29.701926	-122.407628
49233		4.827958	-2.954784	7.822067	-0.161165	0.049726	-0.158870	0.027823	-0.118827	-0.087900	-0.900879	0.683350	-0.647461	0.048220	-0.029580	0.078245	0.420301	-0.301023	0.022001	-0.855715	-19.568197	-29.780996	-122.431592
49234		5.095686	-2.933931	7.887350	-0.232075	-0.131824	0.021589	0.025966	-0.128598	-0.100358	-0.908691	0.677246	-0.645264	0.050891	-0.029375	0.078902	0.419952	-0.301527	0.021500	-0.855721	-19.540538	-29.867036	-122.461257
49235		4.855173	-3.189015	8.059247	-0.204229	0.260986	0.116267	0.026486	-0.117658	-0.107866	-0.909668	0.673096	-0.647217	0.048487	-0.031927	0.080617	0.419570	-0.301989	0.021005	-0.855759	-19.508959	-29.949282	-122.498047
49236		5.175309	-3.179917	8.098639	-0.322695	0.044237	0.305491	0.032001	-0.106960	-0.110042	-0.910645	0.680176	-0.644775	0.051692	-0.031841	0.081009	0.419186	-0.302388	0.020508	-0.855818	-19.472284	-30.025458	-122.538685
49237		5.136181	-2.668086	7.892806	-0.051011	-0.288585	-0.029564	0.033746	-0.119323	-0.123671	-0.920410	0.677734	-0.649658	0.051298	-0.026726	0.078954	0.418747	-0.302843	0.019954	-0.855885	-19.431615	-30.111579	-122.585153
49238		5.387970	-2.954918	7.877662	-0.376016	-0.274649	0.167417	0.022250	-0.100712	-0.119352	-0.921387	0.677734	-0.636963	0.053822	-0.029590	0.078800	0.418307	-0.303236	0.019499	-0.855971	-19.396724	-30.186105	-122.633170
49239		4.601309	-2.903726	8.175114	0.188253	0.343932	-0.000327	0.028653	-0.094848	-0.115881	-0.933350	0.667480	-0.638428	0.045957	-0.029076	0.081769	0.417891	-0.303596	0.019030	-0.856058	-19.358506	-30.257474	-122.680350
49240		5.267264	-2.794021	7.963701	-0.155570	-0.243319	0.131543	0.023899	-0.128565	-0.137380	-0.933838	0.665283	-0.632324	0.052602	-0.027986	0.079667	0.417379	-0.304107	0.018481	-0.856138	-19.319853	-30.350424	-122.733723
49241		5.490186	-2.596274	7.915392	-0.142628	-0.527839	0.149101	0.019243	-0.126523	-0.138065	-0.939453	0.664307	-0.632080	0.054834	-0.026008	0.079186	0.416855	-0.304623	0.017953	-0.856221	-19.283286	-30.443067	-122.788050
49242		5.434811	-2.573991	7.877661	-0.117316	-0.493632	0.084922	0.017491	-0.138101	-0.146293	-0.933350	0.673828	-0.620850	0.054275	-0.025787	0.078812	0.416295	-0.305188	0.017398	-0.856303	-19.246252	-30.542800	-122.845170
49243		5.326715	-2.696135	7.918477	-0.126027	-0.309049	0.098614	0.014440	-0.137865	-0.142247	-0.940430	0.667969	-0.630371	0.053193	-0.027005	0.079220	0.415747	-0.305763	0.016860	-0.856376	-19.212073	-30.642322	-122.899885
49244		4.840036	-2.798835	8.128249	0.146853	0.173850	0.050174	0.019779	-0.134417	-0.136495	-0.951904	0.661133	-0.622559	0.048327	-0.028029	0.081312	0.415232	-0.306306	0.016318	-0.856442	-19.176162	-30.738155	-122.951905
49245		5.084850	-2.803485	7.946592	-0.063079	-0.022177	0.029012	0.018780	-0.170641	-0.159130	-0.952393	0.646484	-0.616699	0.050758	-0.028083	0.079507	0.414619	-0.307013	0.015668	-0.856498	-19.137416	-30.858533	-123.010347
49246		5.757946	-2.502366	8.026376	-0.117278	-0.664509	0.355062	0.021902	-0.185978	-0.162453	-0.957764	0.650146	-0.616455	0.057484	-0.025079	0.080314	0.413999	-0.307774	0.014970	-0.856537	-19.097344	-30.987090	-123.067746
49247		5.144198	-2.526912	8.120425	0.209983	-0.165151	0.123004	0.017712	-0.160515	-0.142619	-0.952881	0.654785	-0.622314	0.051359	-0.025313	0.081243	0.413454	-0.308438	0.014370	-0.856572	-19.063056	-31.098835	-123.118304
49248		5.169474	-2.753879	7.839003	-0.106541	-0.080100	-0.028032	0.016991	-0.159533	-0.144953	-0.955811	0.651855	-0.616943	0.051612	-0.027583	0.078429	0.412898	-0.309094	0.013775	-0.856613	-19.028169	-31.209736	-123.170733
49249		5.266683	-2.774145	7.889406	-0.132770	-0.105342	0.069002	0.017720	-0.164411	-0.153153	-0.961914	0.644043	-0.609863	0.052581	-0.027789	0.078935	0.412307	-0.309774	0.013151	-0.856662	-18.990532	-31.325505	-123.227400
49250		5.160298	-2.705461	7.878084	-0.034179	-0.056390	-0.014320	0.011730	-0.190286	-0.172854	-0.969727	0.634277	-0.607910	0.051505	-0.027104	0.078828	0.411625	-0.310574	0.012472	-0.856711	-18.952589	-31.458208	-123.291128
49251		5.432467	-2.569168	7.849176	-0.073059	-0.322502	0.067215	0.017742	-0.245927	-0.190709	-0.971436	0.638428	-0.597900	0.054204	-0.025750	0.078556	0.410877	-0.311605	0.011621	-0.856707	-18.911333	-31.625075	-123.354246
49252		4.781401	-2.729666	8.222596	0.335167	0.362889	0.070624	0.008496	-0.281513	-0.178442	-0.972656	0.628418	-0.591309	0.047674	-0.027343	0.082292	0.410169	-0.312801	0.010760	-0.856622	-18.883302	-31.808197	-123.402059
49253		5.012552	-2.579181	8.130683	0.298289	0.109003	0.075936	0.006298	-0.361161	-0.198498	-0.973389	0.628418	-0.594727	0.049953	-0.025844	0.081396	0.409374	-0.314347	0.009709	-0.856449	-18.858665	-32.038923	-123.445464
49254		5.697599	-2.448546	7.717025	-0.136266	-0.524478	0.072486	-0.001016	-0.420863	-0.217604	-0.973877	0.627197	-0.578857	0.056787	-0.024547	0.077290	0.408488	-0.316159	0.008541	-0.856217	-18.838405	-32.304819	-123.488312
49255		5.202918	-2.563132	8.019409	0.205209	0.015679	0.082177	0.003137	-0.471560	-0.201794	-0.990479	0.613037	-0.574219	0.051814	-0.025685	0.080316	0.407674	-0.318182	0.007274	-0.855868	-18.826847	-32.596001	-123.510074
49256		5.162763	-2.697814	7.960686	0.126192	0.164764	0.049438	0.012178	-0.538525	-0.214208	-0.985596	0.609131	-0.567383	0.051384	-0.027038	0.079744	0.406822	-0.320465	0.005814	-0.855432	-18.813599	-32.925063	-123.525308
49257		5.277140	-2.711425	7.846556	0.031832	0.116334	0.023653	0.021920	-0.600431	-0.231741	-0.989258	0.615723	-0.573730	0.052504	-0.027184	0.078620	0.405908	-0.322997	0.004156	-0.854924	-18.795814	-33.291659	-123.538380
49258		5.404180	-2.707352	7.841638	0.007164	0.080588	0.087780	0.032332	-0.657269	-0.254396	-0.993652	0.600098	-0.555664	0.053749	-0.027155	0.078589	0.404911	-0.325742	0.002305	-0.854362	-18.770715	-33.692539	-123.553868
49259		5.337328	-2.925607	7.674427	-0.169927	0.291962	-0.023484	0.041396	-0.706046	-0.270265	-1.002930	0.598389	-0.558838	0.053062	-0.029344	0.076926	0.403856	-0.328678	0.000286	-0.853740	-18.740369	-34.123519	-123.569180
49260		5.136802	-3.011641	7.948921	0.054940	0.627902	0.099136	0.058522	-0.762221	-0.290929	-1.010010	0.598145	-0.546387	0.051021	-0.030214	0.079675	0.402735	-0.331809	-0.001949	-0.853055	-18.699319	-34.588055	-123.585999
49261		5.601719	-2.682247	7.680858	-0.040385	0.087601	0.064525	0.073333	-0.832096	-0.317368	-1.013428	0.584961	-0.527100	0.055654	-0.026939	0.077031	0.401517	-0.335207	-0.004435	-0.852291	-18.648252	-35.096067	-123.605208
49262		6.058381	-2.310851	7.275763	-0.178332	-0.507663	-0.081784	0.098103	-0.906434	-0.332065	-1.025635	0.581787	-0.526855	0.060215	-0.023244	0.073020	0.400269	-0.338859	-0.007198	-0.851415	-18.586438	-35.646405	-123.618297
49263		6.053351	-2.454280	7.460959	-0.121960	-0.268097	0.099165	0.116275	-0.971726	-0.338662	-1.024414	0.569336	-0.521973	0.060128	-0.024688	0.074888	0.399010	-0.342749	-0.010182	-0.850418	-18.519602	-36.234115	-123.621937
49264		5.599924	-2.680440	7.511469	0.004023	0.297561	-0.072228	0.136378	-1.044683	-0.357081	-1.031494	0.566162	-0.509277	0.055558	-0.026955	0.075387	0.397693	-0.346894	-0.013426	-0.849308	-18.443091	-36.864096	-123.622515
49265		5.776542	-2.706458	7.419417	-0.093480	0.269723	-0.032172	0.162439	-1.124882	-0.394726	-1.042480	0.553711	-0.492676	0.057293	-0.027238	0.074495	0.396242	-0.351319	-0.017008	-0.848103	-18.346355	-37.545202	-123.631755
49266		6.064852	-2.470319	7.288090	-0.080310	-0.014922	-0.015077	0.183631	-1.201501	-0.425000	-1.047119	0.556885	-0.474121	0.060157	-0.024898	0.073220	0.394679	-0.356005	-0.020881	-0.846790	-18.234302	-38.272701	-123.646096
49267		6.363929	-2.451335	7.029256	-0.291452	-0.189506	-0.025107	0.212845	-1.280243	-0.452097	-1.058594	0.541016	-0.461426	0.063132	-0.024732	0.070672	0.393026	-0.360953	-0.025084	-0.845348	-18.103462	-39.048597	-123.663407
49268		6.076251	-2.497331	7.159588	-0.062348	0.193652	-0.098051	0.243843	-1.352318	-0.476187	-1.056885	0.536865	-0.450684	0.060217	-0.025205	0.071974	0.391301	-0.366119	-0.029598	-0.843780	-17.952723	-39.867283	-123.683857
49269		6.155056	-2.386215	7.227105	0.081117	0.220551	-0.027357	0.293318	-1.427745	-0.504006	-1.081299	0.516846	-0.434326	0.060972	-0.024123	0.072672	0.389514	-0.371487	-0.034521	-0.842072	-17.769572	-40.732659	-123.710170
49270		6.532465	-2.408553	6.780931	-0.296308	-0.015752	-0.098520	0.325762	-1.539651	-0.551487	-1.080811	0.529785	-0.419922	0.064733	-0.024376	0.068270	0.387544	-0.377226	-0.039881	-0.840190	-17.559043	-41.666592	-123.749413
49271		6.340959	-2.332389	7.072742	0.077996	0.306619	-0.036751	0.367198	-1.630528	-0.575972	-1.087891	0.504395	-0.397705	0.062763	-0.023636	0.071198	0.385502	-0.383239	-0.045638	-0.838113	-17.322578	-42.655000	-123.791133
49272		6.168442	-2.473037	7.096565	0.136438	0.681729	-0.115231	0.417434	-1.749906	-0.619400	-1.099121	0.498291	-0.376709	0.060983	-0.025069	0.071449	0.383316	-0.389609	-0.051911	-0.835810	-17.048852	-43.715240	-123.844493
49273		6.423677	-2.502096	6.788652	-0.102709	0.604708	-0.157094	0.463499	-1.870760	-0.687041	-1.098877	0.487061	-0.369873	0.063512	-0.025398	0.068424	0.380867	-0.396344	-0.058739	-0.833307	-16.725348	-44.853482	-123.930232
49274		6.532784	-2.219805	6.750992	0.098032	0.515517	-0.174140	0.510654	-2.007102	-0.767106	-1.114258	0.469482	-0.340820	0.064560	-0.022620	0.068103	0.378097	-0.403485	-0.066171	-0.830581	-16.343091	-46.078564	-124.058775
49275		6.903245	-2.457883	6.440665	-0.322026	0.547633	-0.077693	0.575323	-2.160998	-0.856608	-1.114746	0.458496	-0.313477	0.068225	-0.025059	0.065075	0.374983	-0.411064	-0.074338	-0.827580	-15.883691	-47.402586	-124.239596
49276		6.652060	-2.244861	6.762515	0.200533	0.900553	-0.108845	0.649051	-2.298887	-0.947363	-1.125977	0.446533	-0.286865	0.065630	-0.022982	0.068309	0.371537	-0.418974	-0.083241	-0.824313	-15.330408	-48.814853	-124.485888
49277		7.378156	-1.845817	6.279587	-0.017894	0.252550	0.046679	0.710645	-2.469884	-1.083732	-1.136230	0.428223	-0.257324	0.072897	-0.019080	0.063633	0.367520	-0.427347	-0.092988	-0.820766	-14.655476	-50.340805	-124.840113
49278		7.351831	-1.931012	5.984623	-0.167476	0.455773	-0.150842	0.786187	-2.622377	-1.220127	-1.133789	0.404053	-0.229492	0.072605	-0.019992	0.060725	0.362958	-0.436050	-0.103595	-0.816939	-13.829561	-51.966862	-125.324639
49279		7.317912	-2.014479	6.585415	0.255664	1.114849	0.170339	0.877264	-2.773247	-1.353579	-1.138672	0.386230	-0.196777	0.072118	-0.020927	0.066768	0.357882	-0.445035	-0.115117	-0.812781	-12.821894	-53.690262	-125.960764
49280		7.441550	-1.993561	6.556179	0.292713	1.344764	0.208810	0.950390	-2.917798	-1.527732	-1.152344	0.379639	-0.163574	0.073293	-0.020813	0.066539	0.352082	-0.454249	-0.127547	-0.808349	-11.578253	-55.507171	-126.820690
49281		7.866479	-1.775929	6.768214	0.519518	1.457348	0.600674	1.010335	-3.073790	-1.689720	-1.147949	0.347900	-0.130615	0.077458	-0.018763	0.068786	0.345553	-0.463747	-0.140825	-0.803555	-10.071826	-57.417488	-127.935602
49282		8.387329	-1.651868	7.024800	0.688828	1.674382	1.102020	0.998661	-3.201456	-1.834709	-1.146484	0.325195	-0.094482	0.082577	-0.017635	0.071491	0.338205	-0.473510	-0.154561	-0.798446	-8.297029	-59.394276	-129.349484
49283		9.183486	-1.751123	8.356776	1.336253	2.622168	2.375719	0.895867	-3.295143	-1.899631	-1.146729	0.301270	-0.050537	0.090268	-0.018752	0.084982	0.330155	-0.483598	-0.168143	-0.793006	-6.315190	-61.404348	-131.040344
49284		9.981709	-2.078820	8.554451	1.117563	3.155743	3.067730	0.660584	-3.292045	-1.886040	-1.143555	0.285889	-0.015381	0.098188	-0.022005	0.087098	0.321470	-0.493889	-0.180689	-0.787453	-4.220118	-63.380436	-132.979336
49285		11.550829	-1.978071	10.317331	2.032320	4.135047	5.104540	0.509511	-3.292049	-1.853965	-1.144531	0.266357	0.021729	0.113598	-0.021106	0.105001	0.312420	-0.504274	-0.192497	-0.781694	-1.940990	-65.320381	-135.185533
49286		10.097156	-0.254425	8.479218	2.592902	2.649686	2.842406	0.081902	-3.330977	-1.744770	-1.129395	0.248047	0.052490	0.099513	-0.003452	0.086456	0.302570	-0.515401	-0.202349	-0.775801	0.307430	-67.242070	-137.591894
49287		11.707615	-0.317644	8.656537	2.440814	2.834105	4.261700	-0.380897	-3.688508	-1.690020	-1.124268	0.226563	0.094482	0.115422	-0.003989	0.088711	0.291262	-0.528475	-0.210729	-0.769074	2.643963	-69.329641	-140.343412
49288		13.833908	-2.990076	12.895324	3.337436	7.496293	7.485674	-0.864106	-3.394280	-1.533021	-1.110840	0.221924	0.127930	0.135891	-0.030384	0.131404	0.279478	-0.541078	-0.216325	-0.763106	4.937170	-71.211780	-143.307283
49289		10.319557	-1.493544	7.636709	1.857003	4.130128	2.291886	-0.950919	-3.162290	-1.551595	-1.097168	0.202148	0.157471	0.101852	-0.015361	0.078057	0.267541	-0.552711	-0.221240	-0.757618	7.723834	-72.914827	-146.810636
49290		13.077345	-1.594944	10.785085	3.660205	6.099884	5.654999	-1.063193	-2.936273	-1.587644	-1.083984	0.187500	0.187744	0.129042	-0.016398	0.109840	0.255323	-0.563420	-0.225456	-0.752687	11.100228	-74.426270	-150.965336
49291		13.686381	-1.864149	12.738312	5.045792	7.734019	6.551059	-1.291310	-1.608691	-1.336695	-1.077637	0.168945	0.198242	0.135708	-0.018723	0.128599	0.244844	-0.569579	-0.226361	-0.751261	13.824798	-75.161179	-154.557441
49292		7.431042	-1.772868	10.850180	5.306304	7.267441	-0.059931	-1.564314	-0.356423	-1.248456	-1.074951	0.159424	0.196289	0.074008	-0.017341	0.108771	0.235305	-0.571395	-0.224427	-0.753506	15.718118	-75.176231	-157.445203
49293		20.350509	-8.259142	13.908547	0.828354	13.154206	12.593947	-1.105219	-1.739176	-1.303501	-1.064453	0.148438	0.212158	0.201742	-0.083133	0.141303	0.225291	-0.577747	-0.225978	-0.751257	18.981941	-75.905106	-161.471728
49294		19.874960	-12.597500	24.958823	7.134770	23.485233	14.149438	-0.895402	-0.584739	-0.413621	-1.060303	0.151367	0.206055	0.197758	-0.125264	0.250729	0.220508	-0.580480	-0.224426	-0.751034	19.793546	-76.142815	-162.838798
49295		9.724320	-14.281929	16.196525	1.850434	20.339283	2.176946	-0.329293	0.501714	0.205534	-1.052734	0.146973	0.206055	0.097796	-0.142452	0.161955	0.220910	-0.579188	-0.221995	-0.752634	18.753357	-75.910234	-161.963673
49296		4.095502	-10.236349	13.473202	3.370263	15.850209	-3.449427	0.423450	1.169743	0.445987	-1.064941	0.163818	0.186768	0.041970	-0.102555	0.134272	0.225130	-0.574806	-0.220962	-0.755044	17.219344	-75.351829	-160.131734
49297		2.109510	-5.840443	12.597835	5.637389	11.955274	-5.063766	0.616600	1.550179	0.650163	-1.070313	0.179932	0.165039	0.022260	-0.058721	0.125628	0.231086	-0.568955	-0.219620	-0.758061	15.289793	-74.602608	-157.770794
49298		0.432445	-3.228472	12.273500	7.247044	9.837758	-6.356976	0.320871	1.895727	0.840586	-1.074463	0.197021	0.131836	0.005623	-0.032460	0.122634	0.237276	-0.562295	-0.216205	-0.762089	12.881398	-73.665959	-155.078061
49299		-1.088930	-2.246136	11.919365	7.902431	8.994468	-7.588661	-0.184302	2.237170	0.951167	-1.080322	0.209229	0.108887	-0.009448	-0.022399	0.119325	0.242207	-0.555142	-0.209711	-0.767577	10.165874	-72.518743	-152.439552
49300		-2.173185	-2.652356	11.030683	7.254479	8.907167	-8.604416	-0.611383	2.598995	0.918510	-1.089844	0.218506	0.063232	-0.020174	-0.026281	0.110656	0.246759	-0.546820	-0.201609	-0.774243	7.518414	-71.127405	-150.024048
49301		-2.765699	-3.222192	10.130342	6.432168	8.878368	-9.144140	-0.854636	2.977851	0.786411	-1.088379	0.234375	0.026123	-0.026017	-0.031892	0.101836	0.249772	-0.537240	-0.191968	-0.782391	5.240252	-69.481629	-148.224810
49302		-3.246455	-3.620912	9.375803	5.811216	8.813922	-9.513899	-0.965381	3.327868	0.617235	-1.091064	0.246582	-0.007813	-0.030786	-0.035851	0.094453	0.252772	-0.525940	-0.182311	-0.791363	3.410314	-67.606004	-146.855292
49303		-2.922644	-3.770608	9.257132	5.589614	8.737484	-8.888725	-1.070324	3.597492	0.518219	-1.098633	0.258789	-0.061279	-0.027456	-0.037281	0.093276	0.254545	-0.513592	-0.171662	-0.801225	1.885882	-65.560388	-145.964913
49304		-1.815222	-4.089605	9.744831	5.409045	8.905888	-7.284164	-1.267171	3.859472	0.568953	-1.101074	0.278320	-0.098633	-0.016149	-0.040324	0.098030	0.256853	-0.500127	-0.160141	-0.811329	0.375030	-63.354760	-145.097543
49305		-0.212647	-5.008954	10.012286	4.476993	9.219928	-5.305965	-1.490487	4.158251	0.768254	-1.101807	0.278564	-0.151367	0.000151	-0.049344	0.100505	0.259538	-0.485653	-0.146740	-0.821735	-1.290132	-60.965180	-144.184036
49306		0.542696	-5.956917	9.362899	3.130310	9.244138	-4.505276	-1.617903	4.457148	1.054160	-1.098389	0.290771	-0.198975	0.007830	-0.058773	0.093950	0.263159	-0.470072	-0.131671	-0.832131	-3.091895	-58.388747	-143.173362
49307		0.759545	-6.299205	8.662908	2.281224	8.884474	-4.232107	-1.627757	4.659628	1.337816	-1.085449	0.320068	-0.248779	0.010036	-0.062224	0.086923	0.267912	-0.453541	-0.115526	-0.842127	-4.927350	-55.667645	-142.101658
49308		1.470039	-5.832468	8.621132	2.094483	7.949378	-3.262914	-1.633383	4.769131	1.619800	-1.076904	0.340820	-0.314209	0.017225	-0.057487	0.086292	0.273714	-0.436427	-0.098513	-0.851415	-6.767649	-52.853048	-140.990405
49309		2.023403	-5.274291	8.667077	2.036804	6.956480	-2.432710	-1.695135	4.832999	1.894180	-1.048828	0.363281	-0.362549	0.022821	-0.051801	0.086582	0.280389	-0.418927	-0.080457	-0.859889	-8.631868	-49.958654	-139.852964
49310		2.828325	-5.147296	9.197171	1.900118	6.311307	-1.117350	-1.794659	4.831093	2.153639	-1.025635	0.392822	-0.414551	0.031047	-0.050325	0.091699	0.287749	-0.401376	-0.061394	-0.867369	-10.521743	-47.021899	-138.705731
49311		4.489475	-5.536177	10.452589	1.452674	5.792659	1.338682	-1.886233	4.862750	2.397423	-1.003662	0.431152	-0.459473	0.048078	-0.053816	0.103895	0.295767	-0.383553	-0.041326	-0.873900	-12.418000	-44.012866	-137.568474
49312		6.149289	-6.092434	11.763450	0.838030	5.168019	3.819532	-1.933792	4.979221	2.646239	-0.962402	0.451172	-0.508789	0.065194	-0.058947	0.116618	0.304544	-0.365032	-0.020390	-0.879539	-14.279046	-40.884726	-136.456509
49313		7.210701	-6.208208	12.764211	0.483722	4.153369	5.546221	-1.942995	5.148727	2.868337	-0.921631	0.479492	-0.545166	0.076239	-0.059777	0.126303	0.314022	-0.345444	0.001295	-0.884340	-16.065065	-37.601591	-135.399777
49314		7.911284	-6.500175	13.707973	0.109304	3.264698	6.979545	-1.957617	5.300187	3.046880	-0.889648	0.517090	-0.590332	0.083683	-0.062418	0.135522	0.323943	-0.324884	0.023563	-0.888232	-17.761400	-34.185783	-134.423951
49315		9.214165	-7.806546	14.648159	-1.270543	2.615279	8.944410	-1.974461	5.397239	3.221613	-0.827881	0.548340	-0.619385	0.097288	-0.075092	0.144653	0.334263	-0.303533	0.046348	-0.891060	-19.385213	-30.660320	-133.513351
49316		11.008322	-10.376512	15.608829	-3.759851	2.355164	11.462469	-1.940593	5.446921	3.493617	-0.792725	0.573730	-0.645020	0.116068	-0.100271	0.153966	0.345456	-0.281524	0.069399	-0.892518	-20.944126	-27.038024	-132.592248
49317		13.431633	-13.266541	15.912928	-7.316389	1.505868	13.715945	-1.801718	5.446135	3.958712	-0.739258	0.611084	-0.684082	0.141174	-0.128498	0.156517	0.358516	-0.258763	0.092429	-0.892168	-22.430882	-23.293798	-131.533823
49318		15.812008	-14.505986	14.949783	-10.647682	-0.888405	14.051285	-1.503076	5.353873	4.595946	-0.682373	0.633301	-0.708984	0.165323	-0.140208	0.146202	0.374391	-0.235280	0.114642	-0.889568	-23.772697	-19.436023	-130.221770
49319		16.326454	-8.892410	13.727001	-8.672580	-6.732491	10.516478	-1.218739	5.051441	5.277548	-0.620850	0.659912	-0.725586	0.168925	-0.083694	0.133571	0.393305	-0.211883	0.135700	-0.884309	-24.967941	-15.545145	-128.582955
49320		16.548120	-1.446903	14.604859	-3.875841	-13.184865	7.513159	-1.295949	4.516351	5.420665	-0.574951	0.693604	-0.736572	0.169017	-0.008989	0.142328	0.412607	-0.190644	0.155990	-0.876971	-26.125039	-11.867805	-126.843994
49321		18.424290	1.061350	15.867915	-2.721016	-17.453305	6.925308	-1.453249	4.086199	5.003437	-0.515137	0.709229	-0.743652	0.187070	0.016405	0.154771	0.429773	-0.171693	0.175524	-0.868912	-27.233167	-8.482127	-125.306802
49322		19.124127	-1.205462	15.503205	-4.805577	-17.671200	6.679949	-1.187069	3.938897	4.190199	-0.475586	0.733887	-0.746094	0.194429	-0.007098	0.151275	0.443343	-0.153373	0.192690	-0.861855	-28.047054	-5.365862	-124.215767
49323		18.482048	1.773512	15.734188	-2.305131	-19.582350	4.449325	-0.597557	3.832029	3.301054	-0.435791	0.723145	-0.751465	0.187457	0.021278	0.153707	0.453301	-0.134929	0.206273	-0.856600	-28.436079	-2.530644	-123.584292
49324		20.658322	5.481959	12.400896	-2.348148	-22.996018	-1.084328	-0.374515	3.765381	2.300153	-0.400635	0.722168	-0.753906	0.208217	0.057435	0.119993	0.458934	-0.117238	0.217936	-0.853311	-28.655551	-0.002538	-123.454210
49325		21.488402	5.951885	6.484669	-5.026456	-22.539207	-7.386985	-0.104266	3.764033	0.975288	-0.383545	0.721436	-0.761475	0.215759	0.060602	0.060760	0.458873	-0.100310	0.227586	-0.852982	-28.728219	2.162982	-123.996660
49326		20.699734	9.425698	3.196207	-3.612516	-22.505299	-12.632442	-0.131188	3.544666	-0.385424	-0.360840	0.716797	-0.762451	0.207701	0.093876	0.028223	0.453086	-0.085906	0.236072	-0.855338	-28.866646	3.839647	-125.166774
49327		20.305629	11.250363	1.195969	-3.253566	-22.223354	-15.796488	-0.846330	3.005542	-1.375626	-0.356445	0.711182	-0.761963	0.203968	0.111143	0.008427	0.443256	-0.076561	0.245907	-0.858599	-29.471403	4.963932	-126.695829
49328		20.780814	7.727501	-1.415072	-7.559398	-19.689892	-16.789621	-1.601148	2.298386	-1.851549	-0.352295	0.711182	-0.765137	0.208325	0.075219	-0.017151	0.431836	-0.072498	0.257153	-0.861472	-30.536046	5.577163	-128.276461
49329		20.419804	1.278868	-3.896716	-13.247994	-14.910755	-15.806095	-1.596704	1.530563	-1.975841	-0.350342	0.714600	-0.758057	0.204002	0.010453	-0.040619	0.420761	-0.071868	0.266618	-0.864124	-31.593880	5.748298	-129.702620
49330		19.744627	-2.687103	-3.677641	-15.813843	-12.135556	-13.450256	-0.949010	0.739538	-1.818633	-0.346436	0.715576	-0.753906	0.197053	-0.028840	-0.037372	0.411581	-0.073077	0.271627	-0.866879	-32.249061	5.560362	-130.813364
49331		18.114253	-4.762116	-2.630326	-15.976937	-10.029514	-11.177610	-0.205515	0.002414	-1.384693	-0.357910	0.710693	-0.750732	0.180807	-0.048901	-0.026256	0.405519	-0.075356	0.272035	-0.869409	-32.431702	5.140602	-131.484389
49332		15.093876	-6.245004	-1.978243	-14.812304	-7.154143	-9.424488	0.411009	-0.734444	-0.811909	-0.359131	0.704834	-0.747559	0.150755	-0.063022	-0.019358	0.403166	-0.078806	0.268471	-0.871304	-32.212162	4.539680	-131.649995
49333		11.565069	-6.812602	-0.945814	-12.477562	-4.638604	-7.850679	0.804039	-1.532953	-0.169242	-0.369385	0.700928	-0.754395	0.115662	-0.068188	-0.008846	0.404815	-0.084080	0.261827	-0.872068	-31.726057	3.746112	-131.263296
49334		8.756028	-7.163018	1.188902	-10.044038	-3.238668	-5.568056	0.898792	-2.335481	0.571519	-0.385742	0.705566	-0.751709	0.087620	-0.071435	0.012591	0.410738	-0.091677	0.253422	-0.871015	-31.157148	2.778606	-130.281181
49335		7.001631	-8.671351	3.382774	-9.039443	-1.990566	-2.742842	0.923308	-2.947346	1.399390	-0.395508	0.702881	-0.744873	0.070117	-0.086381	0.034461	0.420956	-0.100826	0.243980	-0.867816	-30.569363	1.742754	-128.722511
49336		5.062237	-9.772897	5.395725	-7.755848	-0.666131	-0.344208	1.126610	-3.275328	2.200949	-0.403320	0.704102	-0.738281	0.050809	-0.097475	0.054239	0.435009	-0.109949	0.233280	-0.862704	-29.881259	0.759262	-126.684526
49337		2.912154	-7.173475	8.158719	-3.542402	-1.129533	0.802361	1.342852	-3.321418	2.915394	-0.429443	0.706543	-0.732178	0.028814	-0.071861	0.081585	0.452104	-0.117925	0.221833	-0.855854	-29.100451	-0.072774	-124.290725
49338		0.663221	-2.657310	10.830915	2.092161	-2.064840	0.965210	1.245391	-3.124041	3.473785	-0.421387	0.714111	-0.725098	0.005409	-0.027146	0.108232	0.471063	-0.124580	0.211450	-0.847271	-28.405922	-0.681485	-121.681436
49339		-1.224348	1.125532	12.369155	6.588915	-2.260565	0.542194	0.957233	-2.741364	3.659305	-0.426514	0.720947	-0.725342	-0.014133	0.010417	0.123558	0.489953	-0.130038	0.203190	-0.837705	-27.900276	-1.074976	-119.088374
49340		-1.545984	3.615811	13.587455	9.234869	-2.907465	0.498977	0.701074	-2.193748	3.369977	-0.429443	0.718750	-0.724121	-0.017551	0.035398	0.135815	0.506677	-0.134050	0.197053	-0.828540	-27.547866	-1.286222	-116.790599
49341		-0.802725	4.897974	14.935461	10.555673	-3.957328	1.169507	0.544041	-1.473704	2.691731	-0.421631	0.730225	-0.718018	-0.009783	0.048450	0.149419	0.519607	-0.136111	0.192874	-0.821147	-27.279174	-1.323443	-115.029091
49342		-3.730704	10.054224	12.942961	15.128568	-2.619989	-2.973070	0.544736	-1.021949	1.412292	-0.420166	0.737549	-0.725098	-0.038676	0.099920	0.129507	0.526767	-0.137516	0.188961	-0.817251	-26.993209	-1.472338	-114.038221
49343		-6.330381	4.567047	-0.657436	5.997297	4.148797	-12.673262	0.639143	-1.381209	-0.970330	-0.437256	0.731934	-0.718018	-0.063034	0.045998	-0.006864	0.524550	-0.142389	0.182062	-0.819406	-26.624849	-2.427057	-114.174181
49344		1.660539	-0.976869	21.921989	7.682798	-4.221757	10.371829	1.951704	-0.779279	-2.763176	-0.450684	0.724609	-0.718506	0.015595	-0.012128	0.219171	0.515278	-0.142950	0.170053	-0.827730	-25.444971	-3.520108	-115.398894
49345		3.559405	1.722717	16.826966	6.619769	-6.112179	4.938204	1.812565	-0.025883	-3.240091	-0.458496	0.700195	-0.735596	0.035829	0.015122	0.168418	0.503125	-0.141117	0.160164	-0.837436	-24.293939	-4.312024	-117.077274
49346		-0.519114	-0.291028	4.597132	1.818308	0.037274	-5.548905	1.401912	-0.625251	-2.840495	-0.481445	0.670654	-0.735107	-0.005378	-0.003157	0.045933	0.492684	-0.142458	0.150722	-0.845134	-23.379993	-5.294556	-118.422279
49347		0.366014	-6.997187	4.751979	-3.834748	2.526864	-2.700636	1.030319	-1.666100	-1.871354	-0.491943	0.664307	-0.734375	0.002610	-0.070243	0.047183	0.486749	-0.148357	0.140940	-0.849236	-22.728220	-6.590644	-119.034616
49348		-0.179539	-6.132825	5.171805	-2.693042	2.743076	-2.769181	0.772060	-2.475326	-1.052802	-0.517334	0.660889	-0.721436	-0.002757	-0.061514	0.051451	0.484578	-0.157709	0.130868	-0.850403	-22.286431	-8.128950	-119.045421
49349		5.236801	-1.843182	9.814761	-0.028290	-4.149055	0.671845	0.699799	-2.872484	-0.865669	-0.521729	0.650391	-0.715820	0.050870	-0.018999	0.098820	0.483299	-0.168775	0.120260	-0.850573	-21.913418	-9.838321	-118.880046
49350		8.312530	1.963710	15.366881	3.844859	-8.603350	5.029062	0.512861	-2.503386	-1.007496	-0.543213	0.657227	-0.712891	0.081289	0.018829	0.154743	0.480935	-0.178767	0.111194	-0.851105	-21.621437	-11.381667	-118.880565
49351		7.125872	2.388396	14.204847	4.373252	-7.445674	3.740469	0.245159	-2.029871	-1.225301	-0.562256	0.644775	-0.708008	0.069956	0.023278	0.142792	0.477063	-0.187485	0.104189	-0.852294	-21.435411	-12.719284	-119.108069
49352		5.913018	-1.061915	12.880707	1.820089	-4.344139	3.596768	-0.020870	-1.777580	-1.311508	-0.577637	0.645264	-0.697998	0.057911	-0.010988	0.129327	0.472380	-0.195776	0.098830	-0.853675	-21.372526	-13.938994	-119.441275
49353		6.144012	-4.896686	11.208212	-1.839738	-2.279058	3.557646	-0.145458	-1.604356	-1.175530	-0.591309	0.649170	-0.697266	0.060249	-0.049242	0.112604	0.468018	-0.203541	0.094527	-0.854749	-21.383067	-15.038748	-119.739047
49354		6.464000	-6.286161	9.368358	-3.742789	-1.631337	2.531992	-0.155184	-1.478934	-0.963978	-0.600098	0.650879	-0.689697	0.063641	-0.063097	0.094206	0.464449	-0.210667	0.090772	-0.855375	-21.417998	-16.026466	-119.948031
49355		5.304584	-6.281744	8.258552	-3.579889	-0.534253	1.264253	-0.068002	-1.402510	-0.812063	-0.607666	0.638916	-0.690674	0.052209	-0.063002	0.082975	0.461554	-0.217188	0.086968	-0.855707	-21.418489	-16.942839	-120.089748
49356		4.487548	-5.132349	8.197627	-2.270863	-0.350640	0.598759	0.015618	-1.351947	-0.723569	-0.617188	0.640137	-0.681396	0.044134	-0.051490	0.082272	0.459078	-0.223240	0.083022	-0.855873	-21.380327	-17.812553	-120.194187
49357		3.982751	-3.899586	7.579365	-1.322466	-0.533145	-0.513175	0.075067	-1.359327	-0.728034	-0.639893	0.637207	-0.673828	0.039169	-0.039168	0.076047	0.456624	-0.229185	0.078787	-0.856015	-21.305753	-18.688260	-120.300804
49358		4.310500	-3.300435	8.305854	-0.636503	-0.953269	0.043512	0.143797	-1.335592	-0.781041	-0.648193	0.644287	-0.678955	0.042420	-0.033231	0.083320	0.453987	-0.234869	0.074253	-0.856282	-21.178129	-19.560892	-120.444905
49359		4.224711	-3.424229	8.420841	-0.580074	-0.659142	0.172860	0.185859	-1.285441	-0.849172	-0.657227	0.646973	-0.673584	0.041559	-0.034498	0.084445	0.451060	-0.240264	0.069562	-0.856726	-21.006141	-20.421682	-120.641846
49360		4.889282	-3.845984	8.491125	-1.125955	-0.793953	0.622617	0.195667	-1.261105	-0.854381	-0.664307	0.652344	-0.675293	0.048191	-0.038750	0.085179	0.448089	-0.245511	0.064881	-0.857165	-20.821518	-21.268655	-120.851178
49361		4.925320	-4.255073	8.595898	-1.346140	-0.417120	0.876823	0.253602	-1.233569	-0.816078	-0.683838	0.644043	-0.671631	0.048548	-0.042859	0.086206	0.445317	-0.250492	0.060049	-0.857520	-20.605080	-22.093747	-121.048683
49362		5.239272	-4.018290	8.579259	-1.287481	-0.656733	0.916214	0.310382	-1.204901	-0.766799	-0.687012	0.648926	-0.669922	0.051720	-0.040515	0.086043	0.442796	-0.255187	0.055102	-0.857773	-20.360378	-22.891497	-121.228629
49363		4.510809	-3.173141	7.841393	-0.643633	-0.544695	-0.263286	0.365836	-1.219049	-0.727994	-0.706787	0.640137	-0.659912	0.044513	-0.032038	0.078628	0.440491	-0.259805	0.049927	-0.857891	-20.089747	-23.689796	-121.387652
49364		5.291247	-3.527679	9.164858	-0.592592	-0.603111	1.310232	0.414198	-1.212254	-0.702601	-0.723877	0.634277	-0.660400	0.052231	-0.035651	0.091893	0.438334	-0.264258	0.044596	-0.857929	-19.792821	-24.477354	-121.538563
49365		5.417802	-3.029330	8.282823	-0.694762	-0.992391	0.466673	0.472160	-1.149700	-0.671545	-0.732178	0.635010	-0.653809	0.053598	-0.030670	0.083065	0.436349	-0.268305	0.039185	-0.857949	-19.460570	-25.225836	-121.689835
49366		5.236434	-3.204145	8.098297	-0.803171	-0.633225	0.297771	0.518511	-1.189228	-0.627205	-0.739990	0.625488	-0.659424	0.051781	-0.032415	0.081208	0.434604	-0.272388	0.033553	-0.857787	-19.112577	-25.985047	-121.812200
49367		9.057671	-3.189276	12.532369	-0.372348	-2.595042	5.756408	0.479178	-1.087920	-0.551807	-0.758057	0.634521	-0.649902	0.089804	-0.032442	0.125736	0.433090	-0.276107	0.028405	-0.857550	-18.794029	-26.676156	-121.915572
49368		9.182415	-2.422406	11.083129	-0.567626	-3.271632	4.399733	0.401850	-0.841634	-0.444926	-0.773438	0.634766	-0.661133	0.091302	-0.024651	0.111167	0.431879	-0.278902	0.024275	-0.857383	-18.523357	-27.212011	-122.009160
49369		7.349015	-3.704748	10.630151	-0.837045	-1.044797	3.564150	0.349838	-0.822869	-0.290656	-0.782715	0.624756	-0.645020	0.072998	-0.037340	0.106537	0.431242	-0.281715	0.020615	-0.856879	-18.322074	-27.710991	-122.014872
49370		5.053924	-2.215034	9.526923	0.798192	-0.386530	1.161086	0.229139	-0.697112	-0.199017	-0.786133	0.625488	-0.639160	0.050185	-0.022310	0.095419	0.430809	-0.284224	0.017880	-0.856330	-18.203745	-28.123470	-121.991423
49371		6.457661	-1.910180	9.618175	0.438864	-1.535008	1.819601	0.126419	-0.615701	-0.152681	-0.787109	0.617432	-0.639648	0.064265	-0.019212	0.096368	0.430413	-0.286609	0.015817	-0.855774	-18.149715	-28.485023	-121.956358
49372		6.280467	-2.659860	8.728746	-0.442881	-1.069288	1.204134	0.061575	-0.488138	-0.109582	-0.802490	0.627930	-0.648682	0.062577	-0.026660	0.087432	0.430098	-0.288570	0.014376	-0.855299	-18.133477	-28.767809	-121.920743
49373		6.160029	-2.560514	8.310110	-0.501192	-1.094686	0.775534	0.028175	-0.393589	-0.072980	-0.807373	0.631348	-0.636719	0.061427	-0.025639	0.083218	0.429879	-0.290207	0.013325	-0.854872	-18.138051	-28.994289	-121.881464
49374		6.864811	-2.328273	8.365970	-0.604976	-1.720744	1.105594	-0.023937	-0.345440	-0.043364	-0.807617	0.636230	-0.636475	0.068498	-0.023288	0.083781	0.429710	-0.291735	0.012653	-0.854447	-18.177064	-29.187555	-121.833502
49375		6.042026	-2.466856	8.088003	-0.444723	-1.065025	0.515678	-0.056503	-0.250607	-0.004857	-0.816162	0.631836	-0.633301	0.060318	-0.024647	0.080963	0.429647	-0.292937	0.012370	-0.854072	-18.237024	-29.324052	-121.780598
49376		6.054555	-2.748460	8.103013	-0.627037	-0.879876	0.613389	-0.063573	-0.209162	0.008824	-0.820801	0.632813	-0.635498	0.060462	-0.027456	0.081102	0.429632	-0.293964	0.012236	-0.853728	-18.301441	-29.433715	-121.727573
49377		5.663037	-2.517147	8.152229	-0.236221	-0.714777	0.399958	-0.067664	-0.163809	0.020222	-0.823975	0.636230	-0.635498	0.056566	-0.025138	0.081577	0.429654	-0.294817	0.012223	-0.853423	-18.367065	-29.518442	-121.676510
49378		5.088052	-2.935217	8.328785	-0.170963	0.020602	0.377640	-0.070257	-0.118114	0.037250	-0.828613	0.643066	-0.636719	0.050837	-0.029313	0.083328	0.429745	-0.295468	0.012355	-0.853151	-18.435058	-29.573359	-121.624273
49379		4.892171	-2.454698	8.067633	0.146496	-0.194481	-0.066597	-0.061436	-0.123607	0.030437	-0.827637	0.639160	-0.630615	0.048876	-0.024515	0.080714	0.429816	-0.296135	0.012417	-0.852882	-18.496362	-29.634310	-121.574931
49380		5.303725	-2.767670	8.123693	-0.226217	-0.286581	0.269503	-0.069334	-0.095209	0.042194	-0.827637	0.646729	-0.636475	0.053004	-0.027637	0.081272	0.429927	-0.296685	0.012602	-0.852632	-18.563166	-29.675781	-121.524204
49381		4.619639	-2.692045	8.042684	0.109559	0.154830	-0.156759	-0.060391	-0.092901	0.037456	-0.824707	0.645996	-0.632568	0.046164	-0.026888	0.080456	0.430028	-0.297219	0.012736	-0.852393	-18.623011	-29.718701	-121.476735
49382		5.006235	-2.559141	7.657402	-0.157649	-0.302478	-0.318950	-0.047863	-0.117571	0.018849	-0.837158	0.655273	-0.634033	0.050020	-0.025568	0.076610	0.430072	-0.297820	0.012746	-0.852161	-18.672755	-29.776498	-121.435741
49383		4.833489	-2.641901	7.770086	-0.070002	-0.091838	-0.288867	-0.052547	-0.103890	0.016853	-0.836182	0.654541	-0.631348	0.048297	-0.026395	0.077733	0.430097	-0.298385	0.012792	-0.851950	-18.723002	-29.829104	-121.398696
49384		4.381060	-2.617039	7.997863	0.281102	0.285801	-0.333886	-0.034807	-0.121220	0.000562	-0.838379	0.655518	-0.630127	0.043762	-0.026156	0.080010	0.430083	-0.298974	0.012712	-0.851752	-18.760101	-29.892189	-121.368213
49385		5.083703	-2.721138	7.822378	-0.192389	-0.201916	-0.098759	-0.025812	-0.145675	-0.022872	-0.843994	0.661865	-0.630371	0.050777	-0.027207	0.078264	0.429981	-0.299662	0.012495	-0.851565	-18.787193	-29.974749	-121.347020
49386		4.383788	-3.209769	7.774540	-0.246608	0.621325	-0.351355	-0.026666	-0.118230	-0.041294	-0.850098	0.665039	-0.638428	0.043785	-0.032096	0.077776	0.429800	-0.300223	0.012323	-0.851461	-18.806323	-30.043915	-121.343276
49387		4.382838	-3.294709	7.951843	-0.207381	0.727775	-0.183383	-0.008911	-0.124849	-0.074140	-0.854736	0.664307	-0.640625	0.043767	-0.032960	0.079547	0.429503	-0.300789	0.012002	-0.851416	-18.805500	-30.124645	-121.358576
49388		5.201863	-2.971647	7.832901	-0.396139	-0.096613	0.040136	-0.026827	-0.148700	-0.095045	-0.860352	0.669434	-0.645752	0.051946	-0.029731	0.078372	0.429095	-0.301483	0.011685	-0.851381	-18.811067	-30.220264	-121.382021
49389		4.074301	-2.909771	8.066995	0.285777	0.765054	-0.353506	0.000394	-0.110613	-0.101006	-0.858154	0.672363	-0.638428	0.040684	-0.029118	0.080692	0.428696	-0.301970	0.011315	-0.851414	-18.794840	-30.298238	-121.417264
49390		5.033938	-2.817896	7.740594	-0.244045	-0.063581	-0.162080	-0.020377	-0.165764	-0.148422	-0.864990	0.675781	-0.638184	0.050254	-0.028208	0.077450	0.428070	-0.302725	0.010853	-0.851467	-18.781492	-30.412957	-121.470695
49391		5.095006	-2.513568	7.972492	0.077643	-0.227380	-0.025963	-0.001445	-0.157700	-0.145084	-0.871582	0.668457	-0.636475	0.050869	-0.025172	0.079765	0.427484	-0.303418	0.010323	-0.851521	-18.757186	-30.524577	-121.523739
49392		5.106614	-2.593349	7.978126	0.025165	-0.165807	0.006951	-0.010999	-0.171035	-0.146445	-0.877441	0.680664	-0.634033	0.050979	-0.025966	0.079826	0.426880	-0.304175	0.009814	-0.851560	-18.739379	-30.641759	-121.575014
49393		5.207476	-2.530043	8.055998	0.075091	-0.242965	0.104637	-0.030739	-0.161928	-0.146523	-0.885254	0.679443	-0.641357	0.051991	-0.025326	0.080606	0.426241	-0.304948	0.009397	-0.851608	-18.731556	-30.755927	-121.628268
49394		5.030702	-3.108718	8.070708	-0.244487	0.274926	0.185964	-0.041937	-0.160620	-0.133539	-0.888916	0.685059	-0.638184	0.050221	-0.031104	0.080754	0.425644	-0.305726	0.009061	-0.851632	-18.734253	-30.865071	-121.673779
49395		5.389595	-2.909057	8.281196	-0.140559	-0.045545	0.486181	-0.045593	-0.166986	-0.154760	-0.892578	0.683350	-0.632080	0.053804	-0.029113	0.082864	0.424947	-0.306551	0.008684	-0.851687	-18.732572	-30.983508	-121.731290
49396		5.850852	-2.997216	7.888614	-0.610889	-0.405959	0.429773	-0.031249	-0.120718	-0.126833	-0.895264	0.674805	-0.631104	0.058442	-0.029997	0.078926	0.424391	-0.307135	0.008397	-0.851757	-18.726715	-31.069765	-121.781231
49397		5.273349	-2.616393	8.106452	0.045309	-0.161821	0.204299	-0.028902	-0.109843	-0.125189	-0.903076	0.680664	-0.636719	0.052673	-0.026185	0.081097	0.423843	-0.307681	0.008116	-0.851836	-18.718586	-31.151772	-121.832413
49398		5.620240	-2.364062	8.036353	0.038902	-0.579773	0.258121	-0.025030	-0.126098	-0.125970	-0.909180	0.690674	-0.632568	0.056137	-0.023666	0.080402	0.423300	-0.308274	0.007793	-0.851894	-18.709861	-31.240779	-121.880768
49399		5.762426	-2.575731	7.834012	-0.277381	-0.583403	0.226953	-0.037196	-0.122540	-0.124625	-0.916992	0.685791	-0.628906	0.057560	-0.025779	0.078380	0.422741	-0.308890	0.007521	-0.851951	-18.707876	-31.329585	-121.928984
49400		5.743413	-2.521791	7.740799	-0.272655	-0.614119	0.127870	-0.030373	-0.124654	-0.119692	-0.926514	0.680664	-0.631348	0.057371	-0.025240	0.077448	0.422216	-0.309488	0.007233	-0.851997	-18.703944	-31.416649	-121.973765
49401		5.841919	-2.527932	7.946668	-0.205352	-0.617197	0.348261	-0.013829	-0.107053	-0.102036	-0.930664	0.678223	-0.614014	0.058364	-0.025304	0.079500	0.421788	-0.309988	0.006929	-0.852029	-18.694144	-31.492934	-122.011053
49402		5.172283	-2.936842	8.040361	-0.138817	0.165831	0.186221	-0.016928	-0.114575	-0.100069	-0.946777	0.682861	-0.619873	0.051662	-0.029387	0.080436	0.421367	-0.310513	0.006635	-0.852049	-18.687748	-31.570915	-122.045612
49403		4.893882	-2.451843	8.339709	0.499597	0.141976	0.149370	-0.004264	-0.118891	-0.107855	-0.938477	0.677490	-0.617920	0.048876	-0.024543	0.083427	0.420929	-0.311044	0.006256	-0.852075	-18.671722	-31.654704	-122.084152
49404		5.629773	-2.946359	7.935824	-0.396744	-0.157963	0.344591	-0.006985	-0.109696	-0.107259	-0.945557	0.679932	-0.608154	0.056238	-0.029491	0.079390	0.420492	-0.311527	0.005919	-0.852116	-18.656530	-31.731341	-122.124452
49405		5.064604	-2.465230	8.006137	0.244700	-0.030572	-0.026729	0.006428	-0.120230	-0.108850	-0.952393	0.665039	-0.607422	0.050584	-0.024682	0.080091	0.420066	-0.312041	0.005490	-0.852141	-18.634029	-31.816027	-122.163468
49406		5.847393	-2.537544	7.657704	-0.343317	-0.620966	0.125525	0.010416	-0.121241	-0.110538	-0.947754	0.664063	-0.603027	0.058413	-0.025412	0.076611	0.419642	-0.312537	0.005050	-0.852171	-18.608902	-31.899507	-122.203516
49407		5.722625	-2.576233	7.677369	-0.299039	-0.487046	0.086846	-0.004184	-0.116942	-0.112008	-0.963623	0.665771	-0.598389	0.057167	-0.025793	0.076808	0.419185	-0.313058	0.004668	-0.852207	-18.590850	-31.982982	-122.245414
49408		5.837359	-2.353057	7.713907	-0.167911	-0.690131	0.117645	0.017634	-0.132204	-0.119251	-0.964355	0.655273	-0.597656	0.058309	-0.023572	0.077176	0.418735	-0.313585	0.004160	-0.852237	-18.559696	-32.073978	-122.288838
49409		5.511411	-2.615402	7.787856	-0.162250	-0.251768	0.075535	-0.002193	-0.125719	-0.125074	-0.968506	0.651367	-0.589111	0.055049	-0.026188	0.077913	0.418225	-0.314140	0.003731	-0.852285	-18.536839	-32.164609	-122.337399
49410		5.310823	-2.695663	7.919865	-0.051805	-0.007243	0.096548	-0.008216	-0.130349	-0.133883	-0.972900	0.645996	-0.586670	0.053039	-0.026989	0.079234	0.417671	-0.314713	0.003314	-0.852347	-18.515063	-32.257230	-122.390797
49411		5.657966	-2.470110	7.801900	-0.106453	-0.415675	0.127108	-0.014042	-0.142088	-0.160508	-0.974365	0.652100	-0.593506	0.056504	-0.024741	0.078061	0.416991	-0.315363	0.002845	-0.852442	-18.488459	-32.363180	-122.458808
49412		5.266604	-2.636362	7.833911	-0.023537	-0.004108	-0.011816	-0.033135	-0.118929	-0.158875	-0.972168	0.644775	-0.581055	0.052598	-0.026392	0.078375	0.416291	-0.315939	0.002519	-0.852572	-18.470756	-32.454098	-122.530954
49413		5.419044	-2.496832	7.700685	-0.059842	-0.223267	-0.073730	-0.038487	-0.115171	-0.172504	-0.982910	0.633545	-0.586426	0.054125	-0.025000	0.077043	0.415520	-0.316524	0.002191	-0.852732	-18.450566	-32.547572	-122.612723
49414		5.788678	-2.337304	7.554140	-0.189088	-0.613977	-0.033931	-0.047009	-0.101147	-0.174015	-0.979492	0.624023	-0.572266	0.057828	-0.023406	0.075576	0.414732	-0.317053	0.001937	-0.852919	-18.433182	-32.631529	-122.698678
49415		5.247576	-2.537409	7.546260	-0.083812	-0.088755	-0.278191	-0.047796	-0.076452	-0.159909	-0.980957	0.610840	-0.581299	0.052427	-0.025398	0.075489	0.413998	-0.317492	0.001749	-0.853113	-18.417886	-32.701662	-122.780869
49416		5.718364	-2.524375	7.695886	-0.203168	-0.378686	0.092569	-0.017790	-0.118658	-0.146914	-0.993164	0.624756	-0.581787	0.057119	-0.025279	0.076995	0.413372	-0.318034	0.001377	-0.853215	-18.394962	-32.790191	-122.845752
49417		4.595192	-2.677549	7.955711	0.348818	0.597644	-0.268081	-0.025365	-0.131181	-0.132420	-0.997070	0.612793	-0.569580	0.045882	-0.026796	0.079591	0.412791	-0.318660	0.001024	-0.853264	-18.382517	-32.885088	-122.898596
49418		4.849233	-2.737836	8.256920	0.363925	0.554101	0.124517	-0.004021	-0.210554	-0.128365	-1.000000	0.600098	-0.563232	0.048388	-0.027408	0.082621	0.412265	-0.319565	0.000433	-0.853180	-18.368691	-33.020206	-122.931887
49419		5.089522	-2.588911	8.089012	0.281413	0.266625	0.081121	-0.001904	-0.293898	-0.134341	-1.003906	0.592041	-0.562256	0.050759	-0.025922	0.080965	0.411713	-0.320834	-0.000359	-0.852970	-18.360947	-33.203885	-122.951126
49420		4.518665	-2.450760	8.358926	0.804256	0.677542	-0.056142	0.012339	-0.379586	-0.135353	-1.001221	0.593018	-0.554199	0.045011	-0.024543	0.083673	0.411181	-0.322425	-0.001379	-0.852625	-18.355019	-33.432174	-122.952651
49421		5.363908	-2.829299	7.876999	-0.085012	0.246660	0.124880	0.015022	-0.513267	-0.169421	-1.008057	0.583252	-0.544189	0.053413	-0.028344	0.078905	0.410502	-0.324592	-0.002751	-0.852127	-18.350957	-33.741445	-122.947445
49422		5.177868	-2.753974	7.794089	0.037966	0.355510	-0.065160	0.029974	-0.660153	-0.226836	-1.017578	0.573975	-0.535400	0.051490	-0.027610	0.078107	0.409600	-0.327336	-0.004570	-0.851503	-18.335429	-34.138814	-122.948043
49423		5.338778	-2.780067	7.838889	0.010894	0.339262	0.064746	0.051613	-0.813070	-0.277886	-1.028564	0.562500	-0.532715	0.053030	-0.027895	0.078598	0.408503	-0.330695	-0.006889	-0.850717	-18.306959	-34.630683	-122.949056
49424		5.138470	-2.874792	7.788149	0.051305	0.606614	-0.068350	0.088209	-0.972601	-0.331724	-1.043457	0.552002	-0.506348	0.050957	-0.028867	0.078117	0.407226	-0.334635	-0.009768	-0.849760	-18.257124	-35.216888	-122.951282
49425		4.837469	-2.962961	8.092865	0.346073	1.055721	0.007660	0.121521	-1.133029	-0.377616	-1.041016	0.549561	-0.495117	0.047859	-0.029770	0.081183	0.405785	-0.339189	-0.013202	-0.848596	-18.190171	-35.900737	-122.949583
49426		5.456479	-2.801782	7.668138	0.005677	0.514065	-0.006692	0.170954	-1.356202	-0.439919	-1.060547	0.530029	-0.469971	0.053981	-0.028203	0.077025	0.404136	-0.344557	-0.017392	-0.847143	-18.098831	-36.715098	-122.941761
49427		5.159266	-2.464629	7.805511	0.517421	0.663326	-0.173781	0.226620	-1.588585	-0.489772	-1.071045	0.516602	-0.455322	0.050910	-0.024860	0.078433	0.402323	-0.350786	-0.022384	-0.845331	-17.985069	-37.666997	-122.917968
49428		5.555728	-2.559596	7.615569	0.250454	0.559146	-0.064038	0.297148	-1.853067	-0.546384	-1.074219	0.504395	-0.424805	0.054778	-0.025860	0.076627	0.400335	-0.357941	-0.028292	-0.843095	-17.842418	-38.771021	-122.876544
49429		6.037003	-2.301474	7.050569	-0.013295	0.059081	-0.249981	0.387168	-2.098680	-0.614993	-1.084961	0.494385	-0.394287	0.059555	-0.023336	0.071089	0.398136	-0.365916	-0.035202	-0.840448	-17.650866	-40.023195	-122.831513
49430		5.697491	-2.267755	7.475360	0.496756	0.605869	-0.175960	0.475070	-2.354278	-0.677115	-1.092773	0.474854	-0.363770	0.056013	-0.023047	0.075362	0.395742	-0.374715	-0.043088	-0.837329	-17.415330	-41.423807	-122.778339
49431		5.889299	-2.588693	6.981523	0.006329	0.750597	-0.349200	0.590986	-2.657603	-0.775810	-1.093506	0.468750	-0.328613	0.057858	-0.026320	0.070511	0.393011	-0.384480	-0.052247	-0.833659	-17.106733	-43.009371	-122.736186
49432		5.865247	-2.808856	7.041471	0.008453	1.197029	-0.303076	0.717014	-2.972530	-0.899980	-1.102295	0.446289	-0.294678	0.057470	-0.028603	0.071173	0.389838	-0.395177	-0.062767	-0.829410	-16.703420	-44.786394	-122.728169
49433		5.645601	-2.682358	7.453639	0.545710	1.702347	-0.251336	0.811201	-3.230285	-1.047053	-1.111816	0.425293	-0.262939	0.055101	-0.027419	0.075323	0.386048	-0.406616	-0.074462	-0.824673	-16.191631	-46.730898	-122.796129
49434		6.003608	-2.749909	7.300562	0.391481	1.800432	-0.143287	0.907301	-3.497224	-1.207842	-1.108887	0.414307	-0.218262	0.058580	-0.028190	0.073912	0.381566	-0.418762	-0.087361	-0.819399	-15.548255	-48.845138	-122.965477
49435		7.151120	-2.636412	6.783930	-0.131358	1.214734	0.316661	1.034592	-3.761402	-1.391476	-1.112793	0.390625	-0.176758	0.070033	-0.027210	0.069026	0.376328	-0.431513	-0.101645	-0.813537	-14.715188	-51.133222	-123.281329
49436		7.191644	-2.657715	7.004035	0.110414	1.725614	0.426086	1.177533	-3.984642	-1.594542	-1.111084	0.378174	-0.119141	0.070287	-0.027559	0.071291	0.370290	-0.444589	-0.117312	-0.807133	-13.623729	-53.568179	-123.809975
49437		7.582967	-3.371777	7.606948	-0.008639	2.804890	1.088938	1.284585	-4.190034	-1.829992	-1.108643	0.343262	-0.075195	0.073901	-0.034894	0.077410	0.363220	-0.457935	-0.134261	-0.800213	-12.205414	-56.142206	-124.646192
49438		8.462936	-3.098451	8.490738	0.601782	3.230571	2.123960	1.375132	-4.387362	-2.075430	-1.107666	0.319580	-0.030029	0.082412	-0.032439	0.086512	0.355030	-0.471454	-0.152403	-0.792754	-10.367793	-58.838159	-125.892784
49439		10.161125	-2.075480	11.634816	2.992489	4.262357	4.875769	1.072532	-4.473538	-2.095742	-1.092041	0.297852	0.024658	0.098748	-0.022431	0.118461	0.345750	-0.485548	-0.169457	-0.784847	-8.423958	-61.562927	-127.426149
49440		11.079666	-1.564915	11.485197	3.228907	4.172254	5.327734	0.553032	-4.490588	-2.027659	-1.086670	0.291992	0.069824	0.108013	-0.017076	0.117252	0.335250	-0.500350	-0.184223	-0.776737	-6.518806	-64.263584	-129.211729
49441		11.411395	-3.888336	11.976889	2.121380	6.699816	5.657914	0.128303	-4.493598	-1.956234	-1.065186	0.260254	0.117920	0.110997	-0.040057	0.122261	0.323755	-0.515646	-0.197062	-0.768414	-4.543535	-66.934441	-131.301369
49442		9.973040	-0.981172	10.259435	3.709751	4.592510	3.255695	-0.089101	-4.788988	-2.089866	-1.057861	0.245361	0.159180	0.097127	-0.010789	0.104946	0.310691	-0.531958	-0.209754	-0.759273	-1.990606	-69.741445	-134.104449
49443		13.384942	-0.892049	12.916330	5.147144	6.039440	7.032049	-0.802027	-4.795468	-1.945572	-1.038330	0.226563	0.208984	0.130609	-0.009675	0.132359	0.296058	-0.549196	-0.219229	-0.750115	0.706326	-72.502244	-137.441332
49444		11.743042	-1.873005	11.009731	3.978497	6.426040	4.520935	-1.369063	-4.344219	-1.853506	-1.022217	0.208984	0.249512	0.114825	-0.019037	0.112740	0.280519	-0.565322	-0.225510	-0.742203	3.881786	-74.947282	-141.567652
49445		12.874560	0.564827	12.947475	7.208657	6.128803	5.812479	-1.878589	-3.761385	-1.798062	-1.004639	0.182129	0.281738	0.126332	0.005736	0.131812	0.264243	-0.579748	-0.228803	-0.736014	7.764043	-76.988520	-146.679859
49446		11.917075	-1.882463	12.517893	5.884790	8.072385	4.415647	-2.497301	-2.300682	-1.559002	-0.994873	0.178955	0.299561	0.117575	-0.018169	0.126767	0.248610	-0.589635	-0.227094	-0.734134	11.296828	-78.141247	-151.764443
49447		4.567625	-1.463130	8.314978	4.609560	5.876145	-3.782685	-2.820910	-1.440315	-1.703704	-0.979004	0.140381	0.303467	0.044955	-0.013839	0.083674	0.232385	-0.596403	-0.223479	-0.735090	15.225128	-78.721071	-157.425754
49448		30.331807	-9.449046	27.699051	10.632806	22.270890	24.354008	-2.530236	-2.254277	-2.157933	-0.970215	0.133545	0.313477	0.299144	-0.094190	0.281571	0.214365	-0.605102	-0.223150	-0.733556	22.011451	-79.552790	-165.813457
49449		16.481690	-15.318231	24.687124	7.939494	26.153493	9.388466	-1.978785	-0.318864	-1.545257	-0.968262	0.102295	0.305908	0.163244	-0.151993	0.248640	0.202360	-0.606620	-0.220849	-0.736402	25.598286	-79.362466	-170.617195
49450		7.931020	-16.581137	16.620690	2.585714	22.851025	-0.580874	-0.952282	1.028490	-1.232733	-0.984619	0.103760	0.297363	0.079145	-0.165507	0.166588	0.196081	-0.602413	-0.219993	-0.741791	26.934245	-78.522222	-172.536334
49451		5.041058	-11.662405	14.827142	4.440605	17.834405	-3.218728	-0.170142	1.869551	-0.945645	-0.977783	0.098877	0.266357	0.051242	-0.116739	0.147894	0.194135	-0.594568	-0.220313	-0.748507	26.800526	-77.321651	-172.501979
49452		3.153953	-8.112873	12.365177	4.720765	13.537019	-5.004172	-0.041547	2.293854	-0.472519	-1.002930	0.102051	0.231201	0.032763	-0.081180	0.123298	0.194778	-0.585466	-0.219283	-0.755782	25.343786	-76.022876	-171.031516
49453		2.761525	-6.073618	11.659149	5.264182	11.410056	-5.064976	-0.311822	2.717357	0.039765	-1.021484	0.104492	0.204590	0.029209	-0.060549	0.116296	0.197009	-0.575482	-0.215263	-0.763983	22.639113	-74.608438	-168.423590
49454		1.512362	-5.494145	9.973910	4.487651	9.976671	-6.309965	-0.663599	3.067386	0.497125	-1.027100	0.111328	0.169189	0.016789	-0.054570	0.099672	0.200297	-0.564885	-0.208212	-0.772938	19.158963	-73.068042	-165.198552
49455		-0.571593	-5.725123	7.771530	3.178828	9.052488	-8.612774	-0.828558	3.280219	0.787378	-1.041504	0.124023	0.124268	-0.004213	-0.056947	0.078029	0.204419	-0.553761	-0.199407	-0.782175	15.562147	-71.405978	-161.924159
49456		-1.106201	-5.764294	6.769116	2.531932	8.566294	-9.125563	-0.810065	3.399940	0.936877	-1.064697	0.141113	0.074707	-0.009637	-0.057415	0.068096	0.209219	-0.542139	-0.190101	-0.791312	12.283595	-69.643667	-158.941522
49457		-1.050844	-5.477566	6.433819	2.399579	8.114552	-8.868859	-0.739127	3.486137	1.072350	-1.075195	0.157715	0.036865	-0.009090	-0.054588	0.064707	0.214772	-0.530029	-0.180525	-0.800220	9.325909	-67.792931	-156.226238
49458		-1.166196	-5.008746	6.480509	2.704712	7.728336	-8.631919	-0.722257	3.523121	1.270619	-1.080566	0.171387	-0.009033	-0.010198	-0.049920	0.065174	0.221106	-0.517762	-0.170415	-0.808699	6.560946	-65.893273	-153.671692
49459		-0.467058	-4.787253	6.782889	2.777287	7.505333	-7.556255	-0.798393	3.551307	1.539907	-1.082275	0.186768	-0.048096	-0.003096	-0.047629	0.068084	0.227168	-0.505711	-0.158631	-0.816999	3.843890	-63.948852	-151.322795
49460		-0.017613	-4.744258	6.601063	2.430934	7.196571	-6.919098	-0.887008	3.617642	1.874162	-1.084717	0.212158	-0.090576	0.001463	-0.047141	0.066204	0.235424	-0.493319	-0.146090	-0.824542	1.051410	-61.922353	-148.760431
49461		-0.072868	-5.052243	6.414825	2.097485	7.268753	-6.740885	-0.908810	3.634705	2.177589	-1.086670	0.245850	-0.139404	0.000988	-0.050226	0.064369	0.243747	-0.481044	-0.132122	-0.831702	-1.680208	-59.834651	-146.364513
49462		0.765603	-5.080708	6.671449	1.829764	7.035263	-5.563782	-0.841179	3.675152	2.435638	-1.099365	0.277588	-0.185059	0.009498	-0.050418	0.066764	0.254243	-0.468275	-0.118219	-0.837916	-4.287533	-57.657247	-143.881309
49463		1.151846	-4.508307	7.340944	2.336693	6.534460	-4.581232	-0.789312	3.747644	2.645949	-1.081787	0.308105	-0.235107	0.013486	-0.044624	0.073346	0.265665	-0.454988	-0.103846	-0.843578	-6.724256	-55.367355	-141.508055
49464		1.875030	-3.830937	8.252813	2.889189	5.848749	-3.199896	-0.812817	3.853138	2.816687	-1.084473	0.342773	-0.274902	0.020871	-0.037691	0.082294	0.277643	-0.441146	-0.088827	-0.848772	-8.993893	-52.957524	-139.285997
49465		2.638223	-3.647453	9.165076	3.110045	5.440728	-1.752448	-0.880859	4.019464	2.935621	-1.071045	0.370605	-0.334473	0.028746	-0.035662	0.091247	0.289893	-0.426443	-0.072929	-0.853692	-11.098152	-50.388474	-137.253728
49466		3.727394	-3.835250	10.061880	2.906817	5.049765	-0.021618	-0.941273	4.243252	3.005512	-1.043945	0.415771	-0.377686	0.039965	-0.037294	0.099967	0.302186	-0.410642	-0.056295	-0.858421	-12.999023	-47.648969	-135.453523
49467		4.754226	-4.085812	11.009441	2.658132	4.579146	1.695128	-0.984205	4.531769	3.043661	-1.025391	0.456055	-0.424072	0.050632	-0.039564	0.109167	0.314426	-0.393342	-0.038875	-0.863080	-14.690408	-44.701912	-133.898063
49468		5.220211	-4.161766	11.612337	2.483395	3.980732	2.731402	-1.033125	4.829375	3.057783	-1.000732	0.485840	-0.474121	0.055610	-0.040189	0.115018	0.326421	-0.374554	-0.020763	-0.867599	-16.180675	-41.565881	-132.587811
49469		5.832181	-4.237475	12.427786	2.308187	3.231334	3.992717	-1.122098	5.098865	3.033586	-0.957031	0.520508	-0.511475	0.062095	-0.040759	0.122958	0.337897	-0.354372	-0.001806	-0.871919	-17.515807	-38.256851	-131.517015
49470		6.992105	-4.781014	13.542500	1.678326	2.421751	5.883876	-1.256912	5.355413	3.003365	-0.923096	0.557861	-0.568115	0.074217	-0.045873	0.133768	0.348671	-0.333001	0.018073	-0.875906	-18.745281	-34.802697	-130.665479
49471		8.046983	-5.856581	14.447087	0.554936	1.800744	7.626150	-1.390942	5.598478	2.980701	-0.867188	0.575928	-0.610596	0.085329	-0.056322	0.142524	0.358756	-0.310420	0.038954	-0.879441	-19.907156	-31.200939	-130.004843
49472		9.137210	-7.614513	15.249586	-1.166307	1.415527	9.436143	-1.478227	5.786104	2.990811	-0.815918	0.608398	-0.650391	0.096856	-0.073607	0.150297	0.368312	-0.286872	0.060481	-0.882266	-21.009785	-27.493205	-129.488115
49473		11.038682	-10.026725	16.311267	-3.725989	0.705815	11.956093	-1.528152	5.884740	3.097636	-0.766113	0.628418	-0.684570	0.116658	-0.097259	0.160492	0.377826	-0.262578	0.082541	-0.884018	-22.089625	-23.695398	-129.027009
49474		13.327439	-12.276132	16.980436	-6.754466	-0.753045	14.066790	-1.542146	5.922783	3.368567	-0.713867	0.655273	-0.706055	0.140269	-0.119144	0.166647	0.388042	-0.237760	0.104943	-0.884240	-23.166951	-19.817713	-128.510901
49475		15.090731	-13.111270	16.233873	-9.367888	-3.055773	13.974122	-1.502466	5.836695	3.763018	-0.655518	0.674072	-0.739502	0.157991	-0.126982	0.158761	0.399618	-0.212700	0.127390	-0.882517	-24.236835	-15.879026	-127.845945
49476		14.849403	-8.044255	14.617335	-7.251638	-7.547142	9.913618	-1.484434	5.524571	4.184525	-0.596191	0.701416	-0.751465	0.154089	-0.076190	0.142544	0.412760	-0.188486	0.149372	-0.878516	-25.301793	-11.997381	-126.965875
49477		13.905305	-2.043909	14.290247	-3.156849	-11.657463	6.179212	-1.682371	4.953837	4.127534	-0.545166	0.736084	-0.767334	0.142903	-0.016333	0.139543	0.425406	-0.166966	0.170862	-0.872902	-26.431383	-8.402081	-126.059318
49478		15.169605	-0.506496	15.229740	-2.597723	-14.669059	5.687554	-1.760574	4.466482	3.521706	-0.489258	0.750732	-0.769531	0.155089	-0.001033	0.148880	0.435329	-0.148128	0.190934	-0.867232	-27.518840	-5.203027	-125.414028
49479		16.514973	0.203645	15.181992	-3.054614	-16.951191	4.557190	-1.534333	4.193451	2.693351	-0.458008	0.744629	-0.770996	0.168226	0.005435	0.148281	0.441750	-0.130619	0.208707	-0.862692	-28.418013	-2.348329	-125.174975
49480		17.188487	5.698376	14.350920	-0.081994	-20.751583	0.343195	-1.391676	3.935874	1.858165	-0.413086	0.762695	-0.772217	0.174114	0.059576	0.139689	0.444662	-0.114734	0.224586	-0.859461	-29.214593	0.143867	-125.325840
49481		19.041016	6.612875	9.104628	-2.814325	-21.520612	-5.562801	-1.290833	3.715818	0.923552	-0.389648	0.764893	-0.768555	0.191743	0.067583	0.087059	0.443657	-0.100534	0.238931	-0.857889	-29.970116	2.264469	-125.914739
49482		20.100848	5.033499	4.740004	-6.550982	-20.215523	-9.346985	-0.870483	3.470534	-0.081550	-0.365723	0.764404	-0.774658	0.201809	0.050448	0.043683	0.438682	-0.087650	0.250307	-0.858617	-30.527410	3.961996	-126.955084
49483		20.483102	5.802855	2.241539	-7.552091	-19.849803	-12.489759	-0.541529	3.067351	-0.851343	-0.345215	0.756592	-0.775146	0.205386	0.057210	0.019113	0.430924	-0.076689	0.258998	-0.861013	-30.946432	5.230063	-128.274241
49484		20.770646	5.197869	-0.305352	-9.472875	-18.546164	-14.793191	-0.609548	2.429302	-1.240075	-0.343018	0.752930	-0.781982	0.207965	0.050675	-0.005734	0.422193	-0.069131	0.266378	-0.863723	-31.428661	6.056238	-129.606124
49485		20.511402	2.182809	-2.679129	-12.563186	-15.587866	-15.454377	-0.690543	1.592274	-1.258883	-0.337158	0.754150	-0.776855	0.205023	0.020441	-0.028496	0.414402	-0.065360	0.272306	-0.865938	-31.946662	6.459081	-130.702950
49486		18.350864	-0.750617	-3.685718	-13.727875	-11.819773	-14.580948	-0.542706	0.600857	-0.967590	-0.336426	0.749268	-0.767090	0.183357	-0.008494	-0.037386	0.409239	-0.065186	0.275601	-0.867363	-32.333127	6.459056	-131.356569
49487		16.261339	-3.235565	-2.207128	-13.614609	-9.526842	-11.723755	-0.238070	-0.426937	-0.414492	-0.341553	0.755615	-0.764160	0.162592	-0.032719	-0.021685	0.407977	-0.068080	0.275655	-0.867718	-32.479776	6.129427	-131.423657
49488		13.771717	-5.611349	0.091598	-12.754084	-7.465724	-8.154433	0.172246	-1.238349	0.297941	-0.345215	0.752930	-0.770996	0.137792	-0.055910	0.001721	0.411057	-0.072676	0.272500	-0.866888	-32.328775	5.625273	-130.893432
49489		10.724426	-6.991671	2.213115	-10.870312	-5.457625	-5.247312	0.672052	-1.801939	1.041253	-0.349854	0.752197	-0.767090	0.107403	-0.069434	0.022864	0.418270	-0.077675	0.266277	-0.864936	-31.847979	5.070628	-129.832163
49490		6.934121	-6.177079	4.144064	-7.122824	-3.847510	-3.658621	1.065392	-2.143500	1.765838	-0.358398	0.746582	-0.760010	0.069437	-0.061380	0.041857	0.429157	-0.082344	0.257865	-0.861713	-31.112582	4.554923	-128.319519
49491		3.103553	-4.028130	6.323060	-2.408820	-2.767689	-2.575548	1.148109	-2.322665	2.422867	-0.363770	0.744873	-0.761475	0.030788	-0.040271	0.063358	0.443018	-0.086751	0.248924	-0.856881	-30.315872	4.122321	-126.438141
49492		1.641019	-2.334380	9.170674	0.768653	-3.330771	-0.837338	1.020902	-2.254848	2.938122	-0.365967	0.747070	-0.759277	0.015721	-0.023578	0.091767	0.458802	-0.090466	0.240807	-0.850487	-29.586090	3.846629	-124.326202
49493		1.819263	-1.062859	11.135827	2.404466	-4.564702	0.278164	0.917366	-1.881892	3.185343	-0.362305	0.740967	-0.760742	0.017316	-0.010859	0.111474	0.474967	-0.092514	0.234018	-0.843257	-28.922089	3.800113	-122.199300
49494		1.395367	1.418596	11.033804	4.540049	-5.096446	-0.918025	0.941829	-1.348449	3.033175	-0.352539	0.755859	-0.757080	0.012997	0.013868	0.110494	0.489727	-0.092390	0.228236	-0.836385	-28.255646	3.956531	-120.295940
49495		1.337529	4.897348	10.679899	7.209273	-6.204410	-2.786977	0.885991	-0.866003	2.450328	-0.353271	0.741699	-0.760742	0.012315	0.048655	0.107070	0.501349	-0.091040	0.223549	-0.830895	-27.646230	4.178468	-118.816349
49496		1.306465	7.388444	10.334884	9.137350	-6.902611	-4.158827	0.604902	-0.407548	1.575262	-0.349609	0.748535	-0.767334	0.012273	0.073670	0.103597	0.508633	-0.089444	0.220747	-0.827383	-27.233300	4.390278	-117.901801
49497		-2.365750	17.597291	-9.215904	11.706373	-2.285538	-25.872697	-0.190333	-1.472432	-0.894686	-0.358398	0.751709	-0.762695	-0.022190	0.175986	-0.092493	0.506479	-0.097005	0.217403	-0.828737	-27.349336	3.407539	-117.967311
49498		6.505608	-5.103587	12.383440	-2.423360	-6.743835	3.238899	1.157444	-1.979446	-3.005835	-0.379150	0.743652	-0.761475	0.063044	-0.052711	0.124163	0.496675	-0.105517	0.206122	-0.836477	-26.732625	1.617483	-118.983182
49499		8.263829	-6.644038	25.714782	0.424993	-10.301461	16.020286	1.300856	-0.657260	-3.101929	-0.395020	0.722656	-0.764648	0.080733	-0.069374	0.256970	0.485021	-0.108218	0.197402	-0.845030	-26.015457	0.492376	-120.404826
49500		-8.745497	-3.421044	-1.911286	1.153732	9.509472	-10.078273	1.379202	-1.067031	-2.878405	-0.415283	0.714844	-0.768555	-0.087829	-0.032813	-0.019810	0.474619	-0.112199	0.187426	-0.852654	-25.224213	-0.769010	-121.624032
49501		-4.887011	-5.025624	1.879270	-0.550596	6.235805	-6.141577	0.896971	-2.762165	-2.371903	-0.450195	0.706055	-0.764160	-0.049713	-0.049752	0.017886	0.467544	-0.124050	0.175703	-0.857404	-24.694819	-2.775528	-122.184879
49502		-0.569320	-5.813310	3.064686	-2.916138	2.928863	-4.672209	1.035980	-3.691071	-1.722753	-0.468018	0.695557	-0.759277	-0.006755	-0.058235	0.030227	0.463971	-0.138929	0.161552	-0.859844	-24.101649	-5.106271	-122.206727
49503		3.569403	0.339245	6.712970	1.024168	-4.044037	-3.448182	1.044949	-4.164969	-1.700108	-0.502197	0.684082	-0.742188	0.034311	0.002744	0.067869	0.460656	-0.155747	0.146197	-0.861490	-23.513533	-7.680860	-122.130517
49504		9.797740	1.857707	14.025267	1.983857	-10.448634	3.715072	0.892270	-3.998673	-1.901711	-0.537598	0.675293	-0.742432	0.095313	0.017031	0.142254	0.455995	-0.172258	0.131653	-0.863171	-22.989548	-10.213109	-122.224724
49505		13.900024	-0.064910	16.470818	-0.369110	-12.381653	7.822764	0.604232	-3.233610	-1.950363	-0.563477	0.664063	-0.727783	0.136295	-0.002489	0.166921	0.450171	-0.186091	0.119988	-0.865054	-22.583471	-12.352595	-122.539739
49506		8.786001	-2.438432	12.132634	-1.124315	-6.128835	4.025448	0.463481	-2.688721	-1.885740	-0.582031	0.662109	-0.724609	0.085982	-0.025484	0.122432	0.444027	-0.197777	0.110188	-0.866939	-22.223624	-14.185818	-122.959046
49507		6.357124	-4.894635	10.261027	-2.309918	-2.302140	2.797229	0.322309	-2.606823	-1.658391	-0.608887	0.647705	-0.723633	0.061818	-0.049630	0.103344	0.438567	-0.209257	0.101365	-0.868099	-21.955646	-15.926321	-123.285182
49508		5.787216	-4.743980	8.735247	-2.444741	-1.612446	1.310045	0.311937	-2.620110	-1.411236	-0.626465	0.645020	-0.705322	0.056385	-0.047978	0.088023	0.434076	-0.220632	0.092806	-0.868497	-21.722094	-17.617802	-123.481988
49509		5.885113	-2.872916	9.289648	-0.764641	-2.507619	1.246406	0.315589	-2.623055	-1.347800	-0.650146	0.643311	-0.699951	0.057430	-0.029267	0.093610	0.429767	-0.231948	0.084261	-0.868562	-21.489067	-19.298922	-123.651461
49510		7.572797	-2.597502	10.698523	-0.643515	-3.615034	3.034817	0.343425	-2.441744	-1.414985	-0.671875	0.635986	-0.697510	0.074228	-0.026688	0.107852	0.425035	-0.242381	0.075902	-0.868813	-21.205670	-20.894324	-123.909298
49511		8.578474	-4.365577	10.901563	-2.175206	-2.929811	4.264420	0.357892	-2.199123	-1.430684	-0.692383	0.629883	-0.690918	0.084264	-0.044458	0.109869	0.420077	-0.251706	0.067947	-0.869231	-20.879489	-22.364363	-124.241501
49512		8.756534	-6.371448	9.242041	-4.367612	-1.609439	3.641365	0.445551	-1.997065	-1.290218	-0.712158	0.627197	-0.681641	0.086223	-0.064481	0.093143	0.415707	-0.259865	0.060217	-0.869501	-20.505662	-23.693287	-124.549560
49513		9.623856	-6.425136	8.929550	-4.918503	-1.958314	3.810929	0.623111	-1.845788	-1.073109	-0.728760	0.618896	-0.672852	0.095063	-0.065043	0.089975	0.412406	-0.266915	0.052288	-0.869450	-20.056918	-24.898463	-124.775885
49514		9.579851	-5.214636	9.989083	-3.452406	-2.295299	4.384256	0.750043	-1.665479	-0.874740	-0.756592	0.616455	-0.678223	0.094733	-0.052938	0.100485	0.410047	-0.272820	0.044453	-0.869169	-19.560485	-25.963438	-124.935775
49515		12.747840	-3.900989	13.901068	-2.125858	-4.630392	8.761388	0.756651	-1.343496	-0.721167	-0.767822	0.612549	-0.671143	0.126398	-0.039995	0.139712	0.408253	-0.277275	0.037439	-0.868934	-19.063261	-26.826985	-125.082498
49516		10.946150	-3.500918	12.345062	-1.695114	-3.584110	6.580996	0.598026	-0.837347	-0.519742	-0.778564	0.607666	-0.664307	0.108852	-0.035662	0.123801	0.407003	-0.279781	0.032440	-0.868918	-18.659707	-27.374667	-125.220555
49517		7.189809	-3.883708	10.446477	-0.997090	-0.771946	3.390113	0.513758	-0.777599	-0.361779	-0.784912	0.596436	-0.669189	0.071421	-0.039235	0.104643	0.406294	-0.282189	0.028131	-0.868621	-18.339994	-27.863800	-125.278368
49518		6.056492	-1.820944	9.986411	0.780270	-1.306338	1.909483	0.411403	-0.621393	-0.264042	-0.789795	0.599365	-0.665283	0.060230	-0.018495	0.100014	0.405841	-0.284084	0.024740	-0.868319	-18.091030	-28.246732	-125.310754
49519		6.526070	-1.849265	9.594656	0.333013	-1.619266	1.820605	0.248022	-0.486012	-0.214976	-0.804932	0.593262	-0.659912	0.065007	-0.018682	0.096082	0.405341	-0.285736	0.022383	-0.868074	-17.935708	-28.550606	-125.341492
49520		7.225785	-1.967833	8.727967	-0.537534	-2.150963	1.472078	0.195687	-0.378528	-0.154594	-0.810547	0.590576	-0.655029	0.072077	-0.019820	0.087397	0.405020	-0.286996	0.020576	-0.867853	-17.817986	-28.781682	-125.357309
49521		6.614178	-2.120287	8.660761	-0.358256	-1.585419	1.169561	0.133648	-0.233067	-0.083189	-0.808350	0.598633	-0.658203	0.066032	-0.021288	0.086670	0.404897	-0.287766	0.019415	-0.867682	-17.742379	-28.924518	-125.358037
49522		6.555220	-1.836501	8.745870	-0.083339	-1.692827	1.139994	0.105590	-0.158182	-0.041141	-0.812988	0.598633	-0.661621	0.065479	-0.018425	0.087501	0.404914	-0.288240	0.018608	-0.867535	-17.688835	-29.015511	-125.347777
49523		5.526948	-2.327258	8.875028	0.168123	-0.589486	0.880939	0.047356	-0.093123	0.009011	-0.819092	0.594238	-0.654053	0.055229	-0.023291	0.088770	0.405053	-0.288569	0.018237	-0.867368	-17.676887	-29.066035	-125.319081
49524		5.301871	-1.901027	8.631757	0.456829	-0.758719	0.456033	-0.004967	-0.073986	0.032333	-0.826660	0.601563	-0.654785	0.052990	-0.019000	0.086338	0.405221	-0.288894	0.018186	-0.867182	-17.700842	-29.098281	-125.279738
49525		5.257247	-2.223847	8.692774	0.295699	-0.496942	0.570668	-0.042824	-0.060505	0.066814	-0.825928	0.596436	-0.656738	0.052554	-0.022202	0.086948	0.405477	-0.289259	0.018354	-0.866937	-17.754965	-29.120943	-125.221405
49526		4.912116	-1.837273	8.596843	0.698507	-0.532172	0.219213	-0.078554	-0.067197	0.076917	-0.825928	0.607178	-0.653809	0.049099	-0.018320	0.085992	0.405731	-0.289700	0.018700	-0.866664	-17.834046	-29.141615	-125.155491
49527		5.467591	-2.083918	8.414123	0.168436	-0.803983	0.402984	-0.107919	-0.089177	0.084959	-0.825684	0.609863	-0.659668	0.054647	-0.020771	0.084177	0.405974	-0.290319	0.019119	-0.866334	-17.933830	-29.176606	-125.079982
49528		4.790140	-2.362881	8.077104	0.156446	-0.206532	-0.132754	-0.122997	-0.076646	0.086616	-0.824463	0.614990	-0.663574	0.047881	-0.023558	0.080804	0.406206	-0.290889	0.019652	-0.866022	-18.042377	-29.200517	-125.005982
49529		5.122288	-2.428849	8.218039	0.034229	-0.376011	0.163821	-0.125866	-0.090501	0.077044	-0.841064	0.620850	-0.660400	0.051195	-0.024217	0.082219	0.406388	-0.291551	0.020133	-0.865703	-18.150288	-29.237433	-124.934976
49530		3.995323	-3.361110	7.972113	-0.160910	0.999209	-0.336933	-0.109026	-0.064863	0.066387	-0.837402	0.628906	-0.663330	0.039939	-0.033554	0.079752	0.406551	-0.292044	0.020601	-0.865449	-18.243620	-29.258315	-124.875869
