// General information: 
//  MT Manager version: 2021.4.0 
//  XDA version: 2021.4.0 build 6323 rev 112641 built on 2021-09-28
// Device information: 
//  DeviceId: 00B4778E
//  ProductCode: MTW2-3A7G6
//  Firmware Version: 4.6.0
//  Hardware Version: 2.0.0
// Device settings: 
//  Filter Profile: human(46.1)
//  Option Flags: Orientation Smoother Disabled, Position/Velocity Smoother Disabled, Continuous Zero Rotation Update Disabled, AHS Disabled, ICC Disabled
// Coordinate system: ENU
PacketCounter	SampleTimeFine	Acc_X	Acc_Y	Acc_Z	FreeAcc_E	FreeAcc_N	FreeAcc_U	Gyr_X	Gyr_Y	Gyr_Z	Mag_X	Mag_Y	Mag_Z	VelInc_X	VelInc_Y	VelInc_Z	Quat_q0	Quat_q1	Quat_q2	Quat_q3	Roll	Pitch	Yaw
48994		4.170251	1.467387	8.655921	0.015745	-0.041864	-0.093264	0.003466	0.009921	-0.000068	-0.473633	-0.034180	-0.495361	0.041707	0.014672	0.086557	-0.114018	-0.229311	-0.049129	-0.965403	9.388072	-25.566052	164.394154
48995		4.199566	1.453430	8.699529	0.012792	-0.019015	-0.043855	0.002889	0.011122	0.003425	-0.475830	-0.040039	-0.482178	0.042000	0.014534	0.086993	-0.114007	-0.229304	-0.049145	-0.965405	9.389560	-25.565118	164.395201
48996		4.189145	1.421916	8.710097	0.032905	0.009589	-0.043583	-0.000233	0.007163	0.000910	-0.475342	-0.032715	-0.480225	0.041895	0.014219	0.087099	-0.114015	-0.229313	-0.049145	-0.965402	9.390024	-25.566098	164.394025
48997		4.198199	1.427130	8.677795	0.009389	0.005363	-0.067659	-0.000447	0.010469	0.003101	-0.474609	-0.023682	-0.490967	0.041986	0.014272	0.086776	-0.114010	-0.229307	-0.049145	-0.965404	9.389717	-25.565504	164.394802
48998		4.187232	1.448958	8.678824	0.014949	-0.018665	-0.068263	-0.004528	0.009465	0.004101	-0.471191	-0.037109	-0.493408	0.041876	0.014492	0.086786	-0.113993	-0.229304	-0.049124	-0.965408	9.386611	-25.565542	164.397518
48999		4.206764	1.430384	8.700521	0.011573	0.004712	-0.043256	-0.000428	0.006612	0.004381	-0.481689	-0.029541	-0.491211	0.042070	0.014305	0.087004	-0.113982	-0.229317	-0.049120	-0.965406	9.386141	-25.567247	164.398698
49000		4.226145	1.387096	8.645177	-0.021815	0.048899	-0.090519	-0.002291	0.010520	0.000130	-0.473389	-0.048340	-0.477783	0.042266	0.013872	0.086449	-0.113989	-0.229308	-0.049114	-0.965408	9.385420	-25.566244	164.398233
49001		4.185215	1.421936	8.657524	0.012407	0.005659	-0.092067	-0.001360	0.008566	0.002255	-0.479248	-0.034912	-0.486572	0.041856	0.014220	0.086573	-0.113989	-0.229311	-0.049110	-0.965407	9.384904	-25.566646	164.398283
49002		4.214284	1.435239	8.669034	-0.010221	0.000382	-0.067322	0.001426	0.009420	0.000432	-0.475098	-0.033691	-0.491455	0.042147	0.014352	0.086688	-0.114007	-0.229311	-0.049118	-0.965405	9.386442	-25.566389	164.395753
49003		4.203609	1.429937	8.702120	0.015064	0.004512	-0.043261	0.000298	0.010823	0.001777	-0.479248	-0.037354	-0.491211	0.042041	0.014300	0.087019	-0.114008	-0.229304	-0.049123	-0.965406	9.386904	-25.565471	164.395737
49004		4.172581	1.443900	8.659333	0.019704	-0.018440	-0.092677	-0.002488	0.009969	0.003600	-0.477783	-0.041016	-0.488281	0.041730	0.014441	0.086591	-0.114001	-0.229299	-0.049111	-0.965409	9.385194	-25.565118	164.396925
49005		4.202172	1.430567	8.648262	-0.008070	0.000763	-0.091723	-0.004660	0.000197	0.004491	-0.482910	-0.036865	-0.499268	0.042021	0.014309	0.086482	-0.113997	-0.229341	-0.049083	-0.965401	9.382556	-25.570460	164.397509
49006		4.201917	1.430221	8.648443	-0.007212	0.000713	-0.091723	0.000317	0.006965	0.003058	-0.482666	-0.035889	-0.492432	0.042022	0.014303	0.086483	-0.113996	-0.229352	-0.049083	-0.965398	9.382788	-25.571758	164.397412
49007		4.211637	1.406447	8.702785	0.013852	0.028262	-0.042658	-0.003401	0.008065	0.002754	-0.472900	-0.039551	-0.487305	0.042120	0.014067	0.087026	-0.113996	-0.229356	-0.049068	-0.965398	9.380989	-25.572489	164.397723
49008		4.180677	1.446421	8.682406	0.023632	-0.019166	-0.068281	-0.003401	0.008066	0.002754	-0.473389	-0.032959	-0.490479	0.041810	0.014466	0.086822	-0.113999	-0.229360	-0.049051	-0.965397	9.379108	-25.573153	164.397684
49009		4.220040	1.437277	8.693330	-0.003669	-0.000488	-0.042914	-0.000978	0.006814	0.002233	-0.472656	-0.038086	-0.485352	0.042203	0.014374	0.086932	-0.114000	-0.229371	-0.049047	-0.965395	9.378895	-25.574543	164.397539
49010		4.229475	1.414866	8.693141	-0.007500	0.023406	-0.042303	-0.001742	0.010322	0.002276	-0.476807	-0.031982	-0.486328	0.042299	0.014150	0.086929	-0.113999	-0.229364	-0.049041	-0.965397	9.377957	-25.573858	164.397885
49011		4.238571	1.420045	8.660861	-0.031047	0.019193	-0.066345	-0.000232	0.007166	0.000910	-0.475342	-0.035889	-0.487305	0.042389	0.014201	0.086607	-0.114005	-0.229374	-0.049042	-0.965394	9.378513	-25.574926	164.396947
49012		4.197889	1.428762	8.650640	-0.002015	0.000406	-0.091720	0.000101	0.010273	0.005248	-0.472412	-0.038574	-0.491211	0.041983	0.014289	0.086504	-0.113987	-0.229370	-0.049041	-0.965397	9.377810	-25.574597	164.399331
49013		4.187061	1.423442	8.683780	0.023291	0.004527	-0.067682	0.002704	0.013433	-0.000023	-0.477783	-0.042969	-0.486084	0.041876	0.014233	0.086835	-0.113992	-0.229351	-0.049062	-0.965400	9.380020	-25.572035	164.398456
49014		4.215866	1.437135	8.695379	0.000674	-0.000745	-0.042913	0.006057	0.010227	0.001583	-0.472412	-0.031738	-0.488037	0.042163	0.014369	0.086952	-0.113995	-0.229349	-0.049092	-0.965398	9.383826	-25.571345	164.397342
49015		4.195223	1.401818	8.684079	0.020344	0.028388	-0.067073	0.001211	0.012731	0.002622	-0.474854	-0.038818	-0.489502	0.041958	0.014018	0.086838	-0.113989	-0.229334	-0.049102	-0.965402	9.384498	-25.569426	164.398053
49016		4.193827	1.455642	8.674898	0.006612	-0.024271	-0.067930	0.002721	0.009575	0.001257	-0.475098	-0.033936	-0.495605	0.041942	0.014556	0.086747	-0.113988	-0.229333	-0.049118	-0.965402	9.386419	-25.569070	164.397783
49017		4.162856	1.469930	8.632023	0.011201	-0.047207	-0.117352	0.001593	0.010978	0.002601	-0.477295	-0.030029	-0.485352	0.041633	0.014699	0.086318	-0.113982	-0.229326	-0.049129	-0.965404	9.387393	-25.568141	164.398299
49018		4.202396	1.433414	8.675105	0.003661	-0.000430	-0.067317	-0.001726	0.006465	0.003555	-0.473877	-0.032715	-0.482910	0.042027	0.014336	0.086750	-0.113971	-0.229338	-0.049120	-0.965403	9.386232	-25.569775	164.399778
49019		4.201826	1.407053	8.653010	-0.000633	0.024009	-0.091106	-0.000250	0.011028	-0.000372	-0.479492	-0.038086	-0.489502	0.042023	0.014071	0.086528	-0.113982	-0.229329	-0.049125	-0.965403	9.386953	-25.568540	164.398436
49020		4.200823	1.433191	8.675904	0.005404	-0.000535	-0.067318	-0.000067	0.008722	0.003078	-0.486328	-0.038330	-0.485107	0.042012	0.014333	0.086757	-0.113977	-0.229331	-0.049124	-0.965403	9.386836	-25.568898	164.398986
49021		4.200085	1.433155	8.676267	0.006280	-0.000580	-0.067319	0.001974	0.009225	0.002580	-0.483643	-0.040771	-0.474365	0.042005	0.014331	0.086761	-0.113972	-0.229333	-0.049136	-0.965403	9.388112	-25.568957	164.399308
49022		4.199424	1.433058	8.676603	0.007174	-0.000634	-0.067319	-0.002274	0.006667	0.001406	-0.478760	-0.043457	-0.480713	0.041997	0.014332	0.086764	-0.113988	-0.229346	-0.049123	-0.965398	9.387359	-25.570469	164.397369
49023		4.218581	1.442118	8.666249	-0.015906	-0.005368	-0.066933	-0.001196	0.010126	0.004421	-0.483643	-0.040283	-0.472900	0.042190	0.014423	0.086660	-0.113977	-0.229342	-0.049118	-0.965401	9.386281	-25.570191	164.398938
49024		4.409970	1.105017	8.450488	-0.213123	0.358135	-0.225928	-0.001181	-0.000452	0.013904	-0.479004	-0.032715	-0.488037	0.044099	0.011054	0.084505	-0.113937	-0.229392	-0.049092	-0.965395	9.383127	-25.576871	164.403668
49025		5.783562	1.293037	7.709660	-1.778571	0.476353	-0.264381	0.007693	-0.010525	0.032633	-0.492676	-0.048096	-0.479980	0.057829	0.012937	0.077100	-0.113785	-0.229500	-0.049085	-0.965388	9.380429	-25.590902	164.420779
49026		6.463037	1.388054	7.599706	-2.433923	0.541951	-0.053826	-0.019080	-0.049879	0.012085	-0.485107	-0.037598	-0.479492	0.064611	0.013892	0.076012	-0.113782	-0.229778	-0.048948	-0.965329	9.369676	-25.625343	164.419805
49027		5.768850	1.215796	8.164382	-1.538477	0.562640	0.123682	-0.012239	0.023711	0.008753	-0.489258	-0.045654	-0.478760	0.057698	0.012165	0.081636	-0.113760	-0.229704	-0.048892	-0.965352	9.360487	-25.617789	164.425495
49028		4.938130	1.447177	8.446449	-0.736313	0.148587	0.049245	-0.005399	0.033288	0.003375	-0.499756	-0.037598	-0.473633	0.049395	0.014475	0.084456	-0.113765	-0.229587	-0.048877	-0.965380	9.356228	-25.604481	164.427396
49029		4.068398	1.474275	8.701415	0.127368	-0.077528	-0.095808	-0.004853	0.033091	0.005522	-0.488037	-0.044922	-0.475098	0.040698	0.014746	0.087007	-0.113748	-0.229470	-0.048865	-0.965410	9.351732	-25.591323	164.432026
49030		3.856567	1.511034	8.736635	0.318292	-0.163534	-0.150541	-0.013155	0.021813	0.007901	-0.489014	-0.038574	-0.471191	0.038575	0.015118	0.087361	-0.113739	-0.229405	-0.048802	-0.965430	9.342279	-25.584920	164.436055
49031		4.006068	1.337833	8.700186	0.205256	0.037967	-0.143766	-0.008813	0.007924	0.008558	-0.500000	-0.035156	-0.474365	0.040064	0.013384	0.087000	-0.113717	-0.229409	-0.048754	-0.965434	9.335814	-25.586271	164.439989
49032		4.353737	1.416785	8.636648	-0.141218	0.042113	-0.038626	-0.003601	0.007522	0.006220	-0.494141	-0.032959	-0.468018	0.043540	0.014171	0.086365	-0.113702	-0.229417	-0.048732	-0.965435	9.332873	-25.587678	164.442354
49033		4.283648	1.356802	8.679392	-0.049173	0.084745	-0.039622	-0.002868	0.011735	0.003618	-0.495850	-0.039551	-0.468506	0.042841	0.013570	0.086791	-0.113696	-0.229404	-0.048720	-0.965440	9.330982	-25.586415	164.443584
49034		4.671613	1.404909	8.440172	-0.503919	0.121316	-0.077925	-0.004853	-0.004211	0.009235	-0.496826	-0.031250	-0.469238	0.046714	0.014053	0.084402	-0.113670	-0.229468	-0.048682	-0.965429	9.327028	-25.594707	164.446700
49035		4.771481	1.366817	8.537628	-0.538378	0.185809	0.046417	-0.003235	0.009629	0.004919	-0.497559	-0.041016	-0.467041	0.047719	0.013671	0.085374	-0.113660	-0.229465	-0.048666	-0.965432	9.324668	-25.594755	164.448529
49036		4.262055	1.373318	8.659039	-0.042391	0.061158	-0.064635	-0.005102	0.017404	-0.000614	-0.489014	-0.042236	-0.472656	0.042628	0.013735	0.086586	-0.113676	-0.229423	-0.048650	-0.965441	9.322277	-25.589921	164.447701
49037		4.399568	1.519382	8.543026	-0.243670	-0.052307	-0.087159	-0.003767	0.005969	0.004051	-0.503174	-0.032471	-0.465088	0.043998	0.015196	0.085429	-0.113671	-0.229437	-0.048631	-0.965439	9.320010	-25.591958	164.448609
49038		4.250201	1.368284	8.638206	-0.041163	0.061587	-0.089029	-0.006053	0.016503	0.004177	-0.504150	-0.040527	-0.465332	0.042509	0.013686	0.086378	-0.113665	-0.229399	-0.048604	-0.965450	9.315818	-25.588081	164.450691
49039		4.238927	1.393796	8.475710	-0.110695	0.026766	-0.234803	-0.007700	0.010386	0.005932	-0.500244	-0.041748	-0.462402	0.042393	0.013942	0.084754	-0.113655	-0.229391	-0.048566	-0.965455	9.310592	-25.587795	164.453232
49040		4.556893	1.431471	8.433453	-0.413848	0.064307	-0.129604	-0.012532	0.009035	0.008245	-0.500000	-0.034424	-0.465576	0.045572	0.014322	0.084332	-0.113639	-0.229387	-0.048500	-0.965461	9.301918	-25.588519	164.457095
49041		3.747908	1.623763	8.493669	0.278526	-0.316634	-0.397381	-0.014764	0.004121	0.013490	-0.493408	-0.040771	-0.462646	0.037480	0.016246	0.084935	-0.113601	-0.229406	-0.048415	-0.965466	9.290876	-25.592474	164.463732
49042		3.699817	1.650195	8.537929	0.337144	-0.355805	-0.375116	-0.041767	-0.039792	0.036212	-0.501709	-0.040039	-0.469727	0.036978	0.016526	0.085383	-0.113496	-0.229628	-0.048147	-0.965439	9.260035	-25.623390	164.480133
49043		3.934160	1.640747	8.569244	0.154335	-0.295407	-0.247619	-0.048242	-0.061685	0.051022	-0.503662	-0.030029	-0.472656	0.039311	0.016438	0.085701	-0.113331	-0.229955	-0.047821	-0.965396	9.222519	-25.668008	164.503606
49044		4.260524	1.427600	8.703592	-0.020291	-0.012198	-0.017686	-0.045114	-0.061563	0.054812	-0.498779	-0.032715	-0.460205	0.042575	0.014307	0.087046	-0.113145	-0.230284	-0.047503	-0.965355	9.185622	-25.712915	164.529521
49045		4.705985	1.298580	8.686383	-0.383511	0.211317	0.141915	-0.053079	-0.066833	0.054595	-0.501953	-0.029053	-0.469238	0.047027	0.013022	0.086876	-0.112970	-0.230634	-0.047146	-0.965310	9.144517	-25.760742	164.554799
49046		4.731861	1.167838	8.669977	-0.382487	0.336259	0.120262	-0.040131	-0.044178	0.043912	-0.506348	-0.036377	-0.469971	0.047297	0.011706	0.086708	-0.112826	-0.230879	-0.046876	-0.965281	9.112617	-25.794798	164.575706
49047		4.865141	1.197828	8.548786	-0.555055	0.328569	0.075189	-0.030470	-0.041480	0.039275	-0.504639	-0.040771	-0.470459	0.048631	0.012001	0.085496	-0.112693	-0.231116	-0.046659	-0.965250	9.087484	-25.826868	164.593985
49048		5.168543	1.026640	8.847742	-0.645008	0.574692	0.449090	-0.005285	-0.014884	0.031260	-0.502441	-0.034424	-0.464844	0.051677	0.010277	0.088481	-0.112564	-0.231237	-0.046588	-0.965240	9.077691	-25.843203	164.609919
49049		5.117881	1.170225	8.655135	-0.715852	0.415996	0.276317	0.035528	0.014313	0.014948	-0.510986	-0.037109	-0.466309	0.051184	0.011691	0.086550	-0.112459	-0.231236	-0.046750	-0.965245	9.094579	-25.841502	164.618527
49050		4.825541	1.205859	8.592649	-0.499214	0.313291	0.098226	0.055678	0.057310	0.000708	-0.495361	-0.032715	-0.466064	0.048280	0.012035	0.085916	-0.112389	-0.231035	-0.047048	-0.965286	9.124909	-25.814250	164.622522
49051		4.271490	1.341817	8.468627	-0.104980	0.050144	-0.234055	0.056614	0.062090	-0.005363	-0.501953	-0.031494	-0.473145	0.042742	0.013393	0.084677	-0.112347	-0.230811	-0.047362	-0.965330	9.157336	-25.783681	164.623198
49052		4.186554	1.493678	8.616472	0.003150	-0.106303	-0.117813	0.043612	0.054927	0.000209	-0.508301	-0.036621	-0.464600	0.041889	0.014918	0.086156	-0.112294	-0.230615	-0.047602	-0.965371	9.180982	-25.757743	164.626666
49053		4.222818	1.438256	8.474108	-0.084634	-0.045786	-0.236570	0.028496	0.028254	-0.002059	-0.498291	-0.035889	-0.465820	0.042240	0.014370	0.084737	-0.112276	-0.230538	-0.047757	-0.965384	9.197879	-25.746615	164.626007
49054		4.150981	1.403217	8.703410	0.087912	-0.016947	-0.068921	0.024577	0.028822	0.001101	-0.497314	-0.030518	-0.476563	0.041522	0.014022	0.087030	-0.112247	-0.230458	-0.047889	-0.965399	9.211527	-25.735526	164.627395
49055		3.999197	1.447452	8.574350	0.151341	-0.099745	-0.243188	0.007324	0.019092	0.005500	-0.505859	-0.034668	-0.473389	0.040000	0.014472	0.085740	-0.112219	-0.230416	-0.047929	-0.965411	9.214635	-25.730273	164.630555
49056		4.157152	1.464499	8.608215	0.025383	-0.077353	-0.142041	-0.009229	0.018436	0.011658	-0.508545	-0.039063	-0.467041	0.041579	0.014651	0.086078	-0.112181	-0.230369	-0.047879	-0.965429	9.206496	-25.726021	164.637515
49057		4.325612	1.517895	8.359127	-0.245395	-0.101500	-0.282766	-0.032098	0.004166	0.026603	-0.506348	-0.030762	-0.474609	0.043256	0.015198	0.083588	-0.112100	-0.230382	-0.047696	-0.965444	9.181925	-25.731141	164.652406
49058		4.494944	1.561982	8.383028	-0.390648	-0.107708	-0.181734	-0.051452	0.006540	0.033295	-0.510254	-0.027100	-0.477051	0.044950	0.015649	0.083825	-0.112009	-0.230375	-0.047411	-0.965471	9.144223	-25.735590	164.671742
49059		4.375678	1.475367	8.371123	-0.276358	-0.058865	-0.256584	-0.062626	0.003183	0.040556	-0.503174	-0.022705	-0.479980	0.043755	0.014789	0.083706	-0.111896	-0.230378	-0.047064	-0.965500	9.098392	-25.742516	164.695305
49060		4.216869	1.501303	8.438630	-0.113137	-0.126793	-0.261903	-0.072504	-0.003881	0.049913	-0.500488	-0.030029	-0.471191	0.042163	0.015054	0.084382	-0.111751	-0.230413	-0.046653	-0.965528	9.044542	-25.754342	164.724044
49061		4.457362	1.329916	8.522346	-0.251104	0.090903	-0.107235	-0.086070	-0.003097	0.050772	-0.504883	-0.025146	-0.464111	0.044569	0.013347	0.085218	-0.111618	-0.230436	-0.046176	-0.965561	8.982745	-25.765699	164.753418
49062		4.268623	1.129206	8.507127	-0.056067	0.231301	-0.230892	-0.083083	0.006047	0.042937	-0.501709	-0.031494	-0.474365	0.042686	0.011337	0.085065	-0.111516	-0.230415	-0.045728	-0.965599	8.924293	-25.771234	164.778784
49063		4.188635	1.001151	8.646797	0.100351	0.334133	-0.159070	-0.068706	0.011372	0.026927	-0.500000	-0.020020	-0.475098	0.041890	0.010047	0.086462	-0.111474	-0.230373	-0.045371	-0.965631	8.878325	-25.772235	164.794622
49064		4.456795	0.903955	8.568656	-0.150976	0.483295	-0.125291	-0.051360	0.015215	0.012552	-0.495605	-0.018555	-0.475586	0.044574	0.009064	0.085681	-0.111481	-0.230319	-0.045116	-0.965655	8.845949	-25.769862	164.801798
49065		4.335724	0.952238	8.615123	-0.035669	0.406044	-0.129741	-0.033805	0.019605	-0.005283	-0.501709	-0.020996	-0.470703	0.043366	0.009536	0.086145	-0.111553	-0.230248	-0.044969	-0.965671	8.828432	-25.763350	164.798192
49066		4.284544	1.001336	8.846934	0.103694	0.353078	0.061158	-0.015701	0.008333	-0.015898	-0.504395	-0.023193	-0.476807	0.042850	0.010017	0.088467	-0.111657	-0.230241	-0.044915	-0.965663	8.824545	-25.762374	164.786810
49067		4.533097	1.169031	8.786815	-0.171875	0.247637	0.138838	0.009289	-0.001118	-0.029310	-0.507080	-0.028076	-0.479248	0.045332	0.011680	0.087869	-0.111800	-0.230289	-0.044992	-0.965631	8.839164	-25.765482	164.766074
49068		4.502677	1.323263	8.638473	-0.241941	0.087888	0.014931	0.015796	0.002466	-0.032082	-0.500000	-0.020996	-0.475342	0.045030	0.013219	0.086385	-0.111948	-0.230324	-0.045105	-0.965600	8.857988	-25.766399	164.743943
49069		4.811131	1.385624	8.596478	-0.540118	0.101737	0.120302	0.014503	-0.001537	-0.031642	-0.504150	-0.032227	-0.469971	0.048113	0.013842	0.085966	-0.112095	-0.230377	-0.045210	-0.965566	8.876252	-25.769527	164.721697
49070		4.540590	1.564611	8.471237	-0.397130	-0.138961	-0.083875	-0.001854	0.023249	-0.010583	-0.500977	-0.016357	-0.475098	0.045417	0.015644	0.084707	-0.112155	-0.230306	-0.045225	-0.965575	8.878203	-25.760579	164.715117
49071		4.149560	1.816491	8.469417	-0.109393	-0.477800	-0.220542	-0.040277	0.024412	0.015299	-0.501221	-0.022217	-0.477783	0.041505	0.018185	0.084685	-0.112134	-0.230214	-0.045026	-0.965609	8.851149	-25.753162	164.724923
49072		4.197917	1.536666	8.550175	-0.062492	-0.196764	-0.166615	-0.062685	0.026420	0.032890	-0.505371	-0.029297	-0.472656	0.041988	0.015400	0.085491	-0.112053	-0.230104	-0.044699	-0.965660	8.806252	-25.746251	164.745973
49073		4.186402	1.551270	8.553009	-0.056990	-0.220765	-0.167254	-0.078545	0.023298	0.044600	-0.507080	-0.019531	-0.475830	0.041871	0.015556	0.085519	-0.111934	-0.230002	-0.044281	-0.965717	8.749325	-25.742013	164.774077
49074		4.235266	1.109908	8.551829	-0.016344	0.210840	-0.207562	-0.085230	0.018197	0.045181	-0.500000	-0.023438	-0.490234	0.042358	0.011145	0.085510	-0.111821	-0.229921	-0.043826	-0.965770	8.688516	-25.740790	164.802039
49075		4.223305	1.064185	8.727324	0.079411	0.250121	-0.062502	-0.077388	0.032551	0.033810	-0.505127	-0.020020	-0.476563	0.042245	0.010683	0.087262	-0.111751	-0.229773	-0.043432	-0.965831	8.634823	-25.730329	164.824233
49076		4.480187	1.034458	8.859961	-0.081114	0.337113	0.163327	-0.061322	0.020794	0.023683	-0.506348	-0.026123	-0.476318	0.044810	0.010377	0.088592	-0.111715	-0.229688	-0.043118	-0.965870	8.593474	-25.725743	164.838923
49077		4.558948	1.229301	8.737400	-0.245328	0.157197	0.114671	-0.048425	0.013814	0.014134	-0.501953	-0.019287	-0.477539	0.045595	0.012317	0.087368	-0.111710	-0.229642	-0.042875	-0.965892	8.562530	-25.724187	164.846947
49078		4.548420	1.225178	8.607324	-0.295429	0.150541	-0.006298	-0.036155	0.009013	0.013719	-0.505127	-0.022949	-0.480225	0.045487	0.012270	0.086069	-0.111695	-0.229626	-0.042689	-0.965906	8.538803	-25.725418	164.854246
49079		4.886035	1.182905	8.705920	-0.537047	0.271560	0.222425	-0.019574	0.017350	0.005087	-0.508545	-0.013916	-0.485352	0.048868	0.011839	0.087054	-0.111701	-0.229577	-0.042597	-0.965921	8.526715	-25.721084	164.856912
49080		4.605509	1.353012	8.668781	-0.344504	0.038501	0.090289	-0.000407	0.022091	-0.000625	-0.503662	-0.019775	-0.488037	0.046065	0.013530	0.086683	-0.111711	-0.229516	-0.042607	-0.965934	8.526849	-25.713694	164.856424
49081		4.713565	1.299786	8.547868	-0.483821	0.112709	0.022270	0.011656	0.020589	0.001169	-0.503906	-0.018066	-0.490967	0.047144	0.012993	0.085475	-0.111699	-0.229467	-0.042673	-0.965944	8.533591	-25.707191	164.856931
49082		4.541958	1.252872	8.524849	-0.337014	0.118721	-0.079012	0.015920	0.030855	-0.000150	-0.502441	-0.013428	-0.484375	0.045433	0.012522	0.085242	-0.111687	-0.229373	-0.042766	-0.965963	8.542591	-25.694886	164.857568
49083		4.479066	1.302892	8.680444	-0.223245	0.062673	0.039008	0.025819	0.030202	-0.006940	-0.510010	-0.029541	-0.488770	0.044804	0.013016	0.086799	-0.111695	-0.229284	-0.042915	-0.965977	8.559263	-25.682246	164.853887
49084		4.316684	1.339177	8.747594	-0.060043	-0.005380	0.033323	0.031038	0.029774	-0.009263	-0.500488	-0.023193	-0.494873	0.043180	0.013376	0.087472	-0.111710	-0.229201	-0.043090	-0.965987	8.579449	-25.669783	164.848696
49085		4.444214	1.375393	8.684391	-0.207560	-0.009314	0.037096	0.027479	0.020851	-0.003621	-0.501465	-0.019043	-0.489502	0.044451	0.013741	0.086841	-0.111703	-0.229160	-0.043238	-0.965991	8.596548	-25.662722	164.846224
49086		4.473170	1.477814	8.491919	-0.340364	-0.105869	-0.108110	0.016707	0.018621	-0.003333	-0.509033	-0.011719	-0.487793	0.044740	0.014770	0.084916	-0.111707	-0.229124	-0.043332	-0.965995	8.607364	-25.657085	164.843710
49087		4.470841	1.451028	8.524690	-0.319516	-0.077840	-0.083552	0.008269	0.032579	0.002670	-0.507324	-0.014648	-0.488037	0.044722	0.014507	0.085240	-0.111689	-0.229016	-0.043386	-0.966020	8.611260	-25.643919	164.846311
49088		4.348608	1.479059	8.493793	-0.234774	-0.134241	-0.160258	-0.003253	0.033870	0.003011	-0.512451	-0.019043	-0.497070	0.043500	0.014793	0.084930	-0.111683	-0.228897	-0.043384	-0.966049	8.608291	-25.630195	164.849232
49089		4.555023	1.437226	8.516789	-0.398243	-0.044466	-0.056204	-0.009445	0.033397	0.010108	-0.505615	-0.014160	-0.489502	0.045564	0.014379	0.085160	-0.111649	-0.228777	-0.043346	-0.966083	8.599985	-25.617203	164.856582
49090		4.321176	1.324528	8.775838	-0.058631	0.017715	0.058408	-0.012237	0.044179	0.008122	-0.514648	-0.011963	-0.498291	0.043231	0.013252	0.087748	-0.111626	-0.228604	-0.043300	-0.966129	8.590067	-25.598081	164.863685
49091		4.298075	1.371557	8.670245	-0.099007	-0.037363	-0.039429	-0.012022	0.044746	0.004656	-0.511719	-0.016846	-0.508301	0.043000	0.013722	0.086692	-0.111619	-0.228427	-0.043261	-0.966173	8.581305	-25.578191	164.868680
49092		4.354949	1.374035	8.563475	-0.200529	-0.030388	-0.109825	-0.009660	0.040597	0.011043	-0.502686	-0.017578	-0.499023	0.043566	0.013747	0.085625	-0.111579	-0.228273	-0.043223	-0.966216	8.572227	-25.561347	164.877268
49093		4.491936	1.357576	8.478281	-0.357954	0.014186	-0.129020	-0.018872	0.034206	0.004307	-0.507324	-0.020264	-0.493652	0.044934	0.013585	0.084774	-0.111584	-0.228143	-0.043146	-0.966250	8.560072	-25.547397	164.881038
49094		4.269259	1.361304	8.577082	-0.122898	-0.040000	-0.136462	-0.019309	0.033089	0.011234	-0.512451	-0.019043	-0.501953	0.042706	0.013624	0.085762	-0.111556	-0.228021	-0.043057	-0.966286	8.545731	-25.534827	164.889025
49095		4.286715	1.367911	8.568327	-0.145989	-0.044675	-0.135910	-0.030838	0.030515	0.012819	-0.512695	-0.012451	-0.508545	0.042879	0.013695	0.085675	-0.111534	-0.227903	-0.042910	-0.966322	8.524570	-25.523690	164.897782
49096		4.074596	1.298130	8.566265	0.048605	-0.029453	-0.238496	-0.032341	0.037572	0.012926	-0.500732	-0.013916	-0.501221	0.040761	0.012998	0.085653	-0.111512	-0.227752	-0.042758	-0.966367	8.502134	-25.508720	164.907241
49097		4.111137	1.283445	8.633556	0.046830	-0.007162	-0.164645	-0.033265	0.031804	0.013324	-0.509277	-0.016113	-0.505859	0.041124	0.012852	0.086327	-0.111491	-0.227627	-0.042599	-0.966406	8.479404	-25.496890	164.916424
49098		4.497283	1.266606	8.627033	-0.292164	0.097030	-0.006528	-0.029171	0.032786	0.012357	-0.507324	-0.014404	-0.507813	0.044986	0.012681	0.086261	-0.111469	-0.227501	-0.042461	-0.966445	8.459140	-25.484576	164.925064
49099		4.645186	1.308600	8.500672	-0.488936	0.084983	-0.050242	-0.019690	0.034879	0.011260	-0.514404	-0.012939	-0.501465	0.046466	0.013097	0.084997	-0.111441	-0.227368	-0.042372	-0.966483	8.444630	-25.470824	164.933228
49100		4.522234	1.278621	8.533360	-0.364257	0.084668	-0.078014	-0.020282	0.039962	0.013490	-0.509033	-0.011719	-0.506592	0.045239	0.012798	0.085323	-0.111402	-0.227213	-0.042279	-0.966528	8.428875	-25.454543	164.943234
49101		4.269254	1.189564	8.606186	-0.096489	0.112700	-0.133533	-0.014154	0.033674	0.014563	-0.509277	-0.014893	-0.513672	0.042706	0.011905	0.086054	-0.111352	-0.227090	-0.042213	-0.966566	8.416702	-25.441747	164.953350
49102		4.115739	1.276172	8.740957	0.077905	-0.005000	-0.067629	-0.026429	0.038515	0.014927	-0.513672	-0.009033	-0.506104	0.041173	0.012776	0.087400	-0.111313	-0.226938	-0.042088	-0.966611	8.397105	-25.426407	164.964110
49103		4.033414	1.343703	8.766312	0.145173	-0.091647	-0.071398	-0.027595	0.024422	0.021301	-0.524170	-0.016357	-0.511230	0.040343	0.013453	0.087656	-0.111248	-0.226853	-0.041944	-0.966645	8.375791	-25.419413	164.977588
49104		4.252170	1.282545	8.625716	-0.098641	0.011497	-0.111193	-0.031760	0.024442	0.027897	-0.513428	-0.010742	-0.506348	0.042530	0.012845	0.086250	-0.111155	-0.226769	-0.041771	-0.966683	8.350213	-25.413121	164.995176
49105		4.552400	1.285903	8.411703	-0.458369	0.068115	-0.173190	-0.032556	0.008582	0.034239	-0.513184	-0.008545	-0.516357	0.045525	0.012881	0.084113	-0.111036	-0.226761	-0.041579	-0.966706	8.323202	-25.416170	165.015309
49106		4.460458	1.234698	8.595447	-0.286317	0.097735	-0.055109	-0.030361	0.006746	0.037191	-0.522217	-0.009033	-0.506836	0.044605	0.012368	0.085951	-0.110901	-0.226766	-0.041392	-0.966729	8.296622	-25.420672	165.037101
49107		4.221532	1.285178	8.584753	-0.092738	-0.011527	-0.160627	-0.029456	0.004774	0.039308	-0.509521	-0.010010	-0.503418	0.042215	0.012873	0.085845	-0.110755	-0.226779	-0.041207	-0.966751	8.270166	-25.426283	165.060073
49108		4.280654	1.250559	8.672068	-0.098324	0.034162	-0.061697	-0.030387	-0.000998	0.039697	-0.518311	0.000488	-0.510742	0.042804	0.012527	0.086719	-0.110609	-0.226821	-0.041013	-0.966766	8.243190	-25.435367	165.082739
49109		4.051120	1.274624	8.769415	0.141294	-0.044076	-0.070153	-0.027275	-0.000937	0.043512	-0.510498	-0.006592	-0.509277	0.040508	0.012767	0.087693	-0.110441	-0.226864	-0.040831	-0.966782	8.217063	-25.444541	165.107841
49110		4.242628	1.251688	8.661477	-0.068647	0.015261	-0.087316	-0.025040	-0.011520	0.043333	-0.511719	-0.004150	-0.506592	0.042419	0.012537	0.086616	-0.110274	-0.226961	-0.040653	-0.966786	8.192566	-25.459870	165.131851
49111		4.444799	1.180360	8.529459	-0.288522	0.123110	-0.127505	-0.028783	-0.018120	0.045511	-0.511963	-0.004883	-0.521240	0.044438	0.011826	0.085297	-0.110102	-0.227086	-0.040452	-0.966785	8.165683	-25.478932	165.156673
49112		4.506180	1.122114	8.538337	-0.324711	0.189782	-0.100502	-0.018005	-0.015918	0.045264	-0.513916	-0.001709	-0.517578	0.045052	0.011239	0.085386	-0.109918	-0.227208	-0.040303	-0.966783	8.144842	-25.496897	165.181521
49113		4.407826	1.229977	8.672339	-0.197541	0.062262	-0.009202	-0.012405	-0.018130	0.042931	-0.518311	-0.001465	-0.516846	0.044068	0.012315	0.086727	-0.109740	-0.227342	-0.040184	-0.966777	8.128018	-25.515739	165.204744
49114		4.358848	1.174974	8.756512	-0.103973	0.103566	0.037952	-0.011421	-0.017211	0.038156	-0.522461	-0.001465	-0.521240	0.043579	0.011763	0.087568	-0.109583	-0.227473	-0.040075	-0.966769	8.112900	-25.533855	165.225026
49115		4.390447	1.211022	8.790612	-0.121039	0.073847	0.086674	-0.008064	-0.012715	0.037258	-0.520752	-0.010010	-0.516602	0.043897	0.012122	0.087908	-0.109426	-0.227582	-0.039986	-0.966764	8.099872	-25.549156	165.245185
49116		4.601804	1.067707	8.611625	-0.356089	0.254698	-0.000195	-0.001461	-0.010146	0.028900	-0.521240	0.003418	-0.521240	0.046012	0.010684	0.086119	-0.109302	-0.227682	-0.039939	-0.966757	8.092681	-25.562513	165.260293
49117		4.782897	0.963890	8.466701	-0.557295	0.391729	-0.064550	-0.000476	-0.009234	0.024127	-0.527832	0.003174	-0.515137	0.047824	0.009645	0.084669	-0.109199	-0.227776	-0.039904	-0.966748	8.087417	-25.574775	165.272515
49118		4.654168	0.935050	8.420288	-0.458733	0.388374	-0.165119	0.011538	-0.001703	0.014395	-0.521484	0.000244	-0.511963	0.046540	0.009349	0.084204	-0.109128	-0.227839	-0.039941	-0.966739	8.091275	-25.582183	165.279257
49119		4.285616	1.090150	8.532157	-0.115739	0.156715	-0.204635	0.015190	0.002360	0.004401	-0.530518	-0.004883	-0.514893	0.042857	0.010896	0.085322	-0.109100	-0.227882	-0.040010	-0.966730	8.099893	-25.586279	165.280111
49120		3.716738	1.209997	8.684421	0.426773	-0.084886	-0.299115	0.016870	0.004605	0.003952	-0.516602	-0.001953	-0.512939	0.037169	0.012093	0.086844	-0.109073	-0.227916	-0.040088	-0.966722	8.109393	-25.589275	165.280847
49121		3.827869	1.314091	8.645678	0.293752	-0.161124	-0.272514	0.007852	-0.009289	0.010938	-0.524658	-0.002686	-0.514160	0.038274	0.013140	0.086459	-0.109024	-0.228012	-0.040108	-0.966704	8.112481	-25.600507	165.284767
49122		4.257539	1.314128	8.671023	-0.067361	-0.062435	-0.064264	0.003874	-0.016448	0.016578	-0.527832	-0.003418	-0.520264	0.042567	0.013143	0.086714	-0.108954	-0.228143	-0.040098	-0.966681	8.111919	-25.616455	165.291561
49123		4.560686	1.370957	8.500418	-0.416523	-0.054650	-0.078212	-0.007773	-0.025734	0.026281	-0.526611	-0.001953	-0.517578	0.045594	0.013719	0.085010	-0.108853	-0.228313	-0.040016	-0.966656	8.102515	-25.638255	165.303662
49124		4.682009	1.339885	8.532228	-0.499148	0.001712	-0.001150	-0.011834	-0.018933	0.024735	-0.536377	0.003174	-0.524902	0.046810	0.013410	0.085326	-0.108762	-0.228449	-0.039919	-0.966638	8.090825	-25.656274	165.315371
49125		4.383099	1.206757	8.523940	-0.214998	0.060345	-0.154763	-0.013638	-0.002352	0.022383	-0.531494	-0.002197	-0.518311	0.043829	0.012078	0.085239	-0.108681	-0.228502	-0.039825	-0.966638	8.078205	-25.664491	165.327122
49126		4.243326	1.220497	8.610799	-0.055777	0.015519	-0.136018	-0.008020	-0.000703	0.018797	-0.525879	0.000732	-0.521484	0.042432	0.012212	0.086108	-0.108611	-0.228551	-0.039763	-0.966637	8.069607	-25.671695	165.336729
49127		4.512491	1.124020	8.587318	-0.281223	0.168675	-0.052539	-0.005049	-0.010947	0.017299	-0.534912	-0.002197	-0.517822	0.045119	0.011246	0.085875	-0.108547	-0.228649	-0.039713	-0.966623	8.063622	-25.684376	165.344517
49128		4.592695	1.153350	8.708888	-0.299894	0.160720	0.094483	0.002660	-0.013691	0.008849	-0.529785	-0.000488	-0.521484	0.045920	0.011534	0.087092	-0.108515	-0.228765	-0.039707	-0.966599	8.064355	-25.698150	165.346706
49129		4.484564	1.134232	8.651899	-0.225423	0.152746	-0.005598	0.001061	-0.013047	0.002410	-0.533691	-0.012939	-0.524658	0.044840	0.011342	0.086522	-0.108516	-0.228873	-0.039702	-0.966574	8.066014	-25.710825	165.344935
49130		3.977765	1.231792	8.672919	0.208964	-0.057319	-0.194345	0.002397	-0.005164	0.000740	-0.533203	-0.000244	-0.524414	0.039775	0.012317	0.086730	-0.108522	-0.228946	-0.039708	-0.966556	8.068478	-25.719117	165.342777
49131		4.097376	1.226467	8.782513	0.157128	-0.021937	-0.045391	0.003848	-0.016099	0.001868	-0.534912	-0.005127	-0.523926	0.040967	0.012263	0.087829	-0.108523	-0.229071	-0.039716	-0.966526	8.072001	-25.733480	165.340391
49132		4.658273	1.209183	8.643517	-0.388234	0.118678	0.072008	0.006327	-0.022595	0.011672	-0.542480	-0.003906	-0.523926	0.046572	0.012092	0.086441	-0.108476	-0.229232	-0.039719	-0.966493	8.074405	-25.752534	165.343561
49133		4.771373	1.262699	8.503527	-0.557325	0.088029	0.003220	0.002638	-0.017561	0.010099	-0.532715	-0.014404	-0.526367	0.047706	0.012628	0.085040	-0.108439	-0.229365	-0.039710	-0.966466	8.075041	-25.768389	165.346226
49134		4.783322	1.296160	8.438788	-0.601227	0.055890	-0.044948	0.009414	-0.005061	0.021750	-0.538818	-0.006592	-0.525391	0.047830	0.012963	0.084390	-0.108336	-0.229445	-0.039727	-0.966458	8.075771	-25.778319	165.357309
49135		4.403299	1.204130	8.595553	-0.179875	0.062842	-0.082004	0.010149	-0.008589	0.021687	-0.532471	-0.010498	-0.528320	0.044028	0.012042	0.085958	-0.108232	-0.229541	-0.039746	-0.966446	8.077185	-25.790017	165.368078
49136		4.324325	1.141775	8.613487	-0.088425	0.105729	-0.108224	0.014548	-0.021021	0.024448	-0.545410	-0.011475	-0.525391	0.043233	0.011417	0.086140	-0.108113	-0.229702	-0.039775	-0.966419	8.080733	-25.809227	165.379433
49137		4.406980	1.180926	8.516325	-0.208877	0.083758	-0.153846	0.021422	-0.014378	0.026075	-0.543213	-0.012207	-0.524658	0.044062	0.011806	0.085168	-0.107976	-0.229833	-0.039841	-0.966401	8.087621	-25.824564	165.392449
49138		4.307319	1.080544	8.630583	-0.047867	0.162780	-0.108114	0.032417	-0.024266	0.020474	-0.540283	-0.008301	-0.536621	0.043062	0.010796	0.086313	-0.107857	-0.230018	-0.039959	-0.966365	8.102620	-25.845300	165.401005
49139		4.400385	1.098647	8.532028	-0.172915	0.164785	-0.153037	0.029105	-0.029735	0.015739	-0.553711	-0.012939	-0.531494	0.043990	0.010978	0.085328	-0.107764	-0.230225	-0.040065	-0.966322	8.117347	-25.868517	165.406123
49140		3.916537	1.210242	8.487413	0.211780	-0.053503	-0.389715	0.036106	-0.038022	0.018911	-0.548096	-0.011719	-0.533447	0.039148	0.012091	0.084884	-0.107651	-0.230478	-0.040196	-0.966269	8.135424	-25.896936	165.412447
49141		4.539282	1.391147	8.747376	-0.240586	-0.080648	0.136814	0.026990	-0.054741	0.032800	-0.549072	-0.009277	-0.531738	0.045367	0.013907	0.087488	-0.107483	-0.230808	-0.040259	-0.966206	8.145222	-25.935723	165.426058
49142		3.863426	1.845542	8.626593	0.214393	-0.680275	-0.208446	0.021606	-0.068733	0.045755	-0.548584	-0.012695	-0.530762	0.038600	0.018455	0.086281	-0.107263	-0.231208	-0.040272	-0.966134	8.148791	-25.983742	165.446535
49143		4.241100	1.741941	8.500202	-0.141417	-0.500998	-0.168844	0.013333	-0.124829	0.091166	-0.550781	-0.008545	-0.526367	0.042350	0.017433	0.085030	-0.106843	-0.231881	-0.040164	-0.966024	8.137350	-26.067019	165.490665
49144		4.266258	1.205948	8.681593	0.034508	0.026768	-0.064693	0.035508	-0.138732	0.115858	-0.548584	-0.011475	-0.526123	0.042595	0.012069	0.086848	-0.106282	-0.232639	-0.040126	-0.965905	8.132123	-26.160414	165.549142
49145		4.217049	0.969223	8.578416	0.089997	0.240199	-0.208193	0.068892	-0.150056	0.112989	-0.551758	-0.013184	-0.529785	0.042101	0.009686	0.085819	-0.105698	-0.233468	-0.040247	-0.965764	8.147268	-26.259768	165.604863
49146		4.904892	1.313660	8.507809	-0.586531	0.052736	0.077695	0.057361	-0.161430	0.126131	-0.551025	-0.008057	-0.527588	0.048972	0.013143	0.085121	-0.105066	-0.234349	-0.040290	-0.965618	8.152373	-26.366884	165.667857
49147		4.233808	1.382414	8.721031	0.099358	-0.161626	-0.022051	0.048192	-0.155316	0.135945	-0.563721	-0.009766	-0.527344	0.042261	0.013832	0.087246	-0.104395	-0.235196	-0.040282	-0.965485	8.149184	-26.471095	165.737719
49148		4.375396	1.116148	8.670551	0.020567	0.121915	-0.037565	0.039819	-0.190175	0.151327	-0.561279	-0.009521	-0.524170	0.043663	0.011177	0.086749	-0.103668	-0.236212	-0.040196	-0.965319	8.137992	-26.596558	165.814211
49149		4.287306	1.284402	8.547822	0.030248	-0.071726	-0.164380	0.056280	-0.199348	0.174821	-0.565430	-0.012207	-0.537842	0.042777	0.012857	0.085525	-0.102809	-0.237282	-0.040157	-0.965150	8.129809	-26.728877	165.904936
49150		4.430785	1.412091	8.541536	-0.096580	-0.172928	-0.089293	0.055966	-0.233984	0.200718	-0.565186	-0.011230	-0.524414	0.044194	0.014141	0.085471	-0.101832	-0.238527	-0.040068	-0.964951	8.115074	-26.883160	166.009079
49151		4.240903	1.121115	8.839041	0.284391	0.069689	0.050629	0.057720	-0.244474	0.227651	-0.568604	-0.008789	-0.519043	0.042288	0.011234	0.088445	-0.100725	-0.239825	-0.039950	-0.964750	8.093755	-27.045303	166.129654
49152		4.117632	1.189360	8.777059	0.376986	-0.034230	-0.052417	0.072983	-0.260714	0.249255	-0.569336	-0.004639	-0.518555	0.041047	0.011913	0.087829	-0.099499	-0.241215	-0.039871	-0.964534	8.075046	-27.218594	166.262733
49153		5.130322	1.288199	8.415350	-0.655829	0.062221	0.105160	0.099819	-0.297136	0.287854	-0.572998	-0.001465	-0.519531	0.051160	0.012914	0.084236	-0.098060	-0.242799	-0.039858	-0.964284	8.061507	-27.415384	166.417477
49154		4.752099	0.949575	8.592199	-0.156617	0.308216	0.045833	0.106086	-0.277460	0.316136	-0.579834	0.002197	-0.519775	0.047387	0.009525	0.085993	-0.096474	-0.244298	-0.039849	-0.964066	8.041664	-27.603477	166.592386
49155		4.944290	0.856955	8.429024	-0.353314	0.421530	-0.018495	0.139338	-0.315317	0.389266	-0.577637	-0.004150	-0.520264	0.049293	0.008607	0.084374	-0.094501	-0.246006	-0.039893	-0.963825	8.020042	-27.818610	166.811175
49156		4.757309	1.686404	8.331696	-0.337655	-0.443964	-0.087367	0.212615	-0.318609	0.505773	-0.585693	-0.000488	-0.508301	0.047398	0.016895	0.083411	-0.091876	-0.247788	-0.040144	-0.963612	8.004394	-28.045094	167.104972
49157		4.442549	1.158008	8.678043	0.225541	0.008854	0.002328	0.129693	-0.405282	0.440054	-0.589844	0.009521	-0.516113	0.044224	0.011621	0.086878	-0.089688	-0.249932	-0.040038	-0.963269	7.963516	-28.315157	167.349483
49158		4.656754	0.981825	8.735562	0.141356	0.212628	0.131860	0.181525	-0.419979	0.381994	-0.595947	0.004395	-0.511719	0.046365	0.009828	0.087462	-0.087716	-0.252158	-0.040246	-0.962862	7.969348	-28.589124	167.555880
49159		4.416324	0.906076	8.481130	0.279472	0.223927	-0.214457	0.146765	-0.449519	0.333508	-0.590820	0.004150	-0.506104	0.043957	0.009072	0.084917	-0.086027	-0.254496	-0.040336	-0.962395	7.970597	-28.875771	167.728794
49160		4.664759	1.138400	8.510392	0.097704	0.034890	-0.041725	0.170715	-0.507996	0.294817	-0.595947	0.011475	-0.508057	0.046414	0.011380	0.085232	-0.084504	-0.257119	-0.040563	-0.961823	7.999222	-29.192793	167.871661
49161		4.452538	0.881254	8.576898	0.404323	0.244652	-0.120356	0.157170	-0.565289	0.239536	-0.603271	0.007568	-0.501953	0.044272	0.008798	0.085901	-0.083276	-0.259995	-0.040773	-0.961148	8.039587	-29.537742	167.973562
49162		4.863543	1.000006	8.368823	-0.005990	0.190029	-0.083619	0.162974	-0.634732	0.194284	-0.602051	0.009766	-0.503662	0.048360	0.009979	0.083850	-0.082271	-0.263197	-0.041039	-0.960351	8.100433	-29.918752	168.039457
49163		4.853960	1.160571	8.373642	0.051665	0.026277	-0.064768	0.155505	-0.720365	0.148319	-0.604980	0.003906	-0.496094	0.048229	0.011576	0.083920	-0.081512	-0.266793	-0.041295	-0.959412	8.176014	-30.344442	168.066948
49164		4.206540	1.022807	8.608423	0.814424	0.051402	-0.211665	0.163999	-0.787703	0.124705	-0.613525	0.010010	-0.489746	0.041720	0.010183	0.086257	-0.080869	-0.270708	-0.041594	-0.958357	8.267625	-30.806646	168.071857
49165		4.359544	1.137442	8.622184	0.760345	-0.036482	-0.114162	0.167242	-0.862280	0.127544	-0.617676	0.005859	-0.484863	0.043216	0.011330	0.086418	-0.080221	-0.274975	-0.041875	-0.957183	8.364383	-31.311143	168.070593
49166		4.810240	1.039733	8.186713	0.254469	0.119938	-0.264815	0.172082	-0.957221	0.114445	-0.626709	0.000000	-0.479248	0.047704	0.010354	0.082105	-0.079647	-0.279692	-0.042157	-0.955851	8.473816	-31.868558	168.050176
49167		4.997717	0.880923	8.103250	0.170869	0.302573	-0.257882	0.188772	-1.017301	0.113923	-0.629150	0.007324	-0.471680	0.049559	0.008761	0.081294	-0.079063	-0.284693	-0.042496	-0.954407	8.597299	-32.459726	168.021922
49168		4.798527	0.799178	8.350544	0.587096	0.354353	-0.172933	0.210631	-1.120813	0.103758	-0.633789	0.005127	-0.461914	0.047512	0.007928	0.083781	-0.078517	-0.290188	-0.042910	-0.952778	8.743893	-33.108791	167.974325
49169		5.584045	0.588853	7.848705	-0.195511	0.678005	-0.188169	0.214834	-1.221808	0.085775	-0.643066	0.004395	-0.450439	0.055357	0.005828	0.078832	-0.078068	-0.296149	-0.043330	-0.950959	8.907468	-33.813142	167.901417
49170		5.481602	0.862925	7.858140	-0.015400	0.389290	-0.200726	0.241190	-1.320409	0.071080	-0.648682	0.010498	-0.445557	0.054293	0.008554	0.078951	-0.077668	-0.302575	-0.043855	-0.948943	9.100255	-34.571983	167.804493
49171		5.022184	0.864470	8.124673	0.644379	0.317274	-0.249088	0.261338	-1.437232	0.062900	-0.656982	-0.003418	-0.431152	0.049634	0.008554	0.081616	-0.077299	-0.309545	-0.044443	-0.946695	9.319021	-35.395651	167.684594
49172		4.776352	1.000382	8.213857	1.024836	0.142802	-0.314842	0.260150	-1.601738	0.072557	-0.668701	-0.004395	-0.425781	0.047100	0.009914	0.082530	-0.076917	-0.317278	-0.044941	-0.944139	9.548731	-36.313011	167.547101
49173		5.224680	1.309539	7.675640	0.472830	-0.107687	-0.448392	0.237747	-1.800574	0.082601	-0.669678	-0.001953	-0.409668	0.051547	0.013025	0.077238	-0.076563	-0.325918	-0.045240	-0.941206	9.781545	-37.342992	167.386437
49174		5.653107	1.262894	7.192729	0.029294	-0.014440	-0.577773	0.212102	-2.098628	0.104952	-0.686523	-0.003906	-0.400391	0.055766	0.012582	0.072528	-0.076205	-0.335926	-0.045262	-0.937709	10.019809	-38.543045	167.196787
49175		5.408422	1.075765	7.038121	0.346575	0.104315	-0.879134	0.175960	-2.463646	0.168555	-0.700928	-0.005127	-0.374756	0.053203	0.010740	0.071050	-0.075681	-0.347598	-0.044864	-0.933507	10.247875	-39.954591	166.996135
49176		5.167357	1.480703	7.093463	0.757676	-0.362445	-0.952654	0.150899	-2.916324	0.249529	-0.708740	0.000244	-0.352783	0.050613	0.014817	0.071689	-0.074911	-0.361330	-0.044027	-0.928381	10.474234	-41.629165	166.782207
49177		6.159372	1.432583	7.413397	0.550485	-0.178576	-0.086200	0.119754	-3.384561	0.342141	-0.725098	0.005615	-0.325684	0.060303	0.014385	0.075170	-0.073852	-0.377150	-0.042693	-0.922215	10.695495	-43.576382	166.557162
49178		4.784082	2.246108	8.108312	2.262483	-1.258586	-0.487300	-0.015092	-3.825027	0.513442	-0.740234	0.003174	-0.291504	0.046221	0.022587	0.081976	-0.072326	-0.394863	-0.040236	-0.915004	10.807580	-45.789514	166.385679
49179		6.494365	2.051483	7.745672	1.247758	-0.880459	0.386939	-0.051379	-4.239676	0.721410	-0.744873	0.003906	-0.256348	0.063208	0.020765	0.078804	-0.069974	-0.414335	-0.037038	-0.906674	10.834477	-48.258059	166.309077
49180		6.748129	2.162299	7.894694	1.638302	-1.061573	0.613582	-0.097686	-4.649595	0.884270	-0.759033	0.018066	-0.223633	0.065526	0.021955	0.080475	-0.067019	-0.435467	-0.033128	-0.897095	10.783401	-50.974923	166.302843
49181		7.595086	2.538959	8.352988	1.963819	-1.448227	1.497532	-0.182007	-5.015837	1.029287	-0.774658	0.025146	-0.173828	0.073693	0.025850	0.085374	-0.063617	-0.457971	-0.028383	-0.886234	10.622656	-53.913303	166.374371
49182		8.361470	2.963830	9.530501	3.042094	-1.949598	2.694699	-0.296247	-5.144784	1.138304	-0.780029	0.039063	-0.130371	0.080957	0.030247	0.097366	-0.059969	-0.480714	-0.022821	-0.874527	10.302123	-56.935529	166.557629
49183		10.055369	2.220080	10.997774	4.109241	-1.231520	4.628178	-0.238951	-4.962472	1.138085	-0.779297	0.047363	-0.088623	0.097656	0.022895	0.112398	-0.056123	-0.502353	-0.017550	-0.862661	9.937491	-59.854172	166.825220
49184		11.926848	1.635004	11.713928	4.573520	-0.646324	6.335238	0.207747	-4.462331	0.961355	-0.786377	0.050781	-0.042969	0.116536	0.016791	0.119777	-0.051840	-0.521649	-0.014779	-0.851456	9.873711	-62.472523	167.034135
49185		12.236906	1.620729	9.297735	2.953975	-0.651699	5.340929	0.745220	-4.022952	0.795937	-0.789063	0.058350	-0.009766	0.120400	0.016336	0.095473	-0.046802	-0.538952	-0.014835	-0.840904	10.210073	-64.826720	167.135621
49186		12.175495	1.893186	12.635821	6.596784	-1.038358	6.523217	1.248607	-3.428945	0.629800	-0.785889	0.059814	0.018555	0.119505	0.018513	0.128536	-0.041044	-0.553652	-0.017587	-0.831550	10.943511	-66.829065	167.116206
49187		10.797708	0.602257	8.288940	3.668564	0.239371	3.307151	1.569439	-2.880687	0.489977	-0.782471	0.059814	0.040283	0.106754	0.005626	0.084478	-0.034918	-0.565956	-0.022168	-0.823397	11.977004	-68.507392	166.971438
49188		9.925280	1.845218	6.222392	2.372101	-1.030828	1.760349	1.300473	-2.659002	0.530758	-0.793213	0.074463	0.052490	0.098364	0.018303	0.063655	-0.029352	-0.577160	-0.025560	-0.815703	12.807357	-70.065310	166.880658
49189		9.909902	2.648960	8.923954	5.204840	-1.785749	2.620109	1.091430	-1.823183	0.496433	-0.789307	0.073242	0.070068	0.098214	0.026243	0.090281	-0.024417	-0.584822	-0.028316	-0.810299	13.323403	-71.152065	166.996841
49190		5.286247	-1.780432	8.034419	6.004762	2.317818	-2.448178	1.019441	-1.119416	0.747207	-0.790527	0.089111	0.074219	0.052479	-0.018018	0.080547	-0.018574	-0.589601	-0.030131	-0.806918	13.106406	-71.878879	167.841826
49191		16.240923	1.422834	23.169529	17.233678	0.305014	12.671115	1.048719	-0.738065	0.940832	-0.782227	0.093994	0.076904	0.161487	0.013772	0.232365	-0.011806	-0.592837	-0.031526	-0.804619	12.371806	-72.415163	169.245142
49192		3.698886	4.068373	18.004034	16.177694	-3.134733	-0.711408	0.809880	0.209143	1.011176	-0.778320	0.097900	0.067627	0.036973	0.040141	0.180165	-0.005311	-0.592222	-0.031806	-0.805129	10.975570	-72.419352	171.196898
49193		0.724031	5.843442	12.826554	12.188132	-5.210311	-4.965783	0.227374	0.801917	1.159343	-0.773682	0.106934	0.065918	0.007416	0.058331	0.128302	0.000148	-0.589206	-0.029317	-0.807451	8.821085	-72.085859	173.596080
49194		0.145873	4.151191	10.377637	9.959936	-3.655622	-6.293494	-0.186929	1.083696	1.134512	-0.774170	0.125732	0.050049	0.001785	0.041618	0.103728	0.004329	-0.585009	-0.025228	-0.810623	6.505396	-71.561158	175.921078
49195		-0.370660	3.010510	8.464676	8.239466	-2.633744	-7.358037	-0.246612	1.302310	0.964843	-0.765625	0.123047	0.041016	-0.003301	0.030193	0.084632	0.007675	-0.579876	-0.021385	-0.814388	4.539950	-70.876723	177.848055
49196		-0.624977	2.631629	7.918294	7.765522	-2.291125	-7.700342	-0.094762	1.508457	0.725298	-0.761230	0.128662	0.035889	-0.005748	0.026332	0.079215	0.010507	-0.573823	-0.018848	-0.818695	3.158657	-70.046202	179.256675
49197		-0.754044	3.044891	7.779904	7.668998	-2.705648	-7.755600	0.094392	1.681630	0.441485	-0.764160	0.133789	0.005859	-0.006953	0.030396	0.077873	0.012735	-0.566992	-0.017888	-0.823430	2.412708	-69.101341	-179.889342
49198		-0.376588	3.942917	7.984781	7.729850	-3.580616	-7.191225	0.179091	1.846108	0.165093	-0.747070	0.129150	-0.015869	-0.003061	0.039355	0.079913	0.014080	-0.559398	-0.018050	-0.828583	2.171029	-68.052049	-179.518824
49199		0.439544	4.788960	8.594174	7.970784	-4.388639	-6.045599	0.102436	2.024729	-0.092761	-0.754395	0.125244	-0.036133	0.005288	0.047843	0.085916	0.014156	-0.551004	-0.018599	-0.834175	2.253426	-66.896026	-179.544179
49200		1.572814	5.103371	9.418358	8.197769	-4.664002	-4.496413	-0.044743	2.251677	-0.342632	-0.742188	0.127441	-0.052734	0.016874	0.051026	0.093986	0.012805	-0.541575	-0.019208	-0.840335	2.554811	-65.602431	-179.900625
49201		3.507115	5.131178	10.817037	8.498294	-4.631545	-1.941467	-0.197521	2.580814	-0.586256	-0.736328	0.125488	-0.079590	0.036613	0.051312	0.107654	0.010046	-0.530679	-0.019807	-0.847282	3.007023	-64.114393	179.475180
49202		5.058734	4.655587	11.384616	8.040677	-4.126678	-0.056759	-0.312583	3.040998	-0.817551	-0.734131	0.119629	-0.102051	0.052500	0.046521	0.112985	0.006046	-0.517691	-0.020510	-0.855301	3.561301	-62.351400	178.654824
49203		5.230119	3.831163	10.370310	6.694465	-3.335810	-0.137188	-0.366738	3.479079	-1.007113	-0.729248	0.098633	-0.123291	0.054286	0.038231	0.102700	0.001137	-0.502675	-0.021448	-0.864209	4.162051	-60.328845	177.731175
49204		4.721544	2.862050	8.377709	4.841660	-2.433461	-1.369114	-0.344815	3.744985	-1.148751	-0.706787	0.098877	-0.154053	0.048936	0.028486	0.082822	-0.004299	-0.486300	-0.022833	-0.873483	4.789353	-58.141389	176.772445
49205		4.264028	2.042585	6.590566	3.238335	-1.659042	-2.564126	-0.261712	3.801055	-1.232944	-0.702637	0.078369	-0.189453	0.044007	0.020243	0.065051	-0.009894	-0.469497	-0.024772	-0.882531	5.428013	-55.914397	175.832930
49206		4.248927	1.155939	5.797501	2.307757	-0.755387	-2.949923	-0.121960	3.711330	-1.287489	-0.691162	0.066162	-0.208496	0.043628	0.011316	0.057165	-0.015407	-0.452889	-0.027447	-0.891011	6.099891	-53.727559	174.926740
49207		4.666727	0.296892	6.100513	2.044815	0.198177	-2.406244	0.088891	3.572107	-1.336283	-0.675537	0.060791	-0.231445	0.047765	0.002625	0.060160	-0.020675	-0.436759	-0.031146	-0.898802	6.848467	-51.612692	174.049892
49208		5.460930	-0.193475	7.161335	2.109410	0.868745	-1.098865	0.307148	3.482716	-1.357368	-0.665771	0.050293	-0.248535	0.055830	-0.002420	0.070645	-0.025566	-0.420876	-0.035856	-0.906049	7.659519	-49.537845	173.229098
49209		6.267492	-0.167080	8.209468	2.066517	1.070034	0.250982	0.474814	3.462377	-1.333019	-0.649170	0.026611	-0.274902	0.064070	-0.002288	0.080989	-0.029990	-0.404981	-0.041254	-0.912901	8.474276	-47.471546	172.505070
49210		6.504886	0.352642	8.940148	2.078732	0.751741	1.025403	0.526984	3.451825	-1.263908	-0.643066	0.024414	-0.287842	0.066598	0.002875	0.088269	-0.033984	-0.388999	-0.046739	-0.919424	9.211769	-45.408724	171.905328
49211		6.557945	0.890187	9.341017	1.939503	0.389421	1.462343	0.466747	3.385196	-1.167052	-0.628906	0.001221	-0.306885	0.067198	0.008297	0.092302	-0.037655	-0.373223	-0.051727	-0.925533	9.813444	-43.390327	171.428116
49212		7.127944	1.183359	9.883950	1.507387	0.332094	2.332390	0.346580	3.296735	-1.056369	-0.624756	-0.010742	-0.318115	0.072956	0.011281	0.097666	-0.041048	-0.357727	-0.055925	-0.931246	10.258225	-41.427524	171.064294
49213		7.845799	1.454029	10.239236	0.795836	0.297930	3.140106	0.216338	3.214517	-0.943824	-0.621338	-0.028076	-0.335205	0.080157	0.014055	0.101128	-0.044162	-0.342533	-0.059276	-0.936593	10.554283	-39.523349	170.799647
49214		8.428229	1.839086	10.498265	0.080801	0.119240	3.773847	0.101250	3.138756	-0.829530	-0.607422	-0.033691	-0.358643	0.085991	0.017984	0.103651	-0.046947	-0.327590	-0.061865	-0.941623	10.722346	-37.670751	170.624449
49215		8.947759	2.276627	10.706355	-0.647588	-0.133906	4.308845	0.016581	3.062676	-0.724833	-0.605469	-0.042725	-0.379639	0.091185	0.022429	0.105678	-0.049391	-0.312953	-0.063845	-0.946332	10.793862	-35.874269	170.521340
49216		9.513237	2.773943	10.699332	-1.565556	-0.467671	4.678206	-0.034126	2.980113	-0.650147	-0.591797	-0.042725	-0.399170	0.096802	0.027445	0.105554	-0.051574	-0.298624	-0.065437	-0.950727	10.808433	-34.129839	170.463085
49217		9.861012	3.447924	10.426443	-2.474266	-1.038405	4.700152	-0.085606	2.883077	-0.594345	-0.592529	-0.056152	-0.430908	0.100201	0.034227	0.102813	-0.053590	-0.284714	-0.066657	-0.954789	10.777610	-32.448390	170.430392
49218		9.971914	3.646642	9.996993	-3.225853	-1.195683	4.358658	-0.111940	2.765959	-0.594983	-0.583252	-0.060059	-0.444092	0.101197	0.036222	0.098557	-0.055673	-0.271277	-0.067712	-0.958501	10.739351	-30.830484	170.382397
49219		10.046252	3.673670	9.592959	-3.886215	-1.185291	3.968740	-0.086619	2.624778	-0.662316	-0.572998	-0.057373	-0.466797	0.101831	0.036442	0.094583	-0.058083	-0.258469	-0.068922	-0.961806	10.744793	-29.287201	170.273019
49220		10.145166	3.435572	9.362383	-4.425663	-0.881188	3.678321	-0.026623	2.492258	-0.769412	-0.553467	-0.064453	-0.496094	0.102739	0.033974	0.092344	-0.060964	-0.246214	-0.070513	-0.964723	10.821475	-27.804709	170.082135
49221		10.395194	2.591634	9.670115	-4.759994	0.120555	3.810985	0.097218	2.373251	-0.921675	-0.535645	-0.073486	-0.503418	0.105208	0.025387	0.095470	-0.064461	-0.234496	-0.072837	-0.967239	11.012080	-26.374506	169.786544
49222		11.169522	1.861292	10.369022	-5.383799	1.175313	4.517686	0.286462	2.338366	-1.060844	-0.522461	-0.082031	-0.536377	0.112994	0.017869	0.102400	-0.068410	-0.222900	-0.076220	-0.969446	11.339509	-24.945142	169.411090
49223		11.432530	1.595535	10.606905	-5.823371	1.684997	4.643763	0.482970	2.403611	-1.179449	-0.506104	-0.094971	-0.549805	0.115680	0.015022	0.104721	-0.072679	-0.210989	-0.080692	-0.971437	11.791034	-23.465397	168.985512
49224		11.087194	1.659245	10.205909	-6.024503	1.715653	3.992604	0.594090	2.464959	-1.270859	-0.491699	-0.105957	-0.553467	0.112220	0.015582	0.100729	-0.077235	-0.198726	-0.085812	-0.973231	12.307427	-21.935126	168.531153
49225		10.859923	1.941013	10.006036	-6.259669	1.582832	3.608271	0.569407	2.494783	-1.318287	-0.468018	-0.106689	-0.571777	0.109960	0.018406	0.098748	-0.082019	-0.186264	-0.090848	-0.974846	12.799978	-20.380624	168.071284
49226		10.970345	2.287033	9.996512	-6.737450	1.470037	3.526715	0.416723	2.510688	-1.312905	-0.447754	-0.116211	-0.581299	0.111093	0.021938	0.098623	-0.086894	-0.173611	-0.095126	-0.976350	13.185836	-18.812867	167.634455
49227		10.647699	2.659601	9.121119	-7.119451	1.079288	2.507121	0.115327	2.455757	-1.208481	-0.434326	-0.129639	-0.601074	0.107744	0.025895	0.089908	-0.091531	-0.161126	-0.097796	-0.977802	13.367297	-17.289290	167.263046
49228		10.025894	1.490257	7.116980	-7.303382	1.862611	0.014536	-0.287946	2.307442	-0.985068	-0.410645	-0.127686	-0.595215	0.101143	0.014507	0.069985	-0.095456	-0.149249	-0.098233	-0.979267	13.276255	-15.875982	167.005736
49229		9.992976	-0.020948	7.343883	-7.184903	3.410490	-0.297874	-0.404790	2.242566	-0.836373	-0.408691	-0.129883	-0.608643	0.100743	-0.000483	0.072313	-0.098759	-0.137699	-0.097938	-0.980660	13.092379	-14.520538	166.823496
49230		9.395753	-0.301349	7.146605	-6.835908	3.567816	-0.869525	-0.223787	2.209920	-0.751181	-0.405518	-0.126953	-0.621582	0.094728	-0.003289	0.070426	-0.101521	-0.126408	-0.098445	-0.981847	12.998027	-13.193325	166.683914
49231		8.288507	0.462581	6.329508	-6.319386	2.502051	-1.889512	-0.014871	2.125279	-0.659419	-0.389404	-0.131104	-0.626221	0.083566	0.004356	0.062409	-0.103729	-0.115679	-0.099860	-0.982795	13.011279	-11.926731	166.585096
49232		7.545597	1.329093	5.428021	-6.141510	1.395377	-2.848652	0.077367	1.922035	-0.531908	-0.382080	-0.140137	-0.629639	0.076008	0.013068	0.053557	-0.105347	-0.106037	-0.101541	-0.983538	13.066134	-10.788760	166.533559
49233		7.330207	1.894740	4.990871	-6.260272	0.764618	-3.297080	0.073272	1.655049	-0.416959	-0.371094	-0.143799	-0.632324	0.073751	0.018776	0.049307	-0.106529	-0.097766	-0.102989	-0.984117	13.112088	-9.815908	166.512935
49234		7.510956	2.090226	4.899601	-6.586535	0.631753	-3.409044	0.059606	1.373065	-0.343602	-0.370117	-0.148438	-0.635498	0.075479	0.020758	0.048485	-0.107495	-0.090897	-0.104179	-0.984545	13.149116	-9.008848	166.497606
49235		7.734036	2.112598	4.834135	-6.896489	0.675873	-3.517620	0.094851	1.137905	-0.319367	-0.363770	-0.155762	-0.640381	0.077647	0.020979	0.047910	-0.108444	-0.085223	-0.105399	-0.984819	13.208608	-8.337211	166.465358
49236		7.859388	2.093469	4.779276	-7.086700	0.742790	-3.630434	0.193080	0.943563	-0.345668	-0.356689	-0.154541	-0.646240	0.078854	0.020753	0.047441	-0.109579	-0.080535	-0.107008	-0.984914	13.329643	-7.769543	166.393809
49237		8.756710	2.061412	5.533944	-7.861425	1.170575	-2.857055	0.339158	0.836914	-0.396489	-0.360352	-0.159180	-0.652588	0.087838	0.020347	0.055007	-0.110961	-0.076431	-0.109293	-0.984836	13.539010	-7.255242	166.280912
49238		9.395277	2.316894	6.149744	-8.476076	1.259047	-2.195051	0.457759	0.852892	-0.443202	-0.355957	-0.164063	-0.645264	0.094265	0.022820	0.061148	-0.112515	-0.072281	-0.112188	-0.984647	13.818041	-6.724547	166.146498
49239		8.913786	2.183792	5.823538	-8.096441	1.270284	-2.673288	0.471310	0.904894	-0.451533	-0.356445	-0.175293	-0.656006	0.089449	0.021500	0.057882	-0.114073	-0.067881	-0.115177	-0.984436	14.102871	-6.163832	166.017271
49240		7.842682	1.747850	4.746392	-7.195016	1.255798	-4.003655	0.437386	0.867326	-0.421657	-0.352539	-0.180420	-0.655762	0.078668	0.017209	0.047161	-0.115514	-0.063658	-0.117965	-0.984220	14.365685	-5.627116	165.902350
49241		6.759938	1.129646	3.643608	-6.222427	1.380422	-5.382766	0.406477	0.715051	-0.360590	-0.351807	-0.184570	-0.662109	0.067749	0.011101	0.036217	-0.116752	-0.060205	-0.120490	-0.983985	14.608327	-5.183592	165.801890
49242		6.066885	0.644023	2.991927	-5.564109	1.554603	-6.235365	0.408733	0.483959	-0.288199	-0.341064	-0.179443	-0.652100	0.060750	0.006292	0.029785	-0.117770	-0.057931	-0.122868	-0.983706	14.850987	-4.877972	165.709929
49243		5.888929	0.399798	2.915864	-5.357924	1.747882	-6.409883	0.427194	0.221760	-0.204917	-0.340332	-0.186035	-0.665527	0.058926	0.003875	0.029102	-0.118533	-0.057010	-0.125157	-0.983380	15.103017	-4.729694	165.626542
49244		6.050955	0.619174	3.466683	-5.482716	1.731995	-5.818278	0.420489	-0.028125	-0.125635	-0.347412	-0.193848	-0.658203	0.060509	0.006081	0.034688	-0.119063	-0.057362	-0.127242	-0.983027	15.350640	-4.731014	165.550106
49245		6.254038	1.012448	4.179630	-5.652511	1.601745	-5.007396	0.345991	-0.216635	-0.040604	-0.345215	-0.207031	-0.656982	0.062497	0.010039	0.041881	-0.119317	-0.058652	-0.128822	-0.982715	15.554025	-4.849237	165.491858
49246		6.055562	1.163023	4.227938	-5.468153	1.435217	-4.920113	0.227144	-0.400577	0.066611	-0.349854	-0.198975	-0.658447	0.060467	0.011602	0.042414	-0.119197	-0.060843	-0.129678	-0.982484	15.686956	-5.085374	165.464154
49247		5.383960	0.725321	3.312357	-4.837731	1.460031	-5.946251	0.117826	-0.666517	0.194937	-0.347656	-0.193359	-0.658936	0.053722	0.007286	0.033307	-0.118651	-0.064358	-0.129797	-0.982310	15.754613	-5.488011	165.465629
49248		5.707831	0.197039	3.197262	-5.020974	2.002432	-6.122115	0.103027	-1.011431	0.351964	-0.352783	-0.185303	-0.652100	0.056912	0.002054	0.032262	-0.117559	-0.069660	-0.129586	-0.982107	15.810590	-6.105489	165.499638
49249		4.757658	4.682920	3.884740	-4.885580	-2.300748	-4.290643	-0.071387	-1.465130	0.485982	-0.362793	-0.187988	-0.639404	0.047176	0.046958	0.039177	-0.116160	-0.077170	-0.128199	-0.981895	15.765726	-6.993808	165.536844
49250		1.961579	5.044804	5.687633	-1.841416	-2.989459	-2.790107	-1.300383	-2.149526	0.658710	-0.379883	-0.179688	-0.629883	0.018838	0.050880	0.056752	-0.114811	-0.087430	-0.120300	-0.982193	15.016430	-8.286509	165.571560
49251		2.563931	0.686339	14.416758	0.400607	2.982431	4.533823	-1.178343	-1.975300	0.612358	-0.388916	-0.163574	-0.617920	0.024191	0.007789	0.144367	-0.113515	-0.096861	-0.113101	-0.982314	14.333703	-9.475050	165.622375
49252		2.305394	4.279294	12.184067	-0.330280	-1.143876	3.250816	-0.934935	-1.790491	0.478652	-0.394287	-0.158203	-0.605713	0.021860	0.043416	0.121838	-0.112638	-0.105437	-0.107254	-0.982188	13.795918	-10.542017	165.636818
49253		2.210709	1.638290	7.035099	-0.741655	0.234813	-2.298958	-1.163002	-1.921633	0.568330	-0.403076	-0.141846	-0.604492	0.021383	0.016854	0.070462	-0.111498	-0.114561	-0.100152	-0.982046	13.118414	-11.693447	165.696007
49254		3.087514	-1.014126	8.103887	-0.651730	3.040874	-1.654311	-1.037685	-2.033691	0.574069	-0.406982	-0.126709	-0.583496	0.030077	-0.009632	0.081398	-0.110299	-0.124296	-0.093586	-0.981645	12.511217	-12.907859	165.757295
49255		3.652443	0.543157	11.117880	-0.509704	2.023240	1.714846	-0.779126	-1.964393	0.419556	-0.427246	-0.125244	-0.572510	0.035418	0.005941	0.111508	-0.109650	-0.133741	-0.088411	-0.980955	12.066748	-14.063664	165.750138
49256		3.189298	0.145620	9.781619	-0.179432	1.978375	0.283005	-0.658317	-1.932046	0.247478	-0.427734	-0.121582	-0.565674	0.030944	0.001818	0.098113	-0.109739	-0.143007	-0.083952	-0.980030	11.713821	-15.181446	165.655414
49257		3.855563	-1.294264	8.879005	-0.614597	3.315642	-0.647385	-0.367988	-1.990730	0.110797	-0.436035	-0.105957	-0.562744	0.037676	-0.012758	0.089192	-0.110303	-0.152644	-0.080972	-0.978763	11.551208	-16.316369	165.478753
49258		5.606549	-0.613690	10.245445	-1.737618	3.195562	1.302340	-0.117126	-1.954251	0.002761	-0.440430	-0.116699	-0.544189	0.055061	-0.006076	0.102999	-0.111178	-0.162185	-0.079313	-0.977264	11.552599	-17.419094	165.243660
49259		6.692003	-0.738979	11.492145	-2.071462	3.684047	2.817847	-0.050969	-1.808971	-0.007847	-0.449951	-0.107422	-0.544434	0.065877	-0.007363	0.115522	-0.111984	-0.171030	-0.078061	-0.975764	11.593098	-18.438533	165.018158
49260		6.938326	-0.964953	11.330864	-2.089693	3.906004	2.750451	0.040828	-1.620490	0.080879	-0.456299	-0.104492	-0.533447	0.068466	-0.009645	0.113864	-0.112197	-0.179034	-0.077279	-0.974365	11.666021	-19.362750	164.865851
49261		6.344771	-0.500103	10.265095	-1.838071	3.164268	1.697513	0.103748	-1.469700	0.173076	-0.459229	-0.106689	-0.517090	0.062695	-0.005000	0.103111	-0.111839	-0.186359	-0.076802	-0.973069	11.753103	-20.212369	164.785050
49262		5.818657	0.108044	10.159088	-1.352074	2.414302	1.563447	0.189022	-1.355680	0.216962	-0.470703	-0.105957	-0.521729	0.057495	0.001047	0.101983	-0.111139	-0.193188	-0.076756	-0.971820	11.876432	-21.003654	164.742636
49263		5.383128	0.992001	10.560234	-0.812578	1.484643	1.960771	0.280582	-1.238562	0.217681	-0.467529	-0.111572	-0.518066	0.053165	0.009830	0.105947	-0.110296	-0.199486	-0.077219	-0.970607	12.048169	-21.728670	164.713293
49264		6.012033	1.530136	10.751461	-1.248587	1.138339	2.484598	0.371914	-1.115812	0.205347	-0.470459	-0.101807	-0.514160	0.059504	0.015162	0.107876	-0.109371	-0.205232	-0.078199	-0.969434	12.270222	-22.383998	164.689549
49265		7.647896	2.161289	11.335647	-2.441031	0.999981	3.777690	0.413652	-0.863012	0.218057	-0.476807	-0.110840	-0.506836	0.075965	0.021461	0.113729	-0.108239	-0.209768	-0.079506	-0.968484	12.501806	-22.898672	164.704367
49266		7.110835	3.445923	11.027377	-2.209695	-0.391948	3.566561	0.339696	-0.591045	0.229410	-0.477783	-0.101074	-0.505615	0.070742	0.034353	0.110542	-0.107019	-0.212954	-0.080587	-0.967834	12.674266	-23.263444	164.760973
49267		5.665778	4.540577	10.373296	-1.319313	-1.862431	2.641772	0.239867	-0.429828	0.209619	-0.480957	-0.107666	-0.504883	0.056387	0.045340	0.103909	-0.105936	-0.215290	-0.081294	-0.967377	12.785776	-23.535031	164.826962
49268		4.661716	5.930001	9.622668	-0.933416	-3.531189	1.855709	0.049303	-0.393600	0.159921	-0.474854	-0.103027	-0.508789	0.046380	0.059313	0.096333	-0.105282	-0.217335	-0.081148	-0.967004	12.797880	-23.780896	164.867344
49269		5.401429	4.741573	9.771076	-1.274153	-2.209321	2.045943	-0.109656	-0.398873	0.096878	-0.494873	-0.110107	-0.509033	0.053796	0.047495	0.097792	-0.105108	-0.219289	-0.080303	-0.966652	12.734754	-24.020949	164.868777
49270		5.423072	2.702929	9.785802	-0.908461	-0.265616	1.658208	-0.263836	-0.294899	0.099603	-0.490234	-0.087891	-0.516113	0.054073	0.027185	0.097902	-0.105048	-0.220665	-0.078761	-0.966472	12.576478	-24.203987	164.886552
49271		3.875379	1.146476	8.456400	0.149094	0.691965	-0.466967	-0.324433	-0.229039	0.138283	-0.492188	-0.100586	-0.512207	0.038649	0.011629	0.084590	-0.104840	-0.221700	-0.076920	-0.966406	12.369800	-24.354144	164.937804
49272		3.895989	1.424129	8.298948	0.033095	0.374042	-0.542399	-0.360491	-0.300130	0.158726	-0.494629	-0.094971	-0.511475	0.038824	0.014422	0.083022	-0.104601	-0.223072	-0.074842	-0.966279	12.140681	-24.547197	164.992690
49273		4.579691	2.038235	8.630177	-0.502144	-0.070400	0.154790	-0.415454	-0.292342	0.151846	-0.490967	-0.089111	-0.522705	0.045655	0.020596	0.086326	-0.104453	-0.224367	-0.072512	-0.966173	11.880917	-24.734066	165.045479
49274		3.312856	1.933994	8.045059	0.384465	-0.369370	-0.915843	-0.474781	-0.310670	0.172475	-0.500977	-0.087891	-0.521240	0.032987	0.019559	0.080456	-0.104278	-0.225733	-0.069861	-0.966070	11.582091	-24.934178	165.109616
49275		4.097700	2.055584	8.743014	0.010563	-0.294824	0.054913	-0.483472	-0.318682	0.171126	-0.498779	-0.085205	-0.515137	0.040820	0.020802	0.087445	-0.104120	-0.227123	-0.067166	-0.965952	11.278409	-25.137531	165.173311
49276		4.497196	2.016302	8.041579	-0.631021	-0.277079	-0.406201	-0.520622	-0.278895	0.198072	-0.507324	-0.078125	-0.516113	0.044840	0.020417	0.080425	-0.103861	-0.228315	-0.064279	-0.965895	10.943384	-25.321955	165.259827
49277		4.967705	2.195164	8.586638	-0.811329	-0.357368	0.308624	-0.526941	-0.224391	0.189275	-0.511719	-0.072266	-0.511475	0.049560	0.022225	0.085864	-0.103633	-0.229229	-0.061401	-0.965890	10.603602	-25.473506	165.348774
49278		5.003043	0.935007	9.331940	-0.277763	0.871178	0.777565	-0.471301	-0.123861	0.166740	-0.506592	-0.072021	-0.517334	0.049965	0.009612	0.093328	-0.103418	-0.229684	-0.058867	-0.965963	10.296091	-25.566423	165.436126
49279		5.130586	0.749613	8.983080	-0.512541	1.009440	0.497441	-0.371961	-0.092260	0.145042	-0.511719	-0.072510	-0.511230	0.051259	0.007700	0.089840	-0.103184	-0.230024	-0.056856	-0.966028	10.049540	-25.638132	165.514148
49280		5.237102	0.596295	8.907130	-0.612388	1.140845	0.455863	-0.298049	-0.039931	0.104466	-0.520752	-0.058838	-0.515137	0.052350	0.006123	0.089073	-0.103046	-0.230144	-0.055274	-0.966106	9.853538	-25.676849	165.572722
49281		5.298322	0.673433	8.646917	-0.798165	1.037100	0.266112	-0.210248	-0.033609	0.068720	-0.521240	-0.067871	-0.518311	0.052966	0.006843	0.086471	-0.102977	-0.230261	-0.054162	-0.966148	9.717258	-25.707532	165.609856
49282		4.912353	0.647882	9.031565	-0.282249	0.979036	0.438261	-0.152648	0.001735	0.030553	-0.519531	-0.062500	-0.514893	0.049123	0.006555	0.090310	-0.103017	-0.230234	-0.053388	-0.966193	9.622553	-25.715374	165.626782
49283		4.865554	1.041503	8.763506	-0.433742	0.558944	0.240015	-0.091085	-0.001441	0.010193	-0.524170	-0.063721	-0.511963	0.048654	0.010457	0.087631	-0.103085	-0.230241	-0.052935	-0.966209	9.568927	-25.722184	165.630747
49284		5.437366	0.908741	8.513432	-1.023973	0.796010	0.246493	-0.052565	0.002931	-0.005350	-0.527100	-0.059082	-0.510986	0.054375	0.009108	0.085131	-0.103183	-0.230250	-0.052686	-0.966210	9.541248	-25.725923	165.625302
49285		5.048650	1.112960	8.563687	-0.699719	0.511418	0.152910	-0.012936	0.046236	-0.020572	-0.535400	-0.061523	-0.508057	0.050507	0.011130	0.085624	-0.103297	-0.230059	-0.052671	-0.966245	9.538587	-25.702869	165.615005
49286		4.334679	1.394578	8.390011	-0.209429	0.068934	-0.269211	-0.011738	0.061383	-0.021502	-0.529785	-0.057861	-0.512939	0.043374	0.013946	0.083886	-0.103410	-0.229802	-0.052668	-0.966294	9.536002	-25.672082	165.605592
49287		4.593924	1.611716	8.751719	-0.314297	-0.064376	0.196879	-0.025934	0.050790	-0.019021	-0.536865	-0.061279	-0.509521	0.045963	0.016124	0.087503	-0.103530	-0.229583	-0.052591	-0.966337	9.525255	-25.646604	165.596748
49288		5.003478	1.390466	8.750999	-0.638870	0.243076	0.340191	-0.008643	0.074241	-0.015982	-0.535889	-0.054199	-0.510742	0.050068	0.013904	0.087491	-0.103610	-0.229267	-0.052603	-0.966403	9.522358	-25.609087	165.592140
49289		4.092948	1.430717	8.569274	0.058656	-0.007682	-0.209139	0.011632	0.114032	-0.019956	-0.537598	-0.059814	-0.510254	0.040980	0.014298	0.085670	-0.103675	-0.228762	-0.052741	-0.966508	9.530505	-25.547785	165.589362
49290		4.039174	1.333622	8.690865	0.169316	0.085097	-0.138563	0.018703	0.094683	-0.016170	-0.537109	-0.054443	-0.504150	0.040434	0.013325	0.086891	-0.103720	-0.228361	-0.052897	-0.966589	9.542385	-25.498711	165.586800
49291		4.181378	1.480027	8.416085	-0.111593	-0.037167	-0.300009	0.015985	0.068845	-0.006549	-0.540771	-0.058350	-0.502686	0.041843	0.014792	0.084148	-0.103727	-0.228080	-0.053017	-0.966649	9.551446	-25.464214	165.587684
49292		3.751421	1.855098	8.477850	0.221045	-0.494886	-0.373688	-0.025922	0.062635	0.017597	-0.541260	-0.057129	-0.501953	0.037539	0.018565	0.084764	-0.103667	-0.227820	-0.052901	-0.966723	9.530120	-25.436456	165.602888
49293		3.292597	2.026003	8.480891	0.589779	-0.768959	-0.542722	-0.077822	0.021715	0.051083	-0.542725	-0.057129	-0.496826	0.032930	0.020301	0.084797	-0.103515	-0.227733	-0.052478	-0.966783	9.472078	-25.434043	165.634868
49294		3.974505	2.254317	8.178547	-0.184377	-0.865720	-0.486178	-0.121897	-0.015460	0.082651	-0.543213	-0.054932	-0.499268	0.039729	0.022609	0.081775	-0.103271	-0.227818	-0.051784	-0.966826	9.381800	-25.456487	165.682612
49295		3.544329	2.025428	8.590817	0.418933	-0.732995	-0.338831	-0.155621	-0.029678	0.110920	-0.535889	-0.060791	-0.486328	0.035419	0.020341	0.085898	-0.102931	-0.227954	-0.050890	-0.966878	9.265319	-25.488595	165.746784
49296		4.359505	1.608190	8.640317	-0.195864	-0.162436	-0.005453	-0.159385	-0.062436	0.129987	-0.545410	-0.055176	-0.483398	0.043558	0.016179	0.086404	-0.102512	-0.228259	-0.049937	-0.966900	9.142758	-25.541768	165.819541
49297		4.144251	1.627587	8.755263	0.044254	-0.242440	0.006566	-0.139179	-0.041838	0.117905	-0.543701	-0.051514	-0.481445	0.041415	0.016361	0.087550	-0.102123	-0.228464	-0.049108	-0.966935	9.034161	-25.581151	165.887066
49298		5.434357	1.229977	8.245090	-1.239236	0.386159	0.053504	-0.118083	-0.107625	0.116998	-0.548340	-0.049561	-0.482666	0.054292	0.012380	0.082473	-0.101731	-0.229004	-0.048346	-0.966887	8.940492	-25.658489	165.947469
49299		5.029960	1.142929	8.699469	-0.658082	0.388258	0.272139	-0.089396	-0.050818	0.094906	-0.544678	-0.052002	-0.472168	0.050272	0.011492	0.087002	-0.101399	-0.229272	-0.047779	-0.966887	8.866845	-25.700718	165.999873
49300		4.278490	1.077926	8.654885	-0.004224	0.272871	-0.101872	-0.082652	-0.078310	0.089954	-0.545166	-0.050293	-0.479980	0.042746	0.010834	0.086561	-0.101089	-0.229682	-0.047234	-0.966848	8.799377	-25.758967	166.046424
49301		4.893227	1.083051	8.711485	-0.509945	0.392274	0.216904	-0.065035	-0.072070	0.083561	-0.541504	-0.045654	-0.478271	0.048896	0.010879	0.087129	-0.100789	-0.230062	-0.046788	-0.966811	8.743534	-25.812131	166.089785
49302		4.866958	1.194713	8.568560	-0.563944	0.261485	0.094301	-0.043222	-0.076036	0.076626	-0.538574	-0.044189	-0.465576	0.048632	0.011984	0.085702	-0.100498	-0.230478	-0.046450	-0.966759	8.702053	-25.867865	166.128337
49303		4.806854	1.235741	8.882622	-0.369692	0.214994	0.353481	-0.018020	-0.036745	0.068457	-0.540527	-0.039307	-0.470703	0.048048	0.012382	0.088834	-0.100208	-0.230707	-0.046266	-0.966743	8.675696	-25.899658	166.165710
49304		4.380474	1.372797	8.667204	-0.114649	-0.024882	-0.005558	-0.011794	-0.031455	0.065751	-0.537842	-0.027588	-0.459717	0.043787	0.013747	0.086678	-0.099923	-0.230921	-0.046114	-0.966729	8.653254	-25.929185	166.201778
49305		4.776332	1.375475	8.522167	-0.523084	0.046580	0.039054	-0.009583	-0.029388	0.067434	-0.541260	-0.039551	-0.458496	0.047746	0.013775	0.085228	-0.099626	-0.231118	-0.045976	-0.966719	8.631650	-25.956694	166.239258
49306		4.726418	1.192218	8.438853	-0.482442	0.206664	-0.081337	-0.005508	-0.023498	0.070817	-0.542236	-0.042725	-0.452393	0.047250	0.011941	0.084394	-0.099308	-0.231298	-0.045853	-0.966714	8.611031	-25.982136	166.279318
49307		4.032125	1.560618	8.410048	0.050556	-0.306781	-0.361455	-0.012193	-0.012124	0.086526	-0.532715	-0.029785	-0.446289	0.040309	0.015629	0.084102	-0.098918	-0.231415	-0.045688	-0.966734	8.581890	-26.001474	166.330516
49308		3.622287	1.513240	8.595479	0.505456	-0.345947	-0.383055	-0.026338	-0.053358	0.112556	-0.536865	-0.031982	-0.457031	0.036191	0.015164	0.085962	-0.098429	-0.231738	-0.045402	-0.966720	8.538980	-26.047364	166.394107
49309		4.200551	1.420787	8.843673	0.137132	-0.130790	0.078617	-0.013025	-0.082085	0.126389	-0.523193	-0.033447	-0.447998	0.041960	0.014240	0.088453	-0.097863	-0.232201	-0.045152	-0.966678	8.501115	-26.109666	166.463908
49310		4.192234	1.461372	8.786532	0.120897	-0.182256	0.029352	-0.005142	-0.083355	0.120153	-0.522461	-0.027100	-0.448242	0.041877	0.014641	0.087882	-0.097319	-0.232682	-0.044945	-0.966627	8.469310	-26.173110	166.529602
49311		4.604227	1.252974	8.720477	-0.225051	0.098078	0.124882	0.006911	-0.074908	0.116021	-0.525146	-0.017578	-0.447021	0.046002	0.012553	0.087222	-0.096779	-0.233117	-0.044807	-0.966583	8.445260	-26.230403	166.593678
49312		4.642144	0.842707	8.499548	-0.282619	0.491819	-0.108038	0.011024	-0.078886	0.110719	-0.515137	-0.025635	-0.449463	0.046383	0.008448	0.085014	-0.096260	-0.233581	-0.044691	-0.966528	8.424990	-26.290472	166.653958
49313		4.135057	1.101041	8.733797	0.232397	0.139677	-0.090719	0.022706	-0.051458	0.101494	-0.511963	-0.024658	-0.441406	0.041323	0.011021	0.087350	-0.095766	-0.233908	-0.044658	-0.966500	8.412932	-26.333217	166.711147
49314		4.482141	1.080318	8.637964	-0.102763	0.224103	-0.024413	0.031316	-0.084649	0.100716	-0.520020	-0.016602	-0.447510	0.044779	0.010812	0.086400	-0.095274	-0.234407	-0.044648	-0.966428	8.407189	-26.395695	166.764648
49315		4.702139	1.139135	8.584775	-0.319861	0.206603	0.034196	0.033505	-0.064142	0.088225	-0.499268	-0.014160	-0.448975	0.046989	0.011398	0.085865	-0.094834	-0.234797	-0.044677	-0.966375	8.405458	-26.444507	166.812316
49316		4.626117	1.052763	8.523611	-0.260316	0.270168	-0.064844	0.018905	-0.056576	0.079965	-0.510254	-0.017578	-0.445068	0.046233	0.010538	0.085250	-0.094450	-0.235150	-0.044645	-0.966328	8.397169	-26.489338	166.855364
49317		4.539009	1.251167	8.502904	-0.220441	0.054781	-0.095908	0.019237	-0.030018	0.074445	-0.503174	-0.009033	-0.450928	0.045373	0.012520	0.085037	-0.094086	-0.235365	-0.044637	-0.966312	8.389652	-26.517645	166.897540
49318		5.110931	1.089348	8.112940	-0.868516	0.310225	-0.206568	0.020073	-0.041858	0.067907	-0.503418	-0.013916	-0.457764	0.051089	0.010903	0.081141	-0.093755	-0.235645	-0.044632	-0.966276	8.384762	-26.553127	166.934362
49319		4.921236	1.186967	8.558905	-0.508799	0.192943	0.116372	0.018048	0.002043	0.066821	-0.500000	-0.014893	-0.459717	0.049209	0.011878	0.085590	-0.093422	-0.235703	-0.044641	-0.966294	8.377338	-26.562616	166.974727
49320		4.421350	1.354142	8.510915	-0.119949	-0.075312	-0.127769	0.017426	-0.012702	0.066347	-0.506592	-0.004395	-0.466797	0.044204	0.013549	0.085113	-0.093096	-0.235840	-0.044639	-0.966292	8.370121	-26.581460	167.013301
49321		4.566255	1.462050	8.537248	-0.249451	-0.152391	-0.025582	0.019958	0.010841	0.072830	-0.501709	-0.006836	-0.470459	0.045662	0.014629	0.085371	-0.092730	-0.235858	-0.044655	-0.966322	8.361697	-26.586453	167.058307
49322		4.783531	1.128133	8.413076	-0.442983	0.210656	-0.081598	0.011457	0.009750	0.069149	-0.501465	0.007324	-0.476807	0.047836	0.011293	0.084129	-0.092392	-0.235885	-0.044631	-0.966349	8.349317	-26.592798	167.100759
49323		4.332329	1.231088	8.759003	0.093319	0.033097	0.035915	0.018132	0.046435	0.065227	-0.498291	-0.005859	-0.479248	0.043340	0.012317	0.087581	-0.092056	-0.235728	-0.044664	-0.966418	8.340522	-26.576967	167.144257
49324		4.089408	1.186242	8.765981	0.314475	0.027556	-0.072400	0.004463	0.004338	0.058518	-0.495850	-0.005859	-0.480957	0.040893	0.011872	0.087659	-0.091779	-0.235775	-0.044616	-0.966435	8.327376	-26.585491	167.179468
49325		4.715817	1.463280	8.443982	-0.423481	-0.135350	-0.041132	0.009950	0.003105	0.061826	-0.504883	0.001953	-0.484375	0.047155	0.014643	0.084440	-0.091480	-0.235823	-0.044593	-0.966453	8.316655	-26.593927	167.216787
49326		4.225081	1.236992	8.670578	0.147415	-0.003351	-0.089589	0.015194	-0.023045	0.072814	-0.501953	0.010254	-0.485107	0.042236	0.012379	0.086712	-0.091127	-0.236011	-0.044568	-0.966441	8.306716	-26.619149	167.258538
49327		4.679599	1.464606	8.648175	-0.289105	-0.140833	0.123671	0.013801	-0.058706	0.091254	-0.510254	0.007813	-0.488525	0.046764	0.014661	0.086496	-0.090694	-0.236365	-0.044501	-0.966398	8.292356	-26.665050	167.308825
49328		4.729415	1.087083	8.550227	-0.312619	0.230705	0.010985	0.016795	-0.055174	0.082564	-0.508545	0.006348	-0.495117	0.047266	0.010883	0.085516	-0.090299	-0.236711	-0.044457	-0.966353	8.281819	-26.709281	167.353836
49329		4.720468	0.976395	8.436116	-0.335330	0.329425	-0.107882	0.009554	-0.035517	0.062119	-0.511719	0.005859	-0.496094	0.047187	0.009775	0.084370	-0.090007	-0.236945	-0.044415	-0.966324	8.272290	-26.739614	167.387826
49330		4.600305	0.899685	8.474413	-0.196018	0.380771	-0.137746	0.018412	-0.041112	0.046797	-0.505615	0.009277	-0.498535	0.045984	0.009000	0.084754	-0.089780	-0.237216	-0.044427	-0.966279	8.272243	-26.772926	167.411465
49331		4.305818	1.147349	8.593485	0.084085	0.084598	-0.133316	0.015258	-0.052260	0.043391	-0.511719	0.008789	-0.498047	0.043033	0.011476	0.085947	-0.089576	-0.237529	-0.044427	-0.966221	8.271995	-26.811206	167.432036
49332		4.203885	1.393291	8.572894	0.132870	-0.178860	-0.165990	0.023765	-0.059534	0.069853	-0.508057	0.009277	-0.498291	0.042008	0.013937	0.085743	-0.089235	-0.237896	-0.044430	-0.966162	8.269124	-26.856868	167.468645
49333		4.379599	1.169588	8.556138	0.014085	0.071098	-0.130174	0.018867	-0.080110	0.080676	-0.510986	0.010498	-0.504150	0.043757	0.011705	0.085580	-0.088852	-0.238354	-0.044390	-0.966086	8.261348	-26.914008	167.510369
49334		4.460488	1.382952	8.350231	-0.175428	-0.134454	-0.247856	0.040213	-0.077676	0.107244	-0.517578	0.021484	-0.509033	0.044565	0.013837	0.083522	-0.088315	-0.238824	-0.044419	-0.966018	8.257800	-26.973025	167.569133
49335		4.409603	1.408447	8.476683	-0.065057	-0.166738	-0.156061	0.055037	-0.094153	0.143815	-0.515869	0.016357	-0.508057	0.044046	0.014093	0.084791	-0.087587	-0.239380	-0.044473	-0.965944	8.252984	-27.043316	167.649800
49336		4.319788	1.210694	8.520809	0.075991	0.009025	-0.183323	0.077573	-0.114751	0.166363	-0.513428	0.019775	-0.506836	0.043139	0.012110	0.085238	-0.086728	-0.240058	-0.044596	-0.965848	8.255094	-27.128218	167.742872
49337		4.539698	1.108831	8.327713	-0.174755	0.138937	-0.265997	0.107934	-0.171638	0.213109	-0.532227	0.021240	-0.507813	0.045314	0.011092	0.083322	-0.085619	-0.241025	-0.044788	-0.965697	8.263396	-27.248152	167.860665
49338		4.656488	1.454468	8.597566	-0.175765	-0.170159	0.069448	0.138950	-0.206352	0.275753	-0.523682	0.024902	-0.501709	0.046456	0.014549	0.086034	-0.084178	-0.242196	-0.045036	-0.965519	8.272100	-27.394026	168.015233
49339		4.051082	1.268047	8.578405	0.395221	-0.104247	-0.250203	0.155714	-0.270991	0.340404	-0.528809	0.020996	-0.510254	0.040373	0.012682	0.085849	-0.082419	-0.243690	-0.045262	-0.965284	8.273809	-27.580813	168.205439
49340		3.832015	1.277652	8.651375	0.652599	-0.155044	-0.288350	0.182434	-0.318000	0.413284	-0.533447	0.013672	-0.514893	0.038156	0.012777	0.086586	-0.080285	-0.245446	-0.045506	-0.965008	8.270207	-27.801334	168.438194
49341		4.660173	1.022277	8.575751	-0.027274	0.231626	-0.001917	0.219803	-0.399591	0.490374	-0.533203	0.016602	-0.510010	0.046405	0.010242	0.085862	-0.077751	-0.247617	-0.045805	-0.964646	8.267464	-28.073383	168.713457
49342		4.301666	1.186998	8.635517	0.335176	0.003377	-0.098114	0.305282	-0.364033	0.592249	-0.535645	0.017822	-0.512939	0.042824	0.011865	0.086451	-0.074611	-0.249678	-0.046401	-0.964335	8.279486	-28.334754	169.058162
49343		4.997933	0.078268	8.230348	-0.289090	1.184618	-0.260877	0.424637	-0.398105	0.741057	-0.547363	0.024658	-0.511719	0.049812	0.000793	0.082404	-0.070611	-0.251969	-0.047375	-0.963992	8.314032	-28.626806	169.496514
49344		4.674365	4.157461	8.658519	-0.195481	-2.870458	0.474480	0.458162	-0.444474	0.813768	-0.551758	0.037109	-0.503418	0.046382	0.041565	0.086784	-0.066228	-0.254516	-0.048399	-0.963583	8.344381	-28.952462	169.978543
49345		4.649357	-0.435080	8.890351	0.484046	1.664202	0.078725	0.301614	-0.583905	0.557111	-0.550781	0.032715	-0.510986	0.046246	-0.004356	0.089032	-0.063312	-0.257606	-0.048952	-0.962930	8.369575	-29.334926	170.282238
49346		3.910833	1.284614	8.982422	1.066427	-0.138851	0.009313	0.290904	-0.725777	0.447440	-0.564209	0.022461	-0.501709	0.038753	0.012802	0.089984	-0.060972	-0.261352	-0.049544	-0.962041	8.427978	-29.789872	170.501683
49347		4.495042	0.226707	8.860990	0.686632	0.981729	0.053314	0.277695	-0.904391	0.365647	-0.567139	0.027344	-0.502441	0.044545	0.002226	0.088815	-0.059085	-0.265918	-0.050128	-0.960877	8.512732	-30.338323	170.650664
49348		4.147230	1.147039	8.978546	1.064938	0.031929	0.086473	0.288081	-1.057805	0.315000	-0.582275	0.025635	-0.487549	0.040979	0.011406	0.090020	-0.057464	-0.271212	-0.050779	-0.959460	8.626698	-30.970613	170.750819
49349		4.284484	0.632141	8.746338	0.985829	0.545300	-0.118133	0.259623	-1.232064	0.264889	-0.577393	0.023438	-0.484375	0.042297	0.006264	0.087733	-0.056165	-0.277303	-0.051313	-0.957766	8.750517	-31.696418	170.799311
49350		4.715496	0.846977	8.531746	0.623393	0.376779	-0.055036	0.248834	-1.401428	0.209641	-0.592773	0.033203	-0.479004	0.046547	0.008412	0.085656	-0.055186	-0.284182	-0.051818	-0.955777	8.897109	-32.514339	170.791668
49351		4.411252	0.644989	8.662841	1.110879	0.544190	-0.148950	0.248913	-1.556381	0.170842	-0.605713	0.024170	-0.469238	0.043431	0.006379	0.086976	-0.054429	-0.291768	-0.052336	-0.953504	9.068903	-33.415474	170.738572
49352		4.854522	0.910846	8.157918	0.602464	0.305874	-0.300125	0.225848	-1.718862	0.139617	-0.619385	0.021729	-0.454834	0.047835	0.009050	0.082003	-0.053893	-0.300101	-0.052739	-0.950923	9.251903	-34.406486	170.642400
49353		5.678431	0.808087	7.484471	-0.276821	0.469521	-0.399124	0.187895	-1.872794	0.109857	-0.633301	0.024658	-0.443115	0.056076	0.008041	0.075380	-0.053591	-0.309115	-0.052963	-0.948035	9.439622	-35.480532	170.503122
49354		5.541307	1.520372	7.338511	-0.118206	-0.268251	-0.496976	0.152721	-2.018805	0.098114	-0.642334	0.024170	-0.425049	0.054661	0.015174	0.073951	-0.053434	-0.318786	-0.052991	-0.944835	9.627655	-36.636545	170.332224
49355		6.272985	1.428900	6.806743	-0.814704	-0.124051	-0.483109	0.114584	-2.244218	0.143676	-0.649414	0.014893	-0.414307	0.061950	0.014294	0.068774	-0.053175	-0.329479	-0.052704	-0.941190	9.798539	-37.922867	170.158969
49356		6.208185	1.811570	6.776843	-0.588925	-0.529745	-0.479032	0.078882	-2.443233	0.207722	-0.663574	0.012939	-0.389648	0.061229	0.018153	0.068527	-0.052718	-0.341078	-0.052078	-0.937109	9.943379	-39.328409	169.999268
49357		6.153159	1.745550	6.864750	-0.245513	-0.492305	-0.446521	0.030966	-2.709213	0.294996	-0.686279	0.012207	-0.365723	0.060568	0.017535	0.069475	-0.051995	-0.353868	-0.051005	-0.932455	10.049933	-40.891461	169.861869
49358		6.358443	1.662597	6.980562	-0.050456	-0.413541	-0.234474	-0.009089	-2.903657	0.406737	-0.698242	0.022705	-0.349609	0.062528	0.016757	0.070718	-0.050860	-0.367519	-0.049482	-0.927305	10.101490	-42.576246	169.776556
49359		6.478922	1.837334	6.730025	-0.037450	-0.632214	-0.313356	-0.033681	-3.023032	0.512696	-0.709473	0.030518	-0.325439	0.063715	0.018549	0.068266	-0.049298	-0.381652	-0.047613	-0.921762	10.098236	-44.337998	169.753640
49360		6.685942	1.629888	7.104659	0.392836	-0.440726	0.060385	-0.067889	-3.149614	0.633121	-0.715088	0.036133	-0.303467	0.065678	0.016532	0.072082	-0.047264	-0.396302	-0.045310	-0.915783	10.019009	-46.184212	169.810389
49361		6.616576	1.648911	7.174372	0.808341	-0.537291	0.037091	-0.135721	-3.303830	0.744483	-0.733154	0.039063	-0.270752	0.064907	0.016781	0.072812	-0.044876	-0.411550	-0.042431	-0.909292	9.842713	-48.127385	169.945131
49362		7.229589	1.242949	6.990762	0.626725	-0.157030	0.299382	-0.182952	-3.517880	0.864870	-0.740234	0.051270	-0.245850	0.070997	0.012803	0.071152	-0.042069	-0.427667	-0.039024	-0.902113	9.568176	-50.203659	170.169392
49363		7.429469	1.251558	7.224889	1.052768	-0.236171	0.569261	-0.219712	-3.730216	0.949026	-0.758545	0.051025	-0.206299	0.072870	0.012944	0.073603	-0.038989	-0.444592	-0.035217	-0.894191	9.210625	-52.406032	170.466502
49364		7.695326	1.771511	7.354697	1.376890	-0.831529	0.857132	-0.181343	-3.875758	0.990631	-0.768066	0.057129	-0.176025	0.075420	0.018159	0.075002	-0.035647	-0.462016	-0.031443	-0.885597	8.821454	-54.694172	170.821070
49365		8.370922	1.240061	7.444396	1.510661	-0.350719	1.350038	-0.133340	-3.946529	1.013785	-0.774414	0.072266	-0.136475	0.082154	0.012870	0.076067	-0.032089	-0.479570	-0.027806	-0.876476	8.400517	-57.021922	171.237596
49366		8.673970	1.534411	7.600728	1.919414	-0.731805	1.638277	-0.147128	-3.974792	0.999688	-0.777588	0.073730	-0.109619	0.085128	0.015829	0.077698	-0.028615	-0.497049	-0.024123	-0.866915	7.926326	-59.363527	171.696309
49367		9.870872	1.485476	9.647321	3.570543	-0.688398	3.583717	-0.064228	-3.848015	0.979921	-0.787598	0.090576	-0.067871	0.096754	0.015363	0.098343	-0.024995	-0.513778	-0.020860	-0.857305	7.430336	-61.628641	172.224132
49368		10.424455	2.441476	9.661120	3.808618	-1.725585	3.988063	-0.007869	-3.560402	0.902258	-0.796875	0.097900	-0.046143	0.102391	0.024883	0.098444	-0.021523	-0.529090	-0.018064	-0.848101	6.929875	-63.723104	172.782332
49369		10.795313	0.370388	7.581598	2.285229	0.254855	3.181616	0.288096	-3.421383	0.758435	-0.800537	0.101074	-0.005371	0.106620	0.003999	0.077653	-0.017859	-0.543654	-0.016915	-0.838949	6.676990	-65.726222	173.244791
49370		10.897352	2.336026	10.200384	5.070118	-1.727308	4.313410	0.562853	-3.213783	0.643509	-0.797607	0.106201	0.028564	0.107240	0.023417	0.103802	-0.013906	-0.557206	-0.017241	-0.830079	6.649697	-67.603692	173.625801
49371		9.700364	0.591455	8.141665	4.044430	-0.085452	2.202146	0.556271	-3.031971	0.650418	-0.788574	0.101563	0.054443	0.095735	0.005998	0.082891	-0.009925	-0.569853	-0.017532	-0.821500	6.540121	-69.377328	174.086432
49372		10.367263	0.994785	7.338151	3.438689	-0.502823	2.444034	0.629243	-3.099195	0.686847	-0.797119	0.117188	0.072021	0.102484	0.010067	0.075007	-0.005588	-0.582640	-0.018009	-0.812512	6.371112	-71.191621	174.649030
49373		11.345015	4.699893	10.698718	6.767310	-4.125301	4.414964	0.487585	-2.909076	0.684214	-0.796631	0.125000	0.112305	0.111716	0.047119	0.108735	-0.001657	-0.594503	-0.017921	-0.803892	6.008019	-72.896118	175.324624
49374		11.958299	4.561887	9.394486	5.738857	-4.066501	4.420493	-0.013444	-2.450354	0.782331	-0.791016	0.132813	0.128174	0.118240	0.046090	0.095396	0.001221	-0.604411	-0.015526	-0.796520	4.943521	-74.341897	176.426230
49375		8.558276	4.945951	9.264871	6.816344	-4.601953	0.952891	-0.275046	-1.861756	0.766560	-0.788086	0.138916	0.149902	0.084525	0.049913	0.093370	0.003290	-0.611892	-0.012133	-0.790841	3.458849	-75.443189	177.801038
49376		12.246295	-1.708030	8.113422	4.878804	1.947776	4.011637	-0.494874	-1.924449	0.787826	-0.785400	0.142090	0.167969	0.121740	-0.016397	0.082349	0.004767	-0.619559	-0.007805	-0.784897	1.565468	-76.569877	179.460304
49377		15.211020	5.241473	23.651605	19.715703	-4.811330	10.345970	0.038741	-1.510542	0.527546	-0.781006	0.145508	0.176514	0.150179	0.052767	0.237665	0.006892	-0.625522	-0.006367	-0.780150	0.346109	-77.445607	-179.265272
49378		8.171655	7.354473	17.421644	15.399800	-7.050833	1.913720	0.102508	-0.530507	0.190359	-0.781250	0.149414	0.179443	0.081184	0.073533	0.174470	0.007931	-0.627624	-0.006199	-0.778451	-0.082062	-77.754606	-178.766382
49379		4.418821	7.182273	13.365309	12.254113	-6.962531	-2.664110	-0.347184	0.010223	0.007241	-0.776611	0.146973	0.185303	0.044192	0.072056	0.133526	0.006863	-0.627633	-0.004834	-0.778464	-0.294365	-77.754038	-178.752401
49380		2.661974	4.850172	10.303526	9.562426	-4.725542	-5.016683	-0.614904	0.296371	-0.142373	-0.776611	0.144531	0.177979	0.026807	0.048799	0.102846	0.004379	-0.626522	-0.002889	-0.779386	-0.262468	-77.588878	-179.145153
49381		1.346146	2.412082	8.167742	7.697650	-2.356948	-6.725153	-0.584953	0.475826	-0.259123	-0.771484	0.135986	0.172607	0.013687	0.024342	0.081574	0.001537	-0.624708	-0.001419	-0.780855	0.077144	-77.321787	-179.836131
49382		0.395950	0.682327	7.121470	6.856687	-0.663101	-7.841995	-0.300114	0.588010	-0.327841	-0.784180	0.140137	0.166016	0.004180	0.006923	0.071192	-0.000684	-0.622435	-0.001280	-0.782670	0.726298	-76.987445	179.322307
49383		-0.231271	-0.049052	6.741620	6.616275	0.058614	-8.498671	0.080829	0.656795	-0.344307	-0.782471	0.132568	0.160645	-0.002092	-0.000514	0.067423	-0.001782	-0.619895	-0.002678	-0.784679	1.586914	-76.612488	178.486199
49384		-0.268549	-0.099510	7.143643	7.006434	0.127215	-8.395978	0.427728	0.722761	-0.295089	-0.775879	0.129639	0.146729	-0.002429	-0.001144	0.071443	-0.001612	-0.617077	-0.005290	-0.786883	2.477701	-76.196191	177.822516
49385		0.648551	0.515353	8.396343	7.991347	-0.426815	-7.140566	0.676493	0.873482	-0.208423	-0.780762	0.129883	0.135010	0.006857	0.004863	0.083951	-0.000328	-0.613667	-0.008610	-0.789518	3.247954	-75.695614	177.428354
49386		2.090582	1.811078	10.289695	9.451907	-1.611433	-5.166042	0.751721	1.164193	-0.104622	-0.781494	0.129150	0.111328	0.021514	0.017713	0.102840	0.001607	-0.609076	-0.011913	-0.793020	3.759300	-75.029373	177.345688
49387		3.326597	2.845257	11.910343	10.651998	-2.514839	-3.392038	0.676323	1.630052	-0.025003	-0.779053	0.126221	0.090576	0.034239	0.028046	0.118922	0.003658	-0.602619	-0.014666	-0.797886	3.976245	-74.101790	177.522923
49388		3.973407	3.758735	12.740456	11.178385	-3.321274	-2.313300	0.525109	2.199561	-0.008243	-0.777588	0.132080	0.062988	0.041134	0.037252	0.127055	0.005359	-0.593816	-0.016759	-0.804409	4.004587	-72.847037	177.807949
49389		3.551610	3.995646	12.309730	10.731305	-3.519825	-2.563705	0.347359	2.789414	-0.068378	-0.769043	0.130371	0.040283	0.037242	0.039731	0.122655	0.006341	-0.582561	-0.018291	-0.812557	3.985578	-71.255175	178.037422
49390		2.489489	3.812839	10.829359	9.476514	-3.365561	-3.740807	0.219972	3.248277	-0.195209	-0.763916	0.129395	0.006104	0.026687	0.037984	0.107912	0.006476	-0.569279	-0.019663	-0.821884	4.064755	-69.393112	178.088107
49391		1.566802	3.082416	9.067404	7.949795	-2.689632	-4.941215	0.175798	3.524845	-0.357456	-0.763428	0.120605	-0.023438	0.017318	0.030715	0.090406	0.005845	-0.554703	-0.021294	-0.831755	4.312913	-67.369155	177.929856
49392		1.028267	2.315590	7.805471	6.808402	-1.957514	-5.671316	0.253016	3.644733	-0.555799	-0.752197	0.126953	-0.055908	0.011767	0.023026	0.077878	0.004613	-0.539400	-0.023794	-0.841701	4.808792	-65.264090	177.547826
49393		1.099946	1.694123	7.439631	6.273885	-1.315280	-5.531395	0.428325	3.655781	-0.759860	-0.744385	0.116455	-0.096191	0.012421	0.016737	0.074214	0.002996	-0.523859	-0.027565	-0.851354	5.563351	-63.143849	176.982769
49394		2.038628	1.573190	8.206151	6.349234	-1.072958	-4.111916	0.640801	3.657218	-0.942059	-0.729736	0.110840	-0.126221	0.021956	0.015369	0.081719	0.001158	-0.508069	-0.032717	-0.860694	6.531847	-61.004775	176.303521
49395		3.493233	1.815068	9.644298	6.662083	-1.085991	-1.879679	0.816244	3.728613	-1.105817	-0.715088	0.099121	-0.152100	0.036821	0.017559	0.095841	-0.000927	-0.491778	-0.039017	-0.869845	7.633543	-58.811693	175.571267
49396		4.797097	2.005972	10.829782	6.671335	-0.998381	0.126920	0.937569	3.873350	-1.250129	-0.699707	0.074951	-0.185059	0.050179	0.019246	0.107432	-0.003314	-0.474598	-0.046195	-0.878984	8.794388	-56.514048	174.834629
49397		5.486043	1.983697	11.063530	6.076042	-0.741117	1.093321	1.018709	4.020977	-1.374050	-0.683838	0.067871	-0.221191	0.057203	0.018889	0.109599	-0.006015	-0.456554	-0.053994	-0.888035	9.961419	-54.117709	174.125821
49398		5.749196	1.968774	10.671227	5.156085	-0.544609	1.318246	1.061235	4.071181	-1.464305	-0.665771	0.058838	-0.249023	0.059789	0.018693	0.105612	-0.009006	-0.438011	-0.062174	-0.896772	11.100511	-51.671866	173.461540
49399		6.085587	1.972811	10.284747	4.188986	-0.357223	1.545282	1.069445	3.992713	-1.514125	-0.650391	0.040771	-0.268799	0.063038	0.018710	0.101705	-0.012220	-0.419622	-0.070455	-0.904878	12.186498	-49.261129	172.848565
49400		7.084019	2.407726	10.593484	3.320967	-0.454051	2.714958	1.034227	3.847624	-1.520006	-0.636230	0.015381	-0.293213	0.073039	0.022984	0.104664	-0.015583	-0.401655	-0.078558	-0.912282	13.189894	-46.919677	172.298109
49401		8.392581	3.360650	11.095320	2.329946	-0.983476	4.273158	0.902819	3.708731	-1.498909	-0.623291	-0.004883	-0.293213	0.086212	0.032470	0.109517	-0.019159	-0.384178	-0.085964	-0.919049	14.053563	-44.657102	171.815424
49402		10.647746	5.046709	12.654222	1.321217	-1.959593	7.314763	0.637043	3.588504	-1.442846	-0.623535	-0.018066	-0.315186	0.109085	0.049287	0.124759	-0.023034	-0.367062	-0.092004	-0.925349	14.697899	-42.460488	171.411606
49403		21.008096	7.671781	17.533508	-3.651074	-2.473188	18.260197	-0.316127	3.425237	-1.004468	-0.604980	-0.028320	-0.329834	0.213424	0.075925	0.171578	-0.026695	-0.350700	-0.092770	-0.931499	14.573068	-40.421060	171.326957
49404		17.796763	-1.419823	13.244561	-5.126407	5.428054	11.124138	-0.909249	4.021983	-0.376271	-0.601807	-0.031250	-0.351318	0.180557	-0.013945	0.128896	-0.028185	-0.331603	-0.089727	-0.938719	13.764554	-38.134317	171.782607
49405		12.125427	0.274896	9.253703	-3.953198	2.467728	4.712391	-0.607357	4.365950	-0.558372	-0.590088	-0.046143	-0.382080	0.123243	0.002682	0.089853	-0.029860	-0.310738	-0.088400	-0.945905	13.214138	-35.632061	172.120175
49406		10.206084	1.046456	7.524824	-4.006733	1.270800	2.195200	0.251190	4.105231	-0.939422	-0.574951	-0.052734	-0.416992	0.103624	0.009887	0.073144	-0.032106	-0.290885	-0.091653	-0.951817	13.349155	-33.219798	172.137583
49407		10.896409	3.760871	8.496598	-4.573684	-1.016877	3.718224	0.887211	3.939224	-1.394909	-0.577393	-0.065186	-0.449463	0.110868	0.036469	0.082958	-0.035655	-0.271619	-0.098519	-0.956685	14.011247	-30.842667	171.848415
49408		11.495472	6.472062	10.347920	-4.732554	-3.028840	5.982867	0.967738	3.854008	-1.833829	-0.557861	-0.087646	-0.486084	0.117508	0.063156	0.101539	-0.041220	-0.252398	-0.106313	-0.960882	14.834069	-28.443084	171.307905
49409		12.196478	6.920322	11.086577	-5.648799	-2.927514	6.891422	0.573099	3.787325	-2.145976	-0.536133	-0.103027	-0.516357	0.124768	0.067561	0.108716	-0.048798	-0.233164	-0.112532	-0.964671	15.482927	-26.031863	170.608532
49410		12.514793	4.959380	11.233820	-6.463784	-0.654501	6.470911	0.095404	3.791940	-2.264406	-0.513184	-0.116455	-0.544922	0.127798	0.048104	0.109955	-0.057479	-0.213579	-0.116541	-0.968245	15.845949	-23.590442	169.876067
49411		12.183033	2.776159	10.710064	-6.892374	1.546533	5.050012	-0.241008	3.820984	-2.269143	-0.485107	-0.124756	-0.582764	0.124152	0.026489	0.104711	-0.066495	-0.193682	-0.118868	-0.971564	15.976687	-21.133362	169.170329
49412		11.719160	0.938277	9.951026	-7.172465	3.285197	3.414982	-0.387319	3.809132	-2.157569	-0.456787	-0.135498	-0.597900	0.119151	0.008294	0.097236	-0.075087	-0.173734	-0.120323	-0.974526	15.969401	-18.696050	168.542679
49413		11.199743	0.455862	8.622711	-7.584735	3.540122	1.584959	-0.422462	3.710968	-1.915092	-0.437256	-0.147217	-0.624512	0.113609	0.003655	0.084121	-0.082551	-0.154349	-0.121296	-0.977062	15.877432	-16.355121	168.045203
49414		10.884398	0.186367	1.791889	-9.729365	2.390556	-5.194093	-1.063179	2.779770	-1.197157	-0.406006	-0.152100	-0.631592	0.109088	0.001301	0.016396	-0.087539	-0.139600	-0.118164	-0.979227	15.333875	-14.638080	167.801970
49415		14.636390	-2.233787	3.621962	-12.545835	5.867225	-3.448639	-1.280772	2.363425	-0.503534	-0.391602	-0.151855	-0.644531	0.146723	-0.022482	0.034631	-0.089509	-0.127202	-0.113268	-0.981314	14.583328	-13.260174	167.872340
49416		17.321842	-4.786328	6.488919	-14.146103	9.398077	-1.059861	-0.728457	2.345609	-0.235793	-0.384033	-0.133545	-0.655029	0.173908	-0.047836	0.063027	-0.089810	-0.115244	-0.110890	-0.983034	14.121773	-11.926720	168.077374
49417		16.345923	-0.690760	5.916651	-14.204242	5.119957	-1.170788	0.042974	2.534046	-0.139726	-0.369141	-0.137451	-0.662354	0.164186	-0.007035	0.057088	-0.089075	-0.102767	-0.112310	-0.984323	14.092386	-10.503934	168.356497
49418		13.897164	2.302023	2.608925	-13.218548	1.056378	-4.392191	0.402947	2.418406	0.009281	-0.351807	-0.146484	-0.665527	0.139273	0.022976	0.024453	-0.087473	-0.091067	-0.115359	-0.985265	14.264271	-9.164511	168.703943
49419		12.890863	3.262066	0.049547	-12.986707	-0.655468	-7.032614	0.549731	2.012250	0.119735	-0.341064	-0.153564	-0.673584	0.128886	0.032699	-0.000712	-0.085482	-0.081504	-0.118885	-0.985858	14.526402	-8.069660	169.058560
49420		12.137251	2.757820	-2.628869	-12.681922	-0.977358	-10.014754	0.747978	1.420447	0.151741	-0.324219	-0.150635	-0.673828	0.121161	0.027770	-0.027046	-0.083598	-0.074940	-0.123116	-0.986021	14.916468	-7.307882	169.349762
49421		11.726403	2.050689	-4.671622	-12.510607	-0.923414	-12.296491	0.981490	0.651852	0.107162	-0.326416	-0.158691	-0.671143	0.117100	0.020800	-0.046996	-0.082315	-0.072246	-0.128184	-0.985684	15.459746	-6.968328	169.505544
49422		14.143027	1.069699	-3.066848	-14.460880	0.781479	-10.733077	1.318598	-0.040352	0.002638	-0.324219	-0.168945	-0.669922	0.141436	0.010901	-0.030569	-0.081866	-0.073024	-0.134665	-0.984800	16.216751	-6.994753	169.498166
49423		19.886708	1.075239	2.807052	-19.082352	3.337485	-4.405202	1.737551	-0.176723	-0.220140	-0.330078	-0.185547	-0.675781	0.198854	0.010288	0.028337	-0.082447	-0.074498	-0.143223	-0.983433	17.231387	-7.060157	169.344425
49424		22.845496	3.242550	6.308144	-21.668565	2.928373	-0.111275	1.824752	0.342385	-0.436780	-0.331787	-0.197266	-0.669678	0.228632	0.031351	0.062979	-0.083683	-0.073293	-0.152496	-0.982024	18.299563	-6.801435	169.161919
49425		15.523613	8.619457	1.651941	-16.099410	-4.677990	-3.735591	1.046056	0.512972	-0.451018	-0.318604	-0.199219	-0.673096	0.155472	0.085758	0.016570	-0.085138	-0.070911	-0.158008	-0.981202	18.917066	-6.445069	169.006958
49426		9.585057	6.358926	-15.662923	-12.947603	-8.658785	-21.432181	-1.622635	-1.259862	-0.027379	-0.333008	-0.191406	-0.665039	0.096845	0.062306	-0.156530	-0.086855	-0.076425	-0.149516	-0.981968	18.017520	-7.130034	168.758838
49427		10.260964	-13.122568	-18.347455	-11.478962	9.498665	-29.613087	-2.291434	-2.943251	0.352941	-0.355713	-0.173584	-0.659180	0.105514	-0.133120	-0.180418	-0.088200	-0.090175	-0.136826	-0.982531	16.748696	-8.804454	168.442259
49428		7.223889	-2.998583	11.719032	-3.992802	7.203098	1.618363	-0.573698	-3.032314	-0.215574	-0.364746	-0.168945	-0.642090	0.070418	-0.029724	0.118353	-0.091597	-0.104714	-0.132755	-0.981336	16.525780	-10.439668	167.814883
49429		3.464834	16.798897	22.787499	-0.500303	-9.824871	16.958329	-0.829991	-2.167105	-0.881439	-0.375244	-0.160156	-0.631836	0.032924	0.168786	0.227539	-0.097803	-0.114418	-0.128141	-0.980267	16.212709	-11.493429	166.962211
49430		-6.196329	3.716275	2.459440	5.911256	-4.395399	-7.816001	-1.785339	-2.537578	-0.503354	-0.389893	-0.151611	-0.623535	-0.062172	0.037532	0.023472	-0.102920	-0.125701	-0.118426	-0.979582	15.336309	-12.820215	166.271172
49431		-2.323987	-10.319365	4.992470	5.421135	10.254730	-8.308378	-0.803544	-3.187423	-0.476231	-0.404053	-0.140137	-0.606445	-0.024281	-0.102936	0.049957	-0.107646	-0.140644	-0.113132	-0.977667	15.057237	-14.515904	165.504928
49432		6.921984	-6.249801	16.947706	-0.006861	10.789495	6.242060	-0.445190	-3.116968	-0.366340	-0.420898	-0.140869	-0.596191	0.066452	-0.062242	0.170666	-0.111514	-0.155469	-0.109525	-0.975397	14.986536	-16.192197	164.811900
49433		9.209524	-14.562333	13.221650	-1.342860	18.465404	1.540507	-0.588779	-2.911335	0.564361	-0.442139	-0.132813	-0.588379	0.090563	-0.144974	0.133970	-0.110816	-0.169674	-0.104578	-0.973650	14.685326	-17.892268	164.689494
49434		11.044618	-4.559391	14.727367	-3.894488	9.485820	6.140314	-0.087695	-2.818652	1.067781	-0.449707	-0.123535	-0.573242	0.108597	-0.044946	0.148833	-0.107167	-0.183940	-0.101668	-0.971774	14.573663	-19.615444	164.881126
49435		11.638634	9.487348	13.457782	-6.860731	-4.172044	8.682732	-0.218412	-2.645440	0.765872	-0.470947	-0.115479	-0.562012	0.114229	0.095462	0.135994	-0.104996	-0.197092	-0.098475	-0.969759	14.432885	-21.197590	164.926755
49436		11.174875	12.299698	15.469490	-5.637463	-6.880210	11.075759	-0.863132	-2.595138	0.209289	-0.481934	-0.099365	-0.541016	0.109604	0.123783	0.155593	-0.106113	-0.209363	-0.092708	-0.967632	14.039950	-22.674666	164.655077
49437		19.340995	0.253445	15.907568	-10.277963	6.467910	12.089077	-1.672052	-2.154501	0.162973	-0.500977	-0.102295	-0.535400	0.191679	0.004032	0.161117	-0.108077	-0.219000	-0.083296	-0.966137	13.169127	-23.901286	164.435166
49438		8.970420	-4.307468	11.164012	-2.134158	7.549199	2.919441	-0.929832	-1.484226	0.155947	-0.513428	-0.094238	-0.528809	0.088905	-0.042483	0.112500	-0.108969	-0.225783	-0.077826	-0.964931	12.684377	-24.756895	164.319175
49439		7.007320	0.664452	10.817981	-1.285836	2.119313	2.853239	-0.730540	-1.079587	0.098410	-0.517090	-0.086914	-0.518311	0.069485	0.007075	0.108531	-0.109749	-0.230671	-0.073600	-0.964017	12.304006	-25.377913	164.229676
49440		7.539627	2.071818	9.464654	-2.520297	0.673602	2.183615	-0.652982	-0.839274	0.119701	-0.532227	-0.069092	-0.517090	0.074986	0.021073	0.094893	-0.110245	-0.234460	-0.069848	-0.963325	11.947347	-25.869418	164.189332
49441		5.759036	4.017730	8.590373	-1.680453	-1.792654	1.006977	-0.606430	-0.448247	0.176233	-0.531738	-0.073730	-0.507568	0.057362	0.040488	0.085910	-0.110275	-0.236388	-0.066472	-0.963089	11.578575	-26.146376	164.238578
49442		5.061291	3.392295	8.917196	-0.788987	-1.402553	0.866764	-0.567985	-0.261416	0.210685	-0.540039	-0.071533	-0.511475	0.050460	0.034229	0.089141	-0.110030	-0.237465	-0.063339	-0.963064	11.210652	-26.324138	164.334861
49443		5.634996	2.085002	9.048498	-0.979553	-0.051452	1.004581	-0.464163	-0.057575	0.245014	-0.543945	-0.062988	-0.500732	0.056298	0.021129	0.090452	-0.109432	-0.237607	-0.060781	-0.963262	10.880932	-26.388380	164.479146
49444		5.464060	1.232138	8.722393	-0.837943	0.660503	0.498261	-0.393625	0.049726	0.251710	-0.547607	-0.055664	-0.497803	0.054647	0.012562	0.087186	-0.108684	-0.237291	-0.058609	-0.963559	10.583718	-26.394394	164.640647
49445		5.175469	1.089653	8.899040	-0.495531	0.697700	0.503961	-0.334020	0.128091	0.247901	-0.552490	-0.059570	-0.492676	0.051798	0.011109	0.088939	-0.107860	-0.236608	-0.056775	-0.963929	10.317814	-26.352976	164.809044
49446		5.101516	0.489971	8.475440	-0.539205	1.201913	0.003788	-0.278883	0.126205	0.199426	-0.551758	-0.035645	-0.488525	0.051064	0.005069	0.084715	-0.107204	-0.235969	-0.055258	-0.964247	10.097225	-26.309275	164.946275
49447		4.665192	0.488240	8.767648	-0.042103	1.091497	0.070674	-0.219694	0.141265	0.139242	-0.547607	-0.049561	-0.485107	0.046710	0.005011	0.087638	-0.106765	-0.235252	-0.054110	-0.964536	9.926920	-26.248447	165.047264
49448		4.388843	0.909793	8.161793	-0.174677	0.564498	-0.519931	-0.188878	0.094174	0.111899	-0.547852	-0.035645	-0.486084	0.043922	0.009200	0.081589	-0.106433	-0.234790	-0.053113	-0.964741	9.784134	-26.213523	165.125496
49449		3.862486	1.942316	7.448295	-0.243375	-0.617282	-1.226176	-0.214058	0.012664	0.131063	-0.552490	-0.045166	-0.478516	0.038617	0.019528	0.074460	-0.106061	-0.234694	-0.051933	-0.964869	9.625729	-26.224049	165.207073
49450		3.541688	1.616153	8.234251	0.457975	-0.357140	-0.723075	-0.223506	-0.063690	0.149821	-0.555420	-0.028076	-0.466553	0.035378	0.016280	0.082336	-0.105628	-0.234985	-0.050640	-0.964915	9.459994	-26.281558	165.292268
49451		4.464746	0.996727	8.727087	0.002551	0.454243	0.030232	-0.191520	-0.104336	0.144383	-0.540283	-0.031982	-0.467529	0.044595	0.010083	0.087285	-0.105195	-0.235468	-0.049491	-0.964904	9.315997	-26.359062	165.370181
49452		4.172226	1.614197	8.906538	0.234905	-0.227675	0.148862	-0.160020	-0.068963	0.135994	-0.550049	-0.023438	-0.470215	0.041681	0.016242	0.089067	-0.104755	-0.235813	-0.048518	-0.964917	9.190381	-26.417887	165.446524
49453		3.906432	1.664681	8.823698	0.424255	-0.361270	-0.036263	-0.146171	-0.104297	0.145531	-0.549316	-0.026367	-0.457275	0.039006	0.016740	0.088245	-0.104262	-0.236319	-0.047586	-0.964893	9.071663	-26.495159	165.525646
49454		5.038258	1.670626	8.685857	-0.613309	-0.140620	0.347193	-0.127975	-0.092832	0.156818	-0.537354	-0.020996	-0.450195	0.050329	0.016801	0.086871	-0.103690	-0.236800	-0.046730	-0.964878	8.959266	-26.569061	165.613125
49455		4.778358	1.327021	8.799455	-0.266518	0.122914	0.283745	-0.083862	-0.075833	0.137393	-0.538330	-0.018311	-0.451172	0.047741	0.013340	0.088007	-0.103156	-0.237199	-0.046124	-0.964867	8.876925	-26.629235	165.690342
49456		5.253660	1.117409	8.627237	-0.714334	0.412480	0.316397	-0.024528	-0.062745	0.127155	-0.538086	-0.007568	-0.454346	0.052502	0.011218	0.086287	-0.102597	-0.237582	-0.045818	-0.964847	8.830582	-26.683294	165.762322
49457		5.168834	1.229096	8.779159	-0.584151	0.283396	0.428387	0.006200	-0.027157	0.099903	-0.537109	-0.005127	-0.448242	0.051670	0.012314	0.087799	-0.102126	-0.237783	-0.045715	-0.964852	8.808166	-26.712496	165.820749
49458		4.923102	1.177578	8.651425	-0.419174	0.270770	0.198394	0.013661	0.001890	0.073540	-0.526855	-0.007324	-0.448975	0.049228	0.011788	0.086515	-0.101765	-0.237861	-0.045690	-0.964872	8.796003	-26.725242	165.865183
49459		4.320668	0.947624	8.949592	0.281469	0.374312	0.159374	0.015060	0.043448	0.041318	-0.519287	-0.008301	-0.444092	0.043224	0.009478	0.089487	-0.101550	-0.237713	-0.045735	-0.964929	8.792218	-26.709312	165.893421
49460		4.138704	1.459385	8.676625	0.220421	-0.175171	-0.093468	0.017372	0.029452	0.039049	-0.512451	-0.004150	-0.443604	0.041397	0.014594	0.086761	-0.101345	-0.237653	-0.045783	-0.964963	8.790783	-26.703436	165.918700
49461		4.117938	1.873885	8.699254	0.175492	-0.582909	-0.026202	0.018523	0.035608	0.049838	-0.505371	0.003662	-0.449951	0.041190	0.018741	0.086987	-0.101086	-0.237546	-0.045831	-0.965015	8.786912	-26.692689	165.951564
49462		4.776535	1.540096	8.576599	-0.397303	-0.120893	0.115694	-0.008849	0.052038	0.053043	-0.516113	0.008057	-0.453125	0.047784	0.015417	0.085753	-0.100840	-0.237366	-0.045747	-0.965089	8.765506	-26.675232	165.987912
49463		5.485085	1.595962	8.424108	-1.098331	-0.031065	0.306183	-0.017766	0.083752	0.051616	-0.497314	0.008301	-0.458496	0.054882	0.015981	0.084217	-0.100604	-0.237009	-0.045642	-0.965206	8.738261	-26.637358	166.026579
49464		4.482539	1.262028	8.319687	-0.228695	0.071014	-0.281386	-0.038769	0.120640	0.035766	-0.506592	0.010254	-0.461182	0.044873	0.012644	0.083167	-0.100461	-0.236480	-0.045469	-0.965359	8.701703	-26.579559	166.058597
49465		4.094382	1.175168	8.608296	0.246639	0.080353	-0.211623	-0.053235	0.114818	0.031250	-0.504395	0.003662	-0.474854	0.040991	0.011781	0.086056	-0.100358	-0.235950	-0.045232	-0.965510	8.658661	-26.522285	166.087282
49466		3.996645	1.478809	8.521505	0.228206	-0.243525	-0.290886	-0.039676	0.121283	0.016775	-0.490479	0.011475	-0.475586	0.040017	0.014808	0.085188	-0.100308	-0.235413	-0.045077	-0.965654	8.627023	-26.462454	166.107224
49467		3.206765	0.963649	8.806117	1.126426	0.098482	-0.459553	-0.035472	0.078790	0.022973	-0.498535	0.019287	-0.479980	0.032101	0.009656	0.088047	-0.100232	-0.235064	-0.044919	-0.965754	8.598121	-26.424850	166.127119
49468		3.712709	1.618103	8.754960	0.544893	-0.438135	-0.191725	-0.055782	0.042612	0.056803	-0.501709	0.014160	-0.486572	0.037141	0.016216	0.087537	-0.100025	-0.234907	-0.044599	-0.965828	8.549385	-26.412956	166.164791
49469		4.437260	1.383735	8.564553	-0.136375	-0.069343	-0.069374	-0.075317	0.026540	0.066107	-0.497803	0.017090	-0.480957	0.044379	0.013884	0.085634	-0.099800	-0.234800	-0.044171	-0.965897	8.487761	-26.408590	166.206948
49470		3.828219	1.518895	8.695074	0.427836	-0.335317	-0.206901	-0.075015	0.029748	0.070421	-0.505615	0.027588	-0.496094	0.038290	0.015235	0.086939	-0.099552	-0.234699	-0.043736	-0.965967	8.424741	-26.405056	166.251991
49471		4.376128	1.631542	8.498824	-0.161245	-0.345727	-0.122646	-0.079337	0.013691	0.087647	-0.501465	0.020508	-0.499268	0.043760	0.016368	0.084979	-0.099231	-0.234657	-0.043257	-0.966032	8.355293	-26.409690	166.306569
49472		3.908666	1.249466	8.354574	0.243027	-0.086450	-0.508323	-0.057932	0.021257	0.089487	-0.501465	0.030762	-0.505371	0.039090	0.012536	0.083538	-0.098873	-0.234608	-0.042878	-0.966098	8.297058	-26.412452	166.362879
49473		3.551251	0.901877	8.880747	0.854548	0.189342	-0.245748	-0.042784	0.023560	0.093991	-0.509766	0.024902	-0.510742	0.035519	0.009054	0.088801	-0.098475	-0.234538	-0.042573	-0.966169	8.246352	-26.411912	166.422395
49474		4.288381	1.064023	8.810802	0.153460	0.176676	0.041136	-0.018783	-0.017090	0.100240	-0.513916	0.031494	-0.507324	0.042871	0.010670	0.088111	-0.098028	-0.234696	-0.042352	-0.966186	8.209049	-26.437190	166.482021
49475		4.232250	0.984295	8.685689	0.160756	0.232244	-0.104846	-0.018794	-0.024668	0.088108	-0.516602	0.026123	-0.517334	0.042307	0.009870	0.086861	-0.097641	-0.234869	-0.042146	-0.966192	8.175663	-26.463447	166.533430
49476		4.887687	1.032440	8.640397	-0.434888	0.314130	0.153459	-0.009966	-0.036468	0.092191	-0.518311	0.034424	-0.515869	0.048856	0.010351	0.086412	-0.097226	-0.235123	-0.041967	-0.966180	8.146372	-26.498996	166.586264
49477		5.245251	1.067359	8.509170	-0.809547	0.343852	0.201517	-0.003651	-0.011234	0.092248	-0.527588	0.043945	-0.521973	0.052443	0.010699	0.085094	-0.096798	-0.235240	-0.041836	-0.966200	8.119877	-26.517922	166.641571
49478		4.966931	1.164114	8.318045	-0.669961	0.179406	-0.079527	-0.007281	-0.001159	0.094953	-0.521484	0.038818	-0.522705	0.049663	0.011668	0.083180	-0.096359	-0.235325	-0.041684	-0.966229	8.089841	-26.533660	166.699405
49479		4.456946	1.240837	8.470060	-0.168677	-0.000350	-0.162946	-0.011226	0.028015	0.092619	-0.533447	0.024902	-0.523682	0.044576	0.012434	0.084694	-0.095930	-0.235248	-0.041534	-0.966297	8.057288	-26.530299	166.758510
49480		3.797977	1.282010	8.824800	0.560572	-0.167481	-0.137824	-0.006506	0.043763	0.092209	-0.529541	0.033936	-0.529541	0.037993	0.012840	0.088239	-0.095494	-0.235117	-0.041411	-0.966378	8.026663	-26.520303	166.818647
49481		3.298021	1.397879	8.672085	0.905827	-0.391757	-0.481982	0.001204	-0.002295	0.102107	-0.540283	0.034424	-0.524902	0.032972	0.013995	0.086721	-0.095011	-0.235194	-0.041296	-0.966412	7.999760	-26.534841	166.881057
49482		3.173306	1.709670	8.786269	1.021774	-0.721450	-0.398504	0.032877	-0.066448	0.128732	-0.540771	0.035889	-0.531494	0.031693	0.017103	0.087876	-0.094375	-0.235621	-0.041267	-0.966371	7.985691	-26.590201	166.954560
49483		3.982104	1.159782	8.656961	0.359317	-0.028158	-0.220227	0.046583	-0.145708	0.147336	-0.537354	0.030762	-0.528076	0.039749	0.011607	0.086601	-0.093649	-0.236422	-0.041250	-0.966247	7.977497	-26.689680	167.032987
49484		3.884838	1.400085	8.796661	0.487762	-0.281957	-0.111346	0.065946	-0.163144	0.153737	-0.548340	0.032959	-0.538574	0.038766	0.014002	0.088003	-0.092873	-0.237336	-0.041306	-0.966095	7.978834	-26.801839	167.113905
49485		4.087311	0.976397	8.637695	0.326696	0.163772	-0.213957	0.080460	-0.230348	0.181836	-0.554443	0.035156	-0.531738	0.040765	0.009766	0.086428	-0.091958	-0.238568	-0.041372	-0.965876	7.983178	-26.952088	167.206894
49486		3.820653	1.361724	8.641777	0.527254	-0.269636	-0.284769	0.129119	-0.274257	0.221869	-0.559082	0.031738	-0.530029	0.038073	0.013604	0.086479	-0.090800	-0.240060	-0.041601	-0.965606	8.005031	-27.132720	167.321462
49487		3.222318	1.007815	9.118996	1.359053	-0.023550	-0.184217	0.150193	-0.317753	0.264515	-0.562988	0.037109	-0.527100	0.032065	0.010052	0.091249	-0.089420	-0.241762	-0.041865	-0.965299	8.028171	-27.339217	167.459548
49488		4.012665	1.043010	8.954683	0.632154	0.085709	0.034574	0.186701	-0.441702	0.328646	-0.569580	0.036133	-0.533447	0.039912	0.010412	0.089645	-0.087711	-0.244107	-0.042167	-0.964852	8.057559	-27.623440	167.627565
49489		3.573053	1.119460	9.114524	1.130483	-0.070728	-0.024369	0.216342	-0.528314	0.413185	-0.571045	0.036133	-0.530518	0.035466	0.011169	0.091251	-0.085575	-0.246881	-0.042475	-0.964325	8.081658	-27.961456	167.842327
49490		4.870544	1.150367	8.816626	-0.076198	0.121379	0.324252	0.255814	-0.592511	0.469819	-0.578857	0.037109	-0.521729	0.048417	0.011505	0.088325	-0.083130	-0.250007	-0.042870	-0.963716	8.112184	-28.342709	168.088129
49491		5.831897	1.046919	8.378038	-1.036155	0.367698	0.389731	0.288469	-0.633419	0.510198	-0.587891	0.036865	-0.521484	0.058026	0.010496	0.083980	-0.080458	-0.253331	-0.043360	-0.963052	8.149292	-28.748406	168.356941
49492		4.741274	1.500883	8.731772	0.091046	-0.267833	0.231993	0.303142	-0.722477	0.504419	-0.595947	0.039795	-0.520264	0.047059	0.014995	0.087511	-0.077811	-0.257101	-0.043885	-0.962247	8.198131	-29.206511	168.614443
49493		4.152039	0.640411	8.873161	0.859820	0.475705	-0.044560	0.285136	-0.849043	0.514299	-0.601807	0.028320	-0.517334	0.041127	0.006384	0.088916	-0.075167	-0.261450	-0.044267	-0.961267	8.237356	-29.735176	168.867353
49494		4.069862	1.461427	9.009085	0.996682	-0.349516	0.124449	0.304253	-0.981816	0.580551	-0.608643	0.042236	-0.507568	0.040213	0.014594	0.090311	-0.072205	-0.266469	-0.044596	-0.960100	8.269004	-30.346881	169.152102
49495		4.311792	1.357656	8.879043	0.850159	-0.226757	0.111866	0.294027	-1.142537	0.609615	-0.623047	0.028564	-0.497314	0.042568	0.013576	0.089055	-0.069151	-0.272234	-0.044784	-0.958698	8.289651	-31.050054	169.442198
49496		4.404355	0.888041	8.657024	0.831534	0.223307	-0.097324	0.279804	-1.278039	0.631879	-0.637695	0.036865	-0.497803	0.043461	0.008897	0.086862	-0.066036	-0.278653	-0.044818	-0.957070	8.296540	-31.834065	169.736062
49497		4.123323	0.852664	8.595688	1.173123	0.192768	-0.315343	0.249108	-1.453989	0.640323	-0.644043	0.035156	-0.488037	0.040579	0.008550	0.086264	-0.062960	-0.285871	-0.044639	-0.955155	8.287363	-32.716415	170.021060
49498		4.441836	0.908315	8.416033	0.958520	0.153328	-0.302693	0.249588	-1.676150	0.596187	-0.654785	0.041992	-0.474121	0.043684	0.009109	0.084540	-0.060138	-0.294136	-0.044446	-0.952834	8.300794	-33.723138	170.257261
49499		4.688582	0.370703	8.248273	0.881940	0.688182	-0.384007	0.219260	-1.910853	0.519458	-0.670166	0.038574	-0.456055	0.046085	0.003737	0.082930	-0.057773	-0.303450	-0.044152	-0.950069	8.335214	-34.854588	170.419656
49500		4.805572	0.613644	7.823255	0.717584	0.418890	-0.648671	0.223064	-2.292220	0.470240	-0.692383	0.046143	-0.441650	0.047140	0.006160	0.078783	-0.055713	-0.314546	-0.043830	-0.946592	8.410361	-36.200244	170.509937
49501		3.986764	1.669153	7.934634	1.585595	-0.755016	-0.949891	0.205102	-2.782962	0.459302	-0.716553	0.050537	-0.420654	0.038720	0.016700	0.079908	-0.053832	-0.327887	-0.043302	-0.942188	8.510255	-37.821197	170.539686
49502		3.786746	1.731564	7.813274	1.941446	-0.880696	-1.220150	0.199157	-3.548041	0.601784	-0.731201	0.047119	-0.393311	0.036421	0.017348	0.078805	-0.051440	-0.344789	-0.042289	-0.936315	8.594511	-39.889749	170.586975
49503		3.625550	1.592072	7.455157	2.176425	-0.822444	-1.698910	0.164754	-4.438344	0.765088	-0.754150	0.055664	-0.344727	0.034528	0.015993	0.075344	-0.048510	-0.365725	-0.040592	-0.928571	8.645181	-42.474771	170.653819
49504		3.529509	1.733611	9.324234	3.938391	-0.965938	-0.542490	0.015331	-5.190539	0.899342	-0.781250	0.060791	-0.305908	0.032782	0.017480	0.094116	-0.045353	-0.389937	-0.037744	-0.918949	8.593996	-45.499243	170.739920
49505		6.207431	0.575170	7.307090	1.209212	0.321001	-0.290860	-0.262088	-5.753598	0.938354	-0.805420	0.064941	-0.247803	0.059911	0.006133	0.074807	-0.042629	-0.416363	-0.033395	-0.907584	8.397935	-48.844132	170.802799
49506		7.807434	-1.345769	5.747179	-0.358809	2.247530	-0.294892	-0.396287	-6.000545	0.837294	-0.819580	0.078857	-0.191650	0.076358	-0.013019	0.059806	-0.040645	-0.443506	-0.028558	-0.894894	8.198920	-52.322165	170.766267
49507		8.086223	-0.449420	5.658739	-0.064345	1.273598	-0.016997	-0.456554	-5.878769	0.645507	-0.840088	0.080566	-0.138428	0.079166	-0.004104	0.058941	-0.039600	-0.469652	-0.023882	-0.881640	8.093335	-55.713951	170.573821
49508		10.364850	0.602891	5.464894	-0.921551	0.335776	1.877444	-0.560114	-5.714383	0.342609	-0.849121	0.076904	-0.071289	0.102021	0.006363	0.057562	-0.040078	-0.494626	-0.019467	-0.867963	8.195388	-58.989638	170.071395
49509		9.249286	0.482087	4.581570	-0.497009	0.284530	0.503222	-0.714006	-5.487413	0.003752	-0.855469	0.082520	-0.010010	0.091190	0.004992	0.048312	-0.042355	-0.518145	-0.015258	-0.854107	8.599480	-62.105458	169.138072
49510		9.131695	0.837295	4.819737	0.305290	-0.143348	0.540060	-0.658711	-5.418475	-0.090652	-0.860107	0.075439	0.043945	0.089971	0.008496	0.050619	-0.044851	-0.540994	-0.011526	-0.839751	9.303768	-65.171084	167.931058
49511		9.249380	1.797642	5.265604	1.158008	-1.166951	0.854066	-0.753311	-5.436055	-0.104880	-0.865723	0.078369	0.104736	0.091028	0.018133	0.055076	-0.047633	-0.563475	-0.007430	-0.824725	10.242866	-68.235571	166.439406
49512		10.462617	1.743340	7.258997	3.181599	-1.183648	2.582340	-0.768526	-5.393224	-0.000137	-0.856934	0.078857	0.169434	0.102620	0.017719	0.075308	-0.049986	-0.585369	-0.002974	-0.809219	11.379839	-71.277820	164.758744
49513		11.164098	2.643855	7.768156	4.025635	-2.171599	3.264352	-0.683085	-5.215854	0.113304	-0.848633	0.075928	0.227783	0.109551	0.026773	0.080466	-0.051593	-0.606135	0.001420	-0.793685	12.808305	-74.218879	162.854014
49514		11.783766	1.363231	7.098219	3.980919	-0.918437	3.392201	-0.200321	-5.041711	0.105187	-0.847412	0.078369	0.276123	0.115992	0.013767	0.073908	-0.051735	-0.625941	0.003832	-0.778143	15.203975	-77.043352	160.263376
49515		12.147179	2.188282	6.472265	3.889751	-1.756014	3.452945	0.108942	-5.129504	0.168129	-0.825928	0.086914	0.334229	0.119740	0.021948	0.067821	-0.050631	-0.645751	0.005254	-0.761850	19.074070	-79.886544	156.378766
49516		12.540073	3.116704	9.559066	7.482567	-2.968132	4.097265	0.258180	-5.195470	0.302641	-0.805420	0.085693	0.390381	0.122814	0.031228	0.098844	-0.048494	-0.665420	0.006559	-0.744864	25.592035	-82.716108	149.936905
49517		12.323244	2.087567	7.693264	6.442876	-1.910094	3.233302	0.542049	-5.211276	0.453084	-0.776611	0.081543	0.429932	0.121124	0.020937	0.080164	-0.044822	-0.684746	0.007303	-0.727365	39.244660	-85.397910	136.527404
49518		12.566946	2.321756	7.090279	6.483819	-2.171546	3.101965	0.889913	-5.023829	0.661950	-0.747070	0.097412	0.475342	0.123757	0.023304	0.074131	-0.039173	-0.703001	0.007452	-0.710070	75.548135	-87.366455	100.672189
49519		13.030602	4.100746	9.591359	9.516664	-4.162555	3.250874	1.113858	-4.732490	0.859941	-0.729248	0.101318	0.515381	0.127808	0.041014	0.099186	-0.032022	-0.719806	0.007438	-0.693397	135.450049	-87.076093	41.351075
49520		11.258882	3.523853	9.651279	10.114610	-3.705348	0.969367	1.126977	-4.280296	1.028918	-0.698242	0.115234	0.552246	0.110305	0.035256	0.099089	-0.024236	-0.734634	0.007911	-0.677985	162.620822	-85.221681	14.771837
49521		9.302271	4.344412	7.629114	8.338373	-4.521708	-1.232988	1.072327	-3.875757	1.210021	-0.665771	0.138184	0.570313	0.091255	0.043584	0.078304	-0.016042	-0.747722	0.009181	-0.663755	174.304740	-83.169516	3.647769
49522		10.007294	4.459412	8.520934	9.632187	-4.718514	-1.004853	1.042056	-2.873325	1.361729	-0.647949	0.146973	0.584717	0.098528	0.044819	0.086865	-0.007497	-0.757202	0.011034	-0.653044	-178.808380	-81.547693	-2.697311
49523		9.356752	5.412707	7.143538	8.353386	-5.718524	-1.726283	0.136587	-1.541356	1.346817	-0.637939	0.157227	0.596680	0.092646	0.054704	0.072189	-0.002502	-0.762156	0.015735	-0.647197	-174.174861	-80.613027	-7.307833
49524		35.243521	10.269382	30.327985	35.514249	-11.750985	19.648789	0.203890	-1.132866	0.298450	-0.640625	0.161377	0.594727	0.350556	0.102907	0.305374	-0.000675	-0.765813	0.016215	-0.642859	-173.483928	-79.945117	-7.889966
49525		19.698061	11.199091	26.991437	29.564695	-12.179927	5.003065	0.111314	1.928120	-0.644145	-0.653320	0.145996	0.568848	0.199930	0.111201	0.268058	-0.002480	-0.759658	0.013374	-0.650180	-174.961693	-81.076339	-6.326828
49526		6.290144	8.682911	16.965169	17.442870	-9.151760	-5.975802	-0.413214	3.579949	-0.987045	-0.674316	0.144287	0.533203	0.066351	0.086856	0.168305	-0.007506	-0.747963	0.010904	-0.663609	-178.440443	-83.155294	-3.054045
49527		0.344986	2.603704	8.330805	8.244352	-2.843566	-10.297618	-0.620336	3.881473	-0.861619	-0.697021	0.131348	0.490967	0.005177	0.026275	0.083137	-0.012899	-0.734989	0.009584	-0.677889	175.764867	-85.364258	2.411812
49528		-1.809195	-0.527602	4.261654	4.153968	0.370547	-11.890723	-0.373713	3.550398	-0.641896	-0.713867	0.123047	0.451904	-0.017348	-0.005140	0.042939	-0.016628	-0.722850	0.008242	-0.690755	164.348869	-87.311861	13.635326
49529		-1.327649	-2.018261	3.969214	3.994877	1.860443	-11.285477	0.095474	3.205240	-0.465560	-0.740967	0.124023	0.416504	-0.012685	-0.020172	0.039889	-0.018025	-0.711745	0.005954	-0.702181	127.417641	-88.752016	50.639163
49530		0.269041	-2.198706	5.847833	5.911671	2.023932	-9.573751	0.643191	3.050598	-0.349799	-0.746094	0.124512	0.378418	0.003542	-0.022181	0.058357	-0.017065	-0.701024	0.002157	-0.712930	50.608313	-88.454011	127.834007
49531		3.213448	-1.049684	9.086710	8.998550	0.931872	-6.327678	1.117540	3.155131	-0.276778	-0.758057	0.127686	0.343506	0.033547	-0.011048	0.090285	-0.014172	-0.689811	-0.003074	-0.723845	26.422755	-86.908041	152.677728
49532		6.389177	1.144922	12.098375	11.635567	-1.075777	-2.606003	1.308503	3.669949	-0.217674	-0.757813	0.132080	0.288818	0.066110	0.010591	0.119855	-0.010399	-0.676492	-0.008838	-0.736324	17.760477	-84.905809	162.112937
49533		7.046574	3.166034	13.463832	12.647042	-2.898410	-1.294028	1.113771	4.309605	-0.164294	-0.774902	0.130859	0.239014	0.073373	0.030856	0.133251	-0.007050	-0.660544	-0.013724	-0.750628	13.257029	-82.503688	167.284925
49534		7.078929	3.696703	13.369249	12.182096	-3.275033	-0.683678	0.770209	4.870571	-0.187007	-0.775635	0.132568	0.183838	0.074053	0.036388	0.132056	-0.004885	-0.642079	-0.017420	-0.766425	10.679190	-79.749963	170.340568
49535		7.269340	3.364191	12.852558	11.176146	-2.833747	0.003642	0.481716	5.343770	-0.310329	-0.773438	0.131592	0.133301	0.076145	0.033219	0.126602	-0.004068	-0.621392	-0.020394	-0.783223	9.261507	-76.708339	172.070376
49536		8.623848	3.268637	12.782141	10.208663	-2.599293	1.908911	0.332395	5.817709	-0.514235	-0.763672	0.131348	0.071533	0.089991	0.032249	0.125294	-0.004468	-0.598295	-0.023424	-0.800921	8.613925	-73.368424	172.938467
49537		9.281762	3.185598	11.768298	8.320664	-2.423492	2.820942	0.235329	6.268386	-0.755067	-0.769043	0.125977	0.010498	0.096564	0.031360	0.114732	-0.006059	-0.572853	-0.026761	-0.819199	8.440735	-69.757508	173.263338
